pc_time,serial_num,sensor_ts,host_ts,ax,ay,az,gx,gy,gz,mx,my,mz,phase,rpe,weight_kg,ppg_a,ppg_b,ppg_c,ppg_d,ppg_e
2026-04-14 18:19:38.616905,892906,1609508272221555,5872191127,0.79056,-0.121024,0.40992,-16.0825,-3.64,16.065,-9.376,24.776001,20.184,concentric,4,7.0,114205.0,313282.0,199752.0,307701.0,211263.0
2026-04-14 18:19:38.622464,892907,1609508272236193,5872206162,0.782752,-0.113216,0.394304,-13.53625,-4.64625,16.14375,-9.624001,25.112001,20.192001,concentric,4,7.0,114205.0,313282.0,199752.0,307701.0,211263.0
2026-04-14 18:19:38.631215,892908,1609508272245158,5872214903,0.648064,-0.083936,0.216672,-10.52625,-5.7925,14.533751,-9.752001,25.2,21.080002,concentric,4,7.0,114205.0,313282.0,199752.0,307701.0,211263.0
2026-04-14 18:19:38.641235,892909,1609508272254169,5872223605,0.648064,-0.083936,0.216672,-8.61,-7.805,12.99375,-9.752001,25.2,21.080002,concentric,4,7.0,114205.0,313282.0,199752.0,307701.0,211263.0
2026-04-14 18:19:38.657082,892910,1609508272268727,5872238654,0.739808,-0.140544,0.314272,-9.0125,-10.167501,11.17375,-8.352,25.016,19.472,concentric,4,7.0,114205.0,313282.0,199752.0,307701.0,211263.0
2026-04-14 18:19:38.663204,892911,1609508272277687,5872247410,0.739808,-0.140544,0.314272,-10.01,-11.59375,10.8675,-8.352,25.016,19.472,concentric,4,7.0,114205.0,313282.0,199752.0,307701.0,211263.0
2026-04-14 18:19:38.679485,892912,1609508272292201,5872262301,0.732,-0.183488,0.31232,-10.92,-12.1625,12.17125,-8.320001,25.072,19.552,concentric,4,7.0,114205.0,313282.0,199752.0,307701.0,211263.0
2026-04-14 18:19:38.761372,892923,1609508272301484,5872271125,0.732,-0.183488,0.31232,-12.1975,-12.97625,14.035,-8.320001,25.072,19.552,concentric,4,7.0,104852.0,309311.0,188188.0,303675.0,199425.0
2026-04-14 18:19:38.763474,892924,1609508272310529,5872279918,0.671488,-0.171776,0.242048,-12.29375,-12.62625,14.9275,-8.52,25.032001,19.400002,concentric,4,7.0,104852.0,309311.0,188188.0,303675.0,199425.0
2026-04-14 18:19:38.766317,892925,1609508272325065,5872294899,0.657824,-0.154208,0.22448,-9.695,-11.585,15.846251,-8.568001,25.304,20.672,concentric,4,7.0,104852.0,309311.0,188188.0,303675.0,199425.0
2026-04-14 18:19:38.768458,892926,1609508272334021,5872303657,0.657824,-0.154208,0.22448,-5.5475,-10.57875,15.4875,-8.568001,25.304,20.672,concentric,4,7.0,104852.0,309311.0,188188.0,303675.0,199425.0
2026-04-14 18:19:38.771400,892927,1609508272348676,5872318580,0.661728,-0.121024,0.2928,-3.0625,-9.98375,13.92125,-8.120001,25.248001,20.208,concentric,4,7.0,104852.0,309311.0,188188.0,303675.0,199425.0
2026-04-14 18:19:38.773899,892928,1609508272357643,5872327283,0.661728,-0.121024,0.2928,-2.3625,-9.87,13.7025,-8.120001,25.248001,20.208,concentric,4,7.0,104852.0,309311.0,188188.0,303675.0,199425.0
2026-04-14 18:19:38.776370,892929,1609508272372125,5872342166,0.66368,-0.160064,0.220576,-1.9075,-10.35125,14.49,-8.664001,25.240002,20.104,concentric,4,7.0,104852.0,309311.0,188188.0,303675.0,199425.0
2026-04-14 18:19:38.778911,892930,1609508272381060,5872350868,0.66368,-0.160064,0.220576,-5.39,-11.585,13.965,-8.664001,25.240002,20.104,concentric,4,7.0,104852.0,309311.0,188188.0,303675.0,199425.0
2026-04-14 18:19:38.781386,892931,1609508272390055,5872359561,0.61488,-0.150304,0.284992,-9.63375,-11.59375,13.3525,-8.368,25.512001,20.008001,concentric,4,7.0,104852.0,309311.0,188188.0,303675.0,199425.0
2026-04-14 18:19:38.816373,892942,1609508272404933,5872374585,0.607072,-0.167872,0.128832,-11.6725,-10.98125,11.83875,-7.920001,25.096,18.984001,concentric,4,7.0,94000.0,303173.0,174907.0,298036.0,185998.0
2026-04-14 18:19:38.818256,892943,1609508272413950,5872383361,0.607072,-0.167872,0.128832,-10.63125,-10.49125,8.95125,-7.920001,25.096,18.984001,concentric,4,7.0,94000.0,303173.0,174907.0,298036.0,185998.0
2026-04-14 18:19:38.820936,892944,1609508272428506,5872398273,0.56608,-0.130784,0.13664,-6.9475,-10.2725,6.76375,-8.672001,25.104002,20.056002,concentric,4,7.0,94000.0,303173.0,174907.0,298036.0,185998.0
2026-04-14 18:19:38.823759,892945,1609508272437446,5872406942,0.56608,-0.130784,0.13664,-2.75625,-9.6425,5.85375,-8.672001,25.104002,20.056002,concentric,4,7.0,94000.0,303173.0,174907.0,298036.0,185998.0
2026-04-14 18:19:38.832524,892946,1609508272446382,5872415635,0.642208,-0.181536,0.216672,-0.30625,-10.05375,6.79875,-8.784,25.400002,20.664001,concentric,4,7.0,94000.0,303173.0,174907.0,298036.0,185998.0
2026-04-14 18:19:38.847662,892947,1609508272460928,5872430530,0.642208,-0.181536,0.216672,-2.3625,-9.84375,7.8225,-8.784,25.400002,20.664001,concentric,4,7.0,94000.0,303173.0,174907.0,298036.0,185998.0
2026-04-14 18:19:38.858898,892948,1609508272469878,5872439221,0.675392,-0.17568,0.32208,-5.7575,-10.22,7.97125,-8.576,25.52,19.12,concentric,4,7.0,94000.0,303173.0,174907.0,298036.0,185998.0
2026-04-14 18:19:38.869840,892949,1609508272484418,5872454248,0.675392,-0.152256,0.105408,-5.6875,-10.12375,5.5475,-8.576,25.52,19.448002,concentric,4,7.0,94000.0,303173.0,174907.0,298036.0,185998.0
2026-04-14 18:19:38.881434,892950,1609508272493406,5872462937,0.679296,-0.152256,0.105408,-1.4175,-9.835,2.94875,-7.648,24.848001,19.448002,concentric,4,7.0,94000.0,303173.0,174907.0,298036.0,185998.0
2026-04-14 18:19:38.911952,892961,1609508272507984,5872478170,0.655872,-0.167872,0.13664,3.4825,-9.8875,1.5225,-7.656,24.800001,19.048,concentric,4,7.0,95778.0,302842.0,177608.0,297860.0,188884.0
2026-04-14 18:19:38.919792,892962,1609508272516960,5872486952,0.655872,-0.167872,0.13664,4.97,-9.87,1.39125,-7.656,24.800001,19.048,concentric,4,7.0,95778.0,302842.0,177608.0,297860.0,188884.0
2026-04-14 18:19:38.922158,892963,1609508272525913,5872495664,0.661728,-0.244,0.187392,0.2625,-10.0975,3.64875,-7.352,25.216002,18.880001,concentric,4,7.0,95778.0,302842.0,177608.0,297860.0,188884.0
2026-04-14 18:19:38.927642,892964,1609508272540546,5872510574,0.661728,-0.244,0.187392,-7.77,-9.31,6.41375,-7.352,25.216002,18.880001,concentric,4,7.0,95778.0,302842.0,177608.0,297860.0,188884.0
2026-04-14 18:19:38.938406,892965,1609508272549513,5872519250,0.724192,-0.191296,0.16592,-12.6,-7.28,8.61,-7.616,25.6,19.736,concentric,4,7.0,95778.0,302842.0,177608.0,297860.0,188884.0
2026-04-14 18:19:38.950120,892966,1609508272564085,5872534196,0.724192,-0.191296,0.16592,-7.35,-5.5825,9.12625,-7.616,25.6,19.736,concentric,4,7.0,95778.0,302842.0,177608.0,297860.0,188884.0
2026-04-14 18:19:38.961329,892967,1609508272573039,5872542886,0.767136,-0.113216,0.345504,5.06625,-6.09875,8.2075,-8.312,25.576002,19.640001,concentric,4,7.0,95778.0,302842.0,177608.0,297860.0,188884.0
2026-04-14 18:19:38.998763,892968,1609508272582000,5872551596,0.767136,-0.113216,0.345504,10.21125,-7.455,6.65,-8.312,25.576002,19.640001,concentric,4,7.0,95778.0,302842.0,177608.0,297860.0,188884.0
2026-04-14 18:19:39.000864,892969,1609508272596522,5872566494,0.745664,-0.163968,0.40016,2.66,-8.6625,8.198751,-7.84,25.056002,18.880001,concentric,4,7.0,95778.0,302842.0,177608.0,297860.0,188884.0
2026-04-14 18:19:39.031056,892980,1609508272605671,5872575313,0.745664,-0.18544,0.35136,-7.63,-7.98,10.71875,-7.536,25.344002,18.888,concentric,4,7.0,99078.0,308413.0,181442.0,302538.0,192650.0
2026-04-14 18:19:39.033733,892981,1609508272620238,5872590276,0.745664,-0.18544,0.35136,-11.27875,-6.78125,12.01375,-7.536,25.344002,18.888,concentric,4,7.0,99078.0,308413.0,181442.0,302538.0,192650.0
2026-04-14 18:19:39.035951,892982,1609508272629207,5872599002,0.716384,-0.15616,0.076128,-7.3675,-6.85125,12.48625,-7.528,25.304,18.896002,concentric,4,7.0,99078.0,308413.0,181442.0,302538.0,192650.0
2026-04-14 18:19:39.038947,892983,1609508272643754,5872613942,0.716384,-0.15616,0.076128,-1.9425,-9.135,11.41,-7.528,25.304,18.896002,concentric,4,7.0,99078.0,308413.0,181442.0,302538.0,192650.0
2026-04-14 18:19:39.040940,892984,1609508272652772,5872622747,0.77104,-0.154208,0.357216,-1.3125,-12.39,10.386251,-7.328001,25.008001,18.576,concentric,4,7.0,99078.0,308413.0,181442.0,302538.0,192650.0
2026-04-14 18:19:39.048898,892985,1609508272661696,5872631634,0.77104,-0.154208,0.357216,-5.1275,-14.23625,10.605001,-7.328001,25.008001,18.576,concentric,4,7.0,99078.0,308413.0,181442.0,302538.0,192650.0
2026-04-14 18:19:39.065176,892986,1609508272676375,5872646542,0.732,-0.199104,0.286944,-12.845,-15.49625,10.1325,-8.200001,25.528002,18.608002,concentric,4,7.0,99078.0,308413.0,181442.0,302538.0,192650.0
2026-04-14 18:19:39.098335,892987,1609508272685348,5872655238,0.732,-0.199104,0.343552,-15.0675,-16.2925,9.8525,-8.200001,25.528002,18.608002,concentric,4,7.0,99078.0,308413.0,181442.0,302538.0,192650.0
2026-04-14 18:19:39.100586,892988,1609508272700018,5872670224,0.823744,-0.191296,0.343552,-12.81875,-16.5375,8.0325,-8.816,25.976002,15.688001,concentric,4,7.0,99078.0,308413.0,181442.0,302538.0,192650.0
2026-04-14 18:19:39.174632,892999,1609508272708985,5872679005,0.737856,-0.154208,0.197152,-7.98875,-16.73,7.665,-8.320001,25.704,19.472,concentric,4,7.0,94829.0,307483.0,175840.0,300892.0,186983.0
2026-04-14 18:19:39.178524,893000,1609508272717963,5872687740,0.737856,-0.154208,0.197152,-5.99375,-17.68375,6.57125,-8.320001,25.704,19.472,concentric,4,7.0,94829.0,307483.0,175840.0,300892.0,186983.0
2026-04-14 18:19:39.183418,893001,1609508272732524,5872702638,0.83936,-0.255712,0.271328,-11.17375,-17.5,5.285,-8.312,26.168001,18.800001,concentric,4,7.0,94829.0,307483.0,175840.0,300892.0,186983.0
2026-04-14 18:19:39.188097,893002,1609508272741436,5872711301,0.83936,-0.255712,0.271328,-17.185,-16.31875,4.59375,-8.312,26.168001,18.800001,concentric,4,7.0,94829.0,307483.0,175840.0,300892.0,186983.0
2026-04-14 18:19:39.188271,893003,1609508272756090,5872726202,0.8784,-0.271328,0.35136,-19.36375,-14.21,3.98125,-8.328,26.056002,18.992,concentric,4,7.0,94829.0,307483.0,175840.0,300892.0,186983.0
2026-04-14 18:19:39.188384,893004,1609508272765011,5872734888,0.8784,-0.271328,0.35136,-16.19625,-12.136251,2.0125,-8.328,26.056002,18.992,concentric,4,7.0,94829.0,307483.0,175840.0,300892.0,186983.0
2026-04-14 18:19:39.189478,893005,1609508272779565,5872749921,0.796416,-0.244,0.12688,-8.89,-10.78,1.30375,-8.744,25.896002,17.952002,concentric,4,7.0,94829.0,307483.0,175840.0,300892.0,186983.0
2026-04-14 18:19:39.192485,893006,1609508272788625,5872758729,0.804224,-0.232288,0.261568,-3.77125,-10.167501,1.04125,-8.296001,25.976002,18.056002,concentric,4,7.0,94829.0,307483.0,175840.0,300892.0,186983.0
2026-04-14 18:19:39.194993,893007,1609508272797601,5872767427,0.804224,-0.232288,0.261568,-6.7025,-8.925,1.5575,-8.296001,25.976002,18.056002,concentric,4,7.0,94829.0,307483.0,175840.0,300892.0,186983.0
2026-04-14 18:19:39.222625,893018,1609508272812361,5872782450,0.89792,-0.269376,0.398208,-12.3725,-5.88875,2.70375,-7.464,26.008001,17.720001,concentric,4,7.0,96243.0,310920.0,177497.0,303570.0,188693.0
2026-04-14 18:19:39.225105,893019,1609508272821456,5872791256,0.89792,-0.269376,0.398208,-14.93625,-2.63375,3.22875,-7.464,26.008001,17.720001,concentric,4,7.0,96243.0,310920.0,177497.0,303570.0,188693.0
2026-04-14 18:19:39.227617,893020,1609508272836163,5872806390,0.808128,-0.27328,0.173728,-13.055,0.69125,3.47375,-7.608,26.048,17.976002,concentric,4,7.0,96243.0,310920.0,177497.0,303570.0,188693.0
2026-04-14 18:19:39.238854,893021,1609508272845209,5872815104,0.808128,-0.27328,0.173728,-7.6125,2.8525,3.57875,-7.608,26.048,17.976002,concentric,4,7.0,96243.0,310920.0,177497.0,303570.0,188693.0
2026-04-14 18:19:39.241355,893022,1609508272854146,5872823783,0.905728,-0.33184,0.23424,-3.1675,3.01875,3.57875,-7.464,26.056002,18.928001,concentric,4,7.0,96243.0,310920.0,177497.0,303570.0,188693.0
2026-04-14 18:19:39.256374,893023,1609508272868778,5872838728,0.903776,-0.30256,0.25376,-3.43875,2.8875,4.69,-8.304001,26.168001,17.568,concentric,4,7.0,96243.0,310920.0,177497.0,303570.0,188693.0
2026-04-14 18:19:39.265140,893024,1609508272877709,5872847445,0.903776,-0.30256,0.25376,-6.405,3.42125,6.01125,-8.304001,26.168001,17.568,concentric,4,7.0,96243.0,310920.0,177497.0,303570.0,188693.0
2026-04-14 18:19:39.278750,893025,1609508272892208,5872862430,0.884256,-0.257664,0.218624,-8.16375,3.64,5.39875,-7.216001,26.088001,17.720001,concentric,4,7.0,96243.0,310920.0,177497.0,303570.0,188693.0
2026-04-14 18:19:39.290005,893026,1609508272901377,5872871140,0.884256,-0.257664,0.218624,-6.71125,3.21125,3.75375,-7.216001,26.088001,17.720001,concentric,4,7.0,96243.0,310920.0,177497.0,303570.0,188693.0
2026-04-14 18:19:39.317176,893037,1609508272910348,5872879851,0.823744,-0.255712,0.275232,-5.55625,3.57,1.4875,-7.432,26.176,17.824001,concentric,4,7.0,98796.0,315243.0,180670.0,307269.0,191913.0
2026-04-14 18:19:39.320138,893038,1609508272924892,5872894786,0.823744,-0.255712,0.275232,-4.0425,2.485,-0.76125,-7.432,26.176,17.824001,concentric,4,7.0,98796.0,315243.0,180670.0,307269.0,191913.0
2026-04-14 18:19:39.322640,893039,1609508272933840,5872903485,0.851072,-0.347456,0.122976,-3.2725,0.77875,-1.05,-7.344,26.072,19.272001,concentric,4,7.0,98796.0,315243.0,180670.0,307269.0,191913.0
2026-04-14 18:19:39.334704,893040,1609508272948331,5872918477,0.854976,-0.255712,0.325984,-2.6075,-0.09625,-0.3675,-7.776001,26.656002,17.416,concentric,4,7.0,98796.0,315243.0,180670.0,307269.0,191913.0
2026-04-14 18:19:39.344839,893041,1609508272957361,5872927166,0.854976,-0.255712,0.325984,-1.58375,0.13125,0.0525,-7.776001,26.656002,17.416,concentric,4,7.0,98796.0,315243.0,180670.0,307269.0,191913.0
2026-04-14 18:19:39.362515,893042,1609508272971882,5872942086,0.843264,-0.226432,0.339648,0.23625,0.51625,-0.49875,-8.296001,26.136002,17.896,concentric,4,7.0,98796.0,315243.0,180670.0,307269.0,191913.0
2026-04-14 18:19:39.367290,893043,1609508272980876,5872950802,0.843264,-0.226432,0.339648,2.33625,-0.53375,-1.96,-8.296001,26.136002,17.896,concentric,4,7.0,98796.0,315243.0,180670.0,307269.0,191913.0
2026-04-14 18:19:39.375987,893044,1609508272990023,5872959520,0.798368,-0.275232,0.23424,2.9575,-1.54875,-2.52,-8.336,26.816002,18.52,concentric,4,7.0,98796.0,315243.0,180670.0,307269.0,191913.0
2026-04-14 18:19:39.414818,893055,1609508273004523,5872974739,0.798368,-0.275232,0.23424,1.6275,-1.28625,-2.0825,-8.336,26.816002,18.52,concentric,4,7.0,100451.0,317530.0,182626.0,309268.0,193827.0
2026-04-14 18:19:39.417054,893056,1609508273013546,5872983569,0.853024,-0.310368,0.163968,-0.0175,-0.62125,-1.9075,-7.216001,26.352001,17.880001,concentric,4,7.0,100451.0,317530.0,182626.0,309268.0,193827.0
2026-04-14 18:19:39.419824,893057,1609508273028073,5872996519,0.874496,-0.240096,0.335744,-0.18375,-0.0525,-1.58375,-7.216001,26.944002,17.960001,concentric,4,7.0,100451.0,317530.0,182626.0,309268.0,193827.0
2026-04-14 18:19:39.424824,893058,1609508273037414,5873007298,0.874496,-0.240096,0.335744,1.05,0.88375,-1.61,-8.288,26.944002,17.960001,concentric,4,7.0,100451.0,317530.0,182626.0,309268.0,193827.0
2026-04-14 18:19:39.433652,893059,1609508273046357,5873015989,0.874496,-0.240096,0.335744,1.7675,0.02625,-2.35375,-8.288,26.944002,17.960001,concentric,4,7.0,100451.0,317530.0,182626.0,309268.0,193827.0
2026-04-14 18:19:39.472186,893060,1609508273060929,5873030981,0.901824,-0.277184,0.343552,1.68,0.1225,-3.05375,-7.888001,26.496002,18.0,concentric,4,7.0,100451.0,317530.0,182626.0,309268.0,193827.0
2026-04-14 18:19:39.492255,893061,1609508273069860,5873039707,0.851072,-0.304512,0.148352,0.20125,-0.42,-2.975,-8.64,26.152,18.6,concentric,4,7.0,100451.0,317530.0,182626.0,309268.0,193827.0
2026-04-14 18:19:39.494763,893062,1609508273084358,5873054607,0.851072,-0.304512,0.148352,-0.8925,-0.34125,-2.695,-8.64,26.152,18.6,concentric,4,7.0,100451.0,317530.0,182626.0,309268.0,193827.0
2026-04-14 18:19:39.497321,893063,1609508273093287,5873063304,0.901824,-0.261568,0.365024,-1.6625,0.46375,-3.17625,-8.0,26.112001,18.424002,concentric,4,7.0,100451.0,317530.0,182626.0,309268.0,193827.0
2026-04-14 18:19:39.528572,893074,1609508273108357,5873078279,0.901824,-0.269376,0.325984,-1.995,0.7525,-3.28125,-8.0,26.112001,22.52,concentric,4,7.0,99990.0,317973.0,182167.0,309866.0,193338.0
2026-04-14 18:19:39.531074,893075,1609508273117645,5873087160,0.899872,-0.269376,0.325984,-1.91625,1.63625,-3.17625,-7.976,26.560001,21.168001,concentric,4,7.0,99990.0,317973.0,182167.0,309866.0,193338.0
2026-04-14 18:19:39.533610,893076,1609508273126603,5873095882,0.899872,-0.269376,0.325984,-2.415,1.40875,-3.92875,-7.976,26.560001,21.168001,concentric,4,7.0,99990.0,317973.0,182167.0,309866.0,193338.0
2026-04-14 18:19:39.536054,893077,1609508273141058,5873110821,0.911584,-0.296704,0.325984,-3.99,0.7175,-4.75125,-8.104,26.392002,18.608002,concentric,4,7.0,99990.0,317973.0,182167.0,309866.0,193338.0
2026-04-14 18:19:39.538576,893078,1609508273150075,5873119507,0.876448,-0.308416,0.171776,-5.57375,1.46125,-4.97875,-8.264,26.28,17.616001,concentric,4,7.0,99990.0,317973.0,182167.0,309866.0,193338.0
2026-04-14 18:19:39.553457,893079,1609508273164611,5873134444,0.876448,-0.308416,0.171776,-5.0925,2.0475,-4.92625,-8.264,26.28,17.616001,concentric,4,7.0,99990.0,317973.0,182167.0,309866.0,193338.0
2026-04-14 18:19:39.559668,893080,1609508273173542,5873143148,0.864736,-0.261568,0.296704,-3.78875,2.56375,-5.2325,-7.2,26.336,17.744001,concentric,4,7.0,99990.0,317973.0,182167.0,309866.0,193338.0
2026-04-14 18:19:39.569965,893081,1609508273182499,5873151842,0.864736,-0.261568,0.296704,-1.56625,2.9225,-5.285,-7.2,26.336,17.744001,concentric,4,7.0,99990.0,317973.0,182167.0,309866.0,193338.0
2026-04-14 18:19:39.583771,893082,1609508273197012,5873166813,0.845216,-0.271328,0.140544,-1.33,2.86125,-6.0725,-7.136,25.912,17.592001,concentric,4,7.0,99990.0,317973.0,182167.0,309866.0,193338.0
2026-04-14 18:19:39.643290,893093,1609508273206468,5873175865,0.845216,-0.271328,0.140544,-3.85875,2.3625,-6.4225,-7.136,25.912,17.592001,concentric,4,7.0,101616.0,320090.0,184157.0,312222.0,195264.0
2026-04-14 18:19:39.644464,893094,1609508273221085,5873190849,0.880352,-0.269376,0.38064,-7.7,2.2225,-6.86,-7.448,26.2,18.320002,concentric,4,7.0,101616.0,320090.0,184157.0,312222.0,195264.0
2026-04-14 18:19:39.647505,893095,1609508273230213,5873199593,0.774944,-0.27328,0.140544,-10.03625,2.7125,-7.2275,-7.448,25.968,17.472,concentric,4,7.0,101616.0,320090.0,184157.0,312222.0,195264.0
2026-04-14 18:19:39.649680,893096,1609508273239239,5873208281,0.774944,-0.27328,0.140544,-9.8,3.36875,-7.62125,-7.448,25.968,17.472,concentric,4,7.0,101616.0,320090.0,184157.0,312222.0,195264.0
2026-04-14 18:19:39.652078,893097,1609508273253779,5873223156,0.866688,-0.277184,0.30256,-8.30375,4.1825,-7.95375,-7.224001,26.400002,17.736,concentric,4,7.0,101616.0,320090.0,184157.0,312222.0,195264.0
2026-04-14 18:19:39.655015,893098,1609508273262752,5873231876,0.866688,-0.277184,0.30256,-7.0,5.005,-7.9275,-7.224001,26.400002,17.736,concentric,4,7.0,101616.0,320090.0,184157.0,312222.0,195264.0
2026-04-14 18:19:39.663771,893099,1609508273277262,5873246817,0.851072,-0.275232,0.32208,-6.86875,5.64375,-7.805,-7.448,26.072,17.480001,concentric,4,7.0,101616.0,320090.0,184157.0,312222.0,195264.0
2026-04-14 18:19:39.673911,893100,1609508273286209,5873255519,0.851072,-0.275232,0.32208,-6.93875,6.15125,-8.72375,-7.448,26.072,17.480001,concentric,4,7.0,101616.0,320090.0,184157.0,312222.0,195264.0
2026-04-14 18:19:39.680121,893101,1609508273295164,5873264257,0.870592,-0.290848,0.279136,-6.02875,6.29125,-9.45,-7.328001,26.368002,17.592001,concentric,4,7.0,101616.0,320090.0,184157.0,312222.0,195264.0
2026-04-14 18:19:39.716412,893112,1609508273309815,5873279232,0.862784,-0.27328,0.327936,-4.5675,5.95,-10.01,-7.328001,28.416002,19.320002,concentric,4,7.0,101423.0,320888.0,183767.0,313292.0,194889.0
2026-04-14 18:19:39.718532,893113,1609508273318899,5873288051,0.862784,-0.27328,0.327936,-2.82625,5.81875,-10.5525,-7.352,26.656002,19.320002,concentric,4,7.0,101423.0,320888.0,183767.0,313292.0,194889.0
2026-04-14 18:19:39.721387,893114,1609508273333668,5873302962,0.75152,-0.226432,0.324032,-2.28375,5.5825,-11.33125,-8.480001,26.6,18.456001,concentric,4,7.0,101423.0,320888.0,183767.0,313292.0,194889.0
2026-04-14 18:19:39.731451,893115,1609508273342654,5873311690,0.75152,-0.226432,0.324032,-3.4825,6.0725,-12.50375,-8.480001,26.6,18.456001,concentric,4,7.0,101423.0,320888.0,183767.0,313292.0,194889.0
2026-04-14 18:19:39.743300,893116,1609508273357138,5873326580,0.831552,-0.279136,0.22448,-4.025,6.88625,-13.405,-8.384001,26.088001,19.68,concentric,4,7.0,101423.0,320888.0,183767.0,313292.0,194889.0
2026-04-14 18:19:39.750758,893117,1609508273366104,5873335292,0.831552,-0.279136,0.22448,-2.695,7.63875,-14.55125,-8.384001,26.088001,19.68,concentric,4,7.0,101423.0,320888.0,183767.0,313292.0,194889.0
2026-04-14 18:19:39.759749,893118,1609508273375074,5873344003,0.753472,-0.27328,0.111264,0.07875,6.78125,-15.365,-7.528,26.304,17.256,concentric,4,7.0,101423.0,320888.0,183767.0,313292.0,194889.0
2026-04-14 18:19:39.776100,893119,1609508273389633,5873358921,0.753472,-0.27328,0.111264,2.30125,5.6875,-15.636251,-7.528,26.304,17.256,concentric,4,7.0,101423.0,320888.0,183767.0,313292.0,194889.0
2026-04-14 18:19:39.786063,893120,1609508273398610,5873367667,0.710528,-0.228384,0.222528,3.815,4.97,-15.155,-7.76,26.12,17.408,concentric,4,7.0,101423.0,320888.0,183767.0,313292.0,194889.0
2026-04-14 18:19:39.869830,893131,1609508273413392,5873382686,0.798368,-0.249856,0.275232,3.22,5.48625,-15.05875,-7.904,26.416,18.640001,concentric,4,7.0,99338.0,316594.0,181340.0,310424.0,192419.0
2026-04-14 18:19:39.872349,893132,1609508273422361,5873391491,0.798368,-0.249856,0.275232,3.0275,6.43125,-15.51375,-7.904,26.416,18.640001,concentric,4,7.0,99338.0,316594.0,181340.0,310424.0,192419.0
2026-04-14 18:19:39.874712,893133,1609508273431270,5873400301,0.77104,-0.255712,0.242048,4.1125,6.965,-16.23125,-9.552,26.496002,19.504002,concentric,4,7.0,99338.0,316594.0,181340.0,310424.0,192419.0
2026-04-14 18:19:39.879819,893134,1609508273445739,5873415201,0.77104,-0.255712,0.242048,5.9675,7.27125,-16.70375,-9.552,26.496002,19.504002,concentric,4,7.0,99338.0,316594.0,181340.0,310424.0,192419.0
2026-04-14 18:19:39.882327,893135,1609508273454667,5873423913,0.735904,-0.216672,0.355264,7.20125,7.5075,-16.72125,-9.872001,26.272001,19.328001,concentric,4,7.0,99338.0,316594.0,181340.0,310424.0,192419.0
2026-04-14 18:19:39.884675,893136,1609508273469155,5873438818,0.735904,-0.216672,0.355264,7.6125,7.70875,-16.16125,-9.872001,26.272001,19.328001,concentric,4,7.0,99338.0,316594.0,181340.0,310424.0,192419.0
2026-04-14 18:19:39.887342,893137,1609508273478157,5873447539,0.626592,-0.226432,0.13664,6.825,7.9975,-15.23375,-9.576,25.920002,18.992,concentric,4,7.0,99338.0,316594.0,181340.0,310424.0,192419.0
2026-04-14 18:19:39.889818,893138,1609508273492836,5873462611,0.708576,-0.232288,0.261568,7.8925,9.03875,-14.30625,-9.048,25.912,19.048,concentric,4,7.0,99338.0,316594.0,181340.0,310424.0,192419.0
2026-04-14 18:19:39.892323,893139,1609508273501939,5873471345,0.708576,-0.232288,0.261568,11.235,9.765,-13.64125,-9.048,25.912,19.048,concentric,4,7.0,99338.0,316594.0,181340.0,310424.0,192419.0
2026-04-14 18:19:39.920603,893150,1609508273511067,5873480081,0.708576,-0.199104,0.300608,14.63875,9.205,-12.4425,-9.048,25.912,19.048,concentric,4,7.0,91076.0,306861.0,170975.0,302497.0,181901.0
2026-04-14 18:19:39.921978,893151,1609508273525761,5873494983,0.694912,-0.199104,0.300608,15.58375,7.42875,-11.41,-8.912001,25.776001,20.36,concentric,4,7.0,91076.0,306861.0,170975.0,302497.0,181901.0
2026-04-14 18:19:39.924769,893152,1609508273534717,5873503678,0.642208,-0.167872,0.124928,13.81625,5.60875,-11.375,-9.016001,25.880001,19.216002,concentric,4,7.0,91076.0,306861.0,170975.0,302497.0,181901.0
2026-04-14 18:19:39.936102,893153,1609508273549345,5873518670,0.642208,-0.167872,0.124928,12.03125,5.8975,-12.3375,-9.016001,25.880001,19.216002,concentric,4,7.0,91076.0,306861.0,170975.0,302497.0,181901.0
2026-04-14 18:19:39.944753,893154,1609508273558256,5873527387,0.601216,-0.210816,0.085888,12.99375,6.6675,-13.2475,-9.112,25.248001,17.952002,concentric,4,7.0,91076.0,306861.0,170975.0,302497.0,181901.0
2026-04-14 18:19:39.952344,893155,1609508273567193,5873536153,0.601216,-0.210816,0.085888,14.56,7.00875,-13.95625,-9.112,25.248001,17.952002,concentric,4,7.0,91076.0,306861.0,170975.0,302497.0,181901.0
2026-04-14 18:19:39.967618,893156,1609508273581702,5873551223,0.62464,-0.191296,0.251808,16.89625,7.35875,-11.97,-8.112,24.728,18.688002,concentric,4,7.0,91076.0,306861.0,170975.0,302497.0,181901.0
2026-04-14 18:19:39.978552,893157,1609508273590680,5873559923,0.62464,-0.191296,0.251808,18.82125,7.30625,-9.730001,-8.112,24.728,18.688002,concentric,4,7.0,91076.0,306861.0,170975.0,302497.0,181901.0
2026-04-14 18:19:39.992236,893158,1609508273605220,5873574905,0.696864,-0.173728,0.35136,16.84375,7.6825,-8.44375,-8.240001,24.880001,18.76,concentric,4,7.0,91076.0,306861.0,170975.0,302497.0,181901.0
2026-04-14 18:19:40.019880,893169,1609508273614200,5873583621,0.700768,-0.138592,0.333792,12.46875,8.19,-7.37625,-8.320001,24.880001,19.704,concentric,4,7.0,83777.0,294569.0,161953.0,292484.0,172952.0
2026-04-14 18:19:40.022271,893170,1609508273628751,5873598636,0.700768,-0.138592,0.333792,9.02125,9.89625,-6.9825,-8.320001,24.880001,19.704,concentric,4,7.0,83777.0,294569.0,161953.0,292484.0,172952.0
2026-04-14 18:19:40.025012,893171,1609508273637749,5873607397,0.640256,-0.177632,0.124928,8.2775,11.83,-7.11375,-8.224,24.648,19.016,concentric,4,7.0,83777.0,294569.0,161953.0,292484.0,172952.0
2026-04-14 18:19:40.032502,893172,1609508273646699,5873616106,0.640256,-0.177632,0.124928,8.51375,13.97375,-7.735,-8.224,24.648,19.016,concentric,4,7.0,83777.0,294569.0,161953.0,292484.0,172952.0
2026-04-14 18:19:40.048763,893173,1609508273661246,5873631153,0.626592,-0.183488,0.271328,10.24625,15.2425,-6.545,-8.304001,24.592001,19.424002,concentric,4,7.0,83777.0,294569.0,161953.0,292484.0,172952.0
2026-04-14 18:19:40.057653,893174,1609508273670219,5873639858,0.626592,-0.183488,0.271328,9.555,16.09125,-5.62625,-8.304001,24.592001,19.424002,concentric,4,7.0,83777.0,294569.0,161953.0,292484.0,172952.0
2026-04-14 18:19:40.072644,893175,1609508273684893,5873654817,0.710528,-0.173728,0.329888,7.34125,17.5175,-5.15375,-7.896,24.648,18.960001,concentric,4,7.0,83777.0,294569.0,161953.0,292484.0,172952.0
2026-04-14 18:19:40.080126,893176,1609508273693928,5873663578,0.65392,-0.128832,0.210816,7.30625,17.885,-5.29375,-8.016001,24.472002,19.880001,concentric,4,7.0,83777.0,294569.0,161953.0,292484.0,172952.0
2026-04-14 18:19:40.090128,893177,1609508273702945,5873672271,0.65392,-0.128832,0.210816,9.87875,18.7425,-5.95875,-8.016001,24.472002,19.880001,concentric,4,7.0,83777.0,294569.0,161953.0,292484.0,172952.0
2026-04-14 18:19:40.118292,893188,1609508273717658,5873687314,0.679296,-0.193248,0.1464,10.325,20.545,-6.51875,-8.224,24.6,20.488,concentric,4,7.0,82973.0,292747.0,161072.0,290764.0,172135.0
2026-04-14 18:19:40.123295,893189,1609508273726621,5873696125,0.679296,-0.193248,0.1464,5.80125,21.76125,-6.0375,-8.224,24.6,20.488,concentric,4,7.0,82973.0,292747.0,161072.0,290764.0,172135.0
2026-04-14 18:19:40.126969,893190,1609508273741150,5873711024,0.72224,-0.216672,0.18544,4.54125,21.84875,-3.64,-8.816,24.800001,20.664001,concentric,4,7.0,82973.0,292747.0,161072.0,290764.0,172135.0
2026-04-14 18:19:40.135900,893191,1609508273750109,5873719729,0.72224,-0.216672,0.18544,6.2125,20.1425,-2.28375,-8.816,24.800001,20.664001,concentric,4,7.0,82973.0,292747.0,161072.0,290764.0,172135.0
2026-04-14 18:19:40.152143,893192,1609508273764595,5873734623,0.724192,-0.187392,0.3416,5.81,18.6375,-3.89375,-7.984,24.136002,20.144001,concentric,4,7.0,82973.0,292747.0,161072.0,290764.0,172135.0
2026-04-14 18:19:40.159951,893193,1609508273773551,5873743341,0.716384,-0.080032,0.40992,4.47125,19.11,-3.71,-9.056001,24.856,20.0,concentric,4,7.0,82973.0,292747.0,161072.0,290764.0,172135.0
2026-04-14 18:19:40.168780,893194,1609508273782559,5873752047,0.716384,-0.080032,0.40992,4.29625,21.035,-3.52625,-9.056001,24.856,20.0,concentric,4,7.0,82973.0,292747.0,161072.0,290764.0,172135.0
2026-04-14 18:19:40.218332,893195,1609508273797028,5873766937,0.681248,-0.109312,0.163968,5.775,20.2125,-4.38375,-7.416,24.608002,20.080002,concentric,4,7.0,82973.0,292747.0,161072.0,290764.0,172135.0
2026-04-14 18:19:40.220884,893196,1609508273805966,5873775636,0.681248,-0.109312,0.163968,6.9475,19.6875,-4.69,-7.416,24.608002,20.080002,concentric,4,7.0,82973.0,292747.0,161072.0,290764.0,172135.0
2026-04-14 18:19:40.273911,893207,1609508273820647,5873790563,0.759328,-0.173728,0.435296,3.08,19.1625,-5.7225,-7.624001,24.480001,19.992,concentric,4,7.0,94177.0,301516.0,175843.0,298365.0,187067.0
2026-04-14 18:19:40.276432,893208,1609508273829619,5873799248,0.759328,-0.173728,0.435296,-1.26875,17.9725,-6.39625,-7.624001,24.480001,19.992,concentric,4,7.0,94177.0,301516.0,175843.0,298365.0,187067.0
2026-04-14 18:19:40.278778,893209,1609508273838574,5873808029,0.724192,-0.138592,0.238144,-2.905,15.4525,-6.2825,-7.864,24.720001,20.296001,concentric,4,7.0,94177.0,301516.0,175843.0,298365.0,187067.0
2026-04-14 18:19:40.280921,893210,1609508273853186,5873822990,0.817888,-0.095648,0.40992,-0.34125,12.8275,-6.36125,-7.864,24.720001,19.816002,concentric,4,7.0,94177.0,301516.0,175843.0,298365.0,187067.0
2026-04-14 18:19:40.283251,893211,1609508273862304,5873831689,0.817888,-0.095648,0.40992,-0.13125,10.31625,-7.55125,-7.496,24.776001,19.816002,concentric,4,7.0,94177.0,301516.0,175843.0,298365.0,187067.0
2026-04-14 18:19:40.286419,893212,1609508273876804,5873846578,0.808128,-0.163968,0.259616,-0.98,10.47375,-7.02625,-7.744,24.728,20.504002,concentric,4,7.0,94177.0,301516.0,175843.0,298365.0,187067.0
2026-04-14 18:19:40.288852,893213,1609508273885705,5873855265,0.808128,-0.163968,0.259616,-2.1525,11.22625,-6.615,-7.744,24.728,20.504002,concentric,4,7.0,94177.0,301516.0,175843.0,298365.0,187067.0
2026-04-14 18:19:40.291400,893214,1609508273900262,5873870288,0.84912,-0.203008,0.495808,-3.36,10.68375,-7.16625,-7.816001,24.904001,21.6,concentric,4,7.0,94177.0,301516.0,175843.0,298365.0,187067.0
2026-04-14 18:19:40.320844,893225,1609508273909284,5873878983,0.84912,-0.203008,0.495808,-3.6575,9.09125,-5.83625,-7.816001,24.904001,21.6,concentric,4,7.0,105549.0,309315.0,190116.0,305281.0,201468.0
2026-04-14 18:19:40.323808,893226,1609508273918332,5873887778,0.84912,-0.13664,0.251808,-5.67875,8.39125,-5.6175,-7.960001,25.216002,21.560001,concentric,4,7.0,105549.0,309315.0,190116.0,305281.0,201468.0
2026-04-14 18:19:40.326314,893227,1609508273932906,5873902745,0.84912,-0.13664,0.251808,-4.13875,7.28,-6.9475,-7.960001,25.216002,21.560001,concentric,4,7.0,105549.0,309315.0,190116.0,305281.0,201468.0
2026-04-14 18:19:40.328474,893228,1609508273941990,5873911451,0.853024,-0.027328,0.511424,-2.03,6.2125,-11.52375,-8.96,25.416,22.560001,concentric,4,7.0,105549.0,309315.0,190116.0,305281.0,201468.0
2026-04-14 18:19:40.345107,893229,1609508273956518,5873926430,0.89792,-0.111264,0.573888,0.2975,6.57125,-16.6425,-8.200001,25.144001,20.384,concentric,4,7.0,105549.0,309315.0,190116.0,305281.0,201468.0
2026-04-14 18:19:40.352300,893230,1609508273965540,5873935130,0.89792,-0.111264,0.573888,2.02125,6.79875,-19.92375,-8.200001,25.144001,20.384,concentric,4,7.0,105549.0,309315.0,190116.0,305281.0,201468.0
2026-04-14 18:19:40.359708,893231,1609508273974698,5873943882,0.89792,-0.203008,0.503616,1.88125,7.65625,-20.991251,-8.128,24.992,21.52,concentric,4,7.0,105549.0,309315.0,190116.0,305281.0,201468.0
2026-04-14 18:19:40.374720,893232,1609508273989216,5873958772,0.89792,-0.203008,0.503616,1.12875,8.16375,-19.74875,-8.128,24.992,21.52,concentric,4,7.0,105549.0,309315.0,190116.0,305281.0,201468.0
2026-04-14 18:19:40.386372,893233,1609508273998134,5873967449,0.929152,-0.17568,0.374784,-2.6775,11.0775,-21.0875,-8.552,25.392002,20.744001,concentric,4,7.0,105549.0,309315.0,190116.0,305281.0,201468.0
2026-04-14 18:19:40.420851,893244,1609508274013387,5873982373,0.929152,-0.17568,0.374784,-0.84,15.51375,-22.84625,-8.552,25.392002,20.744001,concentric,4,7.0,108629.0,310192.0,193522.0,306721.0,205008.0
2026-04-14 18:19:40.423267,893245,1609508274022410,5873991184,0.999424,-0.12688,0.421632,8.42625,17.14125,-24.885,-9.864,25.664001,23.336,concentric,4,7.0,108629.0,310192.0,193522.0,306721.0,205008.0
2026-04-14 18:19:40.426379,893246,1609508274031829,5874001923,0.999424,-0.12688,0.421632,16.56375,13.7725,-24.52625,-9.864,25.664001,23.336,concentric,4,7.0,108629.0,310192.0,193522.0,306721.0,205008.0
2026-04-14 18:19:40.433979,893247,1609508274046525,5874016906,0.960384,-0.152256,0.59536,16.47625,8.33,-21.28,-10.416,25.624,20.52,concentric,4,7.0,108629.0,310192.0,193522.0,306721.0,205008.0
2026-04-14 18:19:40.443903,893248,1609508274055568,5874025601,0.876448,-0.109312,0.513376,8.88125,6.86,-19.4775,-10.776001,25.232,24.408,concentric,4,7.0,108629.0,310192.0,193522.0,306721.0,205008.0
2026-04-14 18:19:40.455931,893249,1609508274070077,5874038451,0.876448,-0.109312,0.513376,5.74875,7.74375,-21.2275,-10.776001,25.232,24.408,concentric,4,7.0,108629.0,310192.0,193522.0,306721.0,205008.0
2026-04-14 18:19:40.464824,893250,1609508274079275,5874049287,0.919392,-0.042944,0.540704,12.50375,9.5025,-24.10625,-9.392,25.088001,21.640001,concentric,4,7.0,108629.0,310192.0,193522.0,306721.0,205008.0
2026-04-14 18:19:40.474774,893251,1609508274088195,5874057963,0.919392,-0.042944,0.540704,20.3175,9.72125,-25.45375,-9.392,25.088001,21.640001,concentric,4,7.0,108629.0,310192.0,193522.0,306721.0,205008.0
2026-04-14 18:19:40.489991,893252,1609508274102703,5874072840,0.95648,-0.064416,0.38064,24.92,8.4,-23.835001,-8.984,24.488,21.696001,concentric,4,7.0,108629.0,310192.0,193522.0,306721.0,205008.0
2026-04-14 18:19:40.526434,893263,1609508274112052,5874081594,0.95648,-0.064416,0.38064,19.78375,5.57375,-20.405,-8.984,24.488,21.696001,concentric,4,7.0,123480.0,319714.0,211780.0,315355.0,223642.0
2026-04-14 18:19:40.528567,893264,1609508274126685,5874096498,1.03456,-0.056608,0.696864,7.41125,4.3925,-17.4475,-9.488001,24.704,22.016,concentric,4,7.0,123480.0,319714.0,211780.0,315355.0,223642.0
2026-04-14 18:19:40.531291,893265,1609508274135773,5874105245,1.003328,0.021472,0.413824,-2.0125,5.495,-20.09,-10.360001,25.136002,21.36,concentric,4,7.0,123480.0,319714.0,211780.0,315355.0,223642.0
2026-04-14 18:19:40.533787,893266,1609508274144809,5874113960,1.003328,0.021472,0.413824,-3.99,8.26,-26.4075,-10.360001,25.136002,21.36,concentric,4,7.0,123480.0,319714.0,211780.0,315355.0,223642.0
2026-04-14 18:19:40.568527,893267,1609508274159305,5874128890,1.108736,-0.060512,0.655872,5.915,8.33875,-28.7525,-10.160001,24.424002,21.584002,concentric,4,7.0,123480.0,319714.0,211780.0,315355.0,223642.0
2026-04-14 18:19:40.569703,893268,1609508274168226,5874137602,1.108736,-0.060512,0.655872,11.06,2.7475,-28.315,-10.160001,24.424002,21.584002,concentric,4,7.0,123480.0,319714.0,211780.0,315355.0,223642.0
2026-04-14 18:19:40.572106,893269,1609508274182756,5874152508,1.188768,-0.103456,0.544608,-1.61875,-2.1175,-23.9225,-10.752001,25.144001,22.544,concentric,4,7.0,123480.0,319714.0,211780.0,315355.0,223642.0
2026-04-14 18:19:40.596994,893270,1609508274191718,5874161208,1.188768,-0.103456,0.544608,-13.2125,-4.27,-21.58625,-10.752001,25.144001,22.544,concentric,4,7.0,123480.0,319714.0,211780.0,315355.0,223642.0
2026-04-14 18:19:40.622128,893271,1609508274200671,5874169884,1.188768,-0.015616,0.679296,-15.53125,-4.19125,-22.522501,-10.072001,24.688002,21.672,eccentric,4,7.0,123480.0,319714.0,211780.0,315355.0,223642.0
2026-04-14 18:19:40.657222,893282,1609508274215293,5874184900,1.188768,-0.0976,0.488,-11.7425,-2.0825,-22.365,-10.072001,24.688002,21.672,eccentric,4,7.0,136723.0,327535.0,226995.0,321878.0,238056.0
2026-04-14 18:19:40.659634,893283,1609508274224284,5874193610,1.19072,-0.0976,0.488,-5.4075,-0.39375,-18.06875,-12.192,25.512001,21.656,eccentric,4,7.0,136723.0,327535.0,226995.0,321878.0,238056.0
2026-04-14 18:19:40.662219,893284,1609508274238737,5874208502,1.1224,-0.083936,0.452864,2.9925,-1.26,-12.03125,-12.432,25.368002,23.232,eccentric,4,7.0,136723.0,327535.0,226995.0,321878.0,238056.0
2026-04-14 18:19:40.664636,893285,1609508274247634,5874217178,1.1224,-0.083936,0.452864,5.50375,-2.2225,-7.48125,-12.432,25.368002,23.232,eccentric,4,7.0,136723.0,327535.0,226995.0,321878.0,238056.0
2026-04-14 18:19:40.667239,893286,1609508274262149,5874232092,1.175104,-0.005856,0.607072,5.7925,-1.645,-4.68125,-12.288,24.792002,22.344002,eccentric,4,7.0,136723.0,327535.0,226995.0,321878.0,238056.0
2026-04-14 18:19:40.671596,893287,1609508274271110,5874240835,1.175104,-0.005856,0.607072,5.62625,0.13125,-4.17375,-12.288,24.792002,22.344002,eccentric,4,7.0,136723.0,327535.0,226995.0,321878.0,238056.0
2026-04-14 18:19:40.672037,893288,1609508274280073,5874249543,1.155584,-0.021472,0.515328,2.975,2.695,-3.3775,-11.592001,24.752,22.560001,eccentric,4,7.0,136723.0,327535.0,226995.0,321878.0,238056.0
2026-04-14 18:19:40.683524,893289,1609508274294628,5874264427,1.155584,-0.021472,0.515328,0.83125,3.3075,-2.49375,-11.592001,24.752,22.560001,eccentric,4,7.0,136723.0,327535.0,226995.0,321878.0,238056.0
2026-04-14 18:19:40.690816,893290,1609508274303549,5874273199,1.223904,-0.083936,0.552416,-0.595,2.59875,-1.3125,-10.496,24.640001,21.304,eccentric,4,7.0,136723.0,327535.0,226995.0,321878.0,238056.0
2026-04-14 18:19:40.723216,893301,1609508274318158,5874288182,1.22976,-0.085888,0.495808,-1.12875,0.95375,-0.02625,-10.576,25.064001,22.336,eccentric,4,7.0,139846.0,332959.0,230639.0,326104.0,241658.0
2026-04-14 18:19:40.725948,893302,1609508274327110,5874296893,1.22976,-0.085888,0.495808,-2.3975,-0.20125,0.3325,-10.576,25.064001,22.336,eccentric,4,7.0,139846.0,332959.0,230639.0,326104.0,241658.0
2026-04-14 18:19:40.728440,893303,1609508274341629,5874311835,1.147776,-0.060512,0.499712,-3.03625,0.30625,0.6125,-11.616,25.176,22.544,eccentric,4,7.0,139846.0,332959.0,230639.0,326104.0,241658.0
2026-04-14 18:19:40.737215,893304,1609508274350629,5874320525,1.147776,-0.060512,0.499712,-3.24625,2.1,0.41125,-11.616,25.176,22.544,eccentric,4,7.0,139846.0,332959.0,230639.0,326104.0,241658.0
2026-04-14 18:19:40.747322,893305,1609508274359563,5874329202,1.216096,-0.072224,0.732,-0.04375,3.7975,0.2975,-10.928,24.152,21.616001,eccentric,4,7.0,139846.0,332959.0,230639.0,326104.0,241658.0
2026-04-14 18:19:40.759875,893306,1609508274374199,5874344280,1.216096,-0.072224,0.732,4.7425,4.62,-0.28875,-10.928,24.152,21.616001,eccentric,4,7.0,139846.0,332959.0,230639.0,326104.0,241658.0
2026-04-14 18:19:40.769732,893307,1609508274383279,5874352989,1.245376,-0.099552,0.694912,6.85125,4.27875,-0.6125,-10.576,24.2,21.544,eccentric,4,7.0,139846.0,332959.0,230639.0,326104.0,241658.0
2026-04-14 18:19:40.785897,893308,1609508274397800,5874367856,1.163392,-0.0488,0.636352,5.39875,4.43625,1.18125,-10.432,24.256,21.728,eccentric,4,7.0,139846.0,332959.0,230639.0,326104.0,241658.0
2026-04-14 18:19:40.793420,893309,1609508274406751,5874376530,1.163392,-0.0488,0.636352,1.9775,4.26125,2.5025,-10.432,24.256,21.728,eccentric,4,7.0,139846.0,332959.0,230639.0,326104.0,241658.0
2026-04-14 18:19:40.825609,893320,1609508274415934,5874385322,1.163392,-0.0488,0.636352,-2.58125,4.31375,3.56125,-10.432,24.256,21.728,eccentric,4,7.0,141350.0,337556.0,232361.0,329650.0,243318.0
2026-04-14 18:19:40.828095,893321,1609508274430446,5874400355,1.188768,-0.095648,0.54656,-4.62875,4.41875,4.7075,-10.0,24.800001,21.856,eccentric,4,7.0,141350.0,337556.0,232361.0,329650.0,243318.0
2026-04-14 18:19:40.831861,893322,1609508274439417,5874409056,1.104832,-0.0488,0.655872,-0.84875,3.54375,4.62,-11.712001,24.744001,23.368002,eccentric,4,7.0,141350.0,337556.0,232361.0,329650.0,243318.0
2026-04-14 18:19:40.842161,893323,1609508274453935,5874424007,1.104832,-0.0488,0.655872,3.71,2.1175,4.5675,-11.712001,24.744001,23.368002,eccentric,4,7.0,141350.0,337556.0,232361.0,329650.0,243318.0
2026-04-14 18:19:40.848536,893324,1609508274462976,5874432800,1.071648,-0.050752,0.462624,2.9925,1.435,5.52125,-10.152,24.216002,22.2,eccentric,4,7.0,141350.0,337556.0,232361.0,329650.0,243318.0
2026-04-14 18:19:40.864730,893325,1609508274477486,5874447694,1.116544,-0.091744,0.382592,-0.35875,2.21375,5.95875,-9.512,24.208002,21.44,eccentric,4,7.0,141350.0,337556.0,232361.0,329650.0,243318.0
2026-04-14 18:19:40.873879,893326,1609508274486646,5874456419,1.116544,-0.091744,0.382592,-3.0625,3.2725,5.705,-9.512,24.208002,21.44,eccentric,4,7.0,141350.0,337556.0,232361.0,329650.0,243318.0
2026-04-14 18:19:40.880923,893327,1609508274495640,5874465139,1.116544,-0.091744,0.382592,-4.34875,2.89625,6.7025,-9.512,24.208002,21.44,eccentric,4,7.0,141350.0,337556.0,232361.0,329650.0,243318.0
2026-04-14 18:19:40.913449,893328,1609508274510114,5874480067,1.04432,-0.013664,0.618784,-0.20125,0.18375,6.97375,-9.52,24.288002,21.160002,eccentric,4,7.0,141350.0,337556.0,232361.0,329650.0,243318.0
2026-04-14 18:19:40.988871,893339,1609508274519070,5874488890,1.018944,0.007808,0.650016,3.8325,-1.785,6.2475,-10.232,24.088001,22.904001,eccentric,4,7.0,139318.0,335791.0,230067.0,327965.0,241064.0
2026-04-14 18:19:40.991385,893340,1609508274533569,5874503806,1.018944,0.007808,0.650016,-1.1025,-2.35375,5.64375,-10.232,24.088001,22.904001,eccentric,4,7.0,139318.0,335791.0,230067.0,327965.0,241064.0
2026-04-14 18:19:40.993828,893341,1609508274542546,5874512505,0.977952,-0.070272,0.530944,-8.8725,-2.0825,6.8425,-9.92,24.128,22.648,eccentric,4,7.0,139318.0,335791.0,230067.0,327965.0,241064.0
2026-04-14 18:19:40.996420,893342,1609508274557070,5874527409,0.977952,-0.070272,0.51728,-13.32625,-2.2575,8.40875,-9.92,24.128,22.648,eccentric,4,7.0,139318.0,335791.0,230067.0,327965.0,241064.0
2026-04-14 18:19:40.998894,893343,1609508274566132,5874536090,1.003328,-0.046848,0.51728,-12.6,-2.4325,9.730001,-9.64,23.912,20.408,eccentric,4,7.0,139318.0,335791.0,230067.0,327965.0,241064.0
2026-04-14 18:19:41.000906,893344,1609508274575225,5874544793,1.003328,-0.046848,0.51728,-10.36,-2.79125,11.01625,-9.64,23.912,20.408,eccentric,4,7.0,139318.0,335791.0,230067.0,327965.0,241064.0
2026-04-14 18:19:41.003804,893345,1609508274589754,5874559721,1.009184,-0.044896,0.648064,-6.335,-5.55625,12.18875,-8.872001,23.912,21.664001,eccentric,4,7.0,139318.0,335791.0,230067.0,327965.0,241064.0
2026-04-14 18:19:41.006424,893346,1609508274598710,5874568460,1.009184,-0.052704,0.648064,-3.4125,-9.16125,11.4625,-8.576,24.192001,21.664001,eccentric,4,7.0,139318.0,335791.0,230067.0,327965.0,241064.0
2026-04-14 18:19:41.036406,893357,1609508274613949,5874583588,1.009184,-0.052704,0.648064,-3.465,-11.10375,11.261251,-8.576,24.192001,21.664001,eccentric,4,7.0,134299.0,330959.0,224266.0,323917.0,235283.0
2026-04-14 18:19:41.038916,893358,1609508274623145,5874592419,0.872544,-0.056608,0.513376,-8.07625,-11.62,11.095,-8.752001,24.024002,21.616001,eccentric,4,7.0,134299.0,330959.0,224266.0,323917.0,235283.0
2026-04-14 18:19:41.041406,893359,1609508274632078,5874601151,0.872544,-0.056608,0.513376,-13.18625,-11.0775,11.725,-8.752001,24.024002,21.616001,eccentric,4,7.0,134299.0,330959.0,224266.0,323917.0,235283.0
2026-04-14 18:19:41.043915,893360,1609508274646592,5874616078,0.976,-0.13664,0.476288,-15.1025,-10.17625,13.16875,-8.416,24.056002,20.960001,eccentric,4,7.0,134299.0,330959.0,224266.0,323917.0,235283.0
2026-04-14 18:19:41.046401,893361,1609508274655583,5874625002,0.976,-0.13664,0.476288,-13.51875,-10.92875,15.26875,-8.416,24.056002,20.960001,eccentric,4,7.0,134299.0,330959.0,224266.0,323917.0,235283.0
2026-04-14 18:19:41.057299,893362,1609508274670064,5874639912,0.841312,-0.119072,0.398208,-13.79,-12.775,17.08,-8.136001,24.088001,21.448002,eccentric,4,7.0,134299.0,330959.0,224266.0,323917.0,235283.0
2026-04-14 18:19:41.066279,893363,1609508274678979,5874648645,0.899872,-0.11712,0.388448,-15.16375,-14.2625,18.2875,-9.264001,24.264002,21.944,eccentric,4,7.0,134299.0,330959.0,224266.0,323917.0,235283.0
2026-04-14 18:19:41.073765,893364,1609508274688056,5874657367,0.899872,-0.11712,0.388448,-16.56375,-15.28625,17.6225,-9.264001,24.264002,21.944,eccentric,4,7.0,134299.0,330959.0,224266.0,323917.0,235283.0
2026-04-14 18:19:41.088772,893365,1609508274702556,5874672319,0.817888,-0.076128,0.279136,-17.710001,-16.59,15.505,-8.120001,24.416,20.800001,eccentric,4,7.0,134299.0,330959.0,224266.0,323917.0,235283.0
2026-04-14 18:19:41.100261,893366,1609508274711501,5874681013,0.817888,-0.076128,0.279136,-18.06875,-17.4825,13.30875,-8.120001,24.416,20.800001,eccentric,4,7.0,134299.0,330959.0,224266.0,323917.0,235283.0
