pc_time,serial_num,sensor_ts,host_ts,ax,ay,az,gx,gy,gz,mx,my,mz,phase,rpe,weight_kg,ppg_a,ppg_b,ppg_c,ppg_d,ppg_e
2026-04-07 17:45:38.418422,184418,1008818739,1008819987,0.77104,-0.16592,-0.054656,7.27125,-14.0175,21.76125,-12.856001,-14.896001,22.048,concentric,3,3.0,26000.0,356721.0,321081.0,378929.0,327670.0
2026-04-07 17:45:38.451316,184419,1008833233,1008834949,0.806176,-0.216672,-0.08784,5.74,-15.5225,21.5775,-12.352,-14.200001,20.160002,concentric,3,3.0,26000.0,356721.0,321081.0,378929.0,327670.0
2026-04-07 17:45:38.453501,184420,1008842165,1008843636,0.806176,-0.216672,-0.08784,5.15375,-17.03625,22.33875,-12.352,-14.200001,20.160002,concentric,3,3.0,26000.0,356721.0,321081.0,378929.0,327670.0
2026-04-07 17:45:38.458095,184421,1008851121,1008852362,0.847168,-0.230336,-0.056608,4.6725,-17.5,22.47,-12.352,-13.576,20.224,concentric,3,3.0,26000.0,356721.0,321081.0,378929.0,327670.0
2026-04-07 17:45:38.464544,184422,1008865577,1008867314,0.847168,-0.230336,-0.056608,5.97625,-15.49625,21.60375,-12.368001,-13.576,20.224,concentric,3,3.0,26000.0,356721.0,321081.0,378929.0,327670.0
2026-04-07 17:45:38.522563,184423,1008874518,1008876028,0.83936,-0.191296,-0.103456,11.235,-13.5275,21.20125,-11.888001,-13.416,19.560001,concentric,3,3.0,26000.0,356721.0,321081.0,378929.0,327670.0
2026-04-07 17:45:38.548132,184433,1008883730,1008884768,0.83936,-0.191296,-0.103456,16.73875,-13.2825,19.845,-11.888001,-13.416,19.560001,concentric,3,3.0,26994.0,364932.0,327466.0,385150.0,332677.0
2026-04-07 17:45:38.549896,184434,1008892663,1008893464,0.84912,-0.20496,-0.083936,18.48875,-13.475,16.31,-12.056001,-13.784,19.552,concentric,3,3.0,26994.0,364932.0,327466.0,385150.0,332677.0
2026-04-07 17:45:38.551549,184435,1008907140,1008908345,0.84912,-0.20496,-0.083936,19.0925,-13.72,14.245,-12.056001,-13.784,19.552,concentric,3,3.0,26994.0,364932.0,327466.0,385150.0,332677.0
2026-04-07 17:45:38.555605,184436,1008916060,1008917029,0.825696,-0.240096,-0.083936,16.485,-13.886251,13.62375,-12.376,-13.064001,19.648,concentric,3,3.0,26994.0,364932.0,327466.0,385150.0,332677.0
2026-04-07 17:45:38.557335,184437,1008924969,1008925755,0.825696,-0.240096,-0.083936,15.715,-13.95625,14.0875,-12.376,-13.064001,19.648,concentric,3,3.0,26994.0,364932.0,327466.0,385150.0,332677.0
2026-04-07 17:45:38.558911,184438,1008940077,1008940731,0.841312,-0.236192,-0.03904,17.26375,-12.97625,16.625,-12.776001,-13.200001,20.832,concentric,3,3.0,26994.0,364932.0,327466.0,385150.0,332677.0
2026-04-07 17:45:38.566874,184439,1008949565,1008951545,0.841312,-0.236192,-0.03904,15.70625,-11.76,16.3275,-12.776001,-13.200001,20.832,concentric,3,3.0,26994.0,364932.0,327466.0,385150.0,332677.0
2026-04-07 17:45:38.568945,184440,1008958573,1008960275,0.796416,-0.199104,-0.074176,16.178751,-9.63375,15.155,-12.928,-12.512001,21.28,concentric,3,3.0,26994.0,364932.0,327466.0,385150.0,332677.0
2026-04-07 17:45:38.570187,184441,1008967528,1008968988,0.796416,-0.199104,-0.074176,19.01375,-9.49375,15.56625,-12.928,-12.512001,21.28,concentric,3,3.0,26994.0,364932.0,327466.0,385150.0,332677.0
2026-04-07 17:45:38.603197,184451,1008982535,1008984044,0.798368,-0.197152,-0.083936,19.06625,-10.4475,13.64125,-13.368001,-12.536,21.496,concentric,3,3.0,28030.0,373013.0,333787.0,391601.0,338126.0
2026-04-07 17:45:38.605012,184452,1008991639,1008992863,0.79056,-0.230336,-0.091744,21.34125,-11.33125,11.8125,-13.368001,-12.360001,21.688002,concentric,3,3.0,28030.0,373013.0,333787.0,391601.0,338126.0
2026-04-07 17:45:38.606421,184453,1009000550,1009001649,0.79056,-0.230336,-0.091744,25.27875,-12.66125,11.80375,-13.064001,-12.360001,21.688002,concentric,3,3.0,28030.0,373013.0,333787.0,391601.0,338126.0
2026-04-07 17:45:38.610506,184454,1009009477,1009010332,0.79056,-0.230336,-0.091744,25.2175,-14.2975,12.90625,-13.064001,-12.360001,21.688002,concentric,3,3.0,28030.0,373013.0,333787.0,391601.0,338126.0
2026-04-07 17:45:38.639047,184455,1009023949,1009025258,0.792512,-0.245952,-0.050752,23.70375,-13.7725,14.16625,-13.856001,-11.624001,19.472,concentric,3,3.0,28030.0,373013.0,333787.0,391601.0,338126.0
2026-04-07 17:45:38.643626,184456,1009032911,1009033984,0.788608,-0.212768,-0.035136,20.95625,-13.1075,16.02125,-12.568001,-11.68,18.552,concentric,3,3.0,28030.0,373013.0,333787.0,391601.0,338126.0
2026-04-07 17:45:38.645139,184457,1009041836,1009042674,0.788608,-0.212768,-0.035136,16.397501,-11.7775,15.96875,-12.568001,-11.68,18.552,concentric,3,3.0,28030.0,373013.0,333787.0,391601.0,338126.0
2026-04-07 17:45:38.676280,184458,1009056336,1009057553,0.767136,-0.22448,-0.109312,17.57,-11.2875,15.18125,-12.424001,-11.536,18.544,concentric,3,3.0,28030.0,373013.0,333787.0,391601.0,338126.0
2026-04-07 17:45:38.678509,184459,1009065261,1009066306,0.767136,-0.22448,-0.109312,18.655,-13.04625,14.79625,-12.424001,-11.536,18.544,concentric,3,3.0,28030.0,373013.0,333787.0,391601.0,338126.0
2026-04-07 17:45:38.683317,184460,1009074158,1009074995,0.825696,-0.247904,-0.054656,19.215,-15.09375,13.25625,-12.888001,-11.576,18.632,concentric,3,3.0,28030.0,373013.0,333787.0,391601.0,338126.0
2026-04-07 17:45:38.712707,184471,1009088809,1009090043,0.825696,-0.247904,-0.054656,18.90875,-15.8375,11.0775,-12.888001,-11.576,18.632,concentric,3,3.0,28824.0,379601.0,339153.0,397282.0,342944.0
2026-04-07 17:45:38.716886,184472,1009097746,1009098849,0.854976,-0.30256,-0.066368,18.865,-14.875,9.7825,-12.872001,-11.344001,19.384,concentric,3,3.0,28824.0,379601.0,339153.0,397282.0,342944.0
2026-04-07 17:45:38.718591,184473,1009106761,1009107565,0.854976,-0.30256,-0.066368,16.30125,-13.335,11.06875,-12.872001,-11.344001,19.384,concentric,3,3.0,28824.0,379601.0,339153.0,397282.0,342944.0
2026-04-07 17:45:38.720090,184474,1009121474,1009122852,0.8296,-0.28304,-0.056608,15.28625,-12.1625,12.845,-13.512001,-11.472,18.904001,concentric,3,3.0,28824.0,379601.0,339153.0,397282.0,342944.0
2026-04-07 17:45:38.751267,184475,1009130475,1009131591,0.8296,-0.28304,-0.056608,14.7875,-11.27,13.72875,-13.512001,-11.472,18.904001,concentric,3,3.0,28824.0,379601.0,339153.0,397282.0,342944.0
2026-04-07 17:45:38.755693,184476,1009139385,1009140335,0.825696,-0.238144,-0.081984,14.8225,-11.795,11.7425,-13.008,-10.328,18.84,concentric,3,3.0,28824.0,379601.0,339153.0,397282.0,342944.0
2026-04-07 17:45:38.757367,184477,1009148276,1009149083,0.825696,-0.238144,-0.081984,16.33625,-12.43375,8.35625,-13.008,-10.328,18.84,concentric,3,3.0,28824.0,379601.0,339153.0,397282.0,342944.0
2026-04-07 17:45:38.759689,184478,1009162783,1009163947,0.843264,-0.306464,-0.072224,19.8625,-13.41375,6.23,-12.888001,-10.064,17.416,concentric,3,3.0,28824.0,379601.0,339153.0,397282.0,342944.0
2026-04-07 17:45:38.807547,184479,1009171775,1009172746,0.843264,-0.306464,-0.033184,18.06875,-13.62375,5.43375,-12.888001,-10.064,17.416,concentric,3,3.0,28824.0,379601.0,339153.0,397282.0,342944.0
2026-04-07 17:45:38.809767,184480,1009180683,1009181481,0.853024,-0.294752,-0.033184,17.14125,-11.61125,5.075,-13.040001,-10.152,17.160002,concentric,3,3.0,28824.0,379601.0,339153.0,397282.0,342944.0
2026-04-07 17:45:38.836098,184490,1009195152,1009196396,0.835456,-0.290848,-0.05856,15.95125,-9.6075,4.725,-13.056001,-9.848001,17.912,concentric,3,3.0,29326.0,383771.0,342651.0,400948.0,346114.0
2026-04-07 17:45:38.837621,184491,1009204033,1009205119,0.835456,-0.290848,-0.05856,13.30875,-7.875,5.5125,-13.056001,-9.848001,17.912,concentric,3,3.0,29326.0,383771.0,342651.0,400948.0,346114.0
2026-04-07 17:45:38.842174,184492,1009212932,1009213841,0.815936,-0.27328,-0.081984,11.1825,-6.83375,5.36375,-13.8,-9.88,17.904001,concentric,3,3.0,29326.0,383771.0,342651.0,400948.0,346114.0
2026-04-07 17:45:38.848219,184493,1009227434,1009228770,0.815936,-0.27328,-0.081984,9.9925,-6.37875,3.91125,-13.8,-9.88,17.904001,concentric,3,3.0,29326.0,383771.0,342651.0,400948.0,346114.0
2026-04-07 17:45:38.849884,184494,1009236403,1009237556,0.831552,-0.284992,-0.074176,12.1975,-6.405,2.8,-13.968,-10.064,19.488,concentric,3,3.0,29326.0,383771.0,342651.0,400948.0,346114.0
2026-04-07 17:45:38.851715,184495,1009245345,1009246250,0.831552,-0.284992,-0.074176,12.24125,-7.11375,2.38875,-13.968,-10.064,19.488,concentric,3,3.0,29326.0,383771.0,342651.0,400948.0,346114.0
2026-04-07 17:45:38.859262,184496,1009259854,1009261172,0.815936,-0.304512,-0.093696,11.41,-6.0375,1.6975,-14.224001,-9.88,19.432001,concentric,3,3.0,29326.0,383771.0,342651.0,400948.0,346114.0
2026-04-07 17:45:38.887815,184497,1009268817,1009269884,0.815936,-0.304512,-0.093696,12.97625,-5.7575,1.4875,-14.224001,-9.88,19.432001,concentric,3,3.0,29326.0,383771.0,342651.0,400948.0,346114.0
2026-04-07 17:45:38.892531,184498,1009277704,1009278629,0.80032,-0.28304,-0.080032,11.06,-5.87125,1.53125,-14.360001,-10.032001,16.832,concentric,3,3.0,29326.0,383771.0,342651.0,400948.0,346114.0
2026-04-07 17:45:38.923159,184508,1009286785,1009287380,0.80032,-0.28304,-0.080032,7.63875,-5.4775,2.6425,-14.360001,-10.032001,16.832,concentric,3,3.0,29690.0,386564.0,344898.0,402833.0,348066.0
2026-04-07 17:45:38.925085,184509,1009301574,1009302306,0.80032,-0.310368,-0.089792,6.4225,-5.1975,3.42125,-13.76,-9.272,17.032001,concentric,3,3.0,29690.0,386564.0,344898.0,402833.0,348066.0
2026-04-07 17:45:38.926579,184510,1009310940,1009313065,0.80032,-0.310368,-0.089792,3.2725,-5.76625,1.82875,-13.76,-9.272,17.032001,concentric,3,3.0,29690.0,386564.0,344898.0,402833.0,348066.0
2026-04-07 17:45:38.930714,184511,1009319928,1009321764,0.79056,-0.316224,-0.089792,4.0775,-4.3225,0.95375,-14.328001,-9.368,19.992,concentric,3,3.0,29690.0,386564.0,344898.0,402833.0,348066.0
2026-04-07 17:45:38.932138,184512,1009329045,1009330609,0.79056,-0.316224,-0.089792,8.04125,-2.77375,0.41125,-14.328001,-9.368,19.992,concentric,3,3.0,29690.0,386564.0,344898.0,402833.0,348066.0
2026-04-07 17:45:38.961598,184513,1009343557,1009345540,0.831552,-0.304512,-0.07808,5.6175,-1.19,-2.6075,-14.192,-9.496,16.952002,concentric,3,3.0,29690.0,386564.0,344898.0,402833.0,348066.0
2026-04-07 17:45:38.965226,184514,1009352502,1009354225,0.831552,-0.304512,-0.093696,5.88875,3.29875,-4.41,-14.192,-9.496,16.952002,concentric,3,3.0,29690.0,386564.0,344898.0,402833.0,348066.0
2026-04-07 17:45:38.967691,184515,1009361430,1009362935,0.835456,-0.3416,-0.083936,6.685,6.7025,-4.96125,-14.344001,-9.528001,17.128,concentric,3,3.0,29690.0,386564.0,344898.0,402833.0,348066.0
2026-04-07 17:45:38.998776,184516,1009375914,1009377810,0.804224,-0.335744,-0.083936,2.905,9.8175,-5.66125,-14.976001,-9.336,18.616001,concentric,3,3.0,29690.0,386564.0,344898.0,402833.0,348066.0
2026-04-07 17:45:39.033613,184527,1009385130,1009386591,0.804224,-0.335744,-0.083936,3.08,11.8825,-5.90625,-14.976001,-9.336,18.616001,concentric,3,3.0,29954.0,388645.0,346655.0,403431.0,349681.0
2026-04-07 17:45:39.035272,184528,1009394117,1009395335,0.81008,-0.337696,-0.07808,6.0025,13.34375,-5.48625,-14.704,-9.392,17.152,concentric,3,3.0,29954.0,388645.0,346655.0,403431.0,349681.0
2026-04-07 17:45:39.037668,184529,1009408569,1009410242,0.81008,-0.337696,-0.07808,3.78875,14.035,-5.0575,-14.704,-9.392,17.152,concentric,3,3.0,29954.0,388645.0,346655.0,403431.0,349681.0
2026-04-07 17:45:39.041872,184530,1009417576,1009419016,0.817888,-0.33184,-0.0976,2.93125,15.74125,-3.64875,-15.216001,-9.416,18.616001,concentric,3,3.0,29954.0,388645.0,346655.0,403431.0,349681.0
2026-04-07 17:45:39.043634,184531,1009426511,1009427775,0.817888,-0.33184,-0.0976,2.73,17.3425,-3.64875,-15.216001,-9.416,18.616001,concentric,3,3.0,29954.0,388645.0,346655.0,403431.0,349681.0
2026-04-07 17:45:39.046078,184532,1009435553,1009436499,0.882304,-0.310368,-0.099552,4.10375,18.82125,-5.7225,-14.904,-8.848001,17.408,concentric,3,3.0,29954.0,388645.0,346655.0,403431.0,349681.0
2026-04-07 17:45:39.047658,184533,1009450160,1009451413,0.882304,-0.310368,-0.099552,6.39625,19.81875,-6.5625,-14.904,-8.848001,17.408,concentric,3,3.0,29954.0,388645.0,346655.0,403431.0,349681.0
2026-04-07 17:45:39.110087,184534,1009459149,1009460147,0.925248,-0.343552,-0.095648,6.08125,19.03125,-8.9075,-15.168001,-9.264001,17.152,concentric,3,3.0,29954.0,388645.0,346655.0,403431.0,349681.0
2026-04-07 17:45:39.114583,184535,1009468226,1009468875,0.925248,-0.343552,-0.095648,3.52625,18.445,-8.7325,-15.168001,-9.264001,17.152,concentric,3,3.0,29954.0,388645.0,346655.0,403431.0,349681.0
2026-04-07 17:45:39.148713,184545,1009483050,1009483927,0.933056,-0.3904,-0.105408,1.56625,18.40125,-8.198751,-15.216001,-9.424001,17.872002,concentric,3,3.0,29445.0,384859.0,343507.0,401715.0,346386.0
2026-04-07 17:45:39.150179,184546,1009492786,1009494734,0.933056,-0.3904,-0.105408,3.78,17.675,-8.0325,-15.216001,-9.424001,17.872002,concentric,3,3.0,29445.0,384859.0,343507.0,401715.0,346386.0
2026-04-07 17:45:39.154413,184547,1009501712,1009503437,0.905728,-0.324032,-0.099552,6.04625,15.82,-5.74875,-15.800001,-8.744,17.36,concentric,3,3.0,29445.0,384859.0,343507.0,401715.0,346386.0
2026-04-07 17:45:39.156113,184548,1009510670,1009512128,0.905728,-0.324032,-0.099552,7.21875,14.04375,-4.5675,-15.800001,-8.744,17.36,concentric,3,3.0,29445.0,384859.0,343507.0,401715.0,346386.0
2026-04-07 17:45:39.157648,184549,1009525310,1009527088,0.93696,-0.327936,-0.07808,8.82,12.81,-5.3025,-15.832001,-9.344001,18.2,concentric,3,3.0,29445.0,384859.0,343507.0,401715.0,346386.0
2026-04-07 17:45:39.161882,184550,1009534353,1009535806,0.925248,-0.32208,-0.091744,6.11625,12.67,-5.25,-16.856,-9.808001,19.976002,concentric,3,3.0,29445.0,384859.0,343507.0,401715.0,346386.0
2026-04-07 17:45:39.163619,184551,1009543435,1009544556,0.925248,-0.32208,-0.091744,6.685,13.0025,-6.1775,-16.856,-9.808001,19.976002,concentric,3,3.0,29445.0,384859.0,343507.0,401715.0,346386.0
2026-04-07 17:45:39.165148,184552,1009557996,1009559531,0.890112,-0.306464,-0.06832,8.365,14.2275,-7.42,-15.736001,-9.304001,18.064001,concentric,3,3.0,29445.0,384859.0,343507.0,401715.0,346386.0
2026-04-07 17:45:39.169288,184553,1009567014,1009568348,0.890112,-0.306464,-0.06832,8.91625,14.542501,-6.86875,-15.736001,-9.304001,18.064001,concentric,3,3.0,29445.0,384859.0,343507.0,401715.0,346386.0
2026-04-07 17:45:39.173443,184554,1009576095,1009577113,0.85888,-0.308416,-0.050752,8.67125,13.78125,-5.57375,-15.664001,-9.440001,18.072,concentric,3,3.0,29445.0,384859.0,343507.0,401715.0,346386.0
2026-04-07 17:45:39.227431,184564,1009585360,1009585819,0.85888,-0.308416,-0.050752,7.3325,12.5825,-5.705,-15.664001,-9.440001,18.072,concentric,3,3.0,28990.0,381337.0,340591.0,398583.0,343499.0
2026-04-07 17:45:39.228919,184565,1009600366,1009600778,0.833504,-0.314272,-0.052704,4.62875,10.8675,-4.865,-16.04,-9.0,18.08,concentric,3,3.0,28990.0,381337.0,340591.0,398583.0,343499.0
2026-04-07 17:45:39.233165,184566,1009609655,1009611556,0.833504,-0.314272,-0.052704,4.83,9.073751,-4.025,-16.04,-9.0,18.08,concentric,3,3.0,28990.0,381337.0,340591.0,398583.0,343499.0
2026-04-07 17:45:39.234866,184567,1009618772,1009620312,0.825696,-0.284992,-0.025376,5.6175,8.47,-3.7625,-16.624,-9.76,19.904001,concentric,3,3.0,28990.0,381337.0,340591.0,398583.0,343499.0
2026-04-07 17:45:39.236428,184568,1009627731,1009629022,0.825696,-0.284992,-0.025376,5.88,7.7,-2.77375,-16.624,-9.76,19.904001,concentric,3,3.0,28990.0,381337.0,340591.0,398583.0,343499.0
2026-04-07 17:45:39.239669,184569,1009642285,1009643967,0.815936,-0.2928,-0.060512,6.48375,7.3325,-2.8,-16.872002,-8.96,19.728,concentric,3,3.0,28990.0,381337.0,340591.0,398583.0,343499.0
2026-04-07 17:45:39.269944,184570,1009651282,1009652704,0.815936,-0.2928,-0.060512,7.875,6.2825,-4.4625,-16.872002,-8.96,19.728,concentric,3,3.0,28990.0,381337.0,340591.0,398583.0,343499.0
2026-04-07 17:45:39.272223,184571,1009660252,1009661400,0.806176,-0.314272,-0.06832,8.2425,4.725,-4.78625,-16.528,-9.064,18.288,concentric,3,3.0,28990.0,381337.0,340591.0,398583.0,343499.0
2026-04-07 17:45:39.276818,184572,1009674758,1009676274,0.808128,-0.32208,-0.072224,9.82625,3.92875,-5.915,-16.448,-8.824,18.016,concentric,3,3.0,28990.0,381337.0,340591.0,398583.0,343499.0
2026-04-07 17:45:39.306293,184583,1009683711,1009685192,0.808128,-0.32208,-0.072224,10.78,2.66875,-7.455,-16.448,-8.824,18.016,concentric,3,3.0,28404.0,376543.0,336727.0,394539.0,339859.0
2026-04-07 17:45:39.307941,184584,1009692696,1009693927,0.808128,-0.32208,-0.072224,8.26,1.54,-6.76375,-16.448,-8.824,18.016,concentric,3,3.0,28404.0,376543.0,336727.0,394539.0,339859.0
2026-04-07 17:45:39.311763,184585,1009707230,1009708976,0.823744,-0.325984,-0.033184,7.60375,0.37625,-6.93875,-16.704,-9.080001,20.072,concentric,3,3.0,28404.0,376543.0,336727.0,394539.0,339859.0
2026-04-07 17:45:39.315482,184586,1009716311,1009717685,0.83936,-0.306464,-0.015616,8.9425,-0.51625,-7.0875,-16.384,-9.384001,19.064001,concentric,3,3.0,28404.0,376543.0,336727.0,394539.0,339859.0
2026-04-07 17:45:39.347520,184587,1009725280,1009726364,0.83936,-0.306464,-0.015616,7.245,0.30625,-7.84875,-16.384,-9.384001,19.064001,concentric,3,3.0,28404.0,376543.0,336727.0,394539.0,339859.0
2026-04-07 17:45:39.351939,184588,1009734184,1009735130,0.83936,-0.306464,-0.050752,7.21875,1.4175,-8.6275,-16.384,-9.384001,19.064001,concentric,3,3.0,28404.0,376543.0,336727.0,394539.0,339859.0
2026-04-07 17:45:39.353623,184589,1009748701,1009750045,0.854976,-0.343552,-0.050752,6.9475,2.0475,-9.3625,-16.272001,-8.496,17.480001,concentric,3,3.0,28404.0,376543.0,336727.0,394539.0,339859.0
2026-04-07 17:45:39.355436,184590,1009757634,1009758770,0.85888,-0.333792,-0.01952,6.6675,2.6775,-10.535,-17.344002,-9.184,19.384,concentric,3,3.0,28404.0,376543.0,336727.0,394539.0,339859.0
2026-04-07 17:45:39.408818,184591,1009766551,1009767460,0.85888,-0.333792,-0.01952,7.81375,2.77375,-11.1125,-17.344002,-9.184,19.384,concentric,3,3.0,28404.0,376543.0,336727.0,394539.0,339859.0
2026-04-07 17:45:39.422984,184592,1009781053,1009782353,0.86864,-0.3416,-0.023424,8.11125,3.1675,-11.45375,-16.328001,-9.232,18.480001,concentric,3,3.0,28404.0,376543.0,336727.0,394539.0,339859.0
2026-04-07 17:45:39.451323,184602,1009790171,1009791167,0.86864,-0.3416,-0.023424,5.13625,3.33375,-10.94625,-16.328001,-9.232,18.480001,concentric,3,3.0,28609.0,378293.0,338186.0,396078.0,341390.0
2026-04-07 17:45:39.452830,184603,1009799119,1009799857,0.866688,-0.365024,-0.025376,4.34,3.5875,-10.71,-16.968,-9.008,18.312,concentric,3,3.0,28609.0,378293.0,338186.0,396078.0,341390.0
2026-04-07 17:45:39.454754,184604,1009808574,1009810679,0.866688,-0.365024,-0.025376,5.53875,3.99875,-10.2375,-16.968,-9.008,18.312,concentric,3,3.0,28609.0,378293.0,338186.0,396078.0,341390.0
2026-04-07 17:45:39.456343,184605,1009823107,1009823548,0.874496,-0.335744,-0.050752,6.57125,4.1125,-9.89625,-16.848001,-9.288,18.08,concentric,3,3.0,28609.0,378293.0,338186.0,396078.0,341390.0
2026-04-07 17:45:39.460618,184606,1009832470,1009834368,0.874496,-0.335744,-0.050752,6.74625,2.96625,-10.31625,-16.848001,-9.288,18.08,concentric,3,3.0,28609.0,378293.0,338186.0,396078.0,341390.0
2026-04-07 17:45:39.462322,184607,1009841565,1009843135,0.89792,-0.347456,-0.035136,5.50375,1.74125,-11.15625,-17.264,-9.616,18.320002,concentric,3,3.0,28609.0,378293.0,338186.0,396078.0,341390.0
2026-04-07 17:45:39.464013,184608,1009856120,1009858084,0.903776,-0.355264,-0.031232,6.53625,2.2575,-10.92875,-16.928001,-9.240001,18.056002,concentric,3,3.0,28609.0,378293.0,338186.0,396078.0,341390.0
2026-04-07 17:45:39.468186,184609,1009865214,1009866827,0.903776,-0.355264,-0.031232,7.35875,2.87,-10.92875,-16.928001,-9.240001,18.056002,concentric,3,3.0,28609.0,378293.0,338186.0,396078.0,341390.0
2026-04-07 17:45:39.474304,184610,1009874185,1009875522,0.903776,-0.355264,-0.031232,7.735,3.3425,-10.99,-16.928001,-9.240001,18.056002,concentric,3,3.0,28609.0,378293.0,338186.0,396078.0,341390.0
2026-04-07 17:45:39.480456,184611,1009883109,1009884268,0.88816,-0.3416,-0.046848,7.23625,3.38625,-10.22875,-16.952002,-8.976001,17.696001,concentric,3,3.0,28609.0,378293.0,338186.0,396078.0,341390.0
2026-04-07 17:45:39.506922,184621,1009897868,1009899259,0.91744,-0.378688,-0.060512,6.3175,2.905,-10.3775,-17.584002,-9.208,19.104,concentric,3,3.0,28669.0,378704.0,338508.0,396408.0,341664.0
2026-04-07 17:45:39.508442,184622,1009906788,1009907951,0.91744,-0.378688,-0.060512,4.97,2.065,-10.28125,-17.584002,-9.208,19.104,concentric,3,3.0,28669.0,378704.0,338508.0,396408.0,341664.0
2026-04-07 17:45:39.515471,184623,1009915709,1009916662,0.892064,-0.349408,-0.076128,4.76,2.35375,-9.275,-17.584002,-9.192,19.232,concentric,3,3.0,28669.0,378704.0,338508.0,396408.0,341664.0
2026-04-07 17:45:39.544266,184624,1009930234,1009931596,0.892064,-0.349408,-0.076128,5.85375,3.14125,-9.10875,-17.992,-9.192,19.232,concentric,3,3.0,28669.0,378704.0,338508.0,396408.0,341664.0
2026-04-07 17:45:39.547716,184625,1009939152,1009940298,0.91744,-0.347456,-0.060512,4.8125,3.5175,-9.45,-17.256,-9.112,18.224,concentric,3,3.0,28669.0,378704.0,338508.0,396408.0,341664.0
2026-04-07 17:45:39.550933,184626,1009948049,1009948964,0.91744,-0.347456,-0.060512,4.13,3.52625,-8.35625,-17.256,-9.112,18.224,concentric,3,3.0,28669.0,378704.0,338508.0,396408.0,341664.0
2026-04-07 17:45:39.581262,184627,1009962659,1009963938,0.874496,-0.3416,-0.081984,2.10875,4.69875,-7.42875,-17.480001,-9.384001,20.184,concentric,3,3.0,28669.0,378704.0,338508.0,396408.0,341664.0
2026-04-07 17:45:39.583564,184628,1009971569,1009972661,0.874496,-0.3416,-0.081984,1.26,4.76875,-8.085,-17.480001,-9.384001,20.184,concentric,3,3.0,28669.0,378704.0,338508.0,396408.0,341664.0
2026-04-07 17:45:39.588250,184629,1009980492,1009981336,0.909632,-0.353312,-0.103456,1.4875,4.38375,-7.62125,-17.0,-8.952001,18.136002,concentric,3,3.0,28669.0,378704.0,338508.0,396408.0,341664.0
2026-04-07 17:45:39.614043,184640,1009989834,1009992129,0.909632,-0.353312,-0.103456,1.79375,4.29625,-8.47875,-17.0,-8.952001,18.136002,concentric,3,3.0,28426.0,376912.0,337086.0,394969.0,340328.0
2026-04-07 17:45:39.618125,184641,1010004511,1010005107,0.901824,-0.320128,-0.093696,2.6425,4.69875,-9.28375,-17.344002,-9.528001,19.368,concentric,3,3.0,28426.0,376912.0,337086.0,394969.0,340328.0
2026-04-07 17:45:39.619825,184642,1010013702,1010015909,0.901824,-0.320128,-0.093696,3.7975,5.29375,-9.82625,-17.344002,-9.528001,19.368,concentric,3,3.0,28426.0,376912.0,337086.0,394969.0,340328.0
2026-04-07 17:45:39.621380,184643,1010022680,1010024620,0.905728,-0.308416,-0.089792,3.7625,5.39875,-10.77125,-16.984001,-9.064,19.336,concentric,3,3.0,28426.0,376912.0,337086.0,394969.0,340328.0
2026-04-07 17:45:39.651603,184644,1010037185,1010037510,0.919392,-0.325984,-0.083936,3.0275,4.655,-11.40125,-17.264,-8.864,17.464,concentric,3,3.0,28426.0,376912.0,337086.0,394969.0,340328.0
2026-04-07 17:45:39.656020,184645,1010046361,1010048383,0.919392,-0.325984,-0.083936,2.8,4.22625,-11.4275,-17.264,-8.864,17.464,concentric,3,3.0,28426.0,376912.0,337086.0,394969.0,340328.0
2026-04-07 17:45:39.658398,184646,1010055270,1010057085,0.919392,-0.325984,-0.083936,1.11125,3.52625,-11.4275,-17.264,-8.864,17.464,concentric,3,3.0,28426.0,376912.0,337086.0,394969.0,340328.0
2026-04-07 17:45:39.664323,184647,1010064188,1010065859,0.935008,-0.308416,-0.081984,0.90125,2.77375,-11.62875,-16.952002,-9.080001,18.44,concentric,3,3.0,28426.0,376912.0,337086.0,394969.0,340328.0
2026-04-07 17:45:39.710251,184648,1010078707,1010080777,0.94672,-0.308416,-0.083936,1.715,2.38875,-11.0775,-17.384,-9.624001,19.192001,concentric,3,3.0,28426.0,376912.0,337086.0,394969.0,340328.0
2026-04-07 17:45:39.736907,184658,1010088182,1010089532,0.94672,-0.308416,-0.083936,2.51125,1.6975,-11.0775,-17.384,-9.624001,19.192001,concentric,3,3.0,28376.0,376446.0,336767.0,394668.0,340074.0
2026-04-07 17:45:39.738626,184659,1010097167,1010098300,0.940864,-0.296704,-0.07808,3.63125,0.42875,-10.98125,-17.832,-9.8,15.56,concentric,3,3.0,28376.0,376446.0,336767.0,394668.0,340074.0
2026-04-07 17:45:39.740109,184660,1010111644,1010113183,0.940864,-0.296704,-0.07808,3.01,-0.4725,-10.3775,-17.832,-9.8,15.56,concentric,3,3.0,28376.0,376446.0,336767.0,394668.0,340074.0
2026-04-07 17:45:39.744377,184661,1010120602,1010121880,0.954528,-0.320128,-0.066368,1.81125,-1.56625,-9.8875,-16.792002,-9.64,17.832,concentric,3,3.0,28376.0,376446.0,336767.0,394668.0,340074.0
2026-04-07 17:45:39.746143,184662,1010129575,1010130634,0.954528,-0.320128,-0.066368,1.1725,-2.00375,-9.1,-16.792002,-9.64,17.832,concentric,3,3.0,28376.0,376446.0,336767.0,394668.0,340074.0
2026-04-07 17:45:39.747620,184663,1010144127,1010145566,0.952576,-0.318176,-0.076128,1.47875,-3.08875,-8.25125,-17.08,-9.496,17.448,concentric,3,3.0,28376.0,376446.0,336767.0,394668.0,340074.0
2026-04-07 17:45:39.783931,184664,1010153105,1010154298,0.952576,-0.318176,-0.076128,2.45875,-3.9375,-7.1925,-17.08,-9.496,17.448,eccentric,3,3.0,28376.0,376446.0,336767.0,394668.0,340074.0
2026-04-07 17:45:39.788264,184665,1010161970,1010163053,0.950624,-0.327936,-0.076128,3.89375,-3.535,-5.95875,-16.712,-9.416,17.768002,eccentric,3,3.0,28376.0,376446.0,336767.0,394668.0,340074.0
2026-04-07 17:45:39.789962,184666,1010170927,1010171742,0.950624,-0.327936,-0.076128,4.9875,-3.7975,-4.6025,-16.712,-9.416,17.768002,eccentric,3,3.0,28376.0,376446.0,336767.0,394668.0,340074.0
2026-04-07 17:45:39.791422,184667,1010185406,1010186644,0.91744,-0.298656,-0.05856,5.635,-3.0625,-3.1325,-16.464,-9.440001,17.480001,eccentric,3,3.0,28376.0,376446.0,336767.0,394668.0,340074.0
2026-04-07 17:45:39.820229,184677,1010194349,1010195352,0.91744,-0.298656,-0.05856,5.81875,-2.3625,-1.6975,-16.464,-9.440001,17.480001,eccentric,3,3.0,28687.0,379062.0,338833.0,396820.0,341912.0
2026-04-07 17:45:39.822627,184678,1010203339,1010204133,0.913536,-0.308416,-0.066368,4.48875,-1.96,-0.81375,-16.904001,-9.432,19.888,eccentric,3,3.0,28687.0,379062.0,338833.0,396820.0,341912.0
2026-04-07 17:45:39.825127,184679,1010218322,1010219165,0.880352,-0.279136,-0.056608,3.35125,-0.55125,-0.07,-16.792002,-9.104,17.992,eccentric,3,3.0,28687.0,379062.0,338833.0,396820.0,341912.0
2026-04-07 17:45:39.827624,184680,1010227254,1010227883,0.880352,-0.279136,-0.056608,4.20875,0.34125,1.21625,-16.792002,-9.104,17.992,eccentric,3,3.0,28687.0,379062.0,338833.0,396820.0,341912.0
2026-04-07 17:45:39.857780,184681,1010236566,1010238667,0.880352,-0.310368,-0.050752,4.4275,0.8925,2.56375,-16.792002,-9.104,17.992,eccentric,3,3.0,28687.0,379062.0,338833.0,396820.0,341912.0
2026-04-07 17:45:39.862237,184682,1010245488,1010247381,0.882304,-0.300608,-0.050752,3.08,0.88375,3.38625,-16.880001,-9.432,19.536001,eccentric,3,3.0,28687.0,379062.0,338833.0,396820.0,341912.0
2026-04-07 17:45:39.864020,184683,1010259976,1010262277,0.85888,-0.304512,-0.0488,1.58375,1.8725,3.605,-16.824001,-9.264001,17.752,eccentric,3,3.0,28687.0,379062.0,338833.0,396820.0,341912.0
2026-04-07 17:45:39.867195,184684,1010269008,1010271051,0.85888,-0.304512,-0.0488,3.57,2.35375,4.66375,-16.824001,-9.264001,17.752,eccentric,3,3.0,28687.0,379062.0,338833.0,396820.0,341912.0
2026-04-07 17:45:39.897479,184685,1010277950,1010279745,0.856928,-0.279136,-0.035136,4.41875,2.4325,5.3725,-16.808,-8.992001,16.224,eccentric,3,3.0,28687.0,379062.0,338833.0,396820.0,341912.0
2026-04-07 17:45:39.924228,184695,1010292571,1010294723,0.856928,-0.279136,-0.035136,4.025,2.5025,6.29125,-16.808,-8.992001,16.224,eccentric,3,3.0,28529.0,377809.0,337832.0,395812.0,340952.0
2026-04-07 17:45:39.931132,184696,1010301606,1010303466,0.862784,-0.2928,-0.081984,2.0825,2.40625,7.3325,-16.344,-9.064,17.648,eccentric,3,3.0,28529.0,377809.0,337832.0,395812.0,340952.0
2026-04-07 17:45:39.932895,184697,1010310581,1010312196,0.862784,-0.2928,-0.081984,0.5075,2.68625,7.02625,-16.344,-9.064,17.648,eccentric,3,3.0,28529.0,377809.0,337832.0,395812.0,340952.0
2026-04-07 17:45:39.933875,184698,1010325095,1010327131,0.856928,-0.294752,-0.056608,0.18375,2.59,7.56,-16.44,-9.04,19.112001,eccentric,3,3.0,28529.0,377809.0,337832.0,395812.0,340952.0
2026-04-07 17:45:39.937979,184699,1010334039,1010335842,0.856928,-0.294752,-0.056608,1.12,2.63375,8.05875,-16.44,-9.04,19.112001,eccentric,3,3.0,28529.0,377809.0,337832.0,395812.0,340952.0
2026-04-07 17:45:39.941710,184700,1010342983,1010344556,0.85888,-0.284992,-0.076128,2.135,2.5025,8.575,-16.152,-8.744,17.720001,eccentric,3,3.0,28529.0,377809.0,337832.0,395812.0,340952.0
2026-04-07 17:45:39.970280,184701,1010352034,1010353298,0.85888,-0.284992,-0.076128,1.96,2.07375,8.40875,-16.152,-8.744,17.720001,eccentric,3,3.0,28529.0,377809.0,337832.0,395812.0,340952.0
2026-04-07 17:45:39.974687,184702,1010366579,1010368179,0.85888,-0.306464,-0.062464,-0.16625,2.205,8.09375,-15.888001,-8.864,17.928001,eccentric,3,3.0,28529.0,377809.0,337832.0,395812.0,340952.0
2026-04-07 17:45:40.008733,184703,1010375475,1010376872,0.85888,-0.306464,-0.062464,-1.7675,2.6075,7.875,-15.888001,-8.864,17.928001,eccentric,3,3.0,28529.0,377809.0,337832.0,395812.0,340952.0
2026-04-07 17:45:40.011576,184704,1010384418,1010385598,0.864736,-0.32208,-0.070272,-1.68,2.695,7.735,-16.04,-8.344001,17.664001,eccentric,3,3.0,28529.0,377809.0,337832.0,395812.0,340952.0
2026-04-07 17:45:40.039795,184715,1010399053,1010400567,0.864736,-0.335744,-0.072224,-1.42625,3.05375,7.69125,-16.104,-8.552,16.92,eccentric,3,3.0,28324.0,376234.0,336634.0,394663.0,339941.0
2026-04-07 17:45:40.041332,184716,1010407981,1010409276,0.864736,-0.335744,-0.072224,-1.60125,3.70125,8.54875,-16.104,-8.552,16.92,eccentric,3,3.0,28324.0,376234.0,336634.0,394663.0,339941.0
2026-04-07 17:45:40.045627,184717,1010416999,1010417973,0.864736,-0.335744,-0.072224,0.02625,4.2175,8.925,-16.104,-8.552,16.92,eccentric,3,3.0,28324.0,376234.0,336634.0,394663.0,339941.0
2026-04-07 17:45:40.047277,184718,1010431608,1010432888,0.83936,-0.31232,-0.074176,0.98,4.76,8.68875,-15.160001,-8.312,17.712,eccentric,3,3.0,28324.0,376234.0,336634.0,394663.0,339941.0
2026-04-07 17:45:40.048847,184719,1010440610,1010441620,0.83936,-0.325984,-0.052704,0.44625,5.32,8.09375,-15.816001,-7.960001,17.688002,eccentric,3,3.0,28324.0,376234.0,336634.0,394663.0,339941.0
2026-04-07 17:45:40.053077,184720,1010449698,1010450383,0.83936,-0.325984,-0.052704,-1.18125,6.3,7.90125,-15.816001,-7.960001,17.688002,eccentric,3,3.0,28324.0,376234.0,336634.0,394663.0,339941.0
2026-04-07 17:45:40.058574,184721,1010458971,1010461162,0.833504,-0.3416,-0.06832,-2.9575,6.86875,7.63,-15.136001,-7.520001,18.12,eccentric,3,3.0,28324.0,376234.0,336634.0,394663.0,339941.0
2026-04-07 17:45:40.088696,184722,1010473497,1010473998,0.833504,-0.3416,-0.06832,-3.57,6.74625,7.16625,-15.136001,-7.520001,18.12,eccentric,3,3.0,28324.0,376234.0,336634.0,394663.0,339941.0
2026-04-07 17:45:40.093300,184723,1010482967,1010484742,0.835456,-0.353312,-0.056608,-3.1675,7.105,6.8425,-15.224001,-7.8,17.544,eccentric,3,3.0,28324.0,376234.0,336634.0,394663.0,339941.0
2026-04-07 17:45:40.117332,184733,1010492537,1010493842,0.835456,-0.353312,-0.056608,-2.37125,7.49875,6.5625,-15.224001,-7.8,17.544,eccentric,3,3.0,27891.0,372862.0,333931.0,391933.0,337546.0
2026-04-07 17:45:40.119009,184734,1010501540,1010502604,0.821792,-0.353312,-0.044896,-3.49125,7.1225,6.44,-15.144001,-8.264,18.936,eccentric,3,3.0,27891.0,372862.0,333931.0,391933.0,337546.0
2026-04-07 17:45:40.123088,184735,1010516031,1010517498,0.821792,-0.353312,-0.044896,-4.10375,6.9125,6.41375,-15.144001,-8.264,18.936,eccentric,3,3.0,27891.0,372862.0,333931.0,391933.0,337546.0
2026-04-07 17:45:40.125456,184736,1010524984,1010526167,0.81984,-0.3416,-0.052704,-4.1125,7.32375,6.615,-15.312,-7.872,19.152,eccentric,3,3.0,27891.0,372862.0,333931.0,391933.0,337546.0
2026-04-07 17:45:40.131824,184737,1010533978,1010534906,0.81984,-0.3416,-0.052704,-4.41875,6.64125,6.71125,-15.312,-7.872,19.152,eccentric,3,3.0,27891.0,372862.0,333931.0,391933.0,337546.0
2026-04-07 17:45:40.160355,184738,1010548585,1010549816,0.81984,-0.345504,-0.05856,-4.12125,6.055,6.3175,-15.968,-8.304001,18.688002,eccentric,3,3.0,27891.0,372862.0,333931.0,391933.0,337546.0
2026-04-07 17:45:40.163982,184739,1010557509,1010558538,0.81984,-0.345504,-0.05856,-3.64,5.53875,5.67875,-15.968,-8.304001,18.688002,eccentric,3,3.0,27891.0,372862.0,333931.0,391933.0,337546.0
2026-04-07 17:45:40.168426,184740,1010566504,1010567222,0.81984,-0.353312,-0.040992,-2.5725,5.8975,5.25,-15.088,-7.592001,18.288,eccentric,3,3.0,27891.0,372862.0,333931.0,391933.0,337546.0
2026-04-07 17:45:40.196575,184741,1010575877,1010578012,0.81984,-0.353312,-0.040992,-2.30125,6.39625,5.20625,-15.088,-7.592001,18.288,eccentric,3,3.0,27891.0,372862.0,333931.0,391933.0,337546.0
2026-04-07 17:45:40.223914,184751,1010591090,1010592963,0.815936,-0.345504,-0.052704,-1.95125,6.36125,5.11,-15.080001,-7.72,18.12,eccentric,3,3.0,27721.0,371552.0,332873.0,390855.0,336652.0
2026-04-07 17:45:40.226386,184752,1010600088,1010601669,0.80032,-0.36112,-0.027328,-2.59,6.16875,4.7775,-15.160001,-7.768001,17.384,eccentric,3,3.0,27721.0,371552.0,332873.0,390855.0,336652.0
2026-04-07 17:45:40.227873,184753,1010609098,1010610433,0.80032,-0.36112,-0.027328,-3.815,7.04375,5.03125,-15.160001,-7.768001,17.384,eccentric,3,3.0,27721.0,371552.0,332873.0,390855.0,336652.0
2026-04-07 17:45:40.230822,184754,1010618017,1010619162,0.80032,-0.36112,-0.011712,-4.43625,7.84875,5.425,-15.160001,-7.768001,17.384,eccentric,3,3.0,27721.0,371552.0,332873.0,390855.0,336652.0
2026-04-07 17:45:40.238083,184755,1010632497,1010634094,0.788608,-0.365024,-0.013664,-4.9525,8.5575,5.635,-14.344001,-7.208,19.664001,eccentric,3,3.0,27721.0,371552.0,332873.0,390855.0,336652.0
2026-04-07 17:45:40.240546,184756,1010641486,1010642796,0.76128,-0.355264,-0.021472,-5.17125,9.21375,6.4925,-15.072001,-7.464,18.032001,eccentric,3,3.0,27721.0,371552.0,332873.0,390855.0,336652.0
2026-04-07 17:45:40.269138,184757,1010650466,1010651537,0.76128,-0.355264,-0.021472,-6.43125,9.49375,6.78125,-15.072001,-7.464,18.032001,eccentric,3,3.0,27721.0,371552.0,332873.0,390855.0,336652.0
2026-04-07 17:45:40.273496,184758,1010664931,1010666472,0.772992,-0.38064,-0.023424,-7.51625,9.37125,6.43125,-14.920001,-7.312,18.296001,eccentric,3,3.0,27721.0,371552.0,332873.0,390855.0,336652.0
2026-04-07 17:45:40.307473,184759,1010673887,1010675165,0.772992,-0.38064,-0.023424,-7.93625,8.68875,7.28,-14.920001,-7.312,18.296001,eccentric,3,3.0,27721.0,371552.0,332873.0,390855.0,336652.0
2026-04-07 17:45:40.309807,184760,1010682828,1010683888,0.76128,-0.382592,-0.02928,-8.07625,8.645,7.21875,-14.568001,-7.728,18.152,eccentric,3,3.0,27721.0,371552.0,332873.0,390855.0,336652.0
2026-04-07 17:45:40.339360,184771,1010697402,1010699067,0.76128,-0.382592,-0.02928,-7.21,7.81375,7.04375,-14.568001,-7.728,18.152,eccentric,3,3.0,28039.0,374044.0,334959.0,393087.0,338765.0
2026-04-07 17:45:40.341015,184772,1010706453,1010707793,0.76128,-0.3904,-0.025376,-5.36375,7.72625,6.08125,-14.608001,-7.248,16.84,eccentric,3,3.0,28039.0,374044.0,334959.0,393087.0,338765.0
2026-04-07 17:45:40.342599,184773,1010715354,1010716517,0.76128,-0.3904,-0.025376,-4.2175,7.69125,5.8275,-14.608001,-7.248,16.84,eccentric,3,3.0,28039.0,374044.0,334959.0,393087.0,338765.0
2026-04-07 17:45:40.346990,184774,1010729847,1010731444,0.774944,-0.374784,-0.044896,-3.70125,8.155,5.705,-14.704,-7.296001,18.136002,eccentric,3,3.0,28039.0,374044.0,334959.0,393087.0,338765.0
2026-04-07 17:45:40.348688,184775,1010738908,1010740189,0.774944,-0.402112,-0.02928,-5.36375,7.65625,4.865,-14.704,-7.296001,18.136002,eccentric,3,3.0,28039.0,374044.0,334959.0,393087.0,338765.0
2026-04-07 17:45:40.350188,184776,1010747853,1010748964,0.77104,-0.402112,-0.02928,-6.5275,7.35875,4.92625,-14.496,-7.344,17.984001,eccentric,3,3.0,28039.0,374044.0,334959.0,393087.0,338765.0
2026-04-07 17:45:40.358011,184777,1010756861,1010757661,0.77104,-0.402112,-0.02928,-7.27125,6.88625,4.585,-14.496,-7.344,17.984001,eccentric,3,3.0,28039.0,374044.0,334959.0,393087.0,338765.0
2026-04-07 17:45:40.389430,184778,1010771417,1010772584,0.784704,-0.41968,-0.035136,-6.51,6.44,3.7625,-14.336,-6.728,17.880001,eccentric,3,3.0,28039.0,374044.0,334959.0,393087.0,338765.0
2026-04-07 17:45:40.391118,184779,1010780336,1010781271,0.796416,-0.396256,-0.040992,-6.0025,6.36125,3.2375,-14.024001,-7.416,18.448,eccentric,3,3.0,28039.0,374044.0,334959.0,393087.0,338765.0
2026-04-07 17:45:40.392678,184780,1010789229,1010789988,0.796416,-0.396256,-0.040992,-5.66125,6.545,3.19375,-14.024001,-7.416,18.448,eccentric,3,3.0,28039.0,374044.0,334959.0,393087.0,338765.0
2026-04-07 17:45:40.419363,184790,1010804308,1010805031,0.792512,-0.398208,-0.0488,-6.2125,7.35875,2.52875,-14.288001,-7.400001,19.568,eccentric,3,3.0,28149.0,375106.0,335843.0,394102.0,339630.0
2026-04-07 17:45:40.421068,184791,1010813735,1010815841,0.792512,-0.398208,-0.0488,-8.1725,6.825,1.54,-14.288001,-7.400001,19.568,eccentric,3,3.0,28149.0,375106.0,335843.0,394102.0,339630.0
2026-04-07 17:45:40.422604,184792,1010822719,1010824571,0.80032,-0.404064,-0.0488,-9.03,6.51,0.86625,-14.832001,-7.72,19.640001,eccentric,3,3.0,28149.0,375106.0,335843.0,394102.0,339630.0
2026-04-07 17:45:40.430534,184793,1010831678,1010833306,0.80032,-0.404064,-0.0488,-10.03625,5.8275,-0.32375,-14.832001,-7.72,19.640001,eccentric,3,3.0,28149.0,375106.0,335843.0,394102.0,339630.0
2026-04-07 17:45:40.462564,184794,1010846213,1010848246,0.81008,-0.421632,-0.037088,-9.79125,5.39,-0.97125,-14.184001,-7.816001,18.240002,eccentric,3,3.0,28149.0,375106.0,335843.0,394102.0,339630.0
2026-04-07 17:45:40.464752,184795,1010855141,1010856954,0.81008,-0.421632,-0.037088,-9.80875,4.7775,-2.2925,-14.184001,-7.816001,18.240002,eccentric,3,3.0,28149.0,375106.0,335843.0,394102.0,339630.0
2026-04-07 17:45:40.468529,184796,1010864067,1010865639,0.80032,-0.407968,-0.044896,-9.19625,5.3375,-2.37125,-13.624001,-7.024,18.064001,eccentric,3,3.0,28149.0,375106.0,335843.0,394102.0,339630.0
2026-04-07 17:45:40.498728,184797,1010878653,1010880580,0.80032,-0.407968,-0.044896,-10.00125,5.9675,-4.62875,-13.624001,-7.024,18.064001,eccentric,3,3.0,28149.0,375106.0,335843.0,394102.0,339630.0
2026-04-07 17:45:40.503182,184798,1010887565,1010889271,0.815936,-0.406016,-0.054656,-11.99625,6.44875,-6.02,-13.584001,-7.28,18.016,eccentric,3,3.0,28149.0,375106.0,335843.0,394102.0,339630.0
2026-04-07 17:45:40.531028,184808,1010896628,1010898193,0.815936,-0.406016,-0.054656,-11.87375,6.92125,-5.99375,-13.584001,-7.28,18.016,eccentric,3,3.0,28337.0,376788.0,337360.0,395774.0,341194.0
2026-04-07 17:45:40.532606,184809,1010911125,1010913108,0.792512,-0.42944,-0.02928,-13.0725,7.21,-7.245,-13.024,-7.456,18.104,eccentric,3,3.0,28337.0,376788.0,337360.0,395774.0,341194.0
2026-04-07 17:45:40.536804,184810,1010920195,1010921887,0.782752,-0.417728,-0.03904,-13.5625,7.35875,-7.7875,-13.624001,-7.992001,17.456001,eccentric,3,3.0,28337.0,376788.0,337360.0,395774.0,341194.0
2026-04-07 17:45:40.538606,184811,1010929259,1010930601,0.782752,-0.417728,-0.03904,-12.20625,8.37375,-8.1025,-13.624001,-7.992001,17.456001,eccentric,3,3.0,28337.0,376788.0,337360.0,395774.0,341194.0
2026-04-07 17:45:40.540089,184812,1010938185,1010939317,0.782752,-0.417728,-0.03904,-10.85,9.0475,-8.95125,-13.624001,-7.992001,17.456001,eccentric,3,3.0,28337.0,376788.0,337360.0,395774.0,341194.0
2026-04-07 17:45:40.570823,184813,1010952673,1010954309,0.79056,-0.392352,-0.044896,-12.1625,9.33625,-10.59625,-13.616,-8.096001,20.464,eccentric,3,3.0,28337.0,376788.0,337360.0,395774.0,341194.0
2026-04-07 17:45:40.574646,184814,1010961583,1010963118,0.776896,-0.404064,-0.044896,-11.6725,8.96,-11.917501,-13.912001,-8.200001,18.776001,eccentric,3,3.0,28337.0,376788.0,337360.0,395774.0,341194.0
2026-04-07 17:45:40.610077,184815,1010970523,1010971810,0.776896,-0.404064,-0.044896,-11.94375,8.995,-14.323751,-13.912001,-8.200001,18.776001,eccentric,3,3.0,28337.0,376788.0,337360.0,395774.0,341194.0
2026-04-07 17:45:40.612315,184816,1010985011,1010986751,0.753472,-0.423584,-0.0488,-14.28875,9.03875,-16.2225,-13.080001,-7.848001,18.552,eccentric,3,3.0,28337.0,376788.0,337360.0,395774.0,341194.0
2026-04-07 17:45:40.648605,184827,1010994190,1010995563,0.753472,-0.423584,-0.0488,-14.0,9.5725,-15.225,-13.080001,-7.848001,18.552,eccentric,3,3.0,28042.0,374706.0,335751.0,394184.0,339683.0
2026-04-07 17:45:40.649859,184828,1011003186,1011004341,0.728096,-0.411872,-0.074176,-14.761251,9.9225,-13.93,-13.456,-8.136001,18.720001,eccentric,3,3.0,28042.0,374706.0,335751.0,394184.0,339683.0
2026-04-07 17:45:40.652556,184829,1011017642,1011019237,0.728096,-0.411872,-0.074176,-14.48125,11.1125,-13.7375,-13.456,-8.136001,18.720001,eccentric,3,3.0,28042.0,374706.0,335751.0,394184.0,339683.0
2026-04-07 17:45:40.655598,184830,1011026574,1011027942,0.718336,-0.374784,-0.056608,-15.846251,11.585,-14.035,-13.376,-8.064,19.976002,eccentric,3,3.0,28042.0,374706.0,335751.0,394184.0,339683.0
2026-04-07 17:45:40.657348,184831,1011035511,1011036680,0.718336,-0.374784,-0.056608,-14.595,12.7225,-13.7025,-13.376,-8.064,19.976002,eccentric,3,3.0,28042.0,374706.0,335751.0,394184.0,339683.0
2026-04-07 17:45:40.658937,184832,1011044526,1011045382,0.716384,-0.378688,-0.070272,-14.67375,13.30875,-14.945,-13.664001,-8.584001,19.664001,eccentric,3,3.0,28042.0,374706.0,335751.0,394184.0,339683.0
2026-04-07 17:45:40.662919,184833,1011059196,1011060313,0.716384,-0.378688,-0.070272,-14.6825,13.1075,-16.275,-13.664001,-8.584001,19.664001,eccentric,3,3.0,28042.0,374706.0,335751.0,394184.0,339683.0
2026-04-07 17:45:40.666878,184834,1011068108,1011069034,0.724192,-0.417728,-0.093696,-14.9275,13.25625,-16.91375,-12.512001,-8.552,18.128,eccentric,3,3.0,28042.0,374706.0,335751.0,394184.0,339683.0
2026-04-07 17:45:40.695324,184835,1011077113,1011077742,0.724192,-0.417728,-0.093696,-15.77625,12.845,-17.10625,-12.512001,-8.552,18.128,eccentric,3,3.0,28042.0,374706.0,335751.0,394184.0,339683.0
2026-04-07 17:45:40.726882,184845,1011091896,1011092942,0.737856,-0.363072,-0.06832,-15.6625,13.475,-16.73,-12.832001,-9.176001,19.712002,eccentric,3,3.0,27612.0,371294.0,333018.0,391482.0,337274.0
2026-04-07 17:45:40.728588,184846,1011101559,1011103724,0.76128,-0.38064,-0.0976,-16.6425,13.965,-16.0125,-13.080001,-9.296001,19.112001,eccentric,3,3.0,27612.0,371294.0,333018.0,391482.0,337274.0
2026-04-07 17:45:40.730866,184847,1011110486,1011112464,0.76128,-0.38064,-0.0976,-16.84375,14.323751,-17.465,-13.080001,-9.296001,19.112001,eccentric,3,3.0,27612.0,371294.0,333018.0,391482.0,337274.0
2026-04-07 17:45:40.734376,184848,1011119446,1011121203,0.76128,-0.38064,-0.0976,-15.225,14.95375,-18.10375,-13.080001,-9.296001,19.112001,eccentric,3,3.0,27612.0,371294.0,333018.0,391482.0,337274.0
2026-04-07 17:45:40.735987,184849,1011133979,1011136110,0.7808,-0.384544,-0.095648,-11.935,14.65625,-19.88,-13.712001,-9.784,20.344002,eccentric,3,3.0,27612.0,371294.0,333018.0,391482.0,337274.0
2026-04-07 17:45:40.742985,184850,1011142954,1011144801,0.782752,-0.368928,-0.089792,-11.025,14.245,-20.83375,-13.72,-9.592,19.392,eccentric,3,3.0,27612.0,371294.0,333018.0,391482.0,337274.0
2026-04-07 17:45:40.771613,184851,1011151891,1011153542,0.782752,-0.368928,-0.089792,-11.34875,14.1925,-20.93875,-13.72,-9.592,19.392,eccentric,3,3.0,27612.0,371294.0,333018.0,391482.0,337274.0
2026-04-07 17:45:40.775277,184852,1011166434,1011168451,0.786656,-0.357216,-0.119072,-13.6325,14.315001,-21.9625,-12.888001,-9.048,18.928001,eccentric,3,3.0,27612.0,371294.0,333018.0,391482.0,337274.0
2026-04-07 17:45:40.777745,184853,1011175398,1011177126,0.786656,-0.357216,-0.119072,-13.06375,14.27125,-21.48125,-12.888001,-9.048,18.928001,eccentric,3,3.0,27612.0,371294.0,333018.0,391482.0,337274.0
2026-04-07 17:45:40.784575,184854,1011184317,1011185822,0.788608,-0.337696,-0.085888,-13.2475,14.0525,-23.0475,-12.944,-10.048,19.424002,eccentric,3,3.0,27612.0,371294.0,333018.0,391482.0,337274.0
2026-04-07 17:45:40.816867,184864,1011193451,1011194668,0.788608,-0.337696,-0.085888,-11.865,14.2275,-24.605,-12.944,-10.048,19.424002,eccentric,3,3.0,27250.0,368370.0,330741.0,389128.0,335195.0
2026-04-07 17:45:40.818599,184865,1011208123,1011209768,0.788608,-0.347456,-0.0976,-11.9875,13.72875,-24.6225,-12.408001,-9.544001,19.36,eccentric,3,3.0,27250.0,368370.0,330741.0,389128.0,335195.0
2026-04-07 17:45:40.820590,184866,1011217109,1011218525,0.788608,-0.347456,-0.0976,-12.99375,12.80125,-25.83875,-12.408001,-9.544001,19.36,eccentric,3,3.0,27250.0,368370.0,330741.0,389128.0,335195.0
2026-04-07 17:45:40.824261,184867,1011226216,1011227250,0.798368,-0.337696,-0.070272,-12.31125,13.48375,-25.90875,-13.032001,-10.472,19.536001,eccentric,3,3.0,27250.0,368370.0,330741.0,389128.0,335195.0
2026-04-07 17:45:40.852915,184868,1011240697,1011242150,0.798368,-0.337696,-0.070272,-12.83625,14.00875,-25.92625,-13.032001,-10.472,19.536001,eccentric,3,3.0,27250.0,368370.0,330741.0,389128.0,335195.0
2026-04-07 17:45:40.857291,184869,1011249670,1011250833,0.812032,-0.337696,-0.070272,-13.34375,15.16375,-25.6025,-12.68,-10.808001,19.952002,eccentric,3,3.0,27250.0,368370.0,330741.0,389128.0,335195.0
2026-04-07 17:45:40.858855,184870,1011258627,1011259557,0.812032,-0.337696,-0.070272,-15.05,16.5725,-26.06625,-12.68,-10.808001,19.952002,eccentric,3,3.0,27250.0,368370.0,330741.0,389128.0,335195.0
2026-04-07 17:45:40.907753,184871,1011273149,1011274449,0.80032,-0.327936,-0.0976,-13.4925,17.675,-25.64625,-12.608001,-11.312,19.92,eccentric,3,3.0,27250.0,368370.0,330741.0,389128.0,335195.0
2026-04-07 17:45:40.909871,184872,1011282074,1011283141,0.81008,-0.327936,-0.08784,-12.6175,17.12375,-25.655,-12.752001,-11.256001,19.36,eccentric,3,3.0,27250.0,368370.0,330741.0,389128.0,335195.0
2026-04-07 17:45:40.914900,184873,1011291012,1011291863,0.81008,-0.327936,-0.08784,-12.11,16.68625,-25.89125,-12.752001,-11.256001,19.36,eccentric,3,3.0,27250.0,368370.0,330741.0,389128.0,335195.0
2026-04-07 17:45:40.944821,184884,1011299961,1011300626,0.81008,-0.327936,-0.08784,-9.3975,17.84125,-25.76875,-12.752001,-11.256001,19.36,eccentric,3,3.0,26744.0,364341.0,327749.0,386342.0,333463.0
2026-04-07 17:45:40.946455,184885,1011314796,1011315519,0.823744,-0.288896,-0.0488,-9.87875,18.803751,-26.215,-12.848001,-11.728001,21.912,eccentric,3,3.0,26744.0,364341.0,327749.0,386342.0,333463.0
2026-04-07 17:45:40.950624,184886,1011324133,1011326332,0.83936,-0.296704,-0.080032,-8.67125,19.0575,-26.45125,-12.528001,-11.624001,19.856,eccentric,3,3.0,26744.0,364341.0,327749.0,386342.0,333463.0
2026-04-07 17:45:40.952336,184887,1011333080,1011335027,0.83936,-0.296704,-0.080032,-10.85,18.45375,-26.60875,-12.528001,-11.624001,19.856,eccentric,3,3.0,26744.0,364341.0,327749.0,386342.0,333463.0
2026-04-07 17:45:40.953863,184888,1011347698,1011349970,0.841312,-0.300608,-0.066368,-10.56125,18.06875,-27.23,-12.960001,-12.088,21.704,eccentric,3,3.0,26744.0,364341.0,327749.0,386342.0,333463.0
2026-04-07 17:45:40.957940,184889,1011356712,1011358721,0.841312,-0.300608,-0.066368,-8.9075,18.13,-27.2125,-12.960001,-12.088,21.704,eccentric,3,3.0,26744.0,364341.0,327749.0,386342.0,333463.0
2026-04-07 17:45:40.987657,184890,1011365622,1011367443,0.837408,-0.2928,-0.072224,-8.09375,18.41875,-26.92375,-13.192,-12.752001,21.720001,eccentric,3,3.0,26744.0,364341.0,327749.0,386342.0,333463.0
2026-04-07 17:45:40.991910,184891,1011375636,1011376622,0.837408,-0.2928,-0.072224,-8.00625,18.5675,-26.76625,-13.192,-12.752001,21.720001,eccentric,3,3.0,26744.0,364341.0,327749.0,386342.0,333463.0
2026-04-07 17:45:40.993611,184892,1011390119,1011391534,0.841312,-0.267424,-0.046848,-8.30375,18.2,-26.8625,-13.120001,-12.344001,21.072,eccentric,3,3.0,26744.0,364341.0,327749.0,386342.0,333463.0
2026-04-07 17:45:41.020223,184902,1011399137,1011400335,0.841312,-0.267424,-0.046848,-6.25625,17.6225,-26.53875,-13.120001,-12.344001,21.072,eccentric,3,3.0,26286.0,360626.0,324873.0,383534.0,331145.0
2026-04-07 17:45:41.023555,184903,1011408109,1011409179,0.812032,-0.25376,-0.06832,-4.57625,17.0625,-27.1425,-13.032001,-12.76,22.136002,eccentric,3,3.0,26286.0,360626.0,324873.0,383534.0,331145.0
2026-04-07 17:45:41.062535,184904,1011417079,1011417860,0.812032,-0.25376,-0.06832,-3.325,16.75625,-27.4225,-13.032001,-12.76,22.136002,eccentric,3,3.0,26286.0,360626.0,324873.0,383534.0,331145.0
2026-04-07 17:45:41.075698,184905,1011431618,1011432829,0.796416,-0.265472,-0.081984,-2.24875,16.6075,-25.40125,-12.792001,-13.224001,22.336,eccentric,3,3.0,26286.0,360626.0,324873.0,383534.0,331145.0
2026-04-07 17:45:41.077351,184906,1011440585,1011441521,0.796416,-0.265472,-0.081984,-2.61625,14.49875,-24.08875,-12.792001,-13.224001,22.336,eccentric,3,3.0,26286.0,360626.0,324873.0,383534.0,331145.0
2026-04-07 17:45:41.078999,184907,1011449491,1011450243,0.813984,-0.238144,-0.042944,-1.5925,13.02875,-23.625,-12.64,-12.880001,20.824001,eccentric,3,3.0,26286.0,360626.0,324873.0,383534.0,331145.0
2026-04-07 17:45:41.082331,184908,1011464450,1011465170,0.7808,-0.23424,-0.070272,1.26,12.67,-23.9925,-12.464001,-12.952001,21.016,eccentric,3,3.0,26286.0,360626.0,324873.0,383534.0,331145.0
2026-04-07 17:45:41.084018,184909,1011473924,1011475979,0.7808,-0.23424,-0.070272,3.5175,11.82125,-24.68375,-12.464001,-12.952001,21.016,eccentric,3,3.0,26286.0,360626.0,324873.0,383534.0,331145.0
2026-04-07 17:45:41.087159,184910,1011482954,1011484673,0.79056,-0.267424,-0.064416,3.63125,10.9725,-23.8875,-12.008,-13.208,21.912,eccentric,3,3.0,26286.0,360626.0,324873.0,383534.0,331145.0
2026-04-07 17:45:41.091090,184911,1011491889,1011493400,0.79056,-0.267424,-0.064416,2.8,9.4675,-21.4025,-12.008,-13.208,21.912,eccentric,3,3.0,26286.0,360626.0,324873.0,383534.0,331145.0
2026-04-07 17:45:41.134359,184921,1011506634,1011508460,0.85888,-0.236192,-0.033184,3.465,8.12875,-19.97625,-12.488001,-13.536,22.752,eccentric,3,3.0,25907.0,357330.0,322311.0,380972.0,329116.0
2026-04-07 17:45:41.136010,184922,1011515633,1011517204,0.85888,-0.236192,-0.033184,3.01875,8.53125,-20.9125,-12.488001,-13.536,22.752,eccentric,3,3.0,25907.0,357330.0,322311.0,380972.0,329116.0
2026-04-07 17:45:41.137591,184923,1011524581,1011526003,0.823744,-0.255712,-0.01952,5.7225,10.36875,-21.5775,-12.416,-13.544001,21.400002,eccentric,3,3.0,25907.0,357330.0,322311.0,380972.0,329116.0
2026-04-07 17:45:41.141692,184924,1011539159,1011540959,0.823744,-0.255712,-0.01952,5.1975,11.9525,-21.95375,-12.416,-13.544001,21.400002,eccentric,3,3.0,25907.0,357330.0,322311.0,380972.0,329116.0
2026-04-07 17:45:41.148112,184925,1011548139,1011549740,0.802272,-0.275232,-0.03904,6.0375,12.6,-21.105,-12.936001,-14.088,24.088001,eccentric,3,3.0,25907.0,357330.0,322311.0,380972.0,329116.0
2026-04-07 17:45:41.211384,184926,1011557172,1011558402,0.802272,-0.275232,-0.03904,6.0025,11.9,-20.1425,-12.936001,-14.088,24.088001,eccentric,3,3.0,25907.0,357330.0,322311.0,380972.0,329116.0
2026-04-07 17:45:41.213522,184927,1011566079,1011567080,0.81008,-0.249856,-0.052704,6.16,11.165,-19.3375,-12.496,-14.192,21.248001,eccentric,3,3.0,25907.0,357330.0,322311.0,380972.0,329116.0
2026-04-07 17:45:41.218104,184928,1011580568,1011581980,0.81008,-0.249856,-0.052704,6.8075,11.1825,-18.7425,-12.496,-14.192,21.248001,eccentric,3,3.0,25907.0,357330.0,322311.0,380972.0,329116.0
2026-04-07 17:45:41.224550,184929,1011589487,1011590666,0.845216,-0.208864,-0.015616,5.55625,11.38375,-19.55625,-11.88,-14.328001,21.824001,eccentric,3,3.0,25907.0,357330.0,322311.0,380972.0,329116.0
2026-04-07 17:45:41.250944,184940,1011598822,1011599778,0.845216,-0.208864,-0.015616,7.3325,14.0525,-20.79,-11.88,-14.328001,21.824001,eccentric,3,3.0,26113.0,358221.0,322622.0,380788.0,328976.0
2026-04-07 17:45:41.258107,184941,1011613308,1011614680,0.815936,-0.21472,0.007808,8.575,15.645,-23.17,-11.864,-14.160001,21.856,eccentric,3,3.0,26113.0,358221.0,322622.0,380788.0,328976.0
2026-04-07 17:45:41.259885,184942,1011622223,1011623389,0.815936,-0.21472,0.007808,8.84625,16.07375,-25.54125,-11.864,-14.160001,21.856,eccentric,3,3.0,26113.0,358221.0,322622.0,380788.0,328976.0
2026-04-07 17:45:41.261360,184943,1011631132,1011632059,0.813984,-0.255712,-0.005856,8.02375,15.61,-26.1275,-12.024,-13.76,20.208,eccentric,3,3.0,26113.0,358221.0,322622.0,380788.0,328976.0
2026-04-07 17:45:41.265663,184944,1011645713,1011647076,0.853024,-0.240096,0.003904,8.11125,14.0175,-25.7075,-12.056001,-14.912001,22.728,eccentric,3,3.0,26113.0,358221.0,322622.0,380788.0,328976.0
2026-04-07 17:45:41.267393,184945,1011654639,1011655773,0.853024,-0.240096,0.003904,7.53375,13.3,-25.45375,-12.056001,-14.912001,22.728,eccentric,3,3.0,26113.0,358221.0,322622.0,380788.0,328976.0
2026-04-07 17:45:41.268960,184946,1011663557,1011664442,0.854976,-0.167872,0.056608,7.9975,14.04375,-26.46875,-12.512001,-14.920001,25.008001,eccentric,3,3.0,26113.0,358221.0,322622.0,380788.0,328976.0
2026-04-07 17:45:41.276731,184947,1011678049,1011679368,0.854976,-0.167872,0.056608,8.7325,15.81125,-28.65625,-12.512001,-14.920001,25.008001,eccentric,3,3.0,26113.0,358221.0,322622.0,380788.0,328976.0
2026-04-07 17:45:41.305584,184948,1011686996,1011688069,0.813984,-0.249856,0.031232,10.4825,15.855001,-30.75625,-12.008,-15.864,23.072,eccentric,3,3.0,26113.0,358221.0,322622.0,380788.0,328976.0
2026-04-07 17:45:41.345703,184958,1011695966,1011696743,0.813984,-0.249856,0.031232,10.50875,15.2425,-30.26625,-12.008,-15.864,23.072,eccentric,3,3.0,25886.0,356413.0,321150.0,379245.0,327604.0
2026-04-07 17:45:41.347333,184959,1011704951,1011705497,0.7808,-0.275232,0.007808,10.12375,13.43125,-28.23625,-12.064,-15.184001,21.744001,eccentric,3,3.0,25886.0,356413.0,321150.0,379245.0,327604.0
2026-04-07 17:45:41.349761,184960,1011720047,1011720444,0.7808,-0.275232,0.007808,13.5625,11.47125,-25.76875,-12.064,-15.184001,21.744001,eccentric,3,3.0,25886.0,356413.0,321150.0,379245.0,327604.0
2026-04-07 17:45:41.358002,184961,1011729322,1011731228,0.782752,-0.197152,0.02928,14.385,8.91625,-22.42625,-12.848001,-15.624001,22.984001,eccentric,3,3.0,25886.0,356413.0,321150.0,379245.0,327604.0
2026-04-07 17:45:41.366849,184962,1011738409,1011739919,0.782752,-0.197152,0.02928,13.8425,7.0175,-20.0725,-12.848001,-15.624001,22.984001,eccentric,3,3.0,25886.0,356413.0,321150.0,379245.0,327604.0
2026-04-07 17:45:41.368572,184963,1011747315,1011748677,0.80032,-0.179584,0.033184,13.7025,6.6675,-19.50375,-12.504001,-15.288001,21.632002,eccentric,3,3.0,25886.0,356413.0,321150.0,379245.0,327604.0
2026-04-07 17:45:41.370725,184964,1011761909,1011763617,0.80032,-0.179584,0.033184,14.27125,7.4025,-19.81875,-12.504001,-15.288001,21.632002,eccentric,3,3.0,25886.0,356413.0,321150.0,379245.0,327604.0
2026-04-07 17:45:41.374184,184965,1011770867,1011772319,0.782752,-0.18544,0.01952,13.11625,9.23125,-22.12,-12.352,-15.544001,23.424002,eccentric,3,3.0,25886.0,356413.0,321150.0,379245.0,327604.0
2026-04-07 17:45:41.379211,184966,1011779823,1011781008,0.782752,-0.18544,0.01952,11.5325,9.8875,-22.7325,-12.352,-15.544001,23.424002,eccentric,3,3.0,25886.0,356413.0,321150.0,379245.0,327604.0
2026-04-07 17:45:41.410065,184967,1011794368,1011795951,0.827648,-0.220576,0.025376,6.965,9.073751,-21.93625,-12.128,-15.360001,22.016,eccentric,3,3.0,25886.0,356413.0,321150.0,379245.0,327604.0
2026-04-07 17:45:41.447221,184977,1011803332,1011804689,0.827648,-0.20496,0.021472,5.635,8.81125,-20.772501,-12.128,-15.360001,22.016,eccentric,3,3.0,25842.0,355763.0,320547.0,378437.0,326859.0
2026-04-07 17:45:41.454365,184978,1011812233,1011813377,0.806176,-0.218624,0.021472,6.825,8.18125,-18.20875,-11.632001,-15.904,21.552002,eccentric,3,3.0,25842.0,355763.0,320547.0,378437.0,326859.0
2026-04-07 17:45:41.456052,184979,1011826735,1011828310,0.774944,-0.300608,0.005856,7.6475,6.9125,-16.79125,-12.816001,-16.368,25.36,eccentric,3,3.0,25842.0,355763.0,320547.0,378437.0,326859.0
2026-04-07 17:45:41.457629,184980,1011835683,1011837037,0.774944,-0.300608,0.005856,8.6975,6.93,-18.366251,-12.816001,-16.368,25.36,eccentric,3,3.0,25842.0,355763.0,320547.0,378437.0,326859.0
2026-04-07 17:45:41.461847,184981,1011844671,1011845795,0.843264,-0.130784,0.054656,11.89125,4.85625,-19.145,-12.464001,-16.168001,25.232,eccentric,3,3.0,25842.0,355763.0,320547.0,378437.0,326859.0
2026-04-07 17:45:41.464711,184982,1011859179,1011860713,0.843264,-0.130784,0.054656,19.74875,5.48625,-18.06875,-12.464001,-16.168001,25.232,eccentric,3,3.0,25842.0,355763.0,320547.0,378437.0,326859.0
2026-04-07 17:45:41.470475,184983,1011868123,1011869431,0.841312,-0.158112,0.040992,15.53125,6.23,-19.635,-11.704,-16.296001,21.792002,eccentric,3,3.0,25842.0,355763.0,320547.0,378437.0,326859.0
2026-04-07 17:45:41.475786,184984,1011877033,1011878156,0.841312,-0.158112,0.040992,9.2225,6.06375,-17.6575,-11.704,-16.296001,21.792002,eccentric,3,3.0,25842.0,355763.0,320547.0,378437.0,326859.0
2026-04-07 17:45:41.508722,184985,1011886012,1011886897,0.825696,-0.216672,0.031232,5.04,6.09875,-17.15875,-12.608001,-16.216002,22.488,eccentric,3,3.0,25842.0,355763.0,320547.0,378437.0,326859.0
2026-04-07 17:45:41.538095,184996,1011900619,1011901791,0.825696,-0.216672,0.031232,5.46,5.41625,-15.51375,-12.608001,-16.216002,22.488,eccentric,3,3.0,25937.0,356468.0,321003.0,378727.0,327105.0
2026-04-07 17:45:41.539798,184997,1011909577,1011910516,0.835456,-0.1464,0.070272,7.7175,4.48,-13.69375,-11.88,-16.024,21.888,eccentric,3,3.0,25937.0,356468.0,321003.0,378727.0,327105.0
2026-04-07 17:45:41.541373,184998,1011918530,1011919246,0.835456,-0.1464,0.070272,8.30375,3.99,-13.30875,-11.88,-16.024,21.888,eccentric,3,3.0,25937.0,356468.0,321003.0,378727.0,327105.0
2026-04-07 17:45:41.545925,184999,1011933411,1011934168,0.83936,-0.12688,0.080032,8.28625,4.2,-13.1075,-11.960001,-15.880001,23.136002,eccentric,3,3.0,25937.0,356468.0,321003.0,378727.0,327105.0
2026-04-07 17:45:41.549827,185000,1011942779,1011944957,0.83936,-0.12688,0.080032,5.0575,3.92,-13.65,-11.960001,-15.880001,23.136002,eccentric,3,3.0,25937.0,356468.0,321003.0,378727.0,327105.0
2026-04-07 17:45:41.552214,185001,1011951781,1011953814,0.851072,-0.160064,0.044896,3.7275,4.87375,-15.00625,-12.352,-16.472,23.632002,eccentric,3,3.0,25937.0,356468.0,321003.0,378727.0,327105.0
2026-04-07 17:45:41.560540,185002,1011960741,1011962541,0.851072,-0.160064,0.044896,2.23125,5.38125,-15.4875,-12.352,-16.472,23.632002,eccentric,3,3.0,25937.0,356468.0,321003.0,378727.0,327105.0
2026-04-07 17:45:41.589004,185003,1011975329,1011977508,0.845216,-0.17568,0.035136,1.8025,5.08375,-15.155,-11.864,-16.888,23.192001,eccentric,3,3.0,25937.0,356468.0,321003.0,378727.0,327105.0
2026-04-07 17:45:41.593581,185004,1011984237,1011986248,0.8296,-0.16592,0.025376,1.98625,3.64875,-14.2625,-11.864,-16.888,21.144001,eccentric,3,3.0,25937.0,356468.0,321003.0,378727.0,327105.0
2026-04-07 17:45:41.595089,185005,1011993154,1011994989,0.831552,-0.16592,0.025376,2.065,2.5375,-11.83,-11.304001,-16.344,21.488,eccentric,3,3.0,25937.0,356468.0,321003.0,378727.0,327105.0
2026-04-07 17:45:41.623883,185015,1012007761,1012008262,0.837408,-0.119072,0.044896,2.1,0.945,-9.3625,-12.032001,-17.0,23.112001,eccentric,3,3.0,26048.0,357255.0,321558.0,379141.0,327426.0
2026-04-07 17:45:41.628257,185016,1012017160,1012019025,0.837408,-0.119072,0.044896,1.98625,0.13125,-8.05,-12.032001,-17.0,23.112001,eccentric,3,3.0,26048.0,357255.0,321558.0,379141.0,327426.0
2026-04-07 17:45:41.629846,185017,1012026125,1012027675,0.845216,-0.103456,0.046848,0.30625,1.46125,-9.00375,-11.696,-16.792002,21.528002,eccentric,3,3.0,26048.0,357255.0,321558.0,379141.0,327426.0
2026-04-07 17:45:41.631398,185018,1012035139,1012036406,0.845216,-0.103456,0.046848,0.56875,3.61375,-11.305,-11.696,-16.792002,21.528002,eccentric,3,3.0,26048.0,357255.0,321558.0,379141.0,327426.0
2026-04-07 17:45:41.669964,185019,1012049701,1012051305,0.845216,-0.177632,0.031232,-1.575,4.2175,-12.1275,-11.576,-16.616001,21.904001,eccentric,3,3.0,26048.0,357255.0,321558.0,379141.0,327426.0
2026-04-07 17:45:41.674362,185020,1012058639,1012059994,0.845216,-0.177632,0.031232,-3.36875,3.57875,-11.29625,-11.576,-16.616001,21.904001,eccentric,3,3.0,26048.0,357255.0,321558.0,379141.0,327426.0
2026-04-07 17:45:41.676803,185021,1012067551,1012068729,0.83936,-0.171776,0.015616,-3.1325,2.58125,-10.1325,-10.976001,-16.640001,21.76,eccentric,3,3.0,26048.0,357255.0,321558.0,379141.0,327426.0
2026-04-07 17:45:41.680518,185022,1012082070,1012083657,0.83936,-0.171776,0.015616,-2.56375,1.75875,-7.4725,-10.976001,-16.640001,21.76,eccentric,3,3.0,26048.0,357255.0,321558.0,379141.0,327426.0
2026-04-07 17:45:41.711726,185023,1012091044,1012092397,0.8296,-0.10736,0.015616,-2.31875,1.14625,-5.985,-11.896001,-16.392,22.672,eccentric,3,3.0,26048.0,357255.0,321558.0,379141.0,327426.0
2026-04-07 17:45:41.746877,185033,1012100144,1012101116,0.8296,-0.10736,0.015616,-2.17875,1.6275,-5.80125,-11.896001,-16.392,22.672,eccentric,3,3.0,26035.0,357125.0,321431.0,379004.0,327268.0
2026-04-07 17:45:41.748632,185034,1012114729,1012116034,0.851072,-0.12688,0.031232,-2.91375,1.02375,-5.38125,-11.64,-16.088001,21.544,eccentric,3,3.0,26035.0,357125.0,321431.0,379004.0,327268.0
2026-04-07 17:45:41.750261,185035,1012123692,1012124802,0.851072,-0.12688,0.031232,-3.115,0.86625,-5.6175,-11.64,-16.088001,21.544,eccentric,3,3.0,26035.0,357125.0,321431.0,379004.0,327268.0
2026-04-07 17:45:41.755081,185036,1012132682,1012133571,0.825696,-0.158112,0.015616,-2.52875,1.505,-6.335,-12.664001,-16.896,23.776001,eccentric,3,3.0,26035.0,357125.0,321431.0,379004.0,327268.0
2026-04-07 17:45:41.756049,185037,1012142218,1012144343,0.825696,-0.158112,0.015616,-2.555,0.20125,-4.75125,-12.664001,-16.896,23.776001,eccentric,3,3.0,26035.0,357125.0,321431.0,379004.0,327268.0
2026-04-07 17:45:41.757663,185038,1012156794,1012157233,0.833504,-0.1464,0.005856,-2.38875,-1.26,-2.9225,-11.696,-16.448,21.688002,eccentric,3,3.0,26035.0,357125.0,321431.0,379004.0,327268.0
2026-04-07 17:45:41.765459,185039,1012166223,1012167989,0.806176,-0.13664,0.00976,-1.35625,-2.555,-1.39125,-12.568001,-16.528,22.768002,eccentric,3,3.0,26035.0,357125.0,321431.0,379004.0,327268.0
2026-04-07 17:45:41.805404,185040,1012175214,1012176687,0.806176,-0.13664,0.00976,0.13125,-3.955,0.16625,-12.568001,-16.528,22.768002,eccentric,3,3.0,26035.0,357125.0,321431.0,379004.0,327268.0
2026-04-07 17:45:41.810675,185041,1012184150,1012185394,0.806176,-0.13664,0.00976,2.42375,-5.6525,1.6275,-12.568001,-16.528,22.768002,eccentric,3,3.0,26035.0,357125.0,321431.0,379004.0,327268.0
2026-04-07 17:45:41.840596,185052,1012198741,1012200255,0.792512,-0.119072,0.013664,5.34625,-6.86,1.89,-11.408001,-16.256,21.088001,eccentric,3,3.0,26053.0,357144.0,321455.0,378958.0,327236.0
2026-04-07 17:45:41.842368,185053,1012207772,1012209015,0.79056,-0.148352,-0.031232,8.505,-9.02125,3.73625,-11.792001,-15.432001,21.080002,eccentric,3,3.0,26053.0,357144.0,321455.0,378958.0,327236.0
2026-04-07 17:45:41.844040,185054,1012216662,1012217744,0.79056,-0.148352,-0.031232,9.7125,-12.04875,6.18625,-11.792001,-15.432001,21.080002,eccentric,3,3.0,26053.0,357144.0,321455.0,378958.0,327236.0
2026-04-07 17:45:41.845982,185055,1012231184,1012232659,0.854976,-0.095648,0.031232,10.71875,-13.9475,7.62125,-11.664001,-15.536001,20.808,eccentric,3,3.0,26053.0,357144.0,321455.0,378958.0,327236.0
2026-04-07 17:45:41.850870,185056,1012240133,1012241363,0.854976,-0.095648,0.031232,10.96375,-13.230001,7.46375,-11.664001,-15.536001,20.808,eccentric,3,3.0,26053.0,357144.0,321455.0,378958.0,327236.0
2026-04-07 17:45:41.853031,185057,1012249079,1012250174,0.856928,-0.122976,0.01952,9.975,-11.48875,7.00875,-11.68,-15.984001,20.936,eccentric,3,3.0,26053.0,357144.0,321455.0,378958.0,327236.0
2026-04-07 17:45:41.863013,185058,1012263595,1012265099,0.856928,-0.122976,0.01952,6.9825,-10.43,6.72,-11.68,-15.984001,20.936,eccentric,3,3.0,26053.0,357144.0,321455.0,378958.0,327236.0
2026-04-07 17:45:41.891519,185059,1012272533,1012273812,0.833504,-0.17568,-0.025376,4.96125,-11.08625,7.41125,-11.816001,-15.792001,22.248001,eccentric,3,3.0,26053.0,357144.0,321455.0,378958.0,327236.0
2026-04-07 17:45:41.896679,185060,1012281470,1012282571,0.833504,-0.17568,-0.025376,6.2475,-12.355001,9.730001,-11.816001,-15.792001,22.248001,eccentric,3,3.0,26053.0,357144.0,321455.0,378958.0,327236.0
2026-04-07 17:45:41.898076,185061,1012295959,1012297506,0.83936,-0.17568,-0.054656,9.24,-15.5575,12.22375,-11.776001,-15.416,21.208,eccentric,3,3.0,26053.0,357144.0,321455.0,378958.0,327236.0
2026-04-07 17:45:41.926639,185071,1012305059,1012306275,0.83936,-0.17568,-0.054656,11.78625,-17.77125,13.51,-11.776001,-15.416,21.208,eccentric,3,3.0,26632.0,361946.0,325179.0,382612.0,330051.0
2026-04-07 17:45:41.930179,185072,1012314005,1012314979,0.83936,-0.142496,-0.007808,13.965,-17.99875,14.323751,-12.248,-15.360001,19.36,eccentric,3,3.0,26632.0,361946.0,325179.0,382612.0,330051.0
2026-04-07 17:45:41.933559,185073,1012322946,1012323688,0.83936,-0.142496,-0.007808,14.35875,-16.58125,14.62125,-12.248,-15.360001,19.36,eccentric,3,3.0,26632.0,361946.0,325179.0,382612.0,330051.0
2026-04-07 17:45:41.936801,185074,1012337873,1012338617,0.813984,-0.148352,-0.001952,13.55375,-15.155,15.61875,-12.128,-15.008,21.984001,eccentric,3,3.0,26632.0,361946.0,325179.0,382612.0,330051.0
