pc_time,serial_num,sensor_ts,host_ts,ax,ay,az,gx,gy,gz,mx,my,mz,phase,rpe,weight_kg,ppg_a,ppg_b,ppg_c,ppg_d,ppg_e
2026-04-07 17:45:41.967911,185075,1012347253,1012349394,0.776896,-0.18544,-0.052704,10.77125,-13.7725,15.4,-12.080001,-14.632001,21.080002,concentric,3,3.0,26632.0,361946.0,325179.0,382612.0,330051.0
2026-04-07 17:45:41.970785,185076,1012356241,1012358091,0.776896,-0.18544,-0.052704,10.3775,-12.573751,15.636251,-12.080001,-14.632001,21.080002,concentric,3,3.0,26632.0,361946.0,325179.0,382612.0,330051.0
2026-04-07 17:45:41.974713,185077,1012365156,1012366803,0.776896,-0.18544,-0.052704,11.4275,-13.06375,17.115,-12.080001,-14.632001,21.080002,concentric,3,3.0,26632.0,361946.0,325179.0,382612.0,330051.0
2026-04-07 17:45:41.978796,185078,1012379631,1012381802,0.784704,-0.179584,-0.031232,10.87625,-13.78125,17.675,-11.88,-14.104001,23.104002,concentric,3,3.0,26632.0,361946.0,325179.0,382612.0,330051.0
2026-04-07 17:45:42.016244,185079,1012388620,1012390556,0.815936,-0.208864,-0.05856,13.06375,-14.48125,18.08625,-11.6,-14.392001,21.072,concentric,3,3.0,26632.0,361946.0,325179.0,382612.0,330051.0
2026-04-07 17:45:42.020675,185080,1012397524,1012399241,0.815936,-0.208864,-0.05856,12.46875,-15.0675,18.76,-11.6,-14.392001,21.072,concentric,3,3.0,26632.0,361946.0,325179.0,382612.0,330051.0
2026-04-07 17:45:42.044817,185090,1012412049,1012414169,0.786656,-0.187392,-0.044896,13.06375,-14.41125,19.41625,-12.000001,-13.936001,20.248001,concentric,3,3.0,27681.0,370342.0,331694.0,389197.0,335682.0
2026-04-07 17:45:42.046397,185091,1012421023,1012422866,0.786656,-0.187392,-0.044896,13.8425,-14.06125,20.02875,-12.000001,-13.936001,20.248001,concentric,3,3.0,27681.0,370342.0,331694.0,389197.0,335682.0
2026-04-07 17:45:42.050669,185092,1012429970,1012431589,0.757376,-0.206912,-0.066368,12.792501,-15.2075,21.55125,-12.848001,-14.400001,22.184002,concentric,3,3.0,27681.0,370342.0,331694.0,389197.0,335682.0
2026-04-07 17:45:42.052347,185093,1012444575,1012446562,0.757376,-0.206912,-0.066368,11.05125,-17.29,23.79125,-12.848001,-14.400001,22.184002,concentric,3,3.0,27681.0,370342.0,331694.0,389197.0,335682.0
2026-04-07 17:45:42.054177,185094,1012453609,1012455267,0.77104,-0.169824,-0.115168,8.75,-19.1975,25.10375,-12.696001,-13.960001,21.880001,concentric,3,3.0,27681.0,370342.0,331694.0,389197.0,335682.0
2026-04-07 17:45:42.061738,185095,1012462611,1012463978,0.77104,-0.169824,-0.115168,5.50375,-21.875,24.17625,-12.696001,-13.960001,21.880001,concentric,3,3.0,27681.0,370342.0,331694.0,389197.0,335682.0
2026-04-07 17:45:42.091002,185096,1012477091,1012478859,0.813984,-0.179584,-0.121024,1.435,-23.24875,21.4725,-12.192,-13.424001,19.592001,concentric,3,3.0,27681.0,370342.0,331694.0,389197.0,335682.0
2026-04-07 17:45:42.094747,185097,1012486051,1012487632,0.813984,-0.179584,-0.101504,2.1875,-23.765,19.31125,-12.192,-13.424001,19.592001,concentric,3,3.0,27681.0,370342.0,331694.0,389197.0,335682.0
2026-04-07 17:45:42.096315,185098,1012494968,1012496321,0.827648,-0.245952,-0.101504,4.90875,-24.57,17.77125,-11.952001,-13.152,18.528002,concentric,3,3.0,27681.0,370342.0,331694.0,389197.0,335682.0
2026-04-07 17:45:42.126367,185109,1012503984,1012505074,0.827648,-0.245952,-0.101504,12.34625,-25.66375,18.43625,-11.952001,-13.152,18.528002,concentric,3,3.0,29027.0,381067.0,340402.0,398478.0,343983.0
2026-04-07 17:45:42.130709,185110,1012518629,1012520129,0.823744,-0.259616,-0.130784,20.43125,-28.1225,19.3725,-12.280001,-13.000001,19.688002,concentric,3,3.0,29027.0,381067.0,340402.0,398478.0,343983.0
2026-04-07 17:45:42.132418,185111,1012527586,1012528855,0.854976,-0.22448,-0.105408,21.70875,-30.82625,19.53875,-11.984,-12.696001,18.976002,concentric,3,3.0,29027.0,381067.0,340402.0,398478.0,343983.0
2026-04-07 17:45:42.134192,185112,1012536518,1012537591,0.854976,-0.22448,-0.105408,20.4575,-30.89625,18.69,-11.984,-12.696001,18.976002,concentric,3,3.0,29027.0,381067.0,340402.0,398478.0,343983.0
2026-04-07 17:45:42.166961,185113,1012551018,1012552469,0.845216,-0.228384,-0.119072,20.4575,-30.0825,18.26125,-11.768001,-12.312,19.536001,concentric,3,3.0,29027.0,381067.0,340402.0,398478.0,343983.0
2026-04-07 17:45:42.168727,185114,1012559928,1012561202,0.845216,-0.228384,-0.119072,15.75875,-28.37625,18.725,-11.768001,-12.312,19.536001,concentric,3,3.0,29027.0,381067.0,340402.0,398478.0,343983.0
2026-04-07 17:45:42.171180,185115,1012568829,1012569917,0.81008,-0.261568,-0.085888,12.5125,-26.3025,18.2525,-11.480001,-12.128,18.016,concentric,3,3.0,29027.0,381067.0,340402.0,398478.0,343983.0
2026-04-07 17:45:42.201274,185116,1012583344,1012584942,0.81008,-0.261568,-0.085888,11.29625,-24.2375,17.77125,-11.480001,-12.128,18.016,concentric,3,3.0,29027.0,381067.0,340402.0,398478.0,343983.0
2026-04-07 17:45:42.205699,185117,1012592264,1012593648,0.804224,-0.277184,-0.093696,10.00125,-23.2575,18.01625,-11.920001,-11.856001,17.872002,concentric,3,3.0,29027.0,381067.0,340402.0,398478.0,343983.0
2026-04-07 17:45:42.228863,185127,1012601199,1012602443,0.804224,-0.277184,-0.093696,8.68,-22.5925,17.57,-11.920001,-11.856001,17.872002,concentric,3,3.0,29649.0,386180.0,344676.0,402686.0,348013.0
2026-04-07 17:45:42.233152,185128,1012610159,1012611251,0.802272,-0.324032,-0.12688,10.08,-21.27125,17.40375,-11.544001,-11.832001,17.392,concentric,3,3.0,29649.0,386180.0,344676.0,402686.0,348013.0
2026-04-07 17:45:42.234904,185129,1012624663,1012626188,0.802272,-0.324032,-0.12688,9.24,-20.553751,17.78875,-11.544001,-11.832001,17.392,concentric,3,3.0,29649.0,386180.0,344676.0,402686.0,348013.0
2026-04-07 17:45:42.236676,185130,1012633614,1012634892,0.763232,-0.300608,-0.099552,8.2425,-19.45125,18.515,-11.8,-11.024,17.368,concentric,3,3.0,29649.0,386180.0,344676.0,402686.0,348013.0
2026-04-07 17:45:42.243045,185131,1012642606,1012643633,0.763232,-0.300608,-0.099552,10.5,-18.55,19.6525,-11.8,-11.024,17.368,concentric,3,3.0,29649.0,386180.0,344676.0,402686.0,348013.0
2026-04-07 17:45:42.271540,185132,1012657058,1012658531,0.755424,-0.275232,-0.109312,10.745,-17.928751,20.2475,-11.576,-10.744,17.024,concentric,3,3.0,29649.0,386180.0,344676.0,402686.0,348013.0
2026-04-07 17:45:42.275956,185133,1012665985,1012667219,0.755424,-0.275232,-0.109312,11.43625,-17.272501,20.43125,-11.576,-10.744,17.024,concentric,3,3.0,29649.0,386180.0,344676.0,402686.0,348013.0
2026-04-07 17:45:42.283379,185134,1012674850,1012675940,0.753472,-0.261568,-0.152256,11.4975,-17.50875,20.4225,-11.456,-10.584001,16.416,concentric,3,3.0,29649.0,386180.0,344676.0,402686.0,348013.0
2026-04-07 17:45:42.331054,185135,1012689311,1012690861,0.749568,-0.320128,-0.142496,8.1725,-17.36,19.78375,-11.744,-10.432,16.904001,concentric,3,3.0,29649.0,386180.0,344676.0,402686.0,348013.0
2026-04-07 17:45:42.351762,185136,1012698219,1012699550,0.749568,-0.320128,-0.142496,7.46375,-16.98375,20.15125,-11.744,-10.432,16.904001,concentric,3,3.0,29649.0,386180.0,344676.0,402686.0,348013.0
2026-04-07 17:45:42.383512,185146,1012707245,1012708315,0.749568,-0.329888,-0.128832,8.81125,-17.675,20.32625,-11.744,-10.432,16.904001,concentric,3,3.0,29794.0,387434.0,345739.0,403251.0,348902.0
2026-04-07 17:45:42.390618,185147,1012721712,1012723244,0.74176,-0.329888,-0.128832,10.52625,-17.64,20.46625,-12.080001,-10.264001,17.0,concentric,3,3.0,29794.0,387434.0,345739.0,403251.0,348902.0
2026-04-07 17:45:42.392396,185148,1012730629,1012731920,0.755424,-0.310368,-0.1464,10.01,-18.06,21.875,-11.792001,-10.176001,16.584002,concentric,3,3.0,29794.0,387434.0,345739.0,403251.0,348902.0
2026-04-07 17:45:42.394129,185149,1012739521,1012740610,0.755424,-0.310368,-0.1464,9.8525,-18.10375,21.97125,-11.792001,-10.176001,16.584002,concentric,3,3.0,29794.0,387434.0,345739.0,403251.0,348902.0
2026-04-07 17:45:42.401914,185150,1012754010,1012755495,0.772992,-0.2928,-0.142496,9.485,-17.36875,21.428751,-12.088,-9.984,16.464,concentric,3,3.0,29794.0,387434.0,345739.0,403251.0,348902.0
2026-04-07 17:45:42.403603,185151,1012762967,1012764173,0.772992,-0.2928,-0.142496,6.9475,-16.8175,20.06375,-12.088,-9.984,16.464,concentric,3,3.0,29794.0,387434.0,345739.0,403251.0,348902.0
2026-04-07 17:45:42.405348,185152,1012771888,1012772912,0.792512,-0.363072,-0.13664,6.08125,-17.01875,17.255,-11.952001,-9.328,16.176,concentric,3,3.0,29794.0,387434.0,345739.0,403251.0,348902.0
2026-04-07 17:45:42.415196,185153,1012781002,1012781648,0.792512,-0.363072,-0.13664,8.14625,-16.16125,16.6775,-11.952001,-9.328,16.176,concentric,3,3.0,29794.0,387434.0,345739.0,403251.0,348902.0
2026-04-07 17:45:42.418372,185154,1012795811,1012796656,0.774944,-0.386496,-0.115168,9.87,-16.0125,17.28125,-12.232,-9.120001,16.52,concentric,3,3.0,29794.0,387434.0,345739.0,403251.0,348902.0
2026-04-07 17:45:42.464086,185165,1012805237,1012807507,0.774944,-0.386496,-0.115168,11.025,-15.79375,18.15625,-12.232,-9.120001,16.52,concentric,3,3.0,30102.0,389946.0,347929.0,403431.0,351097.0
2026-04-07 17:45:42.467966,185166,1012814250,1012816275,0.786656,-0.365024,-0.144448,12.38125,-14.93625,20.53625,-12.024,-8.392,16.480001,concentric,3,3.0,30102.0,389946.0,347929.0,403431.0,351097.0
2026-04-07 17:45:42.478124,185167,1012823192,1012824999,0.786656,-0.365024,-0.144448,8.16375,-13.9825,21.39375,-12.024,-8.392,16.480001,concentric,3,3.0,30102.0,389946.0,347929.0,403431.0,351097.0
2026-04-07 17:45:42.479845,185168,1012837716,1012839969,0.7808,-0.345504,-0.154208,5.8975,-12.46,21.84,-12.536,-8.632,16.656,concentric,3,3.0,30102.0,389946.0,347929.0,403431.0,351097.0
2026-04-07 17:45:42.481651,185169,1012846637,1012848749,0.7808,-0.345504,-0.154208,6.57125,-10.78,20.265,-12.536,-8.632,16.656,concentric,3,3.0,30102.0,389946.0,347929.0,403431.0,351097.0
2026-04-07 17:45:42.495621,185170,1012855566,1012857477,0.812032,-0.40992,-0.140544,5.215,-9.47625,17.08,-12.200001,-8.272,16.056002,concentric,3,3.0,30102.0,389946.0,347929.0,403431.0,351097.0
2026-04-07 17:45:42.497356,185171,1012870082,1012872372,0.7808,-0.38064,-0.16592,9.905,-8.2075,16.94,-12.776001,-8.400001,18.344002,concentric,3,3.0,30102.0,389946.0,347929.0,403431.0,351097.0
2026-04-07 17:45:42.498890,185172,1012879074,1012881127,0.7808,-0.38064,-0.16592,11.795,-8.6975,16.96625,-12.776001,-8.400001,18.344002,concentric,3,3.0,30102.0,389946.0,347929.0,403431.0,351097.0
2026-04-07 17:45:42.502923,185173,1012888057,1012889818,0.7808,-0.38064,-0.162016,9.66,-9.5375,16.73875,-12.776001,-8.400001,18.344002,concentric,3,3.0,30102.0,389946.0,347929.0,403431.0,351097.0
2026-04-07 17:45:42.542404,185183,1012902666,1012904990,0.753472,-0.386496,-0.162016,4.445,-9.93125,19.13625,-12.312,-8.120001,15.688001,concentric,3,3.0,31095.0,397676.0,354334.0,403431.0,356755.0
2026-04-07 17:45:42.543890,185184,1012911707,1012913748,0.784704,-0.415776,-0.167872,1.54875,-10.325,18.27,-12.080001,-7.976,16.208,concentric,3,3.0,31095.0,397676.0,354334.0,403431.0,356755.0
2026-04-07 17:45:42.548096,185185,1012920656,1012922548,0.784704,-0.415776,-0.167872,3.07125,-9.7475,15.5575,-12.080001,-7.976,16.208,concentric,3,3.0,31095.0,397676.0,354334.0,403431.0,356755.0
2026-04-07 17:45:42.549880,185186,1012935222,1012937464,0.786656,-0.363072,-0.158112,3.07125,-9.3625,11.795,-12.416,-8.160001,15.848001,concentric,3,3.0,31095.0,397676.0,354334.0,403431.0,356755.0
2026-04-07 17:45:42.551366,185187,1012944155,1012946193,0.786656,-0.363072,-0.158112,3.40375,-9.415,8.89875,-12.416,-8.160001,15.848001,concentric,3,3.0,31095.0,397676.0,354334.0,403431.0,356755.0
2026-04-07 17:45:42.555426,185188,1012953145,1012954895,0.757376,-0.421632,-0.177632,3.3075,-10.0625,8.77625,-12.000001,-7.248,15.784,concentric,3,3.0,31095.0,397676.0,354334.0,403431.0,356755.0
2026-04-07 17:45:42.567956,185189,1012962127,1012963659,0.757376,-0.421632,-0.177632,2.77375,-10.4475,9.3275,-12.000001,-7.248,15.784,concentric,3,3.0,31095.0,397676.0,354334.0,403431.0,356755.0
2026-04-07 17:45:42.612538,185190,1012976693,1012978589,0.769088,-0.45872,-0.173728,2.695,-11.3925,9.31,-12.096001,-7.584001,14.664001,concentric,3,3.0,31095.0,397676.0,354334.0,403431.0,356755.0
2026-04-07 17:45:42.616875,185191,1012985603,1012987288,0.769088,-0.45872,-0.173728,4.64625,-11.82125,9.61625,-12.096001,-7.584001,14.664001,concentric,3,3.0,31095.0,397676.0,354334.0,403431.0,356755.0
2026-04-07 17:45:42.618623,185192,1012994624,1012995991,0.774944,-0.437248,-0.17568,5.08375,-10.92,9.19625,-12.024,-6.984,14.736001,concentric,3,3.0,31095.0,397676.0,354334.0,403431.0,356755.0
2026-04-07 17:45:42.642820,185202,1013009258,1013010929,0.792512,-0.407968,-0.199104,8.365,-10.22875,9.511251,-12.256001,-6.8,13.832001,concentric,3,3.0,32033.0,402761.0,360288.0,403431.0,362903.0
2026-04-07 17:45:42.646862,185203,1013018235,1013019679,0.792512,-0.407968,-0.199104,6.36125,-10.045,9.28375,-12.256001,-6.8,13.832001,concentric,3,3.0,32033.0,402761.0,360288.0,403431.0,362903.0
2026-04-07 17:45:42.648557,185204,1013027466,1013028394,0.792512,-0.407968,-0.199104,2.42375,-10.15,4.47125,-12.256001,-6.8,13.832001,concentric,3,3.0,32033.0,402761.0,360288.0,403431.0,362903.0
2026-04-07 17:45:42.650169,185205,1013036417,1013037145,0.745664,-0.443104,-0.203008,2.54625,-8.51375,4.13,-12.408001,-6.832,14.448001,concentric,3,3.0,32033.0,402761.0,360288.0,403431.0,362903.0
2026-04-07 17:45:42.654165,185206,1013051516,1013052113,0.720288,-0.411872,-0.173728,0.51625,-8.82,2.8525,-12.000001,-6.904,14.024001,concentric,3,3.0,32033.0,402761.0,360288.0,403431.0,362903.0
2026-04-07 17:45:42.682804,185207,1013060780,1013062864,0.720288,-0.411872,-0.173728,-0.21875,-7.90125,9.54625,-12.000001,-6.904,14.024001,concentric,3,3.0,32033.0,402761.0,360288.0,403431.0,362903.0
2026-04-07 17:45:42.687258,185208,1013069713,1013071607,0.763232,-0.425536,-0.206912,-1.2775,-6.11625,3.5525,-12.496,-6.64,14.272,concentric,3,3.0,32033.0,402761.0,360288.0,403431.0,362903.0
2026-04-07 17:45:42.688770,185209,1013084299,1013086517,0.763232,-0.425536,-0.206912,4.03375,-6.99125,7.2275,-12.496,-6.64,14.272,concentric,3,3.0,32033.0,402761.0,360288.0,403431.0,362903.0
2026-04-07 17:45:42.693040,185210,1013093213,1013095200,0.782752,-0.427488,-0.1952,-3.6575,-5.11875,1.89,-11.864,-6.608,13.56,concentric,3,3.0,32033.0,402761.0,360288.0,403431.0,362903.0
2026-04-07 17:45:42.749417,185221,1013102238,1013103932,0.782752,-0.427488,-0.1952,0.5075,-4.87375,-2.4325,-11.864,-6.608,13.56,concentric,3,3.0,31527.0,400904.0,357132.0,403431.0,359089.0
2026-04-07 17:45:42.751148,185222,1013111335,1013112652,0.80032,-0.452864,-0.220576,-2.05625,-5.25,-3.50875,-12.784,-6.224001,13.728001,concentric,3,3.0,31527.0,400904.0,357132.0,403431.0,359089.0
2026-04-07 17:45:42.752589,185223,1013125814,1013127581,0.80032,-0.452864,-0.220576,-3.61375,-5.845,-9.292501,-12.784,-6.224001,13.728001,concentric,3,3.0,31527.0,400904.0,357132.0,403431.0,359089.0
2026-04-07 17:45:42.756831,185224,1013134866,1013136272,0.757376,-0.452864,-0.222528,0.20125,-6.29125,-8.42625,-12.312,-6.736001,13.488001,concentric,3,3.0,31527.0,400904.0,357132.0,403431.0,359089.0
2026-04-07 17:45:42.758571,185225,1013143909,1013145085,0.757376,-0.452864,-0.222528,2.10875,-7.805,-10.57,-12.312,-6.736001,13.488001,concentric,3,3.0,31527.0,400904.0,357132.0,403431.0,359089.0
2026-04-07 17:45:42.760149,185226,1013158597,1013160051,0.802272,-0.460672,-0.18544,-2.54625,-7.81375,-11.75125,-12.728001,-7.192,14.768001,concentric,3,3.0,31527.0,400904.0,357132.0,403431.0,359089.0
2026-04-07 17:45:42.766748,185227,1013167548,1013168781,0.802272,-0.460672,-0.18544,-2.59,-5.4075,-9.975,-12.728001,-7.192,14.768001,concentric,3,3.0,31527.0,400904.0,357132.0,403431.0,359089.0
2026-04-07 17:45:42.795228,185228,1013176527,1013177548,0.81008,-0.472384,-0.210816,2.205,-3.3425,-9.485,-13.128,-6.872,14.816001,concentric,3,3.0,31527.0,400904.0,357132.0,403431.0,359089.0
2026-04-07 17:45:42.799845,185229,1013185438,1013186288,0.81008,-0.472384,-0.210816,5.6525,-2.23125,-9.23125,-13.128,-6.872,14.816001,concentric,3,3.0,31527.0,400904.0,357132.0,403431.0,359089.0
2026-04-07 17:45:42.801283,185230,1013199940,1013201180,0.786656,-0.417728,-0.179584,7.4025,-1.18125,-8.02375,-12.928,-7.096,13.336,concentric,3,3.0,31527.0,400904.0,357132.0,403431.0,359089.0
2026-04-07 17:45:42.826606,185240,1013208963,1013209985,0.786656,-0.417728,-0.179584,8.417501,-0.51625,-7.27125,-12.928,-7.096,13.336,concentric,3,3.0,32035.0,402542.0,359745.0,403431.0,361918.0
2026-04-07 17:45:42.830845,185241,1013217890,1013218773,0.776896,-0.44896,-0.197152,7.4375,-0.04375,-7.1575,-12.672001,-6.776001,13.088,concentric,3,3.0,32035.0,402542.0,359745.0,403431.0,361918.0
2026-04-07 17:45:42.833075,185242,1013232442,1013233646,0.782752,-0.462624,-0.199104,3.00125,0.44625,-6.8775,-12.664001,-6.384,12.656,concentric,3,3.0,32035.0,402542.0,359745.0,403431.0,361918.0
2026-04-07 17:45:42.839231,185243,1013241476,1013242369,0.782752,-0.462624,-0.199104,2.44125,2.26625,-6.9125,-12.664001,-6.384,12.656,concentric,3,3.0,32035.0,402542.0,359745.0,403431.0,361918.0
2026-04-07 17:45:42.867865,185244,1013250430,1013251078,0.80032,-0.41968,-0.181536,2.47625,4.01625,-8.0675,-13.264001,-5.952,12.992001,concentric,3,3.0,32035.0,402542.0,359745.0,403431.0,361918.0
2026-04-07 17:45:42.872361,185245,1013265279,1013265992,0.80032,-0.41968,-0.181536,1.715,5.565,-8.785,-13.264001,-5.952,12.992001,concentric,3,3.0,32035.0,402542.0,359745.0,403431.0,361918.0
2026-04-07 17:45:42.879226,185246,1013274591,1013276793,0.765184,-0.435296,-0.210816,2.12625,6.43125,-7.83125,-13.008,-6.656,13.104001,concentric,3,3.0,32035.0,402542.0,359745.0,403431.0,361918.0
2026-04-07 17:45:42.883275,185247,1013283558,1013285508,0.765184,-0.435296,-0.210816,2.68625,5.5475,-8.25125,-13.008,-6.656,13.104001,concentric,3,3.0,32035.0,402542.0,359745.0,403431.0,361918.0
2026-04-07 17:45:42.916248,185248,1013292512,1013294221,0.757376,-0.40992,-0.201056,0.2275,5.08375,-9.14375,-13.224001,-6.944,14.536,concentric,3,3.0,32035.0,402542.0,359745.0,403431.0,361918.0
2026-04-07 17:45:42.946110,185258,1013307571,1013309260,0.757376,-0.40992,-0.201056,-0.98,5.24125,-8.79375,-13.224001,-6.944,14.536,concentric,3,3.0,31641.0,401060.0,357250.0,403431.0,359080.0
2026-04-07 17:45:42.947618,185259,1013316547,1013317985,0.798368,-0.44896,-0.199104,-2.0125,5.32875,-9.56375,-13.136001,-6.224001,12.880001,concentric,3,3.0,31641.0,401060.0,357250.0,403431.0,359080.0
2026-04-07 17:45:42.951851,185260,1013325459,1013326665,0.798368,-0.44896,-0.199104,-4.7775,5.97625,-10.15,-13.136001,-6.224001,12.880001,concentric,3,3.0,31641.0,401060.0,357250.0,403431.0,359080.0
2026-04-07 17:45:42.953604,185261,1013340116,1013341570,0.788608,-0.44896,-0.218624,-3.92875,7.14,-9.975,-13.264001,-7.2,13.152,concentric,3,3.0,31641.0,401060.0,357250.0,403431.0,359080.0
2026-04-07 17:45:42.955999,185262,1013349086,1013350313,0.788608,-0.44896,-0.218624,-1.72375,8.0675,-10.5525,-13.264001,-7.2,13.152,concentric,3,3.0,31641.0,401060.0,357250.0,403431.0,359080.0
2026-04-07 17:45:42.957668,185263,1013357977,1013359063,0.812032,-0.431392,-0.199104,0.23625,7.58625,-10.70125,-14.464001,-7.368001,14.592001,concentric,3,3.0,31641.0,401060.0,357250.0,403431.0,359080.0
2026-04-07 17:45:42.965517,185264,1013366928,1013367764,0.812032,-0.431392,-0.199104,2.63375,6.895,-11.4625,-14.464001,-7.368001,14.592001,concentric,3,3.0,31641.0,401060.0,357250.0,403431.0,359080.0
2026-04-07 17:45:42.994049,185265,1013381415,1013382669,0.794464,-0.445056,-0.201056,6.09,6.57125,-11.62875,-13.392,-6.488,13.280001,concentric,3,3.0,31641.0,401060.0,357250.0,403431.0,359080.0
2026-04-07 17:45:42.998676,185266,1013390324,1013391392,0.81008,-0.435296,-0.212768,9.66875,5.24125,-11.40125,-13.392,-4.44,13.240001,concentric,3,3.0,31641.0,401060.0,357250.0,403431.0,359080.0
2026-04-07 17:45:43.005420,185267,1013399219,1013400138,0.81008,-0.435296,-0.212768,9.59875,4.03375,-11.655,-13.264001,-6.096,13.240001,concentric,3,3.0,31641.0,401060.0,357250.0,403431.0,359080.0
2026-04-07 17:45:43.031441,185278,1013414165,1013415103,0.802272,-0.445056,-0.244,6.39625,3.5875,-12.1625,-13.944,-7.008,13.040001,concentric,3,3.0,31271.0,399026.0,355342.0,403431.0,357062.0
2026-04-07 17:45:43.038107,185279,1013423137,1013423856,0.802272,-0.445056,-0.244,4.2,3.5525,-12.2325,-13.944,-7.008,13.040001,concentric,3,3.0,31271.0,399026.0,355342.0,403431.0,357062.0
2026-04-07 17:45:43.039792,185280,1013432468,1013434638,0.825696,-0.447008,-0.203008,3.00125,3.2025,-13.8075,-13.920001,-6.816001,14.288001,concentric,3,3.0,31271.0,399026.0,355342.0,403431.0,357062.0
2026-04-07 17:45:43.041349,185281,1013441430,1013443364,0.825696,-0.447008,-0.203008,1.63625,4.06875,-14.84,-13.920001,-6.816001,14.288001,concentric,3,3.0,31271.0,399026.0,355342.0,403431.0,357062.0
2026-04-07 17:45:43.072437,185282,1013455962,1013458259,0.812032,-0.462624,-0.17568,4.50625,4.865,-15.3125,-14.016001,-7.32,14.376,concentric,3,3.0,31271.0,399026.0,355342.0,403431.0,357062.0
2026-04-07 17:45:43.080645,185283,1013464865,1013466954,0.812032,-0.462624,-0.17568,8.0675,4.9,-14.72625,-14.016001,-7.32,14.376,concentric,3,3.0,31271.0,399026.0,355342.0,403431.0,357062.0
2026-04-07 17:45:43.082449,185284,1013473778,1013475629,0.776896,-0.423584,-0.201056,11.73375,4.515,-14.74375,-13.960001,-7.168,13.464001,concentric,3,3.0,31271.0,399026.0,355342.0,403431.0,357062.0
2026-04-07 17:45:43.087952,185285,1013488320,1013490566,0.776896,-0.423584,-0.201056,11.9,4.41875,-16.24875,-13.960001,-7.168,13.464001,concentric,3,3.0,31271.0,399026.0,355342.0,403431.0,357062.0
2026-04-07 17:45:43.116564,185286,1013497254,1013499331,0.788608,-0.374784,-0.199104,10.3075,3.955,-18.5675,-14.576001,-7.368001,14.088,concentric,3,3.0,31271.0,399026.0,355342.0,403431.0,357062.0
2026-04-07 17:45:43.148227,185296,1013506717,1013508321,0.788608,-0.374784,-0.199104,6.46625,4.26125,-21.51625,-14.576001,-7.368001,14.088,concentric,3,3.0,30881.0,396251.0,353065.0,403431.0,354747.0
2026-04-07 17:45:43.149844,185297,1013515720,1013517149,0.753472,-0.42944,-0.18544,6.3875,4.2175,-23.0475,-14.016001,-7.168,13.096001,concentric,3,3.0,30881.0,396251.0,353065.0,403431.0,354747.0
2026-04-07 17:45:43.151413,185298,1013530222,1013532070,0.753472,-0.42944,-0.18544,7.76125,5.55625,-24.33375,-14.016001,-7.168,13.096001,concentric,3,3.0,30881.0,396251.0,353065.0,403431.0,354747.0
2026-04-07 17:45:43.155611,185299,1013539183,1013540810,0.71248,-0.4392,-0.187392,8.4,6.51,-24.8325,-14.040001,-6.936,13.992001,concentric,3,3.0,30881.0,396251.0,353065.0,403431.0,354747.0
2026-04-07 17:45:43.157124,185300,1013548128,1013549510,0.71248,-0.4392,-0.187392,8.47875,6.65,-24.45625,-14.040001,-6.936,13.992001,concentric,3,3.0,30881.0,396251.0,353065.0,403431.0,354747.0
2026-04-07 17:45:43.163026,185301,1013562637,1013564423,0.720288,-0.431392,-0.154208,9.8875,6.43125,-23.397501,-15.056001,-7.584001,14.624001,concentric,3,3.0,30881.0,396251.0,353065.0,403431.0,354747.0
2026-04-07 17:45:43.213680,185302,1013571615,1013573124,0.75152,-0.388448,-0.181536,12.73125,6.3525,-22.44375,-14.936001,-8.008,16.632,concentric,3,3.0,30881.0,396251.0,353065.0,403431.0,354747.0
2026-04-07 17:45:43.215938,185303,1013580529,1013581795,0.75152,-0.388448,-0.181536,12.4425,6.055,-22.32125,-14.936001,-8.008,16.632,concentric,3,3.0,30881.0,396251.0,353065.0,403431.0,354747.0
2026-04-07 17:45:43.224544,185304,1013594984,1013596721,0.80032,-0.359168,-0.187392,10.745,5.87125,-22.61,-14.976001,-7.648,13.304001,concentric,3,3.0,30881.0,396251.0,353065.0,403431.0,354747.0
2026-04-07 17:45:43.226250,185305,1013603904,1013605403,0.80032,-0.359168,-0.187392,4.83875,6.25625,-23.51125,-14.976001,-7.648,13.304001,concentric,3,3.0,30881.0,396251.0,353065.0,403431.0,354747.0
2026-04-07 17:45:43.252609,185315,1013612933,1013614217,0.817888,-0.415776,-0.197152,0.46375,7.8575,-24.1675,-15.096001,-8.128,13.392,concentric,3,3.0,30381.0,392538.0,349938.0,403431.0,351699.0
2026-04-07 17:45:43.257094,185316,1013627429,1013629138,0.817888,-0.415776,-0.197152,0.4725,9.42375,-24.91125,-15.096001,-8.128,13.392,concentric,3,3.0,30381.0,392538.0,349938.0,403431.0,351699.0
2026-04-07 17:45:43.263136,185317,1013636367,1013637864,0.843264,-0.396256,-0.212768,-0.09625,10.0975,-24.815,-15.6,-8.152,13.408001,concentric,3,3.0,30381.0,392538.0,349938.0,403431.0,351699.0
2026-04-07 17:45:43.264839,185318,1013645434,1013646588,0.843264,-0.396256,-0.212768,1.88125,10.6575,-25.1125,-15.6,-8.152,13.408001,concentric,3,3.0,30381.0,392538.0,349938.0,403431.0,351699.0
2026-04-07 17:45:43.266390,185319,1013654378,1013655304,0.895968,-0.37088,-0.236192,2.415,10.6925,-25.31375,-15.200001,-8.328,13.592001,concentric,3,3.0,30381.0,392538.0,349938.0,403431.0,351699.0
2026-04-07 17:45:43.270487,185320,1013668888,1013670243,0.895968,-0.37088,-0.236192,-0.04375,11.03375,-25.01625,-15.200001,-8.328,13.592001,concentric,3,3.0,30381.0,392538.0,349938.0,403431.0,351699.0
2026-04-07 17:45:43.275536,185321,1013677813,1013678894,0.923296,-0.388448,-0.25376,-3.63125,10.6575,-24.955,-15.624001,-8.336,14.712001,concentric,3,3.0,30381.0,392538.0,349938.0,403431.0,351699.0
2026-04-07 17:45:43.304140,185322,1013686731,1013687606,0.923296,-0.388448,-0.25376,-5.635,10.24625,-24.9725,-15.624001,-8.336,14.712001,eccentric,3,3.0,30381.0,392538.0,349938.0,403431.0,351699.0
2026-04-07 17:45:43.308857,185323,1013701210,1013702486,0.954528,-0.406016,-0.218624,-6.79,9.9575,-24.29875,-15.200001,-8.56,13.68,eccentric,3,3.0,30381.0,392538.0,349938.0,403431.0,351699.0
2026-04-07 17:45:43.333570,185333,1013710456,1013711599,0.954528,-0.406016,-0.218624,-6.09875,10.3075,-23.345,-15.200001,-8.56,13.68,eccentric,3,3.0,30331.0,392157.0,349730.0,403431.0,351640.0
2026-04-07 17:45:43.335134,185334,1013719612,1013720327,0.962336,-0.388448,-0.238144,-5.495,10.28125,-21.1925,-14.840001,-8.672001,12.496,eccentric,3,3.0,30331.0,392157.0,349730.0,403431.0,351640.0
2026-04-07 17:45:43.337640,185335,1013729041,1013731172,0.962336,-0.388448,-0.238144,-4.64625,9.4675,-18.9,-14.840001,-8.672001,12.496,eccentric,3,3.0,30331.0,392157.0,349730.0,403431.0,351640.0
2026-04-07 17:45:43.341692,185336,1013743568,1013744035,0.93696,-0.388448,-0.238144,-3.3425,9.56375,-16.7125,-15.312,-9.04,15.016001,eccentric,3,3.0,30331.0,392157.0,349730.0,403431.0,351640.0
2026-04-07 17:45:43.370251,185337,1013753028,1013754805,0.942816,-0.378688,-0.236192,-2.12625,9.2575,-14.7875,-15.808001,-9.328,17.352001,eccentric,3,3.0,30331.0,392157.0,349730.0,403431.0,351640.0
2026-04-07 17:45:43.374727,185338,1013761908,1013763505,0.942816,-0.378688,-0.236192,-1.72375,8.79375,-13.34375,-15.808001,-9.328,17.352001,eccentric,3,3.0,30331.0,392157.0,349730.0,403431.0,351640.0
2026-04-07 17:45:43.376235,185339,1013776426,1013778373,0.93696,-0.337696,-0.242048,-3.77125,8.89875,-12.1625,-15.496,-8.848001,13.64,eccentric,3,3.0,30331.0,392157.0,349730.0,403431.0,351640.0
2026-04-07 17:45:43.384719,185340,1013785382,1013787125,0.93696,-0.337696,-0.242048,-4.38375,9.30125,-10.42125,-15.496,-8.848001,13.64,eccentric,3,3.0,30331.0,392157.0,349730.0,403431.0,351640.0
2026-04-07 17:45:43.393105,185341,1013794327,1013795842,0.915488,-0.355264,-0.232288,-6.7725,9.6425,-9.38,-16.240002,-9.568001,15.400001,eccentric,3,3.0,30331.0,392157.0,349730.0,403431.0,351640.0
2026-04-07 17:45:43.458897,185352,1013809338,1013810768,0.915488,-0.355264,-0.232288,-8.51375,9.03,-9.17,-16.240002,-9.568001,15.400001,eccentric,3,3.0,30209.0,391276.0,348949.0,403431.0,350766.0
2026-04-07 17:45:43.463061,185353,1013818289,1013819475,0.88816,-0.355264,-0.242048,-8.37375,8.91625,-8.77625,-15.376,-8.824,13.72,eccentric,3,3.0,30209.0,391276.0,348949.0,403431.0,350766.0
2026-04-07 17:45:43.464962,185354,1013827205,1013828186,0.88816,-0.355264,-0.242048,-8.0675,8.1375,-9.511251,-15.376,-8.824,13.72,eccentric,3,3.0,30209.0,391276.0,348949.0,403431.0,350766.0
2026-04-07 17:45:43.466402,185355,1013836192,1013836911,0.860832,-0.353312,-0.220576,-6.97375,6.86,-8.82875,-15.696001,-9.104,15.048,eccentric,3,3.0,30209.0,391276.0,348949.0,403431.0,350766.0
2026-04-07 17:45:43.470588,185356,1013851085,1013851822,0.860832,-0.353312,-0.220576,-4.68125,6.8425,-8.30375,-15.696001,-9.104,15.048,eccentric,3,3.0,30209.0,391276.0,348949.0,403431.0,350766.0
2026-04-07 17:45:43.472308,185357,1013860459,1013862620,0.841312,-0.316224,-0.212768,-4.27,6.58875,-8.2775,-15.288001,-9.0,14.032001,eccentric,3,3.0,30209.0,391276.0,348949.0,403431.0,350766.0
2026-04-07 17:45:43.473903,185358,1013869398,1013871315,0.841312,-0.316224,-0.212768,-4.52375,7.175,-7.7875,-15.288001,-9.0,14.032001,eccentric,3,3.0,30209.0,391276.0,348949.0,403431.0,350766.0
2026-04-07 17:45:43.477969,185359,1013878336,1013880113,0.835456,-0.314272,-0.183488,-5.915,6.8075,-7.60375,-15.312,-9.200001,14.112,eccentric,3,3.0,30209.0,391276.0,348949.0,403431.0,350766.0
2026-04-07 17:45:43.514985,185360,1013892966,1013895025,0.817888,-0.306464,-0.18544,-5.6,7.14,-7.4025,-15.544001,-9.232,13.816001,eccentric,3,3.0,30209.0,391276.0,348949.0,403431.0,350766.0
2026-04-07 17:45:43.517244,185361,1013901865,1013903716,0.817888,-0.306464,-0.18544,-6.11625,6.7725,-7.6825,-15.544001,-9.232,13.816001,eccentric,3,3.0,30209.0,391276.0,348949.0,403431.0,350766.0
2026-04-07 17:45:43.546406,185371,1013911450,1013912580,0.817888,-0.306464,-0.18544,-5.32,6.65,-7.60375,-15.544001,-9.232,13.816001,eccentric,3,3.0,29703.0,387355.0,345714.0,403098.0,347633.0
2026-04-07 17:45:43.550626,185372,1013920482,1013921355,0.81984,-0.337696,-0.199104,-4.5675,5.8625,-7.72625,-15.912001,-9.696,16.296001,eccentric,3,3.0,29703.0,387355.0,345714.0,403098.0,347633.0
2026-04-07 17:45:43.552285,185373,1013935170,1013936323,0.827648,-0.294752,-0.197152,-2.56375,6.125,-7.84,-16.392,-10.168,16.856,eccentric,3,3.0,29703.0,387355.0,345714.0,403098.0,347633.0
2026-04-07 17:45:43.553824,185374,1013944118,1013945041,0.827648,-0.294752,-0.197152,-1.085,6.02875,-7.06125,-16.392,-10.168,16.856,eccentric,3,3.0,29703.0,387355.0,345714.0,403098.0,347633.0
2026-04-07 17:45:43.557949,185375,1013953110,1013953752,0.847168,-0.30256,-0.173728,-0.665,5.8975,-7.00875,-15.280001,-9.192,14.536,eccentric,3,3.0,29703.0,387355.0,345714.0,403098.0,347633.0
2026-04-07 17:45:43.609994,185376,1013967979,1013968656,0.847168,-0.30256,-0.173728,-1.645,6.04625,-6.85125,-15.280001,-9.192,14.536,eccentric,3,3.0,29703.0,387355.0,345714.0,403098.0,347633.0
2026-04-07 17:45:43.612558,185377,1013977336,1013979409,0.854976,-0.333792,-0.181536,-1.93375,6.09,-7.105,-15.352001,-8.696,14.336,eccentric,3,3.0,29703.0,387355.0,345714.0,403098.0,347633.0
2026-04-07 17:45:43.619365,185378,1013986345,1013988130,0.854976,-0.333792,-0.181536,-1.04125,6.44,-7.035,-15.352001,-8.696,14.336,eccentric,3,3.0,29703.0,387355.0,345714.0,403098.0,347633.0
2026-04-07 17:45:43.621080,185379,1013995271,1013996822,0.86864,-0.343552,-0.193248,-0.02625,6.08125,-6.13375,-15.760001,-9.592,14.608001,eccentric,3,3.0,29703.0,387355.0,345714.0,403098.0,347633.0
2026-04-07 17:45:43.645134,185389,1014009826,1014011789,0.86864,-0.343552,-0.193248,0.79625,5.59125,-4.9,-15.760001,-9.592,14.608001,eccentric,3,3.0,29747.0,387666.0,345940.0,403260.0,347910.0
2026-04-07 17:45:43.650360,185390,1014018951,1014020487,0.876448,-0.35136,-0.193248,0.49875,4.90875,-3.3425,-15.512001,-9.424001,14.608001,eccentric,3,3.0,29747.0,387666.0,345940.0,403260.0,347910.0
2026-04-07 17:45:43.651095,185391,1014027928,1014029202,0.876448,-0.35136,-0.193248,0.1925,5.4775,-2.14375,-15.512001,-9.424001,14.608001,eccentric,3,3.0,29747.0,387666.0,345940.0,403260.0,347910.0
2026-04-07 17:45:43.652918,185392,1014042621,1014044180,0.876448,-0.333792,-0.191296,1.0325,5.285,-0.65625,-16.112001,-9.56,16.024,eccentric,3,3.0,29747.0,387666.0,345940.0,403260.0,347910.0
2026-04-07 17:45:43.664462,185393,1014051578,1014052905,0.876448,-0.333792,-0.191296,2.49375,5.1975,-0.84,-16.112001,-9.56,16.024,eccentric,3,3.0,29747.0,387666.0,345940.0,403260.0,347910.0
2026-04-07 17:45:43.666043,185394,1014060593,1014061626,0.882304,-0.3416,-0.187392,2.24875,5.73125,-0.455,-15.544001,-9.344001,15.968,eccentric,3,3.0,29747.0,387666.0,345940.0,403260.0,347910.0
2026-04-07 17:45:43.696227,185395,1014075121,1014076533,0.872544,-0.363072,-0.193248,1.98625,5.6875,-0.13125,-15.976001,-9.152,17.088001,eccentric,3,3.0,29747.0,387666.0,345940.0,403260.0,347910.0
2026-04-07 17:45:43.698510,185396,1014084046,1014085236,0.872544,-0.363072,-0.193248,1.9425,5.46875,0.81375,-15.976001,-9.152,17.088001,eccentric,3,3.0,29747.0,387666.0,345940.0,403260.0,347910.0
2026-04-07 17:45:43.707029,185397,1014092995,1014093923,0.872544,-0.363072,-0.189344,2.05625,4.8825,1.68,-15.976001,-9.152,17.088001,eccentric,3,3.0,29747.0,387666.0,345940.0,403260.0,347910.0
2026-04-07 17:45:43.709802,185398,1014101923,1014102652,0.880352,-0.365024,-0.189344,2.44125,4.34,2.065,-15.328001,-9.112,14.312,eccentric,3,3.0,29747.0,387666.0,345940.0,403260.0,347910.0
2026-04-07 17:45:43.736820,185409,1014116975,1014117856,0.862784,-0.368928,-0.201056,2.835,4.0075,3.395,-15.472001,-9.168,14.648001,eccentric,3,3.0,30097.0,390334.0,348114.0,403431.0,350003.0
2026-04-07 17:45:43.738587,185410,1014125934,1014126627,0.862784,-0.368928,-0.201056,2.38,3.5175,3.75375,-15.472001,-9.168,14.648001,eccentric,3,3.0,30097.0,390334.0,348114.0,403431.0,350003.0
2026-04-07 17:45:43.740095,185411,1014135429,1014137412,0.85888,-0.363072,-0.203008,2.79125,3.115,2.94,-15.6,-9.200001,13.984,eccentric,3,3.0,30097.0,390334.0,348114.0,403431.0,350003.0
2026-04-07 17:45:43.744248,185412,1014144406,1014146148,0.85888,-0.363072,-0.203008,4.33125,2.1175,3.80625,-15.6,-9.200001,13.984,eccentric,3,3.0,30097.0,390334.0,348114.0,403431.0,350003.0
2026-04-07 17:45:43.773205,185413,1014158897,1014161079,0.860832,-0.365024,-0.20496,5.4075,1.435,3.73625,-15.296001,-9.072001,14.72,eccentric,3,3.0,30097.0,390334.0,348114.0,403431.0,350003.0
2026-04-07 17:45:43.777304,185414,1014167823,1014169790,0.860832,-0.365024,-0.20496,4.40125,1.07625,3.7625,-15.296001,-9.072001,14.72,eccentric,3,3.0,30097.0,390334.0,348114.0,403431.0,350003.0
2026-04-07 17:45:43.778803,185415,1014176721,1014178506,0.860832,-0.378688,-0.20496,3.43,0.9275,4.3225,-15.384001,-8.6,14.344001,eccentric,3,3.0,30097.0,390334.0,348114.0,403431.0,350003.0
2026-04-07 17:45:43.819946,185416,1014191262,1014193414,0.860832,-0.378688,-0.20496,4.43625,0.3675,4.33125,-15.384001,-8.6,14.344001,eccentric,3,3.0,30097.0,390334.0,348114.0,403431.0,350003.0
2026-04-07 17:45:43.827996,185417,1014200183,1014202118,0.84912,-0.376736,-0.18544,5.17125,-0.35,4.4625,-14.808001,-8.784,14.664001,eccentric,3,3.0,30097.0,390334.0,348114.0,403431.0,350003.0
2026-04-07 17:45:43.852984,185427,1014209084,1014210868,0.84912,-0.376736,-0.18544,5.66125,-0.81375,5.005,-14.808001,-8.784,14.664001,eccentric,3,3.0,29722.0,387447.0,345756.0,403143.0,347738.0
2026-04-07 17:45:43.853726,185428,1014224079,1014225809,0.84912,-0.36112,-0.201056,6.72875,-1.00625,5.005,-15.576001,-9.112,14.648001,eccentric,3,3.0,29722.0,387447.0,345756.0,403143.0,347738.0
2026-04-07 17:45:43.858181,185429,1014233084,1014234503,0.84912,-0.36112,-0.201056,6.34375,-1.47,4.01625,-15.576001,-9.112,14.648001,eccentric,3,3.0,29722.0,387447.0,345756.0,403143.0,347738.0
2026-04-07 17:45:43.859840,185430,1014242019,1014243284,0.83936,-0.357216,-0.197152,4.89125,-2.0125,3.31625,-15.712001,-8.736,16.168001,eccentric,3,3.0,29722.0,387447.0,345756.0,403143.0,347738.0
2026-04-07 17:45:43.861489,185431,1014251069,1014251988,0.83936,-0.357216,-0.197152,4.75125,-2.40625,2.45,-15.712001,-8.736,16.168001,eccentric,3,3.0,29722.0,387447.0,345756.0,403143.0,347738.0
2026-04-07 17:45:43.865603,185432,1014265558,1014266999,0.847168,-0.368928,-0.173728,5.215,-2.33625,1.68,-15.232,-8.224,15.664001,eccentric,3,3.0,29722.0,387447.0,345756.0,403143.0,347738.0
2026-04-07 17:45:43.894041,185433,1014274524,1014275711,0.841312,-0.363072,-0.18544,6.36125,-2.58125,1.86375,-14.424001,-8.488001,15.456,eccentric,3,3.0,29722.0,387447.0,345756.0,403143.0,347738.0
2026-04-07 17:45:43.898632,185434,1014283448,1014284405,0.841312,-0.363072,-0.18544,5.495,-3.70125,1.19,-14.424001,-8.488001,15.456,eccentric,3,3.0,29722.0,387447.0,345756.0,403143.0,347738.0
2026-04-07 17:45:43.900038,185435,1014297934,1014299268,0.83936,-0.368928,-0.169824,4.55,-3.77125,0.3675,-14.68,-8.400001,14.504001,eccentric,3,3.0,29722.0,387447.0,345756.0,403143.0,347738.0
2026-04-07 17:45:43.905646,185436,1014306848,1014307969,0.83936,-0.368928,-0.169824,4.33125,-4.48875,0.65625,-14.68,-8.400001,14.504001,eccentric,3,3.0,29722.0,387447.0,345756.0,403143.0,347738.0
2026-04-07 17:45:43.929873,185446,1014315894,1014316949,0.831552,-0.372832,-0.17568,5.01375,-4.585,0.39375,-14.792001,-8.544001,15.512001,eccentric,3,3.0,29452.0,385562.0,344275.0,402377.0,346386.0
2026-04-07 17:45:43.931837,185447,1014330485,1014331902,0.831552,-0.372832,-0.17568,5.7575,-4.59375,0.02625,-14.792001,-8.544001,15.512001,eccentric,3,3.0,29452.0,385562.0,344275.0,402377.0,346386.0
2026-04-07 17:45:43.939205,185448,1014339407,1014340667,0.817888,-0.359168,-0.177632,5.67,-4.73375,0.2625,-14.808001,-8.68,15.848001,eccentric,3,3.0,29452.0,385562.0,344275.0,402377.0,346386.0
2026-04-07 17:45:43.967832,185449,1014348320,1014349400,0.817888,-0.359168,-0.177632,4.78625,-4.78625,0.58625,-14.808001,-8.68,15.848001,eccentric,3,3.0,29452.0,385562.0,344275.0,402377.0,346386.0
2026-04-07 17:45:43.972257,185450,1014357227,1014358084,0.815936,-0.36112,-0.171776,2.33625,-4.31375,-0.5075,-14.184001,-8.296001,14.312,eccentric,3,3.0,29452.0,385562.0,344275.0,402377.0,346386.0
2026-04-07 17:45:43.973916,185451,1014371694,1014372967,0.815936,-0.36112,-0.171776,1.155,-3.77125,-0.49875,-14.184001,-8.296001,14.312,eccentric,3,3.0,29452.0,385562.0,344275.0,402377.0,346386.0
2026-04-07 17:45:43.977942,185452,1014380677,1014381677,0.813984,-0.382592,-0.177632,1.49625,-3.2025,-0.20125,-14.096001,-8.224,14.312,eccentric,3,3.0,29452.0,385562.0,344275.0,402377.0,346386.0
2026-04-07 17:45:44.006419,185453,1014389610,1014390389,0.813984,-0.382592,-0.177632,2.8,-2.835,-0.175,-14.096001,-8.224,14.312,eccentric,3,3.0,29452.0,385562.0,344275.0,402377.0,346386.0
2026-04-07 17:45:44.012041,185454,1014404086,1014405288,0.812032,-0.37088,-0.177632,3.36875,-1.63625,0.37625,-13.192,-7.68,14.160001,eccentric,3,3.0,29452.0,385562.0,344275.0,402377.0,346386.0
2026-04-07 17:45:44.039348,185465,1014413130,1014414026,0.812032,-0.37088,-0.177632,3.24625,-1.28625,0.0175,-13.192,-7.68,14.160001,eccentric,3,3.0,29579.0,386591.0,345154.0,402867.0,347322.0
2026-04-07 17:45:44.041070,185466,1014422160,1014422786,0.80032,-0.363072,-0.16592,3.71875,-0.63875,-0.77875,-13.768001,-8.112,13.784,eccentric,3,3.0,29579.0,386591.0,345154.0,402867.0,347322.0
2026-04-07 17:45:44.042721,185467,1014437006,1014437770,0.786656,-0.355264,-0.162016,4.795,-0.41125,-0.23625,-13.872001,-8.384001,16.6,eccentric,3,3.0,29579.0,386591.0,345154.0,402867.0,347322.0
2026-04-07 17:45:44.046714,185468,1014446378,1014448572,0.786656,-0.355264,-0.162016,2.7825,0.06125,-0.65625,-13.872001,-8.384001,16.6,eccentric,3,3.0,29579.0,386591.0,345154.0,402867.0,347322.0
2026-04-07 17:45:44.075257,185469,1014455342,1014457305,0.786656,-0.374784,-0.18544,1.1725,0.95375,-0.72625,-13.6,-7.64,17.456001,eccentric,3,3.0,29579.0,386591.0,345154.0,402867.0,347322.0
2026-04-07 17:45:44.079793,185470,1014464349,1014466023,0.786656,-0.374784,-0.18544,1.295,1.47875,0.5425,-13.6,-7.64,17.456001,eccentric,3,3.0,29579.0,386591.0,345154.0,402867.0,347322.0
2026-04-07 17:45:44.118387,185471,1014478820,1014480895,0.792512,-0.355264,-0.197152,1.2075,2.24,0.1575,-13.472001,-7.944,14.368001,eccentric,3,3.0,29579.0,386591.0,345154.0,402867.0,347322.0
2026-04-07 17:45:44.122284,185472,1014487710,1014489572,0.792512,-0.355264,-0.197152,1.82,3.0275,-0.3325,-13.472001,-7.944,14.368001,eccentric,3,3.0,29579.0,386591.0,345154.0,402867.0,347322.0
2026-04-07 17:45:44.123829,185473,1014496726,1014498255,0.798368,-0.345504,-0.193248,1.12,3.29,-1.61,-13.064001,-8.184,13.904,eccentric,3,3.0,29579.0,386591.0,345154.0,402867.0,347322.0
2026-04-07 17:45:44.148873,185483,1014511552,1014513197,0.798368,-0.345504,-0.193248,1.09375,3.47375,-3.5175,-13.064001,-8.184,13.904,eccentric,3,3.0,29393.0,385275.0,344175.0,402383.0,346397.0
2026-04-07 17:45:44.153058,185484,1014520572,1014521898,0.794464,-0.386496,-0.187392,1.26875,3.9025,-4.0425,-12.920001,-8.272,14.496,eccentric,3,3.0,29393.0,385275.0,344175.0,402383.0,346397.0
2026-04-07 17:45:44.154780,185485,1014529451,1014530548,0.794464,-0.386496,-0.187392,3.17625,4.03375,-3.2375,-12.920001,-8.272,14.496,eccentric,3,3.0,29393.0,385275.0,344175.0,402383.0,346397.0
2026-04-07 17:45:44.156329,185486,1014538370,1014539270,0.792512,-0.359168,-0.193248,2.87,3.99875,-3.43875,-13.248001,-8.088,14.248001,eccentric,3,3.0,29393.0,385275.0,344175.0,402383.0,346397.0
2026-04-07 17:45:44.159797,185487,1014552969,1014554184,0.792512,-0.359168,-0.193248,3.7275,3.63125,-4.48875,-13.248001,-8.088,14.248001,eccentric,3,3.0,29393.0,385275.0,344175.0,402383.0,346397.0
2026-04-07 17:45:44.161333,185488,1014561855,1014562961,0.778848,-0.339648,-0.212768,5.425,3.19375,-5.8975,-12.440001,-7.224001,14.064001,eccentric,3,3.0,29393.0,385275.0,344175.0,402383.0,346397.0
2026-04-07 17:45:44.192503,185489,1014570791,1014571691,0.778848,-0.339648,-0.212768,5.06625,2.485,-8.77625,-12.440001,-7.224001,14.064001,eccentric,3,3.0,29393.0,385275.0,344175.0,402383.0,346397.0
2026-04-07 17:45:44.196875,185490,1014585315,1014586686,0.788608,-0.359168,-0.17568,3.78,0.90125,-9.96625,-12.480001,-8.136001,14.52,eccentric,3,3.0,29393.0,385275.0,344175.0,402383.0,346397.0
2026-04-07 17:45:44.198557,185491,1014594242,1014595371,0.788608,-0.359168,-0.17568,4.27,0.6475,-8.8725,-12.480001,-8.136001,14.52,eccentric,3,3.0,29393.0,385275.0,344175.0,402383.0,346397.0
2026-04-07 17:45:44.200122,185492,1014603190,1014604064,0.769088,-0.402112,-0.206912,3.2025,0.44625,-9.3975,-12.976001,-8.120001,10.888001,eccentric,3,3.0,29393.0,385275.0,344175.0,402383.0,346397.0
2026-04-07 17:45:44.254796,185502,1014617721,1014619038,0.769088,-0.366976,-0.171776,4.4275,0.20125,-9.7475,-12.536,-8.440001,15.432001,eccentric,3,3.0,29105.0,382953.0,342335.0,400539.0,344677.0
2026-04-07 17:45:44.256308,185503,1014626615,1014627700,0.769088,-0.366976,-0.171776,7.13125,1.295,-9.6075,-12.536,-8.440001,15.432001,eccentric,3,3.0,29105.0,382953.0,342335.0,400539.0,344677.0
2026-04-07 17:45:44.258777,185504,1014635535,1014636412,0.753472,-0.365024,-0.220576,10.99875,2.03,-9.7825,-12.536,-8.440001,15.432001,eccentric,3,3.0,29105.0,382953.0,342335.0,400539.0,344677.0
2026-04-07 17:45:44.262236,185505,1014650073,1014651324,0.76128,-0.365024,-0.220576,13.667501,2.52875,-11.6375,-12.528001,-7.976,14.688001,eccentric,3,3.0,29105.0,382953.0,342335.0,400539.0,344677.0
2026-04-07 17:45:44.263936,185506,1014659094,1014660058,0.763232,-0.36112,-0.203008,14.3675,2.66,-12.38125,-12.984,-8.288,15.456,eccentric,3,3.0,29105.0,382953.0,342335.0,400539.0,344677.0
2026-04-07 17:45:44.268029,185507,1014668018,1014668801,0.763232,-0.36112,-0.203008,14.62125,3.15,-12.36375,-12.984,-8.288,15.456,eccentric,3,3.0,29105.0,382953.0,342335.0,400539.0,344677.0
2026-04-07 17:45:44.296570,185508,1014677423,1014679578,0.782752,-0.388448,-0.173728,9.5725,4.06,-12.53,-13.048,-8.248,16.016,eccentric,3,3.0,29105.0,382953.0,342335.0,400539.0,344677.0
2026-04-07 17:45:44.301048,185509,1014691936,1014692468,0.782752,-0.388448,-0.173728,6.7725,5.4075,-12.18,-13.048,-8.248,16.016,eccentric,3,3.0,29105.0,382953.0,342335.0,400539.0,344677.0
2026-04-07 17:45:44.303333,185510,1014701324,1014703222,0.774944,-0.392352,-0.191296,6.86875,6.29125,-10.4825,-12.248,-8.168,14.344001,eccentric,3,3.0,29105.0,382953.0,342335.0,400539.0,344677.0
2026-04-07 17:45:44.309476,185511,1014710225,1014711955,0.774944,-0.392352,-0.191296,6.7375,7.595,-10.96375,-12.248,-8.168,14.344001,eccentric,3,3.0,29105.0,382953.0,342335.0,400539.0,344677.0
2026-04-07 17:45:44.336024,185522,1014724761,1014726922,0.763232,-0.372832,-0.191296,6.5975,8.44375,-10.0625,-12.064,-8.248,14.592001,eccentric,3,3.0,28451.0,377745.0,338180.0,396317.0,341043.0
2026-04-07 17:45:44.337568,185523,1014733735,1014735629,0.763232,-0.372832,-0.191296,7.21875,9.2575,-8.68875,-12.064,-8.248,14.592001,eccentric,3,3.0,28451.0,377745.0,338180.0,396317.0,341043.0
2026-04-07 17:45:44.342976,185524,1014742703,1014744366,0.774944,-0.359168,-0.183488,5.01375,9.5375,-8.72375,-12.52,-8.328,14.512001,eccentric,3,3.0,28451.0,377745.0,338180.0,396317.0,341043.0
2026-04-07 17:45:44.373784,185525,1014751646,1014753148,0.774944,-0.359168,-0.183488,4.64625,10.17625,-9.14375,-12.52,-8.328,14.512001,eccentric,3,3.0,28451.0,377745.0,338180.0,396317.0,341043.0
2026-04-07 17:45:44.378119,185526,1014766147,1014768079,0.802272,-0.37088,-0.20496,5.53875,10.40375,-9.52875,-12.008,-8.224,16.344,eccentric,3,3.0,28451.0,377745.0,338180.0,396317.0,341043.0
2026-04-07 17:45:44.379886,185527,1014775039,1014776775,0.802272,-0.37088,-0.20496,4.2,10.6925,-10.325,-12.008,-8.224,16.344,eccentric,3,3.0,28451.0,377745.0,338180.0,396317.0,341043.0
2026-04-07 17:45:44.381413,185528,1014784004,1014785497,0.817888,-0.366976,-0.199104,4.41,11.90875,-11.2875,-11.920001,-8.696,15.120001,eccentric,3,3.0,28451.0,377745.0,338180.0,396317.0,341043.0
2026-04-07 17:45:44.418160,185529,1014798629,1014800446,0.825696,-0.378688,-0.193248,5.6,13.48375,-11.62875,-12.168,-8.368,14.896001,eccentric,3,3.0,28451.0,377745.0,338180.0,396317.0,341043.0
2026-04-07 17:45:44.419819,185530,1014807560,1014809202,0.825696,-0.378688,-0.193248,4.97,15.0675,-11.50625,-12.168,-8.368,14.896001,eccentric,3,3.0,28451.0,377745.0,338180.0,396317.0,341043.0
2026-04-07 17:45:44.461091,185540,1014816708,1014817991,0.841312,-0.357216,-0.181536,4.095,16.66875,-11.480001,-12.168,-8.864,16.08,eccentric,3,3.0,28440.0,377783.0,338333.0,396614.0,341401.0
2026-04-07 17:45:44.462781,185541,1014831414,1014833012,0.841312,-0.357216,-0.181536,7.48125,17.17625,-11.515,-11.848001,-8.864,16.08,eccentric,3,3.0,28440.0,377783.0,338333.0,396614.0,341401.0
2026-04-07 17:45:44.466116,185542,1014840329,1014841746,0.804224,-0.386496,-0.203008,9.59875,17.8325,-13.02875,-11.712001,-8.120001,15.304001,eccentric,3,3.0,28440.0,377783.0,338333.0,396614.0,341401.0
2026-04-07 17:45:44.467680,185543,1014849298,1014850449,0.804224,-0.386496,-0.203008,10.35125,18.76875,-14.6825,-11.712001,-8.120001,15.304001,eccentric,3,3.0,28440.0,377783.0,338333.0,396614.0,341401.0
2026-04-07 17:45:44.471827,185544,1014858266,1014859172,0.817888,-0.333792,-0.206912,14.07,19.678751,-15.3475,-12.056001,-7.832,14.328001,eccentric,3,3.0,28440.0,377783.0,338333.0,396614.0,341401.0
2026-04-07 17:45:44.474265,185545,1014872851,1014874110,0.817888,-0.333792,-0.206912,17.84125,19.97625,-16.6425,-12.056001,-7.832,14.328001,eccentric,3,3.0,28440.0,377783.0,338333.0,396614.0,341401.0
2026-04-07 17:45:44.480808,185546,1014881777,1014882854,0.845216,-0.304512,-0.1952,20.58,20.79,-19.6,-12.024,-8.768001,16.36,eccentric,3,3.0,28440.0,377783.0,338333.0,396614.0,341401.0
2026-04-07 17:45:44.512463,185547,1014890791,1014891547,0.845216,-0.304512,-0.1952,20.195,21.6825,-22.925,-12.024,-8.768001,16.36,eccentric,3,3.0,28440.0,377783.0,338333.0,396614.0,341401.0
2026-04-07 17:45:44.514741,185548,1014905795,1014906476,0.798368,-0.314272,-0.181536,21.2275,22.505,-24.98125,-12.392,-8.856,17.312,eccentric,3,3.0,28440.0,377783.0,338333.0,396614.0,341401.0
2026-04-07 17:45:44.543589,185558,1014915708,1014917280,0.798368,-0.314272,-0.181536,16.75625,22.575,-26.8275,-12.392,-8.856,17.312,eccentric,3,3.0,27012.0,366256.0,329280.0,387670.0,334378.0
2026-04-07 17:45:44.546081,185559,1014924713,1014926047,0.776896,-0.376736,-0.158112,11.24375,21.98,-27.0025,-11.584001,-8.888001,15.912001,eccentric,3,3.0,27012.0,366256.0,329280.0,387670.0,334378.0
2026-04-07 17:45:44.547655,185560,1014933769,1014934766,0.776896,-0.376736,-0.158112,10.52625,21.9625,-26.7575,-11.584001,-8.888001,15.912001,eccentric,3,3.0,27012.0,366256.0,329280.0,387670.0,334378.0
2026-04-07 17:45:44.555797,185561,1014948334,1014949734,0.745664,-0.337696,-0.18544,11.54125,22.18125,-25.78625,-11.960001,-9.376,17.808,eccentric,3,3.0,27012.0,366256.0,329280.0,387670.0,334378.0
2026-04-07 17:45:44.559706,185562,1014957269,1014958452,0.774944,-0.2928,-0.134688,14.6475,21.735,-25.85625,-11.528001,-9.504001,13.192,eccentric,3,3.0,27012.0,366256.0,329280.0,387670.0,334378.0
2026-04-07 17:45:44.564667,185563,1014966237,1014967126,0.774944,-0.2928,-0.134688,14.14875,21.1225,-28.2975,-11.528001,-9.504001,13.192,eccentric,3,3.0,27012.0,366256.0,329280.0,387670.0,334378.0
2026-04-07 17:45:44.594990,185564,1014975212,1014975819,0.774944,-0.2928,-0.134688,15.47875,20.86,-28.91875,-11.528001,-9.504001,13.192,eccentric,3,3.0,27012.0,366256.0,329280.0,387670.0,334378.0
2026-04-07 17:45:44.599337,185565,1014990147,1014990772,0.784704,-0.324032,-0.15616,15.86375,20.475,-30.0475,-11.592001,-9.704,13.664001,eccentric,3,3.0,27012.0,366256.0,329280.0,387670.0,334378.0
2026-04-07 17:45:44.600930,185566,1014999417,1015001539,0.76128,-0.327936,-0.140544,14.18375,20.46625,-31.605,-11.544001,-9.184,16.128,eccentric,3,3.0,27012.0,366256.0,329280.0,387670.0,334378.0
2026-04-07 17:45:44.607924,185567,1015008365,1015010259,0.76128,-0.327936,-0.140544,15.575,20.965,-31.605,-11.544001,-9.184,16.128,eccentric,3,3.0,27012.0,366256.0,329280.0,387670.0,334378.0
2026-04-07 17:45:44.639370,185578,1015023303,1015025239,0.7808,-0.345504,-0.144448,15.26875,20.58,-31.9725,-11.424001,-9.808001,16.816,eccentric,3,3.0,26518.0,362068.0,325895.0,384135.0,331671.0
2026-04-07 17:45:44.641074,185579,1015032286,1015033925,0.7808,-0.345504,-0.144448,14.175,19.8275,-32.50625,-11.424001,-9.808001,16.816,eccentric,3,3.0,26518.0,362068.0,325895.0,384135.0,331671.0
2026-04-07 17:45:44.643000,185580,1015041214,1015042621,0.794464,-0.298656,-0.111264,14.95375,21.28875,-33.60875,-11.856001,-10.176001,16.904001,eccentric,3,3.0,26518.0,362068.0,325895.0,384135.0,331671.0
2026-04-07 17:45:44.649198,185581,1015050128,1015051305,0.794464,-0.298656,-0.111264,16.44125,22.4875,-34.895,-11.856001,-10.176001,16.904001,eccentric,3,3.0,26518.0,362068.0,325895.0,384135.0,331671.0
2026-04-07 17:45:44.677821,185582,1015064633,1015066222,0.772992,-0.310368,-0.115168,17.045,24.10625,-35.638752,-12.376,-10.68,19.024,eccentric,3,3.0,26518.0,362068.0,325895.0,384135.0,331671.0
2026-04-07 17:45:44.682185,185583,1015073557,1015074904,0.772992,-0.310368,-0.115168,15.6625,24.2025,-34.81625,-12.376,-10.68,19.024,eccentric,3,3.0,26518.0,362068.0,325895.0,384135.0,331671.0
2026-04-07 17:45:44.716230,185584,1015082499,1015083655,0.786656,-0.288896,-0.101504,14.595,23.9225,-34.22125,-11.8,-10.608001,17.304,eccentric,3,3.0,26518.0,362068.0,325895.0,384135.0,331671.0
2026-04-07 17:45:44.718493,185585,1015097001,1015098594,0.786656,-0.288896,-0.101504,13.3175,23.75625,-34.09,-11.8,-10.608001,17.304,eccentric,3,3.0,26518.0,362068.0,325895.0,384135.0,331671.0
2026-04-07 17:45:44.723158,185586,1015105906,1015107283,0.786656,-0.271328,-0.101504,13.22125,24.31625,-33.6,-11.792001,-11.248,17.2,eccentric,3,3.0,26518.0,362068.0,325895.0,384135.0,331671.0
2026-04-07 17:45:44.749098,185596,1015114829,1015115979,0.786656,-0.271328,-0.101504,10.85,25.6725,-33.90625,-11.792001,-11.248,17.2,eccentric,3,3.0,25981.0,357599.0,322330.0,380461.0,328445.0
2026-04-07 17:45:44.753117,185597,1015129367,1015131058,0.802272,-0.249856,-0.08784,8.7325,27.36125,-35.41125,-11.320001,-11.528001,16.776001,eccentric,3,3.0,25981.0,357599.0,322330.0,380461.0,328445.0
2026-04-07 17:45:44.754786,185598,1015138301,1015139807,0.815936,-0.271328,-0.07808,9.3625,28.5075,-35.945,-11.392,-11.104,17.08,eccentric,3,3.0,25981.0,357599.0,322330.0,380461.0,328445.0
2026-04-07 17:45:44.756315,185599,1015147262,1015148529,0.815936,-0.271328,-0.07808,6.8775,28.37625,-36.1375,-11.392,-11.104,17.08,eccentric,3,3.0,25981.0,357599.0,322330.0,380461.0,328445.0
2026-04-07 17:45:44.759577,185600,1015161762,1015163410,0.788608,-0.259616,-0.074176,4.75125,28.385,-35.90125,-12.160001,-11.688001,18.816,eccentric,3,3.0,25981.0,357599.0,322330.0,380461.0,328445.0
2026-04-07 17:45:44.768495,185601,1015170822,1015172110,0.788608,-0.259616,-0.074176,5.59125,28.55125,-35.49,-12.160001,-11.688001,18.816,eccentric,3,3.0,25981.0,357599.0,322330.0,380461.0,328445.0
2026-04-07 17:45:44.798748,185602,1015179753,1015180860,0.813984,-0.216672,-0.011712,5.52125,28.13125,-34.475,-12.584001,-12.104001,19.016,eccentric,3,3.0,25981.0,357599.0,322330.0,380461.0,328445.0
2026-04-07 17:45:44.800955,185603,1015188654,1015189531,0.813984,-0.216672,-0.011712,3.4125,28.2975,-34.8425,-12.584001,-12.104001,19.016,eccentric,3,3.0,25981.0,357599.0,322330.0,380461.0,328445.0
2026-04-07 17:45:44.805559,185604,1015203141,1015204455,0.817888,-0.206912,-0.050752,4.57625,28.8925,-34.79,-11.992001,-12.752001,18.488,eccentric,3,3.0,25981.0,357599.0,322330.0,380461.0,328445.0
2026-04-07 17:45:44.810666,185605,1015212087,1015213195,0.817888,-0.206912,-0.050752,2.68625,29.09375,-34.83375,-11.992001,-12.752001,18.488,eccentric,3,3.0,25981.0,357599.0,322330.0,380461.0,328445.0
2026-04-07 17:45:44.833841,185615,1015221135,1015221915,0.81008,-0.22448,-0.052704,-1.44375,29.81125,-36.1375,-12.544001,-12.68,19.848001,eccentric,3,3.0,25627.0,354526.0,319900.0,378059.0,326301.0
2026-04-07 17:45:44.837924,185616,1015235743,1015236863,0.81008,-0.22448,-0.052704,0.0175,29.2775,-35.1925,-12.544001,-12.68,19.848001,eccentric,3,3.0,25627.0,354526.0,319900.0,378059.0,326301.0
2026-04-07 17:45:44.842194,185617,1015244674,1015245663,0.835456,-0.201056,-0.017568,1.8025,27.685,-34.58,-12.400001,-12.904,20.160002,eccentric,3,3.0,25627.0,354526.0,319900.0,378059.0,326301.0
2026-04-07 17:45:44.891126,185618,1015253646,1015254372,0.835456,-0.201056,-0.017568,2.31875,27.1775,-34.965,-12.400001,-12.904,20.160002,eccentric,3,3.0,25627.0,354526.0,319900.0,378059.0,326301.0
2026-04-07 17:45:44.892228,185619,1015262993,1015265136,0.823744,-0.163968,-0.035136,4.43625,26.678751,-34.2475,-12.064,-12.968,19.288,eccentric,3,3.0,25627.0,354526.0,319900.0,378059.0,326301.0
2026-04-07 17:45:44.898201,185620,1015277457,1015277989,0.823744,-0.163968,-0.035136,2.7475,25.9525,-34.51,-12.064,-12.968,19.288,eccentric,3,3.0,25627.0,354526.0,319900.0,378059.0,326301.0
2026-04-07 17:45:44.898590,185621,1015286903,1015288760,0.81008,-0.16592,-0.040992,1.23375,26.03125,-35.41125,-11.664001,-12.824,18.928001,eccentric,3,3.0,25627.0,354526.0,319900.0,378059.0,326301.0
2026-04-07 17:45:44.900132,185622,1015295855,1015297445,0.81008,-0.16592,-0.040992,1.6625,25.9,-35.51625,-11.664001,-12.824,18.928001,eccentric,3,3.0,25627.0,354526.0,319900.0,378059.0,326301.0
2026-04-07 17:45:44.931304,185623,1015310348,1015312361,0.747616,-0.310368,0.060512,-0.5775,27.4925,-38.00125,-11.968,-13.432001,19.224,eccentric,3,3.0,25627.0,354526.0,319900.0,378059.0,326301.0
2026-04-07 17:45:44.959897,185634,1015319434,1015321106,0.86864,-0.140544,0.023424,5.145,24.36,-38.59625,-12.232,-13.936001,19.248001,eccentric,3,3.0,25219.0,351310.0,317450.0,375964.0,325058.0
2026-04-07 17:45:44.961426,185635,1015328379,1015329859,0.86864,-0.140544,0.023424,17.22875,24.42125,-37.485,-12.232,-13.936001,19.248001,eccentric,3,3.0,25219.0,351310.0,317450.0,375964.0,325058.0
2026-04-07 17:45:44.965663,185636,1015342861,1015344774,0.7808,-0.099552,0.033184,14.4375,23.59875,-41.0725,-11.944,-13.840001,20.104,eccentric,3,3.0,25219.0,351310.0,317450.0,375964.0,325058.0
2026-04-07 17:45:44.967403,185637,1015351891,1015353530,0.7808,-0.099552,0.033184,12.3725,21.595,-36.505,-11.944,-13.840001,20.104,eccentric,3,3.0,25219.0,351310.0,317450.0,375964.0,325058.0
2026-04-07 17:45:44.968916,185638,1015360842,1015362222,0.817888,-0.158112,0.025376,9.511251,18.75125,-35.46375,-13.104001,-14.68,22.264002,eccentric,3,3.0,25219.0,351310.0,317450.0,375964.0,325058.0
2026-04-07 17:45:44.973552,185639,1015369803,1015370978,0.817888,-0.158112,0.025376,7.53375,16.31875,-34.51875,-13.104001,-14.68,22.264002,eccentric,3,3.0,25219.0,351310.0,317450.0,375964.0,325058.0
2026-04-07 17:45:45.013763,185640,1015384306,1015385927,0.854976,-0.093696,0.044896,10.70125,15.33,-33.29375,-12.744,-14.616001,21.304,eccentric,3,3.0,25219.0,351310.0,317450.0,375964.0,325058.0
2026-04-07 17:45:45.016052,185641,1015393233,1015394620,0.854976,-0.093696,0.044896,10.6925,16.47625,-33.34625,-12.744,-14.616001,21.304,eccentric,3,3.0,25219.0,351310.0,317450.0,375964.0,325058.0
2026-04-07 17:45:45.020674,185642,1015402168,1015403306,0.876448,-0.046848,0.06832,8.75,18.61125,-33.88,-11.744,-14.184001,19.616001,eccentric,3,3.0,25219.0,351310.0,317450.0,375964.0,325058.0
2026-04-07 17:45:45.052347,185652,1015417126,1015418210,0.876448,-0.046848,0.06832,4.9525,20.65875,-35.4725,-11.744,-14.184001,19.616001,eccentric,3,3.0,24979.0,349004.0,315669.0,374189.0,323588.0
2026-04-07 17:45:45.053807,185653,1015426057,1015427110,0.860832,-0.111264,0.060512,2.835,23.415,-35.69125,-11.376,-14.440001,20.36,eccentric,3,3.0,24979.0,349004.0,315669.0,374189.0,323588.0
2026-04-07 17:45:45.058162,185654,1015435060,1015435875,0.860832,-0.111264,0.060512,1.435,24.22,-34.6675,-11.376,-14.440001,20.36,eccentric,3,3.0,24979.0,349004.0,315669.0,374189.0,323588.0
2026-04-07 17:45:45.059789,185655,1015444554,1015446676,0.851072,-0.11712,0.037088,1.2775,23.7825,-33.11,-12.072001,-14.944,21.656,eccentric,3,3.0,24979.0,349004.0,315669.0,374189.0,323588.0
2026-04-07 17:45:45.061325,185656,1015459076,1015459517,0.835456,-0.099552,0.074176,2.28375,22.47,-31.911251,-12.072001,-14.944,19.608002,eccentric,3,3.0,24979.0,349004.0,315669.0,374189.0,323588.0
2026-04-07 17:45:45.069394,185657,1015468396,1015470286,0.841312,-0.099552,0.074176,2.485,21.2625,-31.29875,-12.120001,-15.64,19.616001,eccentric,3,3.0,24979.0,349004.0,315669.0,374189.0,323588.0
2026-04-07 17:45:45.075607,185658,1015477442,1015478999,0.841312,-0.099552,0.074176,4.36625,20.20375,-30.87875,-12.120001,-15.64,19.616001,eccentric,3,3.0,24979.0,349004.0,315669.0,374189.0,323588.0
2026-04-07 17:45:45.104006,185659,1015491924,1015493923,0.817888,-0.083936,0.076128,4.445,18.75125,-29.9775,-11.848001,-16.032001,22.336,eccentric,3,3.0,24979.0,349004.0,315669.0,374189.0,323588.0
2026-04-07 17:45:45.108607,185660,1015500847,1015502622,0.823744,-0.040992,0.05856,3.0625,17.605,-29.4175,-12.376,-15.816001,20.096,eccentric,3,3.0,24979.0,349004.0,315669.0,374189.0,323588.0
2026-04-07 17:45:45.110148,185661,1015509776,1015511330,0.823744,-0.040992,0.05856,1.05875,18.27,-29.81125,-12.376,-15.816001,20.096,eccentric,3,3.0,24979.0,349004.0,315669.0,374189.0,323588.0
2026-04-07 17:45:45.139361,185671,1015519024,1015520227,0.823744,-0.040992,0.05856,-2.54625,19.2675,-30.1525,-12.376,-15.816001,20.096,eccentric,3,3.0,24819.0,347812.0,314875.0,373610.0,323242.0
2026-04-07 17:45:45.141010,185672,1015533663,1015535181,0.854976,-0.0488,0.072224,-7.7,19.3375,-30.30125,-12.328001,-16.36,22.992,eccentric,3,3.0,24819.0,347812.0,314875.0,373610.0,323242.0
2026-04-07 17:45:45.142591,185673,1015542659,1015543896,0.812032,-0.095648,0.05856,-9.33625,20.43125,-31.64875,-12.384001,-17.096,22.400002,eccentric,3,3.0,24819.0,347812.0,314875.0,373610.0,323242.0
2026-04-07 17:45:45.150436,185674,1015551563,1015552609,0.812032,-0.095648,0.05856,-8.56625,19.45125,-31.29875,-12.384001,-17.096,22.400002,eccentric,3,3.0,24819.0,347812.0,314875.0,373610.0,323242.0
2026-04-07 17:45:45.179094,185675,1015566093,1015567488,0.825696,-0.07808,0.083936,-6.71125,16.91375,-28.84,-11.744,-16.240002,20.552,eccentric,3,3.0,24819.0,347812.0,314875.0,373610.0,323242.0
2026-04-07 17:45:45.183568,185676,1015575042,1015576199,0.825696,-0.07808,0.083936,-5.27625,15.04125,-27.8425,-11.744,-16.240002,20.552,eccentric,3,3.0,24819.0,347812.0,314875.0,373610.0,323242.0
2026-04-07 17:45:45.185842,185677,1015583942,1015584887,0.794464,-0.07808,0.01952,-5.74875,14.65625,-26.7225,-11.632001,-16.192001,21.400002,eccentric,3,3.0,24819.0,347812.0,314875.0,373610.0,323242.0
2026-04-07 17:45:45.218731,185678,1015598517,1015599790,0.794464,-0.07808,0.01952,-8.98625,15.46125,-24.59625,-11.632001,-16.192001,21.400002,eccentric,3,3.0,24819.0,347812.0,314875.0,373610.0,323242.0
2026-04-07 17:45:45.220936,185679,1015607448,1015608498,0.825696,-0.056608,0.052704,-10.42125,13.09,-22.11125,-11.664001,-16.936,23.056002,eccentric,3,3.0,24819.0,347812.0,314875.0,373610.0,323242.0
2026-04-07 17:45:45.249831,185690,1015616428,1015617663,0.825696,-0.056608,0.052704,-6.02,9.82625,-18.3925,-11.664001,-16.936,23.056002,eccentric,3,3.0,24717.0,346930.0,314171.0,372764.0,322632.0
2026-04-07 17:45:45.251386,185691,1015625354,1015626332,0.778848,-0.0488,0.062464,-6.265,8.0325,-18.20875,-10.984,-17.344002,21.336,eccentric,3,3.0,24717.0,346930.0,314171.0,372764.0,322632.0
2026-04-07 17:45:45.255576,185692,1015639889,1015641341,0.747616,-0.122976,0.101504,-5.04,5.52125,-13.93,-10.984,-17.344002,19.288,eccentric,3,3.0,24717.0,346930.0,314171.0,372764.0,322632.0
2026-04-07 17:45:45.257317,185693,1015648841,1015650093,0.745664,-0.122976,0.101504,-6.34375,2.94875,-12.22375,-11.664001,-16.84,19.944,eccentric,3,3.0,24717.0,346930.0,314171.0,372764.0,322632.0
2026-04-07 17:45:45.258849,185694,1015657767,1015658845,0.745664,-0.122976,0.101504,-3.185,-0.81375,-9.44125,-11.664001,-16.84,19.944,eccentric,3,3.0,24717.0,346930.0,314171.0,372764.0,322632.0
2026-04-07 17:45:45.315073,185695,1015672315,1015673744,0.837408,-0.023424,0.033184,1.4875,-2.24875,-7.23625,-11.752001,-17.336,21.392,eccentric,3,3.0,24717.0,346930.0,314171.0,372764.0,322632.0
2026-04-07 17:45:45.317618,185696,1015681236,1015682473,0.802272,-0.054656,0.101504,-2.40625,-0.7,-7.55125,-11.200001,-17.616001,21.488,eccentric,3,3.0,24717.0,346930.0,314171.0,372764.0,322632.0
2026-04-07 17:45:45.325699,185697,1015690154,1015691210,0.802272,-0.054656,0.101504,-4.27875,-1.9775,-5.38125,-11.200001,-17.616001,21.488,eccentric,3,3.0,24717.0,346930.0,314171.0,372764.0,322632.0
2026-04-07 17:45:45.327311,185698,1015704653,1015706088,0.833504,-0.091744,0.091744,-2.19625,-3.71875,-3.5175,-11.576,-16.928001,21.248001,eccentric,3,3.0,24717.0,346930.0,314171.0,372764.0,322632.0
2026-04-07 17:45:45.329035,185699,1015713576,1015714775,0.833504,-0.091744,0.091744,-5.66125,-4.33125,-3.92,-11.576,-16.928001,21.248001,eccentric,3,3.0,24717.0,346930.0,314171.0,372764.0,322632.0
2026-04-07 17:45:45.355566,185709,1015722671,1015723544,0.84912,-0.056608,0.070272,-2.695,-4.3575,0.525,-11.456,-17.072,21.104,eccentric,3,3.0,24742.0,346854.0,313994.0,372215.0,322271.0
2026-04-07 17:45:45.357307,185710,1015731658,1015732325,0.84912,-0.056608,0.070272,-3.08875,-5.53875,0.385,-11.456,-17.072,21.104,eccentric,3,3.0,24742.0,346854.0,313994.0,372215.0,322271.0
2026-04-07 17:45:45.359009,185711,1015746611,1015747281,0.862784,-0.007808,0.072224,-3.03625,-5.52125,1.505,-11.416,-17.168001,22.064001,eccentric,3,3.0,24742.0,346854.0,313994.0,372215.0,322271.0
2026-04-07 17:45:45.363066,185712,1015755948,1015758074,0.862784,-0.007808,0.072224,-3.64875,-4.935,0.3675,-11.416,-17.168001,22.064001,eccentric,3,3.0,24742.0,346854.0,313994.0,372215.0,322271.0
2026-04-07 17:45:45.364662,185713,1015764915,1015766749,0.864736,-0.054656,0.06832,-4.97875,-5.87125,-0.13125,-11.84,-16.944,22.784,eccentric,3,3.0,24742.0,346854.0,313994.0,372215.0,322271.0
2026-04-07 17:45:45.394944,185714,1015779416,1015781632,0.864736,-0.054656,0.06832,-5.8275,-7.105,0.00875,-11.84,-16.944,22.784,eccentric,3,3.0,24742.0,346854.0,313994.0,372215.0,322271.0
2026-04-07 17:45:45.399315,185715,1015788355,1015790338,0.884256,-0.056608,0.062464,-5.55625,-6.8425,0.3325,-11.304001,-17.0,18.616001,eccentric,3,3.0,24742.0,346854.0,313994.0,372215.0,322271.0
2026-04-07 17:45:45.401048,185716,1015797287,1015799027,0.884256,-0.056608,0.062464,-4.38375,-7.42,1.05875,-11.304001,-17.0,18.616001,eccentric,3,3.0,24742.0,346854.0,313994.0,372215.0,322271.0
2026-04-07 17:45:45.402594,185717,1015806209,1015807747,0.872544,-0.042944,0.052704,-3.71,-6.95625,1.16375,-11.376,-16.608002,21.288,eccentric,3,3.0,24742.0,346854.0,313994.0,372215.0,322271.0
2026-04-07 17:45:45.465300,185727,1015821406,1015823050,0.85888,-0.040992,0.044896,-3.1325,-6.8775,1.4,-11.128,-16.992,22.856,eccentric,3,3.0,25039.0,348844.0,315317.0,372892.0,322860.0
2026-04-07 17:45:45.473179,185728,1015830463,1015831742,0.85888,-0.040992,0.044896,-2.96625,-6.85125,0.95375,-11.128,-16.992,22.856,eccentric,3,3.0,25039.0,348844.0,315317.0,372892.0,322860.0
2026-04-07 17:45:45.474811,185729,1015839479,1015840476,0.85888,-0.040992,0.044896,-1.925,-6.76375,0.875,-11.128,-16.992,22.856,eccentric,3,3.0,25039.0,348844.0,315317.0,372892.0,322860.0
2026-04-07 17:45:45.476455,185730,1015854060,1015855352,0.847168,-0.056608,0.02928,-2.1175,-7.1925,1.6275,-11.592001,-16.384,21.608002,eccentric,3,3.0,25039.0,348844.0,315317.0,372892.0,322860.0
2026-04-07 17:45:45.480608,185731,1015863004,1015864102,0.853024,-0.076128,0.033184,-1.33875,-8.42625,2.66875,-10.848001,-16.848001,20.736,eccentric,3,3.0,25039.0,348844.0,315317.0,372892.0,322860.0
2026-04-07 17:45:45.482231,185732,1015871966,1015872797,0.853024,-0.076128,0.033184,-0.83125,-8.96,3.08875,-10.848001,-16.848001,20.736,eccentric,3,3.0,25039.0,348844.0,315317.0,372892.0,322860.0
2026-04-07 17:45:45.483863,185733,1015880903,1015881505,0.837408,-0.070272,0.033184,-0.46375,-8.42625,4.05125,-10.848001,-16.848001,20.736,eccentric,3,3.0,25039.0,348844.0,315317.0,372892.0,322860.0
2026-04-07 17:45:45.493045,185734,1015895696,1015896517,0.837408,-0.070272,0.033184,-1.53125,-7.93625,4.6375,-11.912001,-16.832,22.248001,eccentric,3,3.0,25039.0,348844.0,315317.0,372892.0,322860.0
2026-04-07 17:45:45.521538,185735,1015904642,1015905234,0.81008,-0.056608,0.017568,-2.63375,-7.3675,5.41625,-11.616,-16.904001,23.048,eccentric,3,3.0,25039.0,348844.0,315317.0,372892.0,322860.0
2026-04-07 17:45:45.526154,185736,1015913818,1015915978,0.81008,-0.056608,0.017568,-3.19375,-7.6125,5.81875,-11.616,-16.904001,23.048,eccentric,3,3.0,25039.0,348844.0,315317.0,372892.0,322860.0
2026-04-07 17:45:45.556325,185747,1015928501,1015928865,0.786656,-0.093696,-0.001952,-4.48,-8.96,6.83375,-11.104,-15.888001,20.536001,eccentric,3,3.0,25046.0,349159.0,315570.0,373164.0,323035.0
2026-04-07 17:45:45.560653,185748,1015937851,1015939701,0.786656,-0.093696,-0.001952,-3.85,-11.0075,8.715,-11.104,-15.888001,20.536001,eccentric,3,3.0,25046.0,349159.0,315570.0,373164.0,323035.0
2026-04-07 17:45:45.562372,185749,1015946795,1015948403,0.786656,-0.07808,-0.023424,-2.45875,-12.92375,10.7275,-11.656,-16.512001,20.432001,eccentric,3,3.0,25046.0,349159.0,315570.0,373164.0,323035.0
2026-04-07 17:45:45.564686,185750,1015955720,1015957111,0.786656,-0.07808,-0.023424,-0.7875,-14.65625,12.67,-11.656,-16.512001,20.432001,eccentric,3,3.0,25046.0,349159.0,315570.0,373164.0,323035.0
2026-04-07 17:45:45.570562,185751,1015970214,1015972028,0.806176,-0.054656,-0.044896,2.03,-16.38875,13.79,-12.456,-16.056002,21.424002,eccentric,3,3.0,25046.0,349159.0,315570.0,373164.0,323035.0
2026-04-07 17:45:45.616134,185752,1015979136,1015980724,0.806176,-0.054656,-0.044896,3.3775,-16.6425,14.44625,-12.456,-16.056002,21.424002,eccentric,3,3.0,25046.0,349159.0,315570.0,373164.0,323035.0
2026-04-07 17:45:45.620591,185753,1015988063,1015989411,0.815936,-0.056608,-0.025376,4.26125,-16.12625,14.93625,-11.52,-15.728001,19.824001,eccentric,3,3.0,25046.0,349159.0,315570.0,373164.0,323035.0
2026-04-07 17:45:45.622305,185754,1016002529,1016004299,0.845216,-0.099552,-0.005856,4.6025,-15.91625,15.26,-11.8,-15.064001,20.28,eccentric,3,3.0,25046.0,349159.0,315570.0,373164.0,323035.0
2026-04-07 17:45:45.624223,185755,1016011468,1016012983,0.845216,-0.099552,-0.005856,2.2925,-15.81125,16.44125,-11.8,-15.064001,20.28,eccentric,3,3.0,25046.0,349159.0,315570.0,373164.0,323035.0
