pc_time,serial_num,sensor_ts,host_ts,ax,ay,az,gx,gy,gz,mx,my,mz,phase,rpe,weight_kg,ppg_a,ppg_b,ppg_c,ppg_d,ppg_e
2026-04-09 22:06:17.704564,194116,1307719153,1307720601,0.847168,-0.232288,-0.0488,7.04375,-2.45875,-17.85875,-25.056002,12.464001,20.456001,concentric,6,3.0,31671.0,403431.0,125473.0,4200.0,-139.0
2026-04-09 22:06:17.707070,194117,1307728051,1307729328,0.847168,-0.232288,-0.0488,8.636251,-3.71,-14.67375,-25.056002,12.464001,20.456001,concentric,6,3.0,31671.0,403431.0,125473.0,4200.0,-139.0
2026-04-09 22:06:17.709570,194118,1307737014,1307738113,0.851072,-0.11712,0.02928,3.5,-1.68,-13.195,-25.920002,12.368001,21.288,concentric,6,3.0,31671.0,403431.0,125473.0,4200.0,-139.0
2026-04-09 22:06:17.712142,194119,1307745968,1307746838,0.851072,-0.11712,0.02928,0.11375,1.855,-13.8425,-25.920002,12.368001,21.288,concentric,6,3.0,31671.0,403431.0,125473.0,4200.0,-139.0
2026-04-09 22:06:17.715920,194120,1307760475,1307761744,0.81984,-0.183488,-0.001952,-4.61125,3.40375,-17.38625,-25.368002,12.504001,21.184002,concentric,6,3.0,31671.0,403431.0,125473.0,4200.0,-139.0
2026-04-09 22:06:17.746160,194121,1307769405,1307770509,0.81984,-0.183488,-0.001952,-1.8025,2.30125,-20.02,-25.368002,12.504001,21.184002,concentric,6,3.0,31671.0,403431.0,125473.0,4200.0,-139.0
2026-04-09 22:06:17.749641,194122,1307778363,1307779231,0.85888,-0.251808,-0.072224,6.50125,-0.1575,-19.46875,-25.728,13.064001,20.016,concentric,6,3.0,31671.0,403431.0,125473.0,4200.0,-139.0
2026-04-09 22:06:17.752041,194123,1307792831,1307794114,0.864736,-0.119072,0.007808,11.29625,-1.98625,-16.89625,-24.848001,12.320001,21.36,concentric,6,3.0,31671.0,403431.0,125473.0,4200.0,-139.0
2026-04-09 22:06:17.757251,194124,1307801765,1307802832,0.864736,-0.119072,0.007808,9.4675,-1.14625,-12.73125,-24.848001,12.320001,21.36,concentric,6,3.0,31671.0,403431.0,125473.0,4200.0,-139.0
2026-04-09 22:06:17.814562,194135,1307811359,1307813656,0.864736,-0.119072,0.007808,2.86125,1.79375,-12.50375,-24.848001,12.320001,21.36,concentric,6,3.0,31700.0,403301.0,124142.0,3853.0,-139.0
2026-04-09 22:06:17.817093,194136,1307820387,1307822435,0.8296,-0.173728,0.035136,-3.21125,3.9025,-12.85375,-25.064001,11.984,20.072,concentric,6,3.0,31700.0,403301.0,124142.0,3853.0,-139.0
2026-04-09 22:06:17.819577,194137,1307834864,1307835287,0.813984,-0.212768,-0.05856,-1.60125,2.9925,-13.53625,-25.768002,12.160001,20.216002,concentric,6,3.0,31700.0,403301.0,124142.0,3853.0,-139.0
2026-04-09 22:06:17.822149,194138,1307844185,1307846099,0.813984,-0.212768,-0.05856,7.44625,0.42875,-12.11875,-25.768002,12.160001,20.216002,concentric,6,3.0,31700.0,403301.0,124142.0,3853.0,-139.0
2026-04-09 22:06:17.855994,194139,1307853131,1307854813,0.854976,-0.160064,-0.08784,15.0675,-2.2575,-10.08,-25.544,12.432,20.208,concentric,6,3.0,31700.0,403301.0,124142.0,3853.0,-139.0
2026-04-09 22:06:17.859621,194140,1307867646,1307869703,0.854976,-0.160064,-0.08784,16.10875,-3.05375,-7.4375,-25.544,12.432,20.208,concentric,6,3.0,31700.0,403301.0,124142.0,3853.0,-139.0
2026-04-09 22:06:17.862137,194141,1307876634,1307878437,0.83936,-0.062464,0.01952,13.5975,-2.345,-5.5125,-25.080002,12.400001,20.376001,concentric,6,3.0,31700.0,403301.0,124142.0,3853.0,-139.0
2026-04-09 22:06:17.864602,194142,1307885563,1307887135,0.83936,-0.062464,0.01952,8.3825,-0.14875,-6.965,-25.080002,12.400001,20.376001,concentric,6,3.0,31700.0,403301.0,124142.0,3853.0,-139.0
2026-04-09 22:06:17.867122,194143,1307900080,1307902024,0.817888,-0.1952,0.00976,5.9325,1.21625,-9.84375,-25.320002,12.480001,20.392,concentric,6,3.0,31700.0,403301.0,124142.0,3853.0,-139.0
2026-04-09 22:06:17.869631,194144,1307909051,1307910729,0.817888,-0.1952,0.00976,9.58125,1.3125,-12.29375,-25.320002,12.480001,20.392,concentric,6,3.0,31700.0,403301.0,124142.0,3853.0,-139.0
2026-04-09 22:06:17.898109,194154,1307918035,1307919461,0.825696,-0.210816,-0.054656,14.91875,0.77875,-10.63125,-24.744001,12.552001,20.192001,concentric,6,3.0,31782.0,402185.0,122577.0,3453.0,-140.0
2026-04-09 22:06:17.899662,194155,1307927009,1307928230,0.825696,-0.210816,-0.054656,17.22,0.49,-6.44,-24.744001,12.552001,20.192001,concentric,6,3.0,31782.0,402185.0,122577.0,3453.0,-140.0
2026-04-09 22:06:17.902143,194156,1307941621,1307943152,0.798368,-0.160064,-0.01952,14.42875,1.16375,-2.42375,-25.384,12.048,20.400002,concentric,6,3.0,31782.0,402185.0,122577.0,3453.0,-140.0
2026-04-09 22:06:17.907498,194157,1307950592,1307951880,0.798368,-0.160064,-0.01952,7.65625,2.16125,-0.13125,-25.384,12.048,20.400002,concentric,6,3.0,31782.0,402185.0,122577.0,3453.0,-140.0
2026-04-09 22:06:17.936038,194158,1307959585,1307960611,0.776896,-0.148352,-0.033184,3.255,2.8175,1.84625,-25.52,12.464001,20.464,concentric,6,3.0,31782.0,402185.0,122577.0,3453.0,-140.0
2026-04-09 22:06:17.940611,194159,1307974097,1307975444,0.76128,-0.183488,-0.06832,2.9225,2.23125,3.0975,-25.096,12.328001,20.52,concentric,6,3.0,31782.0,402185.0,122577.0,3453.0,-140.0
2026-04-09 22:06:17.942061,194160,1307983077,1307984148,0.76128,-0.183488,-0.06832,4.17375,0.34125,4.89125,-25.096,12.328001,20.52,concentric,6,3.0,31782.0,402185.0,122577.0,3453.0,-140.0
2026-04-09 22:06:17.948858,194161,1307992011,1307992837,0.76128,-0.183488,-0.06832,4.47125,-1.4,7.2625,-25.096,12.328001,20.52,concentric,6,3.0,31782.0,402185.0,122577.0,3453.0,-140.0
2026-04-09 22:06:17.977320,194162,1308006496,1308007725,0.763232,-0.20496,-0.054656,1.74125,-1.84625,10.3775,-25.008001,12.784,19.968,concentric,6,3.0,31782.0,402185.0,122577.0,3453.0,-140.0
2026-04-09 22:06:18.013975,194172,1308015583,1308016476,0.765184,-0.152256,-0.03904,-3.70125,-1.40875,13.658751,-25.320002,12.376,20.400002,concentric,6,3.0,31799.0,401956.0,122225.0,3346.0,-148.0
2026-04-09 22:06:18.015694,194173,1308024594,1308025197,0.765184,-0.152256,-0.03904,-10.87625,-0.65625,16.7125,-25.320002,12.376,20.400002,concentric,6,3.0,31799.0,401956.0,122225.0,3346.0,-148.0
2026-04-09 22:06:18.017189,194174,1308033965,1308035962,0.735904,-0.179584,-0.052704,-14.2975,0.18375,17.675,-25.688002,13.184001,25.072,concentric,6,3.0,31799.0,401956.0,122225.0,3346.0,-148.0
2026-04-09 22:06:18.025278,194175,1308048571,1308050881,0.735904,-0.179584,-0.052704,-13.011251,-0.53375,16.7125,-25.688002,13.184001,25.072,concentric,6,3.0,31799.0,401956.0,122225.0,3346.0,-148.0
2026-04-09 22:06:18.026840,194176,1308057501,1308059628,0.718336,-0.22448,-0.06832,-8.89,-2.31875,16.4325,-24.536001,13.288001,20.720001,concentric,6,3.0,31799.0,401956.0,122225.0,3346.0,-148.0
2026-04-09 22:06:18.028454,194177,1308066463,1308068346,0.718336,-0.22448,-0.06832,-3.82375,-3.9375,18.96125,-24.536001,13.288001,20.720001,concentric,6,3.0,31799.0,401956.0,122225.0,3346.0,-148.0
2026-04-09 22:06:18.059549,194178,1308081009,1308083286,0.694912,-0.257664,-0.033184,-2.58125,-4.20875,24.01875,-24.336,12.856001,21.352001,concentric,6,3.0,31799.0,401956.0,122225.0,3346.0,-148.0
2026-04-09 22:06:18.061833,194179,1308089994,1308091987,0.694912,-0.257664,-0.033184,-9.4325,-3.64,29.741251,-24.336,12.856001,21.352001,concentric,6,3.0,31799.0,401956.0,122225.0,3346.0,-148.0
2026-04-09 22:06:18.066460,194180,1308098960,1308100683,0.72224,-0.216672,-0.040992,-19.4075,-2.47625,34.4925,-24.128,13.360001,19.456001,concentric,6,3.0,31799.0,401956.0,122225.0,3346.0,-148.0
2026-04-09 22:06:18.069842,194181,1308107869,1308109364,0.72224,-0.216672,-0.040992,-24.6575,-1.2075,37.45,-24.128,13.360001,19.456001,concentric,6,3.0,31799.0,401956.0,122225.0,3346.0,-148.0
2026-04-09 22:06:18.098984,194192,1308122491,1308124294,0.71248,-0.130784,-0.052704,-23.02125,-1.65375,37.07375,-24.432001,13.336,20.192001,concentric,6,3.0,31627.0,403431.0,125315.0,4158.0,-143.0
2026-04-09 22:06:18.100665,194193,1308131448,1308133025,0.71248,-0.130784,-0.052704,-19.81875,-3.45625,33.39,-24.432001,13.336,20.192001,concentric,6,3.0,31627.0,403431.0,125315.0,4158.0,-143.0
2026-04-09 22:06:18.102240,194194,1308140382,1308141720,0.685152,-0.232288,-0.046848,-15.61875,-6.1425,31.36,-24.368002,13.928,19.92,concentric,6,3.0,31627.0,403431.0,125315.0,4158.0,-143.0
2026-04-09 22:06:18.153300,194195,1308154954,1308156738,0.704672,-0.290848,-0.076128,-12.83625,-8.5225,32.5675,-23.888,13.968,22.272001,concentric,6,3.0,31627.0,403431.0,125315.0,4158.0,-143.0
2026-04-09 22:06:18.159287,194196,1308163940,1308165448,0.704672,-0.290848,-0.076128,-13.90375,-9.24875,37.26625,-23.888,13.968,22.272001,concentric,6,3.0,31627.0,403431.0,125315.0,4158.0,-143.0
2026-04-09 22:06:18.160608,194197,1308172897,1308174128,0.704672,-0.290848,-0.076128,-22.11125,-7.6825,41.86,-23.888,13.968,22.272001,concentric,6,3.0,31627.0,403431.0,125315.0,4158.0,-143.0
2026-04-09 22:06:18.161492,194198,1308187349,1308189048,0.794464,-0.318176,-0.081984,-37.19625,-5.32875,43.0325,-22.872002,14.216001,18.248001,concentric,6,3.0,31627.0,403431.0,125315.0,4158.0,-143.0
2026-04-09 22:06:18.165250,194199,1308196317,1308197719,0.757376,-0.130784,0.003904,-38.3425,-3.885,42.74375,-22.024,14.920001,18.088001,concentric,6,3.0,31627.0,403431.0,125315.0,4158.0,-143.0
2026-04-09 22:06:18.166925,194200,1308205245,1308206411,0.757376,-0.130784,0.003904,-26.46875,-4.15625,36.04125,-22.024,14.920001,18.088001,concentric,6,3.0,31627.0,403431.0,125315.0,4158.0,-143.0
2026-04-09 22:06:18.191092,194210,1308219957,1308221718,0.774944,-0.298656,-0.113216,-18.41,-6.58,25.13875,-21.968,14.320001,18.008001,concentric,6,3.0,31560.0,403431.0,125515.0,4260.0,-156.0
2026-04-09 22:06:18.195167,194211,1308228955,1308230484,0.774944,-0.298656,-0.113216,-8.715,-10.386251,20.895,-21.968,14.320001,18.008001,concentric,6,3.0,31560.0,403431.0,125515.0,4260.0,-156.0
2026-04-09 22:06:18.196757,194212,1308237961,1308239236,0.765184,-0.41968,-0.035136,1.51375,-11.06,25.66375,-21.984001,14.664001,17.400002,concentric,6,3.0,31560.0,403431.0,125515.0,4260.0,-156.0
2026-04-09 22:06:18.203836,194213,1308246897,1308247980,0.765184,-0.41968,-0.035136,-5.13625,-9.28375,29.61875,-21.984001,14.664001,17.400002,concentric,6,3.0,31560.0,403431.0,125515.0,4260.0,-156.0
2026-04-09 22:06:18.233563,194214,1308261370,1308262887,0.827648,-0.3904,-0.066368,-19.897501,-5.39,33.6525,-22.904001,15.152,18.208,concentric,6,3.0,31560.0,403431.0,125515.0,4260.0,-156.0
2026-04-09 22:06:18.252931,194215,1308270331,1308271582,0.827648,-0.3904,-0.066368,-29.085001,-1.86375,36.4,-22.904001,15.152,18.208,concentric,6,3.0,31560.0,403431.0,125515.0,4260.0,-156.0
2026-04-09 22:06:18.254367,194216,1308279253,1308280367,0.749568,-0.26352,0.021472,-33.32,2.3975,30.31875,-21.344002,15.000001,16.800001,concentric,6,3.0,31560.0,403431.0,125515.0,4260.0,-156.0
2026-04-09 22:06:18.256831,194217,1308293719,1308295276,0.749568,-0.26352,0.021472,-21.84875,3.77125,28.32375,-21.344002,15.000001,16.800001,concentric,6,3.0,31560.0,403431.0,125515.0,4260.0,-156.0
2026-04-09 22:06:18.258329,194218,1308302659,1308303983,0.743712,-0.296704,-0.08784,-10.64,3.255,22.575,-21.224,15.488001,16.256,concentric,6,3.0,31560.0,403431.0,125515.0,4260.0,-156.0
2026-04-09 22:06:18.268998,194219,1308311636,1308312717,0.743712,-0.296704,-0.08784,-0.0175,2.03875,18.2175,-21.224,15.488001,16.256,concentric,6,3.0,31560.0,403431.0,125515.0,4260.0,-156.0
2026-04-09 22:06:18.294137,194229,1308326162,1308327671,0.65392,-0.374784,0.025376,7.035,1.89875,21.3325,-20.816002,15.408001,16.752,concentric,6,3.0,31622.0,403426.0,124530.0,3957.0,-143.0
2026-04-09 22:06:18.300202,194230,1308335145,1308336358,0.650016,-0.40016,-0.03904,3.4825,3.0275,25.41875,-21.6,15.920001,17.304,concentric,6,3.0,31622.0,403426.0,124530.0,3957.0,-143.0
2026-04-09 22:06:18.301749,194231,1308344073,1308345076,0.650016,-0.40016,-0.03904,-5.8275,4.36625,28.70875,-21.6,15.920001,17.304,concentric,6,3.0,31622.0,403426.0,124530.0,3957.0,-143.0
2026-04-09 22:06:18.307275,194232,1308352991,1308353797,0.650016,-0.40016,-0.03904,-17.31625,7.0175,30.07375,-21.6,15.920001,17.304,concentric,6,3.0,31622.0,403426.0,124530.0,3957.0,-143.0
2026-04-09 22:06:18.337342,194233,1308367479,1308368723,0.616832,-0.316224,-0.033184,-22.785,8.89,31.0625,-21.080002,15.976001,17.68,concentric,6,3.0,31622.0,403426.0,124530.0,3957.0,-143.0
2026-04-09 22:06:18.340965,194234,1308376383,1308377477,0.642208,-0.255712,-0.011712,-17.85,8.0675,29.75,-20.272001,16.488,16.232,concentric,6,3.0,31622.0,403426.0,124530.0,3957.0,-143.0
2026-04-09 22:06:18.343334,194235,1308385277,1308386179,0.642208,-0.255712,-0.011712,-8.96875,7.18375,26.241251,-20.272001,16.488,16.232,concentric,6,3.0,31622.0,403426.0,124530.0,3957.0,-143.0
2026-04-09 22:06:18.373593,194236,1308399837,1308401188,0.665632,-0.35136,-0.064416,-2.555,5.18875,24.535,-21.584002,16.496,16.984001,concentric,6,3.0,31622.0,403426.0,124530.0,3957.0,-143.0
2026-04-09 22:06:18.377184,194237,1308408741,1308409886,0.665632,-0.35136,-0.064416,-1.54875,3.5525,22.0325,-21.584002,16.496,16.984001,concentric,6,3.0,31622.0,403426.0,124530.0,3957.0,-143.0
2026-04-09 22:06:18.405172,194248,1308417749,1308418763,0.726144,-0.396256,-0.062464,-1.89,2.58125,20.88625,-20.024,16.288,15.624001,concentric,6,3.0,31830.0,403429.0,124834.0,3989.0,-141.0
2026-04-09 22:06:18.407207,194249,1308432363,1308433756,0.726144,-0.396256,-0.062464,-0.2975,0.53375,22.155,-20.024,16.288,15.624001,concentric,6,3.0,31830.0,403429.0,124834.0,3989.0,-141.0
2026-04-09 22:06:18.409712,194250,1308441362,1308442526,0.708576,-0.355264,-0.007808,-2.38875,0.735,19.81875,-19.992,16.76,15.288001,concentric,6,3.0,31830.0,403429.0,124834.0,3989.0,-141.0
2026-04-09 22:06:18.412106,194251,1308450285,1308451242,0.708576,-0.355264,-0.007808,0.1575,-0.35,19.32,-19.992,16.76,15.288001,concentric,6,3.0,31830.0,403429.0,124834.0,3989.0,-141.0
2026-04-09 22:06:18.456162,194252,1308464812,1308466261,0.747616,-0.32208,-0.01952,4.655,-1.02375,18.5325,-20.128,16.776001,15.512001,concentric,6,3.0,31830.0,403429.0,124834.0,3989.0,-141.0
2026-04-09 22:06:18.459798,194253,1308473721,1308474964,0.747616,-0.32208,-0.01952,5.6875,-0.8575,13.3175,-20.128,16.776001,15.512001,concentric,6,3.0,31830.0,403429.0,124834.0,3989.0,-141.0
2026-04-09 22:06:18.462146,194254,1308482627,1308483692,0.753472,-0.398208,-0.07808,6.65,-1.98625,10.22875,-20.176,17.544,14.496,concentric,6,3.0,31830.0,403429.0,124834.0,3989.0,-141.0
2026-04-09 22:06:18.464648,194255,1308491543,1308492397,0.753472,-0.398208,-0.07808,10.22,-2.1875,9.275,-20.176,17.544,14.496,concentric,6,3.0,31830.0,403429.0,124834.0,3989.0,-141.0
2026-04-09 22:06:18.467145,194256,1308505995,1308507324,0.813984,-0.396256,-0.050752,13.2825,-1.5575,9.54625,-19.44,17.456001,15.312,concentric,6,3.0,31830.0,403429.0,124834.0,3989.0,-141.0
2026-04-09 22:06:18.492371,194266,1308515445,1308516102,0.813984,-0.396256,-0.035136,12.66125,0.63,9.70375,-19.44,17.456001,15.312,concentric,6,3.0,31932.0,403391.0,124688.0,3916.0,-153.0
2026-04-09 22:06:18.494602,194267,1308524821,1308526957,0.806176,-0.489952,-0.035136,-1.505,4.55,3.115,-20.312,17.736,15.264001,concentric,6,3.0,31932.0,403391.0,124688.0,3916.0,-153.0
2026-04-09 22:06:18.497111,194268,1308539438,1308539859,0.851072,-0.376736,0.011712,-2.1175,6.32625,1.925,-20.576,17.464,14.952001,concentric,6,3.0,31932.0,403391.0,124688.0,3916.0,-153.0
2026-04-09 22:06:18.527432,194269,1308548731,1308550672,0.851072,-0.376736,0.011712,9.073751,7.7875,0.6825,-20.576,17.464,14.952001,concentric,6,3.0,31932.0,403391.0,124688.0,3916.0,-153.0
2026-04-09 22:06:18.530880,194270,1308557637,1308559351,0.833504,-0.41968,-0.027328,16.9225,8.68875,-3.5875,-20.056002,17.584002,15.568001,concentric,6,3.0,31932.0,403391.0,124688.0,3916.0,-153.0
2026-04-09 22:06:18.533359,194271,1308566566,1308568091,0.833504,-0.41968,-0.027328,26.01375,9.695,-6.46625,-20.056002,17.584002,15.568001,concentric,6,3.0,31932.0,403391.0,124688.0,3916.0,-153.0
2026-04-09 22:06:18.535834,194272,1308581056,1308583001,0.854976,-0.386496,0.00976,30.77375,11.31375,-10.4125,-20.704,17.768002,15.512001,concentric,6,3.0,31932.0,403391.0,124688.0,3916.0,-153.0
2026-04-09 22:06:18.567096,194273,1308589971,1308591713,0.854976,-0.386496,0.00976,34.16875,14.323751,-13.51875,-20.704,17.768002,15.512001,concentric,6,3.0,31932.0,403391.0,124688.0,3916.0,-153.0
2026-04-09 22:06:18.569272,194274,1308598919,1308600418,0.821792,-0.45872,0.064416,36.19875,17.6925,-14.35875,-20.848001,18.04,15.64,concentric,6,3.0,31932.0,403391.0,124688.0,3916.0,-153.0
2026-04-09 22:06:18.598441,194284,1308613401,1308615468,0.821792,-0.45872,0.064416,29.23375,21.8925,-14.6825,-20.848001,18.04,15.64,concentric,6,3.0,32314.0,403431.0,128014.0,4850.0,-131.0
2026-04-09 22:06:18.602679,194285,1308622398,1308624170,0.880352,-0.450912,0.054656,22.86375,25.3225,-11.0075,-20.456001,18.304,16.096,concentric,6,3.0,32314.0,403431.0,128014.0,4850.0,-131.0
2026-04-09 22:06:18.604427,194286,1308631353,1308632977,0.880352,-0.450912,0.054656,17.36875,28.7,-8.26,-20.456001,18.304,16.096,concentric,6,3.0,32314.0,403431.0,128014.0,4850.0,-131.0
2026-04-09 22:06:18.605934,194287,1308645876,1308647930,0.940864,-0.378688,0.023424,15.37375,30.12625,-7.98,-21.384,18.856,17.12,concentric,6,3.0,32314.0,403431.0,128014.0,4850.0,-131.0
2026-04-09 22:06:18.614279,194288,1308654820,1308656677,0.940864,-0.378688,0.023424,22.91625,31.08,-8.0325,-21.384,18.856,17.12,concentric,6,3.0,32314.0,403431.0,128014.0,4850.0,-131.0
2026-04-09 22:06:18.620131,194289,1308663751,1308665437,0.854976,-0.425536,0.099552,34.3525,32.2525,-7.90125,-22.896002,18.648,17.184,concentric,6,3.0,32314.0,403431.0,128014.0,4850.0,-131.0
2026-04-09 22:06:18.648532,194290,1308672740,1308674149,0.854976,-0.425536,0.099552,40.18875,32.48,-10.56125,-22.896002,18.648,17.184,concentric,6,3.0,32314.0,403431.0,128014.0,4850.0,-131.0
2026-04-09 22:06:18.653091,194291,1308687204,1308689048,0.843264,-0.394304,0.128832,42.2275,32.75125,-12.285,-22.392,18.408,17.480001,concentric,6,3.0,32314.0,403431.0,128014.0,4850.0,-131.0
2026-04-09 22:06:18.655421,194292,1308696123,1308697788,0.83936,-0.38064,0.08784,42.18375,32.75125,-10.3075,-22.392,20.456001,18.04,concentric,6,3.0,32314.0,403431.0,128014.0,4850.0,-131.0
2026-04-09 22:06:18.661269,194293,1308705131,1308706529,0.83936,-0.38064,0.08784,35.23625,33.425,-8.53125,-22.512001,18.912,18.04,concentric,6,3.0,32314.0,403431.0,128014.0,4850.0,-131.0
2026-04-09 22:06:18.717459,194304,1308719827,1308721474,0.825696,-0.363072,0.095648,28.4725,33.985,-6.41375,-22.936,18.616001,17.384,concentric,6,3.0,31999.0,403431.0,128220.0,5012.0,-130.0
2026-04-09 22:06:18.718617,194305,1308728815,1308730259,0.825696,-0.363072,0.095648,20.0725,35.105,-7.245,-22.936,18.616001,17.384,concentric,6,3.0,31999.0,403431.0,128220.0,5012.0,-130.0
2026-04-09 22:06:18.722713,194306,1308737718,1308738952,0.81984,-0.366976,0.10736,16.6425,34.3875,-10.63125,-22.632002,18.624,17.808,concentric,6,3.0,31999.0,403431.0,128220.0,5012.0,-130.0
2026-04-09 22:06:18.754816,194307,1308752363,1308753965,0.81984,-0.366976,0.10736,17.84125,32.52375,-13.83375,-22.632002,18.624,17.808,concentric,6,3.0,31999.0,403431.0,128220.0,5012.0,-130.0
2026-04-09 22:06:18.758375,194308,1308761333,1308762697,0.806176,-0.392352,0.152256,19.80125,30.1,-16.80875,-23.576,19.128,17.68,concentric,6,3.0,31999.0,403431.0,128220.0,5012.0,-130.0
2026-04-09 22:06:18.760871,194309,1308770325,1308771404,0.806176,-0.392352,0.152256,20.27375,27.71125,-19.241251,-23.576,19.128,17.68,concentric,6,3.0,31999.0,403431.0,128220.0,5012.0,-130.0
2026-04-09 22:06:18.763430,194310,1308779292,1308780150,0.825696,-0.411872,0.103456,19.64375,25.97875,-19.7225,-23.28,19.152,18.016,concentric,6,3.0,31999.0,403431.0,128220.0,5012.0,-130.0
2026-04-09 22:06:18.765887,194311,1308794331,1308795089,0.825696,-0.411872,0.103456,17.82375,25.43625,-19.7575,-23.28,19.152,18.016,concentric,6,3.0,31999.0,403431.0,128220.0,5012.0,-130.0
2026-04-09 22:06:18.768416,194312,1308803686,1308805850,0.837408,-0.40992,0.103456,14.77875,25.803751,-18.17375,-23.920002,18.960001,19.112001,concentric,6,3.0,31999.0,403431.0,128220.0,5012.0,-130.0
2026-04-09 22:06:18.770842,194313,1308812716,1308814560,0.837408,-0.40992,0.103456,11.025,25.55875,-16.58125,-23.920002,18.960001,19.112001,concentric,6,3.0,31999.0,403431.0,128220.0,5012.0,-130.0
2026-04-09 22:06:18.796261,194323,1308821832,1308823340,0.886208,-0.49776,0.0976,8.67125,24.68375,-17.15875,-24.288002,18.784,18.696001,concentric,6,3.0,31910.0,403431.0,125497.0,4226.0,-146.0
2026-04-09 22:06:18.798679,194324,1308836397,1308838323,0.886208,-0.415776,0.152256,6.69375,23.2575,-19.425,-24.288002,18.784,18.696001,concentric,6,3.0,31910.0,403431.0,125497.0,4226.0,-146.0
2026-04-09 22:06:18.801890,194325,1308845335,1308847053,0.944768,-0.415776,0.152256,14.0525,21.53375,-18.6025,-24.472002,19.112001,18.192001,concentric,6,3.0,31910.0,403431.0,125497.0,4226.0,-146.0
2026-04-09 22:06:18.832383,194326,1308854309,1308855802,0.944768,-0.415776,0.152256,16.485,20.72875,-20.74625,-24.472002,19.112001,18.192001,concentric,6,3.0,31910.0,403431.0,125497.0,4226.0,-146.0
2026-04-09 22:06:18.835962,194327,1308868779,1308870681,0.991616,-0.484096,0.105408,13.5625,20.39625,-23.77375,-26.080002,18.76,18.608002,concentric,6,3.0,31910.0,403431.0,125497.0,4226.0,-146.0
2026-04-09 22:06:18.838385,194328,1308877700,1308879412,1.003328,-0.523136,0.122976,12.01375,20.57125,-23.16125,-25.016,19.264002,18.248001,concentric,6,3.0,31910.0,403431.0,125497.0,4226.0,-146.0
2026-04-09 22:06:18.840968,194329,1308886644,1308888116,1.003328,-0.523136,0.122976,9.47625,20.43125,-21.95375,-25.016,19.264002,18.248001,concentric,6,3.0,31910.0,403431.0,125497.0,4226.0,-146.0
2026-04-09 22:06:18.871084,194330,1308901180,1308903035,1.01504,-0.52704,0.134688,7.23625,20.195,-18.8825,-26.088001,18.344002,19.080002,concentric,6,3.0,31910.0,403431.0,125497.0,4226.0,-146.0
2026-04-09 22:06:18.874644,194331,1308910081,1308911736,1.01504,-0.52704,0.134688,3.185,19.8275,-16.26625,-26.088001,18.344002,19.080002,concentric,6,3.0,31910.0,403431.0,125497.0,4226.0,-146.0
2026-04-09 22:06:18.935854,194341,1308919717,1308920529,1.020896,-0.521184,0.16592,1.6975,19.460001,-14.72625,-25.304,18.624,18.712002,concentric,6,3.0,31970.0,402056.0,122899.0,3534.0,-137.0
2026-04-09 22:06:18.938433,194342,1308929263,1308931343,1.020896,-0.521184,0.16592,2.2575,18.2875,-14.28,-25.304,18.624,18.712002,concentric,6,3.0,31970.0,402056.0,122899.0,3534.0,-137.0
2026-04-09 22:06:18.940921,194343,1308943767,1308944182,1.003328,-0.503616,0.177632,3.61375,17.07125,-13.448751,-26.104002,18.736,19.256,concentric,6,3.0,31970.0,402056.0,122899.0,3534.0,-137.0
2026-04-09 22:06:18.943399,194344,1308953040,1308954940,1.003328,-0.503616,0.177632,4.59375,16.10875,-12.985,-26.104002,18.736,19.256,concentric,6,3.0,31970.0,402056.0,122899.0,3534.0,-137.0
2026-04-09 22:06:18.945891,194345,1308962021,1308963654,0.96624,-0.476288,0.189344,4.66375,15.015,-11.9875,-26.312002,19.088001,19.240002,concentric,6,3.0,31970.0,402056.0,122899.0,3534.0,-137.0
2026-04-09 22:06:18.948430,194346,1308971092,1308972400,0.96624,-0.476288,0.189344,3.57875,14.35875,-10.00125,-26.312002,19.088001,19.240002,concentric,6,3.0,31970.0,402056.0,122899.0,3534.0,-137.0
2026-04-09 22:06:18.950910,194347,1308985684,1308987360,0.901824,-0.460672,0.169824,0.16625,13.79875,-8.1725,-26.960001,18.832,20.240002,concentric,6,3.0,31970.0,402056.0,122899.0,3534.0,-137.0
2026-04-09 22:06:18.953520,194348,1308994613,1308996093,0.901824,-0.460672,0.169824,-1.61,12.985,-6.65,-26.960001,18.832,20.240002,concentric,6,3.0,31970.0,402056.0,122899.0,3534.0,-137.0
2026-04-09 22:06:18.960518,194349,1309003570,1309004814,0.864736,-0.423584,0.150304,-0.14,11.095,-4.9525,-26.672,18.936,20.344002,concentric,6,3.0,31970.0,402056.0,122899.0,3534.0,-137.0
2026-04-09 22:06:19.019638,194360,1309018591,1309019941,0.833504,-0.3904,0.15616,-0.5075,9.98375,-2.415,-26.512001,18.376001,21.36,concentric,6,3.0,31832.0,403326.0,124624.0,4023.0,-137.0
2026-04-09 22:06:19.056160,194361,1309027778,1309028750,0.833504,-0.3904,0.15616,-1.6275,9.05625,0.07,-26.512001,18.376001,21.36,concentric,6,3.0,31832.0,403326.0,124624.0,4023.0,-137.0
2026-04-09 22:06:19.059732,194362,1309036724,1309037439,0.833504,-0.3904,0.15616,-2.63375,8.21625,2.1,-26.512001,18.376001,21.36,concentric,6,3.0,31832.0,403326.0,124624.0,4023.0,-137.0
2026-04-09 22:06:19.062178,194363,1309046043,1309048186,0.802272,-0.337696,0.148352,-5.99375,7.32375,2.54625,-26.352001,18.464,21.2,concentric,6,3.0,31832.0,403326.0,124624.0,4023.0,-137.0
2026-04-09 22:06:19.064657,194364,1309060542,1309061116,0.769088,-0.304512,0.13664,-9.75625,6.09,1.63625,-25.608002,18.76,18.776001,concentric,6,3.0,31832.0,403326.0,124624.0,4023.0,-137.0
2026-04-09 22:06:19.067155,194365,1309070121,1309071890,0.769088,-0.304512,0.13664,-11.515,5.2325,1.51375,-25.608002,18.76,18.776001,concentric,6,3.0,31832.0,403326.0,124624.0,4023.0,-137.0
2026-04-09 22:06:19.069631,194366,1309079055,1309080605,0.743712,-0.327936,0.134688,-13.72875,4.1125,0.53375,-26.12,18.944,18.688002,concentric,6,3.0,31832.0,403326.0,124624.0,4023.0,-137.0
2026-04-09 22:06:19.072175,194367,1309087979,1309089305,0.743712,-0.327936,0.134688,-16.94,3.3425,-0.51625,-26.12,18.944,18.688002,concentric,6,3.0,31832.0,403326.0,124624.0,4023.0,-137.0
2026-04-09 22:06:19.074676,194368,1309102437,1309104220,0.724192,-0.308416,0.119072,-18.4975,3.68375,-0.8925,-25.936,18.68,18.472,concentric,6,3.0,31832.0,403326.0,124624.0,4023.0,-137.0
2026-04-09 22:06:19.077145,194369,1309111382,1309112921,0.724192,-0.308416,0.119072,-18.585001,2.70375,-0.805,-25.936,18.68,18.472,concentric,6,3.0,31832.0,403326.0,124624.0,4023.0,-137.0
2026-04-09 22:06:19.102161,194379,1309120934,1309121701,0.716384,-0.325984,0.0976,-18.41875,1.8025,-1.225,-25.736002,18.728,18.528002,concentric,6,3.0,31797.0,403431.0,125473.0,4252.0,-146.0
2026-04-09 22:06:19.104672,194380,1309135980,1309136642,0.716384,-0.325984,0.0976,-17.675,0.8575,-1.21625,-25.736002,18.728,18.528002,concentric,6,3.0,31797.0,403431.0,125473.0,4252.0,-146.0
2026-04-09 22:06:19.107840,194381,1309145270,1309147486,0.730048,-0.36112,0.08784,-15.225,-1.085,-1.4,-26.368002,18.672,17.528002,eccentric,6,3.0,31797.0,403431.0,125473.0,4252.0,-146.0
2026-04-09 22:06:19.109650,194382,1309154199,1309156214,0.730048,-0.36112,0.08784,-13.02,-2.6775,-1.82,-26.368002,18.672,17.528002,eccentric,6,3.0,31797.0,403431.0,125473.0,4252.0,-146.0
2026-04-09 22:06:19.140036,194383,1309163155,1309164941,0.782752,-0.347456,0.076128,-12.53875,-4.0425,-2.625,-26.048,18.896002,18.072,eccentric,6,3.0,31797.0,403431.0,125473.0,4252.0,-146.0
2026-04-09 22:06:19.143463,194384,1309177633,1309179875,0.782752,-0.36112,0.081984,-11.095,-4.71625,-2.905,-26.048,18.896002,18.072,eccentric,6,3.0,31797.0,403431.0,125473.0,4252.0,-146.0
2026-04-09 22:06:19.145846,194385,1309186541,1309188569,0.874496,-0.36112,0.081984,-11.57625,-5.17125,-3.43,-25.904001,18.768002,16.264,eccentric,6,3.0,31797.0,403431.0,125473.0,4252.0,-146.0
2026-04-09 22:06:19.150988,194386,1309195497,1309197313,0.874496,-0.36112,0.081984,-11.80375,-5.4775,-3.955,-25.904001,18.768002,16.264,eccentric,6,3.0,31797.0,403431.0,125473.0,4252.0,-146.0
2026-04-09 22:06:19.181183,194387,1309209978,1309212256,0.921344,-0.470432,0.122976,-12.7225,-6.51,-5.355,-27.288002,18.936,18.424002,eccentric,6,3.0,31797.0,403431.0,125473.0,4252.0,-146.0
2026-04-09 22:06:19.213452,194397,1309219527,1309221127,1.069696,-0.564128,-0.06832,-13.1775,-9.89625,-7.51625,-25.408,18.632,16.28,eccentric,6,3.0,31838.0,403431.0,125805.0,4335.0,-141.0
2026-04-09 22:06:19.215948,194398,1309228516,1309229966,1.069696,-0.564128,-0.06832,-7.28,-13.72875,-8.6625,-25.408,18.632,16.28,eccentric,6,3.0,31838.0,403431.0,125805.0,4335.0,-141.0
2026-04-09 22:06:19.221816,194399,1309237445,1309238720,1.069696,-0.564128,-0.06832,0.48125,-17.33375,-7.53375,-25.408,18.632,16.28,eccentric,6,3.0,31838.0,403431.0,125805.0,4335.0,-141.0
2026-04-09 22:06:19.221872,194400,1309251962,1309253735,1.139968,-0.677344,0.148352,5.67,-19.88,-1.2775,-25.392002,18.736,18.608002,eccentric,6,3.0,31838.0,403431.0,125805.0,4335.0,-141.0
2026-04-09 22:06:19.223526,194401,1309260909,1309262458,1.1712,-0.650016,0.122976,-1.09375,-20.65875,4.96125,-26.064001,18.416,18.264,eccentric,6,3.0,31838.0,403431.0,125805.0,4335.0,-141.0
2026-04-09 22:06:19.225876,194402,1309269833,1309271169,1.1712,-0.650016,0.122976,-10.885,-20.8075,8.46125,-26.064001,18.416,18.264,eccentric,6,3.0,31838.0,403431.0,125805.0,4335.0,-141.0
2026-04-09 22:06:19.256212,194403,1309284328,1309286087,1.194624,-0.620736,0.031232,-12.27625,-22.91625,10.675,-25.6,18.832,17.744001,eccentric,6,3.0,31838.0,403431.0,125805.0,4335.0,-141.0
2026-04-09 22:06:19.259681,194404,1309293257,1309294809,1.194624,-0.620736,0.031232,-8.21625,-27.265,11.87375,-25.6,18.832,17.744001,eccentric,6,3.0,31838.0,403431.0,125805.0,4335.0,-141.0
2026-04-09 22:06:19.262170,194405,1309302180,1309303496,1.110688,-0.657824,0.085888,-2.485,-31.57,13.7375,-24.704,18.496,16.584002,eccentric,6,3.0,31838.0,403431.0,125805.0,4335.0,-141.0
2026-04-09 22:06:19.292532,194406,1309316789,1309318383,1.110688,-0.657824,0.085888,0.595,-34.51875,14.98875,-24.704,18.496,16.584002,eccentric,6,3.0,31838.0,403431.0,125805.0,4335.0,-141.0
2026-04-09 22:06:19.360414,194417,1309325716,1309327170,1.046272,-0.59536,0.072224,2.91375,-36.30375,15.68,-25.408,18.984001,16.880001,eccentric,6,3.0,31774.0,403431.0,129435.0,5524.0,-148.0
2026-04-09 22:06:19.363503,194418,1309334635,1309335879,1.046272,-0.59536,0.072224,4.48,-36.63625,15.75875,-25.408,18.984001,16.880001,eccentric,6,3.0,31774.0,403431.0,129435.0,5524.0,-148.0
2026-04-09 22:06:19.365920,194419,1309343535,1309344599,0.944768,-0.521184,0.10736,2.6425,-34.895,16.10875,-23.840002,19.400002,16.096,eccentric,6,3.0,31774.0,403431.0,129435.0,5524.0,-148.0
2026-04-09 22:06:19.368437,194420,1309358022,1309359569,0.944768,-0.521184,0.044896,-1.18125,-32.1125,17.03625,-23.840002,19.400002,16.096,eccentric,6,3.0,31774.0,403431.0,129435.0,5524.0,-148.0
2026-04-09 22:06:19.370912,194421,1309366950,1309368279,0.913536,-0.493856,0.040992,-4.2175,-29.942501,17.71875,-23.840002,19.056002,15.696001,eccentric,6,3.0,31774.0,403431.0,129435.0,5524.0,-148.0
2026-04-09 22:06:19.373394,194422,1309375948,1309377028,0.913536,-0.493856,0.040992,-3.07125,-27.685,18.68125,-23.840002,19.056002,15.696001,eccentric,6,3.0,31774.0,403431.0,129435.0,5524.0,-148.0
2026-04-09 22:06:19.375965,194423,1309390403,1309391956,0.862784,-0.454816,0.05856,-0.4375,-25.55875,18.165,-22.944,18.928001,15.936001,eccentric,6,3.0,31774.0,403431.0,129435.0,5524.0,-148.0
2026-04-09 22:06:19.378490,194424,1309399295,1309400653,0.81008,-0.49776,0.037088,-2.73,-23.0475,14.980001,-22.640001,19.160002,16.16,eccentric,6,3.0,31774.0,403431.0,129435.0,5524.0,-148.0
2026-04-09 22:06:19.380913,194425,1309408209,1309409349,0.81008,-0.49776,0.037088,-3.22,-20.20375,11.94375,-22.640001,19.160002,16.16,eccentric,6,3.0,31774.0,403431.0,129435.0,5524.0,-148.0
2026-04-09 22:06:19.413964,194435,1309423201,1309424306,0.804224,-0.427488,0.040992,1.015,-17.08,10.01,-22.2,18.904001,16.08,eccentric,6,3.0,31960.0,403431.0,131025.0,6081.0,-148.0
2026-04-09 22:06:19.415717,194436,1309432243,1309433106,0.804224,-0.427488,0.040992,5.67875,-15.07625,9.24,-22.2,18.904001,16.08,eccentric,6,3.0,31960.0,403431.0,131025.0,6081.0,-148.0
2026-04-09 22:06:19.417256,194437,1309441179,1309441890,0.782752,-0.415776,0.035136,5.38125,-11.75125,8.417501,-21.456001,18.880001,16.112001,eccentric,6,3.0,31960.0,403431.0,131025.0,6081.0,-148.0
2026-04-09 22:06:19.421499,194438,1309450550,1309452687,0.782752,-0.415776,0.035136,2.8525,-9.2575,5.62625,-21.456001,18.880001,16.112001,eccentric,6,3.0,31960.0,403431.0,131025.0,6081.0,-148.0
2026-04-09 22:06:19.423895,194439,1309465022,1309465527,0.788608,-0.445056,-0.013664,3.8325,-7.49875,2.40625,-21.264002,18.968,16.504002,eccentric,6,3.0,31960.0,403431.0,131025.0,6081.0,-148.0
2026-04-09 22:06:19.452634,194440,1309474404,1309476291,0.788608,-0.445056,-0.013664,6.265,-7.13125,-1.19875,-21.264002,18.968,16.504002,eccentric,6,3.0,31960.0,403431.0,131025.0,6081.0,-148.0
2026-04-09 22:06:19.456905,194441,1309483383,1309485072,0.772992,-0.462624,0.017568,6.5625,-6.85125,-5.38125,-22.232,19.176,17.736,eccentric,6,3.0,31960.0,403431.0,131025.0,6081.0,-148.0
2026-04-09 22:06:19.458381,194442,1309497833,1309500101,0.772992,-0.462624,0.017568,11.01625,-7.34125,-5.4775,-22.232,19.176,17.736,eccentric,6,3.0,31960.0,403431.0,131025.0,6081.0,-148.0
2026-04-09 22:06:19.465279,194443,1309506709,1309508820,0.788608,-0.413824,0.035136,12.32875,-6.93875,-7.14,-21.152,19.008001,16.672,eccentric,6,3.0,31960.0,403431.0,131025.0,6081.0,-148.0
2026-04-09 22:06:19.493627,194444,1309515651,1309517633,0.788608,-0.413824,0.035136,13.1075,-5.5475,-8.8725,-21.152,19.008001,16.672,eccentric,6,3.0,31960.0,403431.0,131025.0,6081.0,-148.0
2026-04-09 22:06:19.520856,194454,1309530205,1309530603,0.81008,-0.415776,0.017568,9.8525,-2.94875,-9.8875,-21.256,18.960001,17.232,eccentric,6,3.0,31806.0,403431.0,129824.0,5675.0,-143.0
2026-04-09 22:06:19.524704,194455,1309539451,1309541365,0.808128,-0.388448,0.003904,8.46125,-0.07875,-10.71875,-21.256,18.864,17.504002,eccentric,6,3.0,31806.0,403431.0,129824.0,5675.0,-143.0
2026-04-09 22:06:19.524834,194456,1309548400,1309550109,0.808128,-0.388448,0.003904,9.1,1.84625,-11.47125,-20.28,18.864,17.504002,eccentric,6,3.0,31806.0,403431.0,129824.0,5675.0,-143.0
2026-04-09 22:06:19.528965,194457,1309557346,1309558843,0.808128,-0.388448,0.003904,3.5175,3.08875,-15.33,-20.28,18.864,17.504002,eccentric,6,3.0,31806.0,403431.0,129824.0,5675.0,-143.0
2026-04-09 22:06:19.530583,194458,1309571890,1309573764,0.853024,-0.382592,-0.0488,2.4675,2.6425,-16.47625,-21.624,18.552,17.68,eccentric,6,3.0,31806.0,403431.0,129824.0,5675.0,-143.0
2026-04-09 22:06:19.536933,194459,1309580827,1309582535,0.776896,-0.415776,0.099552,6.5975,3.28125,-16.05625,-21.848001,18.384,18.256,eccentric,6,3.0,31806.0,403431.0,129824.0,5675.0,-143.0
2026-04-09 22:06:19.567062,194460,1309589768,1309591251,0.776896,-0.415776,0.099552,4.57625,6.0375,-16.415,-21.848001,18.384,18.256,eccentric,6,3.0,31806.0,403431.0,129824.0,5675.0,-143.0
2026-04-09 22:06:19.571826,194461,1309604256,1309606145,0.841312,-0.288896,0.005856,1.0675,7.69125,-15.14625,-20.488,18.240002,17.68,eccentric,6,3.0,31806.0,403431.0,129824.0,5675.0,-143.0
2026-04-09 22:06:19.573279,194462,1309613164,1309614859,0.841312,-0.288896,0.005856,-1.19,9.42375,-17.10625,-20.488,18.240002,17.68,eccentric,6,3.0,31806.0,403431.0,129824.0,5675.0,-143.0
2026-04-09 22:06:19.602824,194473,1309622717,1309624071,0.812032,-0.394304,-0.050752,-1.75,9.45875,-22.39125,-22.000002,18.368,18.896002,eccentric,6,3.0,31715.0,403431.0,126718.0,4593.0,-145.0
2026-04-09 22:06:19.606453,194474,1309631840,1309632877,0.812032,-0.394304,-0.050752,-1.505,6.8775,-28.55125,-22.000002,18.368,18.896002,eccentric,6,3.0,31715.0,403431.0,126718.0,4593.0,-145.0
2026-04-09 22:06:19.608205,194475,1309646384,1309647841,0.778848,-0.38064,0.050752,7.0175,1.81125,-29.82,-21.232,18.704,18.056002,eccentric,6,3.0,31715.0,403431.0,126718.0,4593.0,-145.0
2026-04-09 22:06:19.610095,194476,1309655360,1309656529,0.778848,-0.38064,0.050752,15.09375,-0.76125,-26.9675,-21.232,18.704,18.056002,eccentric,6,3.0,31715.0,403431.0,126718.0,4593.0,-145.0
2026-04-09 22:06:19.654606,194477,1309664320,1309665237,0.728096,-0.333792,0.081984,9.8525,-1.21625,-26.565,-21.752,17.976002,18.064001,eccentric,6,3.0,31715.0,403431.0,126718.0,4593.0,-145.0
2026-04-09 22:06:19.656884,194478,1309678828,1309680163,0.728096,-0.333792,0.081984,3.5525,-0.37625,-24.115,-21.752,17.976002,18.064001,eccentric,6,3.0,31715.0,403431.0,126718.0,4593.0,-145.0
2026-04-09 22:06:19.661522,194479,1309687735,1309688873,0.75152,-0.286944,-0.007808,-1.67125,-0.04375,-25.62875,-20.824001,17.432001,18.216002,eccentric,6,3.0,31715.0,403431.0,126718.0,4593.0,-145.0
2026-04-09 22:06:19.663988,194480,1309696653,1309697549,0.75152,-0.286944,-0.007808,-2.87875,-0.41125,-29.40875,-20.824001,17.432001,18.216002,eccentric,6,3.0,31715.0,403431.0,126718.0,4593.0,-145.0
2026-04-09 22:06:19.667582,194481,1309711129,1309712486,0.763232,-0.421632,0.011712,1.855,-0.6475,-31.6225,-20.656,17.336,18.096,eccentric,6,3.0,31715.0,403431.0,126718.0,4593.0,-145.0
2026-04-09 22:06:19.696254,194482,1309720072,1309721220,0.735904,-0.327936,0.119072,3.7275,0.07,-33.8625,-20.656,17.336,21.144001,eccentric,6,3.0,31715.0,403431.0,126718.0,4593.0,-145.0
2026-04-09 22:06:19.726168,194492,1309728991,1309729969,0.735904,-0.327936,0.119072,7.245,1.225,-30.93125,-21.168001,16.592001,21.144001,eccentric,6,3.0,31918.0,401035.0,121135.0,3032.0,-146.0
2026-04-09 22:06:19.730253,194493,1309737937,1309738791,0.735904,-0.327936,0.119072,6.15125,3.1675,-29.19875,-21.168001,16.592001,21.144001,eccentric,6,3.0,31918.0,401035.0,121135.0,3032.0,-146.0
2026-04-09 22:06:19.731978,194494,1309752444,1309753778,0.716384,-0.286944,0.035136,-0.76125,4.03375,-30.68625,-21.584002,17.056002,18.488,eccentric,6,3.0,31918.0,401035.0,121135.0,3032.0,-146.0
2026-04-09 22:06:19.733510,194495,1309761391,1309762477,0.772992,-0.431392,-0.056608,-5.635,3.64,-31.24625,-21.824001,16.712,17.536001,eccentric,6,3.0,31918.0,401035.0,121135.0,3032.0,-146.0
2026-04-09 22:06:19.737617,194496,1309770334,1309771217,0.772992,-0.431392,-0.056608,-5.845,3.955,-32.85625,-21.824001,16.712,17.536001,eccentric,6,3.0,31918.0,401035.0,121135.0,3032.0,-146.0
2026-04-09 22:06:19.740555,194497,1309784844,1309786171,0.778848,-0.333792,0.050752,-5.32875,5.95875,-34.55375,-22.648,16.800001,20.928001,eccentric,6,3.0,31918.0,401035.0,121135.0,3032.0,-146.0
2026-04-09 22:06:19.773339,194498,1309793778,1309794887,0.778848,-0.333792,0.050752,1.12875,7.72625,-32.2875,-22.648,16.800001,20.928001,eccentric,6,3.0,31918.0,401035.0,121135.0,3032.0,-146.0
2026-04-09 22:06:19.777760,194499,1309802797,1309803581,0.772992,-0.251808,0.06832,2.0825,9.8,-32.64625,-22.032001,16.392,18.232,eccentric,6,3.0,31918.0,401035.0,121135.0,3032.0,-146.0
2026-04-09 22:06:19.779483,194500,1309817326,1309818532,0.772992,-0.251808,0.06832,-2.70375,11.17375,-35.13125,-22.032001,16.392,18.232,eccentric,6,3.0,31918.0,401035.0,121135.0,3032.0,-146.0
2026-04-09 22:06:19.805892,194510,1309826364,1309827332,0.726144,-0.366976,0.060512,-5.53875,12.005,-36.6975,-22.208,15.880001,18.752,eccentric,6,3.0,31879.0,401088.0,121134.0,3067.0,-154.0
2026-04-09 22:06:19.808463,194511,1309835458,1309836083,0.726144,-0.366976,0.060512,-3.71,12.15375,-37.1175,-22.208,15.880001,18.752,eccentric,6,3.0,31879.0,401088.0,121134.0,3067.0,-154.0
2026-04-09 22:06:19.810902,194512,1309844783,1309846893,0.698816,-0.445056,0.001952,-0.8225,12.845,-35.385,-23.856,15.856001,20.168001,eccentric,6,3.0,31879.0,401088.0,121134.0,3067.0,-154.0
2026-04-09 22:06:19.813521,194513,1309859324,1309859812,0.698816,-0.445056,0.001952,-0.525,13.4575,-33.1975,-23.856,15.856001,20.168001,eccentric,6,3.0,31879.0,401088.0,121134.0,3067.0,-154.0
2026-04-09 22:06:19.844855,194514,1309868785,1309870615,0.763232,-0.267424,0.02928,-1.05,14.945,-31.911251,-22.936,15.224001,19.808,eccentric,6,3.0,31879.0,401088.0,121134.0,3067.0,-154.0
2026-04-09 22:06:19.847243,194515,1309877720,1309879323,0.763232,-0.267424,0.02928,-2.345,17.08,-32.87375,-22.936,15.224001,19.808,eccentric,6,3.0,31879.0,401088.0,121134.0,3067.0,-154.0
2026-04-09 22:06:19.849625,194516,1309892273,1309894203,0.767136,-0.220576,0.08784,0.74375,18.1825,-37.415,-22.792002,14.992001,19.152,eccentric,6,3.0,31879.0,401088.0,121134.0,3067.0,-154.0
2026-04-09 22:06:19.856079,194517,1309901190,1309902884,0.730048,-0.413824,0.101504,2.835,17.66625,-44.23125,-22.400002,14.792001,19.856,eccentric,6,3.0,31879.0,401088.0,121134.0,3067.0,-154.0
2026-04-09 22:06:19.886148,194518,1309910143,1309911614,0.730048,-0.413824,0.101504,9.8875,16.66875,-46.0425,-22.400002,14.792001,19.856,eccentric,6,3.0,31879.0,401088.0,121134.0,3067.0,-154.0
2026-04-09 22:06:19.889721,194519,1309919043,1309920310,0.730048,-0.413824,0.101504,17.19375,16.19625,-41.78125,-22.400002,14.792001,19.856,eccentric,6,3.0,31879.0,401088.0,121134.0,3067.0,-154.0
2026-04-09 22:06:19.914666,194529,1309933802,1309935259,0.675392,-0.454816,0.017568,14.79625,16.765,-37.0825,-22.912,15.368001,18.728,eccentric,6,3.0,31847.0,401488.0,121605.0,3193.0,-148.0
2026-04-09 22:06:19.918063,194530,1309942792,1309943996,0.726144,-0.130784,-0.042944,5.94125,16.616251,-34.965,-23.072,14.648001,20.528002,eccentric,6,3.0,31847.0,401488.0,121605.0,3193.0,-148.0
2026-04-09 22:06:19.921553,194531,1309951760,1309952752,0.726144,-0.130784,-0.042944,8.9425,15.49625,-30.75625,-23.072,14.648001,20.528002,eccentric,6,3.0,31847.0,401488.0,121605.0,3193.0,-148.0
2026-04-09 22:06:19.922430,194532,1309966267,1309967684,0.71248,-0.128832,0.074176,12.985,15.225,-32.78625,-24.272001,14.472001,21.328001,eccentric,6,3.0,31847.0,401488.0,121605.0,3193.0,-148.0
2026-04-09 22:06:19.958716,194533,1309975216,1309976404,0.71248,-0.128832,0.074176,9.9925,16.87875,-38.56125,-24.272001,14.472001,21.328001,eccentric,6,3.0,31847.0,401488.0,121605.0,3193.0,-148.0
2026-04-09 22:06:19.964736,194534,1309984126,1309985091,0.675392,-0.427488,0.154208,8.74125,16.45875,-41.48375,-23.336,14.104001,20.624,eccentric,6,3.0,31847.0,401488.0,121605.0,3193.0,-148.0
2026-04-09 22:06:19.967212,194535,1309998603,1310000044,0.675392,-0.427488,0.154208,12.90625,15.846251,-40.92375,-23.336,14.104001,20.624,eccentric,6,3.0,31847.0,401488.0,121605.0,3193.0,-148.0
2026-04-09 22:06:19.969674,194536,1310007540,1310008772,0.675392,-0.304512,-0.021472,14.65625,14.971251,-36.68875,-23.448002,14.392001,20.84,eccentric,6,3.0,31847.0,401488.0,121605.0,3193.0,-148.0
2026-04-09 22:06:19.972209,194537,1310016423,1310017497,0.675392,-0.304512,-0.021472,11.935,12.52125,-29.9775,-23.448002,14.392001,20.84,eccentric,6,3.0,31847.0,401488.0,121605.0,3193.0,-148.0
2026-04-09 22:06:20.014378,194548,1310025955,1310026450,0.747616,-0.105408,-0.054656,7.7,10.85875,-26.7225,-24.448002,13.8,21.928001,eccentric,6,3.0,31613.0,403263.0,123993.0,3861.0,-144.0
2026-04-09 22:06:20.015969,194549,1310040943,1310041604,0.747616,-0.152256,0.130784,6.8425,9.84375,-25.71625,-24.448002,13.8,21.928001,eccentric,6,3.0,31613.0,403263.0,123993.0,3861.0,-144.0
2026-04-09 22:06:20.020276,194550,1310050396,1310052452,0.714432,-0.144448,0.130784,7.5775,10.5175,-30.178751,-23.536001,13.568001,20.408,eccentric,6,3.0,31613.0,403263.0,123993.0,3861.0,-144.0
2026-04-09 22:06:20.021937,194551,1310059312,1310061146,0.714432,-0.144448,0.130784,11.042501,10.535,-35.91,-23.536001,13.568001,20.408,eccentric,6,3.0,31613.0,403263.0,123993.0,3861.0,-144.0
2026-04-09 22:06:20.023527,194552,1310068249,1310069844,0.704672,-0.298656,0.066368,19.1275,10.465,-39.20875,-24.096,13.896001,21.288,eccentric,6,3.0,31613.0,403263.0,123993.0,3861.0,-144.0
2026-04-09 22:06:20.054589,194553,1310082749,1310084763,0.737856,-0.314272,0.01952,20.991251,9.63375,-38.01,-24.288002,13.552001,22.736002,eccentric,6,3.0,31613.0,403263.0,123993.0,3861.0,-144.0
2026-04-09 22:06:20.056930,194554,1310091699,1310093465,0.737856,-0.314272,0.01952,17.33375,9.79125,-33.25,-24.288002,13.552001,22.736002,eccentric,6,3.0,31613.0,403263.0,123993.0,3861.0,-144.0
2026-04-09 22:06:20.061450,194555,1310100616,1310102152,0.737856,-0.314272,0.01952,11.261251,11.480001,-27.67625,-24.288002,13.552001,22.736002,eccentric,6,3.0,31613.0,403263.0,123993.0,3861.0,-144.0
2026-04-09 22:06:20.089918,194556,1310115140,1310117122,0.753472,-0.015616,0.0976,10.36,13.64125,-28.07,-24.456001,13.272,21.448002,eccentric,6,3.0,31613.0,403263.0,123993.0,3861.0,-144.0
2026-04-09 22:06:20.116965,194566,1310124552,1310125861,0.728096,-0.284992,0.027328,10.22,14.9975,-35.4725,-24.800001,12.888001,21.864,eccentric,6,3.0,31602.0,403423.0,124604.0,4043.0,-140.0
2026-04-09 22:06:20.118557,194567,1310133502,1310134630,0.728096,-0.284992,0.027328,15.68875,13.22125,-40.1625,-24.800001,12.888001,21.864,eccentric,6,3.0,31602.0,403423.0,124604.0,4043.0,-140.0
2026-04-09 22:06:20.122777,194568,1310148202,1310149577,0.757376,-0.298656,0.031232,26.74875,9.65125,-39.10375,-24.704,12.384001,21.792002,eccentric,6,3.0,31602.0,403423.0,124604.0,4043.0,-140.0
2026-04-09 22:06:20.124406,194569,1310157199,1310158320,0.757376,-0.298656,0.031232,29.723751,7.4025,-32.445,-24.704,12.384001,21.792002,eccentric,6,3.0,31602.0,403423.0,124604.0,4043.0,-140.0
2026-04-09 22:06:20.126008,194570,1310166117,1310167015,0.765184,-0.208864,0.074176,18.7775,6.83375,-24.92,-25.104002,11.920001,21.632002,eccentric,6,3.0,31602.0,403423.0,124604.0,4043.0,-140.0
2026-04-09 22:06:20.130122,194571,1310175029,1310175824,0.765184,-0.208864,0.074176,9.93125,7.175,-19.57375,-25.104002,11.920001,21.632002,eccentric,6,3.0,31602.0,403423.0,124604.0,4043.0,-140.0
2026-04-09 22:06:20.175866,194572,1310189990,1310190743,0.767136,-0.11712,0.031232,8.4875,6.97375,-18.27,-25.184002,12.064,22.376001,eccentric,6,3.0,31602.0,403423.0,124604.0,4043.0,-140.0
2026-04-09 22:06:20.178129,194573,1310199333,1310201504,0.767136,-0.11712,0.031232,10.12375,5.25875,-22.46125,-25.184002,12.064,22.376001,eccentric,6,3.0,31602.0,403423.0,124604.0,4043.0,-140.0
2026-04-09 22:06:20.182754,194574,1310208230,1310210237,0.772992,-0.267424,0.001952,14.28875,2.1,-25.76,-25.224,12.368001,22.248001,eccentric,6,3.0,31602.0,403423.0,124604.0,4043.0,-140.0
2026-04-09 22:06:20.184530,194575,1310217166,1310218964,0.772992,-0.267424,0.001952,20.9475,-1.07625,-24.54375,-25.224,12.368001,22.248001,eccentric,6,3.0,31602.0,403423.0,124604.0,4043.0,-140.0
2026-04-09 22:06:20.208542,194585,1310231719,1310233947,0.808128,-0.226432,0.07808,21.455,-1.28625,-20.65,-24.976002,12.528001,22.472,eccentric,6,3.0,31603.0,403385.0,124363.0,3954.0,-144.0
2026-04-09 22:06:20.212781,194586,1310240665,1310242694,0.808128,-0.226432,0.07808,15.07625,1.12875,-17.605,-24.976002,12.528001,22.472,eccentric,6,3.0,31603.0,403385.0,124363.0,3954.0,-144.0
2026-04-09 22:06:20.215220,194587,1310249675,1310251399,0.808128,-0.152256,0.085888,7.34125,5.53875,-17.675,-25.424002,12.064,23.456001,eccentric,6,3.0,31603.0,403385.0,124363.0,3954.0,-144.0
2026-04-09 22:06:20.254960,194588,1310264174,1310266308,0.782752,-0.206912,0.007808,3.00125,7.74375,-20.86875,-26.160002,12.200001,23.744001,eccentric,6,3.0,31603.0,403385.0,124363.0,3954.0,-144.0
2026-04-09 22:06:20.258549,194589,1310273163,1310275014,0.782752,-0.206912,0.007808,9.065,6.5275,-23.17,-26.160002,12.200001,23.744001,eccentric,6,3.0,31603.0,403385.0,124363.0,3954.0,-144.0
2026-04-09 22:06:20.266536,194590,1310282122,1310283720,0.782752,-0.226432,0.017568,18.43625,3.22,-23.24875,-26.160002,12.200001,21.696001,eccentric,6,3.0,31603.0,403385.0,124363.0,3954.0,-144.0
2026-04-09 22:06:20.268228,194591,1310296562,1310298628,0.792512,-0.226432,0.017568,22.11125,0.945,-20.08125,-25.68,11.888001,22.416,eccentric,6,3.0,31603.0,403385.0,124363.0,3954.0,-144.0
2026-04-09 22:06:20.269756,194592,1310305486,1310307305,0.79056,-0.154208,0.074176,19.32,0.3325,-14.83125,-25.984001,11.576,22.656,eccentric,6,3.0,31603.0,403385.0,124363.0,3954.0,-144.0
2026-04-09 22:06:20.273847,194593,1310314447,1310316039,0.79056,-0.154208,0.074176,11.5675,1.575,-10.73625,-25.984001,11.576,22.656,eccentric,6,3.0,31603.0,403385.0,124363.0,3954.0,-144.0
2026-04-09 22:06:20.304528,194604,1310329085,1310331010,0.7808,-0.13664,0.060512,2.45,3.49125,-9.292501,-25.504002,11.76,22.432001,eccentric,6,3.0,31823.0,401907.0,122371.0,3444.0,-145.0
2026-04-09 22:06:20.306032,194605,1310338137,1310339750,0.7808,-0.13664,0.060512,0.74375,4.235,-9.5725,-25.504002,11.76,22.432001,eccentric,6,3.0,31823.0,401907.0,122371.0,3444.0,-145.0
2026-04-09 22:06:20.310114,194606,1310347075,1310348468,0.778848,-0.199104,0.021472,6.23,2.8,-10.54375,-26.368002,11.672001,24.04,eccentric,6,3.0,31823.0,401907.0,122371.0,3444.0,-145.0
2026-04-09 22:06:20.313897,194607,1310356009,1310357194,0.778848,-0.199104,0.021472,12.53,0.315,-9.54625,-26.368002,11.672001,24.04,eccentric,6,3.0,31823.0,401907.0,122371.0,3444.0,-145.0
2026-04-09 22:06:20.342427,194608,1310370530,1310372079,0.804224,-0.171776,0.052704,14.665,-1.18125,-5.6525,-25.904001,12.120001,22.560001,eccentric,6,3.0,31823.0,401907.0,122371.0,3444.0,-145.0
2026-04-09 22:06:20.346086,194609,1310379439,1310380791,0.804224,-0.171776,0.052704,9.135,-1.02375,-0.97125,-25.904001,12.120001,22.560001,eccentric,6,3.0,31823.0,401907.0,122371.0,3444.0,-145.0
2026-04-09 22:06:20.350171,194610,1310388353,1310389478,0.81984,-0.10736,0.080032,2.2225,0.06125,0.56875,-25.048,11.88,22.52,eccentric,6,3.0,31823.0,401907.0,122371.0,3444.0,-145.0
2026-04-09 22:06:20.378702,194611,1310402931,1310404423,0.81984,-0.181536,0.0488,-3.3075,1.25125,0.13125,-25.048,11.568001,22.408,eccentric,6,3.0,31823.0,401907.0,122371.0,3444.0,-145.0
2026-04-09 22:06:20.382249,194612,1310411865,1310413144,0.81984,-0.181536,0.0488,-3.56125,1.33875,-0.91,-25.552002,11.568001,22.408,eccentric,6,3.0,31823.0,401907.0,122371.0,3444.0,-145.0
2026-04-09 22:06:20.384723,194613,1310420826,1310421881,0.81984,-0.181536,0.0488,0.44625,0.37625,-0.30625,-25.552002,11.568001,22.408,eccentric,6,3.0,31823.0,401907.0,122371.0,3444.0,-145.0
2026-04-09 22:06:20.409733,194623,1310435375,1310436858,0.825696,-0.197152,0.017568,5.67875,-1.74125,1.855,-25.768002,12.392,22.552002,eccentric,6,3.0,31939.0,401277.0,121687.0,3283.0,-152.0
2026-04-09 22:06:20.412228,194624,1310444365,1310445588,0.823744,-0.140544,0.062464,6.4575,-2.7125,5.565,-25.152,12.000001,22.400002,eccentric,6,3.0,31939.0,401277.0,121687.0,3283.0,-152.0
2026-04-09 22:06:20.414690,194625,1310453253,1310454325,0.823744,-0.140544,0.062464,0.5075,-2.17875,8.2425,-25.152,12.000001,22.400002,eccentric,6,3.0,31939.0,401277.0,121687.0,3283.0,-152.0
2026-04-09 22:06:20.417199,194626,1310462353,1310463064,0.823744,-0.140544,0.062464,-3.7275,-1.085,9.03,-25.152,12.000001,22.400002,eccentric,6,3.0,31939.0,401277.0,121687.0,3283.0,-152.0
2026-04-09 22:06:20.447417,194627,1310477240,1310477968,0.833504,-0.142496,0.080032,-6.37875,-0.315,8.12,-25.760002,12.392,22.224,eccentric,6,3.0,31939.0,401277.0,121687.0,3283.0,-152.0
2026-04-09 22:06:20.451025,194628,1310486582,1310488731,0.835456,-0.18544,0.031232,-6.09875,0.21875,6.58875,-25.224,12.688001,22.536001,eccentric,6,3.0,31939.0,401277.0,121687.0,3283.0,-152.0
2026-04-09 22:06:20.453494,194629,1310495505,1310497418,0.835456,-0.18544,0.031232,-2.9575,0.25375,6.29125,-25.224,12.688001,22.536001,eccentric,6,3.0,31939.0,401277.0,121687.0,3283.0,-152.0
