pc_time,serial_num,sensor_ts,host_ts,ax,ay,az,gx,gy,gz,mx,my,mz,phase,rpe,weight_kg,ppg_a,ppg_b,ppg_c,ppg_d,ppg_e
2026-04-09 22:06:23.162366,195134,1313193543,1313195687,0.825696,-0.148352,0.193248,4.935,0.9975,-10.4825,-26.824001,11.080001,23.552002,concentric,6,3.0,31225.0,403431.0,127581.0,5118.0,-149.0
2026-04-09 22:06:23.164856,195135,1313202447,1313204406,0.825696,-0.148352,0.193248,6.99125,1.015,-7.4375,-26.824001,11.080001,23.552002,concentric,6,3.0,31225.0,403431.0,127581.0,5118.0,-149.0
2026-04-09 22:06:23.167300,195136,1313211387,1313213109,0.825696,-0.148352,0.193248,5.36375,1.05875,-3.3775,-26.824001,11.080001,23.552002,concentric,6,3.0,31225.0,403431.0,127581.0,5118.0,-149.0
2026-04-09 22:06:23.200016,195137,1313225893,1313228060,0.806176,-0.101504,0.158112,1.54,1.32125,0.07,-27.616001,11.808001,25.400002,concentric,6,3.0,31225.0,403431.0,127581.0,5118.0,-149.0
2026-04-09 22:06:23.201280,195138,1313234798,1313236760,0.831552,-0.05856,0.150304,-0.84875,1.015,1.63625,-26.888,11.184001,24.216002,concentric,6,3.0,31225.0,403431.0,127581.0,5118.0,-149.0
2026-04-09 22:06:23.258257,195148,1313244186,1313245535,0.831552,-0.05856,0.150304,-2.02125,0.84875,0.70875,-26.888,11.184001,24.216002,concentric,6,3.0,31282.0,403431.0,126849.0,4828.0,-136.0
2026-04-09 22:06:23.262869,195149,1313253309,1313254276,0.831552,-0.138592,0.162016,-0.8225,0.13125,-1.3825,-26.888,11.184001,24.216002,concentric,6,3.0,31282.0,403431.0,126849.0,4828.0,-136.0
2026-04-09 22:06:23.264581,195150,1313267844,1313269183,0.843264,-0.138592,0.162016,1.72375,-0.58625,-4.0075,-27.144001,11.608001,24.296001,concentric,6,3.0,31282.0,403431.0,126849.0,4828.0,-136.0
2026-04-09 22:06:23.266145,195151,1313276776,1313277919,0.831552,-0.17568,0.189344,3.45625,-1.67125,-4.12125,-26.752,11.656,24.168001,concentric,6,3.0,31282.0,403431.0,126849.0,4828.0,-136.0
2026-04-09 22:06:23.270358,195152,1313285689,1313286608,0.831552,-0.17568,0.189344,3.12375,-1.855,-0.7875,-26.752,11.656,24.168001,concentric,6,3.0,31282.0,403431.0,126849.0,4828.0,-136.0
2026-04-09 22:06:23.272047,195153,1313300172,1313301495,0.827648,-0.07808,0.154208,0.79625,-1.54,3.14125,-26.792002,11.360001,24.696001,concentric,6,3.0,31282.0,403431.0,126849.0,4828.0,-136.0
2026-04-09 22:06:23.274319,195154,1313309114,1313310231,0.827648,-0.07808,0.154208,-2.02125,-0.90125,4.5675,-26.792002,11.360001,24.696001,concentric,6,3.0,31282.0,403431.0,126849.0,4828.0,-136.0
2026-04-09 22:06:23.278643,195155,1313318024,1313318968,0.83936,-0.132736,0.121024,-3.66625,-1.155,2.52875,-26.616001,11.6,24.496,concentric,6,3.0,31282.0,403431.0,126849.0,4828.0,-136.0
2026-04-09 22:06:23.308840,195156,1313332535,1313333884,0.83936,-0.132736,0.121024,-2.49375,-3.01,0.455,-26.616001,11.6,24.496,concentric,6,3.0,31282.0,403431.0,126849.0,4828.0,-136.0
2026-04-09 22:06:23.337297,195166,1313341487,1313342903,0.813984,-0.18544,0.132736,3.21125,-5.5125,0.6125,-26.672,11.776001,25.128,concentric,6,3.0,31349.0,403431.0,126559.0,4687.0,-154.0
2026-04-09 22:06:23.339804,195167,1313350487,1313351662,0.813984,-0.18544,0.132736,7.14,-7.5425,3.91125,-26.672,11.776001,25.128,concentric,6,3.0,31349.0,403431.0,126559.0,4687.0,-154.0
2026-04-09 22:06:23.342317,195168,1313365056,1313366600,0.79056,-0.199104,0.162016,4.48875,-8.05,8.96,-26.664001,11.504001,24.248001,concentric,6,3.0,31349.0,403431.0,126559.0,4687.0,-154.0
2026-04-09 22:06:23.344771,195169,1313374078,1313375319,0.765184,-0.111264,0.154208,-2.8175,-7.21875,13.46625,-26.664001,11.992001,25.816002,concentric,6,3.0,31349.0,403431.0,126559.0,4687.0,-154.0
2026-04-09 22:06:23.347307,195170,1313383089,1313384012,0.765184,-0.111264,0.154208,-8.575,-5.46875,17.54375,-27.984001,11.992001,25.816002,concentric,6,3.0,31349.0,403431.0,126559.0,4687.0,-154.0
2026-04-09 22:06:23.349812,195171,1313392017,1313392757,0.765184,-0.111264,0.154208,-11.3575,-4.4275,18.40125,-27.984001,11.992001,25.816002,concentric,6,3.0,31349.0,403431.0,126559.0,4687.0,-154.0
2026-04-09 22:06:23.380020,195172,1313407011,1313407677,0.755424,-0.10736,0.072224,-9.835,-6.16,15.05875,-27.776001,12.52,24.984001,concentric,6,3.0,31349.0,403431.0,126559.0,4687.0,-154.0
2026-04-09 22:06:23.383707,195173,1313416304,1313418435,0.739808,-0.206912,0.119072,-5.1275,-9.79125,13.0025,-25.880001,12.52,23.912,concentric,6,3.0,31349.0,403431.0,126559.0,4687.0,-154.0
2026-04-09 22:06:23.386214,195174,1313425246,1313427110,0.739808,-0.206912,0.119072,0.44625,-13.79875,14.91875,-25.880001,12.52,23.912,concentric,6,3.0,31349.0,403431.0,126559.0,4687.0,-154.0
2026-04-09 22:06:23.389884,195175,1313434180,1313435827,0.667584,-0.232288,0.187392,1.3825,-14.84875,21.55125,-25.880001,12.52,23.616001,concentric,6,3.0,31349.0,403431.0,126559.0,4687.0,-154.0
2026-04-09 22:06:23.447326,195186,1313448772,1313450785,0.667584,-0.232288,0.187392,-5.0225,-13.65,30.205,-26.2,13.192,23.616001,concentric,6,3.0,31402.0,403431.0,125067.0,4172.0,-142.0
2026-04-09 22:06:23.449833,195187,1313457705,1313459512,0.616832,-0.208864,0.101504,-14.2975,-12.775,38.14125,-25.584002,13.160001,23.224,concentric,6,3.0,31402.0,403431.0,125067.0,4172.0,-142.0
2026-04-09 22:06:23.452329,195188,1313466627,1313468192,0.616832,-0.208864,0.101504,-21.09625,-13.13375,46.08625,-25.584002,13.160001,23.224,concentric,6,3.0,31402.0,403431.0,125067.0,4172.0,-142.0
2026-04-09 22:06:23.454816,195189,1313481122,1313483208,0.67344,-0.074176,0.095648,-23.79125,-12.66125,51.44125,-24.808,13.112,22.808,concentric,6,3.0,31402.0,403431.0,125067.0,4172.0,-142.0
2026-04-09 22:06:23.457338,195190,1313490074,1313491944,0.67344,-0.074176,0.095648,-25.71625,-12.94125,51.38,-24.808,13.112,22.808,concentric,6,3.0,31402.0,403431.0,125067.0,4172.0,-142.0
2026-04-09 22:06:23.459866,195191,1313499019,1313500693,0.671488,-0.20496,0.093696,-24.07125,-14.18375,48.326252,-25.168001,13.912001,23.224,concentric,6,3.0,31402.0,403431.0,125067.0,4172.0,-142.0
2026-04-09 22:06:23.490135,195192,1313513527,1313515618,0.671488,-0.20496,0.093696,-18.87375,-16.94,47.8275,-25.168001,13.912001,23.224,concentric,6,3.0,31402.0,403431.0,125067.0,4172.0,-142.0
2026-04-09 22:06:23.493636,195193,1313522470,1313524337,0.675392,-0.193248,0.099552,-13.06375,-21.385,50.8375,-24.048,14.368001,22.768002,concentric,6,3.0,31402.0,403431.0,125067.0,4172.0,-142.0
2026-04-09 22:06:23.496114,195194,1313531410,1313533054,0.675392,-0.193248,0.099552,-14.28,-23.17,55.27375,-24.048,14.368001,22.768002,concentric,6,3.0,31402.0,403431.0,125067.0,4172.0,-142.0
2026-04-09 22:06:23.559749,195204,1313545975,1313546334,0.71248,-0.259616,0.115168,-23.5375,-21.69125,59.9725,-23.408,14.296001,21.76,concentric,6,3.0,31294.0,403431.0,127251.0,4850.0,-143.0
2026-04-09 22:06:23.564167,195205,1313555350,1313557249,0.792512,-0.179584,0.132736,-36.715,-18.5325,61.013752,-23.400002,14.976001,22.064001,concentric,6,3.0,31294.0,403431.0,127251.0,4850.0,-143.0
2026-04-09 22:06:23.565923,195206,1313564306,1313565992,0.792512,-0.179584,0.132736,-41.65,-15.995,57.84625,-23.400002,14.976001,22.064001,concentric,6,3.0,31294.0,403431.0,127251.0,4850.0,-143.0
2026-04-09 22:06:23.568263,195207,1313573240,1313574695,0.792512,-0.179584,0.132736,-35.8925,-15.3825,51.1875,-23.400002,14.976001,22.064001,concentric,6,3.0,31294.0,403431.0,127251.0,4850.0,-143.0
2026-04-09 22:06:23.569887,195208,1313587723,1313589563,0.7808,-0.279136,0.07808,-25.27875,-17.99,43.9075,-23.472002,14.72,22.2,concentric,6,3.0,31294.0,403431.0,127251.0,4850.0,-143.0
2026-04-09 22:06:23.574114,195209,1313596629,1313598281,0.76128,-0.310368,0.056608,-14.5075,-21.735,40.76625,-22.176,15.088,20.056002,concentric,6,3.0,31294.0,403431.0,127251.0,4850.0,-143.0
2026-04-09 22:06:23.576809,195210,1313605527,1313606985,0.76128,-0.310368,0.056608,-7.175,-24.325,42.62125,-22.176,15.088,20.056002,concentric,6,3.0,31294.0,403431.0,127251.0,4850.0,-143.0
2026-04-09 22:06:23.582843,195211,1313620045,1313621883,0.812032,-0.450912,0.035136,-13.1775,-24.50875,44.17875,-21.560001,15.616001,20.376001,concentric,6,3.0,31294.0,403431.0,127251.0,4850.0,-143.0
2026-04-09 22:06:23.584415,195212,1313629027,1313630658,0.812032,-0.450912,0.035136,-27.93875,-21.79625,43.54875,-21.560001,15.616001,20.376001,concentric,6,3.0,31294.0,403431.0,127251.0,4850.0,-143.0
2026-04-09 22:06:23.614693,195213,1313637950,1313639370,0.808128,-0.28304,0.081984,-36.68,-18.73375,41.79,-22.432001,16.112001,20.92,concentric,6,3.0,31294.0,403431.0,127251.0,4850.0,-143.0
2026-04-09 22:06:23.641589,195223,1313652969,1313654347,0.808128,-0.28304,0.081984,-29.7325,-17.21125,37.7125,-22.432001,16.112001,20.92,concentric,6,3.0,31362.0,403431.0,126713.0,4721.0,-155.0
2026-04-09 22:06:23.643323,195224,1313661888,1313663105,0.765184,-0.365024,0.017568,-18.82125,-18.2175,30.2225,-20.92,16.352001,19.168001,concentric,6,3.0,31362.0,403431.0,126713.0,4721.0,-155.0
2026-04-09 22:06:23.645732,195225,1313671006,1313671826,0.765184,-0.365024,0.017568,-14.7175,-21.72625,21.245,-20.92,16.352001,19.168001,concentric,6,3.0,31362.0,403431.0,126713.0,4721.0,-155.0
2026-04-09 22:06:23.647306,195226,1313680445,1313682675,0.708576,-0.372832,0.035136,-7.6825,-25.34,17.22875,-20.824001,16.0,19.320002,concentric,6,3.0,31362.0,403431.0,126713.0,4721.0,-155.0
2026-04-09 22:06:23.651500,195227,1313694941,1313695548,0.708576,-0.452864,-0.042944,2.00375,-26.6875,18.3575,-20.824001,16.0,19.320002,concentric,6,3.0,31362.0,403431.0,126713.0,4721.0,-155.0
2026-04-09 22:06:23.680334,195228,1313704279,1313706334,0.767136,-0.452864,-0.042944,-2.2575,-25.13875,20.48375,-20.504002,16.536001,18.752,concentric,6,3.0,31362.0,403431.0,126713.0,4721.0,-155.0
2026-04-09 22:06:23.684543,195229,1313713191,1313715015,0.767136,-0.452864,-0.042944,-20.755,-20.78125,19.18875,-20.504002,16.536001,18.752,concentric,6,3.0,31362.0,403431.0,126713.0,4721.0,-155.0
2026-04-09 22:06:23.686125,195230,1313722115,1313723761,0.661728,-0.374784,0.070272,-32.10375,-16.91375,19.6175,-20.800001,15.952001,18.224,concentric,6,3.0,31362.0,403431.0,126713.0,4721.0,-155.0
2026-04-09 22:06:23.693991,195231,1313736627,1313738647,0.640256,-0.316224,-0.001952,-23.30125,-15.575,21.18375,-21.84,16.448,20.608002,concentric,6,3.0,31362.0,403431.0,126713.0,4721.0,-155.0
2026-04-09 22:06:23.750399,195242,1313746102,1313747484,0.640256,-0.316224,-0.001952,-15.995,-15.96,14.533751,-21.84,16.448,20.608002,concentric,6,3.0,31689.0,402222.0,122615.0,3503.0,-154.0
2026-04-09 22:06:23.752116,195243,1313755100,1313756286,0.640256,-0.329888,0.001952,-10.43875,-17.21125,10.22875,-21.84,16.448,20.608002,concentric,6,3.0,31689.0,402222.0,122615.0,3503.0,-154.0
2026-04-09 22:06:23.754514,195244,1313769507,1313771266,0.620736,-0.329888,0.001952,-2.0475,-17.98125,9.8,-20.808,16.352001,18.576,concentric,6,3.0,31689.0,402222.0,122615.0,3503.0,-154.0
2026-04-09 22:06:23.756095,195245,1313778447,1313780035,0.628544,-0.337696,0.023424,2.3975,-17.68375,11.0775,-21.008001,16.776001,18.888,concentric,6,3.0,31689.0,402222.0,122615.0,3503.0,-154.0
2026-04-09 22:06:23.760581,195246,1313787543,1313788815,0.628544,-0.337696,0.023424,-1.30375,-15.645,12.9675,-21.008001,16.776001,18.888,concentric,6,3.0,31689.0,402222.0,122615.0,3503.0,-154.0
2026-04-09 22:06:23.763991,195247,1313796475,1313797553,0.659776,-0.404064,-0.017568,-12.27625,-10.22,13.9825,-21.240002,17.216002,18.296001,concentric,6,3.0,31689.0,402222.0,122615.0,3503.0,-154.0
2026-04-09 22:06:23.766969,195248,1313811091,1313812586,0.659776,-0.404064,-0.017568,-22.33875,-4.83875,12.635,-21.240002,17.216002,18.296001,concentric,6,3.0,31689.0,402222.0,122615.0,3503.0,-154.0
2026-04-09 22:06:23.797187,195249,1313820111,1313821333,0.587552,-0.304512,0.081984,-19.78375,-0.595,13.36125,-20.856,16.616001,18.072,concentric,6,3.0,31689.0,402222.0,122615.0,3503.0,-154.0
2026-04-09 22:06:23.799513,195250,1313828984,1313830104,0.587552,-0.304512,0.081984,-15.505,0.69125,13.9825,-20.856,16.616001,18.072,concentric,6,3.0,31689.0,402222.0,122615.0,3503.0,-154.0
2026-04-09 22:06:23.804147,195251,1313843473,1313844980,0.65392,-0.359168,-0.023424,-10.386251,0.56875,13.48375,-19.752,17.528002,17.104,concentric,6,3.0,31689.0,402222.0,122615.0,3503.0,-154.0
2026-04-09 22:06:23.869729,195261,1313852517,1313853820,0.65392,-0.359168,-0.023424,-7.00875,0.98875,15.8375,-19.752,17.528002,17.104,concentric,6,3.0,31562.0,403431.0,126827.0,4673.0,-130.0
2026-04-09 22:06:23.873336,195262,1313861516,1313862528,0.698816,-0.374784,-0.015616,-6.25625,1.8025,17.491251,-20.800001,17.648,17.896,concentric,6,3.0,31562.0,403431.0,126827.0,4673.0,-130.0
2026-04-09 22:06:23.874842,195263,1313876082,1313877425,0.757376,-0.37088,-0.064416,-7.42,3.66625,15.89875,-20.800001,17.44,17.160002,concentric,6,3.0,31562.0,403431.0,126827.0,4673.0,-130.0
2026-04-09 22:06:23.879127,195264,1313884979,1313886150,0.757376,-0.37088,-0.064416,-9.91375,5.34625,11.68125,-20.872002,17.44,17.160002,concentric,6,3.0,31562.0,403431.0,126827.0,4673.0,-130.0
2026-04-09 22:06:23.881687,195265,1313893887,1313894876,0.757376,-0.37088,-0.064416,-5.8975,4.8825,8.785,-20.872002,17.44,17.160002,concentric,6,3.0,31562.0,403431.0,126827.0,4673.0,-130.0
2026-04-09 22:06:23.885782,195266,1313902898,1313903582,0.755424,-0.337696,0.0,0.4725,3.7975,5.74875,-19.984001,17.736,16.264,concentric,6,3.0,31562.0,403431.0,126827.0,4673.0,-130.0
2026-04-09 22:06:23.888304,195267,1313917766,1313918493,0.724192,-0.372832,-0.023424,2.59,1.89875,1.89,-20.304,17.720001,16.304,concentric,6,3.0,31562.0,403431.0,126827.0,4673.0,-130.0
2026-04-09 22:06:23.889870,195268,1313927114,1313929274,0.724192,-0.372832,-0.023424,3.01,-0.09625,-0.37625,-20.304,17.720001,16.304,concentric,6,3.0,31562.0,403431.0,126827.0,4673.0,-130.0
2026-04-09 22:06:23.894000,195269,1313936044,1313938033,0.806176,-0.404064,-0.025376,4.57625,-1.28625,-2.3975,-20.304,17.720001,16.616001,concentric,6,3.0,31562.0,403431.0,126827.0,4673.0,-130.0
2026-04-09 22:06:23.947102,195279,1313950677,1313951020,0.806176,-0.404064,-0.025376,1.2775,-0.49,-6.29125,-21.024,17.792002,16.616001,concentric,6,3.0,31764.0,403431.0,129224.0,5409.0,-136.0
2026-04-09 22:06:23.948649,195280,1313959891,1313961803,0.876448,-0.36112,-0.070272,-7.04375,1.89875,-9.5725,-20.632002,17.768002,15.616001,concentric,6,3.0,31764.0,403431.0,129224.0,5409.0,-136.0
2026-04-09 22:06:23.952881,195281,1313968872,1313970521,0.876448,-0.36112,-0.070272,-13.195,4.20875,-12.985,-20.632002,17.768002,15.616001,concentric,6,3.0,31764.0,403431.0,129224.0,5409.0,-136.0
2026-04-09 22:06:23.954648,195282,1313977876,1313979231,0.880352,-0.40016,-0.023424,-11.94375,5.32875,-15.225,-20.792002,18.088001,14.120001,concentric,6,3.0,31764.0,403431.0,129224.0,5409.0,-136.0
2026-04-09 22:06:23.956119,195283,1313992398,1313994177,0.880352,-0.40016,-0.023424,-11.48875,5.43375,-18.8125,-20.792002,18.088001,14.120001,concentric,6,3.0,31764.0,403431.0,129224.0,5409.0,-136.0
2026-04-09 22:06:23.960505,195284,1314001333,1314002902,0.923296,-0.437248,-0.03904,-4.62,3.00125,-21.455,-20.544,17.728,15.112,concentric,6,3.0,31764.0,403431.0,129224.0,5409.0,-136.0
2026-04-09 22:06:23.967755,195285,1314010659,1314011959,0.923296,-0.437248,-0.03904,8.1375,0.2275,-23.12625,-20.544,17.728,15.112,concentric,6,3.0,31764.0,403431.0,129224.0,5409.0,-136.0
2026-04-09 22:06:24.016406,195286,1314025218,1314027012,1.032608,-0.368928,-0.06832,16.98375,-1.61875,-25.69875,-21.752,17.728,16.720001,concentric,6,3.0,31764.0,403431.0,129224.0,5409.0,-136.0
2026-04-09 22:06:24.019848,195287,1314034127,1314035704,1.032608,-0.368928,-0.06832,24.94625,0.27125,-24.185,-21.752,17.728,16.720001,concentric,6,3.0,31764.0,403431.0,129224.0,5409.0,-136.0
2026-04-09 22:06:24.022359,195288,1314043086,1314044425,0.964288,-0.558272,0.052704,12.74875,7.07875,-22.96875,-21.256,17.44,15.008,concentric,6,3.0,31764.0,403431.0,129224.0,5409.0,-136.0
2026-04-09 22:06:24.049846,195299,1314052113,1314053264,0.964288,-0.558272,0.052704,-1.95125,14.07875,-22.085001,-21.256,17.44,15.008,concentric,6,3.0,32036.0,403431.0,131789.0,6354.0,-145.0
2026-04-09 22:06:24.052323,195300,1314066606,1314068209,0.999424,-0.3904,-0.02928,0.23625,18.4625,-17.56125,-22.456001,18.12,15.656001,concentric,6,3.0,32036.0,403431.0,131789.0,6354.0,-145.0
2026-04-09 22:06:24.054849,195301,1314075538,1314076940,0.999424,-0.3904,-0.02928,6.83375,21.60375,-17.38625,-22.456001,18.12,15.656001,concentric,6,3.0,32036.0,403431.0,131789.0,6354.0,-145.0
2026-04-09 22:06:24.057360,195302,1314084526,1314085743,1.09312,-0.357216,-0.08784,17.70125,23.975,-17.08875,-24.408,17.912,16.032001,concentric,6,3.0,32036.0,403431.0,131789.0,6354.0,-145.0
2026-04-09 22:06:24.059816,195303,1314099249,1314100787,0.964288,-0.540704,0.101504,24.605,28.0175,-13.230001,-23.528002,18.144001,16.944,concentric,6,3.0,32036.0,403431.0,131789.0,6354.0,-145.0
2026-04-09 22:06:24.063621,195304,1314108235,1314109539,0.964288,-0.540704,0.101504,17.3075,32.76,-10.08875,-23.528002,18.144001,16.944,concentric,6,3.0,32036.0,403431.0,131789.0,6354.0,-145.0
2026-04-09 22:06:24.095033,195305,1314117179,1314118284,0.925248,-0.404064,0.113216,14.42,35.63,-7.2975,-23.288002,18.224,16.12,concentric,6,3.0,32036.0,403431.0,131789.0,6354.0,-145.0
2026-04-09 22:06:24.098624,195306,1314131690,1314133178,0.925248,-0.404064,0.113216,13.3175,38.96375,-7.175,-23.288002,18.224,16.12,concentric,6,3.0,32036.0,403431.0,131789.0,6354.0,-145.0
2026-04-09 22:06:24.101109,195307,1314140594,1314141860,0.96624,-0.372832,-0.044896,5.9675,40.24125,-9.292501,-23.240002,18.400002,16.184,concentric,6,3.0,32036.0,403431.0,131789.0,6354.0,-145.0
2026-04-09 22:06:24.178624,195317,1314149941,1314150698,0.96624,-0.372832,-0.044896,7.67375,39.865,-10.47375,-23.240002,18.400002,16.184,concentric,6,3.0,31970.0,403431.0,128174.0,5087.0,-137.0
2026-04-09 22:06:24.181121,195318,1314159383,1314161576,0.845216,-0.472384,0.056608,17.1675,39.01625,-7.84875,-23.808,18.032001,17.448,concentric,6,3.0,31970.0,403431.0,128174.0,5087.0,-137.0
2026-04-09 22:06:24.183580,195319,1314173922,1314174449,0.845216,-0.472384,0.056608,21.5075,38.19375,-6.69375,-23.808,18.032001,17.448,concentric,6,3.0,31970.0,403431.0,128174.0,5087.0,-137.0
2026-04-09 22:06:24.186078,195320,1314183312,1314185249,0.812032,-0.44896,0.160064,19.78375,38.19375,-7.595,-24.688002,18.072,18.016,concentric,6,3.0,31970.0,403431.0,128174.0,5087.0,-137.0
2026-04-09 22:06:24.188626,195321,1314192292,1314193958,0.812032,-0.44896,0.160064,17.03625,37.47625,-7.34125,-24.688002,18.072,18.016,concentric,6,3.0,31970.0,403431.0,128174.0,5087.0,-137.0
2026-04-09 22:06:24.191108,195322,1314201215,1314202654,0.853024,-0.413824,0.040992,12.0925,36.0325,-8.23375,-24.400002,17.872002,17.04,concentric,6,3.0,31970.0,403431.0,128174.0,5087.0,-137.0
2026-04-09 22:06:24.193598,195323,1314215740,1314217533,0.853024,-0.413824,0.040992,9.82625,33.9675,-8.855001,-24.400002,17.872002,17.04,concentric,6,3.0,31970.0,403431.0,128174.0,5087.0,-137.0
2026-04-09 22:06:24.196102,195324,1314224704,1314226205,0.83936,-0.443104,0.07808,14.11375,29.8375,-7.83125,-24.392002,18.240002,18.048,concentric,6,3.0,31970.0,403431.0,128174.0,5087.0,-137.0
2026-04-09 22:06:24.198595,195325,1314233680,1314234926,0.83936,-0.443104,0.07808,17.61375,26.5475,-8.6975,-24.392002,18.240002,18.048,concentric,6,3.0,31970.0,403431.0,128174.0,5087.0,-137.0
2026-04-09 22:06:24.224792,195335,1314248597,1314250257,0.841312,-0.464576,0.080032,19.1625,22.8375,-12.41625,-25.648,17.68,18.592001,concentric,6,3.0,32083.0,401795.0,122788.0,3526.0,-143.0
2026-04-09 22:06:24.227357,195336,1314257658,1314259118,0.890112,-0.40992,0.074176,20.895,19.39875,-16.2575,-25.128,18.064001,17.048,concentric,6,3.0,32083.0,401795.0,122788.0,3526.0,-143.0
2026-04-09 22:06:24.230000,195337,1314266599,1314267820,0.890112,-0.40992,0.074176,21.84,16.905,-18.62,-25.128,18.064001,17.048,concentric,6,3.0,32083.0,401795.0,122788.0,3526.0,-143.0
2026-04-09 22:06:24.241595,195338,1314281091,1314282784,0.866688,-0.509472,0.08784,22.00625,14.6475,-20.4225,-24.824001,18.560001,17.496,concentric,6,3.0,32083.0,401795.0,122788.0,3526.0,-143.0
2026-04-09 22:06:24.247356,195339,1314290056,1314291486,0.866688,-0.509472,0.08784,22.75,12.6,-20.0025,-24.824001,18.560001,17.496,concentric,6,3.0,32083.0,401795.0,122788.0,3526.0,-143.0
2026-04-09 22:06:24.253738,195340,1314298973,1314300267,0.854976,-0.42944,0.140544,27.973751,11.3575,-20.0725,-25.456001,18.104,17.664001,concentric,6,3.0,32083.0,401795.0,122788.0,3526.0,-143.0
2026-04-09 22:06:24.285129,195341,1314307899,1314308968,0.854976,-0.42944,0.140544,34.3175,10.14125,-21.175,-25.456001,18.104,17.664001,concentric,6,3.0,32083.0,401795.0,122788.0,3526.0,-143.0
2026-04-09 22:06:24.290408,195342,1314322361,1314323868,0.876448,-0.441152,0.099552,33.87125,9.65125,-22.9425,-25.560001,17.976002,18.248001,concentric,6,3.0,32083.0,401795.0,122788.0,3526.0,-143.0
2026-04-09 22:06:24.292828,195343,1314331274,1314332549,0.876448,-0.441152,0.099552,34.107502,9.03875,-22.33875,-25.560001,17.976002,18.248001,concentric,6,3.0,32083.0,401795.0,122788.0,3526.0,-143.0
2026-04-09 22:06:24.296546,195344,1314340257,1314341255,0.851072,-0.489952,0.171776,36.86375,9.625,-19.4425,-26.776001,18.056002,20.928001,concentric,6,3.0,32083.0,401795.0,122788.0,3526.0,-143.0
2026-04-09 22:06:24.351188,195355,1314354854,1314356255,0.851072,-0.489952,0.171776,38.03625,12.03125,-16.38,-26.776001,18.056002,20.928001,concentric,6,3.0,32052.0,402434.0,123685.0,3767.0,-152.0
2026-04-09 22:06:24.355390,195356,1314363789,1314364949,0.83936,-0.404064,0.15616,39.62,15.0675,-13.13375,-25.872002,18.736,19.528002,concentric,6,3.0,32052.0,402434.0,123685.0,3767.0,-152.0
2026-04-09 22:06:24.357103,195357,1314372740,1314373621,0.83936,-0.404064,0.15616,38.03625,17.61375,-11.92625,-25.872002,18.736,19.528002,concentric,6,3.0,32052.0,402434.0,123685.0,3767.0,-152.0
2026-04-09 22:06:24.358797,195358,1314387240,1314388568,0.853024,-0.374784,0.074176,36.1725,19.18,-11.795,-28.072,18.168001,21.560001,concentric,6,3.0,32052.0,402434.0,123685.0,3767.0,-152.0
2026-04-09 22:06:24.362939,195359,1314396199,1314397292,0.853024,-0.374784,0.074176,40.27625,19.90625,-10.87625,-28.072,18.168001,21.560001,concentric,6,3.0,32052.0,402434.0,123685.0,3767.0,-152.0
2026-04-09 22:06:24.364540,195360,1314405105,1314406009,0.831552,-0.394304,0.177632,45.35125,20.29125,-8.54,-28.208002,18.704,21.832,concentric,6,3.0,32052.0,402434.0,123685.0,3767.0,-152.0
2026-04-09 22:06:24.394722,195361,1314419609,1314420920,0.8296,-0.353312,0.169824,42.9625,22.40875,-6.7725,-26.136002,18.616001,18.400002,concentric,6,3.0,32052.0,402434.0,123685.0,3767.0,-152.0
2026-04-09 22:06:24.400074,195362,1314428554,1314429631,0.8296,-0.353312,0.169824,42.30625,24.2375,-5.9675,-26.136002,18.616001,18.400002,concentric,6,3.0,32052.0,402434.0,123685.0,3767.0,-152.0
2026-04-09 22:06:24.401881,195363,1314437442,1314438320,0.8296,-0.353312,0.167872,40.3375,24.84125,-6.72,-26.136002,18.616001,18.400002,concentric,6,3.0,32052.0,402434.0,123685.0,3767.0,-152.0
2026-04-09 22:06:24.402944,195364,1314446323,1314447019,0.825696,-0.314272,0.167872,34.97375,24.08875,-8.91625,-26.448002,18.432001,21.288,concentric,6,3.0,32052.0,402434.0,123685.0,3767.0,-152.0
2026-04-09 22:06:24.467113,195374,1314461342,1314462066,0.827648,-0.35136,0.15616,31.1675,22.67125,-10.85875,-26.44,18.240002,21.472,eccentric,6,3.0,31991.0,402775.0,124109.0,3928.0,-142.0
2026-04-09 22:06:24.468662,195375,1314470668,1314472843,0.827648,-0.35136,0.15616,30.30125,19.78375,-12.90625,-26.44,18.240002,21.472,eccentric,6,3.0,31991.0,402775.0,124109.0,3928.0,-142.0
2026-04-09 22:06:24.473738,195376,1314479546,1314481537,0.81984,-0.357216,0.1952,28.595,17.08,-13.230001,-26.312002,18.296001,21.864,eccentric,6,3.0,31991.0,402775.0,124109.0,3928.0,-142.0
2026-04-09 22:06:24.474670,195377,1314494124,1314496425,0.81984,-0.357216,0.1952,25.3575,14.5775,-12.69625,-26.312002,18.296001,21.864,eccentric,6,3.0,31991.0,402775.0,124109.0,3928.0,-142.0
2026-04-09 22:06:24.476146,195378,1314503052,1314505188,0.827648,-0.38064,0.181536,21.210001,11.6375,-12.2675,-26.696001,18.76,21.976002,eccentric,6,3.0,31991.0,402775.0,124109.0,3928.0,-142.0
2026-04-09 22:06:24.480607,195379,1314512046,1314513884,0.827648,-0.38064,0.181536,19.355,8.225,-11.515,-26.696001,18.76,21.976002,eccentric,6,3.0,31991.0,402775.0,124109.0,3928.0,-142.0
2026-04-09 22:06:24.482367,195380,1314521009,1314522594,0.83936,-0.325984,0.201056,19.7925,5.39875,-10.6575,-27.800001,18.240002,22.928001,eccentric,6,3.0,31991.0,402775.0,124109.0,3928.0,-142.0
2026-04-09 22:06:24.512318,195381,1314535488,1314537485,0.83936,-0.325984,0.201056,21.77,2.23125,-10.10625,-27.800001,18.240002,22.928001,eccentric,6,3.0,31991.0,402775.0,124109.0,3928.0,-142.0
2026-04-09 22:06:24.514568,195382,1314544407,1314546185,0.851072,-0.355264,0.216672,21.2625,0.72625,-10.5175,-27.776001,18.856,22.496,eccentric,6,3.0,31991.0,402775.0,124109.0,3928.0,-142.0
2026-04-09 22:06:24.545425,195392,1314553518,1314554932,0.851072,-0.355264,0.216672,19.022501,-0.77,-11.34,-27.776001,18.856,22.496,eccentric,6,3.0,32013.0,402456.0,123749.0,3829.0,-143.0
2026-04-09 22:06:24.547152,195393,1314568006,1314569827,0.85888,-0.40016,0.22448,19.075,-1.715,-10.52625,-26.6,19.264002,21.52,eccentric,6,3.0,32013.0,402456.0,123749.0,3829.0,-143.0
2026-04-09 22:06:24.548699,195394,1314576978,1314578559,0.85888,-0.40016,0.22448,19.635,-2.0825,-9.31875,-26.6,19.264002,21.52,eccentric,6,3.0,32013.0,402456.0,123749.0,3829.0,-143.0
2026-04-09 22:06:24.554033,195395,1314585914,1314587275,0.851072,-0.355264,0.240096,18.69,-1.86375,-8.295,-27.016,18.664001,21.496,eccentric,6,3.0,32013.0,402456.0,123749.0,3829.0,-143.0
2026-04-09 22:06:24.558339,195396,1314600476,1314602285,0.845216,-0.38064,0.220576,16.16125,-1.32125,-7.63875,-26.944002,18.368,22.064001,eccentric,6,3.0,32013.0,402456.0,123749.0,3829.0,-143.0
2026-04-09 22:06:24.588490,195397,1314609375,1314610973,0.845216,-0.38064,0.220576,14.56875,-1.61875,-8.1025,-26.944002,18.368,22.064001,eccentric,6,3.0,32013.0,402456.0,123749.0,3829.0,-143.0
2026-04-09 22:06:24.592972,195398,1314618336,1314619677,0.845216,-0.398208,0.218624,16.8875,-1.7675,-7.88375,-26.944002,18.368,22.064001,eccentric,6,3.0,32013.0,402456.0,123749.0,3829.0,-143.0
2026-04-09 22:06:24.594412,195399,1314627249,1314628397,0.851072,-0.398208,0.218624,18.515,-1.28625,-6.04625,-27.256,18.752,20.312,eccentric,6,3.0,32013.0,402456.0,123749.0,3829.0,-143.0
2026-04-09 22:06:24.598229,195400,1314641739,1314643295,0.853024,-0.365024,0.240096,17.40375,0.175,-3.9725,-26.720001,18.144001,22.512001,eccentric,6,3.0,32013.0,402456.0,123749.0,3829.0,-143.0
2026-04-09 22:06:24.653771,195411,1314651147,1314652496,0.853024,-0.365024,0.240096,15.627501,1.58375,-2.5375,-26.720001,18.144001,22.512001,eccentric,6,3.0,31727.0,403431.0,127528.0,5004.0,-142.0
2026-04-09 22:06:24.657150,195412,1314660193,1314661367,0.8296,-0.357216,0.232288,12.06625,2.59875,-2.44125,-26.888,18.624,22.392,eccentric,6,3.0,31727.0,403431.0,127528.0,5004.0,-142.0
2026-04-09 22:06:24.659551,195413,1314674666,1314676290,0.8296,-0.357216,0.232288,9.275,3.8675,-2.4675,-26.888,18.624,22.392,eccentric,6,3.0,31727.0,403431.0,127528.0,5004.0,-142.0
2026-04-09 22:06:24.661171,195414,1314683636,1314685019,0.823744,-0.386496,0.212768,7.9625,4.82125,-2.73875,-26.856,18.656,22.696001,eccentric,6,3.0,31727.0,403431.0,127528.0,5004.0,-142.0
2026-04-09 22:06:24.665435,195415,1314692792,1314693807,0.823744,-0.386496,0.212768,8.1025,4.31375,-3.22875,-26.856,18.656,22.696001,eccentric,6,3.0,31727.0,403431.0,127528.0,5004.0,-142.0
2026-04-09 22:06:24.666855,195416,1314707297,1314708758,0.837408,-0.347456,0.222528,10.03625,3.605,-3.05375,-26.44,19.296001,22.416,eccentric,6,3.0,31727.0,403431.0,127528.0,5004.0,-142.0
2026-04-09 22:06:24.674013,195417,1314716228,1314717478,0.837408,-0.347456,0.222528,11.45375,3.21125,-3.15,-26.44,19.296001,22.416,eccentric,6,3.0,31727.0,403431.0,127528.0,5004.0,-142.0
2026-04-09 22:06:24.702532,195418,1314725148,1314726223,0.833504,-0.359168,0.236192,7.88375,3.5,-3.85,-26.376001,18.856,22.28,eccentric,6,3.0,31727.0,403431.0,127528.0,5004.0,-142.0
2026-04-09 22:06:24.706114,195419,1314734068,1314734921,0.833504,-0.359168,0.236192,4.41,2.80875,-4.13875,-26.376001,18.856,22.28,eccentric,6,3.0,31727.0,403431.0,127528.0,5004.0,-142.0
2026-04-09 22:06:24.708603,195420,1314748537,1314749792,0.83936,-0.357216,0.216672,3.955,2.35375,-4.33125,-26.496002,19.04,23.016,eccentric,6,3.0,31727.0,403431.0,127528.0,5004.0,-142.0
2026-04-09 22:06:24.766094,195430,1314757486,1314758617,0.83936,-0.357216,0.216672,4.48,1.30375,-4.10375,-26.496002,19.04,23.016,eccentric,6,3.0,31684.0,403431.0,127382.0,4979.0,-153.0
2026-04-09 22:06:24.768554,195431,1314766469,1314767361,0.841312,-0.329888,0.238144,3.80625,0.37625,-3.2725,-26.608002,18.84,22.728,eccentric,6,3.0,31684.0,403431.0,127382.0,4979.0,-153.0
2026-04-09 22:06:24.771060,195432,1314781013,1314782301,0.84912,-0.349408,0.242048,1.49625,0.5775,-3.08,-26.432001,18.856,21.648,eccentric,6,3.0,31684.0,403431.0,127382.0,4979.0,-153.0
2026-04-09 22:06:24.773585,195433,1314789936,1314791004,0.84912,-0.349408,0.242048,-1.77625,0.62125,-2.45875,-26.432001,18.856,21.648,eccentric,6,3.0,31684.0,403431.0,127382.0,4979.0,-153.0
2026-04-09 22:06:24.776084,195434,1314798853,1314799695,0.84912,-0.349408,0.228384,-4.165,-0.4375,-2.51125,-26.432001,18.856,21.648,eccentric,6,3.0,31684.0,403431.0,127382.0,4979.0,-153.0
2026-04-09 22:06:24.778646,195435,1314813385,1314814614,0.876448,-0.327936,0.228384,-5.20625,-0.9275,-1.4875,-25.984001,19.12,22.968,eccentric,6,3.0,31684.0,403431.0,127382.0,4979.0,-153.0
2026-04-09 22:06:24.781131,195436,1314822373,1314823309,0.876448,-0.388448,0.212768,-6.78125,-0.875,-1.2775,-26.592001,18.712002,23.496,eccentric,6,3.0,31684.0,403431.0,127382.0,4979.0,-153.0
2026-04-09 22:06:24.786119,195437,1314831300,1314832076,0.876448,-0.388448,0.212768,-7.84,-1.505,-0.805,-26.592001,18.712002,23.496,eccentric,6,3.0,31684.0,403431.0,127382.0,4979.0,-153.0
2026-04-09 22:06:24.816367,195438,1314840781,1314842841,0.876448,-0.365024,0.228384,-5.17125,-3.14125,1.72375,-26.968,19.408,21.816002,eccentric,6,3.0,31684.0,403431.0,127382.0,4979.0,-153.0
2026-04-09 22:06:24.842346,195448,1314855430,1314855778,0.876448,-0.365024,0.228384,-3.31625,-3.03625,4.22625,-26.968,19.408,21.816002,eccentric,6,3.0,31664.0,403431.0,127514.0,5006.0,-146.0
2026-04-09 22:06:24.844881,195449,1314864693,1314866585,0.884256,-0.32208,0.1952,-5.71375,-3.40375,5.4075,-25.896002,19.888,22.392,eccentric,6,3.0,31664.0,403431.0,127514.0,5006.0,-146.0
2026-04-09 22:06:24.847390,195450,1314873708,1314875322,0.884256,-0.32208,0.1952,-8.4875,-3.56125,6.58875,-25.896002,19.888,22.392,eccentric,6,3.0,31664.0,403431.0,127514.0,5006.0,-146.0
2026-04-09 22:06:24.849867,195451,1314888263,1314890254,0.884256,-0.339648,0.199104,-9.0475,-4.3925,6.97375,-26.536001,19.28,22.416,eccentric,6,3.0,31664.0,403431.0,127514.0,5006.0,-146.0
2026-04-09 22:06:24.852383,195452,1314897232,1314898938,0.884256,-0.339648,0.199104,-7.97125,-5.67,6.97375,-26.536001,19.28,22.416,eccentric,6,3.0,31664.0,403431.0,127514.0,5006.0,-146.0
2026-04-09 22:06:24.883255,195453,1314906362,1314907676,0.860832,-0.394304,0.201056,-8.1025,-6.44,7.63,-25.160002,18.968,22.512001,eccentric,6,3.0,31664.0,403431.0,127514.0,5006.0,-146.0
2026-04-09 22:06:24.886479,195454,1314915315,1314916380,0.860832,-0.394304,0.201056,-10.71,-7.16625,8.42625,-25.160002,18.968,22.512001,eccentric,6,3.0,31664.0,403431.0,127514.0,5006.0,-146.0
2026-04-09 22:06:24.888620,195455,1314929846,1314931294,0.882304,-0.3904,0.154208,-11.55875,-8.96875,10.12375,-25.048,19.664001,22.208,eccentric,6,3.0,31664.0,403431.0,127514.0,5006.0,-146.0
2026-04-09 22:06:24.894911,195456,1314938769,1314939988,0.882304,-0.3904,0.154208,-10.5175,-10.29875,11.55,-25.048,19.664001,22.208,eccentric,6,3.0,31664.0,403431.0,127514.0,5006.0,-146.0
2026-04-09 22:06:24.925999,195457,1314947712,1314948824,0.911584,-0.3416,0.20496,-8.42625,-10.9375,12.71375,-26.000002,19.28,23.456001,eccentric,6,3.0,31664.0,403431.0,127514.0,5006.0,-146.0
2026-04-09 22:06:24.958065,195468,1314962269,1314963773,0.915488,-0.40992,0.17568,-11.57625,-9.8175,13.658751,-24.6,19.688002,21.584002,eccentric,6,3.0,31637.0,403431.0,129127.0,5514.0,-135.0
2026-04-09 22:06:24.961469,195469,1314971198,1314972481,0.915488,-0.40992,0.17568,-15.5575,-9.44125,13.37,-24.6,19.688002,21.584002,eccentric,6,3.0,31637.0,403431.0,129127.0,5514.0,-135.0
2026-04-09 22:06:24.963010,195470,1314980169,1314981230,0.882304,-0.454816,0.163968,-13.4575,-8.91625,15.33,-24.6,19.608002,25.248001,eccentric,6,3.0,31637.0,403431.0,129127.0,5514.0,-135.0
2026-04-09 22:06:24.967491,195471,1314994702,1314996188,0.882304,-0.454816,0.163968,-14.56,-8.68,16.0825,-25.368002,19.608002,25.248001,eccentric,6,3.0,31637.0,403431.0,129127.0,5514.0,-135.0
2026-04-09 22:06:24.972592,195472,1315003610,1315004900,0.940864,-0.394304,0.130784,-12.90625,-9.03,17.61375,-24.376001,19.84,21.704,eccentric,6,3.0,31637.0,403431.0,129127.0,5514.0,-135.0
2026-04-09 22:06:24.974079,195473,1315012577,1315013661,0.940864,-0.394304,0.130784,-9.695,-7.91875,19.45125,-24.376001,19.84,21.704,eccentric,6,3.0,31637.0,403431.0,129127.0,5514.0,-135.0
2026-04-09 22:06:24.977084,195474,1315021537,1315022378,0.915488,-0.441152,0.193248,-8.33,-5.94125,20.60625,-25.088001,19.768002,23.640001,eccentric,6,3.0,31637.0,403431.0,129127.0,5514.0,-135.0
2026-04-09 22:06:25.009866,195475,1315036071,1315037320,0.915488,-0.441152,0.193248,-10.255,-2.9225,21.30625,-25.088001,19.768002,23.640001,eccentric,6,3.0,31637.0,403431.0,129127.0,5514.0,-135.0
2026-04-09 22:06:25.011622,195476,1315044995,1315046067,0.909632,-0.425536,0.173728,-14.8925,-0.62125,20.43125,-22.992,19.6,21.336,eccentric,6,3.0,31637.0,403431.0,129127.0,5514.0,-135.0
2026-04-09 22:06:25.037579,195486,1315054178,1315054823,0.909632,-0.425536,0.173728,-13.8075,0.13125,20.23,-22.992,19.6,21.336,eccentric,6,3.0,31665.0,403431.0,128130.0,5143.0,-146.0
2026-04-09 22:06:25.039140,195487,1315069056,1315069858,0.90768,-0.441152,0.140544,-15.0325,0.5075,18.47125,-24.536001,19.776001,22.160002,eccentric,6,3.0,31665.0,403431.0,128130.0,5143.0,-146.0
2026-04-09 22:06:25.041376,195488,1315078069,1315078632,0.90768,-0.441152,0.140544,-17.4125,1.3825,16.415,-24.536001,19.776001,22.160002,eccentric,6,3.0,31665.0,403431.0,128130.0,5143.0,-146.0
2026-04-09 22:06:25.045564,195489,1315087388,1315089411,0.905728,-0.470432,0.101504,-16.59875,2.14375,15.855001,-24.36,19.616001,22.12,eccentric,6,3.0,31665.0,403431.0,128130.0,5143.0,-146.0
2026-04-09 22:06:25.078647,195490,1315096347,1315098201,0.905728,-0.470432,0.101504,-14.77,2.23125,14.14,-24.36,19.616001,22.12,eccentric,6,3.0,31665.0,403431.0,128130.0,5143.0,-146.0
2026-04-09 22:06:25.080847,195491,1315110915,1315113199,0.91744,-0.421632,0.10736,-11.97875,2.275,12.46875,-22.192001,19.648,21.016,eccentric,6,3.0,31665.0,403431.0,128130.0,5143.0,-146.0
2026-04-09 22:06:25.085511,195492,1315119925,1315121913,0.91744,-0.421632,0.138592,-9.98375,1.40875,10.8675,-22.192001,19.648,21.016,eccentric,6,3.0,31665.0,403431.0,128130.0,5143.0,-146.0
2026-04-09 22:06:25.087012,195493,1315128833,1315130595,0.890112,-0.443104,0.132736,-13.055,0.7525,6.9825,-22.04,19.528002,20.448002,eccentric,6,3.0,31665.0,403431.0,128130.0,5143.0,-146.0
2026-04-09 22:06:25.119342,195494,1315143447,1315145522,0.854976,-0.452864,0.173728,-12.67875,-0.25375,4.095,-21.104,19.856,20.936,eccentric,6,3.0,31665.0,403431.0,128130.0,5143.0,-146.0
2026-04-09 22:06:25.142379,195504,1315152795,1315154236,0.854976,-0.452864,0.173728,-10.71,-0.4725,3.325,-21.104,19.856,20.936,eccentric,6,3.0,31520.0,403431.0,128296.0,5248.0,-138.0
2026-04-09 22:06:25.144904,195505,1315161794,1315162996,0.860832,-0.394304,0.103456,-11.94375,-0.74375,1.715,-21.344002,19.368,22.448002,eccentric,6,3.0,31520.0,403431.0,128296.0,5248.0,-138.0
2026-04-09 22:06:25.147389,195506,1315170660,1315171781,0.860832,-0.394304,0.103456,-11.90875,-1.715,0.97125,-21.344002,19.368,22.448002,eccentric,6,3.0,31520.0,403431.0,128296.0,5248.0,-138.0
2026-04-09 22:06:25.149889,195507,1315185219,1315186715,0.886208,-0.425536,0.085888,-10.59625,-3.05375,-1.1025,-21.272001,19.272001,21.880001,eccentric,6,3.0,31520.0,403431.0,128296.0,5248.0,-138.0
2026-04-09 22:06:25.152374,195508,1315194207,1315195415,0.886208,-0.425536,0.085888,-8.2075,-4.17375,-3.43875,-21.272001,19.272001,21.880001,eccentric,6,3.0,31520.0,403431.0,128296.0,5248.0,-138.0
2026-04-09 22:06:25.158672,195509,1315203187,1315204131,0.864736,-0.454816,0.181536,-6.965,-4.3925,-4.50625,-22.12,18.92,21.920002,eccentric,6,3.0,31520.0,403431.0,128296.0,5248.0,-138.0
2026-04-09 22:06:25.188865,195510,1315217689,1315219070,0.864736,-0.454816,0.181536,-8.225,-4.06,-4.6025,-22.12,18.92,21.920002,eccentric,6,3.0,31520.0,403431.0,128296.0,5248.0,-138.0
2026-04-09 22:06:25.192388,195511,1315226616,1315227760,0.821792,-0.343552,0.163968,-7.7875,-3.36,-5.3375,-21.112001,18.696001,20.544,eccentric,6,3.0,31520.0,403431.0,128296.0,5248.0,-138.0
2026-04-09 22:06:25.194887,195512,1315235544,1315236430,0.821792,-0.343552,0.163968,-5.59125,-2.73,-6.65,-21.112001,18.696001,20.544,eccentric,6,3.0,31520.0,403431.0,128296.0,5248.0,-138.0
2026-04-09 22:06:25.225160,195513,1315250055,1315251363,0.851072,-0.349408,0.089792,-2.0825,-3.92,-10.815,-21.776001,19.152,22.256,eccentric,6,3.0,31520.0,403431.0,128296.0,5248.0,-138.0
2026-04-09 22:06:25.257422,195524,1315259089,1315260160,0.851072,-0.349408,0.089792,4.15625,-5.285,-13.64125,-21.776001,19.152,22.256,eccentric,6,3.0,31418.0,403431.0,128248.0,5277.0,-149.0
2026-04-09 22:06:25.259951,195525,1315268027,1315268873,0.853024,-0.450912,0.10736,5.7925,-5.3375,-16.178751,-20.688002,19.096,21.056002,eccentric,6,3.0,31418.0,403431.0,128248.0,5277.0,-149.0
2026-04-09 22:06:25.262406,195526,1315282516,1315283818,0.827648,-0.31232,0.132736,8.00625,-5.88,-16.02125,-20.256,19.176,20.824001,eccentric,6,3.0,31418.0,403431.0,128248.0,5277.0,-149.0
2026-04-09 22:06:25.264938,195527,1315291461,1315292538,0.827648,-0.31232,0.132736,9.10875,-6.29125,-18.38375,-20.256,19.176,20.824001,eccentric,6,3.0,31418.0,403431.0,128248.0,5277.0,-149.0
2026-04-09 22:06:25.267434,195528,1315300417,1315301236,0.827648,-0.31232,0.132736,13.0375,-6.2825,-21.70875,-20.256,19.176,20.824001,eccentric,6,3.0,31418.0,403431.0,128248.0,5277.0,-149.0
2026-04-09 22:06:25.269974,195529,1315309321,1315309896,0.774944,-0.26352,0.080032,13.6325,-7.49,-27.0375,-21.728,18.44,22.480001,eccentric,6,3.0,31418.0,403431.0,128248.0,5277.0,-149.0
2026-04-09 22:06:25.296274,195530,1315324159,1315324879,0.698816,-0.394304,0.15616,13.16,-8.6975,-32.3225,-21.6,18.504002,23.784,eccentric,6,3.0,31418.0,403431.0,128248.0,5277.0,-149.0
2026-04-09 22:06:25.298661,195531,1315333476,1315335632,0.698816,-0.394304,0.15616,12.67875,-7.7875,-32.69875,-21.6,18.504002,23.784,eccentric,6,3.0,31418.0,403431.0,128248.0,5277.0,-149.0
2026-04-09 22:06:25.301150,195532,1315342395,1315344351,0.718336,-0.36112,0.11712,7.04375,-5.48625,-31.053751,-20.504002,17.984001,22.696001,eccentric,6,3.0,31418.0,403431.0,128248.0,5277.0,-149.0
2026-04-09 22:06:25.389637,195542,1315357398,1315359397,0.718336,-0.36112,0.11712,2.94875,-2.555,-26.99375,-20.504002,17.984001,22.696001,eccentric,6,3.0,31339.0,403431.0,127318.0,4958.0,-139.0
2026-04-09 22:06:25.391246,195543,1315366399,1315368091,0.72224,-0.353312,0.158112,0.44625,1.56625,-25.33125,-20.784,17.896,21.424002,eccentric,6,3.0,31339.0,403431.0,127318.0,4958.0,-139.0
2026-04-09 22:06:25.395425,195544,1315375332,1315376764,0.72224,-0.353312,0.158112,-1.25125,5.7575,-26.41625,-20.784,17.896,21.424002,eccentric,6,3.0,31339.0,403431.0,127318.0,4958.0,-139.0
2026-04-09 22:06:25.397149,195545,1315384301,1315385449,0.696864,-0.35136,0.183488,2.58125,9.065,-25.01625,-20.872002,17.28,21.776001,eccentric,6,3.0,31339.0,403431.0,127318.0,4958.0,-139.0
2026-04-09 22:06:25.398842,195546,1315398784,1315400324,0.696864,-0.35136,0.183488,4.57625,11.655,-25.865,-20.872002,17.28,21.776001,eccentric,6,3.0,31339.0,403431.0,127318.0,4958.0,-139.0
2026-04-09 22:06:25.402920,195547,1315407692,1315409026,0.65392,-0.357216,0.138592,4.3925,14.875,-25.4625,-20.944,17.36,21.880001,eccentric,6,3.0,31339.0,403431.0,127318.0,4958.0,-139.0
2026-04-09 22:06:25.404631,195548,1315416641,1315417726,0.65392,-0.357216,0.138592,6.8775,17.91125,-23.45875,-20.944,17.36,21.880001,eccentric,6,3.0,31339.0,403431.0,127318.0,4958.0,-139.0
2026-04-09 22:06:25.406209,195549,1315431082,1315432631,0.743712,-0.345504,0.099552,7.44625,19.66125,-25.89125,-20.768002,17.912,22.032001,eccentric,6,3.0,31339.0,403431.0,127318.0,4958.0,-139.0
2026-04-09 22:06:25.410436,195550,1315440113,1315441435,0.743712,-0.345504,0.099552,11.0075,22.82875,-23.58125,-20.768002,17.912,22.032001,eccentric,6,3.0,31339.0,403431.0,127318.0,4958.0,-139.0
2026-04-09 22:06:25.412216,195551,1315449084,1315450187,0.804224,-0.4392,0.218624,4.0425,28.91,-21.11375,-20.944,17.504002,21.12,eccentric,6,3.0,31339.0,403431.0,127318.0,4958.0,-139.0
2026-04-09 22:06:25.437905,195561,1315463818,1315465192,0.732,-0.345504,0.329888,-0.51625,38.885,-14.07875,-20.744001,17.104,22.928001,eccentric,6,3.0,31335.0,403431.0,127275.0,4978.0,-144.0
2026-04-09 22:06:25.439444,195562,1315472782,1315473950,0.732,-0.345504,0.329888,-8.505,48.29125,-9.87,-20.744001,17.104,22.928001,eccentric,6,3.0,31335.0,403431.0,127275.0,4978.0,-144.0
2026-04-09 22:06:25.445442,195563,1315481696,1315482673,0.732,-0.447008,0.03904,-12.32875,52.5525,-14.55125,-20.744001,17.104,22.928001,eccentric,6,3.0,31335.0,403431.0,127275.0,4978.0,-144.0
2026-04-09 22:06:25.447858,195564,1315490747,1315491414,0.694912,-0.447008,0.03904,-7.035,52.45625,-21.9275,-21.640001,16.552,24.672,eccentric,6,3.0,31335.0,403431.0,127275.0,4978.0,-144.0
2026-04-09 22:06:25.476409,195565,1315505578,1315506377,0.735904,-0.484096,-0.037088,5.15375,46.24375,-27.475,-22.256,17.184,24.728,eccentric,6,3.0,31335.0,403431.0,127275.0,4978.0,-144.0
2026-04-09 22:06:25.481757,195566,1315514468,1315515083,0.735904,-0.484096,-0.037088,24.745,39.36625,-25.9,-22.256,17.184,24.728,eccentric,6,3.0,31335.0,403431.0,127275.0,4978.0,-144.0
2026-04-09 22:06:25.483279,195567,1315523744,1315525843,0.788608,-0.162016,0.376736,33.90625,38.4475,-21.0175,-21.392,16.712,23.480001,eccentric,6,3.0,31335.0,403431.0,127275.0,4978.0,-144.0
2026-04-09 22:06:25.513554,195568,1315538226,1315538707,0.788608,-0.162016,0.376736,23.905,43.09375,-23.59875,-21.392,16.712,23.480001,eccentric,6,3.0,31335.0,403431.0,127275.0,4978.0,-144.0
2026-04-09 22:06:25.518782,195569,1315547560,1315549445,0.76128,-0.290848,0.308416,1.23375,51.03875,-39.2175,-22.184002,15.848001,24.456001,eccentric,6,3.0,31335.0,403431.0,127275.0,4978.0,-144.0
2026-04-09 22:06:25.549255,195580,1315556992,1315558237,0.76128,-0.290848,0.308416,-12.20625,55.46625,-55.44875,-22.184002,15.848001,24.456001,eccentric,6,3.0,32091.0,399466.0,120617.0,3210.0,-159.0
2026-04-09 22:06:25.550892,195581,1315565966,1315567075,0.610976,-0.325984,0.093696,-11.2525,52.535,-65.5025,-21.928001,16.072,24.936,eccentric,6,3.0,32091.0,399466.0,120617.0,3210.0,-159.0
2026-04-09 22:06:25.552456,195582,1315580490,1315582002,0.610976,-0.325984,0.093696,-1.2775,42.69125,-69.78125,-21.928001,16.072,24.936,eccentric,6,3.0,32091.0,399466.0,120617.0,3210.0,-159.0
2026-04-09 22:06:25.559198,195583,1315589432,1315590776,0.569984,-0.238144,0.011712,11.01625,31.7975,-70.27125,-22.808,15.408001,24.304,eccentric,6,3.0,32091.0,399466.0,120617.0,3210.0,-159.0
2026-04-09 22:06:25.560901,195584,1315598353,1315599479,0.569984,-0.238144,0.011712,15.96875,24.85875,-66.75375,-22.808,15.408001,24.304,eccentric,6,3.0,32091.0,399466.0,120617.0,3210.0,-159.0
2026-04-09 22:06:25.562491,195585,1315607471,1315608193,0.5368,-0.236192,0.324032,11.261251,24.272501,-61.0225,-23.104002,14.784,25.28,eccentric,6,3.0,32091.0,399466.0,120617.0,3210.0,-159.0
2026-04-09 22:06:25.594103,195586,1315622388,1315623135,0.443104,-0.152256,0.228384,2.93125,26.17125,-55.16875,-23.104002,14.784,24.328001,eccentric,6,3.0,32091.0,399466.0,120617.0,3210.0,-159.0
2026-04-09 22:06:25.595829,195587,1315631777,1315633926,0.441152,-0.152256,0.228384,-6.1075,26.10125,-56.735,-23.264002,14.176001,24.328001,eccentric,6,3.0,32091.0,399466.0,120617.0,3210.0,-159.0
2026-04-09 22:06:25.600516,195588,1315640768,1315642634,0.441152,-0.152256,0.228384,-2.47625,22.09375,-58.49375,-23.264002,14.176001,24.328001,eccentric,6,3.0,32091.0,399466.0,120617.0,3210.0,-159.0
2026-04-09 22:06:25.686684,195598,1315655658,1315658003,0.476288,-0.226432,0.017568,15.417501,13.0725,-57.8725,-23.480001,14.376,25.072,eccentric,6,3.0,31567.0,403413.0,124888.0,4310.0,-146.0
2026-04-09 22:06:25.688437,195599,1315664630,1315666749,0.51728,-0.306464,0.267424,33.53,6.39625,-50.951252,-24.12,14.096001,27.400002,eccentric,6,3.0,31567.0,403413.0,124888.0,4310.0,-146.0
2026-04-09 22:06:25.690006,195600,1315673565,1315675466,0.51728,-0.306464,0.267424,32.06,5.0575,-40.1975,-24.12,14.096001,27.400002,eccentric,6,3.0,31567.0,403413.0,124888.0,4310.0,-146.0
2026-04-09 22:06:25.694211,195601,1315682499,1315684239,0.51728,-0.259616,0.238144,13.39625,6.2825,-31.61375,-24.12,14.096001,25.352001,eccentric,6,3.0,31567.0,403413.0,124888.0,4310.0,-146.0
2026-04-09 22:06:25.695882,195602,1315697073,1315699160,0.505568,-0.259616,0.238144,-3.70125,6.1425,-23.87,-23.880001,13.944,25.824001,eccentric,6,3.0,31567.0,403413.0,124888.0,4310.0,-146.0
2026-04-09 22:06:25.697453,195603,1315705976,1315707855,0.560224,-0.150304,0.07808,-6.93875,1.07625,-18.94375,-23.560001,13.928,25.776001,eccentric,6,3.0,31567.0,403413.0,124888.0,4310.0,-146.0
2026-04-09 22:06:25.701806,195604,1315714967,1315716546,0.560224,-0.150304,0.07808,8.295,-5.73125,-15.1725,-23.560001,13.928,25.776001,eccentric,6,3.0,31567.0,403413.0,124888.0,4310.0,-146.0
2026-04-09 22:06:25.703374,195605,1315729532,1315731469,0.618784,-0.324032,0.324032,23.66,-9.205,-10.7275,-23.952002,13.648001,27.408,eccentric,6,3.0,31567.0,403413.0,124888.0,4310.0,-146.0
2026-04-09 22:06:25.704929,195606,1315738580,1315740248,0.618784,-0.324032,0.324032,19.1275,-10.3075,-5.69625,-23.952002,13.648001,27.408,eccentric,6,3.0,31567.0,403413.0,124888.0,4310.0,-146.0
2026-04-09 22:06:25.709219,195607,1315747710,1315748985,0.677344,-0.33184,0.160064,11.4275,-9.91375,-0.69125,-23.752,13.784,25.68,eccentric,6,3.0,31567.0,403413.0,124888.0,4310.0,-146.0
2026-04-09 22:06:25.733434,195617,1315757252,1315757820,0.677344,-0.33184,0.160064,10.14125,-11.6025,2.9925,-23.752,13.784,25.68,eccentric,6,3.0,31210.0,403431.0,127957.0,5373.0,-141.0
2026-04-09 22:06:25.735046,195618,1315772388,1315772803,0.763232,-0.25376,0.177632,14.55125,-15.636251,5.7575,-23.480001,13.6,25.800001,eccentric,6,3.0,31210.0,403431.0,127957.0,5373.0,-141.0
2026-04-09 22:06:25.739321,195619,1315781759,1315783601,0.763232,-0.25376,0.177632,24.2375,-19.25875,9.28375,-23.480001,13.6,25.800001,eccentric,6,3.0,31210.0,403431.0,127957.0,5373.0,-141.0
2026-04-09 22:06:25.773543,195620,1315790888,1315792317,0.784704,-0.347456,0.31232,25.025,-19.1975,9.89625,-23.848001,14.152,26.792002,eccentric,6,3.0,31210.0,403431.0,127957.0,5373.0,-141.0
2026-04-09 22:06:25.775779,195621,1315799825,1315801043,0.784704,-0.347456,0.31232,21.30625,-16.9575,7.455,-23.848001,14.152,26.792002,eccentric,6,3.0,31210.0,403431.0,127957.0,5373.0,-141.0
2026-04-09 22:06:25.780406,195622,1315814302,1315815966,0.804224,-0.368928,0.255712,22.8375,-13.86,4.90875,-23.624,14.072001,26.248001,eccentric,6,3.0,31210.0,403431.0,127957.0,5373.0,-141.0
2026-04-09 22:06:25.782078,195623,1315823215,1315824690,0.843264,-0.284992,0.122976,20.76375,-11.75125,2.3975,-23.624,14.072001,27.088001,eccentric,6,3.0,31210.0,403431.0,127957.0,5373.0,-141.0
2026-04-09 22:06:25.812217,195624,1315832205,1315833495,0.843264,-0.284992,0.122976,19.67,-11.47125,-0.4725,-23.824001,13.816001,27.088001,eccentric,6,3.0,31210.0,403431.0,127957.0,5373.0,-141.0
2026-04-09 22:06:25.814853,195625,1315846725,1315848414,0.843264,-0.316224,0.27328,21.9275,-11.9525,-5.27625,-23.784,13.952001,26.264002,eccentric,6,3.0,31210.0,403431.0,127957.0,5373.0,-141.0
2026-04-09 22:06:25.845869,195636,1315855643,1315857011,0.843264,-0.316224,0.27328,21.0175,-9.7825,-9.38,-23.784,13.952001,26.264002,eccentric,6,3.0,31398.0,403431.0,126292.0,4846.0,-141.0
2026-04-09 22:06:25.847451,195637,1315864608,1315865784,0.7808,-0.372832,0.21472,16.59,-7.00875,-12.97625,-23.992,13.992001,26.408,eccentric,6,3.0,31398.0,403431.0,126292.0,4846.0,-141.0
2026-04-09 22:06:25.851696,195638,1315879142,1315880779,0.7808,-0.372832,0.21472,14.7875,-5.22375,-13.18625,-23.992,13.992001,26.408,eccentric,6,3.0,31398.0,403431.0,126292.0,4846.0,-141.0
2026-04-09 22:06:25.853406,195639,1315888084,1315889479,0.776896,-0.187392,0.150304,18.19125,-6.71125,-13.37,-24.808,14.120001,27.232,eccentric,6,3.0,31398.0,403431.0,126292.0,4846.0,-141.0
2026-04-09 22:06:25.854966,195640,1315897038,1315898222,0.776896,-0.187392,0.150304,20.90375,-8.49625,-14.595,-24.808,14.120001,27.232,eccentric,6,3.0,31398.0,403431.0,126292.0,4846.0,-141.0
2026-04-09 22:06:25.862794,195641,1315905934,1315906971,0.757376,-0.304512,0.23424,19.36375,-8.47,-15.575,-24.552002,13.952001,27.28,eccentric,6,3.0,31398.0,403431.0,126292.0,4846.0,-141.0
2026-04-09 22:06:25.891329,195642,1315920458,1315921917,0.757376,-0.304512,0.23424,12.495,-7.14875,-15.435,-24.552002,13.952001,27.28,eccentric,6,3.0,31398.0,403431.0,126292.0,4846.0,-141.0
2026-04-09 22:06:25.895859,195643,1315929374,1315930620,0.753472,-0.30256,0.218624,9.38875,-7.42,-13.83375,-24.128,13.768001,26.384,eccentric,6,3.0,31398.0,403431.0,126292.0,4846.0,-141.0
2026-04-09 22:06:25.898228,195644,1315938260,1315939344,0.753472,-0.30256,0.218624,11.17375,-7.315,-10.5875,-24.128,13.768001,26.384,eccentric,6,3.0,31398.0,403431.0,126292.0,4846.0,-141.0
2026-04-09 22:06:25.929115,195645,1315952789,1315954262,0.745664,-0.218624,0.132736,12.46875,-8.89,-7.175,-24.496,13.632001,28.048002,eccentric,6,3.0,31398.0,403431.0,126292.0,4846.0,-141.0
2026-04-09 22:06:25.988762,195655,1315961885,1315963084,0.745664,-0.218624,0.132736,12.3025,-10.96375,-4.83,-24.496,13.632001,28.048002,eccentric,6,3.0,31642.0,403022.0,124230.0,4199.0,-152.0
2026-04-09 22:06:25.992086,195656,1315970840,1315971801,0.812032,-0.228384,0.197152,13.97375,-13.125,-1.9075,-23.496,13.840001,26.112001,eccentric,6,3.0,31642.0,403022.0,124230.0,4199.0,-152.0
2026-04-09 22:06:25.993612,195657,1315985390,1315986726,0.905728,-0.240096,0.18544,13.7375,-12.83625,-0.41125,-23.336,13.752001,26.224,eccentric,6,3.0,31642.0,403022.0,124230.0,4199.0,-152.0
2026-04-09 22:06:25.997987,195658,1315994321,1315995431,0.905728,-0.240096,0.18544,6.5975,-11.41,-0.3675,-23.336,13.752001,26.224,eccentric,6,3.0,31642.0,403022.0,124230.0,4199.0,-152.0
2026-04-09 22:06:26.000865,195659,1316003248,1316004164,0.905728,-0.240096,0.18544,2.975,-11.13875,-0.14,-23.336,13.752001,26.224,eccentric,6,3.0,31642.0,403022.0,124230.0,4199.0,-152.0
2026-04-09 22:06:26.002038,195660,1316012176,1316012868,0.979904,-0.31232,0.144448,4.10375,-12.1625,1.21625,-23.304,14.040001,25.824001,eccentric,6,3.0,31642.0,403022.0,124230.0,4199.0,-152.0
2026-04-09 22:06:26.006374,195661,1316027021,1316027757,0.999424,-0.368928,0.216672,6.58,-13.78125,4.85625,-22.736002,14.768001,26.104002,eccentric,6,3.0,31642.0,403022.0,124230.0,4199.0,-152.0
2026-04-09 22:06:26.007106,195662,1316036469,1316038530,0.999424,-0.368928,0.216672,4.29625,-13.86875,11.45375,-22.736002,14.768001,26.104002,eccentric,6,3.0,31642.0,403022.0,124230.0,4199.0,-152.0
2026-04-09 22:06:26.008700,195663,1316045420,1316047238,0.98576,-0.1952,0.181536,-1.8025,-12.1275,16.5025,-23.68,14.128,28.816002,eccentric,6,3.0,31642.0,403022.0,124230.0,4199.0,-152.0
