pc_time,serial_num,sensor_ts,host_ts,ax,ay,az,gx,gy,gz,mx,my,mz,phase,rpe,weight_kg,ppg_a,ppg_b,ppg_c,ppg_d,ppg_e
2026-04-08 21:52:46.857096,274584,1609504339061784,1939028897,0.903776,-0.01952,-0.072224,3.955,-0.53375,-4.3925,-19.792002,21.480001,5.488,concentric,4,3.0,26504.0,157029.0,240771.0,287585.0,268083.0
2026-04-08 21:52:46.858640,274585,1609504339070847,1939037640,0.825696,0.035136,-0.007808,6.18625,-0.2975,-5.10125,-19.936,21.328001,6.480001,concentric,4,3.0,26504.0,157029.0,240771.0,287585.0,268083.0
2026-04-08 21:52:46.862776,274586,1609504339085397,1939052528,0.825696,0.035136,-0.007808,7.07875,-0.0875,-5.81875,-19.936,21.328001,6.480001,concentric,4,3.0,26504.0,157029.0,240771.0,287585.0,268083.0
2026-04-08 21:52:46.867690,274587,1609504339094334,1939061224,0.862784,0.074176,-0.15616,2.9575,-1.4875,-9.54625,-20.048,21.216002,5.904,concentric,4,3.0,26504.0,157029.0,240771.0,287585.0,268083.0
2026-04-08 21:52:46.896276,274588,1609504339108812,1939074038,0.862784,0.074176,-0.15616,-0.23625,-0.9625,-11.042501,-20.048,21.216002,5.904,concentric,4,3.0,26504.0,157029.0,240771.0,287585.0,268083.0
2026-04-08 21:52:46.906574,274589,1609504339118028,1939084763,0.872544,0.037088,-0.103456,3.6925,0.2625,-8.47875,-19.880001,21.152,5.488,concentric,4,3.0,26504.0,157029.0,240771.0,287585.0,268083.0
2026-04-08 21:52:46.907458,274590,1609504339126948,1939093414,0.872544,0.037088,-0.103456,6.09875,0.81375,-5.3025,-19.880001,21.152,5.488,concentric,4,3.0,26504.0,157029.0,240771.0,287585.0,268083.0
2026-04-08 21:52:46.937723,274591,1609504339141409,1939108266,0.813984,0.005856,-0.027328,5.50375,-0.55125,-2.135,-19.976002,21.496,5.304,concentric,4,3.0,26504.0,157029.0,240771.0,287585.0,268083.0
2026-04-08 21:52:46.942361,274592,1609504339150334,1939116932,0.813984,0.005856,-0.183488,5.78375,-1.49625,1.61,-19.976002,21.496,5.304,concentric,4,3.0,26504.0,157029.0,240771.0,287585.0,268083.0
2026-04-08 21:52:46.970793,274603,1609504339165451,1939131842,0.853024,0.00976,-0.177632,5.01375,-3.5875,0.00875,-19.872002,21.304,6.624001,concentric,4,3.0,26570.0,157220.0,240836.0,287601.0,268104.0
2026-04-08 21:52:46.972359,274604,1609504339174411,1939140530,0.8784,0.064416,-0.060512,2.555,-4.64625,-5.6525,-19.952002,21.064001,5.944,concentric,4,3.0,26570.0,157220.0,240836.0,287601.0,268104.0
2026-04-08 21:52:46.976593,274605,1609504339188928,1939155514,0.8784,0.064416,-0.060512,6.22125,-3.36875,-6.39625,-19.952002,21.064001,5.944,concentric,4,3.0,26570.0,157220.0,240836.0,287601.0,268104.0
2026-04-08 21:52:46.978293,274606,1609504339197858,1939164250,0.909632,0.027328,0.089792,8.30375,-1.82875,-4.19125,-20.368,21.152,6.12,concentric,4,3.0,26570.0,157220.0,240836.0,287601.0,268104.0
2026-04-08 21:52:46.979813,274607,1609504339206781,1939172942,0.909632,0.027328,0.089792,5.215,-0.46375,-3.115,-20.368,21.152,6.12,concentric,4,3.0,26570.0,157220.0,240836.0,287601.0,268104.0
2026-04-08 21:52:47.032502,274608,1609504339221304,1939187843,0.8784,-0.01952,0.101504,4.515,-0.41125,-2.54625,-20.232,21.128,6.888001,concentric,4,3.0,26570.0,157220.0,240836.0,287601.0,268104.0
2026-04-08 21:52:47.036131,274609,1609504339230198,1939196559,0.8784,-0.01952,0.101504,3.4125,-1.5575,-0.595,-20.232,21.128,6.888001,concentric,4,3.0,26570.0,157220.0,240836.0,287601.0,268104.0
2026-04-08 21:52:47.038562,274610,1609504339244653,1939211421,0.83936,0.007808,-0.181536,-0.455,-3.7275,-1.9775,-19.872002,21.04,5.016,concentric,4,3.0,26570.0,157220.0,240836.0,287601.0,268104.0
2026-04-08 21:52:47.041052,274611,1609504339253576,1939220110,0.821792,0.03904,-0.105408,-2.56375,-5.13625,-6.685,-20.296001,20.984001,6.128,concentric,4,3.0,26570.0,157220.0,240836.0,287601.0,268104.0
2026-04-08 21:52:47.068757,274622,1609504339268172,1939235055,0.821792,0.03904,-0.105408,3.5875,-4.05125,-8.68,-20.296001,20.984001,6.128,concentric,4,3.0,26121.0,155953.0,240063.0,287281.0,267954.0
2026-04-08 21:52:47.071054,274623,1609504339277138,1939243754,0.845216,-0.00976,-0.070272,10.21125,-3.29875,-3.29,-20.432001,21.256,6.72,concentric,4,3.0,26121.0,155953.0,240063.0,287281.0,267954.0
2026-04-08 21:52:47.073524,274624,1609504339286194,1939252409,0.845216,-0.00976,-0.070272,9.065,-3.255,1.40875,-20.432001,21.256,6.72,concentric,4,3.0,26121.0,155953.0,240063.0,287281.0,267954.0
2026-04-08 21:52:47.076399,274625,1609504339300686,1939267362,0.79056,-0.02928,-0.128832,5.53875,-3.15875,1.12875,-20.256,20.856,6.752,concentric,4,3.0,26121.0,155953.0,240063.0,287281.0,267954.0
2026-04-08 21:52:47.082310,274626,1609504339309637,1939276043,0.79056,-0.02928,-0.128832,2.40625,-4.13,0.0175,-20.256,20.856,6.752,concentric,4,3.0,26121.0,155953.0,240063.0,287281.0,267954.0
2026-04-08 21:52:47.112522,274627,1609504339324098,1939290967,0.8296,0.037088,-0.1464,-2.31875,-5.9325,-1.8375,-20.28,21.176,7.872,concentric,4,3.0,26121.0,155953.0,240063.0,287281.0,267954.0
2026-04-08 21:52:47.124825,274628,1609504339333023,1939299670,0.935008,-0.01952,-0.023424,0.32375,-6.4575,-5.03125,-20.44,21.008001,8.68,concentric,4,3.0,26121.0,155953.0,240063.0,287281.0,267954.0
2026-04-08 21:52:47.127339,274629,1609504339347511,1939314522,0.935008,-0.01952,-0.023424,6.99125,-5.20625,-5.04875,-20.44,21.008001,8.68,concentric,4,3.0,26121.0,155953.0,240063.0,287281.0,267954.0
2026-04-08 21:52:47.129842,274630,1609504339356450,1939323185,0.79056,0.015616,-0.02928,7.51625,-4.41875,-3.99,-20.456001,20.928001,7.656,concentric,4,3.0,26121.0,155953.0,240063.0,287281.0,267954.0
2026-04-08 21:52:47.159842,274641,1609504339366159,1939331947,0.79056,0.015616,-0.02928,6.55375,-4.10375,-3.5525,-20.456001,20.928001,7.656,concentric,4,3.0,25433.0,153915.0,238711.0,286531.0,267541.0
2026-04-08 21:52:47.166136,274642,1609504339380783,1939346923,0.851072,0.052704,-0.015616,4.97875,-5.10125,-3.6925,-20.44,20.848001,5.832,concentric,4,3.0,25433.0,153915.0,238711.0,286531.0,267541.0
2026-04-08 21:52:47.168548,274643,1609504339389692,1939355624,0.851072,0.052704,-0.015616,1.68,-5.53,-3.59625,-20.44,20.848001,5.832,concentric,4,3.0,25433.0,153915.0,238711.0,286531.0,267541.0
2026-04-08 21:52:47.176107,274644,1609504339404157,1939370545,0.86864,0.0488,-0.091744,0.97125,-5.005,-3.8325,-20.224,21.096,5.912,concentric,4,3.0,25433.0,153915.0,238711.0,286531.0,267541.0
2026-04-08 21:52:47.206281,274645,1609504339413083,1939379219,0.931104,0.02928,0.080032,2.835,-3.40375,-4.87375,-20.768002,20.944,6.656,concentric,4,3.0,25433.0,153915.0,238711.0,286531.0,267541.0
2026-04-08 21:52:47.209908,274646,1609504339421979,1939387897,0.931104,0.02928,0.080032,4.38375,-2.00375,-5.7925,-20.768002,20.944,6.656,concentric,4,3.0,25433.0,153915.0,238711.0,286531.0,267541.0
2026-04-08 21:52:47.212335,274647,1609504339436431,1939402793,0.903776,0.01952,0.021472,6.2475,-1.33875,-5.39875,-20.824001,21.024,5.944,concentric,4,3.0,25433.0,153915.0,238711.0,286531.0,267541.0
2026-04-08 21:52:47.217425,274648,1609504339445436,1939411464,0.903776,0.01952,0.021472,5.22375,-1.085,-3.9725,-20.824001,21.024,5.944,concentric,4,3.0,25433.0,153915.0,238711.0,286531.0,267541.0
2026-04-08 21:52:47.247492,274649,1609504339459912,1939426397,0.81984,0.050752,-0.062464,1.26,-1.42625,-2.8,-20.864,20.696001,8.568001,concentric,4,3.0,25433.0,153915.0,238711.0,286531.0,267541.0
2026-04-08 21:52:47.276130,274660,1609504339468895,1939435216,0.81984,0.050752,-0.062464,0.3675,-1.12875,-2.52875,-20.864,20.696001,8.568001,concentric,4,3.0,25410.0,153899.0,238742.0,286590.0,267552.0
2026-04-08 21:52:47.278557,274661,1609504339483403,1939450100,0.944768,0.003904,0.062464,2.28375,-1.6625,-3.255,-20.856,21.056002,6.064,concentric,4,3.0,25410.0,153899.0,238742.0,286590.0,267552.0
2026-04-08 21:52:47.281032,274662,1609504339492416,1939458825,0.944768,0.003904,0.062464,4.90875,-2.835,-5.705,-20.856,21.056002,6.064,concentric,4,3.0,25410.0,153899.0,238742.0,286590.0,267552.0
2026-04-08 21:52:47.283544,274663,1609504339501337,1939467594,0.958432,0.001952,-0.044896,8.89875,-2.5725,-9.4675,-20.952002,20.864,6.24,concentric,4,3.0,25410.0,153899.0,238742.0,286590.0,267552.0
2026-04-08 21:52:47.287292,274664,1609504339515963,1939482515,0.886208,0.083936,0.08784,10.45625,-2.54625,-12.005,-21.456001,20.536001,6.16,concentric,4,3.0,25410.0,153899.0,238742.0,286590.0,267552.0
2026-04-08 21:52:47.333842,274665,1609504339524891,1939491220,0.886208,0.083936,0.08784,9.73875,-2.2575,-12.285,-21.456001,20.536001,6.16,concentric,4,3.0,25410.0,153899.0,238742.0,286590.0,267552.0
2026-04-08 21:52:47.337322,274666,1609504339539436,1939506058,0.853024,0.01952,-0.07808,9.135,-2.2225,-12.705,-21.728,20.568,5.752,concentric,4,3.0,25410.0,153899.0,238742.0,286590.0,267552.0
2026-04-08 21:52:47.339840,274667,1609504339548350,1939514704,0.853024,0.01952,-0.07808,9.0825,-3.99,-14.14875,-21.728,20.568,5.752,concentric,4,3.0,25410.0,153899.0,238742.0,286590.0,267552.0
2026-04-08 21:52:47.342325,274668,1609504339557285,1939523421,0.862784,0.00976,0.025376,11.2525,-5.5125,-15.855001,-21.448002,20.608002,6.520001,concentric,4,3.0,25410.0,153899.0,238742.0,286590.0,267552.0
2026-04-08 21:52:47.369759,274679,1609504339571769,1939538350,0.862784,0.00976,0.025376,13.69375,-6.16875,-18.655,-21.448002,20.608002,6.520001,concentric,4,3.0,25689.0,154845.0,239461.0,286859.0,267670.0
2026-04-08 21:52:47.372334,274680,1609504339580793,1939547093,0.964288,0.011712,-0.060512,14.27125,-5.62625,-20.7025,-21.944,20.456001,8.328,concentric,4,3.0,25689.0,154845.0,239461.0,286859.0,267670.0
2026-04-08 21:52:47.374871,274681,1609504339595464,1939561989,0.909632,0.081984,-0.056608,16.07375,-3.535,-21.28,-22.224,20.088001,8.400001,concentric,4,3.0,25689.0,154845.0,239461.0,286859.0,267670.0
2026-04-08 21:52:47.377356,274682,1609504339604404,1939570678,0.909632,0.081984,-0.056608,19.005,-1.3825,-21.74375,-22.224,20.088001,8.400001,concentric,4,3.0,25689.0,154845.0,239461.0,286859.0,267670.0
2026-04-08 21:52:47.408532,274683,1609504339618895,1939585573,0.876448,0.081984,-0.0488,20.0725,-0.105,-22.95125,-22.568,19.952002,7.536,concentric,4,3.0,25689.0,154845.0,239461.0,286859.0,267670.0
2026-04-08 21:52:47.410784,274684,1609504339627806,1939594235,0.876448,0.081984,-0.0488,17.053751,0.95375,-23.68625,-22.568,19.952002,7.536,concentric,4,3.0,25689.0,154845.0,239461.0,286859.0,267670.0
2026-04-08 21:52:47.415328,274685,1609504339636726,1939602885,1.009184,0.111264,0.007808,10.26375,0.51625,-23.19625,-22.296001,19.592001,6.68,concentric,4,3.0,25689.0,154845.0,239461.0,286859.0,267670.0
2026-04-08 21:52:47.443745,274686,1609504339651233,1939617789,1.009184,0.111264,0.007808,7.07,0.16625,-21.56,-22.296001,19.592001,6.68,concentric,4,3.0,25689.0,154845.0,239461.0,286859.0,267670.0
2026-04-08 21:52:47.452160,274687,1609504339660149,1939626484,0.974048,0.109312,-0.003904,13.76375,2.54625,-19.59125,-23.008001,19.824001,7.712,concentric,4,3.0,25689.0,154845.0,239461.0,286859.0,267670.0
2026-04-08 21:52:47.479635,274698,1609504339674674,1939641376,0.905728,0.103456,0.052704,17.9025,4.94375,-17.325,-22.752,19.696001,8.608001,concentric,4,3.0,26247.0,156153.0,240119.0,287157.0,267804.0
2026-04-08 21:52:47.481064,274699,1609504339683704,1939650162,0.905728,0.103456,0.052704,13.20375,5.0575,-14.58625,-22.752,19.696001,8.608001,concentric,4,3.0,26247.0,156153.0,240119.0,287157.0,267804.0
2026-04-08 21:52:47.485346,274700,1609504339698347,1939665076,0.98576,0.076128,0.015616,6.3,3.71,-11.261251,-23.216002,19.656,7.488,concentric,4,3.0,26247.0,156153.0,240119.0,287157.0,267804.0
2026-04-08 21:52:47.487048,274701,1609504339707424,1939673827,0.98576,0.076128,0.015616,0.07875,2.2575,-9.59,-23.216002,19.656,7.488,concentric,4,3.0,26247.0,156153.0,240119.0,287157.0,267804.0
2026-04-08 21:52:47.488580,274702,1609504339716364,1939682536,0.976,0.054656,0.03904,-2.87875,2.30125,-9.38,-23.032001,19.456001,8.096001,concentric,4,3.0,26247.0,156153.0,240119.0,287157.0,267804.0
2026-04-08 21:52:47.519627,274703,1609504339730864,1939697525,0.976,0.054656,0.03904,-0.7875,3.31625,-10.465,-23.032001,19.456001,8.096001,concentric,4,3.0,26247.0,156153.0,240119.0,287157.0,267804.0
2026-04-08 21:52:47.521909,274704,1609504339739797,1939706189,0.843264,0.060512,-0.154208,1.0675,4.4275,-12.06625,-23.312,19.592001,6.992,concentric,4,3.0,26247.0,156153.0,240119.0,287157.0,267804.0
2026-04-08 21:52:47.528930,274705,1609504339754265,1939721022,0.843264,0.060512,-0.148352,2.24875,5.06625,-13.195,-23.312,19.592001,6.992,concentric,4,3.0,26247.0,156153.0,240119.0,287157.0,267804.0
2026-04-08 21:52:47.557541,274706,1609504339763186,1939729751,0.874496,0.111264,-0.148352,2.61625,3.89375,-13.97375,-23.560001,19.416,6.712,concentric,4,3.0,26247.0,156153.0,240119.0,287157.0,267804.0
2026-04-08 21:52:47.587098,274717,1609504339777690,1939744657,0.979904,0.115168,0.0488,0.79625,3.42125,-13.55375,-23.184002,19.456001,6.928001,concentric,4,3.0,26257.0,156330.0,240492.0,287391.0,267939.0
2026-04-08 21:52:47.588650,274718,1609504339786639,1939753318,0.979904,0.115168,0.0488,-1.86375,2.94,-13.545,-23.184002,19.456001,6.928001,concentric,4,3.0,26257.0,156330.0,240492.0,287391.0,267939.0
2026-04-08 21:52:47.592874,274719,1609504339795590,1939762049,0.866688,0.111264,-0.023424,-4.34875,2.9225,-12.81875,-23.456001,19.192001,7.152,concentric,4,3.0,26257.0,156330.0,240492.0,287391.0,267939.0
2026-04-08 21:52:47.594573,274720,1609504339810143,1939777007,0.866688,0.111264,-0.023424,-6.72,3.26375,-11.7075,-23.456001,19.192001,7.152,concentric,4,3.0,26257.0,156330.0,240492.0,287391.0,267939.0
2026-04-08 21:52:47.596173,274721,1609504339819095,1939785740,0.845216,0.105408,-0.181536,-8.26875,3.535,-10.6225,-23.464,18.880001,8.216001,concentric,4,3.0,26257.0,156330.0,240492.0,287391.0,267939.0
2026-04-08 21:52:47.656049,274722,1609504339833591,1939800615,0.845216,0.105408,-0.181536,-6.7025,3.115,-9.24875,-23.464,18.880001,8.216001,concentric,4,3.0,26257.0,156330.0,240492.0,287391.0,267939.0
2026-04-08 21:52:47.657456,274723,1609504339842503,1939809284,0.866688,0.148352,-0.203008,-1.12,1.9425,-6.71125,-23.808,18.896002,8.568001,concentric,4,3.0,26257.0,156330.0,240492.0,287391.0,267939.0
2026-04-08 21:52:47.662179,274724,1609504339851415,1939817924,0.866688,0.148352,-0.203008,3.08875,1.40875,-5.45125,-23.808,18.896002,8.568001,concentric,4,3.0,26257.0,156330.0,240492.0,287391.0,267939.0
2026-04-08 21:52:47.695484,274735,1609504339866109,1939833285,0.948672,0.124928,0.0488,3.73625,2.52875,-6.79,-24.096,18.952002,6.968,concentric,4,3.0,26151.0,156100.0,240587.0,287502.0,268001.0
2026-04-08 21:52:47.697111,274736,1609504339875076,1939841947,0.948672,0.124928,-0.181536,-1.995,2.59875,-7.41125,-24.096,18.952002,6.968,concentric,4,3.0,26151.0,156100.0,240587.0,287502.0,268001.0
2026-04-08 21:52:47.698659,274737,1609504339889578,1939854764,0.901824,0.064416,-0.181536,-11.1125,2.5725,-6.69375,-23.672,18.968,8.360001,concentric,4,3.0,26151.0,156100.0,240587.0,287502.0,268001.0
2026-04-08 21:52:47.703039,274738,1609504339898759,1939865525,0.874496,0.10736,-0.128832,-16.37125,1.98625,-5.90625,-23.840002,19.096,7.072001,concentric,4,3.0,26151.0,156100.0,240587.0,287502.0,268001.0
2026-04-08 21:52:47.704568,274739,1609504339913318,1939880438,0.874496,0.10736,-0.128832,-14.175,2.40625,-6.09,-23.840002,19.096,7.072001,concentric,4,3.0,26151.0,156100.0,240587.0,287502.0,268001.0
2026-04-08 21:52:47.706130,274740,1609504339922386,1939889116,0.866688,0.101504,-0.03904,-6.7375,3.89375,-7.4025,-23.704,19.136002,7.408001,concentric,4,3.0,26151.0,156100.0,240587.0,287502.0,268001.0
2026-04-08 21:52:47.714023,274741,1609504339931293,1939897773,0.866688,0.101504,-0.03904,-1.39125,3.4125,-9.1175,-23.704,19.136002,7.408001,concentric,4,3.0,26151.0,156100.0,240587.0,287502.0,268001.0
2026-04-08 21:52:47.718099,274742,1609504339945779,1939912667,0.964288,0.072224,-0.05856,-0.455,2.3275,-9.905,-23.864,19.208,7.272,concentric,4,3.0,26151.0,156100.0,240587.0,287502.0,268001.0
2026-04-08 21:52:47.727785,274743,1609504339954727,1939921340,0.964288,0.072224,-0.05856,-1.77625,1.30375,-10.5,-23.864,19.208,7.272,concentric,4,3.0,26151.0,156100.0,240587.0,287502.0,268001.0
2026-04-08 21:52:47.783406,274754,1609504339969845,1939936247,0.96624,0.169824,0.03904,-2.31875,0.525,-10.63125,-24.488,18.952002,6.568,concentric,4,3.0,26426.0,156917.0,241165.0,287737.0,268049.0
2026-04-08 21:52:47.785009,274755,1609504339978801,1939944931,1.0248,0.152256,0.052704,-1.33,1.1725,-10.22875,-24.624,18.896002,7.304,concentric,4,3.0,26426.0,156917.0,241165.0,287737.0,268049.0
2026-04-08 21:52:47.789435,274756,1609504339987734,1939953628,1.0248,0.152256,0.052704,-0.27125,2.625,-10.57875,-24.624,18.896002,7.304,concentric,4,3.0,26426.0,156917.0,241165.0,287737.0,268049.0
2026-04-08 21:52:47.793124,274757,1609504340002310,1939968527,1.042368,0.115168,0.00976,-0.60375,3.14125,-10.0275,-24.912,19.016,7.792,concentric,4,3.0,26426.0,156917.0,241165.0,287737.0,268049.0
2026-04-08 21:52:47.793204,274758,1609504340011282,1939977196,1.042368,0.115168,0.00976,-3.89375,2.975,-9.8525,-24.912,19.016,7.792,concentric,4,3.0,26426.0,156917.0,241165.0,287737.0,268049.0
2026-04-08 21:52:47.797707,274759,1609504340025730,1939992131,0.964288,0.134688,-0.0488,-3.7975,3.38625,-10.15875,-24.776001,18.888,7.968,concentric,4,3.0,26426.0,156917.0,241165.0,287737.0,268049.0
2026-04-08 21:52:47.826341,274760,1609504340034663,1940000818,0.964288,0.134688,-0.0488,-2.52875,3.64875,-8.7675,-24.776001,18.888,7.968,concentric,4,3.0,26426.0,156917.0,241165.0,287737.0,268049.0
2026-04-08 21:52:47.830792,274761,1609504340049140,1940015695,1.003328,0.171776,-0.12688,-5.64375,3.8325,-6.755,-24.632002,18.832,8.160001,concentric,4,3.0,26426.0,156917.0,241165.0,287737.0,268049.0
2026-04-08 21:52:47.832359,274762,1609504340058054,1940024362,0.954528,0.242048,-0.056608,-10.01875,3.01875,-7.00875,-24.968,19.0,6.136,concentric,4,3.0,26426.0,156917.0,241165.0,287737.0,268049.0
2026-04-08 21:52:47.864864,274773,1609504340067181,1940033037,0.954528,0.242048,-0.056608,-13.72,1.91625,-7.8225,-24.968,19.0,6.136,concentric,4,3.0,26942.0,158512.0,242477.0,288542.0,268504.0
2026-04-08 21:52:47.871205,274774,1609504340081760,1940048078,1.013088,0.183488,0.132736,-19.678751,1.5925,-6.57125,-24.68,18.832,6.832,concentric,4,3.0,26942.0,158512.0,242477.0,288542.0,268504.0
2026-04-08 21:52:47.873196,274775,1609504340090757,1940056755,1.013088,0.183488,0.132736,-24.29875,1.1375,-3.82375,-24.68,18.832,6.832,concentric,4,3.0,26942.0,158512.0,242477.0,288542.0,268504.0
2026-04-08 21:52:47.937343,274776,1609504340105243,1940071683,1.052128,0.089792,0.113216,-29.085001,-0.00875,-2.1875,-24.776001,19.336,6.848001,concentric,4,3.0,26942.0,158512.0,242477.0,288542.0,268504.0
2026-04-08 21:52:47.939535,274777,1609504340114177,1940080368,1.052128,0.089792,0.113216,-28.8925,-1.30375,-3.99,-24.776001,19.336,6.848001,concentric,4,3.0,26942.0,158512.0,242477.0,288542.0,268504.0
2026-04-08 21:52:47.944142,274778,1609504340128664,1940095250,0.989664,0.03904,-0.113216,-19.34625,-1.3825,-5.27625,-24.992,19.144001,6.992,concentric,4,3.0,26942.0,158512.0,242477.0,288542.0,268504.0
2026-04-08 21:52:47.947316,274779,1609504340137589,1940103914,0.925248,0.132736,-0.056608,-7.7525,-1.21625,-7.8925,-25.648,18.624,7.776001,concentric,4,3.0,26942.0,158512.0,242477.0,288542.0,268504.0
2026-04-08 21:52:47.950557,274780,1609504340146528,1940112573,0.925248,0.132736,-0.056608,-1.6625,-1.51375,-10.99,-25.648,18.624,7.776001,concentric,4,3.0,26942.0,158512.0,242477.0,288542.0,268504.0
2026-04-08 21:52:47.951829,274781,1609504340161010,1940127419,0.960384,0.203008,-0.169824,3.12375,-1.5575,-11.85625,-25.52,18.36,6.728,concentric,4,3.0,26942.0,158512.0,242477.0,288542.0,268504.0
2026-04-08 21:52:47.979182,274792,1609504340170368,1940136088,0.960384,0.203008,-0.169824,7.5775,-1.30375,-11.41,-25.52,18.36,6.728,concentric,4,3.0,26830.0,157823.0,241594.0,287834.0,268039.0
2026-04-08 21:52:47.980844,274793,1609504340184889,1940151077,1.030656,0.230336,0.103456,7.805,-1.09375,-11.50625,-25.464,18.168001,8.52,concentric,4,3.0,26830.0,157823.0,241594.0,287834.0,268039.0
2026-04-08 21:52:47.982426,274794,1609504340193892,1940159812,1.030656,0.230336,0.103456,9.0125,0.00875,-11.17375,-25.464,18.168001,8.52,concentric,4,3.0,26830.0,157823.0,241594.0,287834.0,268039.0
2026-04-08 21:52:47.986605,274795,1609504340202831,1940168528,1.022848,0.150304,-0.033184,7.91,0.13125,-9.87,-25.432001,18.296001,7.016,concentric,4,3.0,26830.0,157823.0,241594.0,287834.0,268039.0
2026-04-08 21:52:47.989512,274796,1609504340217319,1940183387,1.022848,0.150304,0.062464,4.095,-0.0875,-9.31,-25.432001,18.296001,7.016,concentric,4,3.0,26830.0,157823.0,241594.0,287834.0,268039.0
2026-04-08 21:52:48.021026,274797,1609504340226328,1940192067,1.089216,0.15616,0.062464,-2.0825,-0.98875,-7.945,-25.448002,18.584002,7.024,concentric,4,3.0,26830.0,157823.0,241594.0,287834.0,268039.0
2026-04-08 21:52:48.026843,274798,1609504340240774,1940206899,0.999424,0.218624,-0.13664,-3.7625,-1.4875,-6.65,-25.448002,18.688002,7.056,concentric,4,3.0,26830.0,157823.0,241594.0,287834.0,268039.0
2026-04-08 21:52:48.029349,274799,1609504340249668,1940215612,0.999424,0.218624,-0.13664,0.04375,-0.18375,-7.00875,-25.448002,18.688002,7.056,concentric,4,3.0,26830.0,157823.0,241594.0,287834.0,268039.0
2026-04-08 21:52:48.057424,274800,1609504340264213,1940230458,1.009184,0.22448,0.007808,2.12625,1.42625,-7.595,-25.808,18.36,7.136,concentric,4,3.0,26830.0,157823.0,241594.0,287834.0,268039.0
2026-04-08 21:52:48.087436,274811,1609504340273297,1940239545,1.009184,0.22448,0.007808,1.9425,1.7325,-7.0175,-25.808,18.36,7.136,eccentric,4,3.0,27221.0,158688.0,241929.0,287941.0,268052.0
2026-04-08 21:52:48.117540,274812,1609504340282213,1940248214,1.106784,0.1464,0.015616,2.135,0.8925,-6.79,-25.664001,18.336,7.192,eccentric,4,3.0,27221.0,158688.0,241929.0,287941.0,268052.0
2026-04-08 21:52:48.121094,274813,1609504340296758,1940263140,1.106784,0.1464,0.015616,2.54625,0.1575,-8.05875,-25.664001,18.336,7.192,eccentric,4,3.0,27221.0,158688.0,241929.0,287941.0,268052.0
2026-04-08 21:52:48.123616,274814,1609504340305832,1940271817,1.075552,0.128832,-0.095648,2.98375,-0.1575,-7.69125,-25.672,18.376001,6.416,eccentric,4,3.0,27221.0,158688.0,241929.0,287941.0,268052.0
2026-04-08 21:52:48.126097,274815,1609504340320381,1940286755,1.081408,0.183488,-0.12688,2.56375,-0.91,-5.81,-25.888,18.176,8.936001,eccentric,4,3.0,27221.0,158688.0,241929.0,287941.0,268052.0
2026-04-08 21:52:48.128633,274816,1609504340329302,1940295469,1.081408,0.183488,-0.12688,7.48125,-0.6125,-4.095,-25.888,18.176,8.936001,eccentric,4,3.0,27221.0,158688.0,241929.0,287941.0,268052.0
2026-04-08 21:52:48.131160,274817,1609504340338270,1940304168,1.081408,0.21472,-0.173728,12.95,-0.13125,-3.50875,-25.888,18.176,8.936001,eccentric,4,3.0,27221.0,158688.0,241929.0,287941.0,268052.0
2026-04-08 21:52:48.133621,274818,1609504340352748,1940319018,1.098976,0.212768,-0.173728,15.96875,0.8575,-3.6925,-25.392002,18.12,7.632,eccentric,4,3.0,27221.0,158688.0,241929.0,287941.0,268052.0
2026-04-08 21:52:48.136110,274819,1609504340361715,1940327673,1.069696,0.271328,0.109312,16.38,1.5925,-1.89875,-25.592001,18.288,7.376,eccentric,4,3.0,27221.0,158688.0,241929.0,287941.0,268052.0
2026-04-08 21:52:48.163597,274830,1609504340376284,1940342680,1.069696,0.271328,0.109312,13.39625,2.0825,0.84875,-25.592001,18.288,7.376,eccentric,4,3.0,27398.0,159191.0,242336.0,288228.0,268230.0
2026-04-08 21:52:48.166133,274831,1609504340385346,1940351358,1.03456,0.255712,-0.111264,7.83125,1.51375,4.24375,-25.400002,18.184,7.400001,eccentric,4,3.0,27398.0,159191.0,242336.0,288228.0,268230.0
2026-04-08 21:52:48.171075,274832,1609504340399855,1940366289,1.098976,0.208864,-0.171776,2.87,0.25375,7.07875,-25.048,18.144001,9.224,eccentric,4,3.0,27398.0,159191.0,242336.0,288228.0,268230.0
2026-04-08 21:52:48.231382,274833,1609504340408810,1940374989,1.098976,0.208864,-0.171776,-0.48125,0.20125,8.4875,-25.048,18.144001,9.224,eccentric,4,3.0,27398.0,159191.0,242336.0,288228.0,268230.0
2026-04-08 21:52:48.234846,274834,1609504340417798,1940383644,1.098976,0.208864,-0.171776,-2.72125,0.84,8.365,-25.048,18.144001,9.224,eccentric,4,3.0,27398.0,159191.0,242336.0,288228.0,268230.0
2026-04-08 21:52:48.237309,274835,1609504340432270,1940398594,1.130208,0.189344,0.05856,-3.91125,1.84625,7.9275,-25.216002,18.344002,7.192,eccentric,4,3.0,27398.0,159191.0,242336.0,288228.0,268230.0
2026-04-08 21:52:48.239761,274836,1609504340441173,1940407257,1.022848,0.17568,-0.103456,-2.66875,1.8725,7.32375,-25.416,18.36,7.584001,eccentric,4,3.0,27398.0,159191.0,242336.0,288228.0,268230.0
2026-04-08 21:52:48.242366,274837,1609504340455617,1940422105,1.022848,0.17568,-0.103456,0.16625,2.70375,7.5775,-25.416,18.36,7.584001,eccentric,4,3.0,27398.0,159191.0,242336.0,288228.0,268230.0
2026-04-08 21:52:48.244828,274838,1609504340464516,1940430746,1.020896,0.140544,-0.083936,4.05125,2.9575,7.63,-24.472002,18.640001,7.608,eccentric,4,3.0,27398.0,159191.0,242336.0,288228.0,268230.0
2026-04-08 21:52:48.282276,274849,1609504340479218,1940445661,1.020896,0.15616,0.085888,2.51125,1.93375,7.035,-24.472002,18.640001,7.608,eccentric,4,3.0,27487.0,159245.0,242233.0,288002.0,268085.0
2026-04-08 21:52:48.284784,274850,1609504340488190,1940454341,1.118496,0.158112,0.085888,-1.3825,0.83125,5.97625,-24.488,18.528002,7.368001,eccentric,4,3.0,27487.0,159245.0,242233.0,288002.0,268085.0
2026-04-08 21:52:48.287290,274851,1609504340497161,1940463103,1.118496,0.158112,0.085888,2.8,0.42,6.3,-24.488,18.528002,7.368001,eccentric,4,3.0,27487.0,159245.0,242233.0,288002.0,268085.0
2026-04-08 21:52:48.289813,274852,1609504340511706,1940477978,1.042368,0.216672,0.001952,9.6075,1.63625,6.65875,-24.288002,18.712002,7.984,eccentric,4,3.0,27487.0,159245.0,242233.0,288002.0,268085.0
2026-04-08 21:52:48.292291,274853,1609504340520637,1940486693,1.018944,0.21472,-0.122976,14.245,2.45875,6.99125,-24.52,18.584002,9.848001,eccentric,4,3.0,27487.0,159245.0,242233.0,288002.0,268085.0
2026-04-08 21:52:48.323601,274854,1609504340535136,1940501589,1.018944,0.21472,-0.122976,15.75875,3.01875,7.8575,-24.52,18.584002,9.848001,eccentric,4,3.0,27487.0,159245.0,242233.0,288002.0,268085.0
2026-04-08 21:52:48.325792,274855,1609504340544047,1940510253,0.948672,0.179584,-0.13664,11.89125,3.0975,9.6775,-24.072,18.576,7.856,eccentric,4,3.0,27487.0,159245.0,242233.0,288002.0,268085.0
2026-04-08 21:52:48.332767,274856,1609504340558529,1940525091,0.948672,0.179584,-0.13664,3.89375,2.94875,12.3025,-24.072,18.576,7.856,eccentric,4,3.0,27487.0,159245.0,242233.0,288002.0,268085.0
2026-04-08 21:52:48.361303,274857,1609504340567555,1940533797,1.061888,0.122976,-0.021472,-6.51,1.89875,15.645,-23.808,18.640001,5.336,eccentric,4,3.0,27487.0,159245.0,242233.0,288002.0,268085.0
2026-04-08 21:52:48.391606,274868,1609504340576557,1940542483,1.061888,0.122976,-0.021472,-9.2575,1.02375,17.17625,-23.808,18.640001,5.336,eccentric,4,3.0,27857.0,160119.0,242673.0,288276.0,268246.0
2026-04-08 21:52:48.393321,274869,1609504340591028,1940557327,1.032608,0.130784,0.05856,-2.17,0.67375,16.8525,-23.344002,18.976002,7.936,eccentric,4,3.0,27857.0,160119.0,242673.0,288276.0,268246.0
2026-04-08 21:52:48.395783,274870,1609504340599947,1940566025,1.032608,0.1464,0.109312,5.03125,1.4525,15.04125,-23.344002,18.976002,7.936,eccentric,4,3.0,27857.0,160119.0,242673.0,288276.0,268246.0
2026-04-08 21:52:48.397351,274871,1609504340614547,1940580983,0.974048,0.140544,0.109312,6.65,2.1875,13.055,-23.008001,18.952002,8.96,eccentric,4,3.0,27857.0,160119.0,242673.0,288276.0,268246.0
2026-04-08 21:52:48.401489,274872,1609504340623497,1940589670,0.85888,0.142496,-0.085888,3.66625,2.4325,13.440001,-23.320002,19.016,9.080001,eccentric,4,3.0,27857.0,160119.0,242673.0,288276.0,268246.0
2026-04-08 21:52:48.431692,274873,1609504340638055,1940604600,0.85888,0.142496,-0.085888,-2.63375,2.1,15.4875,-23.320002,19.016,9.080001,eccentric,4,3.0,27857.0,160119.0,242673.0,288276.0,268246.0
2026-04-08 21:52:48.434527,274874,1609504340646990,1940613253,0.890112,0.091744,-0.171776,-6.3875,1.575,16.38875,-22.904001,19.2,8.064,eccentric,4,3.0,27857.0,160119.0,242673.0,288276.0,268246.0
2026-04-08 21:52:48.436185,274875,1609504340655919,1940621953,0.890112,0.091744,-0.171776,-8.12875,0.6125,15.645,-22.904001,19.2,8.064,eccentric,4,3.0,27857.0,160119.0,242673.0,288276.0,268246.0
2026-04-08 21:52:48.468339,274886,1609504340670467,1940636878,0.954528,0.085888,-0.07808,-7.8575,0.42875,14.7175,-22.800001,19.512001,7.76,eccentric,4,3.0,27871.0,160404.0,243059.0,288623.0,268507.0
2026-04-08 21:52:48.469886,274887,1609504340679564,1940645678,0.954528,0.085888,-0.07808,-5.355,0.56875,14.0,-22.800001,19.512001,7.76,eccentric,4,3.0,27871.0,160404.0,243059.0,288623.0,268507.0
2026-04-08 21:52:48.474116,274888,1609504340694116,1940660679,0.851072,0.093696,-0.124928,-3.01875,2.03,14.56875,-22.208,19.472,9.216001,eccentric,4,3.0,27871.0,160404.0,243059.0,288623.0,268507.0
2026-04-08 21:52:48.475798,274889,1609504340703031,1940669352,0.784704,0.111264,-0.142496,-3.3425,3.05375,17.1325,-22.112001,19.744001,9.616,eccentric,4,3.0,27871.0,160404.0,243059.0,288623.0,268507.0
2026-04-08 21:52:48.533499,274890,1609504340711971,1940678017,0.784704,0.111264,-0.142496,-7.00875,2.73,19.78375,-22.112001,19.744001,9.616,eccentric,4,3.0,27871.0,160404.0,243059.0,288623.0,268507.0
2026-04-08 21:52:48.535801,274891,1609504340726436,1940692885,0.880352,0.10736,0.072224,-11.935,1.6625,21.81375,-21.688002,19.896002,7.776001,eccentric,4,3.0,27871.0,160404.0,243059.0,288623.0,268507.0
2026-04-08 21:52:48.540432,274892,1609504340735369,1940701558,0.880352,0.10736,0.072224,-15.7325,0.8225,21.83125,-21.688002,19.896002,7.776001,eccentric,4,3.0,27871.0,160404.0,243059.0,288623.0,268507.0
2026-04-08 21:52:48.542142,274893,1609504340749824,1940716396,0.895968,0.046848,-0.017568,-15.28625,0.77875,20.7375,-21.488,19.936,7.624001,eccentric,4,3.0,27871.0,160404.0,243059.0,288623.0,268507.0
2026-04-08 21:52:48.543590,274894,1609504340758810,1940725052,0.895968,0.046848,-0.017568,-11.655,1.11125,21.3675,-21.488,19.936,7.624001,eccentric,4,3.0,27871.0,160404.0,243059.0,288623.0,268507.0
2026-04-08 21:52:48.578597,274905,1609504340773971,1940740237,0.769088,0.064416,0.046848,-8.8375,1.79375,22.25125,-21.104,20.2,7.616,eccentric,4,3.0,27944.0,160700.0,243368.0,288912.0,268709.0
2026-04-08 21:52:48.582198,274906,1609504340782944,1940748927,0.837408,0.025376,-0.070272,-10.99,2.24875,23.4325,-21.144001,20.36,8.552,eccentric,4,3.0,27944.0,160700.0,243368.0,288912.0,268709.0
2026-04-08 21:52:48.585392,274907,1609504340791857,1940757604,0.837408,0.025376,-0.070272,-12.74,0.83125,25.3225,-21.144001,20.36,8.552,eccentric,4,3.0,27944.0,160700.0,243368.0,288912.0,268709.0
2026-04-08 21:52:48.589332,274908,1609504340806384,1940772541,0.80032,0.011712,-0.11712,-11.20875,-0.525,25.13875,-20.368,20.784,8.632,eccentric,4,3.0,27944.0,160700.0,243368.0,288912.0,268709.0
2026-04-08 21:52:48.591442,274909,1609504340815307,1940781250,0.80032,0.011712,-0.11712,-8.46125,-1.0325,23.70375,-20.368,20.784,8.632,eccentric,4,3.0,27944.0,160700.0,243368.0,288912.0,268709.0
2026-04-08 21:52:48.619782,274910,1609504340829795,1940796204,0.77104,-0.017568,0.015616,-8.58375,-0.90125,21.1925,-20.208,21.240002,8.56,eccentric,4,3.0,27944.0,160700.0,243368.0,288912.0,268709.0
2026-04-08 21:52:48.624157,274911,1609504340838744,1940804876,0.77104,-0.017568,0.015616,-12.67875,-0.93625,18.76875,-20.208,21.240002,8.56,eccentric,4,3.0,27944.0,160700.0,243368.0,288912.0,268709.0
2026-04-08 21:52:48.626591,274912,1609504340847669,1940813576,0.81984,-0.052704,0.1464,-15.627501,-0.74375,16.6075,-19.864,20.944,7.272,eccentric,4,3.0,27944.0,160700.0,243368.0,288912.0,268709.0
2026-04-08 21:52:48.655098,274913,1609504340862211,1940828433,0.794464,-0.050752,0.07808,-14.805,-1.12875,14.3675,-19.864,21.312,9.576,eccentric,4,3.0,27944.0,160700.0,243368.0,288912.0,268709.0
2026-04-08 21:52:48.691593,274925,1609504340871500,1940837253,0.794464,-0.050752,0.07808,-13.195,-1.28625,12.27625,-19.92,21.312,9.576,eccentric,4,3.0,27534.0,159666.0,242865.0,288673.0,268615.0
2026-04-08 21:52:48.693343,274926,1609504340886057,1940852186,0.835456,-0.062464,0.070272,-10.5,-0.7875,8.5575,-19.888,21.256,7.392,eccentric,4,3.0,27534.0,159666.0,242865.0,288673.0,268615.0
2026-04-08 21:52:48.695759,274927,1609504340894963,1940860882,0.835456,-0.062464,0.070272,-7.60375,-0.51625,2.72125,-19.888,21.256,7.392,eccentric,4,3.0,27534.0,159666.0,242865.0,288673.0,268615.0
2026-04-08 21:52:48.697327,274928,1609504340909563,1940875929,0.776896,-0.066368,-0.0976,-7.23625,-1.02375,-3.29,-19.648,20.808,6.472,eccentric,4,3.0,27534.0,159666.0,242865.0,288673.0,268615.0
2026-04-08 21:52:48.701580,274929,1609504340918606,1940884631,0.776896,-0.066368,-0.0976,-8.82,-0.0875,-6.06375,-19.648,20.808,6.472,eccentric,4,3.0,27534.0,159666.0,242865.0,288673.0,268615.0
2026-04-08 21:52:48.704072,274930,1609504340927529,1940893304,0.778848,-0.003904,0.05856,-10.6225,0.95375,-7.27125,-19.648,20.696001,7.168,eccentric,4,3.0,27534.0,159666.0,242865.0,288673.0,268615.0
2026-04-08 21:52:48.732559,274931,1609504340942110,1940908287,0.778848,-0.003904,-0.076128,-12.5475,0.21875,-9.00375,-19.648,20.696001,7.168,eccentric,4,3.0,27534.0,159666.0,242865.0,288673.0,268615.0
2026-04-08 21:52:48.737035,274932,1609504340951111,1940917003,0.845216,-0.011712,-0.076128,-11.47125,0.035,-11.71625,-19.944,20.776001,7.264,eccentric,4,3.0,27534.0,159666.0,242865.0,288673.0,268615.0
2026-04-08 21:52:48.739378,274933,1609504340965584,1940931848,0.7808,0.033184,-0.10736,-9.2575,0.2275,-12.81875,-19.824001,20.400002,7.008,eccentric,4,3.0,27534.0,159666.0,242865.0,288673.0,268615.0
2026-04-08 21:52:48.766201,274944,1609504340975113,1940940617,0.7808,0.033184,-0.10736,-9.065,-0.42,-12.18875,-19.824001,20.400002,7.008,eccentric,4,3.0,27912.0,160489.0,243050.0,288591.0,268563.0
2026-04-08 21:52:48.770377,274945,1609504340984501,1940951456,0.83936,0.052704,0.128832,-8.77625,-1.155,-9.77375,-19.968,21.000002,8.120001,eccentric,4,3.0,27912.0,160489.0,243050.0,288591.0,268563.0
2026-04-08 21:52:48.772778,274946,1609504340999015,1940964292,0.83936,0.052704,0.128832,-7.48125,-1.05,-6.2825,-19.968,21.000002,8.120001,eccentric,4,3.0,27912.0,160489.0,243050.0,288591.0,268563.0
2026-04-08 21:52:48.839840,274947,1609504341008310,1940975056,0.841312,0.027328,0.148352,-3.7275,-0.595,-2.91375,-19.76,20.68,7.376,eccentric,4,3.0,27912.0,160489.0,243050.0,288591.0,268563.0
2026-04-08 21:52:48.841961,274948,1609504341022792,1940987937,0.841312,0.023424,-0.007808,-2.19625,-0.97125,0.525,-19.76,20.68,7.376,eccentric,4,3.0,27912.0,160489.0,243050.0,288591.0,268563.0
2026-04-08 21:52:48.846683,274949,1609504341031905,1940998676,0.804224,0.023424,-0.007808,-2.03875,-0.93625,2.9575,-19.904001,20.984001,9.096001,eccentric,4,3.0,27912.0,160489.0,243050.0,288591.0,268563.0
2026-04-08 21:52:48.848313,274950,1609504341040823,1941007339,0.804224,0.023424,-0.007808,-3.325,-0.74375,2.72125,-19.904001,20.984001,9.096001,eccentric,4,3.0,27912.0,160489.0,243050.0,288591.0,268563.0
2026-04-08 21:52:48.849891,274951,1609504341055255,1941022185,0.847168,0.027328,0.066368,-5.4425,-0.42875,2.38875,-19.52,20.800001,8.992001,eccentric,4,3.0,27912.0,160489.0,243050.0,288591.0,268563.0
2026-04-08 21:52:48.853944,274952,1609504341064179,1941030835,0.7808,-0.013664,-0.031232,-4.97,0.37625,2.68625,-19.384,21.288,6.696,eccentric,4,3.0,27912.0,160489.0,243050.0,288591.0,268563.0
2026-04-08 21:52:48.880784,274963,1609504341078681,1941043904,0.7808,-0.013664,-0.031232,-2.3625,1.32125,4.87375,-19.384,21.288,6.696,eccentric,4,3.0,27488.0,159163.0,241958.0,287991.0,268253.0
2026-04-08 21:52:48.882335,274964,1609504341087995,1941054700,0.798368,0.013664,-0.025376,0.84875,2.12625,6.09,-19.616001,21.296001,8.824,eccentric,4,3.0,27488.0,159163.0,241958.0,287991.0,268253.0
2026-04-08 21:52:48.885764,274965,1609504341097043,1941063415,0.798368,0.013664,-0.025376,-0.32375,1.715,3.675,-19.616001,21.296001,8.824,eccentric,4,3.0,27488.0,159163.0,241958.0,287991.0,268253.0
2026-04-08 21:52:48.887317,274966,1609504341111567,1941078335,0.909632,0.03904,0.064416,-2.9225,1.28625,0.7875,-19.640001,21.032001,9.264001,eccentric,4,3.0,27488.0,159163.0,241958.0,287991.0,268253.0
2026-04-08 21:52:48.893165,274967,1609504341120497,1941086992,0.909632,0.03904,0.064416,-1.995,2.30125,-0.665,-19.640001,21.032001,9.264001,eccentric,4,3.0,27488.0,159163.0,241958.0,287991.0,268253.0
2026-04-08 21:52:48.919144,274968,1609504341134987,1941101873,0.823744,0.003904,0.152256,1.12,3.57875,2.0475,-19.312,21.000002,8.264,eccentric,4,3.0,27488.0,159163.0,241958.0,287991.0,268253.0
2026-04-08 21:52:48.921531,274969,1609504341143912,1941110534,0.77104,0.0,-0.080032,-0.93625,2.6425,4.19125,-19.312,21.088001,7.392,eccentric,4,3.0,27488.0,159163.0,241958.0,287991.0,268253.0
2026-04-08 21:52:48.949984,274970,1609504341158462,1941125403,0.77104,0.0,-0.080032,-1.86375,1.645,4.2525,-19.152,21.088001,7.392,eccentric,4,3.0,27488.0,159163.0,241958.0,287991.0,268253.0
2026-04-08 21:52:48.954637,274971,1609504341167402,1941134057,0.886208,0.015616,-0.1464,4.54125,1.19,3.5175,-19.344002,21.056002,7.384,eccentric,4,3.0,27488.0,159163.0,241958.0,287991.0,268253.0
2026-04-08 21:52:48.982817,274982,1609504341176541,1941142706,0.886208,0.015616,-0.1464,5.1975,-0.07,0.6825,-19.344002,21.056002,7.384,eccentric,4,3.0,27635.0,159432.0,241899.0,287930.0,268217.0
2026-04-08 21:52:48.984606,274983,1609504341191066,1941157673,0.866688,0.027328,0.01952,5.15375,-0.13125,-1.68,-19.184,21.008001,7.456,eccentric,4,3.0,27635.0,159432.0,241899.0,287930.0,268217.0
2026-04-08 21:52:48.986450,274984,1609504341200156,1941166360,0.866688,0.027328,0.01952,7.39375,0.84875,-0.65625,-19.184,21.008001,7.456,eccentric,4,3.0,27635.0,159432.0,241899.0,287930.0,268217.0
2026-04-08 21:52:48.989511,274985,1609504341214686,1941181273,0.79056,-0.037088,-0.015616,4.64625,1.33,3.15875,-19.168001,21.368002,8.472,eccentric,4,3.0,27635.0,159432.0,241899.0,287930.0,268217.0
2026-04-08 21:52:49.001627,274986,1609504341223624,1941189958,0.79056,-0.037088,-0.015616,-3.28125,-0.1575,3.84125,-19.168001,21.368002,8.472,eccentric,4,3.0,27635.0,159432.0,241899.0,287930.0,268217.0
2026-04-08 21:52:49.004069,274987,1609504341232551,1941198706,0.759328,-0.017568,-0.033184,-4.59375,-2.52,2.5375,-19.168001,21.048,10.360001,eccentric,4,3.0,27635.0,159432.0,241899.0,287930.0,268217.0
2026-04-08 21:52:49.035962,274988,1609504341247044,1941213625,0.94672,-0.015616,-0.011712,3.31625,-4.5675,2.17875,-19.12,21.104,7.368001,eccentric,4,3.0,27635.0,159432.0,241899.0,287930.0,268217.0
2026-04-08 21:52:49.038201,274989,1609504341255937,1941222273,0.94672,-0.015616,-0.011712,8.085,-5.8275,-1.365,-19.12,21.104,7.368001,eccentric,4,3.0,27635.0,159432.0,241899.0,287930.0,268217.0
2026-04-08 21:52:49.043910,274990,1609504341270445,1941237126,0.892064,0.015616,0.054656,7.945,-5.59125,-5.90625,-19.016,20.832,7.56,eccentric,4,3.0,27635.0,159432.0,241899.0,287930.0,268217.0
2026-04-08 21:52:49.071532,275001,1609504341279442,1941245867,0.892064,0.015616,0.054656,9.87875,-4.3575,-6.51,-19.016,20.832,7.56,eccentric,4,3.0,26347.0,155984.0,239739.0,286904.0,267718.0
2026-04-08 21:52:49.073307,275002,1609504341294121,1941260883,0.8296,-0.027328,-0.01952,9.59875,-2.80875,-3.9375,-19.168001,20.728,7.976,eccentric,4,3.0,26347.0,155984.0,239739.0,286904.0,267718.0
2026-04-08 21:52:49.074827,275003,1609504341303073,1941269583,0.8296,-0.027328,-0.01952,2.065,-3.1325,-3.395,-19.168001,20.728,7.976,eccentric,4,3.0,26347.0,155984.0,239739.0,286904.0,267718.0
2026-04-08 21:52:49.136684,275004,1609504341312014,1941278250,0.880352,-0.02928,-0.093696,-3.35125,-4.2,-4.1475,-19.096,21.096,8.576,eccentric,4,3.0,26347.0,155984.0,239739.0,286904.0,267718.0
2026-04-08 21:52:49.138339,275005,1609504341326485,1941293099,0.933056,0.017568,-0.160064,-1.75875,-5.285,-5.53,-19.0,20.880001,6.440001,eccentric,4,3.0,26347.0,155984.0,239739.0,286904.0,267718.0
2026-04-08 21:52:49.139905,275006,1609504341335400,1941301754,0.933056,0.017568,-0.160064,0.39375,-6.4225,-9.555,-19.0,20.880001,6.440001,eccentric,4,3.0,26347.0,155984.0,239739.0,286904.0,267718.0
2026-04-08 21:52:49.143302,275007,1609504341349878,1941316642,0.901824,0.025376,0.0976,3.89375,-4.935,-11.305,-19.152,20.976002,7.504,eccentric,4,3.0,26347.0,155984.0,239739.0,286904.0,267718.0
2026-04-08 21:52:49.146350,275008,1609504341358783,1941325284,0.901824,0.025376,0.0976,9.065,-2.82625,-9.40625,-19.152,20.976002,7.504,eccentric,4,3.0,26347.0,155984.0,239739.0,286904.0,267718.0
2026-04-08 21:52:49.173377,275019,1609504341373276,1941340258,0.874496,0.037088,0.134688,8.40875,-3.2025,-6.09,-19.568,20.736,7.576,eccentric,4,3.0,25802.0,154455.0,238640.0,286282.0,267342.0
2026-04-08 21:52:49.174872,275020,1609504341382549,1941349005,0.874496,0.037088,0.134688,3.3075,-4.55,-3.0975,-19.568,20.736,7.576,eccentric,4,3.0,25802.0,154455.0,238640.0,286282.0,267342.0
2026-04-08 21:52:49.179136,275021,1609504341391639,1941357754,0.929152,0.015616,0.007808,0.79625,-5.53,-1.95125,-19.456001,20.912,8.448,eccentric,4,3.0,25802.0,154455.0,238640.0,286282.0,267342.0
2026-04-08 21:52:49.181551,275022,1609504341406175,1941372717,0.91744,-0.017568,-0.138592,-0.0875,-6.23875,-5.635,-19.92,20.776001,11.040001,eccentric,4,3.0,25802.0,154455.0,238640.0,286282.0,267342.0
2026-04-08 21:52:49.187716,275023,1609504341415099,1941381387,0.91744,-0.017568,-0.138592,-3.08,-6.65,-13.9475,-19.92,20.776001,11.040001,eccentric,4,3.0,25802.0,154455.0,238640.0,286282.0,267342.0
