pc_time,serial_num,sensor_ts,host_ts,ax,ay,az,gx,gy,gz,mx,my,mz,phase,rpe,weight_kg,ppg_a,ppg_b,ppg_c,ppg_d,ppg_e
2026-04-14 18:02:44.384082,702252,1609507258030440,4858000402,-1.104832,0.167872,-0.091744,-3.885,12.74,-21.63875,15.496,-24.856,-20.976002,inter_set_rest,8,3.0,30953.0,197389.0,74238.0,195164.0,86805.0
2026-04-14 18:02:44.393868,702253,1609507258039400,4858009111,-1.145824,0.22448,-0.03904,-0.70875,12.565,-22.4,15.496,-22.808,-20.416,inter_set_rest,8,3.0,30953.0,197389.0,74238.0,195164.0,86805.0
2026-04-14 18:02:44.493952,702264,1609507258053953,4858024046,-1.145824,0.22448,-0.03904,1.84625,11.97875,-22.56625,15.864,-24.248001,-20.416,inter_set_rest,8,3.0,30572.0,196642.0,73689.0,194619.0,86115.0
2026-04-14 18:02:44.496283,702265,1609507258062892,4858032767,-1.016992,0.197152,0.005856,3.2375,11.52375,-23.49375,14.840001,-23.576,-19.104,inter_set_rest,8,3.0,30572.0,196642.0,73689.0,194619.0,86115.0
2026-04-14 18:02:44.498932,702266,1609507258071839,4858041490,-1.016992,0.197152,0.005856,3.5875,12.1625,-23.45875,14.840001,-23.576,-19.104,inter_set_rest,8,3.0,30572.0,196642.0,73689.0,194619.0,86115.0
2026-04-14 18:02:44.501342,702267,1609507258086375,4858056380,-0.991616,0.163968,-0.138592,3.4475,12.6175,-23.31875,14.616001,-23.376001,-19.448002,inter_set_rest,8,3.0,30572.0,196642.0,73689.0,194619.0,86115.0
2026-04-14 18:02:44.503817,702268,1609507258095362,4858065092,-0.991616,0.163968,-0.138592,3.4475,13.23875,-21.98875,14.616001,-23.376001,-19.448002,inter_set_rest,8,3.0,30572.0,196642.0,73689.0,194619.0,86115.0
2026-04-14 18:02:44.506287,702269,1609507258109870,4858079978,-1.06384,0.203008,-0.240096,2.1175,13.2475,-21.035,14.464001,-23.128,-20.304,inter_set_rest,8,3.0,30572.0,196642.0,73689.0,194619.0,86115.0
2026-04-14 18:02:44.508722,702270,1609507258118812,4858088702,-1.06384,0.203008,-0.240096,0.06125,12.27625,-20.0025,14.464001,-23.128,-20.304,inter_set_rest,8,3.0,30572.0,196642.0,73689.0,194619.0,86115.0
2026-04-14 18:02:44.511323,702271,1609507258133343,4858103650,-1.01504,0.203008,-0.23424,-0.13125,11.9525,-18.76875,15.488001,-23.504002,-21.944,inter_set_rest,8,3.0,30572.0,196642.0,73689.0,194619.0,86115.0
2026-04-14 18:02:44.538817,702282,1609507258142223,4858112384,-0.960384,0.169824,-0.140544,0.65625,11.0075,-17.4825,15.232,-23.616001,-20.704,inter_set_rest,8,3.0,30313.0,196998.0,73375.0,195063.0,85618.0
2026-04-14 18:02:44.541140,702283,1609507258151711,4858121239,-0.960384,0.169824,-0.140544,1.0675,10.22875,-17.29,15.232,-23.616001,-20.704,inter_set_rest,8,3.0,30313.0,196998.0,73375.0,195063.0,85618.0
2026-04-14 18:02:44.544407,702284,1609507258166326,4858136196,-1.059936,0.230336,-0.152256,0.1575,9.3625,-17.15875,16.136002,-23.024,-20.584002,inter_set_rest,8,3.0,30313.0,196998.0,73375.0,195063.0,85618.0
2026-04-14 18:02:44.546191,702285,1609507258175421,4858145031,-1.059936,0.230336,-0.152256,-1.28625,7.735,-17.50875,16.136002,-23.024,-20.584002,inter_set_rest,8,3.0,30313.0,196998.0,73375.0,195063.0,85618.0
2026-04-14 18:02:44.548668,702286,1609507258184418,4858153738,-1.110688,0.25376,-0.216672,-2.38,4.8825,-17.24625,15.6,-23.048,-21.336,inter_set_rest,8,3.0,30313.0,196998.0,73375.0,195063.0,85618.0
2026-04-14 18:02:44.553813,702287,1609507258199008,4858168645,-1.110688,0.25376,-0.216672,-3.4475,2.17,-17.115,15.6,-23.048,-21.336,inter_set_rest,8,3.0,30313.0,196998.0,73375.0,195063.0,85618.0
2026-04-14 18:02:44.594601,702288,1609507258207974,4858177383,-1.057984,0.163968,-0.277184,-3.22,-0.95375,-17.8675,17.128,-23.136002,-19.952002,inter_set_rest,8,3.0,30313.0,196998.0,73375.0,195063.0,85618.0
2026-04-14 18:02:44.596878,702289,1609507258222485,4858192307,-1.138016,0.162016,-0.218624,-2.415,-4.12125,-17.22875,17.248001,-23.264002,-23.352001,inter_set_rest,8,3.0,30313.0,196998.0,73375.0,195063.0,85618.0
2026-04-14 18:02:44.598701,702290,1609507258231393,4858200985,-1.138016,0.162016,-0.218624,-0.945,-5.85375,-16.23125,17.248001,-23.264002,-23.352001,inter_set_rest,8,3.0,30313.0,196998.0,73375.0,195063.0,85618.0
2026-04-14 18:02:44.621237,702301,1609507258246464,4858215981,-1.22,0.212768,-0.201056,1.6275,-7.42,-14.6125,17.328001,-23.032001,-21.576,inter_set_rest,8,3.0,31484.0,201126.0,75343.0,199753.0,87919.0
2026-04-14 18:02:44.625504,702302,1609507258255626,4858224771,-1.22,0.212768,-0.201056,1.54,-9.2575,-14.455,17.328001,-23.032001,-21.576,inter_set_rest,8,3.0,31484.0,201126.0,75343.0,199753.0,87919.0
2026-04-14 18:02:44.628551,702303,1609507258264607,4858233464,-1.202432,0.206912,-0.339648,-0.67375,-10.823751,-13.877501,17.400002,-22.944,-21.240002,inter_set_rest,8,3.0,31484.0,201126.0,75343.0,199753.0,87919.0
2026-04-14 18:02:44.632395,702304,1609507258279163,4858248323,-1.202432,0.206912,-0.339648,-2.02125,-11.89125,-13.02,17.400002,-22.944,-21.240002,inter_set_rest,8,3.0,31484.0,201126.0,75343.0,199753.0,87919.0
2026-04-14 18:02:44.641475,702305,1609507258288125,4858257019,-1.169248,0.121024,-0.2928,-2.345,-11.99625,-12.41625,17.736,-22.76,-22.880001,inter_set_rest,8,3.0,31484.0,201126.0,75343.0,199753.0,87919.0
2026-04-14 18:02:44.658839,702306,1609507258302628,4858271945,-1.116544,0.132736,-0.095648,-1.995,-10.71,-10.33375,17.728,-22.824001,-23.272001,inter_set_rest,8,3.0,31484.0,201126.0,75343.0,199753.0,87919.0
2026-04-14 18:02:44.672815,702307,1609507258311546,4858280664,-1.116544,0.132736,-0.095648,-0.11375,-8.1025,-7.35,17.728,-22.824001,-23.272001,inter_set_rest,8,3.0,31484.0,201126.0,75343.0,199753.0,87919.0
2026-04-14 18:02:44.675060,702308,1609507258320655,4858289356,-1.116544,0.132736,-0.251808,2.00375,-6.11625,-5.075,17.728,-22.824001,-23.272001,inter_set_rest,8,3.0,31484.0,201126.0,75343.0,199753.0,87919.0
2026-04-14 18:02:44.687479,702309,1609507258335494,4858304280,-1.153632,0.15616,-0.251808,-1.05875,-6.4575,-3.99875,18.08,-22.824001,-22.152,inter_set_rest,8,3.0,31484.0,201126.0,75343.0,199753.0,87919.0
2026-04-14 18:02:44.725041,702320,1609507258345111,4858315116,-1.165344,0.191296,-0.060512,-6.9825,-7.7525,-4.50625,17.208,-22.304,-20.472,inter_set_rest,8,3.0,40279.0,229636.0,89366.0,227164.0,104287.0
2026-04-14 18:02:44.727434,702321,1609507258359687,4858328066,-1.165344,0.191296,-0.060512,-10.22875,-7.84875,-4.62875,17.208,-22.304,-20.472,inter_set_rest,8,3.0,40279.0,229636.0,89366.0,227164.0,104287.0
2026-04-14 18:02:44.729951,702322,1609507258369104,4858338868,-1.126304,0.167872,-0.304512,-9.59,-6.9825,-4.97,17.04,-22.344002,-22.256,inter_set_rest,8,3.0,40279.0,229636.0,89366.0,227164.0,104287.0
2026-04-14 18:02:44.732384,702323,1609507258378172,4858347592,-1.126304,0.167872,-0.304512,-6.9825,-5.25875,-4.64625,17.04,-22.344002,-22.256,inter_set_rest,8,3.0,40279.0,229636.0,89366.0,227164.0,104287.0
2026-04-14 18:02:44.747601,702324,1609507258392730,4858362491,-1.075552,0.158112,-0.138592,-5.985,-4.94375,-4.445,17.128,-22.984001,-20.888,inter_set_rest,8,3.0,40279.0,229636.0,89366.0,227164.0,104287.0
2026-04-14 18:02:44.755138,702325,1609507258401719,4858371236,-1.138016,0.208864,-0.277184,-7.14875,-6.055,-5.45125,17.128,-22.984001,-22.032001,inter_set_rest,8,3.0,40279.0,229636.0,89366.0,227164.0,104287.0
2026-04-14 18:02:44.791686,702326,1609507258416254,4858386221,-1.138016,0.208864,-0.277184,-9.3625,-7.56875,-6.50125,17.952002,-22.776001,-22.032001,inter_set_rest,8,3.0,40279.0,229636.0,89366.0,227164.0,104287.0
2026-04-14 18:02:44.793515,702327,1609507258425176,4858394900,-1.00528,0.1952,-0.1464,-10.21125,-8.7325,-7.16625,18.496,-22.856,-20.704,inter_set_rest,8,3.0,40279.0,229636.0,89366.0,227164.0,104287.0
2026-04-14 18:02:44.795018,702328,1609507258434079,4858403584,-1.00528,0.1952,-0.1464,-10.57875,-9.7825,-7.1925,18.496,-22.856,-20.704,inter_set_rest,8,3.0,40279.0,229636.0,89366.0,227164.0,104287.0
2026-04-14 18:02:44.870577,702339,1609507258448731,4858417189,-1.075552,0.16592,-0.16592,-12.11875,-11.0775,-7.00875,18.472,-22.944,-21.088001,inter_set_rest,8,3.0,44489.0,238769.0,95922.0,235617.0,111369.0
2026-04-14 18:02:44.873011,702340,1609507258458032,4858428095,-1.075552,0.16592,-0.16592,-13.5625,-12.06625,-7.49875,18.472,-22.944,-21.088001,inter_set_rest,8,3.0,44489.0,238769.0,95922.0,235617.0,111369.0
2026-04-14 18:02:44.875557,702341,1609507258472536,4858440956,-0.976,0.138592,0.031232,-11.235,-11.45375,-7.81375,17.864,-22.688002,-20.560001,inter_set_rest,8,3.0,44489.0,238769.0,95922.0,235617.0,111369.0
2026-04-14 18:02:44.878027,702342,1609507258481764,4858451696,-0.976,0.138592,-0.21472,-7.30625,-9.61625,-7.175,17.864,-22.688002,-20.560001,inter_set_rest,8,3.0,44489.0,238769.0,95922.0,235617.0,111369.0
2026-04-14 18:02:44.880653,702343,1609507258490764,4858460407,-1.026752,0.199104,-0.21472,-4.17375,-7.34125,-6.57125,18.112001,-22.672,-22.432001,inter_set_rest,8,3.0,44489.0,238769.0,95922.0,235617.0,111369.0
2026-04-14 18:02:44.883066,702344,1609507258505250,4858475391,-1.075552,0.228384,-0.189344,-3.61375,-5.13625,-5.635,18.640001,-22.792002,-20.744001,inter_set_rest,8,3.0,44489.0,238769.0,95922.0,235617.0,111369.0
2026-04-14 18:02:44.885510,702345,1609507258514228,4858484140,-1.075552,0.228384,-0.189344,-6.2825,-3.8325,-5.78375,18.640001,-22.792002,-20.744001,inter_set_rest,8,3.0,44489.0,238769.0,95922.0,235617.0,111369.0
2026-04-14 18:02:44.888059,702346,1609507258528772,4858499149,-1.056032,0.1952,-0.023424,-8.82,-2.70375,-5.73125,18.616001,-22.656,-20.264002,inter_set_rest,8,3.0,44489.0,238769.0,95922.0,235617.0,111369.0
2026-04-14 18:02:44.893147,702347,1609507258537723,4858507852,-1.056032,0.1952,-0.023424,-11.73375,-2.03,-4.62875,18.616001,-22.656,-20.264002,inter_set_rest,8,3.0,44489.0,238769.0,95922.0,235617.0,111369.0
2026-04-14 18:02:44.928924,702358,1609507258547200,4858516772,-1.0248,0.150304,-0.0488,-12.04875,-2.065,-3.6225,18.528002,-22.672,-19.072,inter_set_rest,8,3.0,39908.0,226861.0,88903.0,223672.0,103858.0
2026-04-14 18:02:44.931264,702359,1609507258561834,4858531716,-1.0248,0.150304,-0.0488,-8.56625,-0.91,-3.29,18.528002,-22.672,-19.072,inter_set_rest,8,3.0,39908.0,226861.0,88903.0,223672.0,103858.0
2026-04-14 18:02:44.933703,702360,1609507258571040,4858540463,-1.026752,0.17568,-0.0976,-5.1275,0.13125,-3.75375,17.512001,-22.768002,-19.512001,inter_set_rest,8,3.0,39908.0,226861.0,88903.0,223672.0,103858.0
2026-04-14 18:02:44.940386,702361,1609507258585506,4858555426,-1.098976,0.218624,-0.040992,-2.94875,0.41125,-4.48,18.192001,-22.816002,-20.616001,inter_set_rest,8,3.0,39908.0,226861.0,88903.0,223672.0,103858.0
2026-04-14 18:02:44.947688,702362,1609507258594457,4858564250,-1.098976,0.218624,-0.040992,-4.31375,0.55125,-5.075,18.192001,-22.816002,-20.616001,inter_set_rest,8,3.0,39908.0,226861.0,88903.0,223672.0,103858.0
2026-04-14 18:02:44.958132,702363,1609507258603428,4858572958,-1.01504,0.128832,-0.085888,-6.95625,-0.7525,-5.425,18.408,-23.016,-20.888,inter_set_rest,8,3.0,39908.0,226861.0,88903.0,223672.0,103858.0
2026-04-14 18:02:44.973874,702364,1609507258617928,4858587846,-1.01504,0.128832,-0.085888,-7.28875,-0.3325,-5.20625,18.408,-23.016,-20.888,inter_set_rest,8,3.0,39908.0,226861.0,88903.0,223672.0,103858.0
2026-04-14 18:02:44.981302,702365,1609507258626953,4858596630,-1.089216,0.154208,-0.247904,-5.92375,0.6125,-4.8825,18.28,-22.960001,-19.576,inter_set_rest,8,3.0,39908.0,226861.0,88903.0,223672.0,103858.0
2026-04-14 18:02:44.995120,702366,1609507258641530,4858611519,-1.089216,0.154208,-0.247904,-3.885,1.84625,-3.61375,18.28,-22.960001,-19.576,inter_set_rest,8,3.0,39908.0,226861.0,88903.0,223672.0,103858.0
2026-04-14 18:02:45.025161,702377,1609507258650724,4858620325,-1.007232,0.150304,-0.173728,-3.6575,2.84375,-2.05625,17.952002,-22.448002,-19.208,inter_set_rest,8,3.0,33342.0,202619.0,78653.0,200678.0,92287.0
2026-04-14 18:02:45.027746,702378,1609507258665273,4858635192,-1.04432,0.163968,-0.152256,-4.59375,3.05375,-1.085,16.632,-22.072,-18.624,inter_set_rest,8,3.0,33342.0,202619.0,78653.0,200678.0,92287.0
2026-04-14 18:02:45.030329,702379,1609507258674196,4858643897,-1.04432,0.163968,-0.152256,-5.46875,3.19375,-0.28875,16.632,-22.072,-18.624,inter_set_rest,8,3.0,33342.0,202619.0,78653.0,200678.0,92287.0
2026-04-14 18:02:45.037796,702380,1609507258683121,4858652629,-1.04432,0.163968,-0.023424,-5.18,3.78,-0.46375,16.632,-22.072,-18.624,inter_set_rest,8,3.0,33342.0,202619.0,78653.0,200678.0,92287.0
2026-04-14 18:02:45.054254,702381,1609507258697693,4858667561,-1.046272,0.189344,-0.023424,-5.6,3.56125,-0.2975,17.264,-22.512001,-20.144001,inter_set_rest,8,3.0,33342.0,202619.0,78653.0,200678.0,92287.0
2026-04-14 18:02:45.060426,702382,1609507258706628,4858676273,-1.03456,0.173728,-0.08784,-7.58625,2.555,-0.665,18.112001,-23.176,-20.168001,inter_set_rest,8,3.0,33342.0,202619.0,78653.0,200678.0,92287.0
2026-04-14 18:02:45.076514,702383,1609507258721263,4858691159,-1.03456,0.173728,-0.08784,-10.15875,1.225,-0.175,18.112001,-23.176,-20.168001,inter_set_rest,8,3.0,33342.0,202619.0,78653.0,200678.0,92287.0
2026-04-14 18:02:45.084119,702384,1609507258730224,4858699858,-1.05408,0.0976,-0.236192,-10.36,0.06125,-0.25375,18.288,-23.224,-19.768002,inter_set_rest,8,3.0,33342.0,202619.0,78653.0,200678.0,92287.0
2026-04-14 18:02:45.094012,702385,1609507258739156,4858708572,-1.05408,0.0976,-0.236192,-8.16375,-0.8575,0.105,18.288,-23.224,-19.768002,inter_set_rest,8,3.0,33342.0,202619.0,78653.0,200678.0,92287.0
2026-04-14 18:02:45.127586,702396,1609507258753762,4858723560,-1.04432,0.1464,-0.03904,-5.27625,-0.86625,0.735,17.584002,-23.048,-19.288,inter_set_rest,8,3.0,31030.0,195016.0,74700.0,193104.0,87493.0
2026-04-14 18:02:45.130071,702397,1609507258762765,4858732261,-1.04432,0.1464,-0.03904,-1.98625,-0.14875,1.995,17.584002,-23.048,-19.288,inter_set_rest,8,3.0,31030.0,195016.0,74700.0,193104.0,87493.0
2026-04-14 18:02:45.155482,702398,1609507258777346,4858747207,-1.147776,0.191296,-0.158112,-0.18375,0.28,2.415,17.44,-22.76,-19.848001,inter_set_rest,8,3.0,31030.0,195016.0,74700.0,193104.0,87493.0
2026-04-14 18:02:45.180730,702399,1609507258786385,4858755910,-1.057984,0.189344,-0.017568,-3.2025,-0.28875,2.30125,18.576,-23.560001,-20.176,inter_set_rest,8,3.0,31030.0,195016.0,74700.0,193104.0,87493.0
2026-04-14 18:02:45.190508,702400,1609507258800902,4858770790,-1.057984,0.189344,-0.017568,-6.65,-1.04125,2.0475,18.576,-23.560001,-20.176,inter_set_rest,8,3.0,31030.0,195016.0,74700.0,193104.0,87493.0
2026-04-14 18:02:45.192696,702401,1609507258810004,4858779445,-1.022848,0.111264,-0.167872,-9.275,-1.65375,2.10875,18.288,-23.496,-20.208,inter_set_rest,8,3.0,31030.0,195016.0,74700.0,193104.0,87493.0
2026-04-14 18:02:45.195503,702402,1609507258819044,4858788140,-1.022848,0.111264,-0.167872,-11.27,-1.19,2.28375,18.288,-23.496,-20.208,inter_set_rest,8,3.0,31030.0,195016.0,74700.0,193104.0,87493.0
2026-04-14 18:02:45.198171,702403,1609507258833560,4858803033,-1.116544,0.130784,-0.199104,-10.395,-1.26,2.7125,18.304,-23.192001,-19.952002,inter_set_rest,8,3.0,31030.0,195016.0,74700.0,193104.0,87493.0
2026-04-14 18:02:45.200507,702404,1609507258842494,4858811781,-1.116544,0.130784,-0.199104,-7.4025,-0.1925,3.2725,18.304,-23.192001,-19.952002,inter_set_rest,8,3.0,31030.0,195016.0,74700.0,193104.0,87493.0
2026-04-14 18:02:45.256187,702415,1609507258857111,4858826832,-1.11264,0.160064,-0.173728,-6.335,0.0525,3.8325,17.92,-23.456001,-20.0,inter_set_rest,8,3.0,30457.0,192504.0,73784.0,190937.0,86277.0
2026-04-14 18:02:45.258644,702416,1609507258866034,4858835544,-1.097024,0.169824,-0.11712,-5.83625,0.06125,4.4625,18.008001,-23.704,-19.68,inter_set_rest,8,3.0,30457.0,192504.0,73784.0,190937.0,86277.0
2026-04-14 18:02:45.261220,702417,1609507258874958,4858844216,-1.097024,0.169824,-0.11712,-6.16875,0.105,3.96375,18.008001,-23.704,-19.68,inter_set_rest,8,3.0,30457.0,192504.0,73784.0,190937.0,86277.0
2026-04-14 18:02:45.263740,702418,1609507258889469,4858859182,-1.020896,0.154208,-0.070272,-6.685,-0.91,3.29875,17.904001,-23.856,-20.048,inter_set_rest,8,3.0,30457.0,192504.0,73784.0,190937.0,86277.0
2026-04-14 18:02:45.266043,702419,1609507258898429,4858867888,-1.020896,0.154208,-0.070272,-7.1225,-1.33,3.54375,17.904001,-23.856,-20.048,inter_set_rest,8,3.0,30457.0,192504.0,73784.0,190937.0,86277.0
2026-04-14 18:02:45.268851,702420,1609507258913036,4858882794,-1.016992,0.122976,-0.02928,-7.315,-1.60125,2.59875,17.736,-23.800001,-20.256,inter_set_rest,8,3.0,30457.0,192504.0,73784.0,190937.0,86277.0
2026-04-14 18:02:45.277424,702421,1609507258922093,4858891477,-1.016992,0.122976,-0.02928,-6.97375,-1.19875,2.8,17.736,-23.800001,-20.256,inter_set_rest,8,3.0,30457.0,192504.0,73784.0,190937.0,86277.0
2026-04-14 18:02:45.290409,702422,1609507258936670,4858906420,-1.028704,0.113216,-0.197152,-5.76625,-0.525,3.40375,17.696001,-24.056002,-19.752,inter_set_rest,8,3.0,30457.0,192504.0,73784.0,190937.0,86277.0
2026-04-14 18:02:45.301914,702423,1609507258945583,4858915117,-1.061888,0.128832,-0.308416,-6.27375,-0.7525,2.66,17.400002,-23.576,-19.792002,inter_set_rest,8,3.0,30457.0,192504.0,73784.0,190937.0,86277.0
2026-04-14 18:02:45.337389,702434,1609507258954559,4858923911,-1.061888,0.128832,-0.308416,-6.93875,-1.11125,2.6425,17.400002,-23.576,-19.792002,inter_set_rest,8,3.0,30279.0,191212.0,73481.0,189945.0,85955.0
2026-04-14 18:02:45.340303,702435,1609507258969178,4858938898,-1.026752,0.132736,-0.07808,-6.965,-1.58375,2.59875,16.712,-23.68,-18.704,inter_set_rest,8,3.0,30279.0,191212.0,73481.0,189945.0,85955.0
2026-04-14 18:02:45.343025,702436,1609507258978311,4858947662,-1.026752,0.132736,-0.07808,-5.18875,-0.8925,2.4675,16.712,-23.68,-18.704,inter_set_rest,8,3.0,30279.0,191212.0,73481.0,189945.0,85955.0
2026-04-14 18:02:45.346747,702437,1609507258993016,4858962585,-1.10288,0.130784,-0.20496,-3.0975,0.245,2.37125,16.576,-23.912,-18.456001,inter_set_rest,8,3.0,30279.0,191212.0,73481.0,189945.0,85955.0
2026-04-14 18:02:45.357544,702438,1609507259001985,4858971307,-1.10288,0.130784,-0.20496,-2.23125,0.91,2.66,16.576,-23.912,-18.456001,inter_set_rest,8,3.0,30279.0,191212.0,73481.0,189945.0,85955.0
2026-04-14 18:02:45.366301,702439,1609507259010909,4858980212,-1.0248,0.144448,-0.080032,-0.7525,1.61875,2.8,17.304,-24.328001,-19.432001,inter_set_rest,8,3.0,30279.0,191212.0,73481.0,189945.0,85955.0
2026-04-14 18:02:45.380764,702440,1609507259025409,4858995162,-1.0248,0.160064,-0.06832,-0.1575,2.2225,2.5725,17.304,-24.328001,-19.432001,inter_set_rest,8,3.0,30279.0,191212.0,73481.0,189945.0,85955.0
2026-04-14 18:02:45.388143,702441,1609507259034328,4859003855,-1.042368,0.163968,-0.06832,-0.5775,2.16125,1.9425,17.496,-24.024002,-18.592001,inter_set_rest,8,3.0,30279.0,191212.0,73481.0,189945.0,85955.0
2026-04-14 18:02:45.428909,702452,1609507259049215,4859018781,-1.145824,0.15616,-0.220576,-1.015,1.5225,0.91,16.608002,-23.928001,-19.944,inter_set_rest,8,3.0,29841.0,190034.0,72718.0,189047.0,85065.0
2026-04-14 18:02:45.433232,702453,1609507259058381,4859027614,-1.145824,0.15616,-0.220576,-1.085,0.77,0.4375,16.608002,-23.928001,-19.944,inter_set_rest,8,3.0,29841.0,190034.0,72718.0,189047.0,85065.0
2026-04-14 18:02:45.436940,702454,1609507259073182,4859042677,-1.091168,0.101504,-0.056608,-0.91875,0.13125,0.97125,17.400002,-24.072,-18.720001,inter_set_rest,8,3.0,29841.0,190034.0,72718.0,189047.0,85065.0
2026-04-14 18:02:45.438718,702455,1609507259082178,4859051411,-1.091168,0.101504,-0.056608,0.63875,-0.16625,2.0475,17.400002,-24.072,-18.720001,inter_set_rest,8,3.0,29841.0,190034.0,72718.0,189047.0,85065.0
2026-04-14 18:02:45.445688,702456,1609507259091129,4859060130,-1.089216,0.158112,-0.191296,2.94,-0.2625,2.4675,17.592001,-24.288002,-19.664001,inter_set_rest,8,3.0,29841.0,190034.0,72718.0,189047.0,85065.0
2026-04-14 18:02:45.460392,702457,1609507259105595,4859075195,-1.089216,0.158112,-0.191296,5.4775,0.0175,2.45,17.592001,-24.288002,-19.664001,inter_set_rest,8,3.0,29841.0,190034.0,72718.0,189047.0,85065.0
2026-04-14 18:02:45.469307,702458,1609507259114574,4859083938,-1.147776,0.21472,-0.230336,5.99375,0.04375,1.1375,17.496,-24.296001,-19.128,inter_set_rest,8,3.0,29841.0,190034.0,72718.0,189047.0,85065.0
2026-04-14 18:02:45.484415,702459,1609507259129082,4859098889,-1.126304,0.199104,-0.15616,3.24625,-0.98875,-0.175,16.824001,-23.848001,-18.504002,inter_set_rest,8,3.0,29841.0,190034.0,72718.0,189047.0,85065.0
2026-04-14 18:02:45.494427,702460,1609507259138023,4859107618,-1.126304,0.199104,-0.15616,-0.105,-1.47,-1.04125,16.824001,-23.848001,-18.504002,inter_set_rest,8,3.0,29841.0,190034.0,72718.0,189047.0,85065.0
2026-04-14 18:02:45.523197,702461,1609507259146941,4859116351,-0.993568,0.121024,-0.023424,-0.95375,-1.60125,-1.085,16.624,-23.76,-20.904001,inter_set_rest,8,3.0,29841.0,190034.0,72718.0,189047.0,85065.0
2026-04-14 18:02:45.573292,702472,1609507259161538,4859131299,-0.993568,0.121024,-0.023424,1.05,-0.44625,-0.55125,16.624,-23.76,-20.904001,inter_set_rest,8,3.0,29988.0,192190.0,72692.0,190630.0,85211.0
2026-04-14 18:02:45.575168,702473,1609507259170466,4859139990,-0.974048,0.12688,-0.054656,5.06625,1.0675,0.65625,17.576,-24.032001,-19.592001,inter_set_rest,8,3.0,29988.0,192190.0,72692.0,190630.0,85211.0
2026-04-14 18:02:45.578179,702474,1609507259185026,4859154952,-0.974048,0.12688,-0.054656,9.77375,3.01875,1.89875,17.576,-24.032001,-19.592001,inter_set_rest,8,3.0,29988.0,192190.0,72692.0,190630.0,85211.0
2026-04-14 18:02:45.580747,702475,1609507259194048,4859163658,-1.030656,0.150304,-0.245952,12.075,3.745,2.86125,17.456001,-23.856,-20.168001,inter_set_rest,8,3.0,29988.0,192190.0,72692.0,190630.0,85211.0
2026-04-14 18:02:45.583174,702476,1609507259208612,4859178736,-0.99552,0.208864,0.01952,12.425,4.41,3.19375,17.048,-23.840002,-19.632002,inter_set_rest,8,3.0,29988.0,192190.0,72692.0,190630.0,85211.0
2026-04-14 18:02:45.585541,702477,1609507259217530,4859187447,-0.99552,0.208864,0.01952,9.9575,5.06625,2.59,17.048,-23.840002,-19.632002,inter_set_rest,8,3.0,29988.0,192190.0,72692.0,190630.0,85211.0
2026-04-14 18:02:45.588181,702478,1609507259226578,4859196132,-0.99552,0.208864,-0.056608,8.0325,5.88875,1.82875,17.048,-23.840002,-19.632002,inter_set_rest,8,3.0,29988.0,192190.0,72692.0,190630.0,85211.0
2026-04-14 18:02:45.595387,702479,1609507259241244,4859211060,-1.013088,0.203008,-0.056608,7.41125,6.545,0.2625,17.352001,-23.888,-20.776001,inter_set_rest,8,3.0,29988.0,192190.0,72692.0,190630.0,85211.0
2026-04-14 18:02:45.628915,702490,1609507259250619,4859219887,-1.040416,0.193248,-0.017568,6.44875,6.11625,-1.3825,16.704,-23.800001,-20.384,inter_set_rest,8,3.0,30134.0,193543.0,72799.0,191643.0,85411.0
2026-04-14 18:02:45.634002,702491,1609507259265425,4859234904,-1.040416,0.193248,-0.017568,5.5125,5.5475,-2.12625,16.704,-23.800001,-20.384,inter_set_rest,8,3.0,30134.0,193543.0,72799.0,191643.0,85411.0
2026-04-14 18:02:45.636811,702492,1609507259274378,4859243656,-1.075552,0.152256,-0.259616,6.51,5.0575,-2.8,15.784,-23.528002,-20.416,inter_set_rest,8,3.0,30134.0,193543.0,72799.0,191643.0,85411.0
2026-04-14 18:02:45.636955,702493,1609507259283364,4859252367,-1.075552,0.152256,-0.259616,8.40875,5.1275,-2.6075,15.784,-23.528002,-20.416,inter_set_rest,8,3.0,30134.0,193543.0,72799.0,191643.0,85411.0
2026-04-14 18:02:45.651770,702494,1609507259297856,4859267332,-1.032608,0.201056,-0.02928,9.72125,4.83,-2.59,16.28,-23.232,-19.688002,inter_set_rest,8,3.0,30134.0,193543.0,72799.0,191643.0,85411.0
2026-04-14 18:02:45.663202,702495,1609507259306788,4859276022,-1.032608,0.201056,-0.02928,10.17625,4.3575,-2.5725,16.28,-23.232,-19.688002,inter_set_rest,8,3.0,30134.0,193543.0,72799.0,191643.0,85411.0
2026-04-14 18:02:45.673895,702496,1609507259321285,4859290976,-1.0736,0.232288,-0.06832,8.89,3.0975,-2.94875,17.416,-23.272001,-19.088001,inter_set_rest,8,3.0,30134.0,193543.0,72799.0,191643.0,85411.0
2026-04-14 18:02:45.685752,702497,1609507259330271,4859299690,-1.018944,0.199104,0.001952,5.985,1.435,-3.3775,16.488,-23.136002,-20.160002,inter_set_rest,8,3.0,30134.0,193543.0,72799.0,191643.0,85411.0
2026-04-14 18:02:45.692611,702498,1609507259339309,4859308411,-1.018944,0.199104,0.001952,5.46,0.805,-4.3925,16.488,-23.136002,-20.160002,inter_set_rest,8,3.0,30134.0,193543.0,72799.0,191643.0,85411.0
2026-04-14 18:02:45.727654,702509,1609507259354033,4859323468,-1.042368,0.210816,-0.142496,8.58375,1.49625,-4.9,16.032001,-23.088001,-21.352001,inter_set_rest,8,3.0,30252.0,195150.0,72797.0,192574.0,85544.0
2026-04-14 18:02:45.730662,702510,1609507259363002,4859332268,-1.042368,0.210816,-0.142496,9.948751,2.02125,-5.36375,16.032001,-23.088001,-21.352001,inter_set_rest,8,3.0,30252.0,195150.0,72797.0,192574.0,85544.0
2026-04-14 18:02:45.733081,702511,1609507259377465,4859347221,-0.983808,0.187392,-0.109312,10.26375,1.26875,-5.1975,16.36,-23.112001,-20.208,inter_set_rest,8,3.0,30252.0,195150.0,72797.0,192574.0,85544.0
2026-04-14 18:02:45.741439,702512,1609507259386423,4859355919,-0.983808,0.187392,-0.109312,7.65625,0.46375,-5.11875,16.36,-23.112001,-20.208,inter_set_rest,8,3.0,30252.0,195150.0,72797.0,192574.0,85544.0
2026-04-14 18:02:45.757701,702513,1609507259400923,4859370864,-1.048224,0.177632,-0.245952,6.15125,-0.735,-4.47125,17.112001,-23.240002,-19.624,inter_set_rest,8,3.0,30252.0,195150.0,72797.0,192574.0,85544.0
2026-04-14 18:02:45.764454,702514,1609507259409864,4859379567,-1.10288,0.226432,-0.251808,6.93,-1.46125,-3.66625,17.352001,-22.920002,-19.408,inter_set_rest,8,3.0,30252.0,195150.0,72797.0,192574.0,85544.0
2026-04-14 18:02:45.773200,702515,1609507259418823,4859388262,-1.10288,0.226432,-0.251808,8.6625,-1.7325,-3.45625,17.352001,-22.920002,-19.408,inter_set_rest,8,3.0,30252.0,195150.0,72797.0,192574.0,85544.0
2026-04-14 18:02:45.788175,702516,1609507259433349,4859403134,-1.03456,0.15616,-0.216672,8.6275,-2.79125,-3.4475,16.416,-22.720001,-20.560001,inter_set_rest,8,3.0,30252.0,195150.0,72797.0,192574.0,85544.0
2026-04-14 18:02:45.795722,702517,1609507259442308,4859411854,-1.03456,0.15616,-0.216672,7.875,-4.3575,-3.395,16.416,-22.720001,-20.560001,inter_set_rest,8,3.0,30252.0,195150.0,72797.0,192574.0,85544.0
2026-04-14 18:02:45.828049,702528,1609507259456970,4859427202,-1.175104,0.181536,-0.255712,8.4,-5.81875,-3.29,15.808001,-22.824001,-20.328001,inter_set_rest,8,3.0,30157.0,195659.0,72533.0,192671.0,85290.0
2026-04-14 18:02:45.830500,702529,1609507259465957,4859435937,-1.175104,0.181536,-0.255712,9.26625,-6.055,-2.61625,15.808001,-22.824001,-20.328001,inter_set_rest,8,3.0,30157.0,195659.0,72533.0,192671.0,85290.0
2026-04-14 18:02:45.833044,702530,1609507259474902,4859444629,-1.188768,0.173728,-0.20496,8.575,-6.74625,-1.93375,16.608002,-22.584002,-20.624,inter_set_rest,8,3.0,30157.0,195659.0,72533.0,192671.0,85290.0
2026-04-14 18:02:45.872321,702531,1609507259489438,4859459722,-1.165344,0.193248,-0.232288,8.2425,-7.14,-1.89,17.240002,-22.928001,-19.264002,inter_set_rest,8,3.0,30157.0,195659.0,72533.0,192671.0,85290.0
2026-04-14 18:02:45.873883,702532,1609507259498368,4859468409,-1.165344,0.193248,-0.232288,8.93375,-6.81625,-1.7675,17.240002,-22.928001,-19.264002,inter_set_rest,8,3.0,30157.0,195659.0,72533.0,192671.0,85290.0
2026-04-14 18:02:45.876413,702533,1609507259512889,4859481259,-1.16144,0.15616,-0.316224,8.4,-6.3525,-1.54875,17.736,-22.552002,-20.344002,inter_set_rest,8,3.0,30157.0,195659.0,72533.0,192671.0,85290.0
2026-04-14 18:02:45.902154,702534,1609507259522059,4859492003,-1.16144,0.15616,-0.316224,6.41375,-6.43125,-1.3475,17.736,-22.552002,-20.344002,inter_set_rest,8,3.0,30157.0,195659.0,72533.0,192671.0,85290.0
2026-04-14 18:02:45.926879,702535,1609507259536581,4859504949,-1.188768,0.16592,-0.30256,5.04,-6.04625,-1.2425,16.616001,-22.464,-20.408,inter_set_rest,8,3.0,30157.0,195659.0,72533.0,192671.0,85290.0
2026-04-14 18:02:45.929415,702536,1609507259545753,4859515693,-1.188768,0.16592,-0.30256,5.3025,-5.01375,-0.9625,16.616001,-22.464,-20.408,inter_set_rest,8,3.0,30157.0,195659.0,72533.0,192671.0,85290.0
2026-04-14 18:02:45.959036,702547,1609507259554850,4859524391,-1.100928,0.17568,-0.095648,4.48,-4.40125,-0.93625,16.528,-22.424002,-20.480001,inter_set_rest,8,3.0,30582.0,198144.0,73073.0,194631.0,86063.0
2026-04-14 18:02:45.961681,702548,1609507259569421,4859539390,-1.077504,0.152256,-0.298656,4.82125,-3.8675,-0.07,16.528,-22.824001,-20.648,inter_set_rest,8,3.0,30582.0,198144.0,73073.0,194631.0,86063.0
2026-04-14 18:02:45.963949,702549,1609507259578337,4859548109,-1.077504,0.152256,-0.298656,6.5975,-2.1875,1.2075,16.544,-22.824001,-20.648,inter_set_rest,8,3.0,30582.0,198144.0,73073.0,194631.0,86063.0
2026-04-14 18:02:45.966881,702550,1609507259592868,4859563015,-1.052128,0.193248,-0.27328,7.91875,0.00875,2.2575,16.456001,-22.152,-20.216002,inter_set_rest,8,3.0,30582.0,198144.0,73073.0,194631.0,86063.0
2026-04-14 18:02:45.969362,702551,1609507259601852,4859571749,-1.052128,0.193248,-0.27328,8.82,1.9775,3.29875,16.456001,-22.152,-20.216002,inter_set_rest,8,3.0,30582.0,198144.0,73073.0,194631.0,86063.0
2026-04-14 18:02:45.971868,702552,1609507259610957,4859580532,-0.964288,0.22448,-0.08784,8.19,3.40375,3.91125,16.568,-22.376001,-20.456001,inter_set_rest,8,3.0,30582.0,198144.0,73073.0,194631.0,86063.0
2026-04-14 18:02:45.980670,702553,1609507259625536,4859595481,-0.964288,0.22448,-0.08784,4.62875,3.94625,4.27,16.568,-22.376001,-20.456001,inter_set_rest,8,3.0,30582.0,198144.0,73073.0,194631.0,86063.0
2026-04-14 18:02:45.992328,702554,1609507259634600,4859604173,-1.022848,0.199104,-0.074176,0.86625,2.9575,3.42125,17.408,-22.776001,-21.616001,inter_set_rest,8,3.0,30582.0,198144.0,73073.0,194631.0,86063.0
2026-04-14 18:02:46.003974,702555,1609507259649082,4859619084,-1.022848,0.199104,-0.121024,0.56,2.84375,2.38,17.408,-22.776001,-21.616001,inter_set_rest,8,3.0,30582.0,198144.0,73073.0,194631.0,86063.0
2026-04-14 18:02:46.034431,702566,1609507259658061,4859627917,-1.011136,0.177632,-0.11712,1.70625,2.75625,2.10875,17.104,-22.800001,-22.944,inter_set_rest,8,3.0,31215.0,200636.0,73968.0,196446.0,87230.0
2026-04-14 18:02:46.036945,702567,1609507259672799,4859642911,-1.10288,0.220576,-0.21472,3.38625,2.61625,1.9425,16.328001,-22.144001,-20.656,inter_set_rest,8,3.0,31215.0,200636.0,73968.0,196446.0,87230.0
2026-04-14 18:02:46.039457,702568,1609507259681727,4859651611,-1.10288,0.220576,-0.21472,3.3775,1.44375,1.61,16.328001,-22.144001,-20.656,inter_set_rest,8,3.0,31215.0,200636.0,73968.0,196446.0,87230.0
2026-04-14 18:02:46.045844,702569,1609507259690945,4859660467,-1.026752,0.17568,-0.16592,2.54625,0.44625,1.35625,16.416,-22.552002,-19.152,inter_set_rest,8,3.0,31215.0,200636.0,73968.0,196446.0,87230.0
2026-04-14 18:02:46.061960,702570,1609507259705526,4859675344,-1.026752,0.17568,-0.16592,1.8025,-0.30625,1.04125,16.416,-22.552002,-19.152,inter_set_rest,8,3.0,31215.0,200636.0,73968.0,196446.0,87230.0
2026-04-14 18:02:46.068221,702571,1609507259714508,4859684088,-1.040416,0.210816,-0.07808,1.14625,-0.39375,0.14875,16.776001,-22.776001,-20.816002,inter_set_rest,8,3.0,31215.0,200636.0,73968.0,196446.0,87230.0
2026-04-14 18:02:46.083233,702572,1609507259728998,4859698981,-1.040416,0.210816,-0.07808,-0.70875,-0.3325,-0.1575,16.776001,-22.776001,-20.816002,inter_set_rest,8,3.0,31215.0,200636.0,73968.0,196446.0,87230.0
2026-04-14 18:02:46.093077,702573,1609507259737922,4859707652,-1.009184,0.173728,-0.099552,-2.42375,-0.1225,-0.62125,16.968,-22.936,-22.008001,inter_set_rest,8,3.0,31215.0,200636.0,73968.0,196446.0,87230.0
2026-04-14 18:02:46.100306,702574,1609507259746955,4859716346,-1.009184,0.173728,-0.099552,-3.00125,0.7525,-0.84875,16.968,-22.936,-22.008001,inter_set_rest,8,3.0,31215.0,200636.0,73968.0,196446.0,87230.0
2026-04-14 18:02:46.130623,702585,1609507259761584,4859731328,-1.061888,0.169824,-0.26352,-1.96,2.8875,-0.44625,16.800001,-22.712002,-21.912,inter_set_rest,8,3.0,31561.0,201125.0,74487.0,196709.0,87948.0
2026-04-14 18:02:46.133139,702586,1609507259770583,4859740106,-1.011136,0.177632,-0.128832,-3.49125,4.2175,-0.62125,16.800001,-22.712002,-21.128,inter_set_rest,8,3.0,31561.0,201125.0,74487.0,196709.0,87948.0
2026-04-14 18:02:46.140406,702587,1609507259785125,4859755023,-1.011136,0.177632,-0.128832,-5.41625,5.20625,-0.98,16.232,-22.896002,-21.128,inter_set_rest,8,3.0,31561.0,201125.0,74487.0,196709.0,87948.0
2026-04-14 18:02:46.147838,702588,1609507259794195,4859763769,-1.06384,0.160064,-0.249856,-7.0175,4.87375,-0.84,16.808,-22.528002,-20.896002,inter_set_rest,8,3.0,31561.0,201125.0,74487.0,196709.0,87948.0
2026-04-14 18:02:46.162802,702589,1609507259808694,4859778683,-1.06384,0.160064,-0.249856,-7.1925,4.55,-0.48125,16.808,-22.528002,-20.896002,inter_set_rest,8,3.0,31561.0,201125.0,74487.0,196709.0,87948.0
2026-04-14 18:02:46.171934,702590,1609507259817629,4859787392,-1.022848,0.17568,-0.062464,-7.09625,4.3575,0.2275,16.304,-22.68,-21.696001,inter_set_rest,8,3.0,31561.0,201125.0,74487.0,196709.0,87948.0
2026-04-14 18:02:46.181970,702591,1609507259826635,4859796098,-1.022848,0.17568,-0.062464,-6.86875,4.38375,0.00875,16.304,-22.68,-21.696001,inter_set_rest,8,3.0,31561.0,201125.0,74487.0,196709.0,87948.0
2026-04-14 18:02:46.195606,702592,1609507259841143,4859811037,-1.040416,0.167872,-0.244,-6.0025,4.095,0.1225,15.816001,-23.104002,-21.848001,inter_set_rest,8,3.0,31561.0,201125.0,74487.0,196709.0,87948.0
2026-04-14 18:02:46.205663,702593,1609507259850154,4859819722,-1.040416,0.167872,-0.244,-6.64125,2.94875,-0.875,15.816001,-23.104002,-21.848001,inter_set_rest,8,3.0,31561.0,201125.0,74487.0,196709.0,87948.0
2026-04-14 18:02:46.233185,702604,1609507259864756,4859834664,-1.091168,0.181536,-0.316224,-7.6125,1.7675,-0.945,16.976002,-23.152,-21.160002,inter_set_rest,8,3.0,31695.0,199960.0,74664.0,195661.0,88218.0
2026-04-14 18:02:46.257834,702605,1609507259873769,4859843400,-1.077504,0.251808,-0.0976,-7.6125,1.575,-0.875,16.072,-22.896002,-20.800001,inter_set_rest,8,3.0,31695.0,199960.0,74664.0,195661.0,88218.0
2026-04-14 18:02:46.283131,702606,1609507259882816,4859852160,-1.077504,0.251808,-0.0976,-7.6125,1.56625,-0.42875,16.072,-22.896002,-20.800001,inter_set_rest,8,3.0,31695.0,199960.0,74664.0,195661.0,88218.0
2026-04-14 18:02:46.290347,702607,1609507259897310,4859867084,-0.999424,0.187392,-0.11712,-7.875,0.91875,-0.105,15.632001,-23.336,-20.648,inter_set_rest,8,3.0,31695.0,199960.0,74664.0,195661.0,88218.0
2026-04-14 18:02:46.295289,702608,1609507259906255,4859875772,-0.999424,0.187392,-0.11712,-10.2025,-0.27125,0.07,15.632001,-23.336,-20.648,inter_set_rest,8,3.0,31695.0,199960.0,74664.0,195661.0,88218.0
2026-04-14 18:02:46.297762,702609,1609507259920744,4859890662,-1.011136,0.119072,-0.177632,-11.9875,-0.95375,-0.07,15.672001,-22.752,-20.560001,inter_set_rest,8,3.0,31695.0,199960.0,74664.0,195661.0,88218.0
2026-04-14 18:02:46.300301,702610,1609507259929682,4859899373,-1.011136,0.119072,-0.177632,-10.71875,-0.6475,0.84,15.672001,-22.752,-20.560001,inter_set_rest,8,3.0,31695.0,199960.0,74664.0,195661.0,88218.0
2026-04-14 18:02:46.302778,702611,1609507259944198,4859914271,-1.009184,0.191296,-0.181536,-6.13375,1.44375,1.855,15.920001,-23.496,-22.048,inter_set_rest,8,3.0,31695.0,199960.0,74664.0,195661.0,88218.0
2026-04-14 18:02:46.330449,702622,1609507259953606,4859923023,-1.026752,0.189344,-0.212768,-4.59375,3.605,2.68625,16.712,-23.448002,-23.608002,inter_set_rest,8,3.0,31627.0,197909.0,74494.0,193705.0,88037.0
2026-04-14 18:02:46.332857,702623,1609507259962712,4859931882,-1.026752,0.189344,-0.212768,-6.85125,5.2325,3.99,16.712,-23.448002,-23.608002,inter_set_rest,8,3.0,31627.0,197909.0,74494.0,193705.0,88037.0
2026-04-14 18:02:46.335417,702624,1609507259977480,4859946821,-1.071648,0.167872,-0.197152,-9.66875,8.18125,5.24125,16.632,-23.544,-21.800001,inter_set_rest,8,3.0,31627.0,197909.0,74494.0,193705.0,88037.0
2026-04-14 18:02:46.341624,702625,1609507259986562,4859955670,-1.071648,0.167872,-0.197152,-9.292501,11.90875,6.48375,16.632,-23.544,-21.800001,inter_set_rest,8,3.0,31627.0,197909.0,74494.0,193705.0,88037.0
2026-04-14 18:02:46.355432,702626,1609507260001060,4859970617,-1.052128,0.187392,-0.140544,-6.67625,14.77875,7.76125,16.04,-23.376001,-20.624,inter_set_rest,8,3.0,31627.0,197909.0,74494.0,193705.0,88037.0
2026-04-14 18:02:46.365755,702627,1609507260009992,4859979352,-1.052128,0.187392,-0.140544,-5.775,17.7275,8.51375,16.04,-23.376001,-20.624,inter_set_rest,8,3.0,31627.0,197909.0,74494.0,193705.0,88037.0
2026-04-14 18:02:46.375651,702628,1609507260018944,4859988092,-1.097024,0.1952,-0.337696,-4.83,19.13625,8.70625,15.872001,-23.792002,-21.552002,inter_set_rest,8,3.0,31627.0,197909.0,74494.0,193705.0,88037.0
2026-04-14 18:02:46.389041,702629,1609507260033439,4860002986,-1.098976,0.212768,-0.2928,-5.075,19.565,9.485,15.224001,-23.704,-22.512001,inter_set_rest,8,3.0,31627.0,197909.0,74494.0,193705.0,88037.0
2026-04-14 18:02:46.398966,702630,1609507260042468,4860011683,-1.098976,0.212768,-0.2928,-6.90375,19.1975,10.8325,15.224001,-23.704,-22.512001,inter_set_rest,8,3.0,31627.0,197909.0,74494.0,193705.0,88037.0
2026-04-14 18:02:46.437476,702642,1609507260057399,4860026630,-1.042368,0.187392,-0.288896,-5.32875,19.74,11.89125,14.664001,-23.6,-21.032001,inter_set_rest,8,3.0,31768.0,197028.0,74779.0,193080.0,88332.0
2026-04-14 18:02:46.439844,702643,1609507260066411,4860035405,-1.042368,0.187392,-0.288896,-1.9425,20.0725,12.285,14.664001,-23.6,-21.032001,inter_set_rest,8,3.0,31768.0,197028.0,74779.0,193080.0,88332.0
2026-04-14 18:02:46.442515,702644,1609507260075428,4860044132,-1.067744,0.267424,-0.144448,-0.51625,18.83875,12.69625,14.248001,-23.416,-20.864,inter_set_rest,8,3.0,31768.0,197028.0,74779.0,193080.0,88332.0
2026-04-14 18:02:46.443693,702645,1609507260090280,4860059039,-1.067744,0.267424,-0.144448,0.11375,18.34875,12.32,14.248001,-23.416,-20.864,inter_set_rest,8,3.0,31768.0,197028.0,74779.0,193080.0,88332.0
2026-04-14 18:02:46.455310,702646,1609507260099591,4860069815,-1.032608,0.265472,-0.11712,0.53375,17.7975,11.36625,14.112,-23.856,-21.080002,inter_set_rest,8,3.0,31768.0,197028.0,74779.0,193080.0,88332.0
2026-04-14 18:02:46.466458,702647,1609507260114083,4860082665,-1.06384,0.265472,-0.13664,-0.88375,16.26625,10.3075,14.544001,-24.44,-24.024002,inter_set_rest,8,3.0,31768.0,197028.0,74779.0,193080.0,88332.0
2026-04-14 18:02:46.477742,702648,1609507260123684,4860093417,-1.06384,0.265472,-0.13664,-2.9925,13.658751,9.065,14.544001,-24.44,-24.024002,inter_set_rest,8,3.0,31768.0,197028.0,74779.0,193080.0,88332.0
2026-04-14 18:02:46.506449,702649,1609507260132642,4860102139,-1.06384,0.245952,-0.187392,-4.38375,11.69,8.61875,14.544001,-24.44,-24.024002,inter_set_rest,8,3.0,31768.0,197028.0,74779.0,193080.0,88332.0
2026-04-14 18:02:46.509423,702650,1609507260147157,4860116997,-1.08336,0.245952,-0.187392,-2.5025,9.948751,8.0675,14.088,-23.936,-22.576,inter_set_rest,8,3.0,31768.0,197028.0,74779.0,193080.0,88332.0
2026-04-14 18:02:46.546810,702661,1609507260156503,4860125751,-0.98576,0.232288,-0.191296,0.49875,8.47,8.4525,14.608001,-24.448002,-22.584002,inter_set_rest,8,3.0,31343.0,195385.0,74228.0,191643.0,87680.0
2026-04-14 18:02:46.553126,702662,1609507260165784,4860134483,-0.98576,0.232288,-0.191296,2.52,5.92375,7.84875,14.608001,-24.448002,-22.584002,inter_set_rest,8,3.0,31343.0,195385.0,74228.0,191643.0,87680.0
2026-04-14 18:02:46.553902,702663,1609507260180690,4860149471,-1.016992,0.275232,-0.132736,1.74125,2.6075,6.11625,14.160001,-24.496,-22.696001,inter_set_rest,8,3.0,31343.0,195385.0,74228.0,191643.0,87680.0
2026-04-14 18:02:46.556370,702664,1609507260190050,4860160300,-1.016992,0.275232,-0.132736,1.44375,1.015,5.18,14.160001,-24.496,-22.696001,inter_set_rest,8,3.0,31343.0,195385.0,74228.0,191643.0,87680.0
2026-04-14 18:02:46.561595,702665,1609507260204675,4860173223,-1.001376,0.267424,-0.115168,2.94875,-0.51625,3.99875,14.368001,-24.44,-21.992,inter_set_rest,8,3.0,31343.0,195385.0,74228.0,191643.0,87680.0
2026-04-14 18:02:46.567729,702666,1609507260214108,4860183930,-0.99552,0.244,-0.103456,2.5375,-1.82875,3.0975,14.392001,-24.448002,-23.928001,inter_set_rest,8,3.0,31343.0,195385.0,74228.0,191643.0,87680.0
2026-04-14 18:02:46.578095,702667,1609507260223103,4860192680,-0.99552,0.244,-0.103456,2.82625,-1.9075,3.1325,14.392001,-24.448002,-23.928001,inter_set_rest,8,3.0,31343.0,195385.0,74228.0,191643.0,87680.0
2026-04-14 18:02:46.594369,702668,1609507260237617,4860207572,-1.048224,0.232288,-0.13664,3.28125,-2.31875,2.93125,14.392001,-24.512001,-22.736002,inter_set_rest,8,3.0,31343.0,195385.0,74228.0,191643.0,87680.0
2026-04-14 18:02:46.600841,702669,1609507260246733,4860216280,-1.048224,0.232288,-0.13664,5.18,-1.72375,3.01,14.392001,-24.512001,-22.736002,inter_set_rest,8,3.0,31343.0,195385.0,74228.0,191643.0,87680.0
2026-04-14 18:02:46.679379,702680,1609507260261357,4860231687,-1.067744,0.222528,-0.324032,7.0,-1.23375,3.17625,13.368001,-24.080002,-21.608002,inter_set_rest,8,3.0,31356.0,195442.0,74166.0,191647.0,87706.0
2026-04-14 18:02:46.681949,702681,1609507260270298,4860240390,-1.067744,0.222528,-0.324032,7.2975,-2.0125,2.8875,13.368001,-24.080002,-21.608002,inter_set_rest,8,3.0,31356.0,195442.0,74166.0,191647.0,87706.0
2026-04-14 18:02:46.684460,702682,1609507260279221,4860249117,-1.10288,0.220576,-0.339648,5.775,-3.14125,2.16125,14.160001,-24.456001,-21.36,inter_set_rest,8,3.0,31356.0,195442.0,74166.0,191647.0,87706.0
2026-04-14 18:02:46.686976,702683,1609507260293787,4860264014,-1.0248,0.1952,-0.07808,4.13875,-5.18,0.5775,14.160001,-24.456001,-21.216002,inter_set_rest,8,3.0,31356.0,195442.0,74166.0,191647.0,87706.0
2026-04-14 18:02:46.689487,702684,1609507260302736,4860272736,-1.018944,0.1952,-0.07808,3.73625,-6.1425,-0.88375,13.704,-24.408,-21.216002,inter_set_rest,8,3.0,31356.0,195442.0,74166.0,191647.0,87706.0
2026-04-14 18:02:46.691984,702685,1609507260317505,4860287636,-1.020896,0.197152,-0.12688,3.47375,-7.14875,-2.555,13.256001,-24.04,-21.272001,inter_set_rest,8,3.0,31356.0,195442.0,74166.0,191647.0,87706.0
2026-04-14 18:02:46.694424,702686,1609507260326460,4860296364,-1.020896,0.197152,-0.12688,4.62875,-8.365,-3.9375,13.256001,-24.04,-21.272001,inter_set_rest,8,3.0,31356.0,195442.0,74166.0,191647.0,87706.0
2026-04-14 18:02:46.696919,702687,1609507260335444,4860305069,-1.028704,0.163968,-0.261568,5.3375,-9.975,-5.3725,13.424001,-24.016,-19.736,inter_set_rest,8,3.0,31356.0,195442.0,74166.0,191647.0,87706.0
2026-04-14 18:02:46.704426,702688,1609507260349984,4860320082,-1.028704,0.163968,-0.261568,6.44,-10.66625,-6.58,13.424001,-24.016,-19.736,inter_set_rest,8,3.0,31356.0,195442.0,74166.0,191647.0,87706.0
2026-04-14 18:02:46.735782,702699,1609507260359106,4860328775,-1.01504,0.177632,-0.074176,7.0,-11.917501,-7.23625,14.504001,-24.176,-22.808,inter_set_rest,8,3.0,31220.0,195397.0,73948.0,191581.0,87491.0
2026-04-14 18:02:46.740574,702700,1609507260373671,4860343821,-1.01504,0.177632,-0.074176,8.04125,-12.04,-7.21875,14.504001,-24.176,-22.808,inter_set_rest,8,3.0,31220.0,195397.0,73948.0,191581.0,87491.0
2026-04-14 18:02:46.740949,702701,1609507260382607,4860352578,-1.071648,0.203008,-0.138592,9.6775,-11.73375,-7.7,14.576001,-23.720001,-23.36,inter_set_rest,8,3.0,31220.0,195397.0,73948.0,191581.0,87491.0
2026-04-14 18:02:46.752615,702702,1609507260397205,4860367486,-0.997472,0.163968,-0.1464,10.77125,-11.50625,-8.636251,14.768001,-23.608002,-22.496,inter_set_rest,8,3.0,31220.0,195397.0,73948.0,191581.0,87491.0
2026-04-14 18:02:46.760608,702703,1609507260406346,4860376263,-0.997472,0.163968,-0.1464,10.36875,-11.54125,-10.12375,14.768001,-23.608002,-22.496,inter_set_rest,8,3.0,31220.0,195397.0,73948.0,191581.0,87491.0
2026-04-14 18:02:46.770211,702704,1609507260415423,4860385059,-1.020896,0.169824,-0.066368,6.7025,-11.55,-11.55875,15.128,-23.512001,-22.704,inter_set_rest,8,3.0,31220.0,195397.0,73948.0,191581.0,87491.0
2026-04-14 18:02:46.783932,702705,1609507260429919,4860400085,-1.020896,0.169824,-0.066368,4.06,-11.3225,-11.92625,15.128,-23.512001,-22.704,inter_set_rest,8,3.0,31220.0,195397.0,73948.0,191581.0,87491.0
2026-04-14 18:02:46.795758,702706,1609507260438851,4860408768,-0.999424,0.1464,-0.066368,3.75375,-10.19375,-13.4225,14.912001,-23.720001,-22.376001,inter_set_rest,8,3.0,31220.0,195397.0,73948.0,191581.0,87491.0
2026-04-14 18:02:46.809495,702707,1609507260453497,4860423655,-0.999424,0.1464,-0.066368,5.78375,-8.54875,-13.60625,14.912001,-23.720001,-22.376001,inter_set_rest,8,3.0,31220.0,195397.0,73948.0,191581.0,87491.0
2026-04-14 18:02:46.842874,702718,1609507260462490,4860432541,-1.085312,0.154208,-0.2928,7.2975,-6.475,-13.27375,15.424001,-23.320002,-21.984001,inter_set_rest,8,3.0,30843.0,193357.0,73450.0,190021.0,86904.0
2026-04-14 18:02:46.844922,702719,1609507260471472,4860441320,-1.085312,0.154208,-0.2928,6.8075,-5.635,-14.0,15.424001,-23.320002,-21.984001,inter_set_rest,8,3.0,30843.0,193357.0,73450.0,190021.0,86904.0
2026-04-14 18:02:46.846435,702720,1609507260486041,4860456269,-1.001376,0.152256,-0.210816,5.7575,-4.6725,-14.3675,14.984001,-23.024,-21.512001,inter_set_rest,8,3.0,30843.0,193357.0,73450.0,190021.0,86904.0
2026-04-14 18:02:46.849046,702721,1609507260495045,4860464966,-1.016992,0.144448,-0.148352,5.18875,-3.675,-14.542501,14.984001,-23.024,-21.512001,inter_set_rest,8,3.0,30843.0,193357.0,73450.0,190021.0,86904.0
2026-04-14 18:02:46.865614,702722,1609507260509548,4860479863,-1.018944,0.144448,-0.148352,3.59625,-3.325,-15.35625,14.672001,-22.920002,-21.936,inter_set_rest,8,3.0,30843.0,193357.0,73450.0,190021.0,86904.0
2026-04-14 18:02:46.873939,702723,1609507260518464,4860488594,-1.08336,0.179584,-0.154208,2.415,-2.8,-15.68,14.736001,-22.592001,-22.536001,inter_set_rest,8,3.0,30843.0,193357.0,73450.0,190021.0,86904.0
2026-04-14 18:02:46.885675,702724,1609507260532992,4860501442,-1.08336,0.179584,-0.154208,3.255,-1.75,-15.82875,14.736001,-22.592001,-22.536001,inter_set_rest,8,3.0,30843.0,193357.0,73450.0,190021.0,86904.0
2026-04-14 18:02:46.896980,702725,1609507260542323,4860512206,-1.071648,0.181536,-0.173728,3.325,-1.75875,-16.03875,15.776001,-22.496,-23.080002,inter_set_rest,8,3.0,30843.0,193357.0,73450.0,190021.0,86904.0
2026-04-14 18:02:46.907771,702726,1609507260551250,4860520878,-1.071648,0.181536,-0.173728,2.56375,-2.28375,-16.52,15.776001,-22.496,-23.080002,inter_set_rest,8,3.0,30843.0,193357.0,73450.0,190021.0,86904.0
2026-04-14 18:02:46.939980,702737,1609507260565957,4860536034,-1.011136,0.167872,-0.083936,2.24875,-2.77375,-16.6775,16.12,-22.632002,-23.048,inter_set_rest,8,3.0,30697.0,192287.0,73298.0,189328.0,86713.0
2026-04-14 18:02:46.943136,702738,1609507260574938,4860544740,-1.011136,0.167872,-0.083936,1.70625,-3.885,-17.7625,16.12,-22.632002,-23.048,inter_set_rest,8,3.0,30697.0,192287.0,73298.0,189328.0,86713.0
2026-04-14 18:02:46.945687,702739,1609507260589528,4860559786,-1.028704,0.169824,-0.122976,0.65625,-5.075,-18.94375,15.480001,-22.208,-22.000002,inter_set_rest,8,3.0,30697.0,192287.0,73298.0,189328.0,86713.0
2026-04-14 18:02:46.954378,702740,1609507260598576,4860568489,-1.087264,0.20496,-0.111264,0.46375,-5.67,-19.55625,15.032001,-21.536001,-21.016,inter_set_rest,8,3.0,30697.0,192287.0,73298.0,189328.0,86713.0
2026-04-14 18:02:46.961961,702741,1609507260607588,4860577241,-1.087264,0.20496,-0.111264,1.015,-6.195,-19.7225,15.032001,-21.536001,-21.016,inter_set_rest,8,3.0,30697.0,192287.0,73298.0,189328.0,86713.0
2026-04-14 18:02:46.996981,702742,1609507260622105,4860592141,-1.067744,0.171776,-0.238144,0.34125,-6.1775,-19.74,16.880001,-22.240002,-23.024,inter_set_rest,8,3.0,30697.0,192287.0,73298.0,189328.0,86713.0
2026-04-14 18:02:47.021897,702743,1609507260631009,4860600811,-1.067744,0.171776,-0.238144,0.385,-6.0725,-19.53875,16.880001,-22.240002,-23.024,inter_set_rest,8,3.0,30697.0,192287.0,73298.0,189328.0,86713.0
2026-04-14 18:02:47.044331,702744,1609507260645521,4860615795,-1.071648,0.20496,-0.072224,0.7175,-5.915,-19.18,16.76,-21.824001,-22.880001,inter_set_rest,8,3.0,30697.0,192287.0,73298.0,189328.0,86713.0
2026-04-14 18:02:47.046965,702745,1609507260654461,4860624547,-1.071648,0.20496,-0.072224,-1.14625,-6.02875,-19.03125,16.76,-21.824001,-22.880001,inter_set_rest,8,3.0,30697.0,192287.0,73298.0,189328.0,86713.0
2026-04-14 18:02:47.073895,702756,1609507260668960,4860637422,-1.069696,0.203008,-0.113216,-2.26625,-5.41625,-18.55,17.016,-22.088001,-24.808,inter_set_rest,8,3.0,30646.0,191889.0,73316.0,189099.0,86680.0
2026-04-14 18:02:47.076694,702757,1609507260678293,4860648186,-1.020896,0.177632,-0.06832,-3.08,-5.145,-18.4275,17.296001,-21.416,-22.784,inter_set_rest,8,3.0,30646.0,191889.0,73316.0,189099.0,86680.0
2026-04-14 18:02:47.079478,702758,1609507260687281,4860656813,-1.020896,0.177632,-0.06832,-3.77125,-5.43375,-18.4275,17.296001,-21.416,-22.784,inter_set_rest,8,3.0,30646.0,191889.0,73316.0,189099.0,86680.0
2026-04-14 18:02:47.081979,702759,1609507260701775,4860671774,-1.042368,0.189344,-0.062464,-3.9025,-5.6,-17.36,16.768002,-21.056002,-21.800001,inter_set_rest,8,3.0,30646.0,191889.0,73316.0,189099.0,86680.0
2026-04-14 18:02:47.084507,702760,1609507260710732,4860680505,-1.042368,0.189344,-0.062464,-3.5875,-6.2475,-16.87875,16.768002,-21.056002,-21.800001,inter_set_rest,8,3.0,30646.0,191889.0,73316.0,189099.0,86680.0
2026-04-14 18:02:47.087043,702761,1609507260725273,4860695425,-1.139968,0.201056,-0.271328,-3.01,-6.3875,-16.77375,16.856,-21.664001,-21.936,inter_set_rest,8,3.0,30646.0,191889.0,73316.0,189099.0,86680.0
2026-04-14 18:02:47.089489,702762,1609507260734221,4860704178,-1.139968,0.201056,-0.271328,-2.7825,-6.78125,-16.05625,16.856,-21.664001,-21.936,inter_set_rest,8,3.0,30646.0,191889.0,73316.0,189099.0,86680.0
2026-04-14 18:02:47.096982,702763,1609507260743162,4860712878,-1.075552,0.220576,-0.062464,-3.26375,-7.5775,-16.54625,16.864,-21.008001,-21.808,inter_set_rest,8,3.0,30646.0,191889.0,73316.0,189099.0,86680.0
2026-04-14 18:02:47.170752,702774,1609507260757950,4860727782,-1.04432,0.17568,-0.13664,-4.3225,-8.26875,-15.8725,17.976002,-21.28,-23.184002,inter_set_rest,8,3.0,30673.0,192524.0,73324.0,189721.0,86701.0
2026-04-14 18:02:47.173237,702775,1609507260766962,4860736570,-1.04432,0.17568,-0.13664,-5.565,-8.40875,-15.2425,17.976002,-21.28,-23.184002,inter_set_rest,8,3.0,30673.0,192524.0,73324.0,189721.0,86701.0
2026-04-14 18:02:47.175723,702776,1609507260781454,4860751495,-1.104832,0.171776,-0.306464,-5.87125,-8.35625,-14.91,18.128,-21.096,-22.632002,inter_set_rest,8,3.0,30673.0,192524.0,73324.0,189721.0,86701.0
2026-04-14 18:02:47.178194,702777,1609507260790391,4860760202,-1.104832,0.171776,-0.306464,-4.9,-7.8225,-13.93875,18.128,-21.096,-22.632002,inter_set_rest,8,3.0,30673.0,192524.0,73324.0,189721.0,86701.0
2026-04-14 18:02:47.180787,702778,1609507260799380,4860768877,-1.075552,0.171776,-0.288896,-4.34875,-7.37625,-13.0725,18.616001,-21.504002,-22.432001,inter_set_rest,8,3.0,30673.0,192524.0,73324.0,189721.0,86701.0
2026-04-14 18:02:47.183236,702779,1609507260813913,4860783889,-1.075552,0.171776,-0.288896,-3.5,-6.64125,-11.31375,18.616001,-21.504002,-22.432001,inter_set_rest,8,3.0,30673.0,192524.0,73324.0,189721.0,86701.0
2026-04-14 18:02:47.185730,702780,1609507260822879,4860792620,-1.056032,0.17568,-0.212768,-3.98125,-6.4925,-10.325,18.128,-21.160002,-22.68,inter_set_rest,8,3.0,30673.0,192524.0,73324.0,189721.0,86701.0
2026-04-14 18:02:47.193263,702781,1609507260837448,4860807497,-1.0248,0.160064,-0.154208,-5.18,-6.6325,-9.485,18.128,-21.160002,-22.688002,inter_set_rest,8,3.0,30673.0,192524.0,73324.0,189721.0,86701.0
2026-04-14 18:02:47.200761,702782,1609507260846393,4860816248,-1.0248,0.160064,-0.154208,-6.23,-6.62375,-8.98625,18.488,-21.36,-22.688002,inter_set_rest,8,3.0,30673.0,192524.0,73324.0,189721.0,86701.0
2026-04-14 18:02:47.236613,702793,1609507260861450,4860831278,-1.124352,0.1952,-0.18544,-6.79875,-5.88875,-8.33,18.408,-21.224,-22.080002,inter_set_rest,8,3.0,30555.0,192405.0,73170.0,189698.0,86513.0
2026-04-14 18:02:47.241389,702794,1609507260870504,4860840044,-1.124352,0.1952,-0.18544,-6.25625,-5.0575,-6.9825,18.408,-21.224,-22.080002,inter_set_rest,8,3.0,30555.0,192405.0,73170.0,189698.0,86513.0
2026-04-14 18:02:47.243973,702795,1609507260879463,4860848857,-1.061888,0.179584,-0.11712,-6.34375,-5.04875,-6.30875,17.648,-20.76,-21.488,inter_set_rest,8,3.0,30555.0,192405.0,73170.0,189698.0,86513.0
2026-04-14 18:02:47.248164,702796,1609507260893975,4860863789,-1.061888,0.179584,-0.11712,-6.16875,-5.11,-5.45125,17.648,-20.76,-21.488,inter_set_rest,8,3.0,30555.0,192405.0,73170.0,189698.0,86513.0
2026-04-14 18:02:47.257699,702797,1609507260902939,4860872473,-1.077504,0.20496,-0.081984,-5.94125,-4.29625,-4.19125,17.912,-21.28,-22.352001,inter_set_rest,8,3.0,30555.0,192405.0,73170.0,189698.0,86513.0
2026-04-14 18:02:47.271959,702798,1609507260917480,4860887450,-1.077504,0.20496,-0.181536,-5.52125,-3.71875,-3.50875,17.912,-21.28,-22.352001,inter_set_rest,8,3.0,30555.0,192405.0,73170.0,189698.0,86513.0
2026-04-14 18:02:47.281953,702799,1609507260926457,4860896151,-1.098976,0.18544,-0.181536,-5.6175,-4.4275,-3.2375,18.28,-21.496,-22.144001,inter_set_rest,8,3.0,30555.0,192405.0,73170.0,189698.0,86513.0
2026-04-14 18:02:47.289391,702800,1609507260935421,4860904861,-1.098976,0.18544,-0.181536,-6.37875,-4.31375,-2.61625,18.28,-21.496,-22.144001,inter_set_rest,8,3.0,30555.0,192405.0,73170.0,189698.0,86513.0
2026-04-14 18:02:47.305301,702801,1609507260949928,4860919762,-1.100928,0.191296,-0.179584,-6.2825,-4.48875,-2.1525,18.528002,-21.416,-22.032001,inter_set_rest,8,3.0,30555.0,192405.0,73170.0,189698.0,86513.0
2026-04-14 18:02:47.360748,702812,1609507260959087,4860928464,-1.114592,0.191296,-0.17568,-5.45125,-4.095,-1.9075,17.720001,-20.84,-21.576,inter_set_rest,8,3.0,30621.0,192394.0,73311.0,189712.0,86649.0
2026-04-14 18:02:47.385728,702813,1609507260973702,4860943437,-1.114592,0.191296,-0.17568,-5.15375,-4.13,-0.83125,17.720001,-20.84,-21.576,inter_set_rest,8,3.0,30621.0,192394.0,73311.0,189712.0,86649.0
2026-04-14 18:02:47.388211,702814,1609507260982657,4860952144,-1.108736,0.158112,-0.298656,-4.68125,-3.84125,-0.14,17.312,-20.504002,-20.232,inter_set_rest,8,3.0,30621.0,192394.0,73311.0,189712.0,86649.0
2026-04-14 18:02:47.396000,702815,1609507260997152,4860967030,-1.108736,0.158112,-0.298656,-3.71,-3.36875,0.83125,17.312,-20.504002,-20.232,inter_set_rest,8,3.0,30621.0,192394.0,73311.0,189712.0,86649.0
2026-04-14 18:02:47.398201,702816,1609507261006101,4860975758,-1.128256,0.1952,-0.22448,-4.165,-3.01875,1.645,17.08,-20.712002,-21.344002,inter_set_rest,8,3.0,30621.0,192394.0,73311.0,189712.0,86649.0
2026-04-14 18:02:47.402177,702817,1609507261015160,4860984453,-1.128256,0.1952,-0.22448,-3.745,-2.47625,2.7125,17.08,-20.712002,-21.344002,inter_set_rest,8,3.0,30621.0,192394.0,73311.0,189712.0,86649.0
2026-04-14 18:02:47.402639,702818,1609507261029653,4860999409,-1.130208,0.193248,-0.206912,-3.91125,-1.79375,3.08,17.496,-21.272001,-21.072,inter_set_rest,8,3.0,30621.0,192394.0,73311.0,189712.0,86649.0
2026-04-14 18:02:47.405586,702819,1609507261038752,4861008099,-1.036512,0.169824,-0.046848,-5.355,-1.96875,3.08875,17.496,-21.208,-21.552002,inter_set_rest,8,3.0,30621.0,192394.0,73311.0,189712.0,86649.0
2026-04-14 18:02:47.409126,702820,1609507261053266,4861022989,-1.036512,0.169824,-0.046848,-6.4575,-1.6625,3.7625,17.648,-21.208,-21.552002,inter_set_rest,8,3.0,30621.0,192394.0,73311.0,189712.0,86649.0
2026-04-14 18:02:47.436897,702831,1609507261062895,4861032127,-1.057984,0.138592,-0.265472,-6.1425,-0.58625,4.27875,17.536001,-21.344002,-20.904001,inter_set_rest,8,3.0,30694.0,193090.0,73389.0,190363.0,86748.0
2026-04-14 18:02:47.439414,702832,1609507261071907,4861040843,-1.057984,0.138592,-0.265472,-5.705,0.6125,4.6025,17.536001,-21.344002,-20.904001,inter_set_rest,8,3.0,30694.0,193090.0,73389.0,190363.0,86748.0
2026-04-14 18:02:47.441412,702833,1609507261086450,4861055829,-1.130208,0.177632,-0.244,-4.865,0.945,5.88875,17.856,-21.656,-20.664001,inter_set_rest,8,3.0,30694.0,193090.0,73389.0,190363.0,86748.0
2026-04-14 18:02:47.451924,702834,1609507261095469,4861064594,-1.130208,0.177632,-0.244,-5.425,1.96,6.44875,17.856,-21.656,-20.664001,inter_set_rest,8,3.0,30694.0,193090.0,73389.0,190363.0,86748.0
2026-04-14 18:02:47.464428,702835,1609507261109968,4861079505,-1.0736,0.183488,-0.054656,-7.02625,2.75625,6.6325,17.056002,-21.528002,-22.264002,inter_set_rest,8,3.0,30694.0,193090.0,73389.0,190363.0,86748.0
2026-04-14 18:02:47.474014,702836,1609507261119125,4861088199,-1.0736,0.15616,-0.21472,-8.636251,3.0975,7.35875,17.056002,-21.528002,-23.240002,inter_set_rest,8,3.0,30694.0,193090.0,73389.0,190363.0,86748.0
2026-04-14 18:02:47.481961,702837,1609507261128214,4861096899,-1.108736,0.15616,-0.21472,-6.86875,4.6725,7.88375,18.096,-21.792002,-23.240002,inter_set_rest,8,3.0,30694.0,193090.0,73389.0,190363.0,86748.0
2026-04-14 18:02:47.496195,702838,1609507261143076,4861111896,-1.059936,0.128832,-0.294752,-4.305,5.78375,7.98875,17.992,-22.152,-21.992,inter_set_rest,8,3.0,30694.0,193090.0,73389.0,190363.0,86748.0
2026-04-14 18:02:47.507411,702839,1609507261152469,4861122677,-1.059936,0.128832,-0.294752,-2.05625,6.36125,8.435,17.992,-22.152,-21.992,inter_set_rest,8,3.0,30694.0,193090.0,73389.0,190363.0,86748.0
2026-04-14 18:02:47.536285,702850,1609507261167046,4861135673,-1.108736,0.206912,-0.162016,0.06125,6.41375,8.9075,16.608002,-21.480001,-19.872002,concentric,8,3.0,30242.0,192456.0,72607.0,189752.0,85852.0
2026-04-14 18:02:47.539043,702851,1609507261176680,4861146462,-1.108736,0.206912,-0.162016,0.62125,5.62625,8.435,16.608002,-21.480001,-19.872002,concentric,8,3.0,30242.0,192456.0,72607.0,189752.0,85852.0
2026-04-14 18:02:47.541258,702852,1609507261185819,4861155223,-1.09312,0.179584,-0.316224,-0.5425,4.62,7.55125,16.36,-21.400002,-20.088001,concentric,8,3.0,30242.0,192456.0,72607.0,189752.0,85852.0
2026-04-14 18:02:47.555147,702853,1609507261200479,4861170158,-1.09312,0.138592,-0.316224,-3.2375,2.8875,6.51875,17.616001,-22.592001,-23.096,concentric,8,3.0,30242.0,192456.0,72607.0,189752.0,85852.0
2026-04-14 18:02:47.564396,702854,1609507261209434,4861178871,-1.09312,0.138592,-0.316224,-5.55625,1.74125,5.74875,17.616001,-22.592001,-23.096,concentric,8,3.0,30242.0,192456.0,72607.0,189752.0,85852.0
2026-04-14 18:02:47.573958,702855,1609507261218443,4861187548,-1.09312,0.138592,-0.316224,-4.165,1.37375,5.24125,17.616001,-22.592001,-23.096,concentric,8,3.0,30242.0,192456.0,72607.0,189752.0,85852.0
2026-04-14 18:02:47.586815,702856,1609507261232954,4861202509,-1.042368,0.13664,-0.25376,-1.60125,1.79375,5.1625,17.624,-22.376001,-23.928001,concentric,8,3.0,30242.0,192456.0,72607.0,189752.0,85852.0
2026-04-14 18:02:47.596953,702857,1609507261241886,4861211217,-1.056032,0.203008,-0.064416,-0.49875,2.51125,5.34625,16.76,-22.240002,-21.088001,concentric,8,3.0,30242.0,192456.0,72607.0,189752.0,85852.0
2026-04-14 18:02:47.610577,702858,1609507261256539,4861226316,-1.056032,0.203008,-0.064416,-1.74125,2.45875,5.775,16.76,-22.240002,-21.088001,concentric,8,3.0,30242.0,192456.0,72607.0,189752.0,85852.0
2026-04-14 18:02:47.639035,702869,1609507261265606,4861235311,-1.100928,0.121024,-0.306464,-2.835,2.17875,6.1075,17.096,-22.824001,-21.472,concentric,8,3.0,30206.0,193020.0,72487.0,190101.0,85817.0
2026-04-14 18:02:47.641512,702870,1609507261280305,4861250297,-1.098976,0.181536,-0.132736,-2.3975,3.14125,6.965,17.096,-22.216002,-23.080002,concentric,8,3.0,30206.0,193020.0,72487.0,190101.0,85817.0
2026-04-14 18:02:47.643993,702871,1609507261289400,4861258989,-1.098976,0.181536,-0.132736,0.95375,4.71625,7.7875,16.376001,-22.216002,-23.080002,concentric,8,3.0,30206.0,193020.0,72487.0,190101.0,85817.0
2026-04-14 18:02:47.652821,702872,1609507261298479,4861267764,-1.098976,0.181536,-0.132736,4.2525,6.39625,8.155,16.376001,-22.216002,-23.080002,concentric,8,3.0,30206.0,193020.0,72487.0,190101.0,85817.0
2026-04-14 18:02:47.666426,702873,1609507261313013,4861282802,-1.100928,0.230336,-0.17568,4.50625,8.0325,8.61,16.392,-22.552002,-20.392,concentric,8,3.0,30206.0,193020.0,72487.0,190101.0,85817.0
2026-04-14 18:02:47.679625,702874,1609507261321936,4861291541,-1.0248,0.122976,-0.206912,1.21625,8.645,8.77625,17.008001,-22.784,-21.048,concentric,8,3.0,30206.0,193020.0,72487.0,190101.0,85817.0
2026-04-14 18:02:47.691324,702875,1609507261336612,4861306547,-1.0248,0.122976,-0.206912,-1.14625,8.9775,8.925,17.008001,-22.784,-21.048,concentric,8,3.0,30206.0,193020.0,72487.0,190101.0,85817.0
2026-04-14 18:02:47.701501,702876,1609507261345584,4861315263,-1.0248,0.1464,-0.232288,-0.14,9.765,9.00375,16.552,-22.904001,-22.6,concentric,8,3.0,30206.0,193020.0,72487.0,190101.0,85817.0
2026-04-14 18:02:47.730382,702877,1609507261354513,4861323998,-1.0248,0.1464,-0.232288,2.52,10.6925,9.5725,16.552,-22.904001,-22.6,concentric,8,3.0,30206.0,193020.0,72487.0,190101.0,85817.0
2026-04-14 18:02:47.805356,702888,1609507261369108,4861339101,-1.085312,0.16592,-0.33184,3.3425,11.12125,10.22,15.68,-22.304,-20.384,concentric,8,3.0,30193.0,193792.0,72383.0,190716.0,85709.0
2026-04-14 18:02:47.807681,702889,1609507261378054,4861347777,-1.085312,0.16592,-0.33184,2.65125,10.85,10.21125,15.68,-22.304,-20.384,concentric,8,3.0,30193.0,193792.0,72383.0,190716.0,85709.0
2026-04-14 18:02:47.810425,702890,1609507261392555,4861362738,-1.13216,0.208864,-0.247904,1.33875,10.5525,10.08,14.56,-22.216002,-20.504002,concentric,8,3.0,30193.0,193792.0,72383.0,190716.0,85709.0
2026-04-14 18:02:47.812864,702891,1609507261401611,4861371419,-1.120448,0.206912,-0.20496,1.93375,10.0975,10.43,14.352,-22.376001,-20.960001,concentric,8,3.0,30193.0,193792.0,72383.0,190716.0,85709.0
2026-04-14 18:02:47.815426,702892,1609507261416177,4861386467,-1.120448,0.206912,-0.20496,3.465,11.38375,10.5175,14.352,-22.376001,-20.960001,concentric,8,3.0,30193.0,193792.0,72383.0,190716.0,85709.0
2026-04-14 18:02:47.817730,702893,1609507261425124,4861395147,-1.089216,0.201056,-0.26352,4.68125,12.915,11.38375,14.456,-22.808,-22.04,concentric,8,3.0,30193.0,193792.0,72383.0,190716.0,85709.0
2026-04-14 18:02:47.820395,702894,1609507261434053,4861403815,-1.089216,0.201056,-0.26352,5.45125,13.6325,12.22375,14.456,-22.808,-22.04,concentric,8,3.0,30193.0,193792.0,72383.0,190716.0,85709.0
2026-04-14 18:02:47.822849,702895,1609507261448579,4861418810,-1.065792,0.244,-0.101504,4.66375,13.86,13.16875,14.536,-22.616001,-22.488,concentric,8,3.0,30193.0,193792.0,72383.0,190716.0,85709.0
2026-04-14 18:02:47.825414,702896,1609507261457545,4861427547,-1.065792,0.244,-0.101504,2.33625,14.88375,13.74625,14.536,-22.616001,-22.488,concentric,8,3.0,30193.0,193792.0,72383.0,190716.0,85709.0
2026-04-14 18:02:47.852892,702907,1609507261472171,4861442538,-1.013088,0.187392,-0.091744,1.4875,15.9075,14.8925,14.240001,-22.752,-21.704,concentric,8,3.0,31045.0,199575.0,73651.0,195517.0,87259.0
2026-04-14 18:02:47.855431,702908,1609507261481221,4861451280,-1.013088,0.220576,-0.06832,3.77125,18.05125,16.33625,14.240001,-22.752,-21.704,concentric,8,3.0,31045.0,199575.0,73651.0,195517.0,87259.0
2026-04-14 18:02:47.857728,702909,1609507261490251,4861460148,-1.009184,0.220576,-0.06832,8.07625,21.0175,17.955,14.128,-22.960001,-21.712002,concentric,8,3.0,31045.0,199575.0,73651.0,195517.0,87259.0
2026-04-14 18:02:47.860748,702910,1609507261504839,4861475111,-1.079456,0.31232,-0.197152,8.81125,23.00375,18.97,13.456,-23.528002,-23.752,concentric,8,3.0,31045.0,199575.0,73651.0,195517.0,87259.0
2026-04-14 18:02:47.871522,702911,1609507261513796,4861483816,-1.079456,0.31232,-0.197152,7.16625,23.09125,20.34375,13.456,-23.528002,-23.752,concentric,8,3.0,31045.0,199575.0,73651.0,195517.0,87259.0
2026-04-14 18:02:47.882481,702912,1609507261528322,4861496683,-1.075552,0.31232,-0.220576,5.64375,22.1025,21.04375,13.472001,-23.176,-22.656,concentric,8,3.0,31045.0,199575.0,73651.0,195517.0,87259.0
2026-04-14 18:02:47.893010,702913,1609507261537526,4861507565,-1.075552,0.31232,-0.220576,4.305,20.93875,21.79625,13.472001,-23.176,-22.656,concentric,8,3.0,31045.0,199575.0,73651.0,195517.0,87259.0
2026-04-14 18:02:47.904333,702914,1609507261552059,4861520449,-1.030656,0.244,-0.27328,5.53875,20.116251,23.94,13.536,-23.896002,-22.856,concentric,8,3.0,31045.0,199575.0,73651.0,195517.0,87259.0
2026-04-14 18:02:47.940322,702925,1609507261561288,4861531224,-1.030656,0.244,-0.27328,6.97375,19.1625,27.44875,13.536,-23.896002,-22.856,concentric,8,3.0,33273.0,211203.0,77183.0,205419.0,91343.0
2026-04-14 18:02:47.943193,702926,1609507261570490,4861540039,-1.071648,0.212768,-0.150304,8.05,19.60875,31.87625,13.264001,-23.848001,-23.992,concentric,8,3.0,33273.0,211203.0,77183.0,205419.0,91343.0
2026-04-14 18:02:47.945749,702927,1609507261585062,4861554957,-1.020896,0.316224,-0.238144,8.84625,21.105,36.21625,13.144001,-23.76,-23.816002,concentric,8,3.0,33273.0,211203.0,77183.0,205419.0,91343.0
2026-04-14 18:02:47.948222,702928,1609507261594019,4861563666,-1.020896,0.316224,-0.238144,12.46,24.710001,39.87375,13.144001,-23.76,-23.816002,concentric,8,3.0,33273.0,211203.0,77183.0,205419.0,91343.0
2026-04-14 18:02:47.964441,702929,1609507261608476,4861578555,-1.003328,0.415776,-0.251808,12.8975,28.39375,41.2475,11.8,-24.424002,-24.256,concentric,8,3.0,33273.0,211203.0,77183.0,205419.0,91343.0
2026-04-14 18:02:47.971457,702930,1609507261617492,4861587281,-1.003328,0.415776,-0.251808,6.475,29.2425,40.52125,11.8,-24.424002,-24.256,concentric,8,3.0,33273.0,211203.0,77183.0,205419.0,91343.0
2026-04-14 18:02:47.980027,702931,1609507261626431,4861595964,-1.018944,0.366976,-0.251808,-0.35875,29.2425,40.285,11.368001,-24.464,-24.352001,concentric,8,3.0,33273.0,211203.0,77183.0,205419.0,91343.0
2026-04-14 18:02:47.996487,702932,1609507261640939,4861610849,-1.018944,0.366976,-0.251808,-3.885,30.380001,39.8125,11.368001,-24.464,-24.352001,concentric,8,3.0,33273.0,211203.0,77183.0,205419.0,91343.0
2026-04-14 18:02:48.005632,702933,1609507261649963,4861619536,-1.030656,0.394304,-0.158112,-4.41,32.17375,40.36375,10.56,-24.432001,-24.544,concentric,8,3.0,33273.0,211203.0,77183.0,205419.0,91343.0
2026-04-14 18:02:48.041826,702944,1609507261665016,4861634529,-1.040416,0.406016,-0.41968,-2.00375,33.74875,42.1925,9.376,-24.568,-22.640001,concentric,8,3.0,35555.0,220535.0,80793.0,213132.0,95250.0
2026-04-14 18:02:48.043941,702945,1609507261674127,4861643294,-1.040416,0.406016,-0.41968,-1.63625,33.83625,42.525,9.376,-24.568,-22.640001,concentric,8,3.0,35555.0,220535.0,80793.0,213132.0,95250.0
2026-04-14 18:02:48.046946,702946,1609507261683096,4861652015,-1.079456,0.493856,-0.327936,-4.90875,32.26125,43.05,8.592,-24.792002,-26.152,concentric,8,3.0,35555.0,220535.0,80793.0,213132.0,95250.0
2026-04-14 18:02:48.051950,702947,1609507261697608,4861666932,-1.079456,0.493856,-0.327936,-6.86,30.09125,42.81375,8.592,-24.792002,-26.152,concentric,8,3.0,35555.0,220535.0,80793.0,213132.0,95250.0
2026-04-14 18:02:48.061920,702948,1609507261706570,4861675658,-0.942816,0.464576,-0.191296,-10.9725,27.62375,41.64125,8.776,-25.264002,-24.568,concentric,8,3.0,35555.0,220535.0,80793.0,213132.0,95250.0
2026-04-14 18:02:48.098129,702949,1609507261721126,4861690526,-0.942816,0.464576,-0.191296,-13.86875,26.36375,42.83125,8.776,-25.264002,-24.568,concentric,8,3.0,35555.0,220535.0,80793.0,213132.0,95250.0
2026-04-14 18:02:48.120758,702950,1609507261730061,4861699227,-0.93696,0.388448,-0.228384,-14.323751,25.59375,44.44125,7.592001,-25.368002,-24.696001,concentric,8,3.0,35555.0,220535.0,80793.0,213132.0,95250.0
2026-04-14 18:02:48.123194,702951,1609507261738978,4861707896,-0.93696,0.388448,-0.228384,-13.1425,24.22875,47.13625,7.592001,-25.368002,-24.696001,concentric,8,3.0,35555.0,220535.0,80793.0,213132.0,95250.0
2026-04-14 18:02:48.125529,702952,1609507261753566,4861722784,-0.972096,0.482144,-0.284992,-6.475,22.54,50.42625,6.152,-25.672,-22.808,concentric,8,3.0,35555.0,220535.0,80793.0,213132.0,95250.0
2026-04-14 18:02:48.155750,702963,1609507261762539,4861731842,-0.972096,0.482144,-0.284992,-0.21875,20.04625,51.9575,6.152,-25.672,-22.808,concentric,8,3.0,37649.0,224235.0,83683.0,216574.0,98583.0
2026-04-14 18:02:48.156307,702964,1609507261777128,4861746800,-0.970144,0.568032,-0.238144,-1.61875,16.45875,52.745,4.664,-25.720001,-22.080002,concentric,8,3.0,37649.0,224235.0,83683.0,216574.0,98583.0
2026-04-14 18:02:48.157600,702965,1609507261786185,4861755532,-0.91744,0.49776,-0.197152,-6.4225,14.42875,52.22,3.712,-25.488,-22.304,concentric,8,3.0,37649.0,224235.0,83683.0,216574.0,98583.0
2026-04-14 18:02:48.162724,702966,1609507261800738,4861770472,-0.91744,0.49776,-0.197152,-11.8125,15.70625,48.34375,3.712,-25.488,-22.304,concentric,8,3.0,37649.0,224235.0,83683.0,216574.0,98583.0
2026-04-14 18:02:48.165556,702967,1609507261809701,4861779210,-0.944768,0.493856,-0.392352,-16.8525,19.01375,47.5825,2.824,-26.864002,-23.528002,concentric,8,3.0,37649.0,224235.0,83683.0,216574.0,98583.0
2026-04-14 18:02:48.172557,702968,1609507261818687,4861787930,-0.944768,0.493856,-0.392352,-17.9375,22.44375,47.18875,2.824,-26.864002,-23.528002,concentric,8,3.0,37649.0,224235.0,83683.0,216574.0,98583.0
2026-04-14 18:02:48.190348,702969,1609507261833205,4861802852,-1.003328,0.515328,-0.359168,-18.97875,24.50875,45.71875,3.744,-27.080002,-24.088001,concentric,8,3.0,37649.0,224235.0,83683.0,216574.0,98583.0
2026-04-14 18:02:48.196817,702970,1609507261842280,4861811590,-1.003328,0.515328,-0.359168,-23.16125,25.235,45.85,3.744,-27.080002,-24.088001,concentric,8,3.0,37649.0,224235.0,83683.0,216574.0,98583.0
2026-04-14 18:02:48.213210,702971,1609507261856755,4861826540,-1.013088,0.474336,-0.249856,-23.59,26.005,47.845,1.944,-27.28,-23.016,concentric,8,3.0,37649.0,224235.0,83683.0,216574.0,98583.0
2026-04-14 18:02:48.241536,702982,1609507261866122,4861835348,-1.05408,0.470432,-0.486048,-16.94875,27.895,51.45,1.992,-27.584002,-23.320002,concentric,8,3.0,39694.0,226249.0,86803.0,218596.0,101885.0
2026-04-14 18:02:48.244497,702983,1609507261875127,4861844202,-1.05408,0.470432,-0.486048,-8.26,30.63375,55.81625,1.992,-27.584002,-23.320002,concentric,8,3.0,39694.0,226249.0,86803.0,218596.0,101885.0
2026-04-14 18:02:48.249466,702984,1609507261889674,4861859140,-0.935008,0.540704,-0.294752,-3.50875,32.095,59.263752,0.136,-27.192001,-22.640001,concentric,8,3.0,39694.0,226249.0,86803.0,218596.0,101885.0
2026-04-14 18:02:48.252608,702985,1609507261898634,4861867877,-0.935008,0.540704,-0.294752,-6.37,32.29625,60.29625,0.136,-27.192001,-22.640001,concentric,8,3.0,39694.0,226249.0,86803.0,218596.0,101885.0
2026-04-14 18:02:48.266803,702986,1609507261913251,4861882757,-0.938912,0.509472,-0.488,-10.3425,32.7425,60.24375,0.088,-27.920002,-23.624,concentric,8,3.0,39694.0,226249.0,86803.0,218596.0,101885.0
2026-04-14 18:02:48.276877,702987,1609507261922175,4861891449,-0.938912,0.509472,-0.488,-13.64125,34.16875,59.675,0.088,-27.920002,-23.624,concentric,8,3.0,39694.0,226249.0,86803.0,218596.0,101885.0
2026-04-14 18:02:48.291391,702988,1609507261936624,4861906370,-0.999424,0.528992,-0.519232,-15.25125,36.6975,59.9025,-1.056,-28.144001,-22.984001,concentric,8,3.0,39694.0,226249.0,86803.0,218596.0,101885.0
2026-04-14 18:02:48.299447,702989,1609507261945618,4861915126,-0.8784,0.5368,-0.345504,-14.07875,39.06875,62.2475,-2.824,-27.872002,-21.160002,concentric,8,3.0,39694.0,226249.0,86803.0,218596.0,101885.0
2026-04-14 18:02:48.307859,702990,1609507261954551,4861923822,-0.8784,0.5368,-0.345504,-12.6,41.4925,64.0675,-2.824,-27.872002,-21.160002,concentric,8,3.0,39694.0,226249.0,86803.0,218596.0,101885.0
2026-04-14 18:02:48.343272,703001,1609507261969348,4861939258,-0.876448,0.622688,-0.296704,-13.32625,42.84,65.135,-3.824,-28.256,-21.968,concentric,8,3.0,37862.0,221299.0,84120.0,214522.0,98988.0
2026-04-14 18:02:48.345263,703002,1609507261978307,4861948021,-0.876448,0.622688,-0.296704,-15.60125,43.68,65.38,-3.824,-28.256,-21.968,concentric,8,3.0,37862.0,221299.0,84120.0,214522.0,98988.0
2026-04-14 18:02:48.347696,703003,1609507261993060,4861962922,-0.84912,0.610976,-0.386496,-20.48375,43.67125,65.1175,-4.336,-28.544,-22.776001,concentric,8,3.0,37862.0,221299.0,84120.0,214522.0,98988.0
2026-04-14 18:02:48.356436,703004,1609507262002186,4861971634,-0.84912,0.610976,-0.386496,-24.15875,43.72375,65.77375,-4.336,-28.544,-22.776001,concentric,8,3.0,37862.0,221299.0,84120.0,214522.0,98988.0
2026-04-14 18:02:48.364289,703005,1609507262011235,4861980352,-0.86864,0.609024,-0.357216,-24.745,44.10875,66.38625,-5.472,-28.992,-22.616001,concentric,8,3.0,37862.0,221299.0,84120.0,214522.0,98988.0
2026-04-14 18:02:48.380686,703006,1609507262025773,4861995281,-0.806176,0.650016,-0.50752,-21.6825,46.03375,67.9525,-6.888001,-28.608002,-22.104002,concentric,8,3.0,37862.0,221299.0,84120.0,214522.0,98988.0
2026-04-14 18:02:48.391624,703007,1609507262034708,4862003994,-0.806176,0.650016,-0.50752,-19.985,47.46875,70.98875,-6.888001,-28.608002,-22.104002,concentric,8,3.0,37862.0,221299.0,84120.0,214522.0,98988.0
2026-04-14 18:02:48.426983,703008,1609507262049176,4862018921,-0.776896,0.640256,-0.57584,-24.045,46.59375,71.8725,-8.84,-28.672,-20.712002,concentric,8,3.0,37862.0,221299.0,84120.0,214522.0,98988.0
2026-04-14 18:02:48.429505,703009,1609507262058123,4862027544,-0.776896,0.640256,-0.57584,-29.82,45.89375,70.5075,-8.84,-28.672,-20.712002,concentric,8,3.0,37862.0,221299.0,84120.0,214522.0,98988.0
2026-04-14 18:02:48.509451,703020,1609507262072658,4862042512,-0.7808,0.607072,-0.571936,-33.6525,45.89375,69.2825,-10.208,-28.344002,-20.336,concentric,8,3.0,37429.0,216984.0,83303.0,210412.0,98088.0
2026-04-14 18:02:48.511528,703021,1609507262081637,4862051232,-0.7808,0.607072,-0.571936,-32.43625,48.2825,70.32375,-10.208,-28.344002,-20.336,concentric,8,3.0,37429.0,216984.0,83303.0,210412.0,98088.0
2026-04-14 18:02:48.514441,703022,1609507262090732,4862059981,-0.804224,0.733952,-0.554368,-29.225,51.765,71.67125,-11.312,-29.048002,-20.744001,concentric,8,3.0,37429.0,216984.0,83303.0,210412.0,98088.0
2026-04-14 18:02:48.516947,703023,1609507262105236,4862075098,-0.694912,0.714432,-0.474336,-31.911251,53.138752,72.16125,-11.312,-29.048002,-20.744001,concentric,8,3.0,37429.0,216984.0,83303.0,210412.0,98088.0
2026-04-14 18:02:48.519468,703024,1609507262114224,4862083792,-0.700768,0.714432,-0.474336,-40.1275,52.78,70.945,-11.6,-29.096,-21.824001,concentric,8,3.0,37429.0,216984.0,83303.0,210412.0,98088.0
2026-04-14 18:02:48.521921,703025,1609507262128708,4862098686,-0.718336,0.609024,-0.708576,-46.235,51.03875,72.2925,-12.72,-28.752,-19.464,concentric,8,3.0,37429.0,216984.0,83303.0,210412.0,98088.0
2026-04-14 18:02:48.524023,703026,1609507262137626,4862107300,-0.718336,0.609024,-0.708576,-44.86125,50.1725,73.21125,-12.72,-28.752,-19.464,concentric,8,3.0,37429.0,216984.0,83303.0,210412.0,98088.0
2026-04-14 18:02:48.526959,703027,1609507262146633,4862116034,-0.657824,0.743712,-0.472384,-35.455,50.79375,75.3025,-13.920001,-28.920002,-20.392,concentric,8,3.0,37429.0,216984.0,83303.0,210412.0,98088.0
2026-04-14 18:02:48.530935,703028,1609507262161174,4862130965,-0.657824,0.743712,-0.472384,-25.54125,53.06875,77.14,-13.920001,-28.920002,-20.392,concentric,8,3.0,37429.0,216984.0,83303.0,210412.0,98088.0
2026-04-14 18:02:48.558931,703039,1609507262170312,4862139726,-0.642208,0.83936,-0.37088,-30.45875,54.43375,75.45125,-15.200001,-28.624,-18.0,concentric,8,3.0,37879.0,208118.0,83960.0,202672.0,98945.0
2026-04-14 18:02:48.561867,703040,1609507262185061,4862154730,-0.642208,0.83936,-0.37088,-42.0875,54.215,74.68125,-15.200001,-28.624,-18.0,concentric,8,3.0,37879.0,208118.0,83960.0,202672.0,98945.0
2026-04-14 18:02:48.563909,703041,1609507262194180,4862163518,-0.573888,0.718336,-0.480192,-50.575,52.7975,74.38375,-16.76,-28.176,-18.576,concentric,8,3.0,37879.0,208118.0,83960.0,202672.0,98945.0
2026-04-14 18:02:48.566892,703042,1609507262203125,4862172223,-0.573888,0.718336,-0.480192,-47.845,53.50625,76.8075,-16.76,-28.176,-18.576,concentric,8,3.0,37879.0,208118.0,83960.0,202672.0,98945.0
2026-04-14 18:02:48.571910,703043,1609507262217603,4862187190,-0.61488,0.817888,-0.368928,-35.665,55.7375,80.255,-17.992,-28.472002,-16.872002,concentric,8,3.0,37879.0,208118.0,83960.0,202672.0,98945.0
2026-04-14 18:02:48.580745,703044,1609507262226544,4862195917,-0.552416,0.925248,-0.392352,-25.83875,57.70625,81.17375,-19.0,-27.944002,-16.128,concentric,8,3.0,37879.0,208118.0,83960.0,202672.0,98945.0
2026-04-14 18:02:48.595727,703045,1609507262241062,4862210814,-0.552416,0.925248,-0.392352,-30.03875,57.697502,78.3125,-19.0,-27.944002,-16.128,concentric,8,3.0,37879.0,208118.0,83960.0,202672.0,98945.0
2026-04-14 18:02:48.604455,703046,1609507262250057,4862219523,-0.5368,0.845216,-0.447008,-39.08625,56.9275,76.86,-20.248001,-27.624,-14.608001,concentric,8,3.0,37879.0,208118.0,83960.0,202672.0,98945.0
2026-04-14 18:02:48.642706,703057,1609507262264573,4862234536,-0.5368,0.845216,-0.447008,-44.23125,55.4225,76.71125,-20.248001,-27.624,-14.608001,concentric,8,3.0,52570.0,208651.0,103193.0,203045.0,119954.0
2026-04-14 18:02:48.645596,703058,1609507262273608,4862243243,-0.52704,0.788608,-0.661728,-41.15125,54.232502,78.6975,-22.240002,-27.088001,-13.112,concentric,8,3.0,52570.0,208651.0,103193.0,203045.0,119954.0
2026-04-14 18:02:48.648055,703059,1609507262282611,4862252000,-0.52704,0.788608,-0.661728,-29.9075,53.83,83.2475,-22.240002,-27.088001,-13.112,concentric,8,3.0,52570.0,208651.0,103193.0,203045.0,119954.0
2026-04-14 18:02:48.651655,703060,1609507262297132,4862266923,-0.404064,0.91744,-0.38064,-21.4375,52.6925,85.085,-23.248001,-26.872002,-14.456,concentric,8,3.0,52570.0,208651.0,103193.0,203045.0,119954.0
2026-04-14 18:02:48.661873,703061,1609507262306056,4862275619,-0.404064,0.91744,-0.349408,-23.30125,50.3125,83.93875,-23.248001,-26.872002,-14.456,concentric,8,3.0,52570.0,208651.0,103193.0,203045.0,119954.0
2026-04-14 18:02:48.674000,703062,1609507262320616,4862290560,-0.388448,0.989664,-0.359168,-30.75625,49.315,81.87375,-23.536001,-26.464,-13.384001,concentric,8,3.0,52570.0,208651.0,103193.0,203045.0,119954.0
2026-04-14 18:02:48.683964,703063,1609507262329565,4862299259,-0.382592,0.825696,-0.610976,-41.055,50.47875,80.10625,-25.264002,-25.656002,-11.080001,concentric,8,3.0,52570.0,208651.0,103193.0,203045.0,119954.0
2026-04-14 18:02:48.701665,703064,1609507262344086,4862314156,-0.382592,0.825696,-0.610976,-40.3025,53.61125,80.6575,-25.264002,-25.656002,-11.080001,concentric,8,3.0,52570.0,208651.0,103193.0,203045.0,119954.0
2026-04-14 18:02:48.707842,703065,1609507262353187,4862322886,-0.407968,0.894016,-0.601216,-30.45875,56.945,81.9525,-25.616001,-25.224,-11.992001,concentric,8,3.0,52570.0,208651.0,103193.0,203045.0,119954.0
2026-04-14 18:02:48.716555,703066,1609507262362252,4862331564,-0.407968,0.894016,-0.601216,-22.84625,60.3925,83.475,-25.616001,-25.224,-11.992001,concentric,8,3.0,52570.0,208651.0,103193.0,203045.0,119954.0
2026-04-14 18:02:48.745358,703077,1609507262376878,4862346616,-0.384544,1.061888,-0.460672,-23.065,60.69875,81.7425,-27.656002,-24.424002,-11.360001,concentric,8,3.0,86451.0,221850.0,142753.0,215260.0,164725.0
2026-04-14 18:02:48.747874,703078,1609507262385837,4862355350,-0.384544,1.061888,-0.460672,-32.78625,58.5375,79.485,-27.656002,-24.424002,-11.360001,concentric,8,3.0,86451.0,221850.0,142753.0,215260.0,164725.0
2026-04-14 18:02:48.755432,703079,1609507262400418,4862370421,-0.247904,0.942816,-0.456768,-43.015,56.62125,79.65125,-27.328001,-23.992,-10.776001,concentric,8,3.0,86451.0,221850.0,142753.0,215260.0,164725.0
2026-04-14 18:02:48.762869,703080,1609507262409395,4862379110,-0.320128,0.833504,-0.46848,-48.6675,51.8,80.6225,-28.488,-23.480001,-9.928,concentric,8,3.0,86451.0,221850.0,142753.0,215260.0,164725.0
2026-04-14 18:02:48.772901,703081,1609507262418340,4862387790,-0.320128,0.833504,-0.46848,-45.045002,49.7175,84.28875,-28.488,-23.480001,-9.928,concentric,8,3.0,86451.0,221850.0,142753.0,215260.0,164725.0
2026-04-14 18:02:48.788973,703082,1609507262432906,4862402725,-0.26352,0.95648,-0.538752,-32.50625,48.55375,90.37875,-29.064001,-22.560001,-8.696,concentric,8,3.0,86451.0,221850.0,142753.0,215260.0,164725.0
2026-04-14 18:02:48.801636,703083,1609507262441842,4862411417,-0.26352,0.95648,-0.538752,-27.06375,47.670002,88.71625,-29.064001,-22.560001,-8.696,concentric,8,3.0,86451.0,221850.0,142753.0,215260.0,164725.0
2026-04-14 18:02:48.832767,703084,1609507262456424,4862426410,-0.17568,1.057984,-0.236192,-28.37625,48.02875,87.395,-30.152002,-20.992,-7.12,concentric,8,3.0,86451.0,221850.0,142753.0,215260.0,164725.0
2026-04-14 18:02:48.835374,703085,1609507262465345,4862435108,-0.17568,1.057984,-0.236192,-34.50125,48.15125,86.79125,-30.152002,-20.992,-7.12,concentric,8,3.0,86451.0,221850.0,142753.0,215260.0,164725.0
2026-04-14 18:02:48.916924,703096,1609507262479868,4862450090,-0.171776,0.974048,-0.376736,-41.6675,46.7775,86.96625,-31.912,-20.936,-6.144,concentric,8,3.0,105759.0,232494.0,164387.0,224267.0,187134.0
2026-04-14 18:02:48.920474,703097,1609507262488807,4862458893,-0.1952,0.91744,-0.406016,-42.88375,46.62,89.38125,-32.808002,-19.744001,-5.784,concentric,8,3.0,105759.0,232494.0,164387.0,224267.0,187134.0
2026-04-14 18:02:48.922136,703098,1609507262497740,4862467567,-0.1952,0.91744,-0.406016,-38.64875,47.1275,90.51875,-32.808002,-19.744001,-5.784,concentric,8,3.0,105759.0,232494.0,164387.0,224267.0,187134.0
2026-04-14 18:02:48.922263,703099,1609507262512257,4862482468,-0.076128,1.018944,-0.226432,-27.16,51.91375,90.92125,-33.296,-18.888,-5.048,concentric,8,3.0,105759.0,232494.0,164387.0,224267.0,187134.0
2026-04-14 18:02:48.922338,703100,1609507262521176,4862491164,-0.076128,1.018944,-0.226432,-16.975,54.285,88.41,-33.296,-18.888,-5.048,concentric,8,3.0,105759.0,232494.0,164387.0,224267.0,187134.0
2026-04-14 18:02:48.922607,703101,1609507262535674,4862504034,-0.00976,1.067744,-0.368928,-18.7075,51.47625,85.28625,-33.760002,-17.304,-3.296,concentric,8,3.0,105759.0,232494.0,164387.0,224267.0,187134.0
2026-04-14 18:02:48.925688,703102,1609507262545094,4862514818,-0.00976,1.067744,-0.368928,-31.36875,48.23875,85.16375,-33.760002,-17.304,-3.296,concentric,8,3.0,105759.0,232494.0,164387.0,224267.0,187134.0
2026-04-14 18:02:48.928142,703103,1609507262554207,4862523534,0.021472,0.899872,-0.206912,-39.8125,47.71375,86.24875,-35.056004,-16.696001,-2.352,concentric,8,3.0,105759.0,232494.0,164387.0,224267.0,187134.0
2026-04-14 18:02:48.955750,703114,1609507262569256,4862538624,-0.07808,0.935008,-0.4392,-37.52875,50.60125,87.3075,-35.744003,-15.880001,-2.904,concentric,8,3.0,111170.0,232557.0,170111.0,224230.0,192273.0
2026-04-14 18:02:48.957825,703115,1609507262578229,4862547403,-0.07808,0.935008,-0.4392,-26.880001,55.58875,88.06875,-35.744003,-15.880001,-2.904,concentric,8,3.0,111170.0,232557.0,170111.0,224230.0,192273.0
2026-04-14 18:02:48.960716,703116,1609507262592833,4862562364,-0.0488,1.075552,-0.347456,-15.44375,58.31,88.0075,-36.056004,-15.160001,-2.432,concentric,8,3.0,111170.0,232557.0,170111.0,224230.0,192273.0
2026-04-14 18:02:48.962766,703117,1609507262601846,4862571067,-0.0488,1.075552,-0.347456,-11.655,54.5825,88.48,-36.056004,-15.160001,-2.432,concentric,8,3.0,111170.0,232557.0,170111.0,224230.0,192273.0
2026-04-14 18:02:48.965745,703118,1609507262610814,4862579769,0.132736,0.954528,-0.158112,-16.89625,50.015,88.85625,-35.784,-14.400001,-1.568,concentric,8,3.0,111170.0,232557.0,170111.0,224230.0,192273.0
2026-04-14 18:02:48.980749,703119,1609507262625371,4862594659,0.132736,0.954528,-0.158112,-26.39,43.295002,87.87625,-35.784,-14.400001,-1.568,concentric,8,3.0,111170.0,232557.0,170111.0,224230.0,192273.0
2026-04-14 18:02:48.988203,703120,1609507262634433,4862603429,0.171776,0.81984,-0.30256,-30.31875,41.06375,89.73125,-35.4,-12.896001,-0.856,concentric,8,3.0,111170.0,232557.0,170111.0,224230.0,192273.0
2026-04-14 18:02:49.003362,703121,1609507262648893,4862618344,0.132736,0.970144,-0.199104,-20.79875,46.10375,90.405,-35.4,-10.848001,-0.984,concentric,8,3.0,111170.0,232557.0,170111.0,224230.0,192273.0
2026-04-14 18:02:49.018911,703122,1609507262657825,4862627125,0.132736,0.970144,-0.199104,-12.18875,51.19625,88.8825,-35.640003,-11.768001,-0.984,concentric,8,3.0,111170.0,232557.0,170111.0,224230.0,192273.0
2026-04-14 18:02:49.071503,703133,1609507262672464,4862642079,0.212768,0.950624,-0.187392,-9.17,54.915,89.15375,-36.704002,-11.008,-0.8,concentric,8,3.0,113592.0,232804.0,172878.0,224286.0,194562.0
2026-04-14 18:02:49.073778,703134,1609507262681543,4862650878,0.212768,0.950624,-0.187392,-10.40375,54.915,88.8125,-36.704002,-11.008,-0.8,concentric,8,3.0,113592.0,232804.0,172878.0,224286.0,194562.0
2026-04-14 18:02:49.076462,703135,1609507262690510,4862659630,0.169824,0.86864,-0.298656,-14.88375,53.26125,87.22,-37.048,-9.312,0.92,concentric,8,3.0,113592.0,232804.0,172878.0,224286.0,194562.0
2026-04-14 18:02:49.078992,703136,1609507262705005,4862674503,0.169824,0.86864,-0.298656,-17.96375,51.8525,86.415,-37.048,-9.312,0.92,concentric,8,3.0,113592.0,232804.0,172878.0,224286.0,194562.0
2026-04-14 18:02:49.081469,703137,1609507262713952,4862683208,0.230336,0.85888,-0.28304,-14.56,51.835,86.12625,-37.312,-8.336,2.248,concentric,8,3.0,113592.0,232804.0,172878.0,224286.0,194562.0
2026-04-14 18:02:49.083810,703138,1609507262728562,4862698187,0.230336,0.85888,-0.28304,-10.59625,52.68375,85.435,-37.312,-8.336,2.248,concentric,8,3.0,113592.0,232804.0,172878.0,224286.0,194562.0
2026-04-14 18:02:49.091397,703139,1609507262737511,4862706901,0.187392,0.93696,-0.368928,-11.52375,55.58875,86.205,-37.528,-6.952,2.176,concentric,8,3.0,113592.0,232804.0,172878.0,224286.0,194562.0
2026-04-14 18:02:49.106545,703140,1609507262752027,4862721800,0.27328,0.886208,-0.081984,-12.74,55.97375,86.77375,-37.352,-6.224001,2.416,concentric,8,3.0,113592.0,232804.0,172878.0,224286.0,194562.0
2026-04-14 18:02:49.115334,703141,1609507262760959,4862730492,0.27328,0.886208,-0.081984,-16.0475,54.670002,86.12625,-37.352,-6.224001,2.416,concentric,8,3.0,113592.0,232804.0,172878.0,224286.0,194562.0
2026-04-14 18:02:49.146627,703152,1609507262770329,4862739687,0.304512,0.776896,-0.208864,-20.4575,50.44375,85.8025,-35.304,-5.416,3.064,concentric,8,3.0,112955.0,226157.0,171491.0,217754.0,192391.0
2026-04-14 18:02:49.149029,703153,1609507262785006,4862754695,0.304512,0.776896,-0.208864,-18.73375,47.2675,86.9225,-36.816,-5.416,3.064,concentric,8,3.0,112955.0,226157.0,171491.0,217754.0,192391.0
2026-04-14 18:02:49.151636,703154,1609507262794075,4862763483,0.413824,0.794464,-0.25376,-12.34625,48.2475,86.77375,-37.440002,-4.232,4.48,concentric,8,3.0,112955.0,226157.0,171491.0,217754.0,192391.0
2026-04-14 18:02:49.158204,703155,1609507262803154,4862772201,0.413824,0.794464,-0.25376,-9.1525,50.21625,84.07,-37.440002,-4.232,4.48,eccentric,8,3.0,112955.0,226157.0,171491.0,217754.0,192391.0
2026-04-14 18:02:49.172647,703156,1609507262817646,4862787084,0.435296,0.833504,-0.093696,-12.15375,51.625,82.6175,-37.104,-3.04,5.416,eccentric,8,3.0,112955.0,226157.0,171491.0,217754.0,192391.0
2026-04-14 18:02:49.199024,703157,1609507262826604,4862795761,0.435296,0.833504,-0.093696,-15.4525,51.485,81.9175,-37.104,-3.04,5.416,eccentric,8,3.0,112955.0,226157.0,171491.0,217754.0,192391.0
2026-04-14 18:02:49.201470,703158,1609507262841116,4862810734,0.404064,0.710528,-0.144448,-15.42625,51.3275,79.485,-36.216003,-2.144,5.872,eccentric,8,3.0,112955.0,226157.0,171491.0,217754.0,192391.0
2026-04-14 18:02:49.203980,703159,1609507262850030,4862819401,0.513376,0.743712,-0.1464,-15.12,48.685,78.37375,-36.216003,-2.144,5.872,eccentric,8,3.0,112955.0,226157.0,171491.0,217754.0,192391.0
2026-04-14 18:02:49.229087,703160,1609507262864547,4862834334,0.501664,0.743712,-0.1464,-6.65,51.826252,75.88875,-37.016003,-1.224,5.288,eccentric,8,3.0,112955.0,226157.0,171491.0,217754.0,192391.0
2026-04-14 18:02:49.266627,703171,1609507262873574,4862843098,0.413824,0.804224,-0.267424,-5.55625,50.96875,70.183754,-36.048,-0.616,5.936,eccentric,8,3.0,111905.0,222417.0,169345.0,213831.0,188782.0
2026-04-14 18:02:49.269140,703172,1609507262882539,4862851816,0.413824,0.804224,-0.267424,-12.60875,48.7375,67.6375,-36.048,-0.616,5.936,eccentric,8,3.0,111905.0,222417.0,169345.0,213831.0,188782.0
2026-04-14 18:02:49.271605,703173,1609507262897027,4862866766,0.52704,0.659776,0.021472,-20.23875,46.22625,67.83,-35.456,0.288,6.432,eccentric,8,3.0,111905.0,222417.0,169345.0,213831.0,188782.0
2026-04-14 18:02:49.273991,703174,1609507262905995,4862875460,0.52704,0.659776,0.021472,-22.51375,45.66625,66.955,-35.456,0.288,6.432,eccentric,8,3.0,111905.0,222417.0,169345.0,213831.0,188782.0
2026-04-14 18:02:49.277652,703175,1609507262920579,4862890437,0.5368,0.646112,-0.119072,-16.2925,44.49375,65.03,-35.280003,0.936,7.472,eccentric,8,3.0,111905.0,222417.0,169345.0,213831.0,188782.0
2026-04-14 18:02:49.284458,703176,1609507262929511,4862899152,0.5368,0.646112,-0.119072,-12.145,47.15375,60.2,-35.280003,0.936,7.472,eccentric,8,3.0,111905.0,222417.0,169345.0,213831.0,188782.0
2026-04-14 18:02:49.301737,703177,1609507262944081,4862914033,0.538752,0.685152,-0.138592,-9.12625,48.65875,52.9375,-35.192,1.464,7.984,eccentric,8,3.0,111905.0,222417.0,169345.0,213831.0,188782.0
2026-04-14 18:02:49.306495,703178,1609507262953035,4862922760,0.57584,0.642208,-0.154208,-12.66125,44.94,48.545002,-35.480003,2.536,7.8,eccentric,8,3.0,111905.0,222417.0,169345.0,213831.0,188782.0
2026-04-14 18:02:49.315355,703179,1609507262962095,4862931437,0.57584,0.642208,-0.154208,-21.945,42.98875,48.69375,-35.480003,2.536,7.8,eccentric,8,3.0,111905.0,222417.0,169345.0,213831.0,188782.0
2026-04-14 18:02:49.350430,703190,1609507262976670,4862946526,0.59536,0.523136,0.12688,-23.17,42.58625,47.1975,-34.24,3.112,8.728001,eccentric,8,3.0,110596.0,218580.0,167335.0,209659.0,185849.0
2026-04-14 18:02:49.352877,703191,1609507262985728,4862955278,0.59536,0.523136,0.12688,-17.5875,45.05375,40.888752,-34.24,3.112,8.728001,eccentric,8,3.0,110596.0,218580.0,167335.0,209659.0,185849.0
2026-04-14 18:02:49.355316,703192,1609507263000345,4862970169,0.486048,0.616832,0.085888,-5.20625,46.76,34.72875,-34.776,3.808,10.488001,eccentric,8,3.0,110596.0,218580.0,167335.0,209659.0,185849.0
2026-04-14 18:02:49.362839,703193,1609507263009319,4862978899,0.486048,0.616832,0.085888,9.695,40.6,29.14625,-34.776,3.808,10.488001,eccentric,8,3.0,110596.0,218580.0,167335.0,209659.0,185849.0
2026-04-14 18:02:49.374023,703194,1609507263018273,4862987591,0.573888,0.659776,-0.050752,15.96875,33.285,24.885,-33.936,3.528,10.304001,eccentric,8,3.0,110596.0,218580.0,167335.0,209659.0,185849.0
2026-04-14 18:02:49.387829,703195,1609507263032863,4863002628,0.632448,0.591456,-0.154208,13.5625,25.64625,23.68625,-33.920002,3.776,9.328,eccentric,8,3.0,110596.0,218580.0,167335.0,209659.0,185849.0
2026-04-14 18:02:49.395390,703196,1609507263041852,4863011307,0.632448,0.591456,-0.154208,-1.085,19.460001,24.1675,-33.920002,3.776,9.328,eccentric,8,3.0,110596.0,218580.0,167335.0,209659.0,185849.0
2026-04-14 18:02:49.410716,703197,1609507263056380,4863026191,0.534848,0.562176,0.050752,-10.167501,23.45875,21.63,-33.528,4.208,9.784,eccentric,8,3.0,110596.0,218580.0,167335.0,209659.0,185849.0
2026-04-14 18:02:49.421959,703198,1609507263065344,4863034884,0.534848,0.562176,0.050752,-4.57625,30.161251,15.02375,-33.528,4.208,9.784,eccentric,8,3.0,110596.0,218580.0,167335.0,209659.0,185849.0
2026-04-14 18:02:49.451781,703209,1609507263080004,4863049870,0.523136,0.636352,0.197152,7.49875,32.0425,10.56125,-33.328003,4.072,10.392,eccentric,8,3.0,111050.0,219398.0,167798.0,210526.0,186338.0
2026-04-14 18:02:49.454459,703210,1609507263089027,4863058681,0.523136,0.636352,0.197152,13.86,23.87,6.615,-33.328003,4.072,10.392,eccentric,8,3.0,111050.0,219398.0,167798.0,210526.0,186338.0
2026-04-14 18:02:49.456995,703211,1609507263097980,4863067376,0.581696,0.667584,0.103456,13.13375,10.80625,4.47125,-34.488003,4.368,11.248,eccentric,8,3.0,111050.0,219398.0,167798.0,210526.0,186338.0
2026-04-14 18:02:49.467009,703212,1609507263112528,4863082499,0.716384,0.607072,0.0488,7.98,0.91,1.855,-33.184002,4.36,11.352,eccentric,8,3.0,111050.0,219398.0,167798.0,210526.0,186338.0
2026-04-14 18:02:49.476909,703213,1609507263121553,4863091182,0.716384,0.607072,0.0488,-1.9425,-3.47375,2.1525,-33.184002,4.36,11.352,eccentric,8,3.0,111050.0,219398.0,167798.0,210526.0,186338.0
2026-04-14 18:02:49.490314,703214,1609507263136172,4863106067,0.560224,0.61488,-0.054656,-11.8475,-0.5775,2.485,-34.096,4.784,10.496,eccentric,8,3.0,111050.0,219398.0,167798.0,210526.0,186338.0
2026-04-14 18:02:49.500738,703215,1609507263145132,4863114766,0.560224,0.61488,-0.054656,-10.70125,0.53375,-3.1675,-34.096,4.784,10.496,eccentric,8,3.0,111050.0,219398.0,167798.0,210526.0,186338.0
2026-04-14 18:02:49.507808,703216,1609507263154097,4863123488,0.569984,0.597312,-0.037088,-5.45125,-4.69,-9.1525,-34.168003,4.064,10.120001,eccentric,8,3.0,111050.0,219398.0,167798.0,210526.0,186338.0
2026-04-14 18:02:49.523202,703217,1609507263168609,4863138407,0.569984,0.597312,-0.037088,-1.60125,-11.7775,-9.5375,-34.168003,4.064,10.120001,eccentric,8,3.0,111050.0,219398.0,167798.0,210526.0,186338.0
2026-04-14 18:02:49.603078,703228,1609507263177719,4863147128,0.5856,0.610976,-0.121024,5.29375,-16.73,-10.50875,-33.592003,3.784,9.976001,eccentric,8,3.0,112365.0,221835.0,169535.0,212652.0,187616.0
2026-04-14 18:02:49.605536,703229,1609507263192265,4863162065,0.569984,0.671488,-0.189344,10.2375,-17.85,-17.3425,-33.592003,3.784,9.976001,eccentric,8,3.0,112365.0,221835.0,169535.0,212652.0,187616.0
2026-04-14 18:02:49.607736,703230,1609507263201176,4863170736,0.57584,0.671488,-0.189344,10.21125,-17.535,-19.3375,-33.816,3.792,8.856,eccentric,8,3.0,112365.0,221835.0,169535.0,212652.0,187616.0
2026-04-14 18:02:49.610326,703231,1609507263215702,4863185650,0.66368,0.648064,0.08784,10.45625,-19.01375,-16.4675,-33.352,3.728,10.712001,eccentric,8,3.0,112365.0,221835.0,169535.0,212652.0,187616.0
2026-04-14 18:02:49.613114,703232,1609507263224651,4863194342,0.66368,0.648064,0.08784,10.64,-19.18875,-18.57625,-33.352,3.728,10.712001,eccentric,8,3.0,112365.0,221835.0,169535.0,212652.0,187616.0
2026-04-14 18:02:49.615583,703233,1609507263233600,4863203046,0.548512,0.612928,-0.15616,8.02375,-22.63625,-22.522501,-35.152,3.672,8.288,eccentric,8,3.0,112365.0,221835.0,169535.0,212652.0,187616.0
2026-04-14 18:02:49.618138,703234,1609507263248154,4863217945,0.548512,0.612928,-0.15616,12.11,-25.97,-22.23375,-35.152,3.672,8.288,eccentric,8,3.0,112365.0,221835.0,169535.0,212652.0,187616.0
2026-04-14 18:02:49.620695,703235,1609507263257140,4863226672,0.657824,0.59536,0.011712,13.877501,-27.65875,-26.45125,-35.408,2.904,10.344001,eccentric,8,3.0,112365.0,221835.0,169535.0,212652.0,187616.0
2026-04-14 18:02:49.652778,703246,1609507263272030,4863241702,0.657824,0.59536,0.011712,17.185,-31.4825,-31.00125,-35.408,2.904,10.344001,eccentric,8,3.0,117880.0,231307.0,177208.0,221872.0,195517.0
2026-04-14 18:02:49.654334,703247,1609507263281088,4863250513,0.659776,0.667584,0.0976,18.08625,-35.9275,-32.9875,-35.576,2.352,10.624001,eccentric,8,3.0,117880.0,231307.0,177208.0,221872.0,195517.0
2026-04-14 18:02:49.657011,703248,1609507263290044,4863259213,0.659776,0.667584,0.0976,16.00375,-38.885,-35.201252,-35.576,2.352,10.624001,eccentric,8,3.0,117880.0,231307.0,177208.0,221872.0,195517.0
2026-04-14 18:02:49.659237,703249,1609507263304562,4863274164,0.581696,0.632448,-0.158112,11.698751,-41.58,-39.165,-34.736,1.568,8.144,eccentric,8,3.0,117880.0,231307.0,177208.0,221872.0,195517.0
2026-04-14 18:02:49.668048,703250,1609507263313527,4863282887,0.511424,0.659776,-0.128832,8.1375,-42.638752,-42.2975,-35.072002,0.968,6.176,eccentric,8,3.0,117880.0,231307.0,177208.0,221872.0,195517.0
2026-04-14 18:02:49.707563,703251,1609507263328034,4863297823,0.511424,0.659776,-0.128832,11.698751,-41.51,-45.50875,-35.072002,0.968,6.176,eccentric,8,3.0,117880.0,231307.0,177208.0,221872.0,195517.0
2026-04-14 18:02:49.710717,703252,1609507263336967,4863306534,0.601216,0.628544,-0.003904,13.95625,-41.1775,-51.345,-36.184002,0.464,6.88,eccentric,8,3.0,117880.0,231307.0,177208.0,221872.0,195517.0
2026-04-14 18:02:49.713132,703253,1609507263351451,4863321576,0.601216,0.628544,-0.003904,13.69375,-44.26625,-53.80375,-36.184002,0.464,6.88,eccentric,8,3.0,117880.0,231307.0,177208.0,221872.0,195517.0
2026-04-14 18:02:49.715674,703254,1609507263360406,4863330299,0.525088,0.732,-0.044896,13.9825,-47.20625,-53.99625,-36.4,-0.336,7.904,eccentric,8,3.0,117880.0,231307.0,177208.0,221872.0,195517.0
2026-04-14 18:02:49.723346,703255,1609507263369370,4863339025,0.525088,0.732,-0.044896,12.80125,-50.25125,-56.84875,-36.4,-0.336,7.904,eccentric,8,3.0,117880.0,231307.0,177208.0,221872.0,195517.0
2026-04-14 18:02:49.753035,703266,1609507263383984,4863353982,0.554368,0.661728,-0.105408,12.60875,-53.05125,-61.57375,-35.944,-1.296,5.992,eccentric,8,3.0,122837.0,233565.0,184617.0,224136.0,204414.0
2026-04-14 18:02:49.755591,703267,1609507263392965,4863362722,0.554368,0.661728,-0.105408,8.4,-53.52375,-64.00625,-35.944,-1.296,5.992,eccentric,8,3.0,122837.0,233565.0,184617.0,224136.0,204414.0
2026-04-14 18:02:49.763039,703268,1609507263407534,4863377685,0.499712,0.6344,-0.183488,12.18875,-53.095,-63.9625,-37.328003,-1.992,4.184,eccentric,8,3.0,122837.0,233565.0,184617.0,224136.0,204414.0
2026-04-14 18:02:49.770574,703269,1609507263416458,4863386407,0.454816,0.730048,-0.025376,17.31625,-52.15,-66.31625,-36.456,-2.984,4.496,eccentric,8,3.0,122837.0,233565.0,184617.0,224136.0,204414.0
2026-04-14 18:02:49.786890,703270,1609507263430957,4863401313,0.454816,0.730048,-0.025376,22.35625,-52.45625,-70.35875,-36.456,-2.984,4.496,eccentric,8,3.0,122837.0,233565.0,184617.0,224136.0,204414.0
2026-04-14 18:02:49.795770,703271,1609507263439891,4863410068,0.382592,0.769088,-0.316224,23.7475,-52.89375,-76.08125,-37.184002,-4.168,3.864,eccentric,8,3.0,122837.0,233565.0,184617.0,224136.0,204414.0
2026-04-14 18:02:49.805778,703272,1609507263448918,4863418785,0.382592,0.769088,-0.316224,15.3125,-58.38,-81.865,-37.184002,-4.168,3.864,eccentric,8,3.0,122837.0,233565.0,184617.0,224136.0,204414.0
2026-04-14 18:02:49.818256,703273,1609507263463437,4863433765,0.425536,0.6832,-0.255712,4.10375,-63.603752,-80.87625,-36.408,-4.912,3.096,eccentric,8,3.0,122837.0,233565.0,184617.0,224136.0,204414.0
2026-04-14 18:02:49.853899,703284,1609507263472380,4863442513,0.425536,0.6832,-0.255712,-0.44625,-64.35625,-76.41375,-36.408,-4.912,3.096,eccentric,8,3.0,120652.0,229833.0,182988.0,221126.0,204796.0
2026-04-14 18:02:49.854933,703285,1609507263487600,4863457505,0.382592,0.648064,-0.384544,5.59125,-62.4575,-77.90125,-36.392002,-6.024,4.096,eccentric,8,3.0,120652.0,229833.0,182988.0,221126.0,204796.0
2026-04-14 18:02:49.860586,703286,1609507263496624,4863466255,0.31232,0.774944,-0.337696,17.56125,-60.1825,-85.23375,-36.184002,-7.184001,1.512,eccentric,8,3.0,120652.0,229833.0,182988.0,221126.0,204796.0
2026-04-14 18:02:49.863064,703287,1609507263505622,4863475005,0.31232,0.774944,-0.337696,31.36875,-58.65125,-92.225,-36.184002,-7.184001,1.512,eccentric,8,3.0,120652.0,229833.0,182988.0,221126.0,204796.0
2026-04-14 18:02:49.875216,703288,1609507263520130,4863489877,0.236192,0.882304,-0.228384,34.60625,-58.72125,-98.595,-36.4,-8.456,0.856,eccentric,8,3.0,120652.0,229833.0,182988.0,221126.0,204796.0
2026-04-14 18:02:49.883075,703289,1609507263529095,4863498620,0.236192,0.882304,-0.228384,23.1875,-64.155,-101.28125,-36.4,-8.456,0.856,eccentric,8,3.0,120652.0,229833.0,182988.0,221126.0,204796.0
2026-04-14 18:02:49.899156,703290,1609507263543583,4863513515,0.249856,0.769088,-0.407968,14.6125,-68.55625,-97.01125,-36.936,-9.56,-0.392,eccentric,8,3.0,120652.0,229833.0,182988.0,221126.0,204796.0
2026-04-14 18:02:49.906996,703291,1609507263552516,4863522211,0.249856,0.769088,-0.407968,7.8225,-70.4725,-93.94875,-36.936,-9.56,-0.392,eccentric,8,3.0,120652.0,229833.0,182988.0,221126.0,204796.0
2026-04-14 18:02:49.936147,703292,1609507263567056,4863537089,0.300608,0.782752,-0.38064,11.935,-70.8575,-96.97625,-35.992,-10.984,-1.192,eccentric,8,3.0,120652.0,229833.0,182988.0,221126.0,204796.0
2026-04-14 18:02:50.003220,703303,1609507263576682,4863546364,0.177632,0.798368,-0.300608,27.265,-64.40875,-102.62,-35.848003,-12.024,-2.008,eccentric,8,3.0,108093.0,217383.0,168275.0,210913.0,191800.0
2026-04-14 18:02:50.005748,703304,1609507263585655,4863555066,0.177632,0.798368,-0.300608,40.495,-58.625,-109.15625,-35.848003,-12.024,-2.008,eccentric,8,3.0,108093.0,217383.0,168275.0,210913.0,191800.0
2026-04-14 18:02:50.007692,703305,1609507263600166,4863569961,0.103456,0.862784,-0.144448,38.07125,-61.6875,-113.1375,-35.224003,-13.144001,-1.848,eccentric,8,3.0,108093.0,217383.0,168275.0,210913.0,191800.0
2026-04-14 18:02:50.013257,703306,1609507263609135,4863578698,0.103456,0.862784,-0.144448,29.4875,-66.87625,-109.75125,-35.224003,-13.144001,-1.848,eccentric,8,3.0,108093.0,217383.0,168275.0,210913.0,191800.0
2026-04-14 18:02:50.015775,703307,1609507263623654,4863593633,0.111264,0.903776,-0.603168,23.17,-69.58875,-107.975,-35.776,-14.672001,-2.904,eccentric,8,3.0,108093.0,217383.0,168275.0,210913.0,191800.0
2026-04-14 18:02:50.017782,703308,1609507263632581,4863602344,0.111264,0.903776,-0.603168,21.84,-71.02375,-112.9275,-35.776,-14.672001,-2.904,eccentric,8,3.0,108093.0,217383.0,168275.0,210913.0,191800.0
2026-04-14 18:02:50.020802,703309,1609507263641605,4863611045,-0.003904,0.856928,-0.505568,29.085001,-64.75875,-118.16875,-35.304,-15.752001,-3.456,eccentric,8,3.0,108093.0,217383.0,168275.0,210913.0,191800.0
2026-04-14 18:02:50.023253,703310,1609507263656246,4863625968,-0.101504,0.76128,-0.238144,34.4925,-59.00125,-121.14375,-34.712,-16.944,-3.68,eccentric,8,3.0,108093.0,217383.0,168275.0,210913.0,191800.0
2026-04-14 18:02:50.025301,703311,1609507263665258,4863634728,-0.101504,0.76128,-0.238144,39.4975,-56.6125,-121.31875,-34.712,-16.944,-3.68,eccentric,8,3.0,108093.0,217383.0,168275.0,210913.0,191800.0
2026-04-14 18:02:50.053282,703322,1609507263679915,4863649701,-0.105408,0.931104,-0.49776,36.49625,-62.50125,-123.0075,-33.744003,-18.032001,-4.832,eccentric,8,3.0,74787.0,194981.0,130655.0,192184.0,151338.0
2026-04-14 18:02:50.055575,703323,1609507263689000,4863658413,-0.105408,0.931104,-0.49776,33.27625,-69.11625,-123.75125,-33.744003,-18.032001,-4.832,eccentric,8,3.0,74787.0,194981.0,130655.0,192184.0,151338.0
2026-04-14 18:02:50.058915,703324,1609507263698027,4863667129,-0.150304,0.979904,-0.417728,34.16,-70.98875,-124.53,-32.960003,-19.296001,-5.704001,eccentric,8,3.0,74787.0,194981.0,130655.0,192184.0,151338.0
2026-04-14 18:02:50.072270,703325,1609507263712608,4863682049,-0.150304,0.979904,-0.417728,30.40625,-74.06,-126.2975,-32.960003,-19.296001,-5.704001,eccentric,8,3.0,74787.0,194981.0,130655.0,192184.0,151338.0
2026-04-14 18:02:50.076393,703326,1609507263721505,4863690915,-0.210816,0.765184,-0.347456,28.175,-73.2375,-124.285,-31.2,-20.664001,-8.296001,eccentric,8,3.0,74787.0,194981.0,130655.0,192184.0,151338.0
2026-04-14 18:02:50.088883,703327,1609507263736005,4863705779,-0.290848,0.872544,-0.37088,36.00625,-67.655,-119.34125,-31.2,-21.944,-9.936001,eccentric,8,3.0,74787.0,194981.0,130655.0,192184.0,151338.0
2026-04-14 18:02:50.100123,703328,1609507263745162,4863714561,-0.290848,0.872544,-0.37088,52.745,-59.14125,-120.33,-29.864002,-21.944,-9.936001,eccentric,8,3.0,74787.0,194981.0,130655.0,192184.0,151338.0
2026-04-14 18:02:50.107590,703329,1609507263754108,4863723240,-0.290848,0.872544,-0.37088,55.5275,-59.3075,-125.8775,-29.864002,-21.944,-9.936001,eccentric,8,3.0,74787.0,194981.0,130655.0,192184.0,151338.0
2026-04-14 18:02:50.123920,703330,1609507263768635,4863738131,-0.396256,1.13216,-0.464576,42.81375,-64.33,-125.1775,-28.824001,-23.008001,-10.264001,eccentric,8,3.0,74787.0,194981.0,130655.0,192184.0,151338.0
2026-04-14 18:02:50.151822,703341,1609507263778329,4863747054,-0.310368,0.794464,-0.40992,23.98375,-71.42625,-121.87,-27.432001,-24.344002,-11.152,eccentric,8,3.0,53039.0,183937.0,105941.0,182215.0,122239.0
2026-04-14 18:02:50.154314,703342,1609507263793202,4863761986,-0.310368,0.794464,-0.40992,8.05,-76.85125,-121.10875,-27.432001,-24.344002,-11.152,eccentric,8,3.0,53039.0,183937.0,105941.0,182215.0,122239.0
2026-04-14 18:02:50.156891,703343,1609507263802603,4863772821,-0.499712,0.784704,-0.562176,8.5225,-75.80125,-117.95875,-26.536001,-24.896002,-11.144,eccentric,8,3.0,53039.0,183937.0,105941.0,182215.0,122239.0
2026-04-14 18:02:50.165588,703344,1609507263811596,4863781528,-0.499712,0.784704,-0.562176,31.8675,-67.1125,-113.79375,-26.536001,-24.896002,-11.144,eccentric,8,3.0,53039.0,183937.0,105941.0,182215.0,122239.0
2026-04-14 18:02:50.184419,703345,1609507263826092,4863796412,-0.581696,0.960384,-0.57584,53.795002,-62.09875,-115.683754,-26.272001,-25.576002,-12.920001,eccentric,8,3.0,53039.0,183937.0,105941.0,182215.0,122239.0
2026-04-14 18:02:50.190281,703346,1609507263835175,4863805111,-0.581696,0.960384,-0.57584,48.86,-65.24,-115.7275,-26.272001,-25.576002,-12.920001,eccentric,8,3.0,53039.0,183937.0,105941.0,182215.0,122239.0
2026-04-14 18:02:50.205703,703347,1609507263849692,4863820063,-0.548512,1.036512,-0.40992,25.15625,-71.12,-111.86875,-23.632002,-26.824001,-15.744,eccentric,8,3.0,53039.0,183937.0,105941.0,182215.0,122239.0
2026-04-14 18:02:50.213247,703348,1609507263858772,4863828758,-0.528992,0.778848,-0.558272,3.40375,-75.97625,-109.38375,-22.52,-27.136002,-13.480001,eccentric,8,3.0,53039.0,183937.0,105941.0,182215.0,122239.0
2026-04-14 18:02:50.223291,703349,1609507263867866,4863837445,-0.528992,0.778848,-0.558272,-4.96125,-78.23375,-109.27875,-22.52,-27.136002,-13.480001,eccentric,8,3.0,53039.0,183937.0,105941.0,182215.0,122239.0
2026-04-14 18:02:50.254365,703360,1609507263882384,4863852479,-0.65392,0.81008,-0.433344,8.05875,-72.61625,-107.590004,-21.080002,-27.736002,-15.080001,eccentric,8,3.0,47157.0,183825.0,97559.0,181485.0,112656.0
2026-04-14 18:02:50.256876,703361,1609507263891345,4863861213,-0.65392,0.81008,-0.433344,29.1025,-60.6725,-106.77625,-21.080002,-27.736002,-15.080001,eccentric,8,3.0,47157.0,183825.0,97559.0,181485.0,112656.0
2026-04-14 18:02:50.262642,703362,1609507263906007,4863876168,-0.651968,1.022848,-0.499712,33.99375,-53.0425,-108.2025,-20.944,-27.992,-13.648001,eccentric,8,3.0,47157.0,183825.0,97559.0,181485.0,112656.0
2026-04-14 18:02:50.271525,703363,1609507263914975,4863884847,-0.651968,1.022848,-0.499712,20.72875,-53.80375,-109.48,-20.944,-27.992,-13.648001,eccentric,8,3.0,47157.0,183825.0,97559.0,181485.0,112656.0
2026-04-14 18:02:50.305731,703364,1609507263923936,4863893570,-0.74176,0.903776,-0.554368,-1.785,-61.1625,-109.051254,-18.936,-28.880001,-18.024,eccentric,8,3.0,47157.0,183825.0,97559.0,181485.0,112656.0
2026-04-14 18:02:50.307734,703365,1609507263938420,4863908456,-0.610976,0.569984,-0.525088,-19.22375,-69.9125,-107.35375,-16.552,-29.288002,-17.072,eccentric,8,3.0,47157.0,183825.0,97559.0,181485.0,112656.0
2026-04-14 18:02:50.310477,703366,1609507263947319,4863917129,-0.610976,0.569984,-0.525088,-16.1,-71.058754,-102.4275,-16.552,-29.288002,-17.072,eccentric,8,3.0,47157.0,183825.0,97559.0,181485.0,112656.0
2026-04-14 18:02:50.353066,703367,1609507263961828,4863931991,-0.77104,0.841312,-0.447008,4.2175,-65.91375,-96.83625,-14.984001,-29.416002,-17.512001,eccentric,8,3.0,47157.0,183825.0,97559.0,181485.0,112656.0
2026-04-14 18:02:50.377844,703368,1609507263970830,4863940719,-0.77104,0.841312,-0.447008,24.15,-56.00875,-92.5925,-14.984001,-29.416002,-17.512001,eccentric,8,3.0,47157.0,183825.0,97559.0,181485.0,112656.0
2026-04-14 18:02:50.412757,703379,1609507263985375,4863955671,-0.812032,1.00528,-0.447008,30.8875,-52.01,-92.995,-13.776001,-29.920002,-16.672,eccentric,8,3.0,43720.0,184508.0,93960.0,182414.0,108745.0
2026-04-14 18:02:50.415121,703380,1609507263994313,4863964333,-0.812032,1.00528,-0.447008,14.14,-54.31125,-99.12,-13.776001,-29.920002,-16.672,eccentric,8,3.0,43720.0,184508.0,93960.0,182414.0,108745.0
2026-04-14 18:02:50.420292,703381,1609507264003266,4863973075,-0.796416,0.802272,-0.509472,-12.136251,-55.947502,-101.26375,-12.880001,-29.856,-16.800001,eccentric,8,3.0,43720.0,184508.0,93960.0,182414.0,108745.0
2026-04-14 18:02:50.420406,703382,1609507264017753,4863986120,-0.841312,0.569984,-0.587552,-21.5425,-55.72,-98.665,-12.880001,-29.856,-16.960001,eccentric,8,3.0,43720.0,184508.0,93960.0,182414.0,108745.0
2026-04-14 18:02:50.422467,703383,1609507264026970,4863996882,-0.841312,0.569984,-0.587552,-15.3825,-55.08125,-96.495,-11.832001,-30.128002,-16.960001,eccentric,8,3.0,43720.0,184508.0,93960.0,182414.0,108745.0
