pc_time,serial_num,sensor_ts,host_ts,ax,ay,az,gx,gy,gz,mx,my,mz,phase,rpe,weight_kg,ppg_a,ppg_b,ppg_c,ppg_d,ppg_e
2026-04-14 18:03:17.405325,708464,1609507291030427,4891000276,-0.562176,0.806176,-0.363072,-40.6,34.3875,107.6775,-17.992,-31.448002,-5.84,eccentric,8,3.0,43707.0,190867.0,91533.0,182766.0,106242.0
2026-04-14 18:03:17.407690,708465,1609507291039437,4891009023,-0.628544,0.806176,-0.363072,-52.5175,35.49875,104.965004,-19.568,-30.320002,-4.936,eccentric,8,3.0,43707.0,190867.0,91533.0,182766.0,106242.0
2026-04-14 18:03:17.411818,708466,1609507291048528,4891017846,-0.628544,0.806176,-0.363072,-49.37625,39.2875,108.325,-19.568,-30.320002,-4.936,eccentric,8,3.0,43707.0,190867.0,91533.0,182766.0,106242.0
2026-04-14 18:03:17.423702,708467,1609507291063083,4891032834,-0.6832,0.837408,-0.20496,-41.95625,38.61375,113.47,-21.560001,-29.816002,-4.696,eccentric,8,3.0,43707.0,190867.0,91533.0,182766.0,106242.0
2026-04-14 18:03:17.429172,708468,1609507291072109,4891041553,-0.655872,0.93696,-0.47824,-35.81375,35.56875,118.81625,-22.048,-29.808,-4.328,eccentric,8,3.0,43707.0,190867.0,91533.0,182766.0,106242.0
2026-04-14 18:03:17.441563,708469,1609507291086686,4891056440,-0.655872,0.93696,-0.47824,-36.54,35.14875,118.7025,-22.048,-29.808,-4.328,eccentric,8,3.0,43707.0,190867.0,91533.0,182766.0,106242.0
2026-04-14 18:03:17.452969,708470,1609507291095651,4891065143,-0.52704,0.972096,-0.46848,-36.37375,37.7125,115.43,-23.392,-28.432001,-3.696,eccentric,8,3.0,43707.0,190867.0,91533.0,182766.0,106242.0
2026-04-14 18:03:17.459215,708471,1609507291104669,4891073860,-0.52704,0.972096,-0.46848,-40.451252,38.64,109.75125,-23.392,-28.432001,-3.696,eccentric,8,3.0,43707.0,190867.0,91533.0,182766.0,106242.0
2026-04-14 18:03:17.502199,708472,1609507291119193,4891088811,-0.38064,0.876448,-0.222528,-41.0375,41.55375,106.77625,-25.160002,-27.504002,-0.856,eccentric,8,3.0,43707.0,190867.0,91533.0,182766.0,106242.0
2026-04-14 18:03:17.548092,708483,1609507291128528,4891097885,-0.38064,0.876448,-0.222528,-41.335,42.39375,105.60375,-25.160002,-27.504002,-0.856,eccentric,8,3.0,46798.0,190697.0,94980.0,182691.0,110467.0
2026-04-14 18:03:17.550604,708484,1609507291143147,4891112899,-0.365024,0.856928,-0.275232,-37.45,41.99125,109.2,-25.920002,-26.648,-2.232,eccentric,8,3.0,46798.0,190697.0,94980.0,182691.0,110467.0
2026-04-14 18:03:17.553039,708485,1609507291152275,4891121616,-0.398208,1.059936,-0.167872,-35.4725,40.13625,112.1575,-26.992,-26.184002,-2.376,eccentric,8,3.0,46798.0,190697.0,94980.0,182691.0,110467.0
2026-04-14 18:03:17.555673,708486,1609507291161221,4891130339,-0.398208,1.059936,-0.167872,-38.535,39.55,115.08,-26.992,-26.184002,-2.376,eccentric,8,3.0,46798.0,190697.0,94980.0,182691.0,110467.0
2026-04-14 18:03:17.557831,708487,1609507291175788,4891145221,-0.363072,0.997472,-0.163968,-41.71125,42.35875,113.53125,-27.736002,-25.024002,-0.552,eccentric,8,3.0,46798.0,190697.0,94980.0,182691.0,110467.0
2026-04-14 18:03:17.560571,708488,1609507291184759,4891153959,-0.363072,0.997472,-0.163968,-44.31875,47.17125,110.17125,-27.736002,-25.024002,-0.552,eccentric,8,3.0,46798.0,190697.0,94980.0,182691.0,110467.0
2026-04-14 18:03:17.563058,708489,1609507291199346,4891168921,-0.353312,0.847168,-0.163968,-44.68625,48.51,111.16,-28.416002,-24.136002,0.592,eccentric,8,3.0,46798.0,190697.0,94980.0,182691.0,110467.0
2026-04-14 18:03:17.565595,708490,1609507291208289,4891177657,-0.353312,0.847168,-0.163968,-44.23125,44.6775,115.75375,-28.416002,-24.136002,0.592,eccentric,8,3.0,46798.0,190697.0,94980.0,182691.0,110467.0
2026-04-14 18:03:17.578104,708491,1609507291222821,4891192711,-0.286944,0.95648,-0.1464,-37.345,39.2875,121.12625,-29.848001,-22.176,1.776,eccentric,8,3.0,46798.0,190697.0,94980.0,182691.0,110467.0
2026-04-14 18:03:17.612946,708502,1609507291231857,4891201426,-0.099552,1.214144,-0.197152,-30.8,35.62125,123.89125,-29.848001,-22.176,2.272,eccentric,8,3.0,50056.0,188298.0,99014.0,181255.0,115497.0
2026-04-14 18:03:17.615456,708503,1609507291240909,4891210194,-0.103456,1.214144,-0.197152,-27.51,35.56875,120.933754,-31.448002,-21.248001,2.272,eccentric,8,3.0,50056.0,188298.0,99014.0,181255.0,115497.0
2026-04-14 18:03:17.617957,708504,1609507291255437,4891225241,-0.152256,1.143872,-0.325984,-34.3,42.3675,112.175,-31.904001,-19.896002,3.264,eccentric,8,3.0,50056.0,188298.0,99014.0,181255.0,115497.0
2026-04-14 18:03:17.620398,708505,1609507291264406,4891233971,-0.152256,1.143872,-0.325984,-45.28125,53.0075,106.225,-31.904001,-19.896002,3.264,eccentric,8,3.0,50056.0,188298.0,99014.0,181255.0,115497.0
2026-04-14 18:03:17.634290,708506,1609507291278930,4891248910,-0.242048,0.950624,-0.12688,-54.11875,60.7075,102.96125,-32.592003,-18.736,3.544,eccentric,8,3.0,50056.0,188298.0,99014.0,181255.0,115497.0
2026-04-14 18:03:17.644361,708507,1609507291287989,4891257614,-0.242048,0.950624,-0.12688,-52.3775,61.3725,101.66625,-32.592003,-18.736,3.544,eccentric,8,3.0,50056.0,188298.0,99014.0,181255.0,115497.0
2026-04-14 18:03:17.650886,708508,1609507291297028,4891266340,-0.044896,1.003328,-0.124928,-47.8975,56.11375,102.9175,-32.344,-17.960001,4.36,eccentric,8,3.0,50056.0,188298.0,99014.0,181255.0,115497.0
2026-04-14 18:03:17.666659,708509,1609507291311548,4891281361,-0.044896,1.003328,-0.124928,-43.35625,51.485,106.46125,-32.344,-17.960001,4.36,eccentric,8,3.0,50056.0,188298.0,99014.0,181255.0,115497.0
2026-04-14 18:03:17.675521,708510,1609507291320479,4891290088,0.074176,0.987712,-0.070272,-46.68125,45.9025,110.8275,-33.016003,-16.408,4.28,eccentric,8,3.0,50056.0,188298.0,99014.0,181255.0,115497.0
2026-04-14 18:03:17.709177,708521,1609507291334982,4891305198,0.070272,0.831552,-0.122976,-52.45625,42.0875,115.1675,-34.184002,-14.584001,5.952,eccentric,8,3.0,58228.0,192504.0,108222.0,185212.0,125576.0
2026-04-14 18:03:17.711690,708522,1609507291344035,4891314010,0.070272,0.831552,-0.122976,-48.0375,43.82875,117.99375,-34.184002,-14.584001,5.952,eccentric,8,3.0,58228.0,192504.0,108222.0,185212.0,125576.0
2026-04-14 18:03:17.714105,708523,1609507291358602,4891327048,-0.005856,0.903776,-0.255712,-39.445,45.815,119.27125,-33.504,-13.432001,6.216,eccentric,8,3.0,58228.0,192504.0,108222.0,185212.0,125576.0
2026-04-14 18:03:17.723116,708524,1609507291368021,4891337818,-0.005856,0.903776,-0.255712,-34.09875,44.765,118.8075,-33.504,-13.432001,6.216,eccentric,8,3.0,58228.0,192504.0,108222.0,185212.0,125576.0
2026-04-14 18:03:17.733031,708525,1609507291376975,4891346521,0.124928,1.01504,0.02928,-36.295002,43.5925,116.82125,-33.824,-12.096001,6.72,eccentric,8,3.0,58228.0,192504.0,108222.0,185212.0,125576.0
2026-04-14 18:03:17.745588,708526,1609507291391462,4891361369,0.124928,1.01504,0.02928,-42.41125,45.19375,114.35375,-33.824,-12.096001,6.72,eccentric,8,3.0,58228.0,192504.0,108222.0,185212.0,125576.0
2026-04-14 18:03:17.755587,708527,1609507291400480,4891370154,0.083936,0.796416,-0.124928,-51.555,46.97,115.7975,-34.112003,-10.536,8.336,eccentric,8,3.0,58228.0,192504.0,108222.0,185212.0,125576.0
2026-04-14 18:03:17.771855,708528,1609507291414983,4891385111,0.111264,0.69296,-0.22448,-54.46,44.8,121.77375,-34.104,-8.776,9.784,eccentric,8,3.0,58228.0,192504.0,108222.0,185212.0,125576.0
2026-04-14 18:03:17.779285,708529,1609507291423945,4891393804,0.111264,0.69296,-0.22448,-42.04375,38.605,130.5325,-34.104,-8.776,9.784,eccentric,8,3.0,58228.0,192504.0,108222.0,185212.0,125576.0
2026-04-14 18:03:17.814331,708540,1609507291433112,4891402557,0.111264,0.989664,0.113216,-23.2225,31.01875,135.4675,-34.104,-8.776,9.208,eccentric,8,3.0,62748.0,195236.0,113507.0,188269.0,132228.0
2026-04-14 18:03:17.816799,708541,1609507291447782,4891417541,0.255712,0.989664,0.113216,-13.43125,24.3775,134.37375,-35.496002,-7.400001,9.208,eccentric,8,3.0,62748.0,195236.0,113507.0,188269.0,132228.0
2026-04-14 18:03:17.819389,708542,1609507291456898,4891426230,0.3416,0.93696,0.199104,-20.09875,22.18125,129.77126,-35.248,-5.448,9.672001,eccentric,8,3.0,62748.0,195236.0,113507.0,188269.0,132228.0
2026-04-14 18:03:17.829362,708543,1609507291471444,4891441142,0.3416,0.93696,0.199104,-33.775,25.4975,124.27625,-35.248,-5.448,9.672001,eccentric,8,3.0,62748.0,195236.0,113507.0,188269.0,132228.0
2026-04-14 18:03:17.835590,708544,1609507291480405,4891449851,0.212768,0.630496,-0.259616,-38.815,32.4975,120.18125,-34.152,-4.224,8.848001,eccentric,8,3.0,62748.0,195236.0,113507.0,188269.0,132228.0
2026-04-14 18:03:17.866824,708545,1609507291489338,4891458527,0.212768,0.630496,-0.259616,-31.9025,37.4325,119.56,-34.152,-4.224,8.848001,eccentric,8,3.0,62748.0,195236.0,113507.0,188269.0,132228.0
2026-04-14 18:03:17.894187,708546,1609507291503843,4891473400,0.2928,0.75152,0.099552,-16.5725,40.32,122.33375,-34.328003,-2.8,9.784,eccentric,8,3.0,62748.0,195236.0,113507.0,188269.0,132228.0
2026-04-14 18:03:17.919125,708547,1609507291512801,4891482094,0.2928,0.75152,0.099552,-2.26625,39.6025,122.66625,-34.328003,-2.8,9.784,eccentric,8,3.0,62748.0,195236.0,113507.0,188269.0,132228.0
2026-04-14 18:03:17.927084,708548,1609507291527341,4891497022,0.316224,0.88816,-0.027328,-0.9275,35.9975,119.595,-35.288002,-0.952,12.208,eccentric,8,3.0,62748.0,195236.0,113507.0,188269.0,132228.0
2026-04-14 18:03:17.954041,708559,1609507291536288,4891505750,0.36112,0.765184,0.269376,-9.625,34.8425,115.29875,-35.744003,0.408,12.168,eccentric,8,3.0,69859.0,199573.0,121670.0,192241.0,141583.0
2026-04-14 18:03:17.956499,708560,1609507291550797,4891520697,0.36112,0.765184,0.269376,-17.96375,36.4525,110.66125,-35.744003,0.408,12.168,eccentric,8,3.0,69859.0,199573.0,121670.0,192241.0,141583.0
2026-04-14 18:03:17.960262,708561,1609507291559727,4891529363,0.296704,0.597312,-0.07808,-17.87625,37.52875,108.80625,-35.256,1.456,11.8,eccentric,8,3.0,69859.0,199573.0,121670.0,192241.0,141583.0
2026-04-14 18:03:17.961548,708562,1609507291568719,4891538074,0.296704,0.597312,-0.07808,-10.03625,36.19875,108.955,-35.256,1.456,11.8,eccentric,8,3.0,69859.0,199573.0,121670.0,192241.0,141583.0
2026-04-14 18:03:17.967459,708563,1609507291583191,4891552999,0.3416,0.671488,0.095648,2.5725,32.8825,112.63875,-33.84,2.544,11.736001,eccentric,8,3.0,69859.0,199573.0,121670.0,192241.0,141583.0
2026-04-14 18:03:17.969377,708564,1609507291592164,4891561701,0.3416,0.671488,0.095648,13.48375,26.73125,115.325,-33.84,2.544,11.736001,eccentric,8,3.0,69859.0,199573.0,121670.0,192241.0,141583.0
2026-04-14 18:03:17.980091,708565,1609507291606726,4891576596,0.50752,0.732,0.001952,15.225,19.11,115.64875,-33.616,3.808,12.368001,eccentric,8,3.0,69859.0,199573.0,121670.0,192241.0,141583.0
2026-04-14 18:03:17.981575,708566,1609507291615667,4891585366,0.472384,0.718336,0.327936,10.80625,14.4375,113.05,-33.176003,5.264,12.712001,eccentric,8,3.0,69859.0,199573.0,121670.0,192241.0,141583.0
2026-04-14 18:03:18.013290,708577,1609507291630200,4891600530,0.472384,0.718336,0.327936,5.705,15.05875,108.395004,-33.176003,5.264,12.712001,eccentric,8,3.0,78391.0,203771.0,131641.0,195796.0,152929.0
2026-04-14 18:03:18.015871,708578,1609507291639181,4891609344,0.476288,0.597312,0.128832,2.42375,19.9675,103.285,-32.488003,6.176,12.76,eccentric,8,3.0,78391.0,203771.0,131641.0,195796.0,152929.0
2026-04-14 18:03:18.018347,708579,1609507291648386,4891618225,0.476288,0.597312,0.128832,3.61375,27.553751,98.69125,-32.488003,6.176,12.76,eccentric,8,3.0,78391.0,203771.0,131641.0,195796.0,152929.0
2026-04-14 18:03:18.020893,708580,1609507291662893,4891633196,0.472384,0.671488,0.199104,8.79375,34.825,95.06875,-32.232002,7.08,12.984,eccentric,8,3.0,78391.0,203771.0,131641.0,195796.0,152929.0
2026-04-14 18:03:18.028357,708581,1609507291671833,4891641880,0.472384,0.671488,0.199104,15.3475,35.84,89.41625,-32.232002,7.08,12.984,eccentric,8,3.0,78391.0,203771.0,131641.0,195796.0,152929.0
2026-04-14 18:03:18.041616,708582,1609507291686448,4891656781,0.513376,0.685152,0.013664,15.2775,33.74,83.39625,-30.952002,7.168,12.504001,eccentric,8,3.0,78391.0,203771.0,131641.0,195796.0,152929.0
2026-04-14 18:03:18.052175,708583,1609507291695416,4891665483,0.642208,0.589504,0.306464,8.925,30.485,79.19625,-30.312002,7.904,14.576001,eccentric,8,3.0,78391.0,203771.0,131641.0,195796.0,152929.0
2026-04-14 18:03:18.060753,708584,1609507291704457,4891674187,0.642208,0.589504,0.306464,2.1175,28.02625,75.53,-30.312002,7.904,14.576001,eccentric,8,3.0,78391.0,203771.0,131641.0,195796.0,152929.0
2026-04-14 18:03:18.075401,708585,1609507291718975,4891689081,0.628544,0.501664,0.080032,-0.63,26.9325,72.7825,-30.168001,8.808001,13.048,eccentric,8,3.0,78391.0,203771.0,131641.0,195796.0,152929.0
2026-04-14 18:03:18.083269,708586,1609507291727936,4891697763,0.628544,0.501664,0.080032,-1.8375,24.40375,72.1875,-30.168001,8.808001,13.048,eccentric,8,3.0,78391.0,203771.0,131641.0,195796.0,152929.0
2026-04-14 18:03:18.114767,708597,1609507291742489,4891712736,0.618784,0.480192,0.02928,-1.68,20.3525,72.975,-31.072002,10.296001,14.312,eccentric,8,3.0,84815.0,209066.0,139013.0,200200.0,161192.0
2026-04-14 18:03:18.116891,708598,1609507291751439,4891721431,0.618784,0.480192,0.02928,4.3575,18.445,72.93125,-31.072002,10.296001,14.312,eccentric,8,3.0,84815.0,209066.0,139013.0,200200.0,161192.0
2026-04-14 18:03:18.122165,708599,1609507291766059,4891736397,0.65392,0.538752,0.037088,10.045,15.9075,70.3675,-31.04,10.672001,14.472001,eccentric,8,3.0,84815.0,209066.0,139013.0,200200.0,161192.0
2026-04-14 18:03:18.130932,708600,1609507291775021,4891745115,0.65392,0.491904,0.150304,7.7525,11.54125,67.71625,-31.04,10.672001,14.472001,eccentric,8,3.0,84815.0,209066.0,139013.0,200200.0,161192.0
2026-04-14 18:03:18.140383,708601,1609507291783992,4891753786,0.739808,0.489952,0.150304,1.47,9.59875,65.371254,-28.888,11.152,13.144001,eccentric,8,3.0,84815.0,209066.0,139013.0,200200.0,161192.0
2026-04-14 18:03:18.160664,708602,1609507291798486,4891768687,0.735904,0.435296,0.232288,-3.52625,9.03875,62.88625,-28.528002,11.440001,14.352,eccentric,8,3.0,84815.0,209066.0,139013.0,200200.0,161192.0
2026-04-14 18:03:18.162885,708603,1609507291807433,4891777401,0.735904,0.435296,0.232288,-3.3425,10.42125,62.23875,-28.528002,11.440001,14.352,eccentric,8,3.0,84815.0,209066.0,139013.0,200200.0,161192.0
2026-04-14 18:03:18.175296,708604,1609507291821899,4891790280,0.774944,0.445056,0.109312,-1.32125,13.1775,57.0325,-28.976002,12.480001,14.856001,eccentric,8,3.0,84815.0,209066.0,139013.0,200200.0,161192.0
2026-04-14 18:03:18.255280,708615,1609507291831201,4891801592,0.774944,0.445056,0.109312,5.94125,13.55375,50.3825,-28.976002,12.480001,14.856001,eccentric,8,3.0,96417.0,220054.0,153810.0,209943.0,176414.0
2026-04-14 18:03:18.263232,708616,1609507291840301,4891810329,0.825696,0.499712,0.081984,4.92625,10.1325,44.80875,-28.104002,12.328001,13.944,eccentric,8,3.0,96417.0,220054.0,153810.0,209943.0,176414.0
2026-04-14 18:03:18.265766,708617,1609507291854942,4891825283,0.825696,0.499712,0.081984,-3.80625,6.6325,41.44,-28.104002,12.328001,13.944,eccentric,8,3.0,96417.0,220054.0,153810.0,209943.0,176414.0
2026-04-14 18:03:18.267843,708618,1609507291863910,4891833980,0.93696,0.36112,0.30256,-11.2175,6.0375,39.62875,-28.328001,12.856001,13.72,eccentric,8,3.0,96417.0,220054.0,153810.0,209943.0,176414.0
2026-04-14 18:03:18.270777,708619,1609507291878386,4891846826,0.841312,0.337696,0.076128,-10.99875,8.2775,38.24625,-27.128002,13.200001,14.208001,eccentric,8,3.0,96417.0,220054.0,153810.0,209943.0,176414.0
2026-04-14 18:03:18.273352,708620,1609507291887656,4891857577,0.841312,0.337696,0.076128,-5.74875,10.78,33.565,-27.128002,13.200001,14.208001,eccentric,8,3.0,96417.0,220054.0,153810.0,209943.0,176414.0
2026-04-14 18:03:18.275188,708621,1609507291896582,4891866287,0.903776,0.357216,0.171776,-2.555,9.98375,29.79375,-27.272001,13.888001,15.816001,eccentric,8,3.0,96417.0,220054.0,153810.0,209943.0,176414.0
2026-04-14 18:03:18.278314,708622,1609507291911082,4891881200,0.903776,0.357216,0.171776,-2.14375,9.05625,28.848751,-27.272001,13.888001,15.816001,eccentric,8,3.0,96417.0,220054.0,153810.0,209943.0,176414.0
2026-04-14 18:03:18.280813,708623,1609507291920107,4891889897,0.895968,0.355264,0.275232,-1.93375,8.785,27.08125,-26.936,14.008,14.448001,eccentric,8,3.0,96417.0,220054.0,153810.0,209943.0,176414.0
2026-04-14 18:03:18.315907,708634,1609507291935176,4891904990,0.895968,0.355264,0.275232,-2.31,7.84,24.053751,-26.936,14.008,14.448001,eccentric,8,3.0,100241.0,226061.0,158635.0,215066.0,180807.0
2026-04-14 18:03:18.318388,708635,1609507291944162,4891913740,0.884256,0.363072,0.372832,-0.63,7.28,21.3325,-27.736002,14.008,12.432,eccentric,8,3.0,100241.0,226061.0,158635.0,215066.0,180807.0
2026-04-14 18:03:18.320909,708636,1609507291958732,4891928675,0.882304,0.345504,0.230336,1.1025,7.37625,18.17375,-26.760002,13.840001,14.632001,eccentric,8,3.0,100241.0,226061.0,158635.0,215066.0,180807.0
2026-04-14 18:03:18.324194,708637,1609507291967749,4891937360,0.882304,0.345504,0.230336,2.70375,5.7925,13.72875,-26.760002,13.840001,14.632001,eccentric,8,3.0,100241.0,226061.0,158635.0,215066.0,180807.0
2026-04-14 18:03:18.330491,708638,1609507291976802,4891946074,0.769088,0.343552,0.050752,-0.0175,5.11875,10.325,-26.760002,13.840001,14.280001,eccentric,8,3.0,100241.0,226061.0,158635.0,215066.0,180807.0
2026-04-14 18:03:18.346550,708639,1609507291991296,4891961036,0.769088,0.343552,0.050752,-1.925,2.8875,8.61,-27.168001,14.080001,14.280001,eccentric,8,3.0,100241.0,226061.0,158635.0,215066.0,180807.0
2026-04-14 18:03:18.355706,708640,1609507292000288,4891969734,0.843264,0.335744,0.269376,0.8575,2.205,5.705,-26.664001,14.200001,14.68,eccentric,8,3.0,100241.0,226061.0,158635.0,215066.0,180807.0
2026-04-14 18:03:18.370688,708641,1609507292014779,4891984654,0.843264,0.335744,0.269376,5.92375,1.12,3.10625,-26.664001,14.200001,14.68,eccentric,8,3.0,100241.0,226061.0,158635.0,215066.0,180807.0
2026-04-14 18:03:18.379234,708642,1609507292023754,4891993388,0.847168,0.374784,0.290848,9.47625,-1.09375,1.12,-27.096,14.472001,16.032001,eccentric,8,3.0,100241.0,226061.0,158635.0,215066.0,180807.0
2026-04-14 18:03:18.415885,708653,1609507292033356,4892002703,0.847168,0.374784,0.290848,8.67125,-3.49125,-1.26875,-27.096,14.472001,16.032001,eccentric,8,3.0,99673.0,227236.0,158297.0,216304.0,180461.0
2026-04-14 18:03:18.418348,708654,1609507292048029,4892017856,0.75152,0.343552,-0.005856,5.22375,-6.23875,-3.26375,-27.6,14.240001,15.576001,eccentric,8,3.0,99673.0,227236.0,158297.0,216304.0,180461.0
2026-04-14 18:03:18.420858,708655,1609507292057081,4892026620,0.75152,0.363072,0.265472,3.68375,-8.5925,-5.32875,-27.6,14.240001,15.576001,eccentric,8,3.0,99673.0,227236.0,158297.0,216304.0,180461.0
2026-04-14 18:03:18.428398,708656,1609507292071600,4892041623,0.798368,0.363072,0.265472,4.4275,-10.6225,-7.2975,-27.736002,14.304001,15.232,eccentric,8,3.0,99673.0,227236.0,158297.0,216304.0,180461.0
2026-04-14 18:03:18.435879,708657,1609507292080551,4892050337,0.698816,0.40016,0.101504,9.31,-11.83875,-9.59875,-26.936,13.976001,14.392001,eccentric,8,3.0,99673.0,227236.0,158297.0,216304.0,180461.0
2026-04-14 18:03:18.446612,708658,1609507292089529,4892059043,0.698816,0.40016,0.101504,12.2325,-13.39625,-12.34625,-26.936,13.976001,14.392001,eccentric,8,3.0,99673.0,227236.0,158297.0,216304.0,180461.0
2026-04-14 18:03:18.459072,708659,1609507292104021,4892073983,0.720288,0.425536,0.226432,12.215,-15.1025,-13.92125,-27.248001,13.160001,14.104001,eccentric,8,3.0,99673.0,227236.0,158297.0,216304.0,180461.0
2026-04-14 18:03:18.469657,708660,1609507292112974,4892082686,0.720288,0.425536,0.226432,9.93125,-16.7125,-16.9225,-27.248001,13.160001,14.104001,eccentric,8,3.0,99673.0,227236.0,158297.0,216304.0,180461.0
2026-04-14 18:03:18.507843,708661,1609507292127464,4892097665,0.710528,0.378688,0.011712,6.4575,-18.97,-19.80125,-28.216002,13.432001,14.992001,eccentric,8,3.0,99673.0,227236.0,158297.0,216304.0,180461.0
2026-04-14 18:03:18.538395,708672,1609507292136584,4892106425,0.710528,0.378688,0.011712,4.97875,-21.175,-21.55125,-28.216002,13.432001,14.992001,eccentric,8,3.0,96814.0,228830.0,155948.0,218114.0,177924.0
2026-04-14 18:03:18.543948,708673,1609507292151112,4892121330,0.685152,0.447008,0.119072,6.16875,-21.5775,-24.2025,-29.328001,13.240001,13.512001,eccentric,8,3.0,96814.0,228830.0,155948.0,218114.0,177924.0
2026-04-14 18:03:18.544297,708674,1609507292160112,4892130066,0.733952,0.398208,0.080032,9.0825,-22.0325,-28.65625,-28.656002,12.312,14.992001,eccentric,8,3.0,96814.0,228830.0,155948.0,218114.0,177924.0
2026-04-14 18:03:18.545177,708675,1609507292169168,4892138783,0.733952,0.398208,0.080032,7.91,-24.70125,-33.0225,-28.656002,12.312,14.992001,eccentric,8,3.0,96814.0,228830.0,155948.0,218114.0,177924.0
2026-04-14 18:03:18.552347,708676,1609507292183698,4892153713,0.689056,0.423584,0.021472,4.12125,-29.19875,-34.6325,-29.032001,12.384001,14.856001,eccentric,8,3.0,96814.0,228830.0,155948.0,218114.0,177924.0
2026-04-14 18:03:18.554561,708677,1609507292192749,4892162432,0.689056,0.423584,0.021472,-0.07,-33.11875,-35.67375,-29.032001,12.384001,14.856001,eccentric,8,3.0,96814.0,228830.0,155948.0,218114.0,177924.0
2026-04-14 18:03:18.562954,708678,1609507292207253,4892177345,0.749568,0.443104,0.16592,-0.3675,-35.42875,-38.745,-29.760002,12.280001,14.232,eccentric,8,3.0,96814.0,228830.0,155948.0,218114.0,177924.0
2026-04-14 18:03:18.572787,708679,1609507292216328,4892186052,0.749568,0.443104,0.16592,2.0825,-36.4875,-41.79,-29.760002,12.280001,14.232,eccentric,8,3.0,96814.0,228830.0,155948.0,218114.0,177924.0
2026-04-14 18:03:18.599614,708680,1609507292225266,4892194783,0.724192,0.433344,-0.021472,3.94625,-36.995,-45.0275,-28.904001,11.008,12.68,eccentric,8,3.0,96814.0,228830.0,155948.0,218114.0,177924.0
2026-04-14 18:03:18.671979,708691,1609507292239802,4892209961,0.708576,0.509472,0.16592,2.5725,-38.98125,-47.18875,-30.624,10.792001,13.168,eccentric,8,3.0,94887.0,228917.0,155176.0,218530.0,176770.0
2026-04-14 18:03:18.673990,708692,1609507292248738,4892218770,0.708576,0.509472,0.16592,1.28625,-39.61125,-49.91875,-30.624,10.792001,13.168,eccentric,8,3.0,94887.0,228917.0,155176.0,218530.0,176770.0
2026-04-14 18:03:18.676701,708693,1609507292263243,4892231613,0.6832,0.50752,-0.066368,-0.455,-39.9875,-54.0225,-31.072002,10.504001,12.632001,eccentric,8,3.0,94887.0,228917.0,155176.0,218530.0,176770.0
2026-04-14 18:03:18.679584,708694,1609507292272421,4892242413,0.6832,0.50752,-0.066368,-3.5175,-42.315,-57.60125,-31.072002,10.504001,12.632001,eccentric,8,3.0,94887.0,228917.0,155176.0,218530.0,176770.0
2026-04-14 18:03:18.682032,708695,1609507292286971,4892257310,0.782752,0.462624,0.02928,-5.43375,-43.23375,-60.34875,-31.624,10.104,12.744,eccentric,8,3.0,94887.0,228917.0,155176.0,218530.0,176770.0
2026-04-14 18:03:18.684576,708696,1609507292295914,4892265992,0.782752,0.462624,0.02928,-7.6475,-44.26625,-62.11625,-31.624,10.104,12.744,eccentric,8,3.0,94887.0,228917.0,155176.0,218530.0,176770.0
2026-04-14 18:03:18.686549,708697,1609507292304854,4892274791,0.759328,0.499712,0.148352,-8.04125,-43.49625,-63.385002,-32.536003,9.320001,13.288001,eccentric,8,3.0,94887.0,228917.0,155176.0,218530.0,176770.0
2026-04-14 18:03:18.689537,708698,1609507292319385,4892289699,0.630496,0.54656,-0.115168,-5.46,-42.72625,-65.6425,-33.584003,9.088,13.72,eccentric,8,3.0,94887.0,228917.0,155176.0,218530.0,176770.0
2026-04-14 18:03:18.691622,708699,1609507292328342,4892298465,0.630496,0.54656,-0.115168,-2.0475,-43.4,-68.31125,-33.584003,9.088,13.72,eccentric,8,3.0,94887.0,228917.0,155176.0,218530.0,176770.0
2026-04-14 18:03:18.719694,708710,1609507292343107,4892313496,0.714432,0.51728,0.02928,-0.2625,-44.35375,-70.51625,-33.872,7.592001,11.176001,eccentric,8,3.0,91698.0,227344.0,152731.0,217335.0,173603.0
2026-04-14 18:03:18.722152,708711,1609507292352107,4892322221,0.714432,0.51728,0.02928,-1.4175,-45.4475,-72.6075,-33.872,7.592001,11.176001,eccentric,8,3.0,91698.0,227344.0,152731.0,217335.0,173603.0
2026-04-14 18:03:18.727853,708712,1609507292361076,4892330955,0.601216,0.560224,-0.015616,-4.27875,-46.27875,-74.43625,-33.568,6.696,11.088,eccentric,8,3.0,91698.0,227344.0,152731.0,217335.0,173603.0
2026-04-14 18:03:18.732050,708713,1609507292375662,4892345901,0.601216,0.560224,-0.015616,-3.31625,-47.03125,-76.93,-33.568,6.696,11.088,eccentric,8,3.0,91698.0,227344.0,152731.0,217335.0,173603.0
2026-04-14 18:03:18.740213,708714,1609507292384617,4892354598,0.694912,0.56608,0.050752,-1.60125,-47.1625,-80.4475,-34.328003,6.000001,9.928,eccentric,8,3.0,91698.0,227344.0,152731.0,217335.0,173603.0
2026-04-14 18:03:18.755788,708715,1609507292399225,4892369525,0.694912,0.616832,-0.040992,4.01625,-46.78625,-83.6675,-34.328003,6.000001,7.880001,eccentric,8,3.0,91698.0,227344.0,152731.0,217335.0,173603.0
2026-04-14 18:03:18.762962,708716,1609507292408172,4892378221,0.577792,0.616832,-0.040992,7.9975,-46.17375,-87.99875,-33.928,5.184,7.064,eccentric,8,3.0,91698.0,227344.0,152731.0,217335.0,173603.0
2026-04-14 18:03:18.778117,708717,1609507292422707,4892391077,0.54656,0.62464,-0.115168,10.24625,-47.11875,-90.7375,-35.176003,4.0,7.976,eccentric,8,3.0,91698.0,227344.0,152731.0,217335.0,173603.0
2026-04-14 18:03:18.789320,708718,1609507292431895,4892401832,0.54656,0.62464,-0.115168,10.01875,-47.95875,-93.7125,-35.176003,4.0,7.976,eccentric,8,3.0,91698.0,227344.0,152731.0,217335.0,173603.0
2026-04-14 18:03:18.816705,708729,1609507292440949,4892410620,0.607072,0.620736,-0.023424,7.5425,-49.201252,-97.055,-34.872,2.32,6.208,eccentric,8,3.0,87216.0,223922.0,148396.0,214299.0,168831.0
2026-04-14 18:03:18.819368,708730,1609507292455506,4892425505,0.607072,0.620736,-0.023424,6.09,-50.46125,-99.19,-34.872,2.32,6.208,eccentric,8,3.0,87216.0,223922.0,148396.0,214299.0,168831.0
2026-04-14 18:03:18.821868,708731,1609507292464456,4892434207,0.568032,0.638304,-0.05856,8.58375,-50.75,-101.745,-35.2,1.032,7.104001,eccentric,8,3.0,87216.0,223922.0,148396.0,214299.0,168831.0
2026-04-14 18:03:18.835421,708732,1609507292479030,4892449106,0.568032,0.638304,-0.05856,15.3125,-49.93625,-104.51875,-35.2,1.032,7.104001,eccentric,8,3.0,87216.0,223922.0,148396.0,214299.0,168831.0
2026-04-14 18:03:18.842729,708733,1609507292487957,4892457864,0.499712,0.665632,-0.208864,18.585001,-50.5225,-106.8375,-35.4,0.224,6.464,eccentric,8,3.0,87216.0,223922.0,148396.0,214299.0,168831.0
2026-04-14 18:03:18.851733,708734,1609507292497108,4892466567,0.499712,0.665632,-0.208864,20.36125,-50.89,-107.03,-35.4,0.224,6.464,eccentric,8,3.0,87216.0,223922.0,148396.0,214299.0,168831.0
2026-04-14 18:03:18.866771,708735,1609507292511762,4892481465,0.505568,0.718336,-0.015616,19.92375,-52.08,-109.935,-36.496002,-1.176,7.088,eccentric,8,3.0,87216.0,223922.0,148396.0,214299.0,168831.0
2026-04-14 18:03:18.878088,708736,1609507292520757,4892490186,0.402112,0.74176,-0.122976,17.272501,-54.635002,-113.18125,-36.312,-3.04,5.048,eccentric,8,3.0,87216.0,223922.0,148396.0,214299.0,168831.0
2026-04-14 18:03:18.914155,708747,1609507292535713,4892505363,0.402112,0.74176,-0.122976,17.815,-55.81625,-113.47,-36.312,-3.04,5.048,eccentric,8,3.0,82723.0,221167.0,143340.0,211529.0,163030.0
2026-04-14 18:03:18.916541,708748,1609507292544721,4892514107,0.376736,0.735904,-0.318176,21.97125,-56.56,-114.07375,-36.280003,-4.416,4.568,eccentric,8,3.0,82723.0,221167.0,143340.0,211529.0,163030.0
2026-04-14 18:03:18.920210,708749,1609507292553669,4892522780,0.376736,0.735904,-0.318176,27.973751,-56.90125,-115.0975,-36.280003,-4.416,4.568,eccentric,8,3.0,82723.0,221167.0,143340.0,211529.0,163030.0
2026-04-14 18:03:18.924072,708750,1609507292568292,4892537705,0.378688,0.812032,-0.083936,36.1025,-56.35875,-116.10375,-36.344,-5.848,3.336,eccentric,8,3.0,82723.0,221167.0,143340.0,211529.0,163030.0
2026-04-14 18:03:18.933563,708751,1609507292577338,4892546448,0.378688,0.812032,-0.083936,37.94875,-56.665,-118.16875,-36.344,-5.848,3.336,eccentric,8,3.0,82723.0,221167.0,143340.0,211529.0,163030.0
2026-04-14 18:03:18.966759,708752,1609507292591823,4892561387,0.2928,0.88816,-0.130784,32.48875,-57.260002,-118.8775,-36.264,-7.480001,3.328,eccentric,8,3.0,82723.0,221167.0,143340.0,211529.0,163030.0
2026-04-14 18:03:18.969336,708753,1609507292600917,4892570137,0.208864,0.827648,-0.42944,26.8275,-57.365,-118.8775,-36.352,-8.344001,2.352,eccentric,8,3.0,82723.0,221167.0,143340.0,211529.0,163030.0
2026-04-14 18:03:18.971823,708754,1609507292609982,4892578824,0.208864,0.827648,-0.42944,23.2575,-58.826252,-119.9975,-36.352,-8.344001,2.352,eccentric,8,3.0,82723.0,221167.0,143340.0,211529.0,163030.0
2026-04-14 18:03:18.996865,708755,1609507292624592,4892593739,0.20496,0.862784,-0.142496,25.5325,-60.12125,-120.19875,-36.688004,-10.136001,2.192,eccentric,8,3.0,82723.0,221167.0,143340.0,211529.0,163030.0
2026-04-14 18:03:18.999386,708756,1609507292633509,4892602452,0.20496,0.862784,-0.142496,36.35625,-58.91375,-120.19875,-36.688004,-10.136001,2.192,eccentric,8,3.0,82723.0,221167.0,143340.0,211529.0,163030.0
2026-04-14 18:03:19.030445,708767,1609507292648146,4892617549,0.193248,0.968192,-0.22448,43.75,-59.255,-121.10875,-36.552002,-11.368001,1.264,eccentric,8,3.0,71169.0,215647.0,130196.0,206310.0,148146.0
2026-04-14 18:03:19.035433,708768,1609507292657147,4892626245,0.193248,0.968192,-0.22448,39.576252,-60.865,-120.75875,-36.552002,-11.368001,1.264,eccentric,8,3.0,71169.0,215647.0,130196.0,206310.0,148146.0
2026-04-14 18:03:19.038216,708769,1609507292671679,4892641115,0.11712,0.952576,-0.238144,29.18125,-61.78375,-119.621254,-36.376003,-12.984,0.752,eccentric,8,3.0,71169.0,215647.0,130196.0,206310.0,148146.0
2026-04-14 18:03:19.038962,708770,1609507292680627,4892649924,0.11712,0.952576,-0.384544,15.35625,-64.60125,-119.60375,-36.376003,-12.984,0.752,eccentric,8,3.0,71169.0,215647.0,130196.0,206310.0,148146.0
2026-04-14 18:03:19.044207,708771,1609507292689602,4892658681,0.023424,0.874496,-0.384544,11.94375,-64.3825,-118.09875,-35.832,-13.960001,-0.272,eccentric,8,3.0,71169.0,215647.0,130196.0,206310.0,148146.0
2026-04-14 18:03:19.059360,708772,1609507292704104,4892673565,-0.060512,0.99552,-0.296704,18.165,-62.947502,-118.09875,-35.08,-15.488001,-0.848,eccentric,8,3.0,71169.0,215647.0,130196.0,206310.0,148146.0
2026-04-14 18:03:19.070593,708773,1609507292713072,4892682243,-0.060512,0.99552,-0.296704,29.3825,-60.38375,-118.7025,-35.08,-15.488001,-0.848,eccentric,8,3.0,71169.0,215647.0,130196.0,206310.0,148146.0
2026-04-14 18:03:19.081845,708774,1609507292727606,4892697186,-0.06832,1.032608,-0.212768,34.615,-59.08875,-119.91875,-33.640003,-16.992,-2.576,eccentric,8,3.0,71169.0,215647.0,130196.0,206310.0,148146.0
2026-04-14 18:03:19.114872,708785,1609507292737126,4892706480,-0.06832,1.032608,-0.212768,24.92,-60.5325,-120.7675,-33.640003,-16.992,-2.576,eccentric,8,3.0,63045.0,209882.0,120565.0,201191.0,137455.0
2026-04-14 18:03:19.118197,708786,1609507292746130,4892715310,-0.232288,0.94672,-0.413824,12.17125,-62.58875,-119.39375,-34.52,-18.416,-2.472,eccentric,8,3.0,63045.0,209882.0,120565.0,201191.0,137455.0
2026-04-14 18:03:19.119564,708787,1609507292760677,4892730309,-0.232288,0.94672,-0.413824,4.22625,-65.73875,-117.363754,-34.52,-18.416,-2.472,concentric,8,3.0,63045.0,209882.0,120565.0,201191.0,137455.0
2026-04-14 18:03:19.149235,708788,1609507292769640,4892739010,-0.208864,0.938912,-0.308416,7.37625,-65.33625,-116.305,-33.632,-19.408,-5.664,concentric,8,3.0,63045.0,209882.0,120565.0,201191.0,137455.0
2026-04-14 18:03:19.151678,708789,1609507292784182,4892753908,-0.279136,1.011136,-0.511424,17.57,-62.37875,-115.955,-32.640003,-20.864,-4.432,concentric,8,3.0,63045.0,209882.0,120565.0,201191.0,137455.0
2026-04-14 18:03:19.154225,708790,1609507292793094,4892762596,-0.279136,1.011136,-0.511424,22.96875,-60.0775,-115.15875,-32.640003,-20.864,-4.432,concentric,8,3.0,63045.0,209882.0,120565.0,201191.0,137455.0
2026-04-14 18:03:19.163003,708791,1609507292807631,4892777655,-0.242048,0.972096,-0.296704,19.7225,-58.72125,-113.51375,-31.512001,-21.560001,-4.56,concentric,8,3.0,63045.0,209882.0,120565.0,201191.0,137455.0
2026-04-14 18:03:19.171804,708792,1609507292816572,4892786337,-0.242048,0.972096,-0.296704,8.23375,-59.64,-114.205,-31.512001,-21.560001,-4.56,concentric,8,3.0,63045.0,209882.0,120565.0,201191.0,137455.0
2026-04-14 18:03:19.181604,708793,1609507292825557,4892795027,-0.368928,0.864736,-0.540704,0.07875,-60.33125,-114.07375,-30.864002,-23.096,-6.352,concentric,8,3.0,63045.0,209882.0,120565.0,201191.0,137455.0
2026-04-14 18:03:19.220454,708804,1609507292840354,4892810081,-0.368928,0.864736,-0.540704,1.67125,-60.33125,-112.2625,-30.864002,-23.096,-6.352,concentric,8,3.0,61445.0,212458.0,118344.0,203018.0,134783.0
2026-04-14 18:03:19.222976,708805,1609507292849361,4892818841,-0.359168,0.913536,-0.45872,11.40125,-59.28125,-109.31375,-29.624,-23.688002,-5.472,concentric,8,3.0,61445.0,212458.0,118344.0,203018.0,134783.0
2026-04-14 18:03:19.225483,708806,1609507292863933,4892833782,-0.318176,0.997472,-0.294752,16.59,-58.7825,-108.535,-28.848001,-24.616001,-6.728,concentric,8,3.0,61445.0,212458.0,118344.0,203018.0,134783.0
2026-04-14 18:03:19.228000,708807,1609507292872986,4892842513,-0.318176,0.997472,-0.294752,16.485,-58.61625,-108.465004,-28.848001,-24.616001,-6.728,concentric,8,3.0,61445.0,212458.0,118344.0,203018.0,134783.0
2026-04-14 18:03:19.237100,708808,1609507292882032,4892851220,-0.318176,0.997472,-0.472384,12.36375,-58.9575,-109.865,-28.848001,-24.616001,-6.728,concentric,8,3.0,61445.0,212458.0,118344.0,203018.0,134783.0
2026-04-14 18:03:19.252129,708809,1609507292896520,4892866103,-0.357216,0.894016,-0.472384,5.145,-58.765,-111.48375,-26.904001,-25.424002,-5.768,concentric,8,3.0,61445.0,212458.0,118344.0,203018.0,134783.0
2026-04-14 18:03:19.260919,708810,1609507292905483,4892874862,-0.445056,0.905728,-0.32208,4.24375,-57.82,-111.090004,-25.656002,-26.592001,-9.024,concentric,8,3.0,61445.0,212458.0,118344.0,203018.0,134783.0
2026-04-14 18:03:19.274349,708811,1609507292919986,4892889805,-0.445056,0.905728,-0.32208,11.83,-58.42375,-111.5975,-25.656002,-26.592001,-9.024,concentric,8,3.0,61445.0,212458.0,118344.0,203018.0,134783.0
2026-04-14 18:03:19.284690,708812,1609507292928996,4892898505,-0.441152,0.96624,-0.31232,19.52125,-58.3275,-110.94125,-25.008001,-27.304,-9.52,concentric,8,3.0,61445.0,212458.0,118344.0,203018.0,134783.0
2026-04-14 18:03:19.364675,708823,1609507292943675,4892913843,-0.501664,0.958432,-0.308416,17.885,-58.93125,-110.7925,-23.096,-28.36,-8.584001,concentric,8,3.0,62001.0,215469.0,119583.0,205840.0,136105.0
2026-04-14 18:03:19.366755,708824,1609507292952701,4892922777,-0.501664,0.958432,-0.308416,14.21,-58.70375,-110.88875,-23.096,-28.36,-8.584001,concentric,8,3.0,62001.0,215469.0,119583.0,205840.0,136105.0
2026-04-14 18:03:19.369311,708825,1609507292961767,4892931486,-0.501664,0.958432,-0.308416,10.325,-58.94875,-112.42,-23.096,-28.36,-8.584001,concentric,8,3.0,62001.0,215469.0,119583.0,205840.0,136105.0
2026-04-14 18:03:19.372183,708826,1609507292976264,4892946377,-0.54656,0.8296,-0.476288,11.235,-57.295002,-112.8925,-21.816002,-28.448002,-10.936001,concentric,8,3.0,62001.0,215469.0,119583.0,205840.0,136105.0
2026-04-14 18:03:19.374603,708827,1609507292985247,4892955080,-0.525088,0.81984,-0.324032,13.7025,-57.32125,-111.9125,-20.592001,-29.248001,-10.424001,concentric,8,3.0,62001.0,215469.0,119583.0,205840.0,136105.0
2026-04-14 18:03:19.377175,708828,1609507292999743,4892969947,-0.525088,0.81984,-0.324032,18.66375,-57.00625,-109.48,-20.592001,-29.248001,-10.424001,concentric,8,3.0,62001.0,215469.0,119583.0,205840.0,136105.0
2026-04-14 18:03:19.379505,708829,1609507293008906,4892978747,-0.628544,0.915488,-0.337696,22.741251,-57.93375,-108.027504,-20.024,-29.992,-11.144,concentric,8,3.0,62001.0,215469.0,119583.0,205840.0,136105.0
2026-04-14 18:03:19.382163,708830,1609507293017956,4892987456,-0.628544,0.915488,-0.337696,24.955,-59.920002,-107.28375,-20.024,-29.992,-11.144,concentric,8,3.0,62001.0,215469.0,119583.0,205840.0,136105.0
2026-04-14 18:03:19.387930,708831,1609507293032482,4893002377,-0.591456,0.899872,-0.244,25.69875,-60.94375,-108.15875,-18.368,-29.936,-11.448001,concentric,8,3.0,62001.0,215469.0,119583.0,205840.0,136105.0
2026-04-14 18:03:19.418313,708842,1609507293041645,4893011242,-0.591456,0.899872,-0.244,20.72875,-61.5125,-109.515,-18.368,-29.936,-11.448001,concentric,8,3.0,66049.0,220562.0,124901.0,210391.0,141809.0
2026-04-14 18:03:19.420440,708843,1609507293056272,4893026205,-0.659776,0.778848,-0.493856,16.21375,-61.075,-109.24375,-16.328001,-31.088001,-13.240001,concentric,8,3.0,66049.0,220562.0,124901.0,210391.0,141809.0
2026-04-14 18:03:19.423393,708844,1609507293065199,4893034889,-0.759328,0.765184,-0.515328,17.0625,-60.2,-108.7975,-14.352,-31.240002,-13.848001,concentric,8,3.0,66049.0,220562.0,124901.0,210391.0,141809.0
2026-04-14 18:03:19.429345,708845,1609507293074155,4893043590,-0.759328,0.765184,-0.515328,22.79375,-59.8675,-106.5925,-14.352,-31.240002,-13.848001,concentric,8,3.0,66049.0,220562.0,124901.0,210391.0,141809.0
2026-04-14 18:03:19.443391,708846,1609507293088652,4893058554,-0.710528,0.823744,-0.267424,27.335001,-60.8475,-103.92375,-13.024,-31.216002,-13.736001,concentric,8,3.0,66049.0,220562.0,124901.0,210391.0,141809.0
2026-04-14 18:03:19.453398,708847,1609507293097588,4893067254,-0.710528,0.823744,-0.267424,30.56375,-60.78625,-102.8475,-13.024,-31.216002,-13.736001,concentric,8,3.0,66049.0,220562.0,124901.0,210391.0,141809.0
2026-04-14 18:03:19.473477,708848,1609507293112090,4893082135,-0.757376,0.843264,-0.210816,30.51125,-59.47375,-103.32,-12.392,-31.304,-15.480001,concentric,8,3.0,66049.0,220562.0,124901.0,210391.0,141809.0
2026-04-14 18:03:19.475549,708849,1609507293121012,4893090852,-0.757376,0.843264,-0.210816,24.7975,-58.00375,-104.23,-12.392,-31.304,-15.480001,concentric,8,3.0,66049.0,220562.0,124901.0,210391.0,141809.0
2026-04-14 18:03:19.492212,708850,1609507293135537,4893105772,-0.827648,0.759328,-0.247904,17.22,-56.603752,-103.94125,-10.040001,-31.880001,-15.400001,concentric,8,3.0,66049.0,220562.0,124901.0,210391.0,141809.0
2026-04-14 18:03:19.519478,708861,1609507293144656,4893114559,-0.821792,0.655872,-0.316224,15.16375,-55.8775,-101.4825,-9.232,-31.440002,-14.856001,concentric,8,3.0,69167.0,224788.0,128647.0,213954.0,145768.0
2026-04-14 18:03:19.522155,708862,1609507293153670,4893123273,-0.821792,0.655872,-0.316224,18.2,-56.39375,-98.665,-9.232,-31.440002,-14.856001,concentric,8,3.0,69167.0,224788.0,128647.0,213954.0,145768.0
2026-04-14 18:03:19.524243,708863,1609507293168259,4893138214,-0.83936,0.747616,-0.31232,23.4325,-56.88375,-96.06625,-7.592001,-31.392002,-15.368001,concentric,8,3.0,69167.0,224788.0,128647.0,213954.0,145768.0
2026-04-14 18:03:19.533103,708864,1609507293177341,4893146995,-0.83936,0.747616,-0.31232,28.56875,-56.00875,-93.52,-7.592001,-31.392002,-15.368001,concentric,8,3.0,69167.0,224788.0,128647.0,213954.0,145768.0
2026-04-14 18:03:19.547158,708865,1609507293191856,4893161908,-0.886208,0.778848,-0.310368,28.35875,-54.03125,-93.94875,-6.000001,-31.752,-16.36,concentric,8,3.0,69167.0,224788.0,128647.0,213954.0,145768.0
2026-04-14 18:03:19.560935,708866,1609507293200816,4893170610,-0.886208,0.778848,-0.310368,19.38125,-51.415,-96.24125,-6.000001,-31.752,-16.36,concentric,8,3.0,69167.0,224788.0,128647.0,213954.0,145768.0
2026-04-14 18:03:19.567180,708867,1609507293209840,4893179443,-0.958432,0.700768,-0.245952,8.81125,-49.5775,-97.7025,-5.048,-31.488,-16.992,concentric,8,3.0,69167.0,224788.0,128647.0,213954.0,145768.0
2026-04-14 18:03:19.581778,708868,1609507293224342,4893194333,-0.958432,0.603168,-0.37088,4.2875,-48.02,-97.16,-5.048,-31.488,-16.992,concentric,8,3.0,69167.0,224788.0,128647.0,213954.0,145768.0
2026-04-14 18:03:19.587921,708869,1609507293233352,4893203058,-0.960384,0.603168,-0.37088,7.13125,-46.59375,-95.97,-2.56,-31.872002,-16.792002,concentric,8,3.0,69167.0,224788.0,128647.0,213954.0,145768.0
2026-04-14 18:03:19.618498,708880,1609507293248036,4893218045,-0.933056,0.632448,-0.220576,13.22125,-46.0075,-93.8525,-2.16,-31.328001,-16.400002,concentric,8,3.0,71613.0,227590.0,131967.0,216377.0,149438.0
2026-04-14 18:03:19.620643,708881,1609507293257005,4893226731,-0.933056,0.632448,-0.220576,16.66,-46.99625,-90.0375,-2.16,-31.328001,-16.400002,concentric,8,3.0,71613.0,227590.0,131967.0,216377.0,149438.0
2026-04-14 18:03:19.627181,708882,1609507293271543,4893241775,-0.95648,0.66368,-0.208864,15.9775,-47.5475,-86.28375,-0.936,-30.800001,-14.464001,concentric,8,3.0,71613.0,227590.0,131967.0,216377.0,149438.0
2026-04-14 18:03:19.635914,708883,1609507293280527,4893250478,-0.95648,0.66368,-0.208864,12.99375,-45.9025,-82.4425,-0.936,-30.800001,-14.464001,concentric,8,3.0,71613.0,227590.0,131967.0,216377.0,149438.0
2026-04-14 18:03:19.645913,708884,1609507293289485,4893259162,-1.00528,0.642208,-0.382592,10.08,-42.16625,-78.058754,0.448,-31.208002,-16.792002,concentric,8,3.0,71613.0,227590.0,131967.0,216377.0,149438.0
2026-04-14 18:03:19.662158,708885,1609507293304080,4893274045,-1.00528,0.642208,-0.382592,6.78125,-39.22625,-75.85375,0.448,-31.208002,-16.792002,concentric,8,3.0,71613.0,227590.0,131967.0,216377.0,149438.0
2026-04-14 18:03:19.668926,708886,1609507293313022,4893282762,-1.061888,0.616832,-0.452864,6.72875,-36.40875,-72.7125,1.52,-30.936,-19.808,concentric,8,3.0,71613.0,227590.0,131967.0,216377.0,149438.0
2026-04-14 18:03:19.723449,708887,1609507293327495,4893297659,-1.01504,0.597312,-0.421632,9.8525,-35.44625,-69.545,3.168,-30.944002,-18.448,concentric,8,3.0,71613.0,227590.0,131967.0,216377.0,149438.0
2026-04-14 18:03:19.728056,708888,1609507293336411,4893306367,-1.01504,0.597312,-0.421632,12.8275,-35.77875,-65.695,3.168,-30.944002,-18.448,concentric,8,3.0,71613.0,227590.0,131967.0,216377.0,149438.0
2026-04-14 18:03:19.755940,708899,1609507293350994,4893321269,-0.962336,0.650016,-0.1952,13.53625,-34.8425,-61.57375,3.52,-29.880001,-17.368,concentric,8,3.0,78069.0,231278.0,139690.0,219740.0,157642.0
2026-04-14 18:03:19.757879,708900,1609507293360092,4893329964,-0.962336,0.650016,-0.1952,12.43375,-33.5825,-57.67125,3.52,-29.880001,-17.368,concentric,8,3.0,78069.0,231278.0,139690.0,219740.0,157642.0
2026-04-14 18:03:19.762764,708901,1609507293369045,4893338694,-1.00528,0.679296,-0.339648,10.17625,-30.7125,-53.935,4.056,-29.720001,-17.2,concentric,8,3.0,78069.0,231278.0,139690.0,219740.0,157642.0
2026-04-14 18:03:19.790391,708902,1609507293383700,4893353695,-1.00528,0.679296,-0.339648,7.27125,-27.92125,-51.28375,4.056,-29.720001,-17.2,concentric,8,3.0,78069.0,231278.0,139690.0,219740.0,157642.0
2026-04-14 18:03:19.792771,708903,1609507293392820,4893362455,-1.003328,0.648064,-0.363072,2.24875,-26.22375,-49.0525,4.808,-29.688002,-17.400002,concentric,8,3.0,78069.0,231278.0,139690.0,219740.0,157642.0
2026-04-14 18:03:19.795295,708904,1609507293407338,4893377361,-1.016992,0.64416,-0.238144,-2.21375,-25.03375,-46.725,5.608,-29.528002,-18.832,concentric,8,3.0,78069.0,231278.0,139690.0,219740.0,157642.0
2026-04-14 18:03:19.797847,708905,1609507293416268,4893386051,-1.016992,0.64416,-0.238144,-3.85,-23.23125,-43.96,5.608,-29.528002,-18.832,concentric,8,3.0,78069.0,231278.0,139690.0,219740.0,157642.0
2026-04-14 18:03:19.802900,708906,1609507293425340,4893394788,-1.016992,0.64416,-0.210816,-2.49375,-19.2325,-39.94375,5.608,-29.528002,-18.832,concentric,8,3.0,78069.0,231278.0,139690.0,219740.0,157642.0
2026-04-14 18:03:19.830616,708917,1609507293439994,4893409716,-0.952576,0.636352,-0.210816,-0.49,-15.2425,-36.77625,6.920001,-29.832,-16.592001,concentric,8,3.0,76211.0,230775.0,137340.0,219138.0,154834.0
2026-04-14 18:03:19.832951,708918,1609507293449064,4893418573,-0.931104,0.610976,-0.296704,0.07875,-11.480001,-32.75125,6.944,-29.744001,-18.36,concentric,8,3.0,76211.0,230775.0,137340.0,219138.0,154834.0
2026-04-14 18:03:19.835805,708919,1609507293463742,4893433489,-0.931104,0.610976,-0.296704,-2.72125,-9.205,-29.26875,6.944,-29.744001,-18.36,concentric,8,3.0,76211.0,230775.0,137340.0,219138.0,154834.0
2026-04-14 18:03:19.837865,708920,1609507293472850,4893442185,-1.020896,0.62464,-0.398208,-5.34625,-7.70875,-25.2,7.56,-29.832,-18.968,concentric,8,3.0,76211.0,230775.0,137340.0,219138.0,154834.0
2026-04-14 18:03:19.840374,708921,1609507293481787,4893450929,-1.020896,0.62464,-0.398208,-8.015,-6.62375,-22.19875,7.56,-29.832,-18.968,concentric,8,3.0,76211.0,230775.0,137340.0,219138.0,154834.0
2026-04-14 18:03:19.852092,708922,1609507293496535,4893465867,-1.067744,0.603168,-0.306464,-11.22625,-6.01125,-20.13375,7.888001,-29.808,-17.936,concentric,8,3.0,76211.0,230775.0,137340.0,219138.0,154834.0
2026-04-14 18:03:19.861560,708923,1609507293505573,4893474700,-1.067744,0.603168,-0.306464,-11.94375,-3.98125,-17.9025,7.888001,-29.808,-17.936,concentric,8,3.0,76211.0,230775.0,137340.0,219138.0,154834.0
2026-04-14 18:03:19.875782,708924,1609507293520038,4893489599,-1.011136,0.603168,-0.130784,-11.7425,-2.07375,-14.945,6.808,-29.616001,-17.960001,concentric,8,3.0,76211.0,230775.0,137340.0,219138.0,154834.0
2026-04-14 18:03:19.885397,708925,1609507293528975,4893498326,-1.00528,0.591456,-0.355264,-13.1425,-1.12,-11.89125,8.0,-29.664001,-18.024,concentric,8,3.0,76211.0,230775.0,137340.0,219138.0,154834.0
2026-04-14 18:03:19.922142,708936,1609507293544123,4893513318,-1.00528,0.591456,-0.355264,-17.96375,-1.16375,-10.63125,8.0,-29.664001,-18.024,concentric,8,3.0,58125.0,213484.0,114725.0,203619.0,130632.0
2026-04-14 18:03:19.924125,708937,1609507293553218,4893522079,-0.977952,0.472384,-0.343552,-22.82875,-2.59,-9.68625,7.432,-29.568,-16.6,concentric,8,3.0,58125.0,213484.0,114725.0,203619.0,130632.0
2026-04-14 18:03:19.927161,708938,1609507293562737,4893532846,-0.977952,0.472384,-0.343552,-22.89875,-2.87875,-7.525,7.432,-29.568,-16.6,concentric,8,3.0,58125.0,213484.0,114725.0,203619.0,130632.0
2026-04-14 18:03:19.931692,708939,1609507293577366,4893545733,-1.056032,0.52704,-0.402112,-17.43875,-0.91,-4.3225,7.024,-29.496002,-16.576,concentric,8,3.0,58125.0,213484.0,114725.0,203619.0,130632.0
2026-04-14 18:03:19.943398,708940,1609507293586565,4893556501,-1.056032,0.636352,-0.18544,-10.535,1.4175,0.00875,7.024,-29.496002,-16.576,concentric,8,3.0,58125.0,213484.0,114725.0,203619.0,130632.0
2026-04-14 18:03:19.951698,708941,1609507293595496,4893565183,-0.942816,0.6344,-0.18544,-10.115,3.12375,2.33625,7.288001,-29.800001,-16.768002,concentric,8,3.0,58125.0,213484.0,114725.0,203619.0,130632.0
2026-04-14 18:03:19.965758,708942,1609507293610044,4893580173,-1.026752,0.57584,-0.35136,-16.1525,2.8875,3.15,7.768001,-29.992,-17.304,concentric,8,3.0,58125.0,213484.0,114725.0,203619.0,130632.0
2026-04-14 18:03:19.975773,708943,1609507293618980,4893588871,-1.026752,0.57584,-0.35136,-23.59875,1.5575,3.2725,7.768001,-29.992,-17.304,concentric,8,3.0,58125.0,213484.0,114725.0,203619.0,130632.0
2026-04-14 18:03:19.989634,708944,1609507293633608,4893603749,-0.993568,0.480192,-0.228384,-26.0575,1.7325,4.305,6.784,-30.04,-16.232,concentric,8,3.0,58125.0,213484.0,114725.0,203619.0,130632.0
2026-04-14 18:03:20.033074,708955,1609507293643105,4893612504,-0.993568,0.480192,-0.228384,-21.5425,4.80375,8.12875,6.784,-30.04,-16.232,concentric,8,3.0,52474.0,207737.0,106996.0,198458.0,122417.0
2026-04-14 18:03:20.035928,708956,1609507293652127,4893621244,-1.081408,0.601216,-0.384544,-13.18625,9.86125,12.87125,6.472,-29.880001,-15.224001,concentric,8,3.0,52474.0,207737.0,106996.0,198458.0,122417.0
2026-04-14 18:03:20.038303,708957,1609507293666844,4893636292,-1.081408,0.601216,-0.37088,-11.2525,13.58,14.91,6.472,-29.880001,-15.224001,concentric,8,3.0,52474.0,207737.0,106996.0,198458.0,122417.0
2026-04-14 18:03:20.040508,708958,1609507293675890,4893645053,-1.026752,0.583648,-0.37088,-14.9625,16.31875,16.35375,5.616,-30.112001,-12.880001,concentric,8,3.0,52474.0,207737.0,106996.0,198458.0,122417.0
2026-04-14 18:03:20.068272,708959,1609507293690483,4893660051,-1.003328,0.501664,-0.384544,-20.265,16.6775,15.95125,4.88,-30.264002,-14.64,concentric,8,3.0,52474.0,207737.0,106996.0,198458.0,122417.0
2026-04-14 18:03:20.093351,708960,1609507293699424,4893668772,-1.003328,0.501664,-0.384544,-20.90375,18.2175,18.3575,4.88,-30.264002,-14.64,concentric,8,3.0,52474.0,207737.0,106996.0,198458.0,122417.0
2026-04-14 18:03:20.095919,708961,1609507293708361,4893677516,-0.977952,0.525088,-0.218624,-17.325,21.11375,22.07625,4.408,-30.536001,-14.968,concentric,8,3.0,52474.0,207737.0,106996.0,198458.0,122417.0
2026-04-14 18:03:20.098001,708962,1609507293723048,4893692432,-0.977952,0.525088,-0.218624,-14.72625,24.1325,26.145,4.408,-30.536001,-14.968,concentric,8,3.0,52474.0,207737.0,106996.0,198458.0,122417.0
2026-04-14 18:03:20.103417,708963,1609507293732010,4893701114,-1.011136,0.646112,-0.083936,-13.64125,28.3325,31.5175,4.36,-30.728,-15.480001,concentric,8,3.0,52474.0,207737.0,106996.0,198458.0,122417.0
2026-04-14 18:03:20.130901,708974,1609507293746620,4893716191,-1.011136,0.646112,-0.083936,-13.53625,32.10375,32.87375,4.36,-30.728,-15.480001,concentric,8,3.0,48121.0,205217.0,101114.0,196513.0,116204.0
2026-04-14 18:03:20.133087,708975,1609507293755581,4893724899,-0.987712,0.601216,-0.124928,-16.00375,34.46625,31.84125,3.984,-30.968002,-15.336,concentric,8,3.0,48121.0,205217.0,101114.0,196513.0,116204.0
2026-04-14 18:03:20.135896,708976,1609507293764590,4893733654,-0.987712,0.601216,-0.124928,-21.62125,34.72,32.935,3.984,-30.968002,-15.336,concentric,8,3.0,48121.0,205217.0,101114.0,196513.0,116204.0
2026-04-14 18:03:20.140862,708977,1609507293779098,4893748554,-0.952576,0.40992,-0.162016,-22.8725,36.2425,37.1175,3.696,-31.336002,-15.248001,concentric,8,3.0,48121.0,205217.0,101114.0,196513.0,116204.0
2026-04-14 18:03:20.144757,708978,1609507293788111,4893757246,-1.136064,0.636352,-0.181536,-17.84125,40.32,44.7475,3.696,-31.336002,-15.496,concentric,8,3.0,48121.0,205217.0,101114.0,196513.0,116204.0
2026-04-14 18:03:20.157860,708979,1609507293802630,4893772209,-1.136064,0.636352,-0.181536,-8.365,45.28125,55.20375,1.952,-31.520002,-15.496,concentric,8,3.0,48121.0,205217.0,101114.0,196513.0,116204.0
2026-04-14 18:03:20.168275,708980,1609507293811774,4893780898,-1.06384,0.919392,-0.222528,-5.635,49.25375,55.58,1.24,-31.920002,-15.752001,concentric,8,3.0,48121.0,205217.0,101114.0,196513.0,116204.0
2026-04-14 18:03:20.180884,708981,1609507293826431,4893795828,-1.06384,0.919392,-0.222528,-15.46125,53.576252,45.920002,1.24,-31.920002,-15.752001,concentric,8,3.0,48121.0,205217.0,101114.0,196513.0,116204.0
2026-04-14 18:03:20.189374,708982,1609507293835362,4893804578,-1.065792,0.560224,-0.324032,-38.38625,56.420002,39.34875,1.152,-32.256,-15.224001,concentric,8,3.0,48121.0,205217.0,101114.0,196513.0,116204.0
2026-04-14 18:03:20.225911,708993,1609507293844923,4893813479,-1.065792,0.560224,-0.324032,-57.32125,56.34125,44.9925,1.152,-32.256,-15.224001,concentric,8,3.0,49450.0,209207.0,100960.0,199277.0,116486.0
2026-04-14 18:03:20.228420,708994,1609507293859984,4893828473,-1.116544,0.396256,-0.314272,-53.8125,55.53625,59.99,-0.432,-32.328003,-14.912001,concentric,8,3.0,49450.0,209207.0,100960.0,199277.0,116486.0
2026-04-14 18:03:20.230917,708995,1609507293869268,4893839255,-1.001376,0.774944,-0.42944,-22.61875,55.2825,78.54,-1.4,-32.392002,-14.832001,concentric,8,3.0,49450.0,209207.0,100960.0,199277.0,116486.0
2026-04-14 18:03:20.235152,708996,1609507293878218,4893848175,-1.001376,0.774944,-0.42944,-1.645,49.91,89.18875,-1.4,-32.392002,-14.832001,concentric,8,3.0,49450.0,209207.0,100960.0,199277.0,116486.0
2026-04-14 18:03:20.249147,708997,1609507293892947,4893863062,-0.874496,1.09312,-0.27328,-1.42625,43.715,89.5125,-3.528,-32.608,-14.584001,concentric,8,3.0,49450.0,209207.0,100960.0,199277.0,116486.0
2026-04-14 18:03:20.256513,708998,1609507293902083,4893871914,-0.874496,1.09312,-0.27328,-18.05125,43.1375,77.13125,-3.528,-32.608,-14.584001,concentric,8,3.0,49450.0,209207.0,100960.0,199277.0,116486.0
2026-04-14 18:03:20.272032,708999,1609507293916539,4893886852,-1.030656,0.6832,-0.335744,-51.66875,43.42625,69.4575,-5.976,-32.776,-12.496,concentric,8,3.0,49450.0,209207.0,100960.0,199277.0,116486.0
2026-04-14 18:03:20.283212,709000,1609507293925623,4893895521,-1.030656,0.6832,-0.335744,-76.16875,41.34375,73.902504,-5.976,-32.776,-12.496,concentric,8,3.0,49450.0,209207.0,100960.0,199277.0,116486.0
2026-04-14 18:03:20.290508,709001,1609507293934720,4893904210,-1.030656,0.484096,-0.3904,-71.0325,39.01625,82.3725,-5.376,-33.056,-12.632001,concentric,8,3.0,49450.0,209207.0,100960.0,199277.0,116486.0
2026-04-14 18:03:20.328925,709012,1609507293949286,4893919486,-0.886208,0.948672,-0.417728,-46.52375,38.01875,92.5925,-5.376,-32.856003,-13.472001,concentric,8,3.0,50199.0,202672.0,100182.0,193286.0,116083.0
2026-04-14 18:03:20.330369,709013,1609507293958239,4893928434,-0.886208,0.948672,-0.417728,-22.93375,38.5,99.5225,-7.248,-32.856003,-13.472001,concentric,8,3.0,50199.0,202672.0,100182.0,193286.0,116083.0
2026-04-14 18:03:20.336136,709014,1609507293972943,4893941323,-0.69296,0.970144,-0.197152,-27.20375,36.9775,96.88875,-8.584001,-33.072002,-10.544001,concentric,8,3.0,50199.0,202672.0,100182.0,193286.0,116083.0
2026-04-14 18:03:20.339271,709015,1609507293982205,4893952201,-0.69296,0.970144,-0.197152,-53.45375,34.615,91.84875,-8.584001,-33.072002,-10.544001,concentric,8,3.0,50199.0,202672.0,100182.0,193286.0,116083.0
2026-04-14 18:03:20.347002,709016,1609507293991164,4893960884,-0.80032,0.568032,-0.265472,-79.54625,34.1775,89.81875,-10.808001,-32.928,-9.184,concentric,8,3.0,50199.0,202672.0,100182.0,193286.0,116083.0
2026-04-14 18:03:20.360810,709017,1609507294005695,4893975853,-0.80032,0.568032,-0.265472,-85.56625,35.07875,94.85875,-10.808001,-32.928,-9.184,concentric,8,3.0,50199.0,202672.0,100182.0,193286.0,116083.0
2026-04-14 18:03:20.369463,709018,1609507294014745,4893984562,-0.94672,0.806176,-0.345504,-70.06125,36.47,103.74,-11.496,-33.120003,-9.768001,concentric,8,3.0,50199.0,202672.0,100182.0,193286.0,116083.0
2026-04-14 18:03:20.385582,709019,1609507294029259,4893999459,-0.94672,0.806176,-0.085888,-50.5925,35.35,108.87625,-11.496,-33.120003,-9.768001,concentric,8,3.0,50199.0,202672.0,100182.0,193286.0,116083.0
2026-04-14 18:03:20.399615,709020,1609507294038191,4894008148,-0.767136,1.040416,-0.085888,-48.3525,30.66875,108.0625,-13.376,-32.84,-8.992001,concentric,8,3.0,50199.0,202672.0,100182.0,193286.0,116083.0
2026-04-14 18:03:20.498084,709031,1609507294052990,4894023140,-0.708576,0.728096,-0.304512,-67.5325,27.6325,101.1325,-15.216001,-32.072002,-5.808,concentric,8,3.0,54172.0,204031.0,105238.0,194966.0,122267.0
2026-04-14 18:03:20.500585,709032,1609507294061945,4894031932,-0.708576,0.728096,-0.304512,-87.70125,30.161251,98.595,-15.216001,-32.072002,-5.808,concentric,8,3.0,54172.0,204031.0,105238.0,194966.0,122267.0
2026-04-14 18:03:20.503033,709033,1609507294070894,4894040634,-0.72224,0.743712,-0.191296,-83.5975,38.21125,103.1975,-17.568,-31.496002,-5.584,concentric,8,3.0,54172.0,204031.0,105238.0,194966.0,122267.0
2026-04-14 18:03:20.505595,709034,1609507294085424,4894055532,-0.72224,0.743712,-0.191296,-67.0425,44.70375,109.20875,-17.568,-31.496002,-5.584,concentric,8,3.0,54172.0,204031.0,105238.0,194966.0,122267.0
2026-04-14 18:03:20.507899,709035,1609507294094404,4894064261,-0.735904,1.069696,-0.288896,-55.44,45.43,113.96875,-18.904001,-31.160002,-3.952,concentric,8,3.0,54172.0,204031.0,105238.0,194966.0,122267.0
2026-04-14 18:03:20.510565,709036,1609507294108904,4894079163,-0.735904,1.069696,-0.288896,-51.35375,42.2625,110.20625,-18.904001,-31.160002,-3.952,concentric,8,3.0,54172.0,204031.0,105238.0,194966.0,122267.0
2026-04-14 18:03:20.514170,709037,1609507294117988,4894087895,-0.5368,0.981856,0.025376,-51.1,41.685,99.6625,-19.872002,-31.168001,-3.96,concentric,8,3.0,54172.0,204031.0,105238.0,194966.0,122267.0
2026-04-14 18:03:20.515348,709038,1609507294127039,4894096575,-0.5368,0.981856,0.025376,-62.3525,45.45625,89.95,-19.872002,-31.168001,-3.96,concentric,8,3.0,54172.0,204031.0,105238.0,194966.0,122267.0
2026-04-14 18:03:20.520271,709039,1609507294141529,4894111532,-0.657824,0.774944,-0.443104,-64.715004,53.47125,90.88625,-20.776001,-30.880001,-3.04,concentric,8,3.0,54172.0,204031.0,105238.0,194966.0,122267.0
2026-04-14 18:03:20.548092,709050,1609507294150505,4894120280,-0.661728,0.813984,-0.482144,-59.955,55.545002,95.94375,-20.776001,-28.832,-2.744,concentric,8,3.0,55669.0,201817.0,106473.0,192874.0,123667.0
2026-04-14 18:03:20.550571,709051,1609507294165202,4894135352,-0.661728,0.813984,-0.482144,-51.170002,51.49375,107.835,-22.04,-29.912,-2.744,concentric,8,3.0,55669.0,201817.0,106473.0,192874.0,123667.0
2026-04-14 18:03:20.553098,709052,1609507294174266,4894144067,-0.501664,0.909632,-0.437248,-41.965,45.2375,115.15,-23.352001,-28.992,-1.208,concentric,8,3.0,55669.0,201817.0,106473.0,192874.0,123667.0
2026-04-14 18:03:20.555530,709053,1609507294183349,4894152950,-0.501664,0.909632,-0.437248,-38.0275,42.105,118.11625,-23.352001,-28.992,-1.208,concentric,8,3.0,55669.0,201817.0,106473.0,192874.0,123667.0
2026-04-14 18:03:20.557912,709054,1609507294198036,4894168314,-0.51728,0.886208,-0.353312,-35.9625,43.23375,116.87375,-24.232,-27.880001,-0.696,concentric,8,3.0,55669.0,201817.0,106473.0,192874.0,123667.0
2026-04-14 18:03:20.562778,709055,1609507294206978,4894177007,-0.51728,0.886208,-0.353312,-37.21375,47.34625,115.54375,-24.232,-27.880001,-0.696,concentric,8,3.0,55669.0,201817.0,106473.0,192874.0,123667.0
