pc_time,serial_num,sensor_ts,host_ts,ax,ay,az,gx,gy,gz,mx,my,mz,phase,rpe,weight_kg,ppg_a,ppg_b,ppg_c,ppg_d,ppg_e
2026-04-14 18:02:59.645060,705123,1609507273287848,4873257660,-0.417728,0.737856,-0.538752,24.29,-59.52625,-108.2375,-23.888,-26.344002,-9.904,concentric,8,3.0,42693.0,184449.0,93585.0,181551.0,107967.0
2026-04-14 18:02:59.656511,705124,1609507273302405,4873272682,-0.501664,1.020896,-0.50752,44.72125,-54.06625,-109.3925,-23.12,-26.808,-12.960001,concentric,8,3.0,42693.0,184449.0,93585.0,181551.0,107967.0
2026-04-14 18:02:59.665312,705125,1609507273311333,4873281399,-0.501664,1.020896,-0.50752,50.155,-54.53,-109.3225,-23.12,-26.808,-12.960001,concentric,8,3.0,42693.0,184449.0,93585.0,181551.0,107967.0
2026-04-14 18:02:59.675349,705126,1609507273320340,4873290140,-0.528992,0.802272,-0.474336,34.36125,-59.87625,-109.54125,-21.856,-27.776001,-13.568001,concentric,8,3.0,42693.0,184449.0,93585.0,181551.0,107967.0
2026-04-14 18:02:59.709178,705137,1609507273334945,4873305139,-0.528992,0.802272,-0.474336,11.08625,-65.5025,-110.24125,-21.856,-27.776001,-13.568001,concentric,8,3.0,39497.0,185811.0,88820.0,182989.0,102752.0
2026-04-14 18:02:59.711722,705138,1609507273344058,4873313895,-0.571936,0.56608,-0.523136,4.76875,-66.01875,-108.08,-19.392,-28.680002,-15.064001,concentric,8,3.0,39497.0,185811.0,88820.0,182989.0,102752.0
2026-04-14 18:02:59.714309,705139,1609507273358659,4873328800,-0.708576,0.874496,-0.61488,23.56375,-62.326252,-105.49,-18.056002,-28.712002,-16.504002,concentric,8,3.0,39497.0,185811.0,88820.0,182989.0,102752.0
2026-04-14 18:02:59.721640,705140,1609507273367604,4873337513,-0.708576,0.874496,-0.61488,44.8875,-56.2275,-103.78375,-18.056002,-28.712002,-16.504002,concentric,8,3.0,39497.0,185811.0,88820.0,182989.0,102752.0
2026-04-14 18:02:59.732751,705141,1609507273376560,4873346202,-0.708576,0.874496,-0.61488,54.06625,-53.8825,-103.32875,-18.056002,-28.712002,-16.504002,concentric,8,3.0,39497.0,185811.0,88820.0,182989.0,102752.0
2026-04-14 18:02:59.746470,705142,1609507273391268,4873361103,-0.591456,0.915488,-0.534848,44.12625,-55.1425,-105.8925,-17.032001,-28.704,-13.824,concentric,8,3.0,39497.0,185811.0,88820.0,182989.0,102752.0
2026-04-14 18:02:59.754144,705143,1609507273400242,4873369866,-0.737856,0.67344,-0.499712,28.0875,-57.33875,-106.855,-15.976001,-28.928001,-17.232,concentric,8,3.0,39497.0,185811.0,88820.0,182989.0,102752.0
2026-04-14 18:02:59.769191,705144,1609507273414852,4873384771,-0.737856,0.67344,-0.499712,19.32,-60.55875,-106.07625,-15.976001,-28.928001,-17.232,concentric,8,3.0,39497.0,185811.0,88820.0,182989.0,102752.0
2026-04-14 18:02:59.777844,705145,1609507273423847,4873393467,-0.739808,0.675392,-0.368928,24.1675,-62.16875,-103.8975,-13.6,-29.248001,-18.28,concentric,8,3.0,39497.0,185811.0,88820.0,182989.0,102752.0
2026-04-14 18:02:59.809530,705156,1609507273438420,4873408392,-0.72224,0.837408,-0.402112,40.06625,-61.4425,-99.54875,-13.6,-29.272001,-20.824001,concentric,8,3.0,37989.0,184967.0,86104.0,181368.0,99668.0
2026-04-14 18:02:59.811772,705157,1609507273447364,4873417129,-0.72224,0.837408,-0.402112,49.1575,-60.9875,-97.72875,-12.256001,-29.272001,-20.824001,concentric,8,3.0,37989.0,184967.0,86104.0,181368.0,99668.0
2026-04-14 18:02:59.814520,705158,1609507273456329,4873425810,-0.72224,0.837408,-0.402112,46.5325,-60.76875,-98.665,-12.256001,-29.272001,-20.824001,concentric,8,3.0,37989.0,184967.0,86104.0,181368.0,99668.0
2026-04-14 18:02:59.825816,705159,1609507273470894,4873440766,-0.794464,0.86864,-0.38064,35.49,-60.01625,-101.4125,-10.304001,-29.816002,-18.752,concentric,8,3.0,37989.0,184967.0,86104.0,181368.0,99668.0
2026-04-14 18:02:59.857786,705160,1609507273479837,4873449495,-0.890112,0.618784,-0.52704,24.7975,-59.22,-103.7575,-9.752001,-29.376001,-19.856,concentric,8,3.0,37989.0,184967.0,86104.0,181368.0,99668.0
2026-04-14 18:02:59.860687,705161,1609507273494343,4873464396,-0.890112,0.618784,-0.52704,13.85125,-59.482502,-104.0375,-9.752001,-29.376001,-19.856,concentric,8,3.0,37989.0,184967.0,86104.0,181368.0,99668.0
2026-04-14 18:02:59.863112,705162,1609507273503295,4873473088,-0.864736,0.564128,-0.32208,17.52625,-58.03875,-99.7675,-8.232,-29.12,-20.088001,concentric,8,3.0,37989.0,184967.0,86104.0,181368.0,99668.0
2026-04-14 18:02:59.889347,705163,1609507273512318,4873481821,-0.864736,0.564128,-0.32208,27.71125,-55.7725,-95.0425,-8.232,-29.12,-20.088001,concentric,8,3.0,37989.0,184967.0,86104.0,181368.0,99668.0
2026-04-14 18:02:59.894893,705164,1609507273526797,4873496732,-0.8296,0.74176,-0.423584,35.2275,-54.0225,-89.32875,-6.136,-29.376001,-21.288,concentric,8,3.0,37989.0,184967.0,86104.0,181368.0,99668.0
2026-04-14 18:02:59.966600,705175,1609507273535707,4873505631,-0.8296,0.74176,-0.423584,33.32,-54.31125,-86.14375,-6.136,-29.376001,-21.288,concentric,8,3.0,37691.0,182345.0,85591.0,178969.0,99290.0
2026-04-14 18:02:59.969196,705176,1609507273550461,4873520569,-0.8296,0.735904,-0.335744,24.57,-55.4575,-86.371254,-5.592001,-29.008001,-19.872002,concentric,8,3.0,37691.0,182345.0,85591.0,178969.0,99290.0
2026-04-14 18:02:59.971556,705177,1609507273559568,4873529245,-0.958432,0.562176,-0.44896,14.4725,-55.107502,-87.185,-4.272,-28.784002,-19.408,concentric,8,3.0,37691.0,182345.0,85591.0,178969.0,99290.0
2026-04-14 18:02:59.974119,705178,1609507273574105,4873544206,-0.958432,0.562176,-0.44896,9.511251,-54.25875,-86.0475,-4.272,-28.784002,-19.408,concentric,8,3.0,37691.0,182345.0,85591.0,178969.0,99290.0
2026-04-14 18:02:59.976701,705179,1609507273583194,4873552894,-0.970144,0.593408,-0.491904,12.9675,-52.43875,-83.6325,-3.52,-28.496002,-19.928001,concentric,8,3.0,37691.0,182345.0,85591.0,178969.0,99290.0
2026-04-14 18:02:59.979220,705180,1609507273592266,4873561636,-0.970144,0.593408,-0.491904,19.55625,-50.96875,-78.61,-3.52,-28.496002,-19.928001,concentric,8,3.0,37691.0,182345.0,85591.0,178969.0,99290.0
2026-04-14 18:02:59.981423,705181,1609507273606741,4873576579,-0.931104,0.66368,-0.515328,23.45,-51.40625,-74.97875,-2.6,-27.920002,-20.320002,concentric,8,3.0,37691.0,182345.0,85591.0,178969.0,99290.0
2026-04-14 18:02:59.984157,705182,1609507273615697,4873585274,-0.931104,0.66368,-0.515328,19.59125,-54.0575,-73.115,-2.6,-27.920002,-20.320002,concentric,8,3.0,37691.0,182345.0,85591.0,178969.0,99290.0
2026-04-14 18:03:00.014108,705193,1609507273631073,4873600860,-0.931104,0.581696,-0.499712,12.03125,-55.475,-71.575,-0.944,-28.192001,-21.224,concentric,8,3.0,38286.0,181099.0,86388.0,178032.0,100267.0
2026-04-14 18:03:00.016502,705194,1609507273640352,4873609778,-0.991616,0.521184,-0.42944,7.4375,-55.072502,-69.527504,0.64,-27.856,-21.976002,concentric,8,3.0,38286.0,181099.0,86388.0,178032.0,100267.0
2026-04-14 18:03:00.018900,705195,1609507273649278,4873618551,-0.991616,0.521184,-0.42944,6.93,-52.22,-66.78875,0.64,-27.856,-21.976002,concentric,8,3.0,38286.0,181099.0,86388.0,178032.0,100267.0
2026-04-14 18:03:00.021323,705196,1609507273663927,4873633468,-1.003328,0.577792,-0.378688,12.60875,-48.16,-61.87125,1.704,-27.536001,-21.416,concentric,8,3.0,38286.0,181099.0,86388.0,178032.0,100267.0
2026-04-14 18:03:00.027814,705197,1609507273672881,4873642164,-1.003328,0.577792,-0.378688,13.65,-45.263752,-57.68875,1.704,-27.536001,-21.416,concentric,8,3.0,38286.0,181099.0,86388.0,178032.0,100267.0
2026-04-14 18:03:00.044030,705198,1609507273687325,4873657075,-1.085312,0.628544,-0.480192,9.26625,-43.0325,-53.20875,2.792,-27.720001,-20.416,concentric,8,3.0,38286.0,181099.0,86388.0,178032.0,100267.0
2026-04-14 18:03:00.052848,705199,1609507273696258,4873665774,-1.085312,0.628544,-0.480192,4.24375,-42.420002,-49.7875,2.792,-27.720001,-20.416,concentric,8,3.0,38286.0,181099.0,86388.0,178032.0,100267.0
2026-04-14 18:03:00.059112,705200,1609507273705166,4873674476,-1.01504,0.589504,-0.548512,1.47,-41.50125,-48.2475,3.368,-28.032001,-22.800001,concentric,8,3.0,38286.0,181099.0,86388.0,178032.0,100267.0
2026-04-14 18:03:00.075436,705201,1609507273719646,4873689398,-1.01504,0.589504,-0.499712,-2.65125,-41.195,-46.97,3.368,-28.032001,-22.800001,concentric,8,3.0,38286.0,181099.0,86388.0,178032.0,100267.0
2026-04-14 18:03:00.084226,705202,1609507273728567,4873698086,-0.976,0.521184,-0.499712,-6.3,-39.515,-45.59625,5.432,-28.112001,-22.688002,concentric,8,3.0,38286.0,181099.0,86388.0,178032.0,100267.0
2026-04-14 18:03:00.116589,705213,1609507273743147,4873712997,-1.048224,0.548512,-0.382592,-5.8975,-38.15875,-42.77875,5.936,-27.640001,-22.112001,concentric,8,3.0,39172.0,182446.0,87566.0,179178.0,101670.0
2026-04-14 18:03:00.118997,705214,1609507273752179,4873721729,-1.048224,0.548512,-0.382592,-2.87,-37.345,-39.36625,5.936,-27.640001,-22.112001,concentric,8,3.0,39172.0,182446.0,87566.0,179178.0,101670.0
2026-04-14 18:03:00.124352,705215,1609507273766821,4873736711,-0.981856,0.523136,-0.411872,-2.12625,-36.4525,-36.28625,6.344,-27.352001,-22.320002,concentric,8,3.0,39172.0,182446.0,87566.0,179178.0,101670.0
2026-04-14 18:03:00.130396,705216,1609507273775786,4873745416,-0.981856,0.523136,-0.411872,-2.03,-34.02875,-33.78375,6.344,-27.352001,-22.320002,concentric,8,3.0,39172.0,182446.0,87566.0,179178.0,101670.0
2026-04-14 18:03:00.138607,705217,1609507273784904,4873754132,-1.06384,0.568032,-0.474336,-0.595,-30.98375,-31.89375,6.488,-27.176,-22.68,concentric,8,3.0,39172.0,182446.0,87566.0,179178.0,101670.0
2026-04-14 18:03:00.154415,705218,1609507273799419,4873769034,-1.06384,0.568032,-0.474336,-1.3825,-29.25125,-30.905,6.488,-27.176,-22.68,concentric,8,3.0,39172.0,182446.0,87566.0,179178.0,101670.0
2026-04-14 18:03:00.163285,705219,1609507273808353,4873777727,-0.98576,0.540704,-0.310368,-6.32625,-28.69125,-29.9075,6.440001,-27.352001,-22.056002,concentric,8,3.0,39172.0,182446.0,87566.0,179178.0,101670.0
2026-04-14 18:03:00.178284,705220,1609507273822856,4873792630,-0.987712,0.46848,-0.501664,-9.42375,-28.630001,-27.88625,7.896,-27.328001,-22.168001,concentric,8,3.0,39172.0,182446.0,87566.0,179178.0,101670.0
2026-04-14 18:03:00.277049,705231,1609507273832206,4873801562,-0.987712,0.46848,-0.501664,-6.335,-28.455,-23.26625,7.896,-27.328001,-22.168001,concentric,8,3.0,40263.0,182622.0,88906.0,179178.0,103233.0
2026-04-14 18:03:00.279464,705232,1609507273841309,4873810398,-0.944768,0.523136,-0.357216,-1.505,-27.0725,-18.935,8.288,-26.872002,-20.384,concentric,8,3.0,40263.0,182622.0,88906.0,179178.0,103233.0
2026-04-14 18:03:00.282119,705233,1609507273855836,4873825321,-0.944768,0.523136,-0.357216,-1.14625,-26.495,-17.07125,8.288,-26.872002,-20.384,concentric,8,3.0,40263.0,182622.0,88906.0,179178.0,103233.0
2026-04-14 18:03:00.284483,705234,1609507273864852,4873834015,-0.96624,0.435296,-0.404064,-4.7075,-25.59375,-17.0275,8.728001,-27.36,-21.12,concentric,8,3.0,40263.0,182622.0,88906.0,179178.0,103233.0
2026-04-14 18:03:00.287034,705235,1609507273879341,4873848920,-0.96624,0.435296,-0.404064,-8.28625,-23.7475,-16.47625,8.728001,-27.36,-21.12,concentric,8,3.0,40263.0,182622.0,88906.0,179178.0,103233.0
2026-04-14 18:03:00.289627,705236,1609507273888255,4873857602,-0.974048,0.40016,-0.415776,-6.7025,-20.895,-14.455,7.68,-27.216002,-21.768002,concentric,8,3.0,40263.0,182622.0,88906.0,179178.0,103233.0
2026-04-14 18:03:00.291620,705237,1609507273897212,4873866309,-0.974048,0.40016,-0.415776,-1.96,-16.91375,-11.585,7.68,-27.216002,-21.768002,concentric,8,3.0,40263.0,182622.0,88906.0,179178.0,103233.0
2026-04-14 18:03:00.294539,705238,1609507273911739,4873881224,-0.954528,0.41968,-0.4392,0.3325,-14.83125,-8.6975,7.920001,-26.504002,-20.656,concentric,8,3.0,40263.0,182622.0,88906.0,179178.0,103233.0
2026-04-14 18:03:00.297030,705239,1609507273920843,4873889933,-0.954528,0.41968,-0.314272,-0.0175,-13.53625,-6.9475,7.920001,-26.504002,-20.656,concentric,8,3.0,40263.0,182622.0,88906.0,179178.0,103233.0
2026-04-14 18:03:00.326954,705250,1609507273935516,4873905011,-0.913536,0.40016,-0.316224,0.49,-11.7775,-5.46,7.824,-26.944002,-19.408,concentric,8,3.0,41742.0,183752.0,91082.0,180247.0,105680.0
2026-04-14 18:03:00.329441,705251,1609507273944624,4873913714,-1.016992,0.42944,-0.441152,2.975,-9.7475,-3.85875,8.056001,-26.784,-20.488,concentric,8,3.0,41742.0,183752.0,91082.0,180247.0,105680.0
2026-04-14 18:03:00.331950,705252,1609507273959142,4873928620,-1.016992,0.42944,-0.441152,4.55875,-8.25125,-3.64875,8.056001,-26.784,-20.488,concentric,8,3.0,41742.0,183752.0,91082.0,180247.0,105680.0
2026-04-14 18:03:00.334412,705253,1609507273968084,4873937458,-1.042368,0.464576,-0.333792,4.19125,-8.3475,-4.24375,8.04,-26.528002,-19.776001,concentric,8,3.0,41742.0,183752.0,91082.0,180247.0,105680.0
2026-04-14 18:03:00.337024,705254,1609507273977010,4873946149,-1.042368,0.464576,-0.333792,2.56375,-7.97125,-4.9,8.04,-26.528002,-19.776001,concentric,8,3.0,41742.0,183752.0,91082.0,180247.0,105680.0
2026-04-14 18:03:00.346627,705255,1609507273991551,4873961129,-1.050176,0.372832,-0.415776,0.5425,-7.23625,-5.34625,7.440001,-26.760002,-19.904001,concentric,8,3.0,41742.0,183752.0,91082.0,180247.0,105680.0
2026-04-14 18:03:00.354530,705256,1609507274000525,4873969859,-1.050176,0.372832,-0.415776,0.93625,-6.4225,-5.32,7.440001,-26.760002,-19.904001,concentric,8,3.0,41742.0,183752.0,91082.0,180247.0,105680.0
2026-04-14 18:03:00.369508,705257,1609507274015041,4873984781,-0.950624,0.363072,-0.189344,4.27,-5.11875,-4.12125,8.968,-27.056002,-20.848001,concentric,8,3.0,41742.0,183752.0,91082.0,180247.0,105680.0
2026-04-14 18:03:00.380773,705258,1609507274024034,4873993479,-0.95648,0.363072,-0.294752,8.198751,-3.21125,-2.05625,8.232,-26.664001,-21.704,concentric,8,3.0,41742.0,183752.0,91082.0,180247.0,105680.0
2026-04-14 18:03:00.416449,705269,1609507274033356,4874002704,-0.95648,0.363072,-0.294752,8.155,-2.38,-1.93375,8.232,-26.664001,-21.704,concentric,8,3.0,42848.0,187175.0,92824.0,183215.0,107723.0
2026-04-14 18:03:00.419400,705270,1609507274047952,4874017753,-1.011136,0.349408,-0.386496,6.27375,-1.33875,-1.98625,8.184,-26.744001,-21.104,concentric,8,3.0,42848.0,187175.0,92824.0,183215.0,107723.0
2026-04-14 18:03:00.421918,705271,1609507274056974,4874026449,-1.011136,0.349408,-0.386496,4.41,-0.41125,-2.12625,8.184,-26.744001,-21.104,concentric,8,3.0,42848.0,187175.0,92824.0,183215.0,107723.0
2026-04-14 18:03:00.426615,705272,1609507274071475,4874041358,-0.972096,0.327936,-0.288896,3.66625,0.55125,-2.52875,8.176001,-26.480001,-21.376001,concentric,8,3.0,42848.0,187175.0,92824.0,183215.0,107723.0
2026-04-14 18:03:00.434026,705273,1609507274080482,4874050140,-0.972096,0.327936,-0.288896,4.6375,1.91625,-2.8525,8.176001,-26.480001,-21.376001,concentric,8,3.0,42848.0,187175.0,92824.0,183215.0,107723.0
2026-04-14 18:03:00.450127,705274,1609507274094981,4874065041,-1.048224,0.335744,-0.355264,4.83,1.8725,-2.9925,8.992001,-26.968,-22.664001,concentric,8,3.0,42848.0,187175.0,92824.0,183215.0,107723.0
2026-04-14 18:03:00.460082,705275,1609507274104127,4874073737,-1.022848,0.320128,-0.378688,5.67875,1.70625,-2.77375,8.64,-26.544,-21.872002,concentric,8,3.0,42848.0,187175.0,92824.0,183215.0,107723.0
2026-04-14 18:03:00.468207,705276,1609507274113196,4874082442,-1.022848,0.320128,-0.378688,6.0375,2.17,-3.40375,8.64,-26.544,-21.872002,concentric,8,3.0,42848.0,187175.0,92824.0,183215.0,107723.0
2026-04-14 18:03:00.483359,705277,1609507274127729,4874097372,-1.036512,0.31232,-0.337696,4.97,2.17875,-2.87,9.200001,-26.448002,-22.712002,concentric,8,3.0,42848.0,187175.0,92824.0,183215.0,107723.0
2026-04-14 18:03:00.513119,705288,1609507274136851,4874106198,-1.036512,0.31232,-0.337696,4.34875,2.0825,-2.75625,9.200001,-26.448002,-22.712002,concentric,8,3.0,44041.0,189788.0,94454.0,185187.0,109601.0
2026-04-14 18:03:00.515608,705289,1609507274151569,4874121242,-1.040416,0.335744,-0.199104,4.99625,2.94875,-2.45875,7.792,-26.208002,-20.800001,concentric,8,3.0,44041.0,189788.0,94454.0,185187.0,109601.0
2026-04-14 18:03:00.517660,705290,1609507274160522,4874129947,-1.040416,0.335744,-0.199104,6.16,3.61375,-2.205,7.792,-26.208002,-20.800001,concentric,8,3.0,44041.0,189788.0,94454.0,185187.0,109601.0
2026-04-14 18:03:00.524035,705291,1609507274169488,4874138710,-1.06384,0.335744,-0.349408,6.50125,3.6225,-2.70375,7.528,-26.184002,-20.536001,concentric,8,3.0,44041.0,189788.0,94454.0,185187.0,109601.0
2026-04-14 18:03:00.539099,705292,1609507274184071,4874153705,-0.974048,0.306464,-0.13664,3.94625,3.56125,-3.4825,8.232,-26.336,-22.624,concentric,8,3.0,44041.0,189788.0,94454.0,185187.0,109601.0
2026-04-14 18:03:00.547369,705293,1609507274193031,4874162426,-0.974048,0.306464,-0.13664,0.1225,2.49375,-4.305,8.232,-26.336,-22.624,concentric,8,3.0,44041.0,189788.0,94454.0,185187.0,109601.0
2026-04-14 18:03:00.589051,705294,1609507274207596,4874177360,-0.99552,0.271328,-0.345504,-3.49125,1.58375,-4.85625,9.232,-26.256,-22.736002,concentric,8,3.0,44041.0,189788.0,94454.0,185187.0,109601.0
2026-04-14 18:03:00.590184,705295,1609507274216622,4874186063,-0.99552,0.271328,-0.345504,-3.50875,1.19,-4.3225,9.232,-26.256,-22.736002,concentric,8,3.0,44041.0,189788.0,94454.0,185187.0,109601.0
2026-04-14 18:03:00.592726,705296,1609507274225561,4874194730,-1.022848,0.329888,-0.222528,-0.93625,1.42625,-4.92625,8.312,-26.056002,-21.496,concentric,8,3.0,44041.0,189788.0,94454.0,185187.0,109601.0
2026-04-14 18:03:00.665773,705307,1609507274240103,4874210077,-1.022848,0.329888,-0.222528,0.6825,0.70875,-6.2475,8.312,-26.056002,-21.496,concentric,8,3.0,42967.0,188664.0,92780.0,184134.0,107717.0
2026-04-14 18:03:00.668278,705308,1609507274249106,4874218847,-1.0736,0.337696,-0.37088,0.25375,-0.86625,-6.5975,8.416,-26.488,-21.552002,concentric,8,3.0,42967.0,188664.0,92780.0,184134.0,107717.0
2026-04-14 18:03:00.673378,705309,1609507274263620,4874233729,-0.940864,0.310368,-0.17568,-1.93375,-2.56375,-8.40875,8.416,-26.488,-18.616001,concentric,8,3.0,42967.0,188664.0,92780.0,184134.0,107717.0
2026-04-14 18:03:00.675785,705310,1609507274272625,4874242423,-0.940864,0.310368,-0.17568,-5.43375,-4.03375,-10.1325,8.416,-26.2,-18.616001,concentric,8,3.0,42967.0,188664.0,92780.0,184134.0,107717.0
2026-04-14 18:03:00.678269,705311,1609507274287130,4874257302,-1.01504,0.306464,-0.398208,-7.46375,-5.17125,-11.235,8.656,-25.960001,-22.584002,concentric,8,3.0,42967.0,188664.0,92780.0,184134.0,107717.0
2026-04-14 18:03:00.682755,705312,1609507274296137,4874266015,-1.01504,0.306464,-0.398208,-7.595,-4.9,-12.67,8.656,-25.960001,-22.584002,concentric,8,3.0,42967.0,188664.0,92780.0,184134.0,107717.0
2026-04-14 18:03:00.683248,705313,1609507274305104,4874274852,-0.962336,0.329888,-0.152256,-8.2425,-3.89375,-13.06375,9.728001,-26.296001,-22.656,concentric,8,3.0,42967.0,188664.0,92780.0,184134.0,107717.0
2026-04-14 18:03:00.685275,705314,1609507274319648,4874289765,-0.962336,0.329888,-0.152256,-10.1325,-5.15375,-15.190001,9.728001,-26.296001,-22.656,concentric,8,3.0,42967.0,188664.0,92780.0,184134.0,107717.0
2026-04-14 18:03:00.696756,705315,1609507274328575,4874298475,-1.04432,0.320128,-0.347456,-13.41375,-5.67875,-16.30125,9.92,-26.456001,-22.12,concentric,8,3.0,42967.0,188664.0,92780.0,184134.0,107717.0
2026-04-14 18:03:00.718145,705326,1609507274343258,4874313533,-1.04432,0.320128,-0.347456,-17.03625,-6.1775,-17.80625,9.92,-26.456001,-22.12,concentric,8,3.0,43099.0,189125.0,93050.0,184662.0,108119.0
2026-04-14 18:03:00.720776,705327,1609507274352483,4874322318,-0.942816,0.318176,-0.128832,-21.2975,-6.02875,-19.43375,10.296001,-26.584002,-22.632002,concentric,8,3.0,43099.0,189125.0,93050.0,184662.0,108119.0
2026-04-14 18:03:00.723368,705328,1609507274361535,4874331026,-0.942816,0.318176,-0.128832,-22.855,-5.075,-19.25875,10.296001,-26.584002,-22.632002,concentric,8,3.0,43099.0,189125.0,93050.0,184662.0,108119.0
2026-04-14 18:03:00.731999,705329,1609507274376217,4874345964,-0.993568,0.335744,-0.152256,-22.37375,-4.025,-19.425,10.136001,-26.512001,-21.792002,concentric,8,3.0,43099.0,189125.0,93050.0,184662.0,108119.0
2026-04-14 18:03:00.739100,705330,1609507274385171,4874354741,-0.954528,0.306464,-0.230336,-20.3525,-1.9075,-19.06625,8.88,-26.344002,-19.208,concentric,8,3.0,43099.0,189125.0,93050.0,184662.0,108119.0
2026-04-14 18:03:00.754562,705331,1609507274399656,4874369664,-0.954528,0.306464,-0.230336,-17.185,0.41125,-17.07125,8.88,-26.344002,-19.208,concentric,8,3.0,43099.0,189125.0,93050.0,184662.0,108119.0
2026-04-14 18:03:00.763330,705332,1609507274408589,4874378353,-0.991616,0.36112,-0.152256,-15.91625,1.00625,-17.59625,10.664001,-26.816002,-21.776001,concentric,8,3.0,43099.0,189125.0,93050.0,184662.0,108119.0
2026-04-14 18:03:00.779623,705333,1609507274423147,4874393239,-0.991616,0.36112,-0.152256,-19.11875,-0.55125,-19.425,10.664001,-26.816002,-21.776001,concentric,8,3.0,43099.0,189125.0,93050.0,184662.0,108119.0
2026-04-14 18:03:00.786519,705334,1609507274432071,4874401939,-1.00528,0.37088,-0.111264,-27.16875,-3.91125,-20.53625,11.088,-27.024002,-20.528002,concentric,8,3.0,43099.0,189125.0,93050.0,184662.0,108119.0
2026-04-14 18:03:00.814163,705345,1609507274441055,4874410689,-1.00528,0.37088,-0.111264,-34.16875,-6.51,-21.76125,11.088,-27.024002,-20.528002,concentric,8,3.0,43481.0,191787.0,93524.0,186801.0,108769.0
2026-04-14 18:03:00.816994,705346,1609507274455562,4874425618,-1.089216,0.27328,-0.320128,-35.35,-7.25375,-21.9625,10.128,-26.480001,-20.104,concentric,8,3.0,43481.0,191787.0,93524.0,186801.0,108769.0
2026-04-14 18:03:00.819457,705347,1609507274464534,4874434338,-1.089216,0.320128,-0.167872,-31.33375,-6.64125,-20.27375,10.128,-26.480001,-20.104,concentric,8,3.0,43481.0,191787.0,93524.0,186801.0,108769.0
2026-04-14 18:03:00.834613,705348,1609507274479045,4874449239,-1.077504,0.320128,-0.167872,-25.27,-5.45125,-18.2,10.752001,-26.704,-21.392,concentric,8,3.0,43481.0,191787.0,93524.0,186801.0,108769.0
2026-04-14 18:03:00.844353,705349,1609507274487970,4874457921,-1.085312,0.363072,-0.240096,-20.6325,-5.31125,-17.465,11.104,-27.160002,-20.936,concentric,8,3.0,43481.0,191787.0,93524.0,186801.0,108769.0
2026-04-14 18:03:00.858043,705350,1609507274502638,4874472817,-1.085312,0.363072,-0.240096,-22.68,-6.09875,-18.585001,11.104,-27.160002,-20.936,concentric,8,3.0,43481.0,191787.0,93524.0,186801.0,108769.0
2026-04-14 18:03:00.867069,705351,1609507274511587,4874481532,-1.046272,0.33184,-0.339648,-26.8625,-7.4025,-19.7575,11.656,-27.28,-19.792002,concentric,8,3.0,43481.0,191787.0,93524.0,186801.0,108769.0
2026-04-14 18:03:00.878280,705352,1609507274520523,4874490249,-1.046272,0.33184,-0.339648,-32.445,-8.67125,-20.44,11.656,-27.28,-19.792002,concentric,8,3.0,43481.0,191787.0,93524.0,186801.0,108769.0
2026-04-14 18:03:00.917090,705364,1609507274535141,4874505474,-1.0248,0.284992,-0.17568,-35.44625,-9.0475,-19.8275,11.928,-27.288002,-18.904001,concentric,8,3.0,43553.0,192574.0,93449.0,187178.0,108658.0
2026-04-14 18:03:00.919517,705365,1609507274544239,4874514334,-1.0248,0.284992,-0.17568,-33.1625,-8.56625,-18.305,11.928,-27.288002,-18.904001,concentric,8,3.0,43553.0,192574.0,93449.0,187178.0,108658.0
2026-04-14 18:03:00.921628,705366,1609507274559049,4874529278,-1.079456,0.306464,-0.16592,-26.425,-6.57125,-16.0475,12.008,-26.896002,-20.584002,concentric,8,3.0,43553.0,192574.0,93449.0,187178.0,108658.0
2026-04-14 18:03:00.924247,705367,1609507274568201,4874537982,-1.079456,0.392352,-0.271328,-19.64375,-4.75125,-13.685,12.200001,-27.096,-19.92,concentric,8,3.0,43553.0,192574.0,93449.0,187178.0,108658.0
2026-04-14 18:03:00.932093,705368,1609507274577221,4874546720,-1.079456,0.392352,-0.271328,-19.635,-5.67875,-14.21,12.200001,-27.096,-19.92,concentric,8,3.0,43553.0,192574.0,93449.0,187178.0,108658.0
2026-04-14 18:03:00.962154,705369,1609507274591698,4874561668,-1.089216,0.363072,-0.30256,-26.8275,-8.6625,-16.9925,12.880001,-27.136002,-19.320002,concentric,8,3.0,43553.0,192574.0,93449.0,187178.0,108658.0
2026-04-14 18:03:00.964589,705370,1609507274600656,4874570357,-1.089216,0.363072,-0.30256,-32.78625,-10.84125,-18.41,12.880001,-27.136002,-19.320002,concentric,8,3.0,43553.0,192574.0,93449.0,187178.0,108658.0
2026-04-14 18:03:00.993280,705371,1609507274615162,4874585245,-1.03456,0.294752,-0.238144,-33.2675,-10.42125,-18.26125,12.8,-27.232,-19.264002,concentric,8,3.0,43553.0,192574.0,93449.0,187178.0,108658.0
2026-04-14 18:03:00.995789,705372,1609507274624146,4874593981,-1.03456,0.294752,-0.238144,-29.7675,-9.345,-17.15875,12.8,-27.232,-19.264002,concentric,8,3.0,43553.0,192574.0,93449.0,187178.0,108658.0
2026-04-14 18:03:00.997800,705373,1609507274633108,4874602662,-1.048224,0.33184,-0.163968,-25.69875,-8.5925,-14.93625,12.456,-27.208002,-13.912001,concentric,8,3.0,43553.0,192574.0,93449.0,187178.0,108658.0
2026-04-14 18:03:01.033284,705384,1609507274647678,4874617622,-1.081408,0.374784,-0.339648,-19.5825,-7.23625,-12.90625,11.936001,-27.264002,-17.024,concentric,8,3.0,42421.0,192374.0,91818.0,187031.0,106847.0
2026-04-14 18:03:01.035793,705385,1609507274656688,4874626356,-1.081408,0.374784,-0.339648,-16.21375,-6.9825,-12.5825,11.936001,-27.264002,-17.024,concentric,8,3.0,42421.0,192374.0,91818.0,187031.0,106847.0
2026-04-14 18:03:01.037844,705386,1609507274671158,4874641339,-1.091168,0.44896,-0.193248,-18.55,-7.5775,-12.83625,12.432,-27.168001,-18.712002,concentric,8,3.0,42421.0,192374.0,91818.0,187031.0,106847.0
2026-04-14 18:03:01.040357,705387,1609507274680114,4874650124,-1.091168,0.44896,-0.193248,-21.805,-6.965,-12.355001,12.432,-27.168001,-18.712002,concentric,8,3.0,42421.0,192374.0,91818.0,187031.0,106847.0
2026-04-14 18:03:01.048309,705388,1609507274694640,4874663031,-1.116544,0.413824,-0.259616,-20.825,-6.58875,-10.955,13.432001,-27.456001,-18.560001,concentric,8,3.0,42421.0,192374.0,91818.0,187031.0,106847.0
2026-04-14 18:03:01.059535,705389,1609507274704033,4874673795,-1.116544,0.413824,-0.259616,-12.355001,-3.7975,-6.23,13.432001,-27.456001,-18.560001,concentric,8,3.0,42421.0,192374.0,91818.0,187031.0,106847.0
2026-04-14 18:03:01.067846,705390,1609507274712992,4874682509,-1.196576,0.402112,-0.290848,-1.49625,-0.2975,0.41125,13.312,-27.368002,-19.624,concentric,8,3.0,42421.0,192374.0,91818.0,187031.0,106847.0
2026-04-14 18:03:01.083133,705391,1609507274727511,4874697492,-1.34688,0.776896,-0.513376,0.7875,4.1475,5.24125,13.216001,-27.408,-17.632,concentric,8,3.0,42421.0,192374.0,91818.0,187031.0,106847.0
2026-04-14 18:03:01.114244,705402,1609507274736966,4874706602,-1.34688,0.776896,-0.513376,-3.115,6.57125,7.83125,13.216001,-27.408,-17.632,concentric,8,3.0,46970.0,206887.0,98951.0,199719.0,114849.0
2026-04-14 18:03:01.117064,705403,1609507274751520,4874721530,-1.182912,0.626592,-0.238144,-15.95125,2.0475,3.185,11.504001,-27.072,-16.328001,concentric,8,3.0,46970.0,206887.0,98951.0,199719.0,114849.0
2026-04-14 18:03:01.119578,705404,1609507274760575,4874730287,-1.182912,0.626592,-0.238144,-31.045,-2.8,-1.96875,11.504001,-27.072,-16.328001,concentric,8,3.0,46970.0,206887.0,98951.0,199719.0,114849.0
2026-04-14 18:03:01.125812,705405,1609507274769561,4874738998,-1.098976,0.406016,-0.245952,-34.23875,-1.89,2.6075,10.776001,-27.744001,-17.376001,concentric,8,3.0,46970.0,206887.0,98951.0,199719.0,114849.0
2026-04-14 18:03:01.142058,705406,1609507274784181,4874753903,-1.098976,0.406016,-0.245952,-21.665,8.96875,17.928751,10.776001,-27.744001,-17.376001,concentric,8,3.0,46970.0,206887.0,98951.0,199719.0,114849.0
2026-04-14 18:03:01.148300,705407,1609507274793103,4874762629,-0.88816,0.609024,-0.066368,-3.4825,25.68125,38.29,11.664001,-28.432001,-18.368,concentric,8,3.0,46970.0,206887.0,98951.0,199719.0,114849.0
2026-04-14 18:03:01.161609,705408,1609507274807616,4874777553,-0.99552,0.837408,-0.245952,6.02875,42.0525,51.86125,10.528001,-28.712002,-18.12,concentric,8,3.0,46970.0,206887.0,98951.0,199719.0,114849.0
2026-04-14 18:03:01.171420,705409,1609507274816582,4874786264,-0.99552,0.837408,-0.245952,2.49375,52.91125,59.38625,10.528001,-28.712002,-18.12,concentric,8,3.0,46970.0,206887.0,98951.0,199719.0,114849.0
2026-04-14 18:03:01.181206,705410,1609507274825639,4874795013,-0.99552,0.837408,-0.245952,-9.31,55.1775,60.26125,10.528001,-28.712002,-18.12,concentric,8,3.0,46970.0,206887.0,98951.0,199719.0,114849.0
2026-04-14 18:03:01.247825,705421,1609507274840318,4874810030,-1.04432,0.60512,-0.22448,-14.42875,52.6575,60.9,9.264001,-28.768002,-18.312,concentric,8,3.0,76154.0,243914.0,136049.0,231777.0,153980.0
2026-04-14 18:03:01.253179,705422,1609507274849303,4874818861,-1.001376,0.525088,-0.189344,-11.96125,48.48375,68.32875,6.920001,-29.168001,-16.688002,concentric,8,3.0,76154.0,243914.0,136049.0,231777.0,153980.0
2026-04-14 18:03:01.253691,705423,1609507274863778,4874833795,-1.001376,0.525088,-0.189344,-1.05875,48.08125,80.57,6.920001,-29.168001,-16.688002,concentric,8,3.0,76154.0,243914.0,136049.0,231777.0,153980.0
2026-04-14 18:03:01.255307,705424,1609507274872721,4874842477,-1.13216,0.735904,-0.247904,10.85,51.7825,92.30375,5.44,-29.368002,-17.296001,concentric,8,3.0,76154.0,243914.0,136049.0,231777.0,153980.0
2026-04-14 18:03:01.261039,705425,1609507274887254,4874857435,-1.13216,1.001376,-0.411872,7.42,56.65625,96.50375,5.44,-29.368002,-17.296001,concentric,8,3.0,76154.0,243914.0,136049.0,231777.0,153980.0
2026-04-14 18:03:01.263486,705426,1609507274896174,4874866389,-1.157536,1.001376,-0.411872,-7.34125,60.06,93.98375,3.96,-30.2,-18.616001,concentric,8,3.0,76154.0,243914.0,136049.0,231777.0,153980.0
2026-04-14 18:03:01.263565,705427,1609507274905117,4874875115,-1.157536,1.001376,-0.411872,-23.40625,58.65125,84.86625,3.96,-30.2,-18.616001,concentric,8,3.0,76154.0,243914.0,136049.0,231777.0,153980.0
2026-04-14 18:03:01.277247,705428,1609507274919611,4874887973,-0.981856,0.298656,-0.286944,-35.23625,53.576252,85.07625,2.312,-30.688002,-16.048,concentric,8,3.0,76154.0,243914.0,136049.0,231777.0,153980.0
2026-04-14 18:03:01.284324,705429,1609507274928845,4874898732,-0.919392,0.427488,-0.154208,-24.01875,52.84125,101.21125,0.88,-31.000002,-16.336,concentric,8,3.0,76154.0,243914.0,136049.0,231777.0,153980.0
2026-04-14 18:03:01.366680,705440,1609507274943590,4874913984,-0.919392,0.427488,-0.154208,4.10375,59.78,125.79875,0.88,-31.000002,-16.336,concentric,8,3.0,67094.0,230483.0,123747.0,218985.0,140854.0
2026-04-14 18:03:01.369302,705441,1609507274952600,4874922743,-0.968192,0.983808,-0.152256,16.05625,69.50125,141.19,-1.408,-31.080002,-17.776001,concentric,8,3.0,67094.0,230483.0,123747.0,218985.0,140854.0
2026-04-14 18:03:01.371601,705442,1609507274961545,4874931436,-0.968192,0.983808,-0.152256,5.705,79.59875,142.2575,-1.408,-31.080002,-17.776001,concentric,8,3.0,67094.0,230483.0,123747.0,218985.0,140854.0
2026-04-14 18:03:01.374150,705443,1609507274976142,4874946354,-1.14192,0.843264,-0.445056,-23.1175,82.705,131.25,-3.408,-31.760002,-16.848001,concentric,8,3.0,67094.0,230483.0,123747.0,218985.0,140854.0
2026-04-14 18:03:01.376709,705444,1609507274985123,4874955129,-1.14192,0.843264,-0.445056,-52.7275,77.5425,124.71375,-3.408,-31.760002,-16.848001,concentric,8,3.0,67094.0,230483.0,123747.0,218985.0,140854.0
2026-04-14 18:03:01.379292,705445,1609507274999621,4874967976,-1.03456,0.294752,-0.486048,-51.826252,71.00625,128.94,-5.216,-31.928001,-16.256,concentric,8,3.0,67094.0,230483.0,123747.0,218985.0,140854.0
2026-04-14 18:03:01.381732,705446,1609507275008876,4874978736,-0.94672,0.550464,-0.1464,-35.49,66.42125,144.48,-8.376,-31.736002,-15.808001,concentric,8,3.0,67094.0,230483.0,123747.0,218985.0,140854.0
2026-04-14 18:03:01.384312,705447,1609507275017838,4874987486,-0.94672,0.550464,-0.1464,-12.46,66.57875,164.89375,-8.376,-31.736002,-15.808001,concentric,8,3.0,67094.0,230483.0,123747.0,218985.0,140854.0
2026-04-14 18:03:01.386680,705448,1609507275032347,4875002439,-0.935008,1.110688,-0.402112,-2.905,68.81,175.2625,-11.240001,-31.616001,-14.176001,concentric,8,3.0,67094.0,230483.0,123747.0,218985.0,140854.0
2026-04-14 18:03:01.420465,705459,1609507275041421,4875011252,-0.935008,1.110688,-0.402112,-22.9425,76.0375,173.25874,-11.240001,-31.616001,-14.176001,concentric,8,3.0,46220.0,197268.0,95290.0,190166.0,111166.0
2026-04-14 18:03:01.422971,705460,1609507275055959,4875026183,-1.028704,0.86864,-0.466528,-53.64625,75.95875,165.9,-13.808001,-31.240002,-13.920001,concentric,8,3.0,46220.0,197268.0,95290.0,190166.0,111166.0
2026-04-14 18:03:01.425423,705461,1609507275064967,4875034895,-1.028704,0.86864,-0.466528,-82.3025,67.6375,158.34875,-13.808001,-31.240002,-13.920001,concentric,8,3.0,46220.0,197268.0,95290.0,190166.0,111166.0
2026-04-14 18:03:01.437396,705462,1609507275079601,4875049852,-0.915488,0.392352,-0.300608,-90.9125,60.55,163.65125,-15.880001,-31.464,-13.000001,concentric,8,3.0,46220.0,197268.0,95290.0,190166.0,111166.0
2026-04-14 18:03:01.444361,705463,1609507275088533,4875058621,-0.915488,0.392352,-0.290848,-71.295,52.45625,174.81625,-15.880001,-31.464,-13.000001,concentric,8,3.0,46220.0,197268.0,95290.0,190166.0,111166.0
2026-04-14 18:03:01.451701,705464,1609507275097578,4875067322,-0.808128,0.847168,-0.290848,-53.50625,52.94625,184.6425,-18.720001,-30.408,-13.264001,concentric,8,3.0,46220.0,197268.0,95290.0,190166.0,111166.0
2026-04-14 18:03:01.466757,705465,1609507275112075,4875082244,-0.696864,0.944768,-0.333792,-62.92125,55.2125,193.34875,-20.168001,-29.744001,-9.56,concentric,8,3.0,46220.0,197268.0,95290.0,190166.0,111166.0
2026-04-14 18:03:01.475509,705466,1609507275121003,4875090931,-0.696864,0.944768,-0.333792,-93.16125,51.5375,194.53876,-20.168001,-29.744001,-9.56,concentric,8,3.0,46220.0,197268.0,95290.0,190166.0,111166.0
2026-04-14 18:03:01.492104,705467,1609507275135635,4875105850,-0.821792,0.509472,-0.523136,-113.426254,44.8525,196.16624,-22.792002,-28.416002,-9.136001,concentric,8,3.0,46220.0,197268.0,95290.0,190166.0,111166.0
2026-04-14 18:03:01.519519,705478,1609507275144630,4875114629,-0.821792,0.509472,-0.523136,-94.01875,45.56125,200.33125,-22.792002,-28.416002,-9.136001,concentric,8,3.0,38172.0,184677.0,83205.0,179225.0,97985.0
2026-04-14 18:03:01.522003,705479,1609507275159189,4875129539,-0.620736,0.845216,-0.30256,-57.6275,47.17125,200.585,-26.632002,-26.712002,-7.000001,concentric,8,3.0,38172.0,184677.0,83205.0,179225.0,97985.0
2026-04-14 18:03:01.524200,705480,1609507275168135,4875138247,-0.620736,0.845216,-0.30256,-52.77125,38.43875,195.67625,-26.632002,-26.712002,-7.000001,concentric,8,3.0,38172.0,184677.0,83205.0,179225.0,97985.0
2026-04-14 18:03:01.532871,705481,1609507275177184,4875146975,-0.544608,0.84912,-0.271328,-62.685,28.91875,188.15125,-28.400002,-25.688002,-8.464001,concentric,8,3.0,38172.0,184677.0,83205.0,179225.0,97985.0
2026-04-14 18:03:01.546974,705482,1609507275191713,4875161919,-0.583648,0.726144,-0.466528,-71.88125,25.24375,183.56625,-28.552002,-24.496,-7.000001,concentric,8,3.0,38172.0,184677.0,83205.0,179225.0,97985.0
2026-04-14 18:03:01.555264,705483,1609507275200694,4875170638,-0.583648,0.726144,-0.466528,-63.00875,25.2175,182.07,-28.552002,-24.496,-7.000001,eccentric,8,3.0,38172.0,184677.0,83205.0,179225.0,97985.0
2026-04-14 18:03:01.572738,705484,1609507275215206,4875183635,-0.304512,0.958432,-0.3416,-42.9975,30.44125,174.43124,-29.840002,-22.856,-5.32,eccentric,8,3.0,38172.0,184677.0,83205.0,179225.0,97985.0
2026-04-14 18:03:01.581568,705485,1609507275224498,4875194381,-0.304512,0.958432,-0.3416,-30.87875,41.39625,162.89876,-29.840002,-22.856,-5.32,eccentric,8,3.0,38172.0,184677.0,83205.0,179225.0,97985.0
2026-04-14 18:03:01.593081,705486,1609507275233454,4875203101,-0.275232,0.817888,-0.394304,-42.35875,52.0275,153.58,-32.256,-21.528002,-4.224,eccentric,8,3.0,38172.0,184677.0,83205.0,179225.0,97985.0
2026-04-14 18:03:01.617826,705497,1609507275248119,4875218164,-0.275232,0.817888,-0.394304,-62.728752,55.728752,149.59875,-32.256,-21.528002,-4.224,eccentric,8,3.0,49991.0,196017.0,99224.0,189952.0,115649.0
2026-04-14 18:03:01.620363,705498,1609507275257183,4875226873,-0.327936,0.528992,-0.46848,-62.5625,52.263752,148.91624,-33.176003,-19.84,-3.464,eccentric,8,3.0,49991.0,196017.0,99224.0,189952.0,115649.0
2026-04-14 18:03:01.627738,705499,1609507275271723,4875241787,-0.222528,0.915488,-0.55632,-35.735,51.835,149.49374,-34.464,-18.448,-3.968,eccentric,8,3.0,49991.0,196017.0,99224.0,189952.0,115649.0
2026-04-14 18:03:01.634349,705500,1609507275280703,4875250555,-0.222528,0.915488,-0.55632,-6.36125,55.83375,153.685,-34.464,-18.448,-3.968,eccentric,8,3.0,49991.0,196017.0,99224.0,189952.0,115649.0
2026-04-14 18:03:01.644116,705501,1609507275289720,4875259271,-0.222528,0.915488,-0.113216,5.66125,57.33875,148.51375,-34.464,-18.448,-3.968,eccentric,8,3.0,49991.0,196017.0,99224.0,189952.0,115649.0
2026-04-14 18:03:01.660506,705502,1609507275304215,4875274177,0.0488,0.890112,-0.113216,-6.06375,55.8775,136.29875,-34.064003,-16.880001,-2.768,eccentric,8,3.0,49991.0,196017.0,99224.0,189952.0,115649.0
2026-04-14 18:03:01.668010,705503,1609507275313156,4875282861,-0.07808,0.737856,-0.296704,-25.62875,55.34375,130.235,-34.72,-15.408001,-1.36,eccentric,8,3.0,49991.0,196017.0,99224.0,189952.0,115649.0
2026-04-14 18:03:01.694248,705504,1609507275327652,4875297790,-0.07808,0.737856,-0.296704,-30.93125,58.275,128.94875,-34.72,-15.408001,-1.36,eccentric,8,3.0,49991.0,196017.0,99224.0,189952.0,115649.0
2026-04-14 18:03:01.696677,705505,1609507275336581,4875306526,-0.001952,0.72224,-0.298656,-25.83,55.53625,129.52625,-36.536003,-13.384001,-1.592,eccentric,8,3.0,49991.0,196017.0,99224.0,189952.0,115649.0
2026-04-14 18:03:01.746707,705516,1609507275351179,4875321467,0.0,0.812032,-0.376736,-17.28125,49.91,134.365,-36.0,-12.376,0.744,eccentric,8,3.0,75494.0,212688.0,129910.0,205183.0,150083.0
2026-04-14 18:03:01.749111,705517,1609507275360156,4875330209,0.0,0.812032,-0.376736,-5.11,47.15375,137.40125,-36.0,-12.376,0.744,eccentric,8,3.0,75494.0,212688.0,129910.0,205183.0,150083.0
2026-04-14 18:03:01.751683,705518,1609507275369213,4875338901,0.0,0.812032,-0.376736,2.59875,49.035,136.6925,-36.0,-12.376,0.744,eccentric,8,3.0,75494.0,212688.0,129910.0,205183.0,150083.0
2026-04-14 18:03:01.754211,705519,1609507275383758,4875353898,0.093696,0.925248,-0.288896,5.4075,52.325,131.915,-36.352,-10.912001,-1.168,eccentric,8,3.0,75494.0,212688.0,129910.0,205183.0,150083.0
2026-04-14 18:03:01.756800,705520,1609507275392786,4875362629,0.201056,0.894016,-0.099552,-3.815,51.7825,123.76875,-36.4,-9.456,1.096,eccentric,8,3.0,75494.0,212688.0,129910.0,205183.0,150083.0
2026-04-14 18:03:01.762945,705521,1609507275407292,4875377576,0.201056,0.894016,-0.099552,-20.88625,49.32375,119.58625,-36.4,-9.456,1.096,eccentric,8,3.0,75494.0,212688.0,129910.0,205183.0,150083.0
2026-04-14 18:03:01.771661,705522,1609507275416289,4875386272,0.173728,0.778848,-0.337696,-28.5775,48.8775,117.5125,-36.528,-7.64,1.96,eccentric,8,3.0,75494.0,212688.0,129910.0,205183.0,150083.0
2026-04-14 18:03:01.786627,705523,1609507275430813,4875401144,0.173728,0.8296,-0.054656,-25.585001,49.91875,115.4125,-36.528,-7.64,1.96,eccentric,8,3.0,75494.0,212688.0,129910.0,205183.0,150083.0
2026-04-14 18:03:01.820631,705534,1609507275440028,4875410352,0.318176,0.8296,-0.054656,-17.053751,53.515,114.00375,-37.896,-5.696,2.176,eccentric,8,3.0,89398.0,222352.0,145577.0,214017.0,167282.0
2026-04-14 18:03:01.823193,705535,1609507275449110,4875419120,0.318176,0.8296,-0.054656,-11.10375,57.25125,110.38125,-37.896,-5.696,2.176,eccentric,8,3.0,89398.0,222352.0,145577.0,214017.0,167282.0
2026-04-14 18:03:01.825657,705536,1609507275463676,4875434084,0.36112,0.864736,-0.0488,-13.83375,60.375,104.16875,-37.896,-4.888,2.744,eccentric,8,3.0,89398.0,222352.0,145577.0,214017.0,167282.0
2026-04-14 18:03:01.827633,705537,1609507275472590,4875442744,0.339648,0.786656,0.011712,-21.2275,61.34625,97.44875,-36.928,-3.872,2.904,eccentric,8,3.0,89398.0,222352.0,145577.0,214017.0,167282.0
2026-04-14 18:03:01.840219,705538,1609507275487117,4875455595,0.339648,0.786656,0.011712,-26.78375,58.2225,92.40875,-36.928,-3.872,2.904,eccentric,8,3.0,89398.0,222352.0,145577.0,214017.0,167282.0
2026-04-14 18:03:01.872100,705539,1609507275496469,4875466358,0.447008,0.730048,-0.138592,-27.65875,52.5,88.4625,-36.576,-3.0,3.824,eccentric,8,3.0,89398.0,222352.0,145577.0,214017.0,167282.0
2026-04-14 18:03:01.874146,705540,1609507275505484,4875475016,0.447008,0.730048,-0.138592,-21.48125,49.00875,86.35375,-36.576,-3.0,3.824,eccentric,8,3.0,89398.0,222352.0,145577.0,214017.0,167282.0
2026-04-14 18:03:01.877084,705541,1609507275519982,4875489915,0.454816,0.759328,-0.0976,-11.515,48.92125,86.30125,-37.784,-0.744,6.128,eccentric,8,3.0,89398.0,222352.0,145577.0,214017.0,167282.0
2026-04-14 18:03:01.883282,705542,1609507275529067,4875498678,0.454816,0.759328,-0.0976,-7.945,47.13625,86.05625,-37.784,-0.744,6.128,eccentric,8,3.0,89398.0,222352.0,145577.0,214017.0,167282.0
2026-04-14 18:03:01.918957,705553,1609507275544132,4875513687,0.54656,0.825696,0.206912,-11.62875,47.69625,84.0175,-36.984,-0.48,4.872,eccentric,8,3.0,105125.0,231576.0,164067.0,221861.0,186343.0
2026-04-14 18:03:01.921965,705554,1609507275553207,4875522514,0.501664,0.642208,-0.306464,-15.1375,51.66,78.1025,-37.608,0.744,4.704,eccentric,8,3.0,105125.0,231576.0,164067.0,221861.0,186343.0
2026-04-14 18:03:01.924025,705555,1609507275562188,4875531273,0.501664,0.642208,-0.306464,-14.245,53.138752,74.9525,-37.608,0.744,4.704,eccentric,8,3.0,105125.0,231576.0,164067.0,221861.0,186343.0
2026-04-14 18:03:01.931971,705556,1609507275576710,4875546182,0.443104,0.696864,-0.18544,-12.36375,52.31625,76.3875,-36.552002,1.536,7.312,eccentric,8,3.0,105125.0,231576.0,164067.0,221861.0,186343.0
2026-04-14 18:03:01.939476,705557,1609507275585773,4875554821,0.443104,0.696864,-0.18544,-3.1325,56.88375,76.60625,-36.552002,1.536,7.312,eccentric,8,3.0,105125.0,231576.0,164067.0,221861.0,186343.0
2026-04-14 18:03:01.955713,705558,1609507275600291,4875569737,0.450912,0.81984,-0.0976,5.48625,58.1875,70.74375,-36.304,2.352,7.704001,eccentric,8,3.0,105125.0,231576.0,164067.0,221861.0,186343.0
2026-04-14 18:03:01.963283,705559,1609507275609367,4875578441,0.450912,0.81984,-0.0976,0.88375,55.43125,68.48625,-36.304,2.352,7.704001,eccentric,8,3.0,105125.0,231576.0,164067.0,221861.0,186343.0
2026-04-14 18:03:01.973331,705560,1609507275618433,4875587132,0.5856,0.640256,0.093696,-8.225,49.41125,68.97625,-35.056004,3.024,7.04,eccentric,8,3.0,105125.0,231576.0,164067.0,221861.0,186343.0
2026-04-14 18:03:01.988244,705561,1609507275633267,4875602074,0.562176,0.599264,-0.197152,-11.1475,40.46875,71.32125,-35.16,4.208,8.784,eccentric,8,3.0,105125.0,231576.0,164067.0,221861.0,186343.0
2026-04-14 18:03:02.019421,705572,1609507275643150,4875613040,0.562176,0.599264,-0.197152,-5.005,36.60125,73.47375,-35.16,4.208,8.784,eccentric,8,3.0,112252.0,235457.0,172740.0,224969.0,194642.0
2026-04-14 18:03:02.021561,705573,1609507275652297,4875621867,0.562176,0.757376,0.0976,4.87375,36.68875,74.27875,-35.16,4.208,8.784,eccentric,8,3.0,112252.0,235457.0,172740.0,224969.0,194642.0
2026-04-14 18:03:02.024074,705574,1609507275666916,4875636896,0.528992,0.757376,0.0976,12.67875,38.57,74.05125,-35.208,4.584,7.480001,eccentric,8,3.0,112252.0,235457.0,172740.0,224969.0,194642.0
2026-04-14 18:03:02.030759,705575,1609507275675862,4875645614,0.544608,0.737856,0.033184,11.261251,36.26,74.375,-34.136,5.632,8.304001,eccentric,8,3.0,112252.0,235457.0,172740.0,224969.0,194642.0
2026-04-14 18:03:02.063283,705576,1609507275690321,4875660499,0.544608,0.737856,0.033184,5.32,31.77125,74.97,-34.136,5.632,8.304001,eccentric,8,3.0,112252.0,235457.0,172740.0,224969.0,194642.0
2026-04-14 18:03:02.065763,705577,1609507275699416,4875669199,0.60512,0.589504,0.070272,-0.51625,23.73875,73.66625,-33.848003,6.832,9.400001,eccentric,8,3.0,112252.0,235457.0,172740.0,224969.0,194642.0
2026-04-14 18:03:02.068296,705578,1609507275708363,4875677910,0.60512,0.589504,0.070272,2.205,20.195,74.75125,-33.848003,6.832,9.400001,eccentric,8,3.0,112252.0,235457.0,172740.0,224969.0,194642.0
2026-04-14 18:03:02.094344,705579,1609507275722993,4875692846,0.628544,0.599264,-0.072224,14.84,20.93,74.5325,-34.672,7.84,10.776001,eccentric,8,3.0,112252.0,235457.0,172740.0,224969.0,194642.0
2026-04-14 18:03:02.118126,705580,1609507275732024,4875701536,0.628544,0.599264,-0.072224,27.8075,25.33125,72.00375,-34.672,7.84,10.776001,eccentric,8,3.0,112252.0,235457.0,172740.0,224969.0,194642.0
2026-04-14 18:03:02.152038,705591,1609507275746666,4875716543,0.620736,0.786656,0.046848,29.960001,30.02125,69.62375,-34.688004,8.088,11.352,eccentric,8,3.0,120549.0,238790.0,182250.0,227578.0,202600.0
2026-04-14 18:03:02.154527,705592,1609507275755642,4875725278,0.689056,0.708576,0.17568,19.90625,34.326252,69.0025,-33.232002,9.208,10.368,eccentric,8,3.0,120549.0,238790.0,182250.0,227578.0,202600.0
2026-04-14 18:03:02.156947,705593,1609507275770200,4875740202,0.689056,0.708576,0.17568,7.14,36.79375,66.87625,-33.232002,9.208,10.368,eccentric,8,3.0,120549.0,238790.0,182250.0,227578.0,202600.0
2026-04-14 18:03:02.159002,705594,1609507275779130,4875748893,0.616832,0.550464,-0.0976,0.72625,38.85875,62.01125,-32.816,9.488001,11.176001,eccentric,8,3.0,120549.0,238790.0,182250.0,227578.0,202600.0
2026-04-14 18:03:02.162075,705595,1609507275788154,4875757661,0.616832,0.550464,-0.0976,0.69125,40.215,56.5075,-32.816,9.488001,11.176001,eccentric,8,3.0,120549.0,238790.0,182250.0,227578.0,202600.0
2026-04-14 18:03:02.164559,705596,1609507275802668,4875772621,0.665632,0.548512,-0.11712,6.88625,42.07,52.38625,-31.784002,10.128,11.832001,eccentric,8,3.0,120549.0,238790.0,182250.0,227578.0,202600.0
2026-04-14 18:03:02.167080,705597,1609507275811763,4875781322,0.665632,0.548512,-0.11712,10.2375,44.1525,48.34375,-31.784002,10.128,11.832001,eccentric,8,3.0,120549.0,238790.0,182250.0,227578.0,202600.0
2026-04-14 18:03:02.185772,705598,1609507275826297,4875796207,0.67344,0.587552,0.134688,7.91,45.8675,45.36875,-31.680002,10.536,12.184001,eccentric,8,3.0,120549.0,238790.0,182250.0,227578.0,202600.0
2026-04-14 18:03:02.190473,705599,1609507275835229,4875804922,0.655872,0.460672,-0.013664,3.5875,46.50625,43.60125,-30.408,10.736,10.152,eccentric,8,3.0,120549.0,238790.0,182250.0,227578.0,202600.0
2026-04-14 18:03:02.219470,705610,1609507275849748,4875820063,0.655872,0.460672,-0.013664,1.7675,45.6925,42.14875,-30.408,10.736,10.152,eccentric,8,3.0,120639.0,234864.0,182199.0,223605.0,202111.0
2026-04-14 18:03:02.221994,705611,1609507275858729,4875828808,0.769088,0.456768,0.20496,6.4575,45.38625,38.75375,-31.12,11.224001,13.176001,eccentric,8,3.0,120639.0,234864.0,182199.0,223605.0,202111.0
2026-04-14 18:03:02.224026,705612,1609507275867878,4875837652,0.769088,0.456768,0.20496,10.2725,42.53375,34.18625,-31.12,11.224001,13.176001,eccentric,8,3.0,120639.0,234864.0,182199.0,223605.0,202111.0
2026-04-14 18:03:02.236908,705613,1609507275882443,4875852604,0.77104,0.493856,0.173728,8.95125,38.99875,32.29625,-30.704002,11.76,14.480001,eccentric,8,3.0,120639.0,234864.0,182199.0,223605.0,202111.0
2026-04-14 18:03:02.245453,705614,1609507275891383,4875861342,0.77104,0.493856,0.173728,3.82375,37.89625,31.99875,-30.704002,11.76,14.480001,eccentric,8,3.0,120639.0,234864.0,182199.0,223605.0,202111.0
2026-04-14 18:03:02.259147,705615,1609507275905887,4875874261,0.862784,0.365024,0.191296,-2.45,37.975,30.1175,-29.416002,11.856001,14.384001,eccentric,8,3.0,120639.0,234864.0,182199.0,223605.0,202111.0
2026-04-14 18:03:02.270778,705616,1609507275915148,4875885024,0.90768,0.392352,0.345504,-6.5625,35.55125,27.317501,-29.832,12.200001,11.584001,eccentric,8,3.0,120639.0,234864.0,182199.0,223605.0,202111.0
2026-04-14 18:03:02.278271,705617,1609507275924087,4875893701,0.90768,0.392352,0.345504,-7.04375,29.12875,24.22,-29.832,12.200001,11.584001,eccentric,8,3.0,120639.0,234864.0,182199.0,223605.0,202111.0
2026-04-14 18:03:02.293255,705618,1609507275938589,4875908609,0.806176,0.519232,0.372832,-13.3525,19.39,22.4,-28.888,12.608001,12.896001,eccentric,8,3.0,120639.0,234864.0,182199.0,223605.0,202111.0
2026-04-14 18:03:02.323349,705629,1609507275947787,4875917482,0.806176,0.519232,0.372832,-25.48875,12.8625,21.2275,-28.888,12.608001,12.896001,eccentric,8,3.0,122184.0,241771.0,183692.0,229640.0,202978.0
2026-04-14 18:03:02.325189,705630,1609507275962480,4875932434,0.687104,0.413824,0.286944,-40.08375,9.05625,17.4125,-28.808,12.904,13.032001,eccentric,8,3.0,122184.0,241771.0,183692.0,229640.0,202978.0
2026-04-14 18:03:02.328305,705631,1609507275971613,4875941192,0.687104,0.413824,0.286944,-47.74875,3.59625,13.7375,-28.808,12.904,13.032001,eccentric,8,3.0,122184.0,241771.0,183692.0,229640.0,202978.0
2026-04-14 18:03:02.335837,705632,1609507275980795,4875949900,0.730048,0.318176,0.11712,-44.275,-3.07125,11.865,-28.736002,13.200001,12.952001,eccentric,8,3.0,122184.0,241771.0,183692.0,229640.0,202978.0
2026-04-14 18:03:02.352012,705633,1609507275995321,4875964917,0.681248,0.433344,0.144448,-33.9325,-7.945,8.8375,-29.136002,14.192,13.536,eccentric,8,3.0,122184.0,241771.0,183692.0,229640.0,202978.0
2026-04-14 18:03:02.359169,705634,1609507276004213,4875973592,0.681248,0.433344,0.144448,-24.22875,-8.96,2.3625,-29.136002,14.192,13.536,eccentric,8,3.0,122184.0,241771.0,183692.0,229640.0,202978.0
2026-04-14 18:03:02.374029,705635,1609507276018775,4875988581,0.685152,0.40992,0.259616,-21.0875,-10.78875,-4.095,-29.008001,13.400001,12.272,eccentric,8,3.0,122184.0,241771.0,183692.0,229640.0,202978.0
2026-04-14 18:03:02.383498,705636,1609507276027775,4875997301,0.685152,0.40992,0.259616,-24.54375,-15.9425,-9.275,-29.008001,13.400001,12.272,eccentric,8,3.0,122184.0,241771.0,183692.0,229640.0,202978.0
2026-04-14 18:03:02.391460,705637,1609507276036718,4876005986,0.618784,0.320128,0.12688,-25.31375,-20.95625,-12.08375,-29.448002,13.568001,11.928,eccentric,8,3.0,122184.0,241771.0,183692.0,229640.0,202978.0
2026-04-14 18:03:02.473413,705648,1609507276051274,4876021010,0.618784,0.320128,0.12688,-19.635,-24.22875,-14.91875,-29.448002,13.568001,11.928,eccentric,8,3.0,122342.0,244630.0,184568.0,232151.0,204661.0
2026-04-14 18:03:02.475297,705649,1609507276060203,4876029738,0.689056,0.3416,0.203008,-7.91875,-24.80625,-19.7575,-30.2,13.120001,12.808001,eccentric,8,3.0,122342.0,244630.0,184568.0,232151.0,204661.0
2026-04-14 18:03:02.478112,705650,1609507276074706,4876044647,0.689056,0.3416,0.245952,4.655,-26.2325,-26.10125,-30.2,13.120001,12.808001,eccentric,8,3.0,122342.0,244630.0,184568.0,232151.0,204661.0
2026-04-14 18:03:02.480632,705651,1609507276083816,4876053362,0.735904,0.40016,0.245952,11.9,-28.91,-30.33625,-30.784002,12.856001,15.128,eccentric,8,3.0,122342.0,244630.0,184568.0,232151.0,204661.0
2026-04-14 18:03:02.510796,705652,1609507276098318,4876068245,0.74176,0.423584,0.150304,15.04125,-32.138752,-33.99375,-31.448002,12.952001,13.224001,eccentric,8,3.0,122342.0,244630.0,184568.0,232151.0,204661.0
2026-04-14 18:03:02.513283,705653,1609507276107236,4876077039,0.74176,0.423584,0.150304,15.96,-36.91625,-38.482502,-31.448002,12.952001,13.224001,eccentric,8,3.0,122342.0,244630.0,184568.0,232151.0,204661.0
2026-04-14 18:03:02.515806,705654,1609507276116298,4876085781,0.747616,0.376736,-0.031232,16.7475,-41.326252,-41.0375,-32.296,12.256001,12.576,eccentric,8,3.0,122342.0,244630.0,184568.0,232151.0,204661.0
2026-04-14 18:03:02.518311,705655,1609507276130937,4876100712,0.747616,0.376736,-0.031232,21.18375,-42.8925,-42.6825,-32.296,12.256001,12.576,eccentric,8,3.0,122342.0,244630.0,184568.0,232151.0,204661.0
2026-04-14 18:03:02.520852,705656,1609507276139881,4876109399,0.700768,0.482144,0.046848,28.67375,-41.475,-44.17875,-32.472,11.016001,11.584001,eccentric,8,3.0,122342.0,244630.0,184568.0,232151.0,204661.0
2026-04-14 18:03:02.548314,705667,1609507276154539,4876124305,0.700768,0.482144,0.046848,37.4675,-39.43625,-47.0925,-32.472,11.016001,11.584001,eccentric,8,3.0,125986.0,248751.0,190765.0,236347.0,211094.0
2026-04-14 18:03:02.550796,705668,1609507276163494,4876133000,0.704672,0.558272,-0.072224,39.7775,-38.35125,-51.415,-32.568,10.280001,10.320001,eccentric,8,3.0,125986.0,248751.0,190765.0,236347.0,211094.0
2026-04-14 18:03:02.555772,705669,1609507276178102,4876147900,0.720288,0.54656,-0.081984,35.67375,-36.8025,-55.93875,-32.72,9.432,10.808001,eccentric,8,3.0,125986.0,248751.0,190765.0,236347.0,211094.0
2026-04-14 18:03:02.556197,705670,1609507276187072,4876156583,0.720288,0.54656,-0.081984,27.9825,-39.34875,-58.4675,-32.72,9.432,10.808001,eccentric,8,3.0,125986.0,248751.0,190765.0,236347.0,211094.0
2026-04-14 18:03:02.557736,705671,1609507276196012,4876165303,0.759328,0.51728,0.072224,20.615,-41.44875,-58.66875,-32.72,9.432,7.072001,eccentric,8,3.0,125986.0,248751.0,190765.0,236347.0,211094.0
2026-04-14 18:03:02.567642,705672,1609507276210540,4876180235,0.759328,0.51728,0.072224,16.80875,-42.11375,-58.68625,-33.280003,9.024,7.072001,eccentric,8,3.0,125986.0,248751.0,190765.0,236347.0,211094.0
2026-04-14 18:03:02.574014,705673,1609507276219505,4876188964,0.735904,0.583648,-0.042944,20.08125,-39.865,-61.8625,-33.376003,7.888001,9.304001,eccentric,8,3.0,125986.0,248751.0,190765.0,236347.0,211094.0
2026-04-14 18:03:02.588144,705674,1609507276234045,4876203836,0.735904,0.583648,-0.042944,27.6325,-35.385,-68.52125,-33.376003,7.888001,9.304001,eccentric,8,3.0,125986.0,248751.0,190765.0,236347.0,211094.0
2026-04-14 18:03:02.627711,705685,1609507276242999,4876212915,0.72224,0.632448,0.085888,27.9825,-30.817501,-74.31375,-33.304,7.008,9.264001,eccentric,8,3.0,127949.0,245774.0,195804.0,234249.0,216804.0
2026-04-14 18:03:02.630781,705686,1609507276252022,4876221646,0.72224,0.632448,0.085888,21.77,-27.01125,-76.1075,-33.304,7.008,9.264001,eccentric,8,3.0,127949.0,245774.0,195804.0,234249.0,216804.0
2026-04-14 18:03:02.633271,705687,1609507276266527,4876236586,0.651968,0.523136,0.06832,14.58625,-26.3725,-73.40375,-33.592003,5.856,8.480001,eccentric,8,3.0,127949.0,245774.0,195804.0,234249.0,216804.0
2026-04-14 18:03:02.635780,705688,1609507276275473,4876245319,0.651968,0.523136,0.06832,8.4,-28.44625,-69.6325,-33.592003,5.856,8.480001,eccentric,8,3.0,127949.0,245774.0,195804.0,234249.0,216804.0
2026-04-14 18:03:02.648246,705689,1609507276290018,4876260287,0.646112,0.540704,-0.080032,12.39875,-31.56125,-72.152504,-33.792,5.12,7.536,eccentric,8,3.0,127949.0,245774.0,195804.0,234249.0,216804.0
2026-04-14 18:03:02.654208,705690,1609507276298998,4876269142,0.62464,0.661728,0.013664,18.9175,-34.22125,-78.40875,-35.104,4.144,8.952001,eccentric,8,3.0,127949.0,245774.0,195804.0,234249.0,216804.0
2026-04-14 18:03:02.669100,705691,1609507276313714,4876284064,0.62464,0.661728,0.013664,21.9975,-36.8725,-81.75125,-35.104,4.144,8.952001,eccentric,8,3.0,127949.0,245774.0,195804.0,234249.0,216804.0
2026-04-14 18:03:02.677813,705692,1609507276322652,4876292758,0.632448,0.601216,0.122976,19.8625,-37.6775,-84.44625,-35.584003,2.736,7.728,eccentric,8,3.0,127949.0,245774.0,195804.0,234249.0,216804.0
2026-04-14 18:03:02.687824,705693,1609507276331680,4876301460,0.632448,0.601216,0.122976,17.03625,-39.06,-86.2925,-35.584003,2.736,7.728,eccentric,8,3.0,127949.0,245774.0,195804.0,234249.0,216804.0
2026-04-14 18:03:02.726609,705704,1609507276346361,4876316434,0.511424,0.632448,-0.142496,18.0775,-42.7175,-82.99375,-35.088,1.816,7.096,eccentric,8,3.0,112802.0,233510.0,179917.0,224247.0,201680.0
2026-04-14 18:03:02.729070,705705,1609507276355358,4876325209,0.511424,0.632448,-0.142496,21.04375,-43.4,-85.44375,-35.088,1.816,7.096,eccentric,8,3.0,112802.0,233510.0,179917.0,224247.0,201680.0
2026-04-14 18:03:02.731729,705706,1609507276369886,4876340176,0.447008,0.730048,-0.261568,24.10625,-42.06125,-93.91375,-35.84,1.144,11.040001,eccentric,8,3.0,112802.0,233510.0,179917.0,224247.0,201680.0
2026-04-14 18:03:02.734299,705707,1609507276378927,4876348863,0.486048,0.726144,-0.040992,20.8775,-42.84875,-98.55125,-36.488003,-0.504,6.952,eccentric,8,3.0,112802.0,233510.0,179917.0,224247.0,201680.0
2026-04-14 18:03:02.741588,705708,1609507276387987,4876357588,0.486048,0.726144,-0.040992,13.02875,-44.9225,-98.49875,-36.488003,-0.504,6.952,eccentric,8,3.0,112802.0,233510.0,179917.0,224247.0,201680.0
2026-04-14 18:03:02.761006,705709,1609507276402478,4876372497,0.421632,0.65392,-0.025376,11.24375,-44.68625,-96.90625,-36.08,-1.424,6.496,eccentric,8,3.0,112802.0,233510.0,179917.0,224247.0,201680.0
2026-04-14 18:03:02.767091,705710,1609507276411402,4876381226,0.421632,0.65392,-0.025376,14.18375,-42.7,-97.055,-36.08,-1.424,6.496,eccentric,8,3.0,112802.0,233510.0,179917.0,224247.0,201680.0
2026-04-14 18:03:02.796594,705711,1609507276425892,4876396123,0.388448,0.735904,0.025376,18.62,-43.015,-102.38375,-36.960003,-3.32,5.312,eccentric,8,3.0,112802.0,233510.0,179917.0,224247.0,201680.0
2026-04-14 18:03:02.821760,705712,1609507276434860,4876404833,0.388448,0.735904,0.025376,21.62125,-42.98875,-108.7625,-36.960003,-3.32,5.312,eccentric,8,3.0,112802.0,233510.0,179917.0,224247.0,201680.0
2026-04-14 18:03:02.876462,705723,1609507276449576,4876419816,0.296704,0.732,-0.271328,18.9,-46.24375,-113.058754,-36.2,-4.544,4.712,eccentric,8,3.0,75253.0,206004.0,136851.0,200993.0,154433.0
2026-04-14 18:03:02.879447,705724,1609507276458550,4876428578,0.365024,0.642208,-0.11712,16.38875,-52.535,-112.21875,-36.072002,-6.128,3.568,eccentric,8,3.0,75253.0,206004.0,136851.0,200993.0,154433.0
2026-04-14 18:03:02.881954,705725,1609507276467468,4876437252,0.365024,0.642208,-0.11712,17.85,-57.4175,-112.5425,-36.072002,-6.128,3.568,eccentric,8,3.0,75253.0,206004.0,136851.0,200993.0,154433.0
2026-04-14 18:03:02.884470,705726,1609507276481999,4876452212,0.240096,0.735904,-0.22448,23.9225,-62.16,-113.8025,-36.104,-7.256001,2.712,eccentric,8,3.0,75253.0,206004.0,136851.0,200993.0,154433.0
2026-04-14 18:03:02.886955,705727,1609507276490941,4876460933,0.240096,0.735904,-0.22448,37.170002,-61.17125,-116.515,-36.104,-7.256001,2.712,eccentric,8,3.0,75253.0,206004.0,136851.0,200993.0,154433.0
2026-04-14 18:03:02.889465,705728,1609507276505519,4876474005,0.160064,0.835456,-0.245952,46.01625,-59.57875,-122.1325,-35.992,-8.808001,2.096,eccentric,8,3.0,75253.0,206004.0,136851.0,200993.0,154433.0
2026-04-14 18:03:02.891494,705729,1609507276515046,4876484809,0.160064,0.835456,-0.245952,41.37875,-62.04625,-127.2425,-35.992,-8.808001,2.096,eccentric,8,3.0,75253.0,206004.0,136851.0,200993.0,154433.0
2026-04-14 18:03:02.893948,705730,1609507276524014,4876493516,0.11712,0.854976,-0.296704,28.65625,-65.6075,-129.05376,-35.928,-10.544001,1.176,eccentric,8,3.0,75253.0,206004.0,136851.0,200993.0,154433.0
2026-04-14 18:03:02.896674,705731,1609507276538544,4876508482,0.144448,0.735904,-0.347456,19.8625,-71.63625,-131.38126,-35.576,-12.216001,-0.104,eccentric,8,3.0,75253.0,206004.0,136851.0,200993.0,154433.0
2026-04-14 18:03:02.927928,705742,1609507276547533,4876517247,0.144448,0.735904,-0.347456,22.53125,-73.1325,-133.9625,-35.576,-12.216001,-0.104,eccentric,8,3.0,62633.0,198970.0,121159.0,194737.0,137086.0
2026-04-14 18:03:02.930292,705743,1609507276562135,4876532288,0.103456,0.870592,-0.359168,36.732502,-67.36625,-137.20876,-36.0,-13.744,0.32,eccentric,8,3.0,62633.0,198970.0,121159.0,194737.0,137086.0
2026-04-14 18:03:02.932946,705744,1609507276571182,4876541032,0.103456,0.870592,-0.359168,53.26125,-61.6875,-143.815,-36.0,-13.744,0.32,eccentric,8,3.0,62633.0,198970.0,121159.0,194737.0,137086.0
2026-04-14 18:03:02.935320,705745,1609507276580260,4876549788,-0.005856,1.013088,-0.163968,56.805,-60.59375,-149.8,-35.08,-15.200001,-0.56,eccentric,8,3.0,62633.0,198970.0,121159.0,194737.0,137086.0
2026-04-14 18:03:02.951746,705746,1609507276595037,4876564676,-0.005856,1.013088,-0.163968,40.6525,-67.235,-152.69624,-35.08,-15.200001,-0.56,eccentric,8,3.0,62633.0,198970.0,121159.0,194737.0,137086.0
2026-04-14 18:03:02.957906,705747,1609507276604015,4876573415,-0.11712,0.89792,-0.324032,21.4375,-74.777504,-152.39,-34.416,-16.992,-2.056,eccentric,8,3.0,62633.0,198970.0,121159.0,194737.0,137086.0
2026-04-14 18:03:02.974040,705748,1609507276618523,4876588314,-0.11712,0.77104,-0.349408,13.37875,-79.49375,-152.95876,-34.416,-16.992,-4.104,eccentric,8,3.0,62633.0,198970.0,121159.0,194737.0,137086.0
2026-04-14 18:03:02.981608,705749,1609507276627513,4876597010,-0.072224,0.77104,-0.349408,18.8475,-78.98625,-154.0,-33.104,-18.928001,-4.528,eccentric,8,3.0,62633.0,198970.0,121159.0,194737.0,137086.0
2026-04-14 18:03:02.998009,705750,1609507276642058,4876611921,-0.279136,0.98576,-0.290848,36.32125,-73.36,-152.55624,-31.448002,-20.496,-5.072,eccentric,8,3.0,62633.0,198970.0,121159.0,194737.0,137086.0
2026-04-14 18:03:03.032953,705761,1609507276651111,4876620719,-0.279136,0.98576,-0.290848,56.25375,-67.57625,-154.42,-31.448002,-20.496,-5.072,eccentric,8,3.0,42509.0,176485.0,94494.0,175437.0,108373.0
2026-04-14 18:03:03.035506,705762,1609507276660148,4876629448,-0.232288,1.03456,-0.288896,54.18875,-72.2575,-157.5175,-30.080002,-22.152,-5.424,eccentric,8,3.0,42509.0,176485.0,94494.0,175437.0,108373.0
2026-04-14 18:03:03.040183,705763,1609507276674840,4876644448,-0.232288,1.03456,-0.288896,36.6275,-80.8325,-156.3275,-30.080002,-22.152,-5.424,eccentric,8,3.0,42509.0,176485.0,94494.0,175437.0,108373.0
2026-04-14 18:03:03.040536,705764,1609507276683942,4876653274,-0.2928,0.880352,-0.366976,20.79,-87.64875,-155.505,-29.232002,-23.728,-6.888001,eccentric,8,3.0,42509.0,176485.0,94494.0,175437.0,108373.0
2026-04-14 18:03:03.052780,705765,1609507276698408,4876668197,-0.2928,0.880352,-0.366976,16.52,-89.705,-155.8375,-29.232002,-23.728,-6.888001,eccentric,8,3.0,42509.0,176485.0,94494.0,175437.0,108373.0
2026-04-14 18:03:03.061553,705766,1609507276707329,4876676914,-0.445056,0.860832,-0.655872,25.64625,-88.0075,-154.8225,-28.272001,-24.608002,-8.432,eccentric,8,3.0,42509.0,176485.0,94494.0,175437.0,108373.0
2026-04-14 18:03:03.071652,705767,1609507276716228,4876685598,-0.445056,0.860832,-0.655872,40.39,-83.965004,-153.195,-28.272001,-24.608002,-8.432,eccentric,8,3.0,42509.0,176485.0,94494.0,175437.0,108373.0
2026-04-14 18:03:03.086597,705768,1609507276730825,4876700673,-0.443104,0.935008,-0.423584,47.6875,-82.845,-154.04375,-25.672,-25.992,-8.936001,eccentric,8,3.0,42509.0,176485.0,94494.0,175437.0,108373.0
2026-04-14 18:03:03.094194,705769,1609507276739748,4876709361,-0.562176,0.977952,-0.402112,44.065,-84.42,-153.685,-25.328001,-26.488,-10.704,eccentric,8,3.0,42509.0,176485.0,94494.0,175437.0,108373.0
2026-04-14 18:03:03.197107,705780,1609507276754537,4876724334,-0.562176,0.977952,-0.402112,36.74125,-86.6075,-152.5125,-25.328001,-26.488,-10.704,eccentric,8,3.0,42852.0,181013.0,94180.0,178662.0,108365.0
2026-04-14 18:03:03.199619,705781,1609507276763517,4876733158,-0.66368,0.860832,-0.50752,33.90625,-87.3775,-150.9725,-23.608002,-27.904001,-10.080001,eccentric,8,3.0,42852.0,181013.0,94180.0,178662.0,108365.0
2026-04-14 18:03:03.202117,705782,1609507276778001,4876748061,-0.66368,0.860832,-0.50752,37.1175,-86.135,-147.84,-23.608002,-27.904001,-10.080001,eccentric,8,3.0,42852.0,181013.0,94180.0,178662.0,108365.0
2026-04-14 18:03:03.204621,705783,1609507276786927,4876756743,-0.808128,0.921344,-0.47824,38.99875,-83.3175,-145.215,-21.728,-28.560001,-13.288001,eccentric,8,3.0,42852.0,181013.0,94180.0,178662.0,108365.0
2026-04-14 18:03:03.206989,705784,1609507276796004,4876765423,-0.808128,0.921344,-0.47824,41.67625,-79.26625,-142.1525,-21.728,-28.560001,-13.288001,eccentric,8,3.0,42852.0,181013.0,94180.0,178662.0,108365.0
2026-04-14 18:03:03.209256,705785,1609507276810509,4876780346,-0.794464,0.83936,-0.388448,36.84625,-77.79625,-137.9175,-20.2,-29.104002,-12.616,eccentric,8,3.0,42852.0,181013.0,94180.0,178662.0,108365.0
2026-04-14 18:03:03.212080,705786,1609507276819461,4876789028,-0.794464,0.83936,-0.484096,27.72875,-75.7225,-132.615,-20.2,-29.104002,-12.616,eccentric,8,3.0,42852.0,181013.0,94180.0,178662.0,108365.0
2026-04-14 18:03:03.214586,705787,1609507276833969,4876803903,-0.81984,0.710528,-0.484096,22.79375,-72.485,-127.18125,-18.264,-30.184002,-14.856001,eccentric,8,3.0,42852.0,181013.0,94180.0,178662.0,108365.0
2026-04-14 18:03:03.217067,705788,1609507276842908,4876812619,-0.970144,0.806176,-0.571936,28.0,-66.0975,-122.38625,-15.928,-30.344002,-14.568001,eccentric,8,3.0,42852.0,181013.0,94180.0,178662.0,108365.0
2026-04-14 18:03:03.249430,705799,1609507276852100,4876821346,-0.970144,0.806176,-0.571936,37.21375,-59.666252,-119.28,-15.928,-30.344002,-14.568001,eccentric,8,3.0,46749.0,193006.0,98935.0,188010.0,114012.0
2026-04-14 18:03:03.251931,705800,1609507276866634,4876836290,-0.882304,0.798368,-0.538752,39.9175,-56.1925,-116.655,-13.960001,-30.552002,-15.104001,eccentric,8,3.0,46749.0,193006.0,98935.0,188010.0,114012.0
2026-04-14 18:03:03.254365,705801,1609507276875885,4876845010,-0.882304,0.798368,-0.538752,31.87625,-56.69125,-113.47,-13.960001,-30.552002,-15.104001,eccentric,8,3.0,46749.0,193006.0,98935.0,188010.0,114012.0
2026-04-14 18:03:03.256885,705802,1609507276890407,4876859977,-0.833504,0.636352,-0.482144,24.52625,-57.855,-108.5875,-12.648001,-30.624,-15.824,eccentric,8,3.0,46749.0,193006.0,98935.0,188010.0,114012.0
2026-04-14 18:03:03.259484,705803,1609507276899367,4876868723,-0.833504,0.636352,-0.482144,23.89625,-58.7475,-102.558754,-12.648001,-30.624,-15.824,eccentric,8,3.0,46749.0,193006.0,98935.0,188010.0,114012.0
2026-04-14 18:03:03.262072,705804,1609507276908322,4876877614,-0.823744,0.72224,-0.441152,29.61875,-56.5075,-96.48625,-11.328,-31.032001,-16.536001,eccentric,8,3.0,46749.0,193006.0,98935.0,188010.0,114012.0
2026-04-14 18:03:03.278274,705805,1609507276922802,4876892561,-0.899872,0.880352,-0.466528,39.12125,-53.025,-90.92125,-9.936001,-30.960001,-17.016,eccentric,8,3.0,46749.0,193006.0,98935.0,188010.0,114012.0
2026-04-14 18:03:03.287047,705806,1609507276931795,4876901418,-0.899872,0.880352,-0.466528,37.63375,-52.325,-89.8975,-9.936001,-30.960001,-17.016,eccentric,8,3.0,46749.0,193006.0,98935.0,188010.0,114012.0
2026-04-14 18:03:03.326327,705817,1609507276946441,4876916689,-0.792512,0.74176,-0.308416,27.9125,-52.84125,-89.285,-8.568001,-30.872002,-17.544,eccentric,8,3.0,48649.0,196475.0,101978.0,190796.0,117072.0
2026-04-14 18:03:03.334412,705818,1609507276955440,4876925431,-0.792512,0.74176,-0.308416,21.77875,-53.17375,-88.43625,-8.568001,-30.872002,-17.544,eccentric,8,3.0,48649.0,196475.0,101978.0,190796.0,117072.0
2026-04-14 18:03:03.336968,705819,1609507276969993,4876938378,-0.831552,0.648064,-0.316224,21.63,-55.265,-88.06875,-7.232,-30.856,-17.288,eccentric,8,3.0,48649.0,196475.0,101978.0,190796.0,117072.0
2026-04-14 18:03:03.339112,705820,1609507276979193,4876949209,-0.831552,0.648064,-0.316224,28.95375,-54.215,-84.60375,-7.232,-30.856,-17.288,eccentric,8,3.0,48649.0,196475.0,101978.0,190796.0,117072.0
2026-04-14 18:03:03.344414,705821,1609507276988205,4876957947,-0.854976,0.831552,-0.3416,40.94125,-52.45625,-80.12375,-6.416,-30.304,-18.776001,eccentric,8,3.0,48649.0,196475.0,101978.0,190796.0,117072.0
2026-04-14 18:03:03.357836,705822,1609507277002772,4876972854,-0.827648,0.81008,-0.532896,44.16125,-52.185,-79.0825,-4.64,-30.392002,-20.856,eccentric,8,3.0,48649.0,196475.0,101978.0,190796.0,117072.0
2026-04-14 18:03:03.368270,705823,1609507277011791,4876981681,-0.827648,0.81008,-0.532896,35.14,-53.165,-79.4325,-4.64,-30.392002,-20.856,eccentric,8,3.0,48649.0,196475.0,101978.0,190796.0,117072.0
2026-04-14 18:03:03.384566,705824,1609507277026306,4876996566,-0.89792,0.609024,-0.55632,22.295,-54.425,-78.995,-3.232,-30.560001,-19.456001,eccentric,8,3.0,48649.0,196475.0,101978.0,190796.0,117072.0
2026-04-14 18:03:03.390306,705825,1609507277035409,4877005278,-0.89792,0.609024,-0.55632,16.397501,-55.55375,-78.2075,-3.232,-30.560001,-19.456001,eccentric,8,3.0,48649.0,196475.0,101978.0,190796.0,117072.0
2026-04-14 18:03:03.399552,705826,1609507277044464,4877014003,-0.899872,0.661728,-0.281088,20.825,-54.95,-76.23,-1.696,-29.704,-20.128,eccentric,8,3.0,48649.0,196475.0,101978.0,190796.0,117072.0
2026-04-14 18:03:03.429368,705837,1609507277059115,4877028965,-0.899872,0.661728,-0.281088,32.8475,-51.44125,-71.26,-1.696,-29.704,-20.128,eccentric,8,3.0,45750.0,196735.0,98244.0,190346.0,112720.0
2026-04-14 18:03:03.431874,705838,1609507277068079,4877037724,-0.919392,0.759328,-0.511424,39.2,-48.95625,-69.78125,-1.848,-29.104002,-18.664001,eccentric,8,3.0,45750.0,196735.0,98244.0,190346.0,112720.0
2026-04-14 18:03:03.440118,705839,1609507277082605,4877052650,-0.903776,0.630496,-0.5368,33.50375,-48.685,-70.14875,-1.208,-28.536001,-18.744001,eccentric,8,3.0,45750.0,196735.0,98244.0,190346.0,112720.0
2026-04-14 18:03:03.447062,705840,1609507277091544,4877061345,-0.903776,0.630496,-0.5368,23.96625,-49.5075,-70.9625,-1.208,-28.536001,-18.744001,eccentric,8,3.0,45750.0,196735.0,98244.0,190346.0,112720.0
2026-04-14 18:03:03.463259,705841,1609507277106055,4877076225,-0.989664,0.571936,-0.398208,17.75375,-50.23375,-70.14875,0.976,-29.128002,-21.312,eccentric,8,3.0,45750.0,196735.0,98244.0,190346.0,112720.0
2026-04-14 18:03:03.469571,705842,1609507277115016,4877084941,-0.989664,0.571936,-0.398208,20.41375,-49.84875,-66.3425,0.976,-29.128002,-21.312,eccentric,8,3.0,45750.0,196735.0,98244.0,190346.0,112720.0
2026-04-14 18:03:03.478310,705843,1609507277123981,4877093644,-0.894016,0.589504,-0.406016,27.475,-48.60625,-62.02,1.512,-28.704,-20.328001,eccentric,8,3.0,45750.0,196735.0,98244.0,190346.0,112720.0
2026-04-14 18:03:03.494135,705844,1609507277138488,4877108594,-0.894016,0.589504,-0.406016,27.8075,-46.47125,-58.98375,1.512,-28.704,-20.328001,eccentric,8,3.0,45750.0,196735.0,98244.0,190346.0,112720.0
2026-04-14 18:03:03.600114,705855,1609507277147502,4877117739,-0.976,0.620736,-0.511424,25.0775,-43.2075,-55.93875,3.48,-28.760002,-21.408,eccentric,8,3.0,44733.0,193663.0,96684.0,187676.0,111179.0
2026-04-14 18:03:03.603806,705856,1609507277162069,4877130595,-1.038464,0.599264,-0.49776,18.795,-41.36125,-55.6675,3.48,-28.760002,-19.984001,eccentric,8,3.0,44733.0,193663.0,96684.0,187676.0,111179.0
2026-04-14 18:03:03.617704,705857,1609507277171459,4877141399,-1.046272,0.599264,-0.49776,10.325,-40.32875,-54.66125,3.832,-28.232002,-19.984001,eccentric,8,3.0,44733.0,193663.0,96684.0,187676.0,111179.0
2026-04-14 18:03:03.628185,705858,1609507277180505,4877150163,-1.046272,0.599264,-0.49776,6.85125,-39.82125,-51.63375,3.832,-28.232002,-19.984001,eccentric,8,3.0,44733.0,193663.0,96684.0,187676.0,111179.0
2026-04-14 18:03:03.630968,705859,1609507277195021,4877165067,-0.923296,0.49776,-0.407968,7.0525,-39.08625,-48.74625,4.432,-28.024002,-22.272001,eccentric,8,3.0,44733.0,193663.0,96684.0,187676.0,111179.0
2026-04-14 18:03:03.634437,705860,1609507277204078,4877173768,-0.935008,0.515328,-0.443104,10.17625,-37.2925,-45.03625,4.864,-27.944002,-22.928001,eccentric,8,3.0,44733.0,193663.0,96684.0,187676.0,111179.0
2026-04-14 18:03:03.636501,705861,1609507277218585,4877188698,-0.935008,0.515328,-0.443104,13.18625,-34.5625,-42.245,4.864,-27.944002,-22.928001,eccentric,8,3.0,44733.0,193663.0,96684.0,187676.0,111179.0
2026-04-14 18:03:03.636715,705862,1609507277227555,4877197374,-1.001376,0.589504,-0.503616,14.385,-30.94,-39.0425,6.176,-27.736002,-21.728,eccentric,8,3.0,44733.0,193663.0,96684.0,187676.0,111179.0
2026-04-14 18:03:03.636894,705863,1609507277242110,4877212526,-1.001376,0.589504,-0.456768,10.9725,-28.84,-37.59,6.176,-27.736002,-21.728,eccentric,8,3.0,44733.0,193663.0,96684.0,187676.0,111179.0
2026-04-14 18:03:03.646414,705874,1609507277251112,4877221262,-0.964288,0.515328,-0.460672,2.4675,-27.5625,-36.86375,6.872,-27.648,-21.624,eccentric,8,3.0,42202.0,186242.0,92848.0,181222.0,106936.0
2026-04-14 18:03:03.651377,705875,1609507277260283,4877230098,-0.964288,0.515328,-0.460672,-5.22375,-27.02,-35.14,6.872,-27.648,-21.624,eccentric,8,3.0,42202.0,186242.0,92848.0,181222.0,106936.0
2026-04-14 18:03:03.653932,705876,1609507277275141,4877245171,-1.013088,0.47824,-0.245952,-6.79,-26.7925,-32.2875,7.8,-27.392002,-21.752,eccentric,8,3.0,42202.0,186242.0,92848.0,181222.0,106936.0
2026-04-14 18:03:03.658099,705877,1609507277284083,4877253876,-0.999424,0.521184,-0.441152,-3.36875,-26.3025,-29.35625,7.952,-27.592001,-21.400002,eccentric,8,3.0,42202.0,186242.0,92848.0,181222.0,106936.0
2026-04-14 18:03:03.660688,705878,1609507277298705,4877268973,-0.999424,0.521184,-0.441152,-1.84625,-24.75375,-27.8425,7.952,-27.592001,-21.400002,eccentric,8,3.0,42202.0,186242.0,92848.0,181222.0,106936.0
2026-04-14 18:03:03.665141,705879,1609507277307854,4877277667,-0.938912,0.51728,-0.286944,-2.72125,-22.91625,-27.95625,8.512,-27.36,-21.584002,eccentric,8,3.0,42202.0,186242.0,92848.0,181222.0,106936.0
2026-04-14 18:03:03.669994,705880,1609507277316814,4877286377,-0.938912,0.51728,-0.286944,-8.98625,-22.02375,-28.98875,8.512,-27.36,-21.584002,eccentric,8,3.0,42202.0,186242.0,92848.0,181222.0,106936.0
2026-04-14 18:03:03.686641,705881,1609507277331290,4877301262,-0.954528,0.366976,-0.345504,-16.45,-22.1725,-28.72625,7.912,-26.896002,-20.320002,eccentric,8,3.0,42202.0,186242.0,92848.0,181222.0,106936.0
2026-04-14 18:03:03.695347,705882,1609507277340239,4877309977,-0.954528,0.366976,-0.345504,-15.04125,-21.27125,-25.59375,7.912,-26.896002,-20.320002,eccentric,8,3.0,42202.0,186242.0,92848.0,181222.0,106936.0
2026-04-14 18:03:03.727618,705893,1609507277354984,4877325181,-1.056032,0.460672,-0.30256,-8.09375,-19.495,-21.06125,9.080001,-27.264002,-21.368002,eccentric,8,3.0,41271.0,183231.0,91782.0,178606.0,105817.0
2026-04-14 18:03:03.730131,705894,1609507277364001,4877333956,-1.0248,0.456768,-0.220576,-3.15,-18.17375,-18.06875,8.76,-26.856,-22.456001,eccentric,8,3.0,41271.0,183231.0,91782.0,178606.0,105817.0
2026-04-14 18:03:03.732857,705895,1609507277373099,4877342670,-1.0248,0.456768,-0.220576,-5.565,-17.9375,-18.655,8.76,-26.856,-22.456001,eccentric,8,3.0,41271.0,183231.0,91782.0,178606.0,105817.0
2026-04-14 18:03:03.741529,705896,1609507277387648,4877357540,-1.061888,0.382592,-0.378688,-13.32625,-17.85,-20.991251,8.968,-27.064001,-21.28,eccentric,8,3.0,41271.0,183231.0,91782.0,178606.0,105817.0
2026-04-14 18:03:03.751652,705897,1609507277396683,4877366231,-1.061888,0.382592,-0.378688,-14.752501,-14.90125,-18.76875,8.968,-27.064001,-21.28,eccentric,8,3.0,41271.0,183231.0,91782.0,178606.0,105817.0
