pc_time,serial_num,sensor_ts,host_ts,ax,ay,az,gx,gy,gz,mx,my,mz,phase,rpe,weight_kg,ppg_a,ppg_b,ppg_c,ppg_d,ppg_e
2026-04-14 18:03:06.886653,706479,1609507280468311,4880438653,-0.794464,0.796416,-0.271328,24.0975,-48.5275,-88.80375,-9.808001,-30.960001,-16.68,concentric,8,3.0,43759.0,197424.0,96805.0,190952.0,110441.0
2026-04-14 18:03:06.889146,706480,1609507280477466,4880447412,-0.794464,0.796416,-0.271328,9.9925,-48.60625,-90.76375,-9.808001,-30.960001,-16.68,concentric,8,3.0,43759.0,197424.0,96805.0,190952.0,110441.0
2026-04-14 18:03:06.891435,706481,1609507280486526,4880456146,-0.901824,0.679296,-0.41968,3.3775,-48.90375,-89.4775,-8.712001,-30.608002,-16.688002,concentric,8,3.0,43759.0,197424.0,96805.0,190952.0,110441.0
2026-04-14 18:03:06.894121,706482,1609507280501025,4880471064,-0.901824,0.679296,-0.41968,7.55125,-50.46125,-84.805,-8.712001,-30.608002,-16.688002,concentric,8,3.0,43759.0,197424.0,96805.0,190952.0,110441.0
2026-04-14 18:03:06.896608,706483,1609507280509918,4880479777,-0.890112,0.786656,-0.509472,15.015,-52.8325,-79.7475,-8.416,-30.520002,-17.160002,concentric,8,3.0,43759.0,197424.0,96805.0,190952.0,110441.0
2026-04-14 18:03:06.899193,706484,1609507280524481,4880494688,-0.80032,0.776896,-0.357216,20.72875,-53.8475,-78.68,-6.648,-30.352001,-18.84,concentric,8,3.0,43759.0,197424.0,96805.0,190952.0,110441.0
2026-04-14 18:03:06.901601,706485,1609507280533448,4880503456,-0.80032,0.776896,-0.357216,18.97,-50.18125,-79.2225,-6.648,-30.352001,-18.84,concentric,8,3.0,43759.0,197424.0,96805.0,190952.0,110441.0
2026-04-14 18:03:06.905084,706486,1609507280542510,4880512185,-0.80032,0.776896,-0.357216,13.09875,-45.7275,-79.23125,-6.648,-30.352001,-18.84,concentric,8,3.0,43759.0,197424.0,96805.0,190952.0,110441.0
2026-04-14 18:03:06.912951,706487,1609507280557060,4880527091,-0.909632,0.6832,-0.359168,5.425,-43.715,-78.9775,-5.8,-30.224,-17.6,concentric,8,3.0,43759.0,197424.0,96805.0,190952.0,110441.0
2026-04-14 18:03:06.920382,706488,1609507280566099,4880535819,-0.944768,0.61488,-0.343552,1.4,-42.84875,-73.5175,-3.728,-30.688002,-18.136002,concentric,8,3.0,43759.0,197424.0,96805.0,190952.0,110441.0
2026-04-14 18:03:06.948023,706499,1609507280580710,4880550803,-0.944768,0.61488,-0.343552,3.2725,-42.32375,-66.3425,-3.728,-30.688002,-18.136002,concentric,8,3.0,42604.0,193898.0,94893.0,187861.0,108385.0
2026-04-14 18:03:06.950388,706500,1609507280589747,4880559530,-0.913536,0.76128,-0.310368,9.03,-40.17125,-60.48875,-2.64,-30.576002,-18.728,concentric,8,3.0,42604.0,193898.0,94893.0,187861.0,108385.0
2026-04-14 18:03:06.959332,706501,1609507280604285,4880574516,-0.837408,0.716384,-0.247904,16.47625,-37.4325,-57.54875,-2.64,-30.464,-19.160002,concentric,8,3.0,42604.0,193898.0,94893.0,187861.0,108385.0
2026-04-14 18:03:06.993033,706502,1609507280613217,4880583211,-0.837408,0.716384,-0.247904,13.335,-35.49,-57.925,-1.688,-30.464,-19.160002,concentric,8,3.0,42604.0,193898.0,94893.0,187861.0,108385.0
2026-04-14 18:03:06.995541,706503,1609507280622126,4880591880,-0.837408,0.716384,-0.247904,3.12375,-34.65,-56.7175,-1.688,-30.464,-19.160002,concentric,8,3.0,42604.0,193898.0,94893.0,187861.0,108385.0
2026-04-14 18:03:07.000715,706504,1609507280636609,4880606755,-0.874496,0.609024,-0.269376,-1.435,-33.36375,-54.4775,-1.128,-30.480001,-19.28,concentric,8,3.0,42604.0,193898.0,94893.0,187861.0,108385.0
2026-04-14 18:03:07.001171,706505,1609507280645532,4880615517,-0.823744,0.61488,-0.372832,1.84625,-31.4125,-51.61625,-0.136,-30.408,-18.720001,concentric,8,3.0,42604.0,193898.0,94893.0,187861.0,108385.0
2026-04-14 18:03:07.016622,706506,1609507280660186,4880630429,-0.823744,0.61488,-0.372832,9.1175,-29.88125,-47.5475,-0.136,-30.408,-18.720001,concentric,8,3.0,42604.0,193898.0,94893.0,187861.0,108385.0
2026-04-14 18:03:07.047920,706517,1609507280669433,4880639150,-0.827648,0.75152,-0.33184,15.085,-29.39125,-46.26125,0.704,-29.912,-19.104,concentric,8,3.0,41628.0,190680.0,93372.0,185067.0,106792.0
2026-04-14 18:03:07.050554,706518,1609507280678466,4880647919,-0.827648,0.75152,-0.33184,14.56875,-30.58125,-47.7225,0.704,-29.912,-19.104,concentric,8,3.0,41628.0,190680.0,93372.0,185067.0,106792.0
2026-04-14 18:03:07.053011,706519,1609507280692997,4880662872,-0.9272,0.67344,-0.425536,5.66125,-32.935,-50.40875,0.736,-29.720001,-18.904001,concentric,8,3.0,41628.0,190680.0,93372.0,185067.0,106792.0
2026-04-14 18:03:07.057955,706520,1609507280701939,4880671548,-0.9272,0.67344,-0.425536,-4.8825,-34.69375,-50.61875,0.736,-29.720001,-18.904001,concentric,8,3.0,41628.0,190680.0,93372.0,185067.0,106792.0
2026-04-14 18:03:07.070819,706521,1609507280716609,4880686505,-0.890112,0.532896,-0.22448,-7.72625,-34.41375,-49.875,1.2,-29.808,-18.712002,concentric,8,3.0,41628.0,190680.0,93372.0,185067.0,106792.0
2026-04-14 18:03:07.080874,706522,1609507280725596,4880695210,-1.016992,0.661728,-0.450912,-3.675,-31.92,-47.60875,3.16,-29.968002,-19.560001,concentric,8,3.0,41628.0,190680.0,93372.0,185067.0,106792.0
2026-04-14 18:03:07.095408,706523,1609507280740109,4880710147,-1.016992,0.661728,-0.450912,1.12,-28.210001,-44.98375,3.16,-29.968002,-19.560001,concentric,8,3.0,41628.0,190680.0,93372.0,185067.0,106792.0
2026-04-14 18:03:07.105217,706524,1609507280749062,4880718833,-0.923296,0.6832,-0.2928,3.80625,-26.4425,-44.8525,3.712,-29.808,-19.104,concentric,8,3.0,41628.0,190680.0,93372.0,185067.0,106792.0
2026-04-14 18:03:07.112049,706525,1609507280758031,4880727535,-0.923296,0.6832,-0.2928,0.4025,-27.06375,-47.29375,3.712,-29.808,-19.104,concentric,8,3.0,41628.0,190680.0,93372.0,185067.0,106792.0
2026-04-14 18:03:07.148375,706536,1609507280773139,4880742498,-0.962336,0.51728,-0.27328,-7.23625,-28.2275,-47.62625,4.392,-29.896002,-19.888,concentric,8,3.0,43491.0,193223.0,95878.0,187016.0,109842.0
2026-04-14 18:03:07.150851,706537,1609507280782212,4880751253,-0.962336,0.51728,-0.27328,-9.17875,-26.985,-44.170002,4.392,-29.896002,-19.888,concentric,8,3.0,43491.0,193223.0,95878.0,187016.0,109842.0
2026-04-14 18:03:07.153301,706538,1609507280796918,4880766274,-0.991616,0.4392,-0.228384,-4.5325,-24.03625,-38.21125,3.176,-29.176,-17.848001,concentric,8,3.0,43491.0,193223.0,95878.0,187016.0,109842.0
2026-04-14 18:03:07.160443,706539,1609507280805895,4880775025,-0.929152,0.528992,-0.343552,3.815,-19.13625,-30.93125,3.432,-29.088001,-18.408,concentric,8,3.0,43491.0,193223.0,95878.0,187016.0,109842.0
2026-04-14 18:03:07.170857,706540,1609507280814844,4880783690,-0.929152,0.528992,-0.343552,9.52,-14.72625,-25.96125,3.432,-29.088001,-18.408,concentric,8,3.0,43491.0,193223.0,95878.0,187016.0,109842.0
2026-04-14 18:03:07.205734,706541,1609507280829348,4880798634,-0.960384,0.52704,-0.411872,9.38875,-11.62,-24.8325,5.104,-29.376001,-19.632002,concentric,8,3.0,43491.0,193223.0,95878.0,187016.0,109842.0
2026-04-14 18:03:07.207934,706542,1609507280838270,4880807426,-0.960384,0.52704,-0.411872,4.83,-11.76,-24.89375,5.104,-29.376001,-19.632002,concentric,8,3.0,43491.0,193223.0,95878.0,187016.0,109842.0
2026-04-14 18:03:07.210490,706543,1609507280852750,4880822333,-1.00528,0.470432,-0.249856,-2.275,-13.22125,-24.78,5.136,-29.096,-18.608002,concentric,8,3.0,43491.0,193223.0,95878.0,187016.0,109842.0
2026-04-14 18:03:07.237083,706544,1609507280861689,4880831032,-1.00528,0.470432,-0.249856,-3.75375,-13.615,-22.86375,5.136,-29.096,-18.608002,concentric,8,3.0,43491.0,193223.0,95878.0,187016.0,109842.0
2026-04-14 18:03:07.269594,706555,1609507280870632,4880839830,-0.972096,0.417728,-0.406016,1.015,-12.81,-19.1975,6.096,-29.096,-19.024,concentric,8,3.0,43862.0,192741.0,96079.0,186604.0,110173.0
2026-04-14 18:03:07.272115,706556,1609507280885195,4880854845,-0.972096,0.417728,-0.406016,7.525,-11.6725,-16.9925,6.096,-29.096,-19.024,concentric,8,3.0,43862.0,192741.0,96079.0,186604.0,110173.0
2026-04-14 18:03:07.274348,706557,1609507280894250,4880863544,-1.032608,0.62464,-0.30256,10.2725,-11.52375,-16.1175,5.368,-28.912,-19.232,concentric,8,3.0,43862.0,192741.0,96079.0,186604.0,110173.0
2026-04-14 18:03:07.277094,706558,1609507280908735,4880878587,-1.0248,0.552416,-0.245952,7.6125,-12.20625,-17.7275,5.904,-28.544,-18.528002,concentric,8,3.0,43862.0,192741.0,96079.0,186604.0,110173.0
2026-04-14 18:03:07.282139,706559,1609507280917685,4880887346,-1.0248,0.552416,-0.245952,-1.95125,-14.77,-21.53375,5.904,-28.544,-18.528002,concentric,8,3.0,43862.0,192741.0,96079.0,186604.0,110173.0
2026-04-14 18:03:07.286618,706560,1609507280932286,4880902273,-0.960384,0.407968,-0.160064,-8.3125,-15.02375,-20.60625,5.624,-29.032001,-18.664001,concentric,8,3.0,43862.0,192741.0,96079.0,186604.0,110173.0
2026-04-14 18:03:07.298151,706561,1609507280941213,4880910954,-0.960384,0.407968,-0.160064,-4.71625,-11.8125,-16.625,5.624,-29.032001,-18.664001,concentric,8,3.0,43862.0,192741.0,96079.0,186604.0,110173.0
2026-04-14 18:03:07.305532,706562,1609507280950180,4880919635,-0.98576,0.564128,-0.366976,3.94625,-7.06125,-10.87625,7.12,-28.880001,-19.472,concentric,8,3.0,43862.0,192741.0,96079.0,186604.0,110173.0
2026-04-14 18:03:07.320734,706563,1609507280964729,4880934568,-0.98576,0.564128,-0.366976,7.34125,-4.2525,-8.37375,7.12,-28.880001,-19.472,concentric,8,3.0,43862.0,192741.0,96079.0,186604.0,110173.0
2026-04-14 18:03:07.352107,706574,1609507280974235,4880943448,-1.040416,0.706624,-0.349408,2.42375,-5.32,-11.9,7.016,-28.784002,-17.072,concentric,8,3.0,44109.0,192045.0,96422.0,186453.0,110761.0
2026-04-14 18:03:07.354636,706575,1609507280988906,4880958473,-1.028704,0.433344,-0.25376,-10.185,-9.8525,-17.22875,5.64,-28.648,-17.696001,concentric,8,3.0,44109.0,192045.0,96422.0,186453.0,110761.0
2026-04-14 18:03:07.356637,706576,1609507280997899,4880967298,-1.028704,0.433344,-0.25376,-21.76125,-12.9325,-17.3775,5.64,-28.648,-17.696001,concentric,8,3.0,44109.0,192045.0,96422.0,186453.0,110761.0
2026-04-14 18:03:07.363326,706577,1609507281006913,4880976001,-1.020896,0.456768,-0.228384,-19.1275,-10.29,-12.59125,5.64,-28.992,-17.336,concentric,8,3.0,44109.0,192045.0,96422.0,186453.0,110761.0
2026-04-14 18:03:07.376670,706578,1609507281021432,4880990890,-1.020896,0.456768,-0.228384,-7.35875,-2.19625,-4.3925,5.520001,-28.992,-17.336,concentric,8,3.0,44109.0,192045.0,96422.0,186453.0,110761.0
2026-04-14 18:03:07.387721,706579,1609507281030409,4880999632,-0.98576,0.6832,-0.476288,-2.2225,4.025,0.315,6.920001,-29.000002,-19.28,concentric,8,3.0,44109.0,192045.0,96422.0,186453.0,110761.0
2026-04-14 18:03:07.399435,706580,1609507281044902,4881014555,-0.98576,0.6832,-0.476288,-5.0925,6.60625,-2.72125,6.920001,-29.000002,-19.28,concentric,8,3.0,44109.0,192045.0,96422.0,186453.0,110761.0
2026-04-14 18:03:07.410740,706581,1609507281053845,4881023239,-1.08336,0.538752,-0.347456,-15.2425,5.24125,-8.11125,7.504,-29.352001,-19.576,concentric,8,3.0,44109.0,192045.0,96422.0,186453.0,110761.0
2026-04-14 18:03:07.424246,706582,1609507281068314,4881038246,-1.022848,0.306464,-0.40992,-25.34875,3.19375,-9.4675,7.016,-29.304,-19.512001,concentric,8,3.0,44109.0,192045.0,96422.0,186453.0,110761.0
2026-04-14 18:03:07.452048,706593,1609507281077309,4881047110,-1.022848,0.306464,-0.40992,-29.91625,4.54125,-3.9025,7.016,-29.304,-19.512001,concentric,8,3.0,46686.0,199734.0,99221.0,192657.0,114190.0
2026-04-14 18:03:07.454606,706594,1609507281086413,4881055866,-1.022848,0.306464,-0.40992,-21.72625,10.94625,9.345,7.016,-29.304,-19.512001,concentric,8,3.0,46686.0,199734.0,99221.0,192657.0,114190.0
2026-04-14 18:03:07.456933,706595,1609507281101096,4881070810,-1.018944,0.67344,-0.281088,-6.23,19.04,16.4675,5.768,-29.160002,-16.960001,concentric,8,3.0,46686.0,199734.0,99221.0,192657.0,114190.0
2026-04-14 18:03:07.464579,706596,1609507281110126,4881079521,-1.05408,0.708576,-0.447008,-7.06125,21.98875,11.87375,6.4,-29.584002,-18.816,concentric,8,3.0,46686.0,199734.0,99221.0,192657.0,114190.0
2026-04-14 18:03:07.480240,706597,1609507281124618,4881094428,-1.05408,0.708576,-0.447008,-26.36375,17.57875,5.57375,6.4,-29.584002,-18.816,concentric,8,3.0,46686.0,199734.0,99221.0,192657.0,114190.0
2026-04-14 18:03:07.489165,706598,1609507281133586,4881103110,-0.938912,0.201056,-0.13664,-44.44125,12.36375,3.49125,6.112001,-29.968002,-18.44,concentric,8,3.0,46686.0,199734.0,99221.0,192657.0,114190.0
2026-04-14 18:03:07.496953,706599,1609507281142592,4881111877,-0.938912,0.201056,-0.13664,-41.48375,13.97375,13.64125,6.112001,-29.968002,-18.44,concentric,8,3.0,46686.0,199734.0,99221.0,192657.0,114190.0
2026-04-14 18:03:07.511943,706600,1609507281157132,4881126912,-0.979904,0.425536,-0.365024,-15.198751,26.25,32.9175,5.528,-30.400002,-17.904001,concentric,8,3.0,46686.0,199734.0,99221.0,192657.0,114190.0
2026-04-14 18:03:07.520782,706601,1609507281166092,4881135622,-0.979904,0.425536,-0.365024,6.5975,38.815,46.138752,5.528,-30.400002,-17.904001,concentric,8,3.0,46686.0,199734.0,99221.0,192657.0,114190.0
2026-04-14 18:03:07.598582,706612,1609507281181005,4881151112,-0.979904,1.003328,-0.427488,6.20375,43.26875,41.46625,4.272,-29.984001,-16.808,concentric,8,3.0,44224.0,196210.0,95762.0,189841.0,110613.0
2026-04-14 18:03:07.600827,706613,1609507281190096,4881159835,-0.948672,0.50752,-0.25376,-14.95375,36.96,25.8475,2.672,-30.400002,-16.048,concentric,8,3.0,44224.0,196210.0,95762.0,189841.0,110613.0
2026-04-14 18:03:07.630808,706614,1609507281199155,4881168613,-0.948672,0.50752,-0.25376,-47.81875,24.185,18.8825,2.672,-30.400002,-16.048,concentric,8,3.0,44224.0,196210.0,95762.0,189841.0,110613.0
2026-04-14 18:03:07.633239,706615,1609507281213642,4881183565,-1.036512,0.103456,-0.392352,-61.53875,17.4825,25.75125,1.688,-30.664001,-16.720001,concentric,8,3.0,44224.0,196210.0,95762.0,189841.0,110613.0
2026-04-14 18:03:07.635841,706616,1609507281222544,4881192242,-1.036512,0.103456,-0.392352,-41.99125,23.75625,39.01625,1.688,-30.664001,-16.720001,concentric,8,3.0,44224.0,196210.0,95762.0,189841.0,110613.0
2026-04-14 18:03:07.637862,706617,1609507281237052,4881207219,-0.98576,0.728096,-0.236192,-8.21625,38.17625,58.275,1.616,-30.352001,-16.624,concentric,8,3.0,44224.0,196210.0,95762.0,189841.0,110613.0
2026-04-14 18:03:07.640360,706618,1609507281246006,4881215931,-0.98576,0.728096,-0.236192,12.60875,50.925,65.905,1.616,-30.352001,-16.624,concentric,8,3.0,44224.0,196210.0,95762.0,189841.0,110613.0
2026-04-14 18:03:07.643318,706619,1609507281260549,4881230828,-0.974048,0.901824,-0.212768,9.1875,53.90875,56.1575,0.824,-30.760002,-16.552,concentric,8,3.0,44224.0,196210.0,95762.0,189841.0,110613.0
2026-04-14 18:03:07.645858,706620,1609507281269584,4881239508,-1.020896,0.443104,-0.210816,-20.7025,47.11,48.11625,-0.584,-31.312002,-14.184001,concentric,8,3.0,44224.0,196210.0,95762.0,189841.0,110613.0
2026-04-14 18:03:07.673237,706631,1609507281278689,4881248210,-1.020896,0.443104,-0.210816,-48.39625,41.04625,52.15875,-0.584,-31.312002,-14.184001,concentric,8,3.0,43358.0,196039.0,93544.0,189130.0,108343.0
2026-04-14 18:03:07.675670,706632,1609507281293224,4881263305,-0.989664,0.406016,-0.433344,-48.46625,42.2625,60.73375,-1.24,-31.480001,-17.008001,concentric,8,3.0,43358.0,196039.0,93544.0,189130.0,108343.0
2026-04-14 18:03:07.677742,706633,1609507281302203,4881272053,-0.989664,0.406016,-0.433344,-28.3675,47.4775,68.38125,-1.24,-31.480001,-17.008001,concentric,8,3.0,43358.0,196039.0,93544.0,189130.0,108343.0
2026-04-14 18:03:07.680659,706634,1609507281316733,4881287082,-0.925248,0.923296,-0.290848,-4.27875,51.1175,71.277504,-2.296,-31.912,-16.960001,concentric,8,3.0,43358.0,196039.0,93544.0,189130.0,108343.0
2026-04-14 18:03:07.683170,706635,1609507281325656,4881295771,-0.925248,0.923296,-0.290848,3.325,48.09,62.85125,-2.296,-31.912,-16.960001,concentric,8,3.0,43358.0,196039.0,93544.0,189130.0,108343.0
2026-04-14 18:03:07.690235,706636,1609507281334612,4881304496,-0.837408,0.638304,-0.113216,-20.265,39.0775,59.920002,-2.92,-31.960001,-16.16,concentric,8,3.0,43358.0,196039.0,93544.0,189130.0,108343.0
2026-04-14 18:03:07.704146,706637,1609507281349105,4881319421,-0.970144,0.382592,-0.384544,-41.71125,36.4175,68.1625,-4.968,-31.680002,-17.136002,concentric,8,3.0,43358.0,196039.0,93544.0,189130.0,108343.0
2026-04-14 18:03:07.713345,706638,1609507281358040,4881328133,-0.970144,0.382592,-0.384544,-37.6425,40.04875,78.58375,-4.496,-31.680002,-17.136002,concentric,8,3.0,43358.0,196039.0,93544.0,189130.0,108343.0
2026-04-14 18:03:07.728319,706639,1609507281372510,4881340980,-0.911584,0.724192,-0.368928,-16.26625,47.15375,91.07,-5.936,-32.128002,-15.968,concentric,8,3.0,43358.0,196039.0,93544.0,189130.0,108343.0
2026-04-14 18:03:07.757671,706650,1609507281382292,4881351793,-0.911584,0.724192,-0.368928,3.78875,52.57875,98.315,-5.936,-32.128002,-15.968,concentric,8,3.0,41690.0,191108.0,90722.0,184525.0,105423.0
2026-04-14 18:03:07.760702,706651,1609507281391266,4881360579,-0.864736,0.948672,-0.275232,12.915,55.97375,95.095,-7.12,-32.008003,-15.936001,concentric,8,3.0,41690.0,191108.0,90722.0,184525.0,105423.0
2026-04-14 18:03:07.762780,706652,1609507281405772,4881375680,-0.864736,0.948672,-0.275232,2.44125,52.21125,86.2575,-7.12,-32.008003,-15.936001,concentric,8,3.0,41690.0,191108.0,90722.0,184525.0,105423.0
2026-04-14 18:03:07.770689,706653,1609507281414792,4881384386,-0.911584,0.607072,-0.394304,-25.366251,42.56875,85.21625,-8.752001,-32.04,-14.856001,concentric,8,3.0,41690.0,191108.0,90722.0,184525.0,105423.0
2026-04-14 18:03:07.786988,706654,1609507281429415,4881399274,-0.860832,0.402112,-0.42944,-45.4475,34.15125,91.07,-8.752001,-32.04,-14.136001,concentric,8,3.0,41690.0,191108.0,90722.0,184525.0,105423.0
2026-04-14 18:03:07.793339,706655,1609507281438347,4881408022,-0.860832,0.402112,-0.42944,-38.01,32.2525,100.6775,-10.408001,-32.08,-14.136001,concentric,8,3.0,41690.0,191108.0,90722.0,184525.0,105423.0
2026-04-14 18:03:07.810015,706656,1609507281452823,4881422912,-0.755424,0.999424,-0.464576,-15.2425,37.42375,106.96,-11.6,-31.536001,-14.76,concentric,8,3.0,41690.0,191108.0,90722.0,184525.0,105423.0
2026-04-14 18:03:07.816732,706657,1609507281461782,4881431628,-0.755424,0.999424,-0.464576,7.9275,46.01625,106.4,-11.6,-31.536001,-14.76,concentric,8,3.0,41690.0,191108.0,90722.0,184525.0,105423.0
2026-04-14 18:03:07.828325,706658,1609507281470736,4881440383,-0.640256,0.93696,-0.36112,8.575,50.8025,94.73625,-14.160001,-31.096,-11.320001,concentric,8,3.0,41690.0,191108.0,90722.0,184525.0,105423.0
2026-04-14 18:03:07.860189,706669,1609507281485368,4881455380,-0.640256,0.93696,-0.36112,-17.22875,45.45625,86.70375,-14.160001,-31.096,-11.320001,concentric,8,3.0,43469.0,188161.0,92761.0,182269.0,107730.0
2026-04-14 18:03:07.862726,706670,1609507281494355,4881464133,-0.769088,0.513376,-0.31232,-40.81,35.805,94.902504,-15.080001,-31.2,-12.8,concentric,8,3.0,43469.0,188161.0,92761.0,182269.0,107730.0
2026-04-14 18:03:07.865160,706671,1609507281508856,4881479052,-0.769088,0.513376,-0.31232,-36.05875,30.178751,106.8725,-15.080001,-31.2,-12.8,concentric,8,3.0,43469.0,188161.0,92761.0,182269.0,107730.0
2026-04-14 18:03:07.872893,706672,1609507281517922,4881487817,-0.691008,0.86864,-0.306464,-15.295,31.255001,111.88625,-16.744001,-30.432001,-10.608001,concentric,8,3.0,43469.0,188161.0,92761.0,182269.0,107730.0
2026-04-14 18:03:07.890113,706673,1609507281532446,4881502726,-0.460672,1.196576,-0.501664,5.01375,37.388752,107.835,-16.904001,-30.536001,-12.992001,concentric,8,3.0,43469.0,188161.0,92761.0,182269.0,107730.0
2026-04-14 18:03:07.895848,706674,1609507281541391,4881511437,-0.460672,1.196576,-0.501664,-0.945,45.36875,96.425,-16.904001,-30.536001,-12.992001,concentric,8,3.0,43469.0,188161.0,92761.0,182269.0,107730.0
2026-04-14 18:03:07.906945,706675,1609507281550359,4881520159,-0.696864,0.765184,-0.57584,-33.48625,47.013752,84.455,-18.952002,-29.848001,-12.752001,concentric,8,3.0,43469.0,188161.0,92761.0,182269.0,107730.0
2026-04-14 18:03:07.940409,706676,1609507281564887,4881535049,-0.696864,0.765184,-0.57584,-60.83875,45.80625,81.8825,-18.52,-29.848001,-12.752001,concentric,8,3.0,43469.0,188161.0,92761.0,182269.0,107730.0
2026-04-14 18:03:07.995871,706687,1609507281573818,4881543717,-0.679296,0.603168,-0.382592,-61.48625,44.61625,83.88625,-20.240002,-29.736002,-11.344001,concentric,8,3.0,45936.0,192980.0,94473.0,185679.0,110002.0
2026-04-14 18:03:07.998310,706688,1609507281588871,4881558708,-0.679296,0.603168,-0.382592,-37.3975,46.41875,90.71125,-20.240002,-29.736002,-11.344001,concentric,8,3.0,45936.0,192980.0,94473.0,185679.0,110002.0
2026-04-14 18:03:08.000915,706689,1609507281597796,4881567467,-0.472384,1.075552,-0.45872,-18.7075,44.59875,93.1,-22.392,-28.696001,-10.016001,concentric,8,3.0,45936.0,192980.0,94473.0,185679.0,110002.0
2026-04-14 18:03:08.003366,706690,1609507281606725,4881576142,-0.472384,1.075552,-0.45872,-24.31625,43.60125,88.15625,-22.392,-28.696001,-10.016001,concentric,8,3.0,45936.0,192980.0,94473.0,185679.0,110002.0
2026-04-14 18:03:08.005861,706691,1609507281621346,4881591038,-0.349408,0.993568,-0.38064,-48.65,45.6925,80.8325,-23.160002,-29.176,-8.736,concentric,8,3.0,45936.0,192980.0,94473.0,185679.0,110002.0
2026-04-14 18:03:08.008388,706692,1609507281630314,4881599723,-0.349408,0.993568,-0.589504,-65.63375,47.78375,82.565,-23.160002,-29.176,-8.736,concentric,8,3.0,45936.0,192980.0,94473.0,185679.0,110002.0
2026-04-14 18:03:08.010906,706693,1609507281644913,4881614789,-0.552416,0.659776,-0.589504,-60.50625,48.29125,89.871254,-24.024002,-28.288002,-7.72,concentric,8,3.0,45936.0,192980.0,94473.0,185679.0,110002.0
2026-04-14 18:03:08.012886,706694,1609507281653873,4881623521,-0.489952,1.0736,-0.26352,-40.34625,47.34625,98.95375,-25.136002,-27.368002,-7.376,concentric,8,3.0,45936.0,192980.0,94473.0,185679.0,110002.0
2026-04-14 18:03:08.024327,706695,1609507281668515,4881638419,-0.489952,1.0736,-0.26352,-28.97125,45.08,100.835,-25.136002,-27.368002,-7.376,concentric,8,3.0,45936.0,192980.0,94473.0,185679.0,110002.0
2026-04-14 18:03:08.059517,706706,1609507281677877,4881647615,-0.288896,1.077504,-0.17568,-37.61625,45.43875,95.235,-25.840002,-26.840002,-6.736001,concentric,8,3.0,54466.0,195866.0,104627.0,188569.0,121546.0
2026-04-14 18:03:08.064434,706707,1609507281686851,4881656330,-0.288896,1.077504,-0.17568,-57.0325,49.84875,91.21875,-25.840002,-26.840002,-6.736001,concentric,8,3.0,54466.0,195866.0,104627.0,188569.0,121546.0
2026-04-14 18:03:08.067053,706708,1609507281701424,4881671267,-0.41968,0.841312,-0.528992,-68.01375,54.2675,92.58375,-27.168001,-25.952002,-5.352,concentric,8,3.0,54466.0,195866.0,104627.0,188569.0,121546.0
2026-04-14 18:03:08.069478,706709,1609507281710417,4881679988,-0.41968,0.841312,-0.528992,-66.9725,52.29875,96.52125,-27.168001,-25.952002,-5.352,concentric,8,3.0,54466.0,195866.0,104627.0,188569.0,121546.0
2026-04-14 18:03:08.080865,706710,1609507281725000,4881694965,-0.290848,0.964288,-0.335744,-49.51625,48.15125,101.63125,-28.192001,-25.216002,-3.72,concentric,8,3.0,54466.0,195866.0,104627.0,188569.0,121546.0
2026-04-14 18:03:08.089627,706711,1609507281734092,4881703655,-0.16592,1.145824,-0.18544,-34.545002,41.79875,102.7075,-28.352001,-24.512001,-5.12,concentric,8,3.0,54466.0,195866.0,104627.0,188569.0,121546.0
2026-04-14 18:03:08.096676,706712,1609507281743081,4881712392,-0.16592,1.145824,-0.18544,-27.0375,38.0275,99.84625,-28.352001,-24.512001,-5.12,concentric,8,3.0,54466.0,195866.0,104627.0,188569.0,121546.0
2026-04-14 18:03:08.119725,706713,1609507281757588,4881727319,-0.134688,1.159488,-0.26352,-29.3125,42.51625,94.745,-29.504002,-23.344002,-3.144,eccentric,8,3.0,54466.0,195866.0,104627.0,188569.0,121546.0
2026-04-14 18:03:08.122952,706714,1609507281766514,4881736003,-0.134688,1.159488,-0.26352,-39.2175,49.665,91.95375,-29.504002,-23.344002,-3.144,eccentric,8,3.0,54466.0,195866.0,104627.0,188569.0,121546.0
2026-04-14 18:03:08.154203,706725,1609507281781200,4881750962,-0.230336,1.04432,-0.452864,-48.5625,54.775,91.402504,-30.784002,-23.072,-3.144,eccentric,8,3.0,79212.0,208326.0,133032.0,200634.0,154876.0
2026-04-14 18:03:08.156655,706726,1609507281790212,4881759678,-0.230336,1.04432,-0.452864,-59.1675,50.89875,91.42,-30.784002,-23.072,-3.144,eccentric,8,3.0,79212.0,208326.0,133032.0,200634.0,154876.0
2026-04-14 18:03:08.159042,706727,1609507281799216,4881768436,-0.32208,0.860832,-0.558272,-56.56,46.4975,95.7425,-32.472,-21.288,-0.848,eccentric,8,3.0,79212.0,208326.0,133032.0,200634.0,154876.0
2026-04-14 18:03:08.171666,706728,1609507281813797,4881783318,-0.103456,1.100928,-0.15616,-34.15125,44.607502,96.97625,-32.176003,-20.728,-0.968,eccentric,8,3.0,79212.0,208326.0,133032.0,200634.0,154876.0
2026-04-14 18:03:08.177965,706729,1609507281822775,4881792043,-0.103456,1.100928,-0.15616,-16.19625,45.64,95.20875,-32.176003,-20.728,-0.968,eccentric,8,3.0,79212.0,208326.0,133032.0,200634.0,154876.0
2026-04-14 18:03:08.191624,706730,1609507281837255,4881807055,-0.080032,1.08336,-0.355264,-17.3425,49.4375,93.7825,-32.272003,-19.888,-0.928,eccentric,8,3.0,79212.0,208326.0,133032.0,200634.0,154876.0
2026-04-14 18:03:08.201814,706731,1609507281846195,4881815747,-0.080032,1.08336,-0.355264,-39.73375,50.0675,92.1375,-32.272003,-19.888,-0.928,eccentric,8,3.0,79212.0,208326.0,133032.0,200634.0,154876.0
2026-04-14 18:03:08.219083,706732,1609507281860727,4881830741,-0.236192,0.774944,-0.640256,-57.4525,47.25875,96.34625,-32.88,-18.632,-0.336,eccentric,8,3.0,79212.0,208326.0,133032.0,200634.0,154876.0
2026-04-14 18:03:08.225266,706733,1609507281869697,4881839422,-0.236192,0.774944,-0.640256,-61.34625,41.755,102.2875,-32.88,-18.632,-0.336,eccentric,8,3.0,79212.0,208326.0,133032.0,200634.0,154876.0
2026-04-14 18:03:08.281818,706744,1609507281879235,4881848222,-0.20496,0.786656,-0.55632,-48.06375,33.5475,110.67875,-34.448,-17.088001,0.208,eccentric,8,3.0,94273.0,218800.0,149732.0,210083.0,172954.0
2026-04-14 18:03:08.284292,706745,1609507281893771,4881863284,0.074176,1.085312,-0.001952,-23.835001,32.83,117.11,-34.512,-16.12,1.536,eccentric,8,3.0,94273.0,218800.0,149732.0,210083.0,172954.0
2026-04-14 18:03:08.309253,706746,1609507281902815,4881871990,0.074176,1.085312,-0.001952,-13.545,35.90125,116.26125,-34.512,-16.12,1.536,eccentric,8,3.0,94273.0,218800.0,149732.0,210083.0,172954.0
2026-04-14 18:03:08.331651,706747,1609507281917315,4881886909,0.089792,0.972096,-0.070272,-24.07125,39.47125,112.7175,-34.496002,-14.840001,1.592,eccentric,8,3.0,94273.0,218800.0,149732.0,210083.0,172954.0
2026-04-14 18:03:08.334225,706748,1609507281926227,4881895633,0.089792,0.972096,-0.070272,-41.86,43.575,109.488754,-34.496002,-14.840001,1.592,eccentric,8,3.0,94273.0,218800.0,149732.0,210083.0,172954.0
2026-04-14 18:03:08.336511,706749,1609507281935219,4881904369,-0.013664,0.798368,-0.284992,-52.38625,44.02125,108.9725,-35.16,-13.488001,2.384,eccentric,8,3.0,94273.0,218800.0,149732.0,210083.0,172954.0
2026-04-14 18:03:08.339290,706750,1609507281949777,4881919353,-0.013664,0.798368,-0.284992,-50.67125,36.46125,110.1275,-35.16,-13.488001,2.384,eccentric,8,3.0,94273.0,218800.0,149732.0,210083.0,172954.0
2026-04-14 18:03:08.341677,706751,1609507281958706,4881928034,0.109312,0.886208,-0.378688,-37.31875,24.115,113.4,-35.408,-11.776001,2.504,eccentric,8,3.0,94273.0,218800.0,149732.0,210083.0,172954.0
2026-04-14 18:03:08.344345,706752,1609507281973218,4881942949,0.269376,1.04432,-0.13664,-22.12,19.92375,113.575,-35.472,-10.744,1.28,eccentric,8,3.0,94273.0,218800.0,149732.0,210083.0,172954.0
2026-04-14 18:03:08.371567,706763,1609507281982281,4881951710,0.269376,1.04432,-0.13664,-20.43125,23.1175,111.125,-35.472,-10.744,1.28,eccentric,8,3.0,102994.0,227078.0,159648.0,217595.0,183174.0
2026-04-14 18:03:08.374105,706764,1609507281991245,4881960437,0.269376,1.04432,-0.13664,-31.115,29.4175,110.39,-35.472,-10.744,1.28,eccentric,8,3.0,102994.0,227078.0,159648.0,217595.0,183174.0
2026-04-14 18:03:08.379013,706765,1609507282005791,4881975380,0.201056,0.915488,-0.015616,-42.32375,36.30375,106.058754,-35.944,-9.544001,4.6,eccentric,8,3.0,102994.0,227078.0,159648.0,217595.0,183174.0
2026-04-14 18:03:08.381409,706766,1609507282014790,4881984124,0.216672,0.776896,-0.152256,-43.63625,38.6575,103.565,-35.800003,-7.968,4.568,eccentric,8,3.0,102994.0,227078.0,159648.0,217595.0,183174.0
2026-04-14 18:03:08.383961,706767,1609507282029298,4881999051,0.216672,0.776896,-0.152256,-34.7725,35.11375,103.845,-35.800003,-7.968,4.568,eccentric,8,3.0,102994.0,227078.0,159648.0,217595.0,183174.0
2026-04-14 18:03:08.393226,706768,1609507282038245,4882007752,0.275232,0.933056,-0.081984,-23.65125,33.1975,104.83375,-36.504,-6.688,5.44,eccentric,8,3.0,102994.0,227078.0,159648.0,217595.0,183174.0
2026-04-14 18:03:08.407737,706769,1609507282052769,4882022624,0.275232,0.933056,0.011712,-12.5125,34.29125,102.515,-36.504,-6.688,5.44,eccentric,8,3.0,102994.0,227078.0,159648.0,217595.0,183174.0
2026-04-14 18:03:08.416722,706770,1609507282061729,4882031369,0.40992,0.91744,0.003904,-12.6525,39.87375,99.19,-36.392002,-5.304,4.96,eccentric,8,3.0,102994.0,227078.0,159648.0,217595.0,183174.0
2026-04-14 18:03:08.427760,706771,1609507282070702,4882040127,0.40992,0.91744,0.003904,-20.06375,44.40625,98.3325,-36.392002,-5.304,4.96,eccentric,8,3.0,102994.0,227078.0,159648.0,217595.0,183174.0
2026-04-14 18:03:08.455782,706782,1609507282085271,4882055117,0.228384,0.815936,-0.074176,-27.8775,42.79625,98.7525,-36.792004,-3.728,5.976,eccentric,8,3.0,105973.0,229526.0,162679.0,219398.0,185519.0
2026-04-14 18:03:08.458316,706783,1609507282094282,4882063873,0.249856,0.745664,-0.327936,-27.44875,37.7475,98.35,-36.288002,-2.872,4.968,eccentric,8,3.0,105973.0,229526.0,162679.0,219398.0,185519.0
2026-04-14 18:03:08.465459,706784,1609507282108752,4882078922,0.249856,0.745664,-0.327936,-20.51,29.65375,99.56625,-36.288002,-2.872,4.968,eccentric,8,3.0,105973.0,229526.0,162679.0,219398.0,185519.0
2026-04-14 18:03:08.473359,706785,1609507282117663,4882087620,0.324032,0.831552,-0.173728,-12.46,27.1075,102.73375,-35.688004,-1.488,6.6,eccentric,8,3.0,105973.0,229526.0,162679.0,219398.0,185519.0
2026-04-14 18:03:08.490408,706786,1609507282132230,4882102510,0.324032,0.831552,-0.173728,-4.025,32.165,101.31625,-35.688004,-1.488,6.6,eccentric,8,3.0,105973.0,229526.0,162679.0,219398.0,185519.0
2026-04-14 18:03:08.495891,706787,1609507282141159,4882111260,0.306464,0.870592,0.044896,-2.5025,37.65125,96.8625,-35.504,-0.408,8.0,eccentric,8,3.0,105973.0,229526.0,162679.0,219398.0,185519.0
2026-04-14 18:03:08.505315,706788,1609507282150222,4882120144,0.306464,0.870592,0.044896,-10.45625,38.71875,95.45375,-35.504,-0.408,8.0,eccentric,8,3.0,105973.0,229526.0,162679.0,219398.0,185519.0
2026-04-14 18:03:08.520646,706789,1609507282164749,4882135047,0.402112,0.732,-0.027328,-15.33875,35.9275,94.64,-35.928,0.752,8.024,eccentric,8,3.0,105973.0,229526.0,162679.0,219398.0,185519.0
2026-04-14 18:03:08.529154,706790,1609507282173697,4882143738,0.402112,0.732,-0.2928,-16.87,26.04,93.5375,-35.928,0.752,8.024,eccentric,8,3.0,105973.0,229526.0,162679.0,219398.0,185519.0
2026-04-14 18:03:08.558218,706801,1609507282188275,4882156689,0.493856,0.685152,-0.2928,-15.32125,15.3125,96.81875,-34.952003,1.968,9.376,eccentric,8,3.0,108135.0,230279.0,165440.0,220080.0,187760.0
2026-04-14 18:03:08.560300,706802,1609507282197618,4882167495,0.609024,0.69296,-0.066368,-6.8775,13.9475,98.035,-34.84,2.944,7.520001,eccentric,8,3.0,108135.0,230279.0,165440.0,220080.0,187760.0
2026-04-14 18:03:08.562735,706803,1609507282206582,4882176196,0.609024,0.69296,-0.066368,0.21875,16.96625,96.85375,-34.84,2.944,7.520001,eccentric,8,3.0,108135.0,230279.0,165440.0,220080.0,187760.0
2026-04-14 18:03:08.575822,706804,1609507282221105,4882191192,0.618784,0.769088,0.072224,0.81375,22.42625,97.7025,-34.352,4.008,9.224,eccentric,8,3.0,108135.0,230279.0,165440.0,220080.0,187760.0
2026-04-14 18:03:08.584557,706805,1609507282230085,4882199886,0.618784,0.769088,0.072224,-2.8875,30.9925,94.05375,-34.352,4.008,9.224,eccentric,8,3.0,108135.0,230279.0,165440.0,220080.0,187760.0
2026-04-14 18:03:08.603461,706806,1609507282244756,4882214838,0.50752,0.694912,0.011712,-9.2575,36.2075,88.92625,-34.088,5.296001,9.328,eccentric,8,3.0,108135.0,230279.0,165440.0,220080.0,187760.0
2026-04-14 18:03:08.609386,706807,1609507282253693,4882223527,0.50752,0.694912,0.011712,-14.42,37.66875,87.56125,-34.088,5.296001,9.328,eccentric,8,3.0,108135.0,230279.0,165440.0,220080.0,187760.0
2026-04-14 18:03:08.623977,706808,1609507282268180,4882238389,0.558272,0.597312,-0.22448,-11.698751,38.29875,86.72125,-34.496002,6.648,9.664001,eccentric,8,3.0,108135.0,230279.0,165440.0,220080.0,187760.0
2026-04-14 18:03:08.703244,706819,1609507282277175,4882247079,0.6832,0.669536,0.128832,-0.20125,40.81875,83.37875,-33.224003,6.944,9.408,eccentric,8,3.0,109448.0,231973.0,167086.0,221544.0,189090.0
2026-04-14 18:03:08.709073,706820,1609507282286106,4882255832,0.6832,0.669536,0.128832,4.2875,40.83625,80.43875,-33.224003,6.944,9.408,eccentric,8,3.0,109448.0,231973.0,167086.0,221544.0,189090.0
2026-04-14 18:03:08.711495,706821,1609507282300854,4882270753,0.704672,0.534848,0.007808,-0.49875,40.145,83.53625,-32.640003,8.024,9.712001,eccentric,8,3.0,109448.0,231973.0,167086.0,221544.0,189090.0
2026-04-14 18:03:08.714299,706822,1609507282309845,4882279435,0.704672,0.534848,0.007808,-5.0225,40.6175,85.37375,-32.640003,8.024,9.712001,eccentric,8,3.0,109448.0,231973.0,167086.0,221544.0,189090.0
2026-04-14 18:03:08.717075,706823,1609507282324348,4882294327,0.646112,0.503616,-0.103456,-0.88375,40.73125,83.71125,-32.432003,9.128,10.248,eccentric,8,3.0,109448.0,231973.0,167086.0,221544.0,189090.0
2026-04-14 18:03:08.719605,706824,1609507282333439,4882303054,0.646112,0.503616,-0.103456,4.1475,37.8875,82.565,-32.432003,9.128,10.248,eccentric,8,3.0,109448.0,231973.0,167086.0,221544.0,189090.0
2026-04-14 18:03:08.722054,706825,1609507282342512,4882311751,0.628544,0.532896,-0.181536,3.50875,35.4025,84.44625,-31.632002,9.936001,12.040001,eccentric,8,3.0,109448.0,231973.0,167086.0,221544.0,189090.0
2026-04-14 18:03:08.724082,706826,1609507282357057,4882326632,0.671488,0.564128,0.12688,4.2175,38.4475,84.98,-31.032001,10.936001,9.632001,eccentric,8,3.0,109448.0,231973.0,167086.0,221544.0,189090.0
2026-04-14 18:03:08.726477,706827,1609507282366058,4882335322,0.671488,0.564128,0.12688,5.62625,41.09,80.0975,-31.032001,10.936001,9.632001,eccentric,8,3.0,109448.0,231973.0,167086.0,221544.0,189090.0
2026-04-14 18:03:08.756964,706838,1609507282380994,4882350340,0.657824,0.5368,0.21472,3.28125,42.2625,77.49875,-30.088001,11.240001,11.544001,eccentric,8,3.0,110544.0,230629.0,168725.0,220027.0,190191.0
2026-04-14 18:03:08.759097,706839,1609507282390212,4882359153,0.657824,0.5368,0.21472,1.6975,44.485,75.64375,-30.088001,11.240001,11.544001,eccentric,8,3.0,110544.0,230629.0,168725.0,220027.0,190191.0
2026-04-14 18:03:08.761796,706840,1609507282399177,4882367912,0.65392,0.4392,-0.080032,1.33,45.85,72.75625,-29.656002,12.120001,11.960001,eccentric,8,3.0,110544.0,230629.0,168725.0,220027.0,190191.0
2026-04-14 18:03:08.768037,706841,1609507282414158,4882382826,0.65392,0.4392,-0.080032,3.40375,44.8,69.93,-29.656002,12.120001,11.960001,eccentric,8,3.0,110544.0,230629.0,168725.0,220027.0,190191.0
2026-04-14 18:03:08.779190,706842,1609507282423526,4882393579,0.679296,0.470432,0.085888,3.2025,41.27375,67.48,-28.776001,13.056001,12.824,eccentric,8,3.0,110544.0,230629.0,168725.0,220027.0,190191.0
2026-04-14 18:03:08.790220,706843,1609507282438027,4882406487,0.80032,0.421632,0.230336,2.38,39.24375,65.905,-28.112001,13.248001,12.736001,eccentric,8,3.0,110544.0,230629.0,168725.0,220027.0,190191.0
2026-04-14 18:03:08.804302,706844,1609507282447297,4882417241,0.80032,0.421632,0.230336,1.04125,38.71,64.05,-28.112001,13.248001,12.736001,eccentric,8,3.0,110544.0,230629.0,168725.0,220027.0,190191.0
2026-04-14 18:03:08.811681,706845,1609507282456379,4882425961,0.812032,0.33184,0.271328,-0.58625,37.28375,62.475,-28.752,14.384001,11.312,eccentric,8,3.0,110544.0,230629.0,168725.0,220027.0,190191.0
2026-04-14 18:03:08.825392,706846,1609507282470956,4882440898,0.812032,0.33184,0.271328,0.91875,34.69375,62.02875,-28.752,14.384001,11.312,eccentric,8,3.0,110544.0,230629.0,168725.0,220027.0,190191.0
2026-04-14 18:03:08.857754,706857,1609507282480387,4882450081,0.732,0.355264,0.160064,5.92375,32.585,59.75375,-27.624,14.152,13.504001,eccentric,8,3.0,110695.0,230489.0,169092.0,219557.0,190422.0
2026-04-14 18:03:08.860275,706858,1609507282489431,4882458825,0.732,0.355264,0.160064,8.54875,28.0875,56.4025,-27.624,14.152,13.504001,eccentric,8,3.0,110695.0,230489.0,169092.0,219557.0,190422.0
2026-04-14 18:03:08.863020,706859,1609507282504081,4882473923,0.841312,0.353312,0.281088,5.88,21.77,56.0175,-26.864002,15.328001,13.376,eccentric,8,3.0,110695.0,230489.0,169092.0,219557.0,190422.0
2026-04-14 18:03:08.868022,706860,1609507282513137,4882482622,0.841312,0.353312,0.281088,3.17625,21.91,55.65,-26.864002,15.328001,13.376,eccentric,8,3.0,110695.0,230489.0,169092.0,219557.0,190422.0
2026-04-14 18:03:08.910360,706861,1609507282527655,4882497665,0.74176,0.314272,0.17568,5.18875,23.6075,50.26,-26.552002,15.672001,13.616,eccentric,8,3.0,110695.0,230489.0,169092.0,219557.0,190422.0
2026-04-14 18:03:08.912938,706862,1609507282536594,4882506363,0.755424,0.316224,0.284992,4.94375,21.84875,44.135,-26.552002,15.696001,13.936001,eccentric,8,3.0,110695.0,230489.0,169092.0,219557.0,190422.0
2026-04-14 18:03:08.915441,706863,1609507282551117,4882521287,0.755424,0.316224,0.284992,7.55125,20.8775,40.10125,-25.664001,15.696001,13.936001,eccentric,8,3.0,110695.0,230489.0,169092.0,219557.0,190422.0
2026-04-14 18:03:08.918030,706864,1609507282560037,4882529953,0.815936,0.288896,0.0488,10.29875,20.37875,34.265,-25.800001,15.888001,14.384001,eccentric,8,3.0,110695.0,230489.0,169092.0,219557.0,190422.0
2026-04-14 18:03:08.924213,706865,1609507282569083,4882538726,0.815936,0.288896,0.0488,11.68125,18.9875,28.28875,-25.800001,15.888001,14.384001,eccentric,8,3.0,110695.0,230489.0,169092.0,219557.0,190422.0
2026-04-14 18:03:08.960544,706876,1609507282583807,4882553689,0.83936,0.329888,0.327936,9.2575,18.90875,22.9075,-26.168001,16.512001,15.608001,eccentric,8,3.0,113175.0,233904.0,172153.0,222290.0,192976.0
2026-04-14 18:03:08.962761,706877,1609507282592828,4882562470,0.83936,0.329888,0.327936,5.71375,17.99875,17.00125,-26.168001,16.512001,15.608001,eccentric,8,3.0,113175.0,233904.0,172153.0,222290.0,192976.0
2026-04-14 18:03:08.965226,706878,1609507282607503,4882577412,0.837408,0.247904,0.163968,2.80875,17.1675,11.90875,-25.272001,15.760001,14.76,eccentric,8,3.0,113175.0,233904.0,172153.0,222290.0,192976.0
2026-04-14 18:03:08.970524,706879,1609507282616518,4882586198,0.837408,0.247904,0.210816,2.17875,15.1025,8.02375,-25.272001,15.760001,14.76,eccentric,8,3.0,113175.0,233904.0,172153.0,222290.0,192976.0
2026-04-14 18:03:08.979392,706880,1609507282625528,4882594900,0.831552,0.232288,0.210816,3.5,12.6175,3.43875,-24.704,16.264,17.624,eccentric,8,3.0,113175.0,233904.0,172153.0,222290.0,192976.0
2026-04-14 18:03:08.995471,706881,1609507282640091,4882609770,0.784704,0.249856,0.167872,4.06,8.37375,-0.8225,-26.048,16.256,15.840001,eccentric,8,3.0,113175.0,233904.0,172153.0,222290.0,192976.0
2026-04-14 18:03:09.004199,706882,1609507282649021,4882618458,0.784704,0.249856,0.167872,3.89375,2.23125,-3.08875,-26.048,16.256,15.840001,eccentric,8,3.0,113175.0,233904.0,172153.0,222290.0,192976.0
2026-04-14 18:03:09.018191,706883,1609507282663648,4882633445,0.835456,0.220576,0.085888,5.635,0.175,-4.90875,-25.768002,15.672001,14.920001,eccentric,8,3.0,113175.0,233904.0,172153.0,222290.0,192976.0
2026-04-14 18:03:09.044972,706884,1609507282672635,4882642149,0.835456,0.220576,0.085888,9.52,-0.28,-9.4325,-25.768002,15.672001,14.920001,eccentric,8,3.0,113175.0,233904.0,172153.0,222290.0,192976.0
2026-04-14 18:03:09.116734,706895,1609507282687222,4882657389,0.860832,0.298656,0.36112,10.5175,-0.76125,-13.8425,-25.320002,15.568001,14.936001,eccentric,8,3.0,114444.0,236908.0,174181.0,224980.0,195121.0
2026-04-14 18:03:09.124229,706896,1609507282696205,4882666235,0.860832,0.298656,0.36112,10.94625,-1.70625,-17.0975,-25.320002,15.568001,14.936001,eccentric,8,3.0,114444.0,236908.0,174181.0,224980.0,195121.0
2026-04-14 18:03:09.126770,706897,1609507282705170,4882674960,0.831552,0.310368,0.206912,9.292501,-5.2675,-20.0375,-25.544,15.56,14.776001,eccentric,8,3.0,114444.0,236908.0,174181.0,224980.0,195121.0
2026-04-14 18:03:09.129481,706898,1609507282719646,4882689858,0.81984,0.279136,0.042944,7.60375,-8.2075,-21.00875,-25.544,15.112,15.104001,eccentric,8,3.0,114444.0,236908.0,174181.0,224980.0,195121.0
2026-04-14 18:03:09.132132,706899,1609507282728600,4882698601,0.81984,0.279136,0.042944,6.9825,-7.91875,-22.60125,-25.544,15.112,15.104001,eccentric,8,3.0,114444.0,236908.0,174181.0,224980.0,195121.0
2026-04-14 18:03:09.134624,706900,1609507282743085,4882711456,0.81008,0.36112,0.300608,9.89625,-7.55125,-25.41,-25.856,15.032001,14.808001,eccentric,8,3.0,114444.0,236908.0,174181.0,224980.0,195121.0
2026-04-14 18:03:09.137086,706901,1609507282752433,4882722322,0.81008,0.36112,0.300608,13.34375,-8.05875,-29.18125,-25.856,15.032001,14.808001,eccentric,8,3.0,114444.0,236908.0,174181.0,224980.0,195121.0
2026-04-14 18:03:09.139650,706902,1609507282761406,4882731020,0.74176,0.394304,0.103456,12.25875,-11.87375,-31.36875,-26.016,14.192,14.736001,eccentric,8,3.0,114444.0,236908.0,174181.0,224980.0,195121.0
2026-04-14 18:03:09.141614,706903,1609507282775944,4882745920,0.74176,0.394304,0.103456,7.735,-15.89875,-31.59625,-26.016,14.192,14.736001,eccentric,8,3.0,114444.0,236908.0,174181.0,224980.0,195121.0
2026-04-14 18:03:09.170181,706914,1609507282785234,4882754885,0.733952,0.368928,0.083936,4.01625,-19.59125,-32.33125,-26.368002,14.456,14.752001,eccentric,8,3.0,114148.0,240351.0,174577.0,228117.0,195967.0
2026-04-14 18:03:09.171436,706915,1609507282799879,4882769883,0.76128,0.386496,0.230336,2.59,-22.77625,-33.04,-26.712002,13.752001,15.112,eccentric,8,3.0,114148.0,240351.0,174577.0,228117.0,195967.0
2026-04-14 18:03:09.174010,706916,1609507282808797,4882778728,0.76128,0.386496,0.230336,6.46625,-22.54,-34.69375,-26.712002,13.752001,15.112,eccentric,8,3.0,114148.0,240351.0,174577.0,228117.0,195967.0
2026-04-14 18:03:09.176901,706917,1609507282817917,4882787426,0.76128,0.386496,0.25376,10.98125,-25.375,-37.826252,-26.712002,13.752001,15.112,eccentric,8,3.0,114148.0,240351.0,174577.0,228117.0,195967.0
2026-04-14 18:03:09.199517,706918,1609507282832451,4882802399,0.749568,0.427488,0.25376,9.89625,-29.68875,-39.6725,-27.248001,13.848001,15.392001,eccentric,8,3.0,114148.0,240351.0,174577.0,228117.0,195967.0
2026-04-14 18:03:09.202026,706919,1609507282841533,4882811093,0.718336,0.427488,0.064416,8.84625,-31.9725,-40.888752,-27.856,13.160001,14.072001,eccentric,8,3.0,114148.0,240351.0,174577.0,228117.0,195967.0
2026-04-14 18:03:09.212096,706920,1609507282856233,4882825966,0.718336,0.427488,0.064416,6.50125,-33.38125,-43.28625,-27.856,13.160001,14.072001,eccentric,8,3.0,114148.0,240351.0,174577.0,228117.0,195967.0
2026-04-14 18:03:09.219573,706921,1609507282865167,4882834782,0.765184,0.3904,0.017568,3.82375,-34.86875,-45.71,-28.704,12.184001,13.880001,eccentric,8,3.0,114148.0,240351.0,174577.0,228117.0,195967.0
2026-04-14 18:03:09.261355,706932,1609507282879672,4882850151,0.798368,0.406016,0.193248,3.80625,-35.86625,-47.32,-28.704,11.736001,11.632001,eccentric,8,3.0,112414.0,240051.0,173797.0,228121.0,195786.0
2026-04-14 18:03:09.263728,706933,1609507282888688,4882858901,0.798368,0.406016,0.193248,4.59375,-35.74375,-49.2275,-28.704,11.736001,11.632001,eccentric,8,3.0,112414.0,240051.0,173797.0,228121.0,195786.0
2026-04-14 18:03:09.266342,706934,1609507282897622,4882867661,0.798368,0.406016,0.193248,7.805,-37.68625,-51.1175,-28.704,11.736001,11.632001,eccentric,8,3.0,112414.0,240051.0,173797.0,228121.0,195786.0
2026-04-14 18:03:09.268857,706935,1609507282912127,4882880512,0.7808,0.470432,0.154208,7.9975,-40.4075,-54.425,-29.472002,11.52,12.432,eccentric,8,3.0,112414.0,240051.0,173797.0,228121.0,195786.0
2026-04-14 18:03:09.276620,706936,1609507282921327,4882891293,0.718336,0.488,-0.05856,6.195,-42.035,-57.015,-29.816002,10.808001,12.552001,eccentric,8,3.0,112414.0,240051.0,173797.0,228121.0,195786.0
2026-04-14 18:03:09.291442,706937,1609507282935876,4882906223,0.718336,0.488,-0.05856,3.49125,-43.86375,-58.8525,-29.816002,10.808001,12.552001,eccentric,8,3.0,112414.0,240051.0,173797.0,228121.0,195786.0
2026-04-14 18:03:09.300753,706938,1609507282944865,4882915091,0.704672,0.495808,0.119072,1.225,-45.6925,-59.96375,-31.168001,10.216001,12.336,eccentric,8,3.0,112414.0,240051.0,173797.0,228121.0,195786.0
2026-04-14 18:03:09.310384,706939,1609507282953861,4882923787,0.704672,0.495808,0.119072,1.11125,-47.13625,-60.865,-31.168001,10.216001,12.336,eccentric,8,3.0,112414.0,240051.0,173797.0,228121.0,195786.0
2026-04-14 18:03:09.327465,706940,1609507282968358,4882938655,0.696864,0.550464,0.134688,3.71875,-46.36625,-63.02625,-30.840002,9.656,11.824,eccentric,8,3.0,112414.0,240051.0,173797.0,228121.0,195786.0
2026-04-14 18:03:09.332058,706941,1609507282977412,4882947448,0.696864,0.550464,0.134688,5.1975,-46.48875,-65.72125,-30.840002,9.656,11.824,eccentric,8,3.0,112414.0,240051.0,173797.0,228121.0,195786.0
2026-04-14 18:03:09.359216,706952,1609507282992060,4882962431,0.67344,0.568032,0.037088,4.55875,-48.44,-69.0025,-32.296,8.704,12.288,eccentric,8,3.0,111874.0,239594.0,174863.0,228029.0,196982.0
2026-04-14 18:03:09.361607,706953,1609507283000996,4882971114,0.69296,0.493856,-0.081984,-0.385,-51.45,-70.4375,-33.0,8.312,11.808001,eccentric,8,3.0,111874.0,239594.0,174863.0,228029.0,196982.0
2026-04-14 18:03:09.368194,706954,1609507283015642,4882984023,0.69296,0.493856,-0.081984,-3.3775,-53.3925,-69.95625,-33.0,8.312,11.808001,eccentric,8,3.0,111874.0,239594.0,174863.0,228029.0,196982.0
2026-04-14 18:03:09.379574,706955,1609507283024979,4882994788,0.716384,0.528992,0.124928,-0.7175,-53.69,-70.49875,-33.288002,7.776001,10.952001,eccentric,8,3.0,111874.0,239594.0,174863.0,228029.0,196982.0
2026-04-14 18:03:09.413344,706956,1609507283033941,4883003492,0.716384,0.528992,0.124928,2.56375,-52.885,-72.98375,-33.288002,7.776001,10.952001,eccentric,8,3.0,111874.0,239594.0,174863.0,228029.0,196982.0
2026-04-14 18:03:09.415839,706957,1609507283048449,4883018368,0.609024,0.616832,-0.119072,6.9125,-51.14375,-76.13375,-34.16,6.04,9.192,eccentric,8,3.0,111874.0,239594.0,174863.0,228029.0,196982.0
2026-04-14 18:03:09.418299,706958,1609507283057435,4883027077,0.609024,0.616832,-0.119072,8.1725,-51.51125,-81.64625,-34.16,6.04,9.192,eccentric,8,3.0,111874.0,239594.0,174863.0,228029.0,196982.0
2026-04-14 18:03:09.445547,706959,1609507283071910,4883042001,0.659776,0.579744,-0.00976,1.88125,-54.39,-85.9425,-34.600002,5.584,10.008,eccentric,8,3.0,111874.0,239594.0,174863.0,228029.0,196982.0
2026-04-14 18:03:09.447444,706960,1609507283080852,4883050701,0.59536,0.542656,-0.017568,-2.555,-60.15625,-85.5925,-34.208,4.536,8.08,eccentric,8,3.0,111874.0,239594.0,174863.0,228029.0,196982.0
2026-04-14 18:03:09.551636,706971,1609507283089863,4883059383,0.59536,0.542656,-0.017568,-1.26,-60.3925,-83.65875,-34.208,4.536,8.08,eccentric,8,3.0,97038.0,227408.0,157906.0,217311.0,179445.0
2026-04-14 18:03:09.554271,706972,1609507283104363,4883074326,0.552416,0.669536,-0.304512,7.67375,-61.48625,-84.97125,-34.816,3.112,7.512001,eccentric,8,3.0,97038.0,227408.0,157906.0,217311.0,179445.0
2026-04-14 18:03:09.556727,706973,1609507283113295,4883083034,0.552416,0.669536,-0.304512,15.6625,-62.0025,-89.53875,-34.816,3.112,7.512001,eccentric,8,3.0,97038.0,227408.0,157906.0,217311.0,179445.0
2026-04-14 18:03:09.559262,706974,1609507283127934,4883097964,0.521184,0.784704,-0.130784,18.6375,-60.94375,-92.88125,-35.480003,1.944,6.872,eccentric,8,3.0,97038.0,227408.0,157906.0,217311.0,179445.0
2026-04-14 18:03:09.561686,706975,1609507283136866,4883106642,0.521184,0.784704,-0.130784,11.235,-63.49875,-95.1475,-35.480003,1.944,6.872,eccentric,8,3.0,97038.0,227408.0,157906.0,217311.0,179445.0
2026-04-14 18:03:09.564250,706976,1609507283151361,4883121522,0.599264,0.609024,0.015616,-3.54375,-68.285,-96.0225,-35.464,0.816,6.208,eccentric,8,3.0,97038.0,227408.0,157906.0,217311.0,179445.0
2026-04-14 18:03:09.566626,706977,1609507283160449,4883130328,0.5368,0.630496,-0.1952,-6.9125,-67.45375,-94.50875,-35.464,0.816,4.16,eccentric,8,3.0,97038.0,227408.0,157906.0,217311.0,179445.0
2026-04-14 18:03:09.569256,706978,1609507283169395,4883139034,0.542656,0.630496,-0.1952,3.59625,-62.125,-96.71375,-35.992,-0.2,4.448,eccentric,8,3.0,97038.0,227408.0,157906.0,217311.0,179445.0
2026-04-14 18:03:09.599328,706989,1609507283184547,4883154198,0.466528,0.841312,-0.169824,20.51,-57.155,-102.89125,-36.152,-1.912,5.480001,eccentric,8,3.0,91802.0,221616.0,152337.0,212075.0,173483.0
2026-04-14 18:03:09.602243,706990,1609507283193525,4883162917,0.466528,0.841312,-0.169824,26.43375,-53.760002,-106.33875,-36.152,-1.912,5.480001,eccentric,8,3.0,91802.0,221616.0,152337.0,212075.0,173483.0
2026-04-14 18:03:09.604175,706991,1609507283202443,4883171599,0.415776,0.80032,-0.259616,22.295,-53.52375,-108.47375,-36.56,-2.688,4.8,eccentric,8,3.0,91802.0,221616.0,152337.0,212075.0,173483.0
2026-04-14 18:03:09.606607,706992,1609507283217010,4883186503,0.415776,0.80032,-0.259616,10.15875,-55.58875,-110.03125,-36.56,-2.688,4.8,eccentric,8,3.0,91802.0,221616.0,152337.0,212075.0,173483.0
2026-04-14 18:03:09.609124,706993,1609507283226076,4883195252,0.398208,0.685152,-0.171776,-3.56125,-58.10875,-108.89375,-37.592003,-3.984,4.416,eccentric,8,3.0,91802.0,221616.0,152337.0,212075.0,173483.0
2026-04-14 18:03:09.611586,706994,1609507283240849,4883210296,0.398208,0.747616,-0.294752,-5.03125,-58.68625,-107.45,-37.592003,-3.984,4.416,eccentric,8,3.0,91802.0,221616.0,152337.0,212075.0,173483.0
2026-04-14 18:03:09.616025,706995,1609507283249822,4883218994,0.413824,0.739808,-0.294752,6.50125,-56.3325,-109.996254,-37.2,-5.264,3.936,eccentric,8,3.0,91802.0,221616.0,152337.0,212075.0,173483.0
2026-04-14 18:03:09.618996,706996,1609507283264349,4883233928,0.347456,0.892064,-0.355264,20.405,-56.105,-114.51125,-37.696003,-6.896,3.072,eccentric,8,3.0,91802.0,221616.0,152337.0,212075.0,173483.0
2026-04-14 18:03:09.630948,706997,1609507283273350,4883242741,0.347456,0.892064,-0.355264,26.06625,-57.7675,-116.97875,-37.696003,-6.896,3.072,eccentric,8,3.0,91802.0,221616.0,152337.0,212075.0,173483.0
2026-04-14 18:03:09.636687,706998,1609507283282253,4883251427,0.339648,0.843264,-0.314272,18.5325,-60.165,-117.3725,-36.448,-8.04,-0.24,eccentric,8,3.0,91802.0,221616.0,152337.0,212075.0,173483.0
2026-04-14 18:03:09.664050,707009,1609507283296923,4883266381,0.339648,0.843264,-0.314272,4.6725,-60.1825,-117.5475,-36.448,-8.04,-0.24,eccentric,8,3.0,85809.0,221627.0,147174.0,212598.0,166824.0
2026-04-14 18:03:09.666645,707010,1609507283305999,4883275096,0.220576,0.747616,-0.378688,-2.7125,-56.857502,-119.44625,-38.024002,-9.336,3.088,eccentric,8,3.0,85809.0,221627.0,147174.0,212598.0,166824.0
2026-04-14 18:03:09.674237,707011,1609507283320531,4883290052,0.220576,0.747616,-0.378688,3.5525,-49.30625,-122.50875,-38.024002,-9.336,3.088,eccentric,8,3.0,85809.0,221627.0,147174.0,212598.0,166824.0
2026-04-14 18:03:09.684340,707012,1609507283329488,4883298745,0.171776,0.851072,-0.376736,16.49375,-41.615,-125.46625,-37.096,-11.424001,0.672,eccentric,8,3.0,85809.0,221627.0,147174.0,212598.0,166824.0
2026-04-14 18:03:09.694319,707013,1609507283338426,4883307425,0.171776,0.851072,-0.376736,29.07625,-38.85875,-128.975,-37.096,-11.424001,0.672,eccentric,8,3.0,85809.0,221627.0,147174.0,212598.0,166824.0
2026-04-14 18:03:09.706910,707014,1609507283352939,4883322315,0.05856,0.942816,-0.474336,28.35,-41.2825,-130.17375,-35.72,-12.992001,-0.192,eccentric,8,3.0,85809.0,221627.0,147174.0,212598.0,166824.0
2026-04-14 18:03:09.718313,707015,1609507283361866,4883331023,0.011712,0.86864,-0.247904,19.41625,-45.0625,-126.91,-35.72,-12.992001,0.16,eccentric,8,3.0,85809.0,221627.0,147174.0,212598.0,166824.0
2026-04-14 18:03:09.730252,707016,1609507283376376,4883345907,0.011712,0.86864,-0.247904,9.205,-47.18875,-125.65875,-35.280003,-14.224001,0.16,eccentric,8,3.0,85809.0,221627.0,147174.0,212598.0,166824.0
2026-04-14 18:03:09.818772,707027,1609507283385832,4883354621,-0.031232,0.786656,-0.203008,5.34625,-46.3225,-124.81,-34.224003,-15.664001,-0.448,eccentric,8,3.0,74227.0,226723.0,134726.0,216965.0,151820.0
2026-04-14 18:03:09.820183,707028,1609507283395234,4883365467,-0.031232,0.786656,-0.203008,14.60375,-40.53875,-122.47375,-34.224003,-15.664001,-0.448,eccentric,8,3.0,74227.0,226723.0,134726.0,216965.0,151820.0
2026-04-14 18:03:09.822771,707029,1609507283409750,4883378320,-0.20496,0.954528,-0.384544,27.973751,-38.4475,-124.50375,-34.536003,-16.888,-1.176,eccentric,8,3.0,74227.0,226723.0,134726.0,216965.0,151820.0
2026-04-14 18:03:09.826507,707030,1609507283419235,4883389070,-0.20496,0.954528,-0.384544,36.70625,-39.515,-127.085,-34.536003,-16.888,-1.176,eccentric,8,3.0,74227.0,226723.0,134726.0,216965.0,151820.0
2026-04-14 18:03:09.828844,707031,1609507283433725,4883403961,-0.093696,0.958432,-0.132736,33.95,-42.525,-127.68,-34.176003,-18.232,-1.528,eccentric,8,3.0,74227.0,226723.0,134726.0,216965.0,151820.0
2026-04-14 18:03:09.831344,707032,1609507283442645,4883412682,-0.187392,0.853024,-0.396256,26.0925,-41.72,-127.496254,-33.24,-19.952002,-2.544,eccentric,8,3.0,74227.0,226723.0,134726.0,216965.0,151820.0
2026-04-14 18:03:09.833753,707033,1609507283451648,4883421390,-0.187392,0.853024,-0.396256,22.65375,-35.9275,-127.855,-33.24,-19.952002,-2.544,eccentric,8,3.0,74227.0,226723.0,134726.0,216965.0,151820.0
2026-04-14 18:03:09.836505,707034,1609507283466157,4883436281,-0.294752,0.933056,-0.476288,22.14625,-32.165,-126.97125,-32.304,-20.664001,-2.456,eccentric,8,3.0,74227.0,226723.0,134726.0,216965.0,151820.0
2026-04-14 18:03:09.840239,707035,1609507283475279,4883444986,-0.294752,0.933056,-0.476288,27.16,-34.125,-126.91875,-32.304,-20.664001,-2.456,eccentric,8,3.0,74227.0,226723.0,134726.0,216965.0,151820.0
2026-04-14 18:03:09.870892,707046,1609507283489953,4883460037,-0.27328,0.950624,-0.52704,31.8325,-38.99875,-129.08,-32.056,-21.896002,-2.232,eccentric,8,3.0,63641.0,217489.0,122796.0,208957.0,138872.0
2026-04-14 18:03:09.873436,707047,1609507283498941,4883468775,-0.27328,0.950624,-0.52704,33.355,-41.23875,-128.26625,-32.056,-21.896002,-2.232,eccentric,8,3.0,63641.0,217489.0,122796.0,208957.0,138872.0
2026-04-14 18:03:09.875842,707048,1609507283513463,4883483707,-0.40016,0.964288,-0.365024,33.495,-38.3775,-125.04625,-31.368002,-22.960001,-2.848,eccentric,8,3.0,63641.0,217489.0,122796.0,208957.0,138872.0
2026-04-14 18:03:09.877884,707049,1609507283522403,4883492480,-0.40016,0.964288,-0.421632,29.9775,-35.35875,-122.50875,-31.368002,-22.960001,-2.848,eccentric,8,3.0,63641.0,217489.0,122796.0,208957.0,138872.0
2026-04-14 18:03:09.886680,707050,1609507283531326,4883501325,-0.388448,0.86864,-0.421632,24.491251,-33.145,-118.72,-30.296001,-24.248001,-6.008,eccentric,8,3.0,63641.0,217489.0,122796.0,208957.0,138872.0
2026-04-14 18:03:09.901616,707051,1609507283545861,4883514232,-0.46848,0.944768,-0.57584,24.38625,-35.945,-115.63125,-27.504002,-25.616001,-6.536,eccentric,8,3.0,63641.0,217489.0,122796.0,208957.0,138872.0
2026-04-14 18:03:09.910902,707052,1609507283555149,4883525159,-0.46848,0.944768,-0.57584,36.98625,-41.39625,-118.1075,-27.504002,-25.616001,-6.536,eccentric,8,3.0,63641.0,217489.0,122796.0,208957.0,138872.0
2026-04-14 18:03:09.925681,707053,1609507283569748,4883540076,-0.281088,1.038464,-0.333792,47.74,-46.305,-122.255,-27.008001,-26.016,-5.960001,eccentric,8,3.0,63641.0,217489.0,122796.0,208957.0,138872.0
2026-04-14 18:03:09.933339,707054,1609507283578691,4883548841,-0.281088,1.038464,-0.333792,45.8675,-45.45625,-119.735,-27.008001,-26.016,-5.960001,eccentric,8,3.0,63641.0,217489.0,122796.0,208957.0,138872.0
2026-04-14 18:03:09.970747,707065,1609507283588115,4883557549,-0.54656,0.921344,-0.402112,43.6625,-40.11875,-117.04,-25.472002,-26.744001,-6.824,eccentric,8,3.0,55639.0,212623.0,112479.0,204508.0,127372.0
2026-04-14 18:03:09.973422,707066,1609507283602697,4883572494,-0.54656,0.921344,-0.402112,32.1475,-38.482502,-116.5325,-25.472002,-26.744001,-6.824,eccentric,8,3.0,55639.0,212623.0,112479.0,204508.0,127372.0
2026-04-14 18:03:09.975867,707067,1609507283611618,4883581189,-0.610976,0.862784,-0.728096,20.0725,-41.72875,-113.75875,-25.064001,-27.52,-10.56,eccentric,8,3.0,55639.0,212623.0,112479.0,204508.0,127372.0
2026-04-14 18:03:09.981700,707068,1609507283626223,4883596165,-0.511424,0.899872,-0.329888,29.88125,-44.80875,-112.5075,-22.824001,-28.472002,-9.616,eccentric,8,3.0,55639.0,212623.0,112479.0,204508.0,127372.0
2026-04-14 18:03:09.990387,707069,1609507283635168,4883604846,-0.511424,0.899872,-0.329888,50.79375,-45.10625,-115.99875,-22.824001,-28.472002,-9.616,eccentric,8,3.0,55639.0,212623.0,112479.0,204508.0,127372.0
2026-04-14 18:03:09.997779,707070,1609507283644118,4883613565,-0.632448,1.04432,-0.28304,54.9675,-43.2775,-114.3275,-21.376001,-29.232002,-12.048,eccentric,8,3.0,55639.0,212623.0,112479.0,204508.0,127372.0
2026-04-14 18:03:10.013226,707071,1609507283658609,4883628472,-0.632448,1.04432,-0.28304,52.0275,-36.05875,-107.1175,-21.376001,-29.232002,-12.048,eccentric,8,3.0,55639.0,212623.0,112479.0,204508.0,127372.0
2026-04-14 18:03:10.024121,707072,1609507283667544,4883637161,-0.632448,0.749568,-0.423584,38.465,-33.41625,-102.1475,-19.968,-29.928001,-10.64,eccentric,8,3.0,55639.0,212623.0,112479.0,204508.0,127372.0
2026-04-14 18:03:10.038305,707073,1609507283682047,4883652057,-0.632448,0.749568,-0.423584,21.76125,-36.05,-94.7975,-19.968,-29.928001,-10.64,eccentric,8,3.0,55639.0,212623.0,112479.0,204508.0,127372.0
2026-04-14 18:03:10.068389,707084,1609507283691120,4883661244,-0.710528,0.882304,-0.550464,31.045,-38.33375,-87.6925,-19.656,-29.408,-10.344001,eccentric,8,3.0,48743.0,209012.0,102466.0,200635.0,116764.0
2026-04-14 18:03:10.070488,707085,1609507283705695,4883674113,-0.579744,1.081408,-0.3904,53.357502,-38.9375,-87.9725,-18.024,-30.232002,-12.728001,eccentric,8,3.0,48743.0,209012.0,102466.0,200635.0,116764.0
2026-04-14 18:03:10.073447,707086,1609507283714946,4883684907,-0.579744,1.081408,-0.3904,60.24375,-36.54,-87.1325,-18.024,-30.232002,-12.728001,eccentric,8,3.0,48743.0,209012.0,102466.0,200635.0,116764.0
2026-04-14 18:03:10.079699,707087,1609507283723992,4883693651,-0.579744,0.786656,-0.320128,50.81125,-32.85625,-83.69375,-18.024,-30.232002,-12.728001,eccentric,8,3.0,48743.0,209012.0,102466.0,200635.0,116764.0
2026-04-14 18:03:10.097129,707088,1609507283738525,4883708540,-0.603168,0.786656,-0.320128,34.41375,-31.61375,-80.22,-16.816,-30.688002,-11.096001,eccentric,8,3.0,48743.0,209012.0,102466.0,200635.0,116764.0
2026-04-14 18:03:10.101492,707089,1609507283747562,4883717239,-0.696864,0.817888,-0.450912,17.45625,-35.25375,-78.00625,-15.904,-30.648,-13.888001,eccentric,8,3.0,48743.0,209012.0,102466.0,200635.0,116764.0
