pc_time,serial_num,sensor_ts,host_ts,ax,ay,az,gx,gy,gz,mx,my,mz,phase,rpe,weight_kg,ppg_a,ppg_b,ppg_c,ppg_d,ppg_e
2026-04-14 18:03:08.096676,706712,1609507281743081,4881712392,-0.16592,1.145824,-0.18544,-27.0375,38.0275,99.84625,-28.352001,-24.512001,-5.12,concentric,8,3.0,54466.0,195866.0,104627.0,188569.0,121546.0
2026-04-14 18:03:08.119725,706713,1609507281757588,4881727319,-0.134688,1.159488,-0.26352,-29.3125,42.51625,94.745,-29.504002,-23.344002,-3.144,eccentric,8,3.0,54466.0,195866.0,104627.0,188569.0,121546.0
2026-04-14 18:03:08.122952,706714,1609507281766514,4881736003,-0.134688,1.159488,-0.26352,-39.2175,49.665,91.95375,-29.504002,-23.344002,-3.144,eccentric,8,3.0,54466.0,195866.0,104627.0,188569.0,121546.0
2026-04-14 18:03:08.154203,706725,1609507281781200,4881750962,-0.230336,1.04432,-0.452864,-48.5625,54.775,91.402504,-30.784002,-23.072,-3.144,eccentric,8,3.0,79212.0,208326.0,133032.0,200634.0,154876.0
2026-04-14 18:03:08.156655,706726,1609507281790212,4881759678,-0.230336,1.04432,-0.452864,-59.1675,50.89875,91.42,-30.784002,-23.072,-3.144,eccentric,8,3.0,79212.0,208326.0,133032.0,200634.0,154876.0
2026-04-14 18:03:08.159042,706727,1609507281799216,4881768436,-0.32208,0.860832,-0.558272,-56.56,46.4975,95.7425,-32.472,-21.288,-0.848,eccentric,8,3.0,79212.0,208326.0,133032.0,200634.0,154876.0
2026-04-14 18:03:08.171666,706728,1609507281813797,4881783318,-0.103456,1.100928,-0.15616,-34.15125,44.607502,96.97625,-32.176003,-20.728,-0.968,eccentric,8,3.0,79212.0,208326.0,133032.0,200634.0,154876.0
2026-04-14 18:03:08.177965,706729,1609507281822775,4881792043,-0.103456,1.100928,-0.15616,-16.19625,45.64,95.20875,-32.176003,-20.728,-0.968,eccentric,8,3.0,79212.0,208326.0,133032.0,200634.0,154876.0
2026-04-14 18:03:08.191624,706730,1609507281837255,4881807055,-0.080032,1.08336,-0.355264,-17.3425,49.4375,93.7825,-32.272003,-19.888,-0.928,eccentric,8,3.0,79212.0,208326.0,133032.0,200634.0,154876.0
2026-04-14 18:03:08.201814,706731,1609507281846195,4881815747,-0.080032,1.08336,-0.355264,-39.73375,50.0675,92.1375,-32.272003,-19.888,-0.928,eccentric,8,3.0,79212.0,208326.0,133032.0,200634.0,154876.0
2026-04-14 18:03:08.219083,706732,1609507281860727,4881830741,-0.236192,0.774944,-0.640256,-57.4525,47.25875,96.34625,-32.88,-18.632,-0.336,eccentric,8,3.0,79212.0,208326.0,133032.0,200634.0,154876.0
2026-04-14 18:03:08.225266,706733,1609507281869697,4881839422,-0.236192,0.774944,-0.640256,-61.34625,41.755,102.2875,-32.88,-18.632,-0.336,eccentric,8,3.0,79212.0,208326.0,133032.0,200634.0,154876.0
2026-04-14 18:03:08.281818,706744,1609507281879235,4881848222,-0.20496,0.786656,-0.55632,-48.06375,33.5475,110.67875,-34.448,-17.088001,0.208,eccentric,8,3.0,94273.0,218800.0,149732.0,210083.0,172954.0
2026-04-14 18:03:08.284292,706745,1609507281893771,4881863284,0.074176,1.085312,-0.001952,-23.835001,32.83,117.11,-34.512,-16.12,1.536,eccentric,8,3.0,94273.0,218800.0,149732.0,210083.0,172954.0
2026-04-14 18:03:08.309253,706746,1609507281902815,4881871990,0.074176,1.085312,-0.001952,-13.545,35.90125,116.26125,-34.512,-16.12,1.536,eccentric,8,3.0,94273.0,218800.0,149732.0,210083.0,172954.0
2026-04-14 18:03:08.331651,706747,1609507281917315,4881886909,0.089792,0.972096,-0.070272,-24.07125,39.47125,112.7175,-34.496002,-14.840001,1.592,eccentric,8,3.0,94273.0,218800.0,149732.0,210083.0,172954.0
2026-04-14 18:03:08.334225,706748,1609507281926227,4881895633,0.089792,0.972096,-0.070272,-41.86,43.575,109.488754,-34.496002,-14.840001,1.592,eccentric,8,3.0,94273.0,218800.0,149732.0,210083.0,172954.0
2026-04-14 18:03:08.336511,706749,1609507281935219,4881904369,-0.013664,0.798368,-0.284992,-52.38625,44.02125,108.9725,-35.16,-13.488001,2.384,eccentric,8,3.0,94273.0,218800.0,149732.0,210083.0,172954.0
2026-04-14 18:03:08.339290,706750,1609507281949777,4881919353,-0.013664,0.798368,-0.284992,-50.67125,36.46125,110.1275,-35.16,-13.488001,2.384,eccentric,8,3.0,94273.0,218800.0,149732.0,210083.0,172954.0
2026-04-14 18:03:08.341677,706751,1609507281958706,4881928034,0.109312,0.886208,-0.378688,-37.31875,24.115,113.4,-35.408,-11.776001,2.504,eccentric,8,3.0,94273.0,218800.0,149732.0,210083.0,172954.0
2026-04-14 18:03:08.344345,706752,1609507281973218,4881942949,0.269376,1.04432,-0.13664,-22.12,19.92375,113.575,-35.472,-10.744,1.28,eccentric,8,3.0,94273.0,218800.0,149732.0,210083.0,172954.0
2026-04-14 18:03:08.371567,706763,1609507281982281,4881951710,0.269376,1.04432,-0.13664,-20.43125,23.1175,111.125,-35.472,-10.744,1.28,eccentric,8,3.0,102994.0,227078.0,159648.0,217595.0,183174.0
2026-04-14 18:03:08.374105,706764,1609507281991245,4881960437,0.269376,1.04432,-0.13664,-31.115,29.4175,110.39,-35.472,-10.744,1.28,eccentric,8,3.0,102994.0,227078.0,159648.0,217595.0,183174.0
2026-04-14 18:03:08.379013,706765,1609507282005791,4881975380,0.201056,0.915488,-0.015616,-42.32375,36.30375,106.058754,-35.944,-9.544001,4.6,eccentric,8,3.0,102994.0,227078.0,159648.0,217595.0,183174.0
2026-04-14 18:03:08.381409,706766,1609507282014790,4881984124,0.216672,0.776896,-0.152256,-43.63625,38.6575,103.565,-35.800003,-7.968,4.568,eccentric,8,3.0,102994.0,227078.0,159648.0,217595.0,183174.0
2026-04-14 18:03:08.383961,706767,1609507282029298,4881999051,0.216672,0.776896,-0.152256,-34.7725,35.11375,103.845,-35.800003,-7.968,4.568,eccentric,8,3.0,102994.0,227078.0,159648.0,217595.0,183174.0
2026-04-14 18:03:08.393226,706768,1609507282038245,4882007752,0.275232,0.933056,-0.081984,-23.65125,33.1975,104.83375,-36.504,-6.688,5.44,eccentric,8,3.0,102994.0,227078.0,159648.0,217595.0,183174.0
2026-04-14 18:03:08.407737,706769,1609507282052769,4882022624,0.275232,0.933056,0.011712,-12.5125,34.29125,102.515,-36.504,-6.688,5.44,eccentric,8,3.0,102994.0,227078.0,159648.0,217595.0,183174.0
2026-04-14 18:03:08.416722,706770,1609507282061729,4882031369,0.40992,0.91744,0.003904,-12.6525,39.87375,99.19,-36.392002,-5.304,4.96,eccentric,8,3.0,102994.0,227078.0,159648.0,217595.0,183174.0
2026-04-14 18:03:08.427760,706771,1609507282070702,4882040127,0.40992,0.91744,0.003904,-20.06375,44.40625,98.3325,-36.392002,-5.304,4.96,eccentric,8,3.0,102994.0,227078.0,159648.0,217595.0,183174.0
2026-04-14 18:03:08.455782,706782,1609507282085271,4882055117,0.228384,0.815936,-0.074176,-27.8775,42.79625,98.7525,-36.792004,-3.728,5.976,eccentric,8,3.0,105973.0,229526.0,162679.0,219398.0,185519.0
2026-04-14 18:03:08.458316,706783,1609507282094282,4882063873,0.249856,0.745664,-0.327936,-27.44875,37.7475,98.35,-36.288002,-2.872,4.968,eccentric,8,3.0,105973.0,229526.0,162679.0,219398.0,185519.0
2026-04-14 18:03:08.465459,706784,1609507282108752,4882078922,0.249856,0.745664,-0.327936,-20.51,29.65375,99.56625,-36.288002,-2.872,4.968,eccentric,8,3.0,105973.0,229526.0,162679.0,219398.0,185519.0
2026-04-14 18:03:08.473359,706785,1609507282117663,4882087620,0.324032,0.831552,-0.173728,-12.46,27.1075,102.73375,-35.688004,-1.488,6.6,eccentric,8,3.0,105973.0,229526.0,162679.0,219398.0,185519.0
2026-04-14 18:03:08.490408,706786,1609507282132230,4882102510,0.324032,0.831552,-0.173728,-4.025,32.165,101.31625,-35.688004,-1.488,6.6,eccentric,8,3.0,105973.0,229526.0,162679.0,219398.0,185519.0
2026-04-14 18:03:08.495891,706787,1609507282141159,4882111260,0.306464,0.870592,0.044896,-2.5025,37.65125,96.8625,-35.504,-0.408,8.0,eccentric,8,3.0,105973.0,229526.0,162679.0,219398.0,185519.0
2026-04-14 18:03:08.505315,706788,1609507282150222,4882120144,0.306464,0.870592,0.044896,-10.45625,38.71875,95.45375,-35.504,-0.408,8.0,eccentric,8,3.0,105973.0,229526.0,162679.0,219398.0,185519.0
2026-04-14 18:03:08.520646,706789,1609507282164749,4882135047,0.402112,0.732,-0.027328,-15.33875,35.9275,94.64,-35.928,0.752,8.024,eccentric,8,3.0,105973.0,229526.0,162679.0,219398.0,185519.0
2026-04-14 18:03:08.529154,706790,1609507282173697,4882143738,0.402112,0.732,-0.2928,-16.87,26.04,93.5375,-35.928,0.752,8.024,eccentric,8,3.0,105973.0,229526.0,162679.0,219398.0,185519.0
2026-04-14 18:03:08.558218,706801,1609507282188275,4882156689,0.493856,0.685152,-0.2928,-15.32125,15.3125,96.81875,-34.952003,1.968,9.376,eccentric,8,3.0,108135.0,230279.0,165440.0,220080.0,187760.0
2026-04-14 18:03:08.560300,706802,1609507282197618,4882167495,0.609024,0.69296,-0.066368,-6.8775,13.9475,98.035,-34.84,2.944,7.520001,eccentric,8,3.0,108135.0,230279.0,165440.0,220080.0,187760.0
2026-04-14 18:03:08.562735,706803,1609507282206582,4882176196,0.609024,0.69296,-0.066368,0.21875,16.96625,96.85375,-34.84,2.944,7.520001,eccentric,8,3.0,108135.0,230279.0,165440.0,220080.0,187760.0
2026-04-14 18:03:08.575822,706804,1609507282221105,4882191192,0.618784,0.769088,0.072224,0.81375,22.42625,97.7025,-34.352,4.008,9.224,eccentric,8,3.0,108135.0,230279.0,165440.0,220080.0,187760.0
2026-04-14 18:03:08.584557,706805,1609507282230085,4882199886,0.618784,0.769088,0.072224,-2.8875,30.9925,94.05375,-34.352,4.008,9.224,eccentric,8,3.0,108135.0,230279.0,165440.0,220080.0,187760.0
2026-04-14 18:03:08.603461,706806,1609507282244756,4882214838,0.50752,0.694912,0.011712,-9.2575,36.2075,88.92625,-34.088,5.296001,9.328,eccentric,8,3.0,108135.0,230279.0,165440.0,220080.0,187760.0
2026-04-14 18:03:08.609386,706807,1609507282253693,4882223527,0.50752,0.694912,0.011712,-14.42,37.66875,87.56125,-34.088,5.296001,9.328,eccentric,8,3.0,108135.0,230279.0,165440.0,220080.0,187760.0
2026-04-14 18:03:08.623977,706808,1609507282268180,4882238389,0.558272,0.597312,-0.22448,-11.698751,38.29875,86.72125,-34.496002,6.648,9.664001,eccentric,8,3.0,108135.0,230279.0,165440.0,220080.0,187760.0
2026-04-14 18:03:08.703244,706819,1609507282277175,4882247079,0.6832,0.669536,0.128832,-0.20125,40.81875,83.37875,-33.224003,6.944,9.408,eccentric,8,3.0,109448.0,231973.0,167086.0,221544.0,189090.0
2026-04-14 18:03:08.709073,706820,1609507282286106,4882255832,0.6832,0.669536,0.128832,4.2875,40.83625,80.43875,-33.224003,6.944,9.408,eccentric,8,3.0,109448.0,231973.0,167086.0,221544.0,189090.0
2026-04-14 18:03:08.711495,706821,1609507282300854,4882270753,0.704672,0.534848,0.007808,-0.49875,40.145,83.53625,-32.640003,8.024,9.712001,eccentric,8,3.0,109448.0,231973.0,167086.0,221544.0,189090.0
2026-04-14 18:03:08.714299,706822,1609507282309845,4882279435,0.704672,0.534848,0.007808,-5.0225,40.6175,85.37375,-32.640003,8.024,9.712001,eccentric,8,3.0,109448.0,231973.0,167086.0,221544.0,189090.0
2026-04-14 18:03:08.717075,706823,1609507282324348,4882294327,0.646112,0.503616,-0.103456,-0.88375,40.73125,83.71125,-32.432003,9.128,10.248,eccentric,8,3.0,109448.0,231973.0,167086.0,221544.0,189090.0
2026-04-14 18:03:08.719605,706824,1609507282333439,4882303054,0.646112,0.503616,-0.103456,4.1475,37.8875,82.565,-32.432003,9.128,10.248,eccentric,8,3.0,109448.0,231973.0,167086.0,221544.0,189090.0
2026-04-14 18:03:08.722054,706825,1609507282342512,4882311751,0.628544,0.532896,-0.181536,3.50875,35.4025,84.44625,-31.632002,9.936001,12.040001,eccentric,8,3.0,109448.0,231973.0,167086.0,221544.0,189090.0
2026-04-14 18:03:08.724082,706826,1609507282357057,4882326632,0.671488,0.564128,0.12688,4.2175,38.4475,84.98,-31.032001,10.936001,9.632001,eccentric,8,3.0,109448.0,231973.0,167086.0,221544.0,189090.0
2026-04-14 18:03:08.726477,706827,1609507282366058,4882335322,0.671488,0.564128,0.12688,5.62625,41.09,80.0975,-31.032001,10.936001,9.632001,eccentric,8,3.0,109448.0,231973.0,167086.0,221544.0,189090.0
2026-04-14 18:03:08.756964,706838,1609507282380994,4882350340,0.657824,0.5368,0.21472,3.28125,42.2625,77.49875,-30.088001,11.240001,11.544001,eccentric,8,3.0,110544.0,230629.0,168725.0,220027.0,190191.0
2026-04-14 18:03:08.759097,706839,1609507282390212,4882359153,0.657824,0.5368,0.21472,1.6975,44.485,75.64375,-30.088001,11.240001,11.544001,eccentric,8,3.0,110544.0,230629.0,168725.0,220027.0,190191.0
2026-04-14 18:03:08.761796,706840,1609507282399177,4882367912,0.65392,0.4392,-0.080032,1.33,45.85,72.75625,-29.656002,12.120001,11.960001,eccentric,8,3.0,110544.0,230629.0,168725.0,220027.0,190191.0
2026-04-14 18:03:08.768037,706841,1609507282414158,4882382826,0.65392,0.4392,-0.080032,3.40375,44.8,69.93,-29.656002,12.120001,11.960001,eccentric,8,3.0,110544.0,230629.0,168725.0,220027.0,190191.0
2026-04-14 18:03:08.779190,706842,1609507282423526,4882393579,0.679296,0.470432,0.085888,3.2025,41.27375,67.48,-28.776001,13.056001,12.824,eccentric,8,3.0,110544.0,230629.0,168725.0,220027.0,190191.0
2026-04-14 18:03:08.790220,706843,1609507282438027,4882406487,0.80032,0.421632,0.230336,2.38,39.24375,65.905,-28.112001,13.248001,12.736001,eccentric,8,3.0,110544.0,230629.0,168725.0,220027.0,190191.0
2026-04-14 18:03:08.804302,706844,1609507282447297,4882417241,0.80032,0.421632,0.230336,1.04125,38.71,64.05,-28.112001,13.248001,12.736001,eccentric,8,3.0,110544.0,230629.0,168725.0,220027.0,190191.0
2026-04-14 18:03:08.811681,706845,1609507282456379,4882425961,0.812032,0.33184,0.271328,-0.58625,37.28375,62.475,-28.752,14.384001,11.312,eccentric,8,3.0,110544.0,230629.0,168725.0,220027.0,190191.0
2026-04-14 18:03:08.825392,706846,1609507282470956,4882440898,0.812032,0.33184,0.271328,0.91875,34.69375,62.02875,-28.752,14.384001,11.312,eccentric,8,3.0,110544.0,230629.0,168725.0,220027.0,190191.0
2026-04-14 18:03:08.857754,706857,1609507282480387,4882450081,0.732,0.355264,0.160064,5.92375,32.585,59.75375,-27.624,14.152,13.504001,eccentric,8,3.0,110695.0,230489.0,169092.0,219557.0,190422.0
2026-04-14 18:03:08.860275,706858,1609507282489431,4882458825,0.732,0.355264,0.160064,8.54875,28.0875,56.4025,-27.624,14.152,13.504001,eccentric,8,3.0,110695.0,230489.0,169092.0,219557.0,190422.0
2026-04-14 18:03:08.863020,706859,1609507282504081,4882473923,0.841312,0.353312,0.281088,5.88,21.77,56.0175,-26.864002,15.328001,13.376,eccentric,8,3.0,110695.0,230489.0,169092.0,219557.0,190422.0
2026-04-14 18:03:08.868022,706860,1609507282513137,4882482622,0.841312,0.353312,0.281088,3.17625,21.91,55.65,-26.864002,15.328001,13.376,eccentric,8,3.0,110695.0,230489.0,169092.0,219557.0,190422.0
2026-04-14 18:03:08.910360,706861,1609507282527655,4882497665,0.74176,0.314272,0.17568,5.18875,23.6075,50.26,-26.552002,15.672001,13.616,eccentric,8,3.0,110695.0,230489.0,169092.0,219557.0,190422.0
2026-04-14 18:03:08.912938,706862,1609507282536594,4882506363,0.755424,0.316224,0.284992,4.94375,21.84875,44.135,-26.552002,15.696001,13.936001,eccentric,8,3.0,110695.0,230489.0,169092.0,219557.0,190422.0
2026-04-14 18:03:08.915441,706863,1609507282551117,4882521287,0.755424,0.316224,0.284992,7.55125,20.8775,40.10125,-25.664001,15.696001,13.936001,eccentric,8,3.0,110695.0,230489.0,169092.0,219557.0,190422.0
2026-04-14 18:03:08.918030,706864,1609507282560037,4882529953,0.815936,0.288896,0.0488,10.29875,20.37875,34.265,-25.800001,15.888001,14.384001,eccentric,8,3.0,110695.0,230489.0,169092.0,219557.0,190422.0
2026-04-14 18:03:08.924213,706865,1609507282569083,4882538726,0.815936,0.288896,0.0488,11.68125,18.9875,28.28875,-25.800001,15.888001,14.384001,eccentric,8,3.0,110695.0,230489.0,169092.0,219557.0,190422.0
2026-04-14 18:03:08.960544,706876,1609507282583807,4882553689,0.83936,0.329888,0.327936,9.2575,18.90875,22.9075,-26.168001,16.512001,15.608001,eccentric,8,3.0,113175.0,233904.0,172153.0,222290.0,192976.0
2026-04-14 18:03:08.962761,706877,1609507282592828,4882562470,0.83936,0.329888,0.327936,5.71375,17.99875,17.00125,-26.168001,16.512001,15.608001,eccentric,8,3.0,113175.0,233904.0,172153.0,222290.0,192976.0
2026-04-14 18:03:08.965226,706878,1609507282607503,4882577412,0.837408,0.247904,0.163968,2.80875,17.1675,11.90875,-25.272001,15.760001,14.76,eccentric,8,3.0,113175.0,233904.0,172153.0,222290.0,192976.0
2026-04-14 18:03:08.970524,706879,1609507282616518,4882586198,0.837408,0.247904,0.210816,2.17875,15.1025,8.02375,-25.272001,15.760001,14.76,eccentric,8,3.0,113175.0,233904.0,172153.0,222290.0,192976.0
2026-04-14 18:03:08.979392,706880,1609507282625528,4882594900,0.831552,0.232288,0.210816,3.5,12.6175,3.43875,-24.704,16.264,17.624,eccentric,8,3.0,113175.0,233904.0,172153.0,222290.0,192976.0
2026-04-14 18:03:08.995471,706881,1609507282640091,4882609770,0.784704,0.249856,0.167872,4.06,8.37375,-0.8225,-26.048,16.256,15.840001,eccentric,8,3.0,113175.0,233904.0,172153.0,222290.0,192976.0
2026-04-14 18:03:09.004199,706882,1609507282649021,4882618458,0.784704,0.249856,0.167872,3.89375,2.23125,-3.08875,-26.048,16.256,15.840001,eccentric,8,3.0,113175.0,233904.0,172153.0,222290.0,192976.0
2026-04-14 18:03:09.018191,706883,1609507282663648,4882633445,0.835456,0.220576,0.085888,5.635,0.175,-4.90875,-25.768002,15.672001,14.920001,eccentric,8,3.0,113175.0,233904.0,172153.0,222290.0,192976.0
2026-04-14 18:03:09.044972,706884,1609507282672635,4882642149,0.835456,0.220576,0.085888,9.52,-0.28,-9.4325,-25.768002,15.672001,14.920001,eccentric,8,3.0,113175.0,233904.0,172153.0,222290.0,192976.0
2026-04-14 18:03:09.116734,706895,1609507282687222,4882657389,0.860832,0.298656,0.36112,10.5175,-0.76125,-13.8425,-25.320002,15.568001,14.936001,eccentric,8,3.0,114444.0,236908.0,174181.0,224980.0,195121.0
2026-04-14 18:03:09.124229,706896,1609507282696205,4882666235,0.860832,0.298656,0.36112,10.94625,-1.70625,-17.0975,-25.320002,15.568001,14.936001,eccentric,8,3.0,114444.0,236908.0,174181.0,224980.0,195121.0
2026-04-14 18:03:09.126770,706897,1609507282705170,4882674960,0.831552,0.310368,0.206912,9.292501,-5.2675,-20.0375,-25.544,15.56,14.776001,eccentric,8,3.0,114444.0,236908.0,174181.0,224980.0,195121.0
2026-04-14 18:03:09.129481,706898,1609507282719646,4882689858,0.81984,0.279136,0.042944,7.60375,-8.2075,-21.00875,-25.544,15.112,15.104001,eccentric,8,3.0,114444.0,236908.0,174181.0,224980.0,195121.0
2026-04-14 18:03:09.132132,706899,1609507282728600,4882698601,0.81984,0.279136,0.042944,6.9825,-7.91875,-22.60125,-25.544,15.112,15.104001,eccentric,8,3.0,114444.0,236908.0,174181.0,224980.0,195121.0
2026-04-14 18:03:09.134624,706900,1609507282743085,4882711456,0.81008,0.36112,0.300608,9.89625,-7.55125,-25.41,-25.856,15.032001,14.808001,eccentric,8,3.0,114444.0,236908.0,174181.0,224980.0,195121.0
2026-04-14 18:03:09.137086,706901,1609507282752433,4882722322,0.81008,0.36112,0.300608,13.34375,-8.05875,-29.18125,-25.856,15.032001,14.808001,eccentric,8,3.0,114444.0,236908.0,174181.0,224980.0,195121.0
2026-04-14 18:03:09.139650,706902,1609507282761406,4882731020,0.74176,0.394304,0.103456,12.25875,-11.87375,-31.36875,-26.016,14.192,14.736001,eccentric,8,3.0,114444.0,236908.0,174181.0,224980.0,195121.0
2026-04-14 18:03:09.141614,706903,1609507282775944,4882745920,0.74176,0.394304,0.103456,7.735,-15.89875,-31.59625,-26.016,14.192,14.736001,eccentric,8,3.0,114444.0,236908.0,174181.0,224980.0,195121.0
2026-04-14 18:03:09.170181,706914,1609507282785234,4882754885,0.733952,0.368928,0.083936,4.01625,-19.59125,-32.33125,-26.368002,14.456,14.752001,eccentric,8,3.0,114148.0,240351.0,174577.0,228117.0,195967.0
2026-04-14 18:03:09.171436,706915,1609507282799879,4882769883,0.76128,0.386496,0.230336,2.59,-22.77625,-33.04,-26.712002,13.752001,15.112,eccentric,8,3.0,114148.0,240351.0,174577.0,228117.0,195967.0
2026-04-14 18:03:09.174010,706916,1609507282808797,4882778728,0.76128,0.386496,0.230336,6.46625,-22.54,-34.69375,-26.712002,13.752001,15.112,eccentric,8,3.0,114148.0,240351.0,174577.0,228117.0,195967.0
2026-04-14 18:03:09.176901,706917,1609507282817917,4882787426,0.76128,0.386496,0.25376,10.98125,-25.375,-37.826252,-26.712002,13.752001,15.112,eccentric,8,3.0,114148.0,240351.0,174577.0,228117.0,195967.0
2026-04-14 18:03:09.199517,706918,1609507282832451,4882802399,0.749568,0.427488,0.25376,9.89625,-29.68875,-39.6725,-27.248001,13.848001,15.392001,eccentric,8,3.0,114148.0,240351.0,174577.0,228117.0,195967.0
2026-04-14 18:03:09.202026,706919,1609507282841533,4882811093,0.718336,0.427488,0.064416,8.84625,-31.9725,-40.888752,-27.856,13.160001,14.072001,eccentric,8,3.0,114148.0,240351.0,174577.0,228117.0,195967.0
2026-04-14 18:03:09.212096,706920,1609507282856233,4882825966,0.718336,0.427488,0.064416,6.50125,-33.38125,-43.28625,-27.856,13.160001,14.072001,eccentric,8,3.0,114148.0,240351.0,174577.0,228117.0,195967.0
2026-04-14 18:03:09.219573,706921,1609507282865167,4882834782,0.765184,0.3904,0.017568,3.82375,-34.86875,-45.71,-28.704,12.184001,13.880001,eccentric,8,3.0,114148.0,240351.0,174577.0,228117.0,195967.0
2026-04-14 18:03:09.261355,706932,1609507282879672,4882850151,0.798368,0.406016,0.193248,3.80625,-35.86625,-47.32,-28.704,11.736001,11.632001,eccentric,8,3.0,112414.0,240051.0,173797.0,228121.0,195786.0
2026-04-14 18:03:09.263728,706933,1609507282888688,4882858901,0.798368,0.406016,0.193248,4.59375,-35.74375,-49.2275,-28.704,11.736001,11.632001,eccentric,8,3.0,112414.0,240051.0,173797.0,228121.0,195786.0
2026-04-14 18:03:09.266342,706934,1609507282897622,4882867661,0.798368,0.406016,0.193248,7.805,-37.68625,-51.1175,-28.704,11.736001,11.632001,eccentric,8,3.0,112414.0,240051.0,173797.0,228121.0,195786.0
2026-04-14 18:03:09.268857,706935,1609507282912127,4882880512,0.7808,0.470432,0.154208,7.9975,-40.4075,-54.425,-29.472002,11.52,12.432,eccentric,8,3.0,112414.0,240051.0,173797.0,228121.0,195786.0
2026-04-14 18:03:09.276620,706936,1609507282921327,4882891293,0.718336,0.488,-0.05856,6.195,-42.035,-57.015,-29.816002,10.808001,12.552001,eccentric,8,3.0,112414.0,240051.0,173797.0,228121.0,195786.0
2026-04-14 18:03:09.291442,706937,1609507282935876,4882906223,0.718336,0.488,-0.05856,3.49125,-43.86375,-58.8525,-29.816002,10.808001,12.552001,eccentric,8,3.0,112414.0,240051.0,173797.0,228121.0,195786.0
2026-04-14 18:03:09.300753,706938,1609507282944865,4882915091,0.704672,0.495808,0.119072,1.225,-45.6925,-59.96375,-31.168001,10.216001,12.336,eccentric,8,3.0,112414.0,240051.0,173797.0,228121.0,195786.0
2026-04-14 18:03:09.310384,706939,1609507282953861,4882923787,0.704672,0.495808,0.119072,1.11125,-47.13625,-60.865,-31.168001,10.216001,12.336,eccentric,8,3.0,112414.0,240051.0,173797.0,228121.0,195786.0
2026-04-14 18:03:09.327465,706940,1609507282968358,4882938655,0.696864,0.550464,0.134688,3.71875,-46.36625,-63.02625,-30.840002,9.656,11.824,eccentric,8,3.0,112414.0,240051.0,173797.0,228121.0,195786.0
2026-04-14 18:03:09.332058,706941,1609507282977412,4882947448,0.696864,0.550464,0.134688,5.1975,-46.48875,-65.72125,-30.840002,9.656,11.824,eccentric,8,3.0,112414.0,240051.0,173797.0,228121.0,195786.0
2026-04-14 18:03:09.359216,706952,1609507282992060,4882962431,0.67344,0.568032,0.037088,4.55875,-48.44,-69.0025,-32.296,8.704,12.288,eccentric,8,3.0,111874.0,239594.0,174863.0,228029.0,196982.0
2026-04-14 18:03:09.361607,706953,1609507283000996,4882971114,0.69296,0.493856,-0.081984,-0.385,-51.45,-70.4375,-33.0,8.312,11.808001,eccentric,8,3.0,111874.0,239594.0,174863.0,228029.0,196982.0
2026-04-14 18:03:09.368194,706954,1609507283015642,4882984023,0.69296,0.493856,-0.081984,-3.3775,-53.3925,-69.95625,-33.0,8.312,11.808001,eccentric,8,3.0,111874.0,239594.0,174863.0,228029.0,196982.0
2026-04-14 18:03:09.379574,706955,1609507283024979,4882994788,0.716384,0.528992,0.124928,-0.7175,-53.69,-70.49875,-33.288002,7.776001,10.952001,eccentric,8,3.0,111874.0,239594.0,174863.0,228029.0,196982.0
2026-04-14 18:03:09.413344,706956,1609507283033941,4883003492,0.716384,0.528992,0.124928,2.56375,-52.885,-72.98375,-33.288002,7.776001,10.952001,eccentric,8,3.0,111874.0,239594.0,174863.0,228029.0,196982.0
2026-04-14 18:03:09.415839,706957,1609507283048449,4883018368,0.609024,0.616832,-0.119072,6.9125,-51.14375,-76.13375,-34.16,6.04,9.192,eccentric,8,3.0,111874.0,239594.0,174863.0,228029.0,196982.0
2026-04-14 18:03:09.418299,706958,1609507283057435,4883027077,0.609024,0.616832,-0.119072,8.1725,-51.51125,-81.64625,-34.16,6.04,9.192,eccentric,8,3.0,111874.0,239594.0,174863.0,228029.0,196982.0
2026-04-14 18:03:09.445547,706959,1609507283071910,4883042001,0.659776,0.579744,-0.00976,1.88125,-54.39,-85.9425,-34.600002,5.584,10.008,eccentric,8,3.0,111874.0,239594.0,174863.0,228029.0,196982.0
2026-04-14 18:03:09.447444,706960,1609507283080852,4883050701,0.59536,0.542656,-0.017568,-2.555,-60.15625,-85.5925,-34.208,4.536,8.08,eccentric,8,3.0,111874.0,239594.0,174863.0,228029.0,196982.0
2026-04-14 18:03:09.551636,706971,1609507283089863,4883059383,0.59536,0.542656,-0.017568,-1.26,-60.3925,-83.65875,-34.208,4.536,8.08,eccentric,8,3.0,97038.0,227408.0,157906.0,217311.0,179445.0
2026-04-14 18:03:09.554271,706972,1609507283104363,4883074326,0.552416,0.669536,-0.304512,7.67375,-61.48625,-84.97125,-34.816,3.112,7.512001,eccentric,8,3.0,97038.0,227408.0,157906.0,217311.0,179445.0
2026-04-14 18:03:09.556727,706973,1609507283113295,4883083034,0.552416,0.669536,-0.304512,15.6625,-62.0025,-89.53875,-34.816,3.112,7.512001,eccentric,8,3.0,97038.0,227408.0,157906.0,217311.0,179445.0
2026-04-14 18:03:09.559262,706974,1609507283127934,4883097964,0.521184,0.784704,-0.130784,18.6375,-60.94375,-92.88125,-35.480003,1.944,6.872,eccentric,8,3.0,97038.0,227408.0,157906.0,217311.0,179445.0
2026-04-14 18:03:09.561686,706975,1609507283136866,4883106642,0.521184,0.784704,-0.130784,11.235,-63.49875,-95.1475,-35.480003,1.944,6.872,eccentric,8,3.0,97038.0,227408.0,157906.0,217311.0,179445.0
2026-04-14 18:03:09.564250,706976,1609507283151361,4883121522,0.599264,0.609024,0.015616,-3.54375,-68.285,-96.0225,-35.464,0.816,6.208,eccentric,8,3.0,97038.0,227408.0,157906.0,217311.0,179445.0
2026-04-14 18:03:09.566626,706977,1609507283160449,4883130328,0.5368,0.630496,-0.1952,-6.9125,-67.45375,-94.50875,-35.464,0.816,4.16,eccentric,8,3.0,97038.0,227408.0,157906.0,217311.0,179445.0
2026-04-14 18:03:09.569256,706978,1609507283169395,4883139034,0.542656,0.630496,-0.1952,3.59625,-62.125,-96.71375,-35.992,-0.2,4.448,eccentric,8,3.0,97038.0,227408.0,157906.0,217311.0,179445.0
2026-04-14 18:03:09.599328,706989,1609507283184547,4883154198,0.466528,0.841312,-0.169824,20.51,-57.155,-102.89125,-36.152,-1.912,5.480001,eccentric,8,3.0,91802.0,221616.0,152337.0,212075.0,173483.0
2026-04-14 18:03:09.602243,706990,1609507283193525,4883162917,0.466528,0.841312,-0.169824,26.43375,-53.760002,-106.33875,-36.152,-1.912,5.480001,eccentric,8,3.0,91802.0,221616.0,152337.0,212075.0,173483.0
2026-04-14 18:03:09.604175,706991,1609507283202443,4883171599,0.415776,0.80032,-0.259616,22.295,-53.52375,-108.47375,-36.56,-2.688,4.8,eccentric,8,3.0,91802.0,221616.0,152337.0,212075.0,173483.0
2026-04-14 18:03:09.606607,706992,1609507283217010,4883186503,0.415776,0.80032,-0.259616,10.15875,-55.58875,-110.03125,-36.56,-2.688,4.8,eccentric,8,3.0,91802.0,221616.0,152337.0,212075.0,173483.0
2026-04-14 18:03:09.609124,706993,1609507283226076,4883195252,0.398208,0.685152,-0.171776,-3.56125,-58.10875,-108.89375,-37.592003,-3.984,4.416,eccentric,8,3.0,91802.0,221616.0,152337.0,212075.0,173483.0
2026-04-14 18:03:09.611586,706994,1609507283240849,4883210296,0.398208,0.747616,-0.294752,-5.03125,-58.68625,-107.45,-37.592003,-3.984,4.416,eccentric,8,3.0,91802.0,221616.0,152337.0,212075.0,173483.0
2026-04-14 18:03:09.616025,706995,1609507283249822,4883218994,0.413824,0.739808,-0.294752,6.50125,-56.3325,-109.996254,-37.2,-5.264,3.936,eccentric,8,3.0,91802.0,221616.0,152337.0,212075.0,173483.0
2026-04-14 18:03:09.618996,706996,1609507283264349,4883233928,0.347456,0.892064,-0.355264,20.405,-56.105,-114.51125,-37.696003,-6.896,3.072,eccentric,8,3.0,91802.0,221616.0,152337.0,212075.0,173483.0
2026-04-14 18:03:09.630948,706997,1609507283273350,4883242741,0.347456,0.892064,-0.355264,26.06625,-57.7675,-116.97875,-37.696003,-6.896,3.072,eccentric,8,3.0,91802.0,221616.0,152337.0,212075.0,173483.0
2026-04-14 18:03:09.636687,706998,1609507283282253,4883251427,0.339648,0.843264,-0.314272,18.5325,-60.165,-117.3725,-36.448,-8.04,-0.24,eccentric,8,3.0,91802.0,221616.0,152337.0,212075.0,173483.0
2026-04-14 18:03:09.664050,707009,1609507283296923,4883266381,0.339648,0.843264,-0.314272,4.6725,-60.1825,-117.5475,-36.448,-8.04,-0.24,eccentric,8,3.0,85809.0,221627.0,147174.0,212598.0,166824.0
2026-04-14 18:03:09.666645,707010,1609507283305999,4883275096,0.220576,0.747616,-0.378688,-2.7125,-56.857502,-119.44625,-38.024002,-9.336,3.088,eccentric,8,3.0,85809.0,221627.0,147174.0,212598.0,166824.0
2026-04-14 18:03:09.674237,707011,1609507283320531,4883290052,0.220576,0.747616,-0.378688,3.5525,-49.30625,-122.50875,-38.024002,-9.336,3.088,eccentric,8,3.0,85809.0,221627.0,147174.0,212598.0,166824.0
2026-04-14 18:03:09.684340,707012,1609507283329488,4883298745,0.171776,0.851072,-0.376736,16.49375,-41.615,-125.46625,-37.096,-11.424001,0.672,eccentric,8,3.0,85809.0,221627.0,147174.0,212598.0,166824.0
2026-04-14 18:03:09.694319,707013,1609507283338426,4883307425,0.171776,0.851072,-0.376736,29.07625,-38.85875,-128.975,-37.096,-11.424001,0.672,eccentric,8,3.0,85809.0,221627.0,147174.0,212598.0,166824.0
2026-04-14 18:03:09.706910,707014,1609507283352939,4883322315,0.05856,0.942816,-0.474336,28.35,-41.2825,-130.17375,-35.72,-12.992001,-0.192,eccentric,8,3.0,85809.0,221627.0,147174.0,212598.0,166824.0
2026-04-14 18:03:09.718313,707015,1609507283361866,4883331023,0.011712,0.86864,-0.247904,19.41625,-45.0625,-126.91,-35.72,-12.992001,0.16,eccentric,8,3.0,85809.0,221627.0,147174.0,212598.0,166824.0
2026-04-14 18:03:09.730252,707016,1609507283376376,4883345907,0.011712,0.86864,-0.247904,9.205,-47.18875,-125.65875,-35.280003,-14.224001,0.16,eccentric,8,3.0,85809.0,221627.0,147174.0,212598.0,166824.0
2026-04-14 18:03:09.818772,707027,1609507283385832,4883354621,-0.031232,0.786656,-0.203008,5.34625,-46.3225,-124.81,-34.224003,-15.664001,-0.448,eccentric,8,3.0,74227.0,226723.0,134726.0,216965.0,151820.0
2026-04-14 18:03:09.820183,707028,1609507283395234,4883365467,-0.031232,0.786656,-0.203008,14.60375,-40.53875,-122.47375,-34.224003,-15.664001,-0.448,eccentric,8,3.0,74227.0,226723.0,134726.0,216965.0,151820.0
2026-04-14 18:03:09.822771,707029,1609507283409750,4883378320,-0.20496,0.954528,-0.384544,27.973751,-38.4475,-124.50375,-34.536003,-16.888,-1.176,eccentric,8,3.0,74227.0,226723.0,134726.0,216965.0,151820.0
2026-04-14 18:03:09.826507,707030,1609507283419235,4883389070,-0.20496,0.954528,-0.384544,36.70625,-39.515,-127.085,-34.536003,-16.888,-1.176,eccentric,8,3.0,74227.0,226723.0,134726.0,216965.0,151820.0
2026-04-14 18:03:09.828844,707031,1609507283433725,4883403961,-0.093696,0.958432,-0.132736,33.95,-42.525,-127.68,-34.176003,-18.232,-1.528,eccentric,8,3.0,74227.0,226723.0,134726.0,216965.0,151820.0
2026-04-14 18:03:09.831344,707032,1609507283442645,4883412682,-0.187392,0.853024,-0.396256,26.0925,-41.72,-127.496254,-33.24,-19.952002,-2.544,eccentric,8,3.0,74227.0,226723.0,134726.0,216965.0,151820.0
2026-04-14 18:03:09.833753,707033,1609507283451648,4883421390,-0.187392,0.853024,-0.396256,22.65375,-35.9275,-127.855,-33.24,-19.952002,-2.544,eccentric,8,3.0,74227.0,226723.0,134726.0,216965.0,151820.0
2026-04-14 18:03:09.836505,707034,1609507283466157,4883436281,-0.294752,0.933056,-0.476288,22.14625,-32.165,-126.97125,-32.304,-20.664001,-2.456,eccentric,8,3.0,74227.0,226723.0,134726.0,216965.0,151820.0
2026-04-14 18:03:09.840239,707035,1609507283475279,4883444986,-0.294752,0.933056,-0.476288,27.16,-34.125,-126.91875,-32.304,-20.664001,-2.456,eccentric,8,3.0,74227.0,226723.0,134726.0,216965.0,151820.0
2026-04-14 18:03:09.870892,707046,1609507283489953,4883460037,-0.27328,0.950624,-0.52704,31.8325,-38.99875,-129.08,-32.056,-21.896002,-2.232,eccentric,8,3.0,63641.0,217489.0,122796.0,208957.0,138872.0
2026-04-14 18:03:09.873436,707047,1609507283498941,4883468775,-0.27328,0.950624,-0.52704,33.355,-41.23875,-128.26625,-32.056,-21.896002,-2.232,eccentric,8,3.0,63641.0,217489.0,122796.0,208957.0,138872.0
2026-04-14 18:03:09.875842,707048,1609507283513463,4883483707,-0.40016,0.964288,-0.365024,33.495,-38.3775,-125.04625,-31.368002,-22.960001,-2.848,eccentric,8,3.0,63641.0,217489.0,122796.0,208957.0,138872.0
2026-04-14 18:03:09.877884,707049,1609507283522403,4883492480,-0.40016,0.964288,-0.421632,29.9775,-35.35875,-122.50875,-31.368002,-22.960001,-2.848,eccentric,8,3.0,63641.0,217489.0,122796.0,208957.0,138872.0
2026-04-14 18:03:09.886680,707050,1609507283531326,4883501325,-0.388448,0.86864,-0.421632,24.491251,-33.145,-118.72,-30.296001,-24.248001,-6.008,eccentric,8,3.0,63641.0,217489.0,122796.0,208957.0,138872.0
2026-04-14 18:03:09.901616,707051,1609507283545861,4883514232,-0.46848,0.944768,-0.57584,24.38625,-35.945,-115.63125,-27.504002,-25.616001,-6.536,eccentric,8,3.0,63641.0,217489.0,122796.0,208957.0,138872.0
2026-04-14 18:03:09.910902,707052,1609507283555149,4883525159,-0.46848,0.944768,-0.57584,36.98625,-41.39625,-118.1075,-27.504002,-25.616001,-6.536,eccentric,8,3.0,63641.0,217489.0,122796.0,208957.0,138872.0
2026-04-14 18:03:09.925681,707053,1609507283569748,4883540076,-0.281088,1.038464,-0.333792,47.74,-46.305,-122.255,-27.008001,-26.016,-5.960001,eccentric,8,3.0,63641.0,217489.0,122796.0,208957.0,138872.0
2026-04-14 18:03:09.933339,707054,1609507283578691,4883548841,-0.281088,1.038464,-0.333792,45.8675,-45.45625,-119.735,-27.008001,-26.016,-5.960001,eccentric,8,3.0,63641.0,217489.0,122796.0,208957.0,138872.0
2026-04-14 18:03:09.970747,707065,1609507283588115,4883557549,-0.54656,0.921344,-0.402112,43.6625,-40.11875,-117.04,-25.472002,-26.744001,-6.824,eccentric,8,3.0,55639.0,212623.0,112479.0,204508.0,127372.0
2026-04-14 18:03:09.973422,707066,1609507283602697,4883572494,-0.54656,0.921344,-0.402112,32.1475,-38.482502,-116.5325,-25.472002,-26.744001,-6.824,eccentric,8,3.0,55639.0,212623.0,112479.0,204508.0,127372.0
2026-04-14 18:03:09.975867,707067,1609507283611618,4883581189,-0.610976,0.862784,-0.728096,20.0725,-41.72875,-113.75875,-25.064001,-27.52,-10.56,eccentric,8,3.0,55639.0,212623.0,112479.0,204508.0,127372.0
2026-04-14 18:03:09.981700,707068,1609507283626223,4883596165,-0.511424,0.899872,-0.329888,29.88125,-44.80875,-112.5075,-22.824001,-28.472002,-9.616,eccentric,8,3.0,55639.0,212623.0,112479.0,204508.0,127372.0
2026-04-14 18:03:09.990387,707069,1609507283635168,4883604846,-0.511424,0.899872,-0.329888,50.79375,-45.10625,-115.99875,-22.824001,-28.472002,-9.616,eccentric,8,3.0,55639.0,212623.0,112479.0,204508.0,127372.0
2026-04-14 18:03:09.997779,707070,1609507283644118,4883613565,-0.632448,1.04432,-0.28304,54.9675,-43.2775,-114.3275,-21.376001,-29.232002,-12.048,eccentric,8,3.0,55639.0,212623.0,112479.0,204508.0,127372.0
2026-04-14 18:03:10.013226,707071,1609507283658609,4883628472,-0.632448,1.04432,-0.28304,52.0275,-36.05875,-107.1175,-21.376001,-29.232002,-12.048,eccentric,8,3.0,55639.0,212623.0,112479.0,204508.0,127372.0
2026-04-14 18:03:10.024121,707072,1609507283667544,4883637161,-0.632448,0.749568,-0.423584,38.465,-33.41625,-102.1475,-19.968,-29.928001,-10.64,eccentric,8,3.0,55639.0,212623.0,112479.0,204508.0,127372.0
2026-04-14 18:03:10.038305,707073,1609507283682047,4883652057,-0.632448,0.749568,-0.423584,21.76125,-36.05,-94.7975,-19.968,-29.928001,-10.64,eccentric,8,3.0,55639.0,212623.0,112479.0,204508.0,127372.0
2026-04-14 18:03:10.068389,707084,1609507283691120,4883661244,-0.710528,0.882304,-0.550464,31.045,-38.33375,-87.6925,-19.656,-29.408,-10.344001,eccentric,8,3.0,48743.0,209012.0,102466.0,200635.0,116764.0
2026-04-14 18:03:10.070488,707085,1609507283705695,4883674113,-0.579744,1.081408,-0.3904,53.357502,-38.9375,-87.9725,-18.024,-30.232002,-12.728001,eccentric,8,3.0,48743.0,209012.0,102466.0,200635.0,116764.0
2026-04-14 18:03:10.073447,707086,1609507283714946,4883684907,-0.579744,1.081408,-0.3904,60.24375,-36.54,-87.1325,-18.024,-30.232002,-12.728001,eccentric,8,3.0,48743.0,209012.0,102466.0,200635.0,116764.0
2026-04-14 18:03:10.079699,707087,1609507283723992,4883693651,-0.579744,0.786656,-0.320128,50.81125,-32.85625,-83.69375,-18.024,-30.232002,-12.728001,eccentric,8,3.0,48743.0,209012.0,102466.0,200635.0,116764.0
2026-04-14 18:03:10.097129,707088,1609507283738525,4883708540,-0.603168,0.786656,-0.320128,34.41375,-31.61375,-80.22,-16.816,-30.688002,-11.096001,eccentric,8,3.0,48743.0,209012.0,102466.0,200635.0,116764.0
2026-04-14 18:03:10.101492,707089,1609507283747562,4883717239,-0.696864,0.817888,-0.450912,17.45625,-35.25375,-78.00625,-15.904,-30.648,-13.888001,eccentric,8,3.0,48743.0,209012.0,102466.0,200635.0,116764.0
2026-04-14 18:03:10.117889,707090,1609507283762059,4883732158,-0.696864,0.817888,-0.450912,26.97625,-35.34125,-73.33375,-15.904,-30.648,-13.888001,concentric,8,3.0,48743.0,209012.0,102466.0,200635.0,116764.0
2026-04-14 18:03:10.154447,707091,1609507283771084,4883740865,-0.612928,0.94672,-0.609024,47.985,-34.25625,-72.835,-15.008,-30.376001,-14.232,concentric,8,3.0,48743.0,209012.0,102466.0,200635.0,116764.0
2026-04-14 18:03:10.190622,707092,1609507283780048,4883749567,-0.612928,0.94672,-0.609024,50.81125,-34.326252,-72.1875,-15.008,-30.376001,-14.232,concentric,8,3.0,48743.0,209012.0,102466.0,200635.0,116764.0
2026-04-14 18:03:10.224299,707103,1609507283794613,4883764591,-0.681248,0.833504,-0.407968,42.65625,-34.55375,-69.78125,-15.120001,-30.296001,-14.256001,concentric,8,3.0,45732.0,202449.0,98006.0,194958.0,112009.0
2026-04-14 18:03:10.226577,707104,1609507283803553,4883773318,-0.681248,0.833504,-0.407968,30.65125,-35.55125,-65.8,-15.120001,-30.296001,-14.256001,concentric,8,3.0,45732.0,202449.0,98006.0,194958.0,112009.0
2026-04-14 18:03:10.229267,707105,1609507283818051,4883788190,-0.792512,0.747616,-0.55632,22.61,-37.12625,-63.035,-14.296001,-30.432001,-16.08,concentric,8,3.0,45732.0,202449.0,98006.0,194958.0,112009.0
2026-04-14 18:03:10.232107,707106,1609507283826990,4883796897,-0.610976,0.899872,-0.445056,29.54875,-35.98,-61.53,-11.72,-30.560001,-16.184,concentric,8,3.0,45732.0,202449.0,98006.0,194958.0,112009.0
2026-04-14 18:03:10.234614,707107,1609507283841513,4883811857,-0.610976,0.899872,-0.445056,46.03375,-34.5275,-63.603752,-11.72,-30.560001,-16.184,concentric,8,3.0,45732.0,202449.0,98006.0,194958.0,112009.0
2026-04-14 18:03:10.237120,707108,1609507283850525,4883820569,-0.593408,0.843264,-0.413824,42.28,-38.01875,-66.9725,-10.472,-30.632002,-16.696001,concentric,8,3.0,45732.0,202449.0,98006.0,194958.0,112009.0
2026-04-14 18:03:10.239634,707109,1609507283859671,4883829347,-0.593408,0.843264,-0.413824,29.8725,-42.665,-62.8425,-10.472,-30.632002,-16.696001,concentric,8,3.0,45732.0,202449.0,98006.0,194958.0,112009.0
2026-04-14 18:03:10.241899,707110,1609507283874204,4883844261,-0.76128,0.659776,-0.587552,19.95875,-46.29625,-57.82875,-10.240001,-30.704002,-17.400002,concentric,8,3.0,45732.0,202449.0,98006.0,194958.0,112009.0
2026-04-14 18:03:10.244619,707111,1609507283883174,4883852977,-0.76128,0.659776,-0.587552,17.75375,-47.4775,-53.2525,-10.240001,-30.704002,-17.400002,concentric,8,3.0,45732.0,202449.0,98006.0,194958.0,112009.0
2026-04-14 18:03:10.276714,707122,1609507283897865,4883868026,-0.694912,0.813984,-0.59536,23.23125,-46.89125,-51.56375,-9.232,-30.392002,-17.952002,concentric,8,3.0,43766.0,197035.0,94883.0,189960.0,108785.0
2026-04-14 18:03:10.279148,707123,1609507283906824,4883876775,-0.71248,0.886208,-0.36112,30.835001,-45.17625,-54.92375,-8.416,-30.392002,-18.224,concentric,8,3.0,43766.0,197035.0,94883.0,189960.0,108785.0
2026-04-14 18:03:10.284595,707124,1609507283915775,4883885571,-0.71248,0.886208,-0.36112,25.55875,-47.0575,-61.10125,-8.416,-30.392002,-18.224,concentric,8,3.0,43766.0,197035.0,94883.0,189960.0,108785.0
2026-04-14 18:03:10.286359,707125,1609507283930345,4883900620,-0.853024,0.628544,-0.589504,12.4425,-51.10875,-62.6675,-7.208,-30.792002,-18.400002,concentric,8,3.0,43766.0,197035.0,94883.0,189960.0,108785.0
2026-04-14 18:03:10.294289,707126,1609507283939271,4883909312,-0.853024,0.628544,-0.589504,2.96625,-54.3725,-61.24125,-7.208,-30.792002,-18.400002,concentric,8,3.0,43766.0,197035.0,94883.0,189960.0,108785.0
2026-04-14 18:03:10.307847,707127,1609507283953757,4883922145,-0.890112,0.571936,-0.423584,6.0725,-54.87125,-55.125,-6.336,-30.592001,-18.480001,concentric,8,3.0,43766.0,197035.0,94883.0,189960.0,108785.0
2026-04-14 18:03:10.319641,707128,1609507283962981,4883932953,-0.890112,0.571936,-0.423584,14.58625,-53.1125,-49.25375,-6.336,-30.592001,-18.480001,concentric,8,3.0,43766.0,197035.0,94883.0,189960.0,108785.0
2026-04-14 18:03:10.333161,707129,1609507283977498,4883947852,-0.798368,0.901824,-0.37088,24.85875,-48.6325,-47.62625,-5.84,-30.2,-18.224,concentric,8,3.0,43766.0,197035.0,94883.0,189960.0,108785.0
2026-04-14 18:03:10.370429,707140,1609507283986422,4883956732,-0.827648,0.763232,-0.411872,24.40375,-46.2175,-53.69,-5.480001,-29.952002,-16.736,concentric,8,3.0,44346.0,196391.0,95676.0,189739.0,109917.0
2026-04-14 18:03:10.371573,707141,1609507283995390,4883965452,-0.827648,0.763232,-0.411872,1.28625,-48.97375,-58.87,-5.480001,-29.952002,-16.736,concentric,8,3.0,44346.0,196391.0,95676.0,189739.0,109917.0
2026-04-14 18:03:10.374103,707142,1609507284010142,4883980416,-0.882304,0.382592,-0.542656,-19.075,-51.10875,-55.69375,-4.36,-30.168001,-18.032001,concentric,8,3.0,44346.0,196391.0,95676.0,189739.0,109917.0
2026-04-14 18:03:10.376508,707143,1609507284019259,4883989211,-0.882304,0.382592,-0.542656,-20.06375,-51.23125,-50.5225,-4.36,-30.168001,-18.032001,concentric,8,3.0,44346.0,196391.0,95676.0,189739.0,109917.0
2026-04-14 18:03:10.389486,707144,1609507284033772,4884004109,-0.96624,0.67344,-0.388448,-7.35,-47.6175,-42.25375,-4.096,-30.04,-18.12,concentric,8,3.0,44346.0,196391.0,95676.0,189739.0,109917.0
2026-04-14 18:03:10.398908,707145,1609507284042732,4884012787,-0.96624,0.67344,-0.388448,9.6775,-42.65625,-34.1775,-4.096,-30.04,-18.12,concentric,8,3.0,44346.0,196391.0,95676.0,189739.0,109917.0
2026-04-14 18:03:10.410546,707146,1609507284051750,4884021469,-0.921344,0.884256,-0.521184,17.15875,-41.58,-37.9225,-2.0,-30.184002,-19.320002,concentric,8,3.0,44346.0,196391.0,95676.0,189739.0,109917.0
2026-04-14 18:03:10.422102,707147,1609507284066259,4884036437,-0.812032,0.544608,-0.23424,1.0325,-43.9425,-45.3425,-2.0,-30.184002,-19.320002,concentric,8,3.0,44346.0,196391.0,95676.0,189739.0,109917.0
2026-04-14 18:03:10.431727,707148,1609507284075233,4884045150,-0.804224,0.544608,-0.23424,-23.07375,-46.41875,-45.66625,-1.32,-30.144001,-18.800001,concentric,8,3.0,44346.0,196391.0,95676.0,189739.0,109917.0
2026-04-14 18:03:10.477215,707159,1609507284090012,4884060120,-0.856928,0.353312,-0.421632,-31.63125,-44.03875,-42.875,-1.464,-30.096,-18.768002,concentric,8,3.0,47687.0,202507.0,99845.0,194339.0,114454.0
2026-04-14 18:03:10.477331,707160,1609507284099032,4884068919,-0.856928,0.353312,-0.421632,-21.5775,-36.05875,-34.48375,-1.464,-30.096,-18.768002,concentric,8,3.0,47687.0,202507.0,99845.0,194339.0,114454.0
2026-04-14 18:03:10.477544,707161,1609507284113599,4884083911,-0.940864,0.745664,-0.411872,-1.67125,-26.03125,-22.49625,-0.632,-30.408,-18.76,concentric,8,3.0,47687.0,202507.0,99845.0,194339.0,114454.0
2026-04-14 18:03:10.477622,707162,1609507284122534,4884092615,-0.940864,0.745664,-0.411872,10.12375,-20.01125,-19.215,-0.632,-30.408,-18.76,concentric,8,3.0,47687.0,202507.0,99845.0,194339.0,114454.0
2026-04-14 18:03:10.486600,707163,1609507284131684,4884101445,-0.911584,0.765184,-0.325984,2.24875,-20.79,-22.6975,-0.4,-30.624,-18.792002,concentric,8,3.0,47687.0,202507.0,99845.0,194339.0,114454.0
2026-04-14 18:03:10.514554,707164,1609507284146213,4884116395,-0.911584,0.765184,-0.325984,-15.12875,-25.0425,-27.685,-0.4,-30.624,-18.792002,concentric,8,3.0,47687.0,202507.0,99845.0,194339.0,114454.0
2026-04-14 18:03:10.539722,707165,1609507284155131,4884125077,-0.85888,0.417728,-0.279136,-28.14,-28.09625,-28.665,0.424,-31.000002,-18.056002,concentric,8,3.0,47687.0,202507.0,99845.0,194339.0,114454.0
2026-04-14 18:03:10.559746,707166,1609507284169771,4884139983,-0.93696,0.599264,-0.30256,-23.94875,-25.2525,-24.9375,-0.488,-30.304,-17.792002,concentric,8,3.0,47687.0,202507.0,99845.0,194339.0,114454.0
2026-04-14 18:03:10.561542,707167,1609507284178703,4884148780,-0.93696,0.599264,-0.30256,-7.6125,-18.38375,-18.7425,-0.488,-30.304,-17.792002,concentric,8,3.0,47687.0,202507.0,99845.0,194339.0,114454.0
2026-04-14 18:03:10.591765,707178,1609507284187745,4884157630,-0.983808,0.813984,-0.532896,6.86,-13.3175,-14.95375,-0.304,-29.784002,-19.296001,concentric,8,3.0,45673.0,196308.0,97388.0,189305.0,111884.0
2026-04-14 18:03:10.594578,707179,1609507284202477,4884172561,-0.983808,0.813984,-0.532896,2.98375,-13.475,-20.65875,-0.304,-29.784002,-19.296001,concentric,8,3.0,45673.0,196308.0,97388.0,189305.0,111884.0
2026-04-14 18:03:10.597101,707180,1609507284211405,4884181258,-0.911584,0.552416,-0.466528,-14.2975,-15.8025,-24.84125,0.72,-30.616001,-18.312,concentric,8,3.0,45673.0,196308.0,97388.0,189305.0,111884.0
2026-04-14 18:03:10.599529,707181,1609507284226036,4884196185,-0.911584,0.552416,-0.466528,-25.2525,-16.79125,-24.815,0.72,-30.616001,-18.312,concentric,8,3.0,45673.0,196308.0,97388.0,189305.0,111884.0
2026-04-14 18:03:10.602091,707182,1609507284235006,4884204935,-0.952576,0.437248,-0.288896,-17.07125,-13.545,-20.685,1.224,-30.456001,-19.496,concentric,8,3.0,45673.0,196308.0,97388.0,189305.0,111884.0
2026-04-14 18:03:10.604513,707183,1609507284249512,4884219906,-1.042368,0.942816,-0.540704,1.04125,-7.79625,-10.33375,1.264,-30.240002,-18.640001,concentric,8,3.0,45673.0,196308.0,97388.0,189305.0,111884.0
2026-04-14 18:03:10.614608,707184,1609507284258499,4884228657,-1.042368,0.942816,-0.540704,13.685,-5.62625,-5.3375,1.264,-30.240002,-18.640001,concentric,8,3.0,45673.0,196308.0,97388.0,189305.0,111884.0
2026-04-14 18:03:10.624335,707185,1609507284267428,4884237343,-1.042368,0.710528,-0.452864,11.75125,-9.7825,-12.32,1.264,-30.240002,-18.640001,concentric,8,3.0,45673.0,196308.0,97388.0,189305.0,111884.0
2026-04-14 18:03:10.637134,707186,1609507284282050,4884252220,-0.856928,0.710528,-0.452864,-8.505,-14.86625,-18.76,2.016,-30.848001,-20.096,concentric,8,3.0,45673.0,196308.0,97388.0,189305.0,111884.0
2026-04-14 18:03:10.673995,707198,1609507284291701,4884260964,-0.8296,0.37088,-0.304512,-26.32875,-12.88875,-12.73125,0.464,-30.44,-18.416,concentric,8,3.0,48840.0,202941.0,101404.0,194957.0,116293.0
2026-04-14 18:03:10.676950,707199,1609507284300766,4884269709,-0.8296,0.37088,-0.304512,-21.7875,-4.095,-3.29,0.464,-30.44,-18.416,concentric,8,3.0,48840.0,202941.0,101404.0,194957.0,116293.0
2026-04-14 18:03:10.679444,707200,1609507284315310,4884284774,-0.91744,0.67344,-0.267424,-1.9075,8.4875,10.89375,1.512,-30.912,-19.088001,concentric,8,3.0,48840.0,202941.0,101404.0,194957.0,116293.0
2026-04-14 18:03:10.681892,707201,1609507284324247,4884293471,-0.91744,0.67344,-0.267424,11.5325,17.68375,20.1075,1.512,-30.912,-19.088001,concentric,8,3.0,48840.0,202941.0,101404.0,194957.0,116293.0
2026-04-14 18:03:10.694608,707202,1609507284338747,4884308395,-0.938912,0.95648,-0.372832,13.877501,20.772501,18.08625,0.696,-30.312002,-18.504002,concentric,8,3.0,48840.0,202941.0,101404.0,194957.0,116293.0
2026-04-14 18:03:10.702095,707203,1609507284347705,4884317110,-0.938912,0.95648,-0.482144,-0.0875,15.0675,10.4825,0.696,-30.312002,-18.504002,concentric,8,3.0,48840.0,202941.0,101404.0,194957.0,116293.0
2026-04-14 18:03:10.716918,707204,1609507284362308,4884332122,-0.880352,0.51728,-0.482144,-23.80875,6.67625,11.935,0.368,-30.736002,-19.104,concentric,8,3.0,48840.0,202941.0,101404.0,194957.0,116293.0
2026-04-14 18:03:10.728363,707205,1609507284371441,4884340822,-0.921344,0.491904,-0.279136,-26.897501,5.075,18.40125,-0.552,-30.736002,-17.336,concentric,8,3.0,48840.0,202941.0,101404.0,194957.0,116293.0
2026-04-14 18:03:10.735694,707206,1609507284380500,4884349485,-0.921344,0.491904,-0.279136,-8.51375,11.90875,27.055,-0.552,-30.736002,-17.336,concentric,8,3.0,48840.0,202941.0,101404.0,194957.0,116293.0
2026-04-14 18:03:10.767761,707217,1609507284395162,4884364544,-0.99552,1.030656,-0.50752,11.2875,19.4425,33.48625,-1.384,-31.016,-17.608002,concentric,8,3.0,45550.0,194692.0,96913.0,188160.0,111695.0
2026-04-14 18:03:10.770914,707218,1609507284404133,4884373254,-0.99552,1.030656,-0.50752,11.0775,19.9675,28.9975,-1.384,-31.016,-17.608002,concentric,8,3.0,45550.0,194692.0,96913.0,188160.0,111695.0
2026-04-14 18:03:10.773426,707219,1609507284418653,4884388230,-0.892064,0.759328,-0.472384,-8.88125,14.46375,20.4925,-1.432,-31.344002,-17.944,concentric,8,3.0,45550.0,194692.0,96913.0,188160.0,111695.0
2026-04-14 18:03:10.782118,707220,1609507284427582,4884396958,-0.892064,0.759328,-0.472384,-31.7625,10.92875,20.4225,-1.432,-31.344002,-17.944,concentric,8,3.0,45550.0,194692.0,96913.0,188160.0,111695.0
2026-04-14 18:03:10.792173,707221,1609507284436520,4884405644,-0.870592,0.372832,-0.31232,-37.07375,13.195,29.067501,-1.288,-31.312002,-17.536001,concentric,8,3.0,45550.0,194692.0,96913.0,188160.0,111695.0
2026-04-14 18:03:10.834173,707222,1609507284451084,4884420551,-0.911584,0.962336,-0.417728,-15.07625,21.93625,42.30625,-2.208,-31.240002,-16.768002,concentric,8,3.0,45550.0,194692.0,96913.0,188160.0,111695.0
2026-04-14 18:03:10.834539,707223,1609507284460072,4884429307,-0.911584,0.962336,-0.417728,3.43,30.82625,48.93875,-2.208,-31.240002,-16.768002,concentric,8,3.0,45550.0,194692.0,96913.0,188160.0,111695.0
2026-04-14 18:03:10.836536,707224,1609507284474594,4884444207,-0.808128,1.011136,-0.427488,3.745,33.76625,43.05875,-4.232,-30.976002,-15.208001,concentric,8,3.0,45550.0,194692.0,96913.0,188160.0,111695.0
2026-04-14 18:03:10.841403,707225,1609507284483557,4884452903,-0.808128,1.011136,-0.427488,-22.9075,26.03125,29.505001,-4.232,-30.976002,-15.208001,concentric,8,3.0,45550.0,194692.0,96913.0,188160.0,111695.0
2026-04-14 18:03:10.916775,707236,1609507284498203,4884467925,-0.79056,0.3904,-0.347456,-56.9975,19.3025,32.138752,-5.184,-31.528002,-15.672001,concentric,8,3.0,48459.0,198100.0,99674.0,190579.0,115246.0
2026-04-14 18:03:10.919581,707237,1609507284507183,4884476632,-0.79056,0.3904,-0.347456,-61.3375,19.6175,44.03,-5.184,-31.528002,-15.672001,concentric,8,3.0,48459.0,198100.0,99674.0,190579.0,115246.0
2026-04-14 18:03:10.921779,707238,1609507284516089,4884485343,-0.778848,0.67344,-0.251808,-35.4025,30.817501,57.076252,-6.104,-31.912,-15.040001,concentric,8,3.0,48459.0,198100.0,99674.0,190579.0,115246.0
2026-04-14 18:03:10.924231,707239,1609507284530589,4884500246,-0.862784,1.177056,-0.583648,-9.75625,49.21,65.23125,-6.672,-32.04,-14.576001,concentric,8,3.0,48459.0,198100.0,99674.0,190579.0,115246.0
2026-04-14 18:03:10.926777,707240,1609507284539531,4884508934,-0.862784,1.177056,-0.583648,-18.8825,61.10125,57.0675,-6.672,-32.04,-14.576001,concentric,8,3.0,48459.0,198100.0,99674.0,190579.0,115246.0
2026-04-14 18:03:10.929266,707241,1609507284554057,4884523869,-0.93696,0.776896,-0.41968,-60.33125,51.30125,42.84,-7.288001,-32.08,-13.392,concentric,8,3.0,48459.0,198100.0,99674.0,190579.0,115246.0
2026-04-14 18:03:10.931800,707242,1609507284563086,4884532561,-0.93696,0.776896,-0.41968,-88.68125,34.02,33.81875,-7.288001,-32.08,-13.392,concentric,8,3.0,48459.0,198100.0,99674.0,190579.0,115246.0
2026-04-14 18:03:10.934344,707243,1609507284577578,4884547511,-0.792512,0.382592,-0.337696,-94.15875,22.16375,37.1875,-8.336,-32.480003,-13.080001,concentric,8,3.0,48459.0,198100.0,99674.0,190579.0,115246.0
2026-04-14 18:03:10.944088,707244,1609507284586516,4884556228,-0.792512,0.382592,-0.337696,-69.34375,22.82875,55.53625,-8.336,-32.480003,-13.080001,concentric,8,3.0,48459.0,198100.0,99674.0,190579.0,115246.0
2026-04-14 18:03:10.970552,707255,1609507284595629,4884565172,-0.85888,0.931104,-0.33184,-40.39,30.31,72.16125,-9.176001,-32.928,-13.024,concentric,8,3.0,46089.0,193231.0,95480.0,185122.0,110998.0
2026-04-14 18:03:10.973027,707256,1609507284610195,4884580160,-0.911584,1.192672,-0.386496,-36.155,44.1875,80.246254,-10.408001,-32.648003,-10.856001,concentric,8,3.0,46089.0,193231.0,95480.0,185122.0,110998.0
2026-04-14 18:03:10.975517,707257,1609507284619323,4884588933,-0.911584,1.192672,-0.386496,-51.73,53.61125,72.371254,-10.408001,-32.648003,-10.856001,concentric,8,3.0,46089.0,193231.0,95480.0,185122.0,110998.0
2026-04-14 18:03:10.987901,707258,1609507284633999,4884603863,-0.903776,0.50752,-0.314272,-85.40875,48.86875,60.71625,-11.000001,-33.344,-10.488001,concentric,8,3.0,46089.0,193231.0,95480.0,185122.0,110998.0
2026-04-14 18:03:10.998040,707259,1609507284642965,4884612556,-0.903776,0.50752,-0.314272,-108.40375,41.01125,61.99375,-11.000001,-33.344,-10.488001,concentric,8,3.0,46089.0,193231.0,95480.0,185122.0,110998.0
2026-04-14 18:03:11.007995,707260,1609507284651910,4884621248,-0.909632,0.462624,-0.474336,-103.7925,34.09,76.64125,-13.080001,-32.496002,-8.352,concentric,8,3.0,46089.0,193231.0,95480.0,185122.0,110998.0
2026-04-14 18:03:11.021698,707261,1609507284666388,4884636156,-0.909632,0.462624,-0.474336,-74.165,32.52375,92.58375,-13.080001,-32.496002,-8.352,concentric,8,3.0,46089.0,193231.0,95480.0,185122.0,110998.0
2026-04-14 18:03:11.029129,707262,1609507284675355,4884644862,-0.665632,1.028704,-0.193248,-36.32125,46.05125,97.86875,-13.328001,-32.848003,-9.120001,concentric,8,3.0,46089.0,193231.0,95480.0,185122.0,110998.0
2026-04-14 18:03:11.045408,707263,1609507284689854,4884659799,-0.665632,1.028704,-0.314272,-34.755,57.61875,88.795,-13.328001,-32.848003,-9.120001,concentric,8,3.0,46089.0,193231.0,95480.0,185122.0,110998.0
2026-04-14 18:03:11.073020,707274,1609507284698832,4884668555,-0.784704,0.81984,-0.314272,-75.81,53.89125,86.52875,-14.608001,-32.920002,-7.8,concentric,8,3.0,42416.0,180450.0,90837.0,174845.0,106036.0
2026-04-14 18:03:11.075541,707275,1609507284713451,4884683562,-0.782752,0.421632,-0.244,-101.955,48.46625,97.57125,-17.248001,-32.152,-5.616,concentric,8,3.0,42416.0,180450.0,90837.0,174845.0,106036.0
2026-04-14 18:03:11.078394,707276,1609507284722395,4884692254,-0.782752,0.421632,-0.244,-102.777504,38.3075,108.29,-17.248001,-32.152,-5.616,concentric,8,3.0,42416.0,180450.0,90837.0,174845.0,106036.0
2026-04-14 18:03:11.087099,707277,1609507284731421,4884700937,-0.620736,0.86864,-0.347456,-74.6025,40.87125,115.45625,-18.696001,-31.352001,-3.576,concentric,8,3.0,42416.0,180450.0,90837.0,174845.0,106036.0
2026-04-14 18:03:11.100450,707278,1609507284745977,4884715895,-0.620736,0.86864,-0.347456,-30.835001,58.1175,113.63625,-18.696001,-31.352001,-3.576,concentric,8,3.0,42416.0,180450.0,90837.0,174845.0,106036.0
2026-04-14 18:03:11.110859,707279,1609507284754904,4884724600,-0.577792,1.050176,-0.304512,-26.97625,64.30375,103.31125,-19.368,-31.152002,-4.128,concentric,8,3.0,42416.0,180450.0,90837.0,174845.0,106036.0
2026-04-14 18:03:11.126910,707280,1609507284769406,4884739509,-0.577792,1.050176,-0.304512,-44.72125,59.47375,97.99125,-19.368,-31.152002,-4.128,concentric,8,3.0,42416.0,180450.0,90837.0,174845.0,106036.0
2026-04-14 18:03:11.135290,707281,1609507284778313,4884748177,-0.630496,0.6832,-0.374784,-65.24,48.5275,102.0775,-21.376001,-30.632002,-5.768,concentric,8,3.0,42416.0,180450.0,90837.0,174845.0,106036.0
2026-04-14 18:03:11.170844,707292,1609507284793005,4884763364,-0.511424,0.708576,-0.121024,-76.57125,34.4925,113.65375,-21.888,-29.984001,-3.984,concentric,8,3.0,47566.0,183041.0,97278.0,176991.0,113473.0
2026-04-14 18:03:11.172949,707293,1609507284802096,4884772093,-0.511424,0.708576,-0.121024,-62.1775,25.85625,124.705,-21.888,-29.984001,-3.984,concentric,8,3.0,47566.0,183041.0,97278.0,176991.0,113473.0
2026-04-14 18:03:11.175861,707294,1609507284811062,4884780836,-0.511424,1.08336,-0.296704,-33.32,33.9325,126.27125,-21.888,-29.984001,-2.304,concentric,8,3.0,47566.0,183041.0,97278.0,176991.0,113473.0
2026-04-14 18:03:11.180388,707295,1609507284825690,4884795956,-0.501664,1.08336,-0.296704,-10.3775,57.2075,119.7,-23.008001,-29.112001,-2.304,concentric,8,3.0,47566.0,183041.0,97278.0,176991.0,113473.0
2026-04-14 18:03:11.189623,707296,1609507284834745,4884804649,-0.669536,0.970144,-0.443104,-18.69,72.5025,107.7475,-24.496,-28.112001,-2.176,concentric,8,3.0,47566.0,183041.0,97278.0,176991.0,113473.0
2026-04-14 18:03:11.205824,707297,1609507284849194,4884819541,-0.669536,0.970144,-0.443104,-44.5375,67.34875,102.57625,-24.496,-28.112001,-2.176,concentric,8,3.0,47566.0,183041.0,97278.0,176991.0,113473.0
2026-04-14 18:03:11.214221,707298,1609507284858106,4884828215,-0.480192,0.59536,-0.290848,-59.955,51.65125,106.8025,-25.832,-27.384,-0.056,concentric,8,3.0,47566.0,183041.0,97278.0,176991.0,113473.0
2026-04-14 18:03:11.223347,707299,1609507284867028,4884836964,-0.480192,0.59536,-0.290848,-55.23875,34.3,114.42375,-25.832,-27.384,-0.056,concentric,8,3.0,47566.0,183041.0,97278.0,176991.0,113473.0
