pc_time,serial_num,sensor_ts,host_ts,ax,ay,az,gx,gy,gz,mx,my,mz,phase,rpe,weight_kg,ppg_a,ppg_b,ppg_c,ppg_d,ppg_e,ppg_f,ppg_g,ppg_h,ppg_i,ppg_j
2026-05-06 16:21:46.342108,766477,1609506769728379,4369640616,-0.970144,0.327936,-0.603168,-37.31875,-40.03125,-17.465,33.056,6.944,-98.44,concentric,4,5.0,25269.0,29673.0,103001.0,73458.0,24760.0,39035.0,43678.0,41643.0,17092.0,12906.0
2026-05-06 16:21:46.359829,766478,1609506769737311,4369649335,-0.970144,0.327936,-0.603168,-29.86375,-32.34,-12.6875,33.056,6.944,-98.44,concentric,4,5.0,25269.0,29673.0,103001.0,73458.0,24760.0,39035.0,43678.0,41643.0,17092.0,12906.0
2026-05-06 16:21:46.362429,766479,1609506769746212,4369658085,-0.964288,0.427488,-0.597312,-24.52625,-24.325,-8.60125,33.168003,6.392,-98.32001,concentric,4,5.0,25269.0,29673.0,103001.0,73458.0,24760.0,39035.0,43678.0,41643.0,17092.0,12906.0
2026-05-06 16:21:46.364845,766480,1609506769760750,4369672990,-0.964288,0.427488,-0.597312,-25.0075,-19.0925,-6.055,33.168003,6.392,-98.32001,concentric,4,5.0,25269.0,29673.0,103001.0,73458.0,24760.0,39035.0,43678.0,41643.0,17092.0,12906.0
2026-05-06 16:21:46.367397,766481,1609506769769719,4369681691,-0.91744,0.433344,-0.626592,-28.945,-14.7875,-3.99,33.192,5.856,-98.456,concentric,4,5.0,25269.0,29673.0,103001.0,73458.0,24760.0,39035.0,43678.0,41643.0,17092.0,12906.0
2026-05-06 16:21:46.400125,766492,1609506769784295,4369696637,-0.929152,0.310368,-0.607072,-32.27,-9.9925,-2.65125,33.352,5.704001,-100.408005,concentric,4,5.0,25029.0,29243.0,101664.0,73815.0,24524.0,38639.0,43060.0,41862.0,16923.0,12704.0
2026-05-06 16:21:46.402629,766493,1609506769793230,4369705486,-0.929152,0.310368,-0.607072,-31.77125,-4.2175,-0.25375,33.352,5.704001,-100.408005,concentric,4,5.0,25029.0,29243.0,101664.0,73815.0,24524.0,38639.0,43060.0,41862.0,16923.0,12704.0
2026-05-06 16:21:46.405136,766494,1609506769802255,4369714224,-0.929152,0.310368,-0.607072,-27.64125,2.49375,4.06875,33.352,5.704001,-100.408005,concentric,4,5.0,25029.0,29243.0,101664.0,73815.0,24524.0,38639.0,43060.0,41862.0,16923.0,12704.0
2026-05-06 16:21:46.407631,766495,1609506769816752,4369729270,-0.93696,0.349408,-0.540704,-22.3825,9.765,9.03,33.184002,4.872,-97.984,concentric,4,5.0,25029.0,29243.0,101664.0,73815.0,24524.0,38639.0,43060.0,41862.0,16923.0,12704.0
2026-05-06 16:21:46.410098,766496,1609506769825768,4369738021,-0.974048,0.474336,-0.618784,-20.44,15.88125,13.29125,32.776,4.816001,-99.200005,concentric,4,5.0,25029.0,29243.0,101664.0,73815.0,24524.0,38639.0,43060.0,41862.0,16923.0,12704.0
2026-05-06 16:21:46.412526,766497,1609506769840491,4369752956,-0.974048,0.474336,-0.618784,-21.84875,20.86,15.855001,32.776,4.816001,-99.200005,concentric,4,5.0,25029.0,29243.0,101664.0,73815.0,24524.0,38639.0,43060.0,41862.0,16923.0,12704.0
2026-05-06 16:21:46.426194,766498,1609506769849453,4369761709,-0.950624,0.431392,-0.616832,-25.24375,24.675,16.6425,32.352,3.936,-99.52801,concentric,4,5.0,25029.0,29243.0,101664.0,73815.0,24524.0,38639.0,43060.0,41862.0,16923.0,12704.0
2026-05-06 16:21:46.441220,766499,1609506769863985,4369776674,-0.950624,0.3904,-0.630496,-25.235,28.20125,18.795,32.352,3.936,-101.576004,concentric,4,5.0,25029.0,29243.0,101664.0,73815.0,24524.0,38639.0,43060.0,41862.0,16923.0,12704.0
2026-05-06 16:21:46.447508,766500,1609506769872962,4369785375,-0.9272,0.3904,-0.630496,-17.675,34.3525,21.74375,31.528002,3.496,-101.608,concentric,4,5.0,25029.0,29243.0,101664.0,73815.0,24524.0,38639.0,43060.0,41862.0,16923.0,12704.0
2026-05-06 16:21:46.474917,766511,1609506769882064,4369794222,-0.9272,0.3904,-0.630496,-7.5075,41.30875,26.27625,31.528002,3.496,-101.608,concentric,4,5.0,24940.0,29222.0,100853.0,73712.0,24456.0,38680.0,42709.0,41789.0,16889.0,12696.0
2026-05-06 16:21:46.477514,766512,1609506769896649,4369809246,-0.9272,0.441152,-0.626592,-0.875,47.71375,29.435,30.856,3.416,-100.232,concentric,4,5.0,24940.0,29222.0,100853.0,73712.0,24456.0,38680.0,42709.0,41789.0,16889.0,12696.0
2026-05-06 16:21:46.479884,766513,1609506769905646,4369817949,-0.940864,0.42944,-0.62464,0.1925,52.5525,31.01875,30.072,3.128,-100.872,concentric,4,5.0,24940.0,29222.0,100853.0,73712.0,24456.0,38680.0,42709.0,41789.0,16889.0,12696.0
2026-05-06 16:21:46.493671,766514,1609506769920331,4369832981,-0.940864,0.42944,-0.62464,-2.7825,56.21,32.585,30.072,3.128,-100.872,concentric,4,5.0,24940.0,29222.0,100853.0,73712.0,24456.0,38680.0,42709.0,41789.0,16889.0,12696.0
2026-05-06 16:21:46.502737,766515,1609506769929257,4369841722,-0.935008,0.40992,-0.562176,-7.1225,60.90875,34.2475,29.216002,1.904,-100.76,concentric,4,5.0,24940.0,29222.0,100853.0,73712.0,24456.0,38680.0,42709.0,41789.0,16889.0,12696.0
2026-05-06 16:21:46.511367,766516,1609506769938251,4369850403,-0.935008,0.40992,-0.562176,-5.7225,66.2025,37.37125,29.216002,1.904,-100.76,concentric,4,5.0,24940.0,29222.0,100853.0,73712.0,24456.0,38680.0,42709.0,41789.0,16889.0,12696.0
2026-05-06 16:21:46.525074,766517,1609506769952865,4369865363,-0.935008,0.40992,-0.579744,0.2975,70.8575,40.27625,27.880001,2.536,-102.064,concentric,4,5.0,24940.0,29222.0,100853.0,73712.0,24456.0,38680.0,42709.0,41789.0,16889.0,12696.0
2026-05-06 16:21:46.534974,766518,1609506769961942,4369874083,-0.935008,0.40992,-0.579744,4.66375,75.39,43.12875,27.880001,2.536,-102.064,concentric,4,5.0,24940.0,29222.0,100853.0,73712.0,24456.0,38680.0,42709.0,41789.0,16889.0,12696.0
2026-05-06 16:21:46.583805,766529,1609506769976506,4369889191,-0.938912,0.47824,-0.659776,8.4875,80.3075,46.165,26.928001,1.544,-102.184006,concentric,4,5.0,25223.0,29604.0,100409.0,73284.0,24736.0,39067.0,42617.0,41524.0,17078.0,12894.0
2026-05-06 16:21:46.586274,766530,1609506769985772,4369897964,-0.964288,0.482144,-0.679296,14.48125,84.77,48.755,25.096,1.56,-103.28001,concentric,4,5.0,25223.0,29604.0,100409.0,73284.0,24736.0,39067.0,42617.0,41524.0,17078.0,12894.0
2026-05-06 16:21:46.588793,766531,1609506769994943,4369906893,-0.964288,0.482144,-0.679296,16.03,88.83875,51.14375,25.096,1.56,-103.28001,concentric,4,5.0,25223.0,29604.0,100409.0,73284.0,24736.0,39067.0,42617.0,41524.0,17078.0,12894.0
2026-05-06 16:21:46.593785,766532,1609506770009472,4369921891,-0.938912,0.433344,-0.593408,18.6025,93.73,53.41,23.856,1.352,-103.328,concentric,4,5.0,25223.0,29604.0,100409.0,73284.0,24736.0,39067.0,42617.0,41524.0,17078.0,12894.0
2026-05-06 16:21:46.596304,766533,1609506770018437,4369930594,-0.938912,0.433344,-0.593408,20.62375,98.60375,55.4225,23.856,1.352,-103.328,concentric,4,5.0,25223.0,29604.0,100409.0,73284.0,24736.0,39067.0,42617.0,41524.0,17078.0,12894.0
2026-05-06 16:21:46.605143,766534,1609506770033030,4369945535,-0.933056,0.464576,-0.677344,22.47875,103.39875,57.916252,21.928001,1.352,-103.672005,concentric,4,5.0,25223.0,29604.0,100409.0,73284.0,24736.0,39067.0,42617.0,41524.0,17078.0,12894.0
2026-05-06 16:21:46.618979,766535,1609506770042081,4369954256,-0.933056,0.464576,-0.677344,27.2125,108.1675,59.605,21.928001,1.352,-103.672005,concentric,4,5.0,25223.0,29604.0,100409.0,73284.0,24736.0,39067.0,42617.0,41524.0,17078.0,12894.0
2026-05-06 16:21:46.647307,766536,1609506770056587,4369969150,-0.903776,0.513376,-0.739808,32.865,114.68625,62.5275,20.0,1.624,-104.216,concentric,4,5.0,25223.0,29604.0,100409.0,73284.0,24736.0,39067.0,42617.0,41524.0,17078.0,12894.0
2026-05-06 16:21:46.649073,766537,1609506770065500,4369977855,-0.903776,0.49776,-0.728096,35.79625,121.21375,63.14,20.0,1.624,-106.26401,concentric,4,5.0,25223.0,29604.0,100409.0,73284.0,24736.0,39067.0,42617.0,41524.0,17078.0,12894.0
2026-05-06 16:21:46.651290,766538,1609506770074459,4369986581,-0.894016,0.49776,-0.728096,31.63125,126.175,64.058754,17.800001,1.84,-104.68001,concentric,4,5.0,25223.0,29604.0,100409.0,73284.0,24736.0,39067.0,42617.0,41524.0,17078.0,12894.0
2026-05-06 16:21:46.739775,766549,1609506770089027,4370001676,-0.866688,0.501664,-0.7808,28.9625,129.5175,64.68875,15.264001,0.912,-103.58401,concentric,4,5.0,25240.0,29559.0,101366.0,73158.0,24737.0,38934.0,43028.0,41439.0,17074.0,12849.0
2026-05-06 16:21:46.742271,766550,1609506770097939,4370010424,-0.866688,0.501664,-0.7808,29.96875,133.175,65.625,15.264001,0.912,-103.58401,concentric,4,5.0,25240.0,29559.0,101366.0,73158.0,24737.0,38934.0,43028.0,41439.0,17074.0,12849.0
2026-05-06 16:21:46.745079,766551,1609506770112432,4370023302,-0.813984,0.505568,-0.755424,36.77625,138.25,68.495,13.168,2.352,-105.41601,concentric,4,5.0,25240.0,29559.0,101366.0,73158.0,24737.0,38934.0,43028.0,41439.0,17074.0,12849.0
2026-05-06 16:21:46.747533,766552,1609506770121720,4370034059,-0.813984,0.505568,-0.755424,42.7175,143.7975,69.1425,13.168,2.352,-105.41601,concentric,4,5.0,25240.0,29559.0,101366.0,73158.0,24737.0,38934.0,43028.0,41439.0,17074.0,12849.0
2026-05-06 16:21:46.750029,766553,1609506770130840,4370042910,-0.804224,0.544608,-0.841312,36.49625,146.195,69.90375,10.592001,2.968,-105.37601,concentric,4,5.0,25240.0,29559.0,101366.0,73158.0,24737.0,38934.0,43028.0,41439.0,17074.0,12849.0
2026-05-06 16:21:46.752588,766554,1609506770145500,4370057919,-0.804224,0.544608,-0.841312,36.5225,148.8375,68.94125,10.592001,2.968,-105.37601,concentric,4,5.0,25240.0,29559.0,101366.0,73158.0,24737.0,38934.0,43028.0,41439.0,17074.0,12849.0
2026-05-06 16:21:46.758846,766555,1609506770154451,4370066628,-0.77104,0.550464,-0.901824,41.0025,153.23875,67.69875,8.192,3.44,-105.52801,concentric,4,5.0,25240.0,29559.0,101366.0,73158.0,24737.0,38934.0,43028.0,41439.0,17074.0,12849.0
2026-05-06 16:21:46.761388,766556,1609506770169004,4370081543,-0.657824,0.476288,-0.931104,41.2125,157.255,67.9875,5.64,4.2,-105.200005,concentric,4,5.0,25240.0,29559.0,101366.0,73158.0,24737.0,38934.0,43028.0,41439.0,17074.0,12849.0
2026-05-06 16:21:46.791451,766567,1609506770177952,4370090506,-0.657824,0.476288,-0.931104,38.64875,161.0525,68.04875,5.64,4.2,-105.200005,concentric,4,5.0,24717.0,28905.0,101911.0,72845.0,24222.0,38188.0,43151.0,41303.0,16759.0,12519.0
2026-05-06 16:21:46.793820,766568,1609506770192518,4370103490,-0.589504,0.503616,-0.901824,30.625,160.9125,67.19125,2.68,4.584,-104.560005,concentric,4,5.0,24717.0,28905.0,101911.0,72845.0,24222.0,38188.0,43151.0,41303.0,16759.0,12519.0
2026-05-06 16:21:46.798968,766569,1609506770202100,4370114336,-0.589504,0.503616,-0.901824,29.61,160.86874,66.00125,2.68,4.584,-104.560005,concentric,4,5.0,24717.0,28905.0,101911.0,72845.0,24222.0,38188.0,43151.0,41303.0,16759.0,12519.0
2026-05-06 16:21:46.801478,766570,1609506770211057,4370123118,-0.540704,0.523136,-0.968192,32.6375,160.67625,65.86125,0.144,1.656,-102.44,concentric,4,5.0,24717.0,28905.0,101911.0,72845.0,24222.0,38188.0,43151.0,41303.0,16759.0,12519.0
2026-05-06 16:21:46.803975,766571,1609506770225716,4370138070,-0.540704,0.523136,-0.968192,33.232502,159.25,65.94,0.144,1.656,-102.44,concentric,4,5.0,24717.0,28905.0,101911.0,72845.0,24222.0,38188.0,43151.0,41303.0,16759.0,12519.0
2026-05-06 16:21:46.807711,766572,1609506770234673,4370146782,-0.484096,0.49776,-0.935008,38.05375,158.9875,66.0625,-2.176,3.888,-103.47201,concentric,4,5.0,24717.0,28905.0,101911.0,72845.0,24222.0,38188.0,43151.0,41303.0,16759.0,12519.0
2026-05-06 16:21:46.821474,766573,1609506770249178,4370161812,-0.472384,0.450912,-0.899872,42.95375,160.475,66.15,-4.544,6.480001,-103.05601,concentric,4,5.0,24717.0,28905.0,101911.0,72845.0,24222.0,38188.0,43151.0,41303.0,16759.0,12519.0
2026-05-06 16:21:46.832526,766574,1609506770258087,4370170521,-0.472384,0.450912,-0.899872,42.3325,161.2625,65.91375,-4.544,6.480001,-103.05601,concentric,4,5.0,24717.0,28905.0,101911.0,72845.0,24222.0,38188.0,43151.0,41303.0,16759.0,12519.0
2026-05-06 16:21:46.841138,766575,1609506770267020,4370179298,-0.472384,0.489952,-0.925248,40.5475,162.54,63.8925,-4.544,6.480001,-103.05601,concentric,4,5.0,24717.0,28905.0,101911.0,72845.0,24222.0,38188.0,43151.0,41303.0,16759.0,12519.0
2026-05-06 16:21:46.886368,766586,1609506770282050,4370194277,-0.407968,0.489952,-0.925248,34.85125,164.22,62.50125,-6.8,5.528,-99.552,concentric,4,5.0,24228.0,28632.0,102508.0,72011.0,23726.0,37811.0,43344.0,40858.0,16442.0,12370.0
2026-05-06 16:21:46.888912,766587,1609506770291435,4370203155,-0.366976,0.521184,-1.020896,24.08875,162.9425,59.15875,-9.304001,5.976,-100.248,concentric,4,5.0,24228.0,28632.0,102508.0,72011.0,23726.0,37811.0,43344.0,40858.0,16442.0,12370.0
2026-05-06 16:21:46.891374,766588,1609506770300459,4370212018,-0.366976,0.521184,-1.020896,19.845,161.8575,57.4,-9.304001,5.976,-100.248,concentric,4,5.0,24228.0,28632.0,102508.0,72011.0,23726.0,37811.0,43344.0,40858.0,16442.0,12370.0
2026-05-06 16:21:46.896515,766589,1609506770315039,4370226968,-0.288896,0.445056,-0.929152,29.8375,164.115,56.2975,-10.456,8.592,-100.840004,concentric,4,5.0,24228.0,28632.0,102508.0,72011.0,23726.0,37811.0,43344.0,40858.0,16442.0,12370.0
2026-05-06 16:21:46.898992,766590,1609506770324150,4370235669,-0.288896,0.445056,-0.929152,28.665,164.5525,55.04625,-10.456,8.592,-100.840004,concentric,4,5.0,24228.0,28632.0,102508.0,72011.0,23726.0,37811.0,43344.0,40858.0,16442.0,12370.0
2026-05-06 16:21:46.912692,766591,1609506770338690,4370250670,-0.327936,0.452864,-0.958432,24.325,163.52,52.45625,-13.112,9.648001,-99.62401,concentric,4,5.0,24228.0,28632.0,102508.0,72011.0,23726.0,37811.0,43344.0,40858.0,16442.0,12370.0
2026-05-06 16:21:46.921499,766592,1609506770347617,4370259417,-0.327936,0.425536,-0.981856,23.52,163.89626,51.695,-13.112,9.648001,-99.62401,concentric,4,5.0,24228.0,28632.0,102508.0,72011.0,23726.0,37811.0,43344.0,40858.0,16442.0,12370.0
2026-05-06 16:21:46.937047,766593,1609506770362103,4370274332,-0.20496,0.425536,-0.981856,20.58,163.765,50.05875,-15.68,6.512,-97.232,concentric,4,5.0,24228.0,28632.0,102508.0,72011.0,23726.0,37811.0,43344.0,40858.0,16442.0,12370.0
2026-05-06 16:21:46.943659,766594,1609506770371145,4370283215,-0.128832,0.392352,-0.991616,7.56875,162.3125,49.14875,-17.312,10.68,-97.144005,concentric,4,5.0,24228.0,28632.0,102508.0,72011.0,23726.0,37811.0,43344.0,40858.0,16442.0,12370.0
2026-05-06 16:21:46.982713,766605,1609506770380080,4370291994,-0.128832,0.392352,-0.991616,-1.44375,160.67625,47.451252,-17.312,10.68,-97.144005,concentric,4,5.0,24120.0,28405.0,102009.0,71914.0,23650.0,37565.0,43045.0,40807.0,16398.0,12269.0
2026-05-06 16:21:46.985225,766606,1609506770395206,4370307098,-0.05856,0.423584,-0.981856,7.02625,161.175,48.48375,-18.904001,8.928,-94.72,concentric,4,5.0,24120.0,28405.0,102009.0,71914.0,23650.0,37565.0,43045.0,40807.0,16398.0,12269.0
2026-05-06 16:21:46.987736,766607,1609506770404269,4370315864,-0.05856,0.423584,-0.981856,10.08875,160.16875,49.88375,-18.904001,8.928,-94.72,concentric,4,5.0,24120.0,28405.0,102009.0,71914.0,23650.0,37565.0,43045.0,40807.0,16398.0,12269.0
2026-05-06 16:21:46.991413,766608,1609506770418796,4370330809,-0.052704,0.41968,-0.93696,7.48125,156.485,49.5075,-20.984001,9.280001,-93.37601,concentric,4,5.0,24120.0,28405.0,102009.0,71914.0,23650.0,37565.0,43045.0,40807.0,16398.0,12269.0
2026-05-06 16:21:47.000229,766609,1609506770427714,4370339567,-0.052704,0.41968,-0.93696,9.47625,153.7375,47.60875,-20.984001,9.280001,-93.37601,concentric,4,5.0,24120.0,28405.0,102009.0,71914.0,23650.0,37565.0,43045.0,40807.0,16398.0,12269.0
2026-05-06 16:21:47.009001,766610,1609506770436623,4370348292,0.011712,0.404064,-0.93696,11.34,153.195,46.7775,-22.152,10.472,-91.560005,concentric,4,5.0,24120.0,28405.0,102009.0,71914.0,23650.0,37565.0,43045.0,40807.0,16398.0,12269.0
2026-05-06 16:21:47.045097,766611,1609506770451091,4370363307,0.115168,0.329888,-0.901824,4.9175,152.775,44.40625,-23.704,11.960001,-91.992004,concentric,4,5.0,24120.0,28405.0,102009.0,71914.0,23650.0,37565.0,43045.0,40807.0,16398.0,12269.0
2026-05-06 16:21:47.071403,766612,1609506770460038,4370372017,0.115168,0.329888,-0.901824,-5.04,153.53625,42.857502,-23.704,11.960001,-91.992004,concentric,4,5.0,24120.0,28405.0,102009.0,71914.0,23650.0,37565.0,43045.0,40807.0,16398.0,12269.0
2026-05-06 16:21:47.087757,766613,1609506770474562,4370386933,0.160064,0.374784,-0.806176,-15.417501,152.62625,42.8925,-25.144001,12.448001,-91.00001,concentric,4,5.0,24120.0,28405.0,102009.0,71914.0,23650.0,37565.0,43045.0,40807.0,16398.0,12269.0
2026-05-06 16:21:47.117474,766624,1609506770483709,4370395691,0.160064,0.374784,-0.806176,-13.440001,149.8,41.3525,-25.144001,12.448001,-91.00001,concentric,4,5.0,24512.0,27753.0,98821.0,73275.0,24054.0,37102.0,41497.0,41620.0,16641.0,11981.0
2026-05-06 16:21:47.124704,766625,1609506770498330,4370410701,0.183488,0.407968,-0.817888,-6.65875,145.1625,40.32,-26.056002,12.456,-89.304,concentric,4,5.0,24512.0,27753.0,98821.0,73275.0,24054.0,37102.0,41497.0,41620.0,16641.0,11981.0
2026-05-06 16:21:47.124811,766626,1609506770507260,4370419409,0.183488,0.407968,-0.817888,1.19,140.35875,41.107502,-26.056002,12.456,-89.304,concentric,4,5.0,24512.0,27753.0,98821.0,73275.0,24054.0,37102.0,41497.0,41620.0,16641.0,11981.0
2026-05-06 16:21:47.124865,766627,1609506770516202,4370428122,0.339648,0.284992,-0.667584,12.4775,136.96375,39.71625,-27.632002,13.64,-90.07201,concentric,4,5.0,24512.0,27753.0,98821.0,73275.0,24054.0,37102.0,41497.0,41620.0,16641.0,11981.0
2026-05-06 16:21:47.127397,766628,1609506770530801,4370443108,0.413824,0.265472,-0.704672,8.855001,131.81876,37.23125,-28.496002,13.992001,-87.232,concentric,4,5.0,24512.0,27753.0,98821.0,73275.0,24054.0,37102.0,41497.0,41620.0,16641.0,11981.0
2026-05-06 16:21:47.130080,766629,1609506770539849,4370451933,0.413824,0.265472,-0.704672,-1.68875,125.51,30.817501,-28.496002,13.992001,-87.232,concentric,4,5.0,24512.0,27753.0,98821.0,73275.0,24054.0,37102.0,41497.0,41620.0,16641.0,11981.0
2026-05-06 16:21:47.132562,766630,1609506770554418,4370466852,0.472384,0.437248,-0.85888,-6.7725,121.738754,25.9,-29.608002,13.584001,-86.560005,concentric,4,5.0,24512.0,27753.0,98821.0,73275.0,24054.0,37102.0,41497.0,41620.0,16641.0,11981.0
2026-05-06 16:21:47.136349,766631,1609506770563522,4370475597,0.472384,0.437248,-0.85888,-17.955,121.3625,28.34125,-29.608002,13.584001,-86.560005,concentric,4,5.0,24512.0,27753.0,98821.0,73275.0,24054.0,37102.0,41497.0,41620.0,16641.0,11981.0
2026-05-06 16:21:47.145092,766632,1609506770572472,4370484307,0.569984,0.388448,-0.894016,-32.9875,120.00625,33.03125,-30.248001,13.152,-83.912,concentric,4,5.0,24512.0,27753.0,98821.0,73275.0,24054.0,37102.0,41497.0,41620.0,16641.0,11981.0
2026-05-06 16:21:47.181131,766643,1609506770587257,4370499372,0.569984,0.388448,-0.894016,-41.34375,119.04375,35.09625,-30.248001,13.152,-83.912,concentric,4,5.0,24705.0,26935.0,92999.0,74641.0,24253.0,36481.0,38764.0,42439.0,16685.0,11625.0
2026-05-06 16:21:47.183582,766644,1609506770596299,4370508113,0.402112,0.230336,-0.69296,-38.7275,116.55,36.12,-31.272001,12.552001,-82.992004,concentric,4,5.0,24705.0,26935.0,92999.0,74641.0,24253.0,36481.0,38764.0,42439.0,16685.0,11625.0
2026-05-06 16:21:47.186073,766645,1609506770610888,4370523072,0.396256,0.230336,-0.548512,-30.0125,111.29125,37.51125,-31.312002,13.360001,-83.08,concentric,4,5.0,24705.0,26935.0,92999.0,74641.0,24253.0,36481.0,38764.0,42439.0,16685.0,11625.0
2026-05-06 16:21:47.195257,766646,1609506770619835,4370531810,0.396256,0.230336,-0.548512,-27.0025,105.8925,40.22375,-31.312002,13.360001,-83.08,concentric,4,5.0,24705.0,26935.0,92999.0,74641.0,24253.0,36481.0,38764.0,42439.0,16685.0,11625.0
2026-05-06 16:21:47.201486,766647,1609506770628799,4370540526,0.396256,0.230336,-0.548512,-30.2925,100.8875,45.40375,-31.312002,13.360001,-83.08,concentric,4,5.0,24705.0,26935.0,92999.0,74641.0,24253.0,36481.0,38764.0,42439.0,16685.0,11625.0
2026-05-06 16:21:47.235190,766648,1609506770643292,4370555444,0.581696,0.347456,-0.681248,-33.285,98.1575,50.645,-31.936,13.440001,-81.608,concentric,4,5.0,24705.0,26935.0,92999.0,74641.0,24253.0,36481.0,38764.0,42439.0,16685.0,11625.0
2026-05-06 16:21:47.237661,766649,1609506770652226,4370564149,0.599264,0.36112,-0.71248,-36.6625,96.69625,52.6925,-31.976002,14.208001,-80.43201,concentric,4,5.0,24705.0,26935.0,92999.0,74641.0,24253.0,36481.0,38764.0,42439.0,16685.0,11625.0
2026-05-06 16:21:47.240214,766650,1609506770666726,4370579038,0.599264,0.36112,-0.71248,-37.905,96.27625,51.3275,-31.976002,14.208001,-80.43201,concentric,4,5.0,24705.0,26935.0,92999.0,74641.0,24253.0,36481.0,38764.0,42439.0,16685.0,11625.0
2026-05-06 16:21:47.248933,766651,1609506770675857,4370587856,0.562176,0.310368,-0.612928,-31.5525,95.97,47.36375,-32.688,12.120001,-78.448006,concentric,4,5.0,24705.0,26935.0,92999.0,74641.0,24253.0,36481.0,38764.0,42439.0,16685.0,11625.0
2026-05-06 16:21:47.307822,766662,1609506770690568,4370602955,0.562176,0.259616,-0.480192,-30.23125,94.12375,45.7625,-32.688,14.168,-77.024,concentric,4,5.0,24647.0,27745.0,91066.0,73801.0,24254.0,37320.0,37933.0,41976.0,16628.0,11983.0
2026-05-06 16:21:47.313956,766663,1609506770699555,4370611654,0.562176,0.259616,-0.480192,-24.4125,90.2825,45.6575,-32.88,12.704,-77.024,concentric,4,5.0,24647.0,27745.0,91066.0,73801.0,24254.0,37320.0,37933.0,41976.0,16628.0,11983.0
2026-05-06 16:21:47.314516,766664,1609506770708500,4370620378,0.562176,0.259616,-0.480192,-21.7525,87.185,42.6475,-32.88,12.704,-77.024,concentric,4,5.0,24647.0,27745.0,91066.0,73801.0,24254.0,37320.0,37933.0,41976.0,16628.0,11983.0
2026-05-06 16:21:47.314994,766665,1609506770723012,4370635283,0.612928,0.284992,-0.52704,-21.77875,84.595,45.1325,-32.944,16.52,-79.328,concentric,4,5.0,24647.0,27745.0,91066.0,73801.0,24254.0,37320.0,37933.0,41976.0,16628.0,11983.0
2026-05-06 16:21:47.317340,766666,1609506770731962,4370644014,0.61488,0.345504,-0.550464,-19.6175,83.79875,46.3225,-32.824,15.120001,-80.568,concentric,4,5.0,24647.0,27745.0,91066.0,73801.0,24254.0,37320.0,37933.0,41976.0,16628.0,11983.0
2026-05-06 16:21:47.322149,766667,1609506770746532,4370658948,0.61488,0.345504,-0.550464,-19.0925,82.985,46.90875,-32.824,15.120001,-80.568,concentric,4,5.0,24647.0,27745.0,91066.0,73801.0,24254.0,37320.0,37933.0,41976.0,16628.0,11983.0
2026-05-06 16:21:47.328871,766668,1609506770755550,4370667658,0.603168,0.347456,-0.480192,-14.84875,80.96375,47.7925,-33.096,15.68,-76.560005,concentric,4,5.0,24647.0,27745.0,91066.0,73801.0,24254.0,37320.0,37933.0,41976.0,16628.0,11983.0
2026-05-06 16:21:47.337578,766669,1609506770764800,4370676440,0.603168,0.347456,-0.480192,-12.9325,78.35625,45.89375,-33.096,15.68,-76.560005,concentric,4,5.0,24647.0,27745.0,91066.0,73801.0,24254.0,37320.0,37933.0,41976.0,16628.0,11983.0
2026-05-06 16:21:47.351338,766670,1609506770779282,4370691371,0.657824,0.31232,-0.568032,-15.21625,75.6875,45.815,-32.816,17.68,-77.152,concentric,4,5.0,24647.0,27745.0,91066.0,73801.0,24254.0,37320.0,37933.0,41976.0,16628.0,11983.0
2026-05-06 16:21:47.380260,766681,1609506770788366,4370700298,0.657824,0.31232,-0.568032,-20.34375,74.92625,46.9875,-32.816,17.68,-77.152,concentric,4,5.0,23261.0,28706.0,89099.0,70952.0,23373.0,38170.0,36977.0,40404.0,16055.0,12398.0
2026-05-06 16:21:47.382774,766682,1609506770803111,4370715349,0.675392,0.265472,-0.495808,-22.0325,74.76875,45.7625,-33.152,17.52,-76.43201,concentric,4,5.0,23261.0,28706.0,89099.0,70952.0,23373.0,38170.0,36977.0,40404.0,16055.0,12398.0
2026-05-06 16:21:47.385275,766683,1609506770812041,4370724096,0.694912,0.251808,-0.404064,-19.425,74.34875,45.0625,-33.032,18.952002,-75.736,concentric,4,5.0,23261.0,28706.0,89099.0,70952.0,23373.0,38170.0,36977.0,40404.0,16055.0,12398.0
2026-05-06 16:21:47.413736,766684,1609506770826560,4370739025,0.694912,0.251808,-0.404064,-17.4475,73.465004,44.73,-33.032,18.952002,-75.736,concentric,4,5.0,23261.0,28706.0,89099.0,70952.0,23373.0,38170.0,36977.0,40404.0,16055.0,12398.0
2026-05-06 16:21:47.437569,766685,1609506770835516,4370747773,0.769088,0.249856,-0.394304,-18.73375,72.8,46.03375,-32.56,19.016,-75.152,concentric,4,5.0,23261.0,28706.0,89099.0,70952.0,23373.0,38170.0,36977.0,40404.0,16055.0,12398.0
2026-05-06 16:21:47.453958,766686,1609506770844468,4370756500,0.769088,0.249856,-0.394304,-20.60625,71.00625,45.701252,-32.56,19.016,-75.152,concentric,4,5.0,23261.0,28706.0,89099.0,70952.0,23373.0,38170.0,36977.0,40404.0,16055.0,12398.0
2026-05-06 16:21:47.456482,766687,1609506770858949,4370771393,0.784704,0.228384,-0.337696,-21.595,70.27125,43.47875,-32.736,19.28,-74.088005,concentric,4,5.0,23261.0,28706.0,89099.0,70952.0,23373.0,38170.0,36977.0,40404.0,16055.0,12398.0
2026-05-06 16:21:47.459030,766688,1609506770867859,4370780208,0.784704,0.228384,-0.337696,-20.6675,68.97625,40.0925,-32.736,19.28,-74.088005,concentric,4,5.0,23261.0,28706.0,89099.0,70952.0,23373.0,38170.0,36977.0,40404.0,16055.0,12398.0
2026-05-06 16:21:47.486463,766699,1609506770882378,4370795077,0.772992,0.167872,-0.28304,-20.195,67.83875,35.857502,-32.664,19.312,-73.792,concentric,4,5.0,22565.0,29448.0,88137.0,69094.0,22816.0,38937.0,36530.0,39388.0,15693.0,12723.0
2026-05-06 16:21:47.488974,766700,1609506770891397,4370804122,0.772992,0.167872,-0.298656,-20.62375,64.98625,35.4725,-32.664,19.312,-73.792,concentric,4,5.0,22565.0,29448.0,88137.0,69094.0,22816.0,38937.0,36530.0,39388.0,15693.0,12723.0
2026-05-06 16:21:47.491470,766701,1609506770905932,4370817042,0.821792,0.142496,-0.30256,-19.2325,61.5825,35.3675,-33.032,18.160002,-72.32,concentric,4,5.0,22565.0,29448.0,88137.0,69094.0,22816.0,38937.0,36530.0,39388.0,15693.0,12723.0
2026-05-06 16:21:47.493773,766702,1609506770915243,4370827811,0.85888,0.121024,-0.261568,-17.8325,59.71,34.97375,-32.640003,18.504002,-71.824005,concentric,4,5.0,22565.0,29448.0,88137.0,69094.0,22816.0,38937.0,36530.0,39388.0,15693.0,12723.0
2026-05-06 16:21:47.496435,766703,1609506770924275,4370836578,0.85888,0.121024,-0.261568,-18.147501,59.010002,33.69625,-32.640003,18.504002,-71.824005,concentric,4,5.0,22565.0,29448.0,88137.0,69094.0,22816.0,38937.0,36530.0,39388.0,15693.0,12723.0
2026-05-06 16:21:47.513666,766704,1609506770938769,4370851505,0.825696,0.115168,-0.247904,-16.63375,58.19625,33.18,-32.304,19.352001,-72.69601,concentric,4,5.0,22565.0,29448.0,88137.0,69094.0,22816.0,38937.0,36530.0,39388.0,15693.0,12723.0
2026-05-06 16:21:47.521339,766705,1609506770947659,4370860273,0.825696,0.115168,-0.247904,-11.4625,55.90375,29.155,-32.304,19.352001,-72.69601,concentric,4,5.0,22565.0,29448.0,88137.0,69094.0,22816.0,38937.0,36530.0,39388.0,15693.0,12723.0
2026-05-06 16:21:47.535193,766706,1609506770962262,4370873133,0.8296,0.089792,-0.265472,-6.4575,55.09,27.69375,-32.384003,21.016,-72.216,concentric,4,5.0,22565.0,29448.0,88137.0,69094.0,22816.0,38937.0,36530.0,39388.0,15693.0,12723.0
2026-05-06 16:21:47.543913,766707,1609506770971569,4370883862,0.8296,0.089792,-0.265472,-7.02625,53.0775,30.625,-32.384003,21.016,-72.216,concentric,4,5.0,22565.0,29448.0,88137.0,69094.0,22816.0,38937.0,36530.0,39388.0,15693.0,12723.0
2026-05-06 16:21:47.557727,766708,1609506770980521,4370892578,0.86864,0.093696,-0.249856,-7.0175,50.4175,29.35625,-32.136,21.096,-69.840004,concentric,4,5.0,22565.0,29448.0,88137.0,69094.0,22816.0,38937.0,36530.0,39388.0,15693.0,12723.0
2026-05-06 16:21:47.590286,766720,1609506770995159,4370907770,0.870592,0.083936,-0.171776,-6.09875,48.41375,28.28,-32.136,18.272001,-68.816,concentric,4,5.0,22085.0,29841.0,86370.0,68082.0,22405.0,39227.0,35618.0,38783.0,15435.0,12873.0
2026-05-06 16:21:47.592754,766721,1609506771004136,4370916602,0.870592,0.083936,-0.171776,-6.125,46.27875,27.5275,-32.136,18.272001,-68.816,concentric,4,5.0,22085.0,29841.0,86370.0,68082.0,22405.0,39227.0,35618.0,38783.0,15435.0,12873.0
2026-05-06 16:21:47.596746,766722,1609506771018687,4370929535,0.851072,0.093696,-0.160064,-8.04125,44.35375,24.78,-32.088,18.184,-68.296005,concentric,4,5.0,22085.0,29841.0,86370.0,68082.0,22405.0,39227.0,35618.0,38783.0,15435.0,12873.0
2026-05-06 16:21:47.604403,766723,1609506771028119,4370940360,0.851072,0.093696,-0.160064,-9.19625,41.74625,24.63125,-32.088,18.184,-68.296005,concentric,4,5.0,22085.0,29841.0,86370.0,68082.0,22405.0,39227.0,35618.0,38783.0,15435.0,12873.0
2026-05-06 16:21:47.609907,766724,1609506771037041,4370949098,0.870592,0.050752,-0.218624,-8.56625,39.4275,21.455,-32.24,21.632002,-70.12,concentric,4,5.0,22085.0,29841.0,86370.0,68082.0,22405.0,39227.0,35618.0,38783.0,15435.0,12873.0
2026-05-06 16:21:47.646400,766725,1609506771051548,4370964112,0.870592,0.050752,-0.218624,-7.2975,38.33375,20.64125,-32.24,21.632002,-70.12,concentric,4,5.0,22085.0,29841.0,86370.0,68082.0,22405.0,39227.0,35618.0,38783.0,15435.0,12873.0
2026-05-06 16:21:47.648919,766726,1609506771060482,4370972838,0.835456,0.056608,-0.167872,-3.56125,36.5925,20.78125,-31.624,22.312,-68.43201,concentric,4,5.0,22085.0,29841.0,86370.0,68082.0,22405.0,39227.0,35618.0,38783.0,15435.0,12873.0
2026-05-06 16:21:47.651372,766727,1609506771075113,4370987734,0.825696,0.072224,-0.20496,2.4325,34.0725,17.08875,-31.472002,22.496,-69.344,concentric,4,5.0,22085.0,29841.0,86370.0,68082.0,22405.0,39227.0,35618.0,38783.0,15435.0,12873.0
2026-05-06 16:21:47.682516,766738,1609506771084101,4370996457,0.825696,0.072224,-0.20496,4.375,31.2025,17.745,-31.472002,22.496,-69.344,concentric,4,5.0,21606.0,29803.0,84608.0,67441.0,22030.0,39196.0,34779.0,38449.0,15207.0,12849.0
2026-05-06 16:21:47.685189,766739,1609506771093650,4371005234,0.831552,0.085888,-0.15616,0.28,27.51,18.78625,-31.472002,21.344002,-70.088005,concentric,4,5.0,21606.0,29803.0,84608.0,67441.0,22030.0,39196.0,34779.0,38449.0,15207.0,12849.0
2026-05-06 16:21:47.687692,766740,1609506771108222,4371020319,0.831552,0.085888,-0.15616,0.0875,23.28375,15.04125,-31.384,21.344002,-70.088005,concentric,4,5.0,21606.0,29803.0,84608.0,67441.0,22030.0,39196.0,34779.0,38449.0,15207.0,12849.0
2026-05-06 16:21:47.690160,766741,1609506771117243,4371029044,0.84912,0.056608,-0.187392,-1.155,19.73125,11.41875,-31.800001,21.608002,-69.600006,concentric,4,5.0,21606.0,29803.0,84608.0,67441.0,22030.0,39196.0,34779.0,38449.0,15207.0,12849.0
2026-05-06 16:21:47.717540,766742,1609506771131770,4371044009,0.84912,0.056608,-0.187392,-2.47625,16.10875,8.79375,-31.800001,21.608002,-69.600006,concentric,4,5.0,21606.0,29803.0,84608.0,67441.0,22030.0,39196.0,34779.0,38449.0,15207.0,12849.0
2026-05-06 16:21:47.720040,766743,1609506771140700,4371052699,0.827648,0.035136,-0.181536,-1.82,12.81875,7.18375,-31.256002,22.792002,-67.504005,concentric,4,5.0,21606.0,29803.0,84608.0,67441.0,22030.0,39196.0,34779.0,38449.0,15207.0,12849.0
2026-05-06 16:21:47.722580,766744,1609506771149667,4371061424,0.827648,0.035136,-0.181536,-1.32125,11.1475,4.47125,-31.256002,22.792002,-67.504005,concentric,4,5.0,21606.0,29803.0,84608.0,67441.0,22030.0,39196.0,34779.0,38449.0,15207.0,12849.0
2026-05-06 16:21:47.736351,766745,1609506771164283,4371076376,0.831552,0.040992,-0.138592,-0.9275,8.88125,3.9025,-31.184002,23.112001,-68.704,concentric,4,5.0,21606.0,29803.0,84608.0,67441.0,22030.0,39196.0,34779.0,38449.0,15207.0,12849.0
2026-05-06 16:21:47.750191,766746,1609506771173215,4371085097,0.831552,0.040992,-0.138592,0.7525,5.97625,1.89875,-31.184002,23.112001,-68.704,concentric,4,5.0,21606.0,29803.0,84608.0,67441.0,22030.0,39196.0,34779.0,38449.0,15207.0,12849.0
2026-05-06 16:21:47.846102,766757,1609506771188430,4371100631,0.835456,0.060512,-0.20496,0.86625,3.85875,1.47,-31.384,22.944,-68.008,concentric,4,5.0,21540.0,29856.0,83738.0,67220.0,22048.0,39259.0,34397.0,38339.0,15220.0,12907.0
2026-05-06 16:21:47.848648,766758,1609506771197399,4371109369,0.817888,0.05856,-0.210816,2.1875,2.73,0.2275,-31.032001,23.36,-68.768005,concentric,4,5.0,21540.0,29856.0,83738.0,67220.0,22048.0,39259.0,34397.0,38339.0,15220.0,12907.0
2026-05-06 16:21:47.851158,766759,1609506771206371,4371118161,0.817888,0.05856,-0.210816,2.94875,1.61875,-1.75,-31.032001,23.36,-68.768005,concentric,4,5.0,21540.0,29856.0,83738.0,67220.0,22048.0,39259.0,34397.0,38339.0,15220.0,12907.0
2026-05-06 16:21:47.855285,766760,1609506771220842,4371133107,0.83936,0.072224,-0.17568,2.45875,-0.02625,-3.64875,-31.112001,23.136002,-68.920006,concentric,4,5.0,21540.0,29856.0,83738.0,67220.0,22048.0,39259.0,34397.0,38339.0,15220.0,12907.0
2026-05-06 16:21:47.856650,766761,1609506771229778,4371141792,0.83936,0.072224,-0.17568,1.645,-2.7125,-4.725,-31.112001,23.136002,-68.920006,concentric,4,5.0,21540.0,29856.0,83738.0,67220.0,22048.0,39259.0,34397.0,38339.0,15220.0,12907.0
2026-05-06 16:21:47.858529,766762,1609506771244436,4371156853,0.862784,0.076128,-0.144448,1.56625,-5.1275,-7.49,-31.192001,22.848001,-68.232,concentric,4,5.0,21540.0,29856.0,83738.0,67220.0,22048.0,39259.0,34397.0,38339.0,15220.0,12907.0
2026-05-06 16:21:47.861157,766763,1609506771253355,4371165581,0.862784,0.076128,-0.144448,0.97125,-6.5625,-9.625,-31.192001,22.848001,-68.232,concentric,4,5.0,21540.0,29856.0,83738.0,67220.0,22048.0,39259.0,34397.0,38339.0,15220.0,12907.0
2026-05-06 16:21:47.863828,766764,1609506771268111,4371180765,0.84912,0.074176,-0.154208,0.60375,-8.23375,-9.82625,-31.216002,23.160002,-68.560005,concentric,4,5.0,21540.0,29856.0,83738.0,67220.0,22048.0,39259.0,34397.0,38339.0,15220.0,12907.0
2026-05-06 16:21:47.866241,766765,1609506771277211,4371189480,0.847168,0.072224,-0.17568,0.4725,-9.3975,-11.47125,-31.728,21.304,-68.68,concentric,4,5.0,21540.0,29856.0,83738.0,67220.0,22048.0,39259.0,34397.0,38339.0,15220.0,12907.0
2026-05-06 16:21:47.896335,766776,1609506771286428,4371198212,0.847168,0.072224,-0.17568,-0.42,-10.1325,-11.73375,-31.728,21.304,-68.68,concentric,4,5.0,21679.0,29967.0,84093.0,66988.0,22129.0,39423.0,34591.0,38240.0,15283.0,12980.0
2026-05-06 16:21:47.898872,766777,1609506771301175,4371213168,0.853024,0.07808,-0.189344,0.74375,-12.45125,-12.3375,-31.928001,23.144001,-69.392006,concentric,4,5.0,21679.0,29967.0,84093.0,66988.0,22129.0,39423.0,34591.0,38240.0,15283.0,12980.0
2026-05-06 16:21:47.928814,766778,1609506771310308,4371221943,0.853024,0.07808,-0.189344,2.03875,-13.72875,-13.43125,-31.928001,23.144001,-69.392006,concentric,4,5.0,21679.0,29967.0,84093.0,66988.0,22129.0,39423.0,34591.0,38240.0,15283.0,12980.0
2026-05-06 16:21:47.931226,766779,1609506771324883,4371237029,0.860832,0.085888,-0.189344,1.35625,-15.98625,-13.0025,-31.808,22.552002,-69.312004,concentric,4,5.0,21679.0,29967.0,84093.0,66988.0,22129.0,39423.0,34591.0,38240.0,15283.0,12980.0
2026-05-06 16:21:47.933710,766780,1609506771333895,4371245847,0.860832,0.085888,-0.189344,0.77875,-19.01375,-15.60125,-31.808,22.552002,-69.312004,concentric,4,5.0,21679.0,29967.0,84093.0,66988.0,22129.0,39423.0,34591.0,38240.0,15283.0,12980.0
2026-05-06 16:21:47.936107,766781,1609506771342807,4371254566,0.864736,0.081984,-0.210816,-0.63,-20.64125,-17.115,-31.384,22.176,-69.568,concentric,4,5.0,21679.0,29967.0,84093.0,66988.0,22129.0,39423.0,34591.0,38240.0,15283.0,12980.0
2026-05-06 16:21:47.938617,766782,1609506771357324,4371269602,0.8296,0.080032,-0.191296,-3.3425,-21.315,-16.6075,-31.800001,22.232,-70.856,concentric,4,5.0,21679.0,29967.0,84093.0,66988.0,22129.0,39423.0,34591.0,38240.0,15283.0,12980.0
2026-05-06 16:21:47.943728,766783,1609506771366301,4371278336,0.8296,0.080032,-0.191296,-1.4175,-22.70625,-18.34,-31.800001,22.232,-70.856,concentric,4,5.0,21679.0,29967.0,84093.0,66988.0,22129.0,39423.0,34591.0,38240.0,15283.0,12980.0
2026-05-06 16:21:47.957713,766784,1609506771380826,4371293266,0.854976,0.081984,-0.20496,1.505,-24.66625,-19.83625,-32.112003,22.592001,-70.16,concentric,4,5.0,21679.0,29967.0,84093.0,66988.0,22129.0,39423.0,34591.0,38240.0,15283.0,12980.0
2026-05-06 16:21:47.989043,766795,1609506771390447,4371302058,0.854976,0.081984,-0.20496,2.47625,-27.50125,-18.15625,-32.112003,22.592001,-70.16,eccentric,4,5.0,21772.0,29972.0,84438.0,66799.0,22319.0,39533.0,34800.0,38166.0,15436.0,13044.0
2026-05-06 16:21:47.989827,766796,1609506771399435,4371310994,0.880352,0.085888,-0.17568,5.1975,-29.95125,-18.82125,-31.784002,20.160002,-69.16,eccentric,4,5.0,21772.0,29972.0,84438.0,66799.0,22319.0,39533.0,34800.0,38166.0,15436.0,13044.0
2026-05-06 16:21:47.992285,766797,1609506771413965,4371325945,0.880352,0.085888,-0.17568,8.1375,-32.41,-20.965,-31.784002,20.160002,-69.16,eccentric,4,5.0,21772.0,29972.0,84438.0,66799.0,22319.0,39533.0,34800.0,38166.0,15436.0,13044.0
2026-05-06 16:21:47.994895,766798,1609506771422958,4371334659,0.870592,0.101504,-0.259616,9.87875,-34.2825,-21.35,-32.264,20.072,-69.448006,eccentric,4,5.0,21772.0,29972.0,84438.0,66799.0,22319.0,39533.0,34800.0,38166.0,15436.0,13044.0
2026-05-06 16:21:48.014990,766799,1609506771437488,4371349741,0.804224,0.1464,-0.220576,7.84875,-34.92125,-20.51875,-31.768002,21.920002,-70.496,eccentric,4,5.0,21772.0,29972.0,84438.0,66799.0,22319.0,39533.0,34800.0,38166.0,15436.0,13044.0
2026-05-06 16:21:48.021401,766800,1609506771446441,4371358453,0.804224,0.1464,-0.220576,6.09,-36.0675,-21.56,-31.768002,21.920002,-70.496,eccentric,4,5.0,21772.0,29972.0,84438.0,66799.0,22319.0,39533.0,34800.0,38166.0,15436.0,13044.0
2026-05-06 16:21:48.027762,766801,1609506771455452,4371367234,0.804224,0.1464,-0.220576,6.5625,-39.27,-24.33375,-31.768002,21.920002,-70.496,eccentric,4,5.0,21772.0,29972.0,84438.0,66799.0,22319.0,39533.0,34800.0,38166.0,15436.0,13044.0
2026-05-06 16:21:48.050113,766802,1609506771469917,4371382135,0.860832,0.140544,-0.249856,4.55875,-41.90375,-24.3425,-31.872002,20.240002,-72.552,eccentric,4,5.0,21772.0,29972.0,84438.0,66799.0,22319.0,39533.0,34800.0,38166.0,15436.0,13044.0
2026-05-06 16:21:48.052705,766803,1609506771478835,4371390989,0.853024,0.142496,-0.277184,0.945,-44.170002,-25.3575,-32.408,21.472,-71.888,eccentric,4,5.0,21772.0,29972.0,84438.0,66799.0,22319.0,39533.0,34800.0,38166.0,15436.0,13044.0
2026-05-06 16:21:48.083805,766814,1609506771493491,4371404533,0.853024,0.142496,-0.277184,-0.6825,-45.185,-28.6125,-32.408,21.472,-71.888,eccentric,4,5.0,22084.0,29901.0,85361.0,67031.0,22650.0,39569.0,35295.0,38348.0,15668.0,13053.0
2026-05-06 16:21:48.086313,766815,1609506771502951,4371415386,0.798368,0.134688,-0.36112,-1.04125,-46.76,-29.942501,-32.288002,17.256,-69.840004,eccentric,4,5.0,22084.0,29901.0,85361.0,67031.0,22650.0,39569.0,35295.0,38348.0,15668.0,13053.0
2026-05-06 16:21:48.088820,766816,1609506771511933,4371424167,0.798368,0.134688,-0.36112,-2.66875,-47.71375,-30.37125,-32.288002,17.256,-69.840004,eccentric,4,5.0,22084.0,29901.0,85361.0,67031.0,22650.0,39569.0,35295.0,38348.0,15668.0,13053.0
2026-05-06 16:21:48.102703,766817,1609506771526722,4371439184,0.786656,0.142496,-0.325984,-1.74125,-49.69125,-31.185,-32.04,16.896,-70.592,eccentric,4,5.0,22084.0,29901.0,85361.0,67031.0,22650.0,39569.0,35295.0,38348.0,15668.0,13053.0
2026-05-06 16:21:48.108980,766818,1609506771535662,4371447910,0.786656,0.142496,-0.325984,0.665,-52.2375,-31.0275,-32.04,16.896,-70.592,eccentric,4,5.0,22084.0,29901.0,85361.0,67031.0,22650.0,39569.0,35295.0,38348.0,15668.0,13053.0
2026-05-06 16:21:48.147736,766819,1609506771550173,4371462804,0.817888,0.152256,-0.314272,1.53125,-53.78625,-30.975,-32.376003,20.224,-72.64001,eccentric,4,5.0,22084.0,29901.0,85361.0,67031.0,22650.0,39569.0,35295.0,38348.0,15668.0,13053.0
2026-05-06 16:21:48.190060,766820,1609506771559087,4371471591,0.806176,0.177632,-0.363072,3.5525,-54.46875,-32.0775,-32.440002,20.12,-73.01601,eccentric,4,5.0,22084.0,29901.0,85361.0,67031.0,22650.0,39569.0,35295.0,38348.0,15668.0,13053.0
2026-05-06 16:21:48.192642,766821,1609506771573586,4371484479,0.806176,0.177632,-0.363072,3.8675,-54.94125,-33.075,-32.440002,20.12,-73.01601,eccentric,4,5.0,22084.0,29901.0,85361.0,67031.0,22650.0,39569.0,35295.0,38348.0,15668.0,13053.0
2026-05-06 16:21:48.195125,766822,1609506771582908,4371495270,0.769088,0.210816,-0.355264,2.9925,-55.55375,-33.32,-32.112003,19.568,-74.264,eccentric,4,5.0,22084.0,29901.0,85361.0,67031.0,22650.0,39569.0,35295.0,38348.0,15668.0,13053.0
2026-05-06 16:21:48.225186,766833,1609506771592042,4371504034,0.769088,0.210816,-0.355264,1.54875,-57.1025,-35.0525,-32.112003,19.568,-74.264,eccentric,4,5.0,22151.0,29344.0,86476.0,67463.0,22699.0,39139.0,35862.0,38630.0,15713.0,12863.0
2026-05-06 16:21:48.227749,766834,1609506771606797,4371519027,0.788608,0.210816,-0.357216,-1.39125,-59.0975,-36.2775,-32.488003,19.232,-75.192,eccentric,4,5.0,22151.0,29344.0,86476.0,67463.0,22699.0,39139.0,35862.0,38630.0,15713.0,12863.0
2026-05-06 16:21:48.230220,766835,1609506771615920,4371527699,0.788608,0.210816,-0.357216,-1.47,-60.585,-38.535,-32.488003,19.232,-75.192,eccentric,4,5.0,22151.0,29344.0,86476.0,67463.0,22699.0,39139.0,35862.0,38630.0,15713.0,12863.0
2026-05-06 16:21:48.232748,766836,1609506771630632,4371542678,0.759328,0.193248,-0.40016,0.42875,-61.74,-40.83625,-32.576,19.416,-76.744,eccentric,4,5.0,22151.0,29344.0,86476.0,67463.0,22699.0,39139.0,35862.0,38630.0,15713.0,12863.0
2026-05-06 16:21:48.235060,766837,1609506771639691,4371551385,0.732,0.222528,-0.421632,4.34,-62.79875,-42.3325,-32.824,16.376001,-74.824005,eccentric,4,5.0,22151.0,29344.0,86476.0,67463.0,22699.0,39139.0,35862.0,38630.0,15713.0,12863.0
2026-05-06 16:21:48.237811,766838,1609506771648586,4371560163,0.732,0.222528,-0.421632,7.81375,-63.88375,-42.77,-32.824,16.376001,-74.824005,eccentric,4,5.0,22151.0,29344.0,86476.0,67463.0,22699.0,39139.0,35862.0,38630.0,15713.0,12863.0
2026-05-06 16:21:48.240252,766839,1609506771663248,4371575181,0.730048,0.251808,-0.415776,10.78,-65.47625,-42.91875,-32.752003,15.104001,-74.744,eccentric,4,5.0,22151.0,29344.0,86476.0,67463.0,22699.0,39139.0,35862.0,38630.0,15713.0,12863.0
2026-05-06 16:21:48.245258,766840,1609506771672223,4371583888,0.730048,0.251808,-0.415776,12.83625,-67.83,-43.995,-32.752003,15.104001,-74.744,eccentric,4,5.0,22151.0,29344.0,86476.0,67463.0,22699.0,39139.0,35862.0,38630.0,15713.0,12863.0
2026-05-06 16:21:48.304011,766851,1609506771686722,4371599236,0.755424,0.240096,-0.40992,9.93125,-70.63875,-45.01875,-32.272003,18.008001,-77.624,eccentric,4,5.0,22146.0,28192.0,86130.0,68613.0,22688.0,38063.0,35728.0,39323.0,15702.0,12358.0
2026-05-06 16:21:48.306511,766852,1609506771695782,4371608051,0.755424,0.240096,-0.40992,6.44,-73.19375,-45.36,-32.272003,18.008001,-77.624,eccentric,4,5.0,22146.0,28192.0,86130.0,68613.0,22688.0,38063.0,35728.0,39323.0,15702.0,12358.0
2026-05-06 16:21:48.309043,766853,1609506771704746,4371616757,0.737856,0.216672,-0.486048,3.2025,-76.0025,-46.2175,-32.288002,17.496,-78.58401,eccentric,4,5.0,22146.0,28192.0,86130.0,68613.0,22688.0,38063.0,35728.0,39323.0,15702.0,12358.0
2026-05-06 16:21:48.311342,766854,1609506771719347,4371631793,0.677344,0.240096,-0.521184,2.205,-78.575,-46.82125,-32.248,17.616001,-78.07201,eccentric,4,5.0,22146.0,28192.0,86130.0,68613.0,22688.0,38063.0,35728.0,39323.0,15702.0,12358.0
2026-05-06 16:21:48.316168,766855,1609506771728346,4371640544,0.677344,0.240096,-0.521184,4.165,-79.51125,-46.71625,-32.248,17.616001,-78.07201,eccentric,4,5.0,22146.0,28192.0,86130.0,68613.0,22688.0,38063.0,35728.0,39323.0,15702.0,12358.0
2026-05-06 16:21:48.318791,766856,1609506771742877,4371655484,0.659776,0.28304,-0.5368,6.29125,-80.21125,-46.47125,-32.24,15.168001,-78.8,eccentric,4,5.0,22146.0,28192.0,86130.0,68613.0,22688.0,38063.0,35728.0,39323.0,15702.0,12358.0
2026-05-06 16:21:48.324975,766857,1609506771751856,4371664230,0.659776,0.28304,-0.5368,7.98875,-82.25875,-46.36625,-32.24,15.168001,-78.8,eccentric,4,5.0,22146.0,28192.0,86130.0,68613.0,22688.0,38063.0,35728.0,39323.0,15702.0,12358.0
2026-05-06 16:21:48.338906,766858,1609506771766340,4371677189,0.64416,0.300608,-0.456768,8.25125,-86.1175,-48.0375,-31.832,16.496,-80.68,eccentric,4,5.0,22146.0,28192.0,86130.0,68613.0,22688.0,38063.0,35728.0,39323.0,15702.0,12358.0
2026-05-06 16:21:48.351718,766859,1609506771775724,4371687981,0.64416,0.300608,-0.456768,5.24125,-88.777504,-50.65375,-31.832,16.496,-80.68,eccentric,4,5.0,22146.0,28192.0,86130.0,68613.0,22688.0,38063.0,35728.0,39323.0,15702.0,12358.0
2026-05-06 16:21:48.356081,766860,1609506771784739,4371696703,0.601216,0.2928,-0.648064,4.235,-90.475,-52.47375,-31.872002,15.896001,-81.552,eccentric,4,5.0,22146.0,28192.0,86130.0,68613.0,22688.0,38063.0,35728.0,39323.0,15702.0,12358.0
2026-05-06 16:21:48.387576,766871,1609506771799385,4371711710,0.530944,0.304512,-0.538752,4.3575,-91.39375,-52.21125,-31.376001,15.624001,-83.568,eccentric,4,5.0,22656.0,27402.0,85484.0,70719.0,23178.0,37406.0,35543.0,40574.0,16014.0,12030.0
2026-05-06 16:21:48.390223,766872,1609506771808365,4371720486,0.530944,0.304512,-0.538752,6.67625,-91.90125,-52.64875,-31.376001,15.624001,-83.568,eccentric,4,5.0,22656.0,27402.0,85484.0,70719.0,23178.0,37406.0,35543.0,40574.0,16014.0,12030.0
2026-05-06 16:21:48.396483,766873,1609506771822943,4371735573,0.554368,0.286944,-0.612928,4.27,-93.2225,-54.9675,-31.096,14.848001,-83.576004,eccentric,4,5.0,22656.0,27402.0,85484.0,70719.0,23178.0,37406.0,35543.0,40574.0,16014.0,12030.0
2026-05-06 16:21:48.405215,766874,1609506771831871,4371744304,0.554368,0.286944,-0.612928,-1.05875,-96.57375,-54.10125,-31.096,14.848001,-83.576004,eccentric,4,5.0,22656.0,27402.0,85484.0,70719.0,23178.0,37406.0,35543.0,40574.0,16014.0,12030.0
2026-05-06 16:21:48.418881,766875,1609506771840858,4371753033,0.435296,0.249856,-0.538752,5.495,-98.4725,-56.105,-30.456001,14.304001,-85.232,eccentric,4,5.0,22656.0,27402.0,85484.0,70719.0,23178.0,37406.0,35543.0,40574.0,16014.0,12030.0
2026-05-06 16:21:48.427732,766876,1609506771855483,4371767964,0.435296,0.249856,-0.538752,13.7025,-102.50625,-62.78125,-30.456001,14.304001,-85.232,eccentric,4,5.0,22656.0,27402.0,85484.0,70719.0,23178.0,37406.0,35543.0,40574.0,16014.0,12030.0
2026-05-06 16:21:48.441388,766877,1609506771864566,4371776692,0.406016,0.3416,-0.610976,13.48375,-106.88125,-64.56625,-30.168001,13.864,-85.520004,eccentric,4,5.0,22656.0,27402.0,85484.0,70719.0,23178.0,37406.0,35543.0,40574.0,16014.0,12030.0
2026-05-06 16:21:48.457395,766878,1609506771879144,4371791617,0.406016,0.388448,-0.714432,12.32875,-110.03125,-61.0225,-30.168001,13.864,-85.520004,eccentric,4,5.0,22656.0,27402.0,85484.0,70719.0,23178.0,37406.0,35543.0,40574.0,16014.0,12030.0
2026-05-06 16:21:48.488915,766889,1609506771888108,4371800458,0.35136,0.384544,-0.714432,15.46125,-112.95375,-62.15125,-29.184002,13.376,-86.352005,eccentric,4,5.0,23489.0,27381.0,87178.0,72504.0,23858.0,37403.0,36371.0,41531.0,16468.0,12030.0
2026-05-06 16:21:48.513889,766890,1609506771897060,4371809199,0.35136,0.384544,-0.714432,17.28125,-115.01,-64.6625,-29.184002,13.376,-86.352005,eccentric,4,5.0,23489.0,27381.0,87178.0,72504.0,23858.0,37403.0,36371.0,41531.0,16468.0,12030.0
2026-05-06 16:21:48.538996,766891,1609506771911637,4371824164,0.324032,0.355264,-0.698816,15.21625,-117.985,-66.9375,-28.496002,11.328,-86.632,eccentric,4,5.0,23489.0,27381.0,87178.0,72504.0,23858.0,37403.0,36371.0,41531.0,16468.0,12030.0
2026-05-06 16:21:48.566289,766892,1609506771920590,4371832921,0.25376,0.464576,-0.650016,9.6775,-120.785,-68.8975,-27.592001,10.040001,-85.96001,eccentric,4,5.0,23489.0,27381.0,87178.0,72504.0,23858.0,37403.0,36371.0,41531.0,16468.0,12030.0
2026-05-06 16:21:48.591182,766893,1609506771935097,4371847822,0.25376,0.464576,-0.650016,9.59875,-123.488754,-73.49125,-27.592001,10.040001,-85.96001,eccentric,4,5.0,23489.0,27381.0,87178.0,72504.0,23858.0,37403.0,36371.0,41531.0,16468.0,12030.0
2026-05-06 16:21:48.606085,766894,1609506771944002,4371856512,0.177632,0.515328,-0.823744,10.5875,-125.9475,-79.24875,-27.016,11.240001,-89.84801,eccentric,4,5.0,23489.0,27381.0,87178.0,72504.0,23858.0,37403.0,36371.0,41531.0,16468.0,12030.0
2026-05-06 16:21:48.608482,766895,1609506771958521,4371869537,0.177632,0.515328,-0.823744,12.145,-127.1375,-80.29875,-27.016,11.240001,-89.84801,eccentric,4,5.0,23489.0,27381.0,87178.0,72504.0,23858.0,37403.0,36371.0,41531.0,16468.0,12030.0
2026-05-06 16:21:48.610973,766896,1609506771967855,4371880308,0.187392,0.435296,-0.825696,8.60125,-128.00375,-78.505,-26.52,10.896001,-91.48801,eccentric,4,5.0,23489.0,27381.0,87178.0,72504.0,23858.0,37403.0,36371.0,41531.0,16468.0,12030.0
2026-05-06 16:21:48.613454,766897,1609506771976857,4371889079,0.187392,0.435296,-0.825696,6.265,-128.37125,-74.9175,-26.52,10.896001,-91.48801,eccentric,4,5.0,23489.0,27381.0,87178.0,72504.0,23858.0,37403.0,36371.0,41531.0,16468.0,12030.0
2026-05-06 16:21:48.644767,766908,1609506771991464,4371904076,0.12688,0.38064,-0.81984,3.07125,-131.25,-75.50375,-25.272001,9.696,-91.90401,eccentric,4,5.0,24155.0,27477.0,87358.0,73533.0,24424.0,37473.0,36422.0,42073.0,16859.0,12093.0
2026-05-06 16:21:48.647376,766909,1609506772000470,4371912823,0.060512,0.427488,-0.812032,-9.2575,-134.98625,-71.995,-25.272001,9.320001,-91.984,eccentric,4,5.0,24155.0,27477.0,87358.0,73533.0,24424.0,37473.0,36422.0,42073.0,16859.0,12093.0
2026-05-06 16:21:48.649819,766910,1609506772014965,4371925851,0.060512,0.427488,-0.812032,-10.26375,-137.41,-68.34625,-24.312,9.320001,-91.984,eccentric,4,5.0,24155.0,27477.0,87358.0,73533.0,24424.0,37473.0,36422.0,42073.0,16859.0,12093.0
2026-05-06 16:21:48.652300,766911,1609506772024269,4371936672,0.031232,0.50752,-0.964288,-9.24,-140.035,-68.88,-22.872002,9.096001,-94.784004,eccentric,4,5.0,24155.0,27477.0,87358.0,73533.0,24424.0,37473.0,36422.0,42073.0,16859.0,12093.0
2026-05-06 16:21:48.654740,766912,1609506772033191,4371945498,0.031232,0.50752,-0.964288,-9.49375,-139.04625,-61.6175,-22.872002,9.096001,-94.784004,eccentric,4,5.0,24155.0,27477.0,87358.0,73533.0,24424.0,37473.0,36422.0,42073.0,16859.0,12093.0
2026-05-06 16:21:48.657350,766913,1609506772047680,4371958445,-0.005856,0.532896,-0.870592,-2.905,-138.04,-58.02125,-21.224,8.704,-95.880005,eccentric,4,5.0,24155.0,27477.0,87358.0,73533.0,24424.0,37473.0,36422.0,42073.0,16859.0,12093.0
2026-05-06 16:21:48.659875,766914,1609506772056995,4371969216,-0.005856,0.532896,-0.870592,-1.5575,-138.8975,-57.4875,-21.224,8.704,-95.880005,eccentric,4,5.0,24155.0,27477.0,87358.0,73533.0,24424.0,37473.0,36422.0,42073.0,16859.0,12093.0
2026-05-06 16:21:48.662448,766915,1609506772071588,4371984154,-0.105408,0.509472,-0.872544,1.09375,-140.385,-54.95875,-20.056002,6.832,-95.79201,eccentric,4,5.0,24155.0,27477.0,87358.0,73533.0,24424.0,37473.0,36422.0,42073.0,16859.0,12093.0
2026-05-06 16:21:48.665101,766916,1609506772080587,4371992896,-0.105408,0.509472,-1.0736,-4.165,-142.52875,-54.46,-20.056002,6.832,-95.79201,eccentric,4,5.0,24155.0,27477.0,87358.0,73533.0,24424.0,37473.0,36422.0,42073.0,16859.0,12093.0
2026-05-06 16:21:48.695208,766927,1609506772089513,4372001696,-0.025376,0.523136,-1.0736,-14.77875,-143.64876,-51.94875,-18.536001,5.768,-98.024,eccentric,4,5.0,24743.0,27635.0,86844.0,74595.0,24913.0,37631.0,36227.0,42611.0,17175.0,12198.0
2026-05-06 16:21:48.697697,766928,1609506772104086,4372016682,-0.091744,0.573888,-1.022848,-14.25375,-141.33,-50.75875,-16.216002,6.88,-98.968,eccentric,4,5.0,24743.0,27635.0,86844.0,74595.0,24913.0,37631.0,36227.0,42611.0,17175.0,12198.0
2026-05-06 16:21:48.702701,766929,1609506772113050,4372025421,-0.091744,0.573888,-1.022848,-4.4975,-136.4825,-52.115,-16.216002,6.88,-98.968,eccentric,4,5.0,24743.0,27635.0,86844.0,74595.0,24913.0,37631.0,36227.0,42611.0,17175.0,12198.0
2026-05-06 16:21:48.705218,766930,1609506772127598,4372040386,-0.167872,0.61488,-0.776896,-1.155,-133.2975,-52.00125,-14.280001,6.6,-100.232,eccentric,4,5.0,24743.0,27635.0,86844.0,74595.0,24913.0,37631.0,36227.0,42611.0,17175.0,12198.0
2026-05-06 16:21:48.711488,766931,1609506772136726,4372049168,-0.167872,0.61488,-0.776896,-3.0975,-133.36751,-51.59,-14.280001,6.6,-100.232,eccentric,4,5.0,24743.0,27635.0,86844.0,74595.0,24913.0,37631.0,36227.0,42611.0,17175.0,12198.0
2026-05-06 16:21:48.725199,766932,1609506772151316,4372062115,-0.187392,0.591456,-1.003328,-12.6,-135.03,-53.55875,-12.856001,6.272,-101.05601,eccentric,4,5.0,24743.0,27635.0,86844.0,74595.0,24913.0,37631.0,36227.0,42611.0,17175.0,12198.0
2026-05-06 16:21:48.734920,766933,1609506772160617,4372072907,-0.187392,0.591456,-1.003328,-19.4775,-134.95125,-53.55875,-12.856001,6.272,-101.05601,eccentric,4,5.0,24743.0,27635.0,86844.0,74595.0,24913.0,37631.0,36227.0,42611.0,17175.0,12198.0
2026-05-06 16:21:48.742344,766934,1609506772169614,4372081617,-0.12688,0.562176,-1.065792,-19.76625,-132.34375,-55.27375,-11.224001,6.104,-103.28001,eccentric,4,5.0,24743.0,27635.0,86844.0,74595.0,24913.0,37631.0,36227.0,42611.0,17175.0,12198.0
2026-05-06 16:21:48.766418,766935,1609506772184161,4372096655,-0.226432,0.569984,-1.009184,-20.7375,-130.12125,-55.69375,-9.480001,4.832,-102.456,eccentric,4,5.0,24743.0,27635.0,86844.0,74595.0,24913.0,37631.0,36227.0,42611.0,17175.0,12198.0
2026-05-06 16:21:48.796501,766946,1609506772193659,4372105427,-0.226432,0.569984,-1.009184,-16.7125,-128.7825,-56.30625,-9.480001,4.832,-102.456,eccentric,4,5.0,25055.0,27895.0,87025.0,75317.0,25198.0,37921.0,36337.0,42960.0,17338.0,12341.0
2026-05-06 16:21:48.798967,766947,1609506772202855,4372114265,-0.30256,0.513376,-0.837408,-6.9825,-128.31876,-57.00625,-7.512001,3.304,-102.73601,eccentric,4,5.0,25055.0,27895.0,87025.0,75317.0,25198.0,37921.0,36337.0,42960.0,17338.0,12341.0
2026-05-06 16:21:48.801461,766948,1609506772217416,4372129220,-0.30256,0.513376,-0.837408,-4.0425,-130.66376,-56.35875,-7.512001,3.304,-102.73601,eccentric,4,5.0,25055.0,27895.0,87025.0,75317.0,25198.0,37921.0,36337.0,42960.0,17338.0,12341.0
2026-05-06 16:21:48.803927,766949,1609506772226433,4372137940,-0.37088,0.489952,-0.919392,-10.2725,-136.19376,-56.02625,-4.92,2.496,-102.76,eccentric,4,5.0,25055.0,27895.0,87025.0,75317.0,25198.0,37921.0,36337.0,42960.0,17338.0,12341.0
2026-05-06 16:21:48.812788,766950,1609506772241173,4372152923,-0.37088,0.489952,-0.919392,-16.1175,-141.74126,-57.88125,-4.92,2.496,-102.76,eccentric,4,5.0,25055.0,27895.0,87025.0,75317.0,25198.0,37921.0,36337.0,42960.0,17338.0,12341.0
2026-05-06 16:21:48.827554,766951,1609506772250135,4372161616,-0.40016,0.476288,-0.958432,-17.70125,-144.76,-58.625,-3.024,2.792,-103.608,eccentric,4,5.0,25055.0,27895.0,87025.0,75317.0,25198.0,37921.0,36337.0,42960.0,17338.0,12341.0
2026-05-06 16:21:48.843783,766952,1609506772264600,4372176644,-0.515328,0.42944,-0.8784,-5.7225,-144.41,-59.2025,-0.472,4.368,-104.48801,eccentric,4,5.0,25055.0,27895.0,87025.0,75317.0,25198.0,37921.0,36337.0,42960.0,17338.0,12341.0
2026-05-06 16:21:48.846317,766953,1609506772273480,4372185328,-0.515328,0.42944,-0.8784,0.4725,-145.57375,-60.87375,-0.472,4.368,-104.48801,eccentric,4,5.0,25055.0,27895.0,87025.0,75317.0,25198.0,37921.0,36337.0,42960.0,17338.0,12341.0
2026-05-06 16:21:48.854991,766954,1609506772282497,4372194087,-0.6344,0.41968,-0.794464,1.04125,-147.65625,-60.6375,-0.472,4.368,-106.05601,eccentric,4,5.0,25055.0,27895.0,87025.0,75317.0,25198.0,37921.0,36337.0,42960.0,17338.0,12341.0
2026-05-06 16:21:48.942774,766965,1609506772297189,4372209201,-0.6344,0.41968,-0.794464,5.1975,-150.77126,-62.545002,1.864,4.44,-106.05601,eccentric,4,5.0,25230.0,28481.0,88357.0,75524.0,25456.0,38426.0,36956.0,43064.0,17530.0,12534.0
2026-05-06 16:21:48.945037,766966,1609506772306248,4372218025,-0.659776,0.392352,-0.88816,-0.175,-152.4425,-61.29375,4.44,4.568,-104.912,eccentric,4,5.0,25230.0,28481.0,88357.0,75524.0,25456.0,38426.0,36956.0,43064.0,17530.0,12534.0
2026-05-06 16:21:48.947597,766967,1609506772320771,4372232999,-0.659776,0.392352,-0.88816,0.49875,-151.235,-59.91125,4.44,4.568,-104.912,eccentric,4,5.0,25230.0,28481.0,88357.0,75524.0,25456.0,38426.0,36956.0,43064.0,17530.0,12534.0
2026-05-06 16:21:48.950049,766968,1609506772329682,4372241695,-0.739808,0.407968,-0.788608,3.01875,-148.40875,-59.82375,6.920001,4.792,-104.48801,eccentric,4,5.0,25230.0,28481.0,88357.0,75524.0,25456.0,38426.0,36956.0,43064.0,17530.0,12534.0
2026-05-06 16:21:48.952590,766969,1609506772338889,4372250513,-0.739808,0.407968,-0.788608,3.85875,-147.13126,-58.835,6.920001,4.792,-104.48801,eccentric,4,5.0,25230.0,28481.0,88357.0,75524.0,25456.0,38426.0,36956.0,43064.0,17530.0,12534.0
2026-05-06 16:21:48.955108,766970,1609506772353386,4372265473,-0.796416,0.415776,-0.772992,6.39625,-146.25626,-58.19625,9.304001,0.968,-102.728004,eccentric,4,5.0,25230.0,28481.0,88357.0,75524.0,25456.0,38426.0,36956.0,43064.0,17530.0,12534.0
2026-05-06 16:21:48.957617,766971,1609506772362334,4372274262,-0.796416,0.415776,-0.772992,5.7575,-144.48,-57.925,9.304001,0.968,-102.728004,eccentric,4,5.0,25230.0,28481.0,88357.0,75524.0,25456.0,38426.0,36956.0,43064.0,17530.0,12534.0
2026-05-06 16:21:48.960114,766972,1609506772376911,4372289156,-0.864736,0.384544,-0.778848,8.25125,-142.2925,-57.155,11.528001,2.88,-102.576004,eccentric,4,5.0,25230.0,28481.0,88357.0,75524.0,25456.0,38426.0,36956.0,43064.0,17530.0,12534.0
2026-05-06 16:21:48.962661,766973,1609506772386035,4372297893,-0.854976,0.374784,-0.798368,9.5375,-139.79,-57.4175,13.752001,3.064,-103.22401,eccentric,4,5.0,25230.0,28481.0,88357.0,75524.0,25456.0,38426.0,36956.0,43064.0,17530.0,12534.0
2026-05-06 16:21:48.995336,766984,1609506772400591,4372312910,-0.854976,0.374784,-0.798368,10.6225,-137.4975,-56.07875,13.752001,3.064,-103.22401,eccentric,4,5.0,25165.0,28748.0,90787.0,74817.0,25325.0,38568.0,38109.0,42629.0,17458.0,12631.0
2026-05-06 16:21:48.997555,766985,1609506772409632,4372321667,-0.864736,0.413824,-0.853024,11.585,-133.46375,-54.7925,16.136002,4.144,-102.56801,eccentric,4,5.0,25165.0,28748.0,90787.0,74817.0,25325.0,38568.0,38109.0,42629.0,17458.0,12631.0
2026-05-06 16:21:49.000206,766986,1609506772418701,4372330438,-0.864736,0.413824,-0.853024,10.14125,-128.16125,-53.92625,16.136002,4.144,-102.56801,eccentric,4,5.0,25165.0,28748.0,90787.0,74817.0,25325.0,38568.0,38109.0,42629.0,17458.0,12631.0
2026-05-06 16:21:49.006468,766987,1609506772433242,4372345365,-0.866688,0.462624,-0.74176,7.14875,-124.285,-53.55,18.240002,4.296,-102.608,eccentric,4,5.0,25165.0,28748.0,90787.0,74817.0,25325.0,38568.0,38109.0,42629.0,17458.0,12631.0
2026-05-06 16:21:49.015484,766988,1609506772442224,4372354116,-0.866688,0.462624,-0.74176,3.29875,-122.605,-54.7225,18.240002,4.296,-102.608,eccentric,4,5.0,25165.0,28748.0,90787.0,74817.0,25325.0,38568.0,38109.0,42629.0,17458.0,12631.0
2026-05-06 16:21:49.048865,766989,1609506772456733,4372369046,-0.895968,0.415776,-0.76128,1.3125,-123.24375,-55.6675,20.328001,6.208,-101.232,eccentric,4,5.0,25165.0,28748.0,90787.0,74817.0,25325.0,38568.0,38109.0,42629.0,17458.0,12631.0
2026-05-06 16:21:49.051312,766990,1609506772465648,4372377738,-0.88816,0.349408,-0.755424,1.3475,-124.582504,-56.6125,22.048,5.752,-101.47201,eccentric,4,5.0,25165.0,28748.0,90787.0,74817.0,25325.0,38568.0,38109.0,42629.0,17458.0,12631.0
2026-05-06 16:21:49.053784,766991,1609506772474548,4372386434,-0.88816,0.349408,-0.755424,4.59375,-123.996254,-55.7725,22.048,5.752,-101.47201,eccentric,4,5.0,25165.0,28748.0,90787.0,74817.0,25325.0,38568.0,38109.0,42629.0,17458.0,12631.0
2026-05-06 16:21:49.062677,766992,1609506772489058,4372401397,-0.874496,0.365024,-0.700768,13.405,-120.9425,-52.63125,23.416,4.192,-99.816,eccentric,4,5.0,25165.0,28748.0,90787.0,74817.0,25325.0,38568.0,38109.0,42629.0,17458.0,12631.0
2026-05-06 16:21:49.102501,767003,1609506772498140,4372410424,-0.874496,0.365024,-0.700768,17.01,-117.845,-48.5275,23.416,4.192,-99.816,eccentric,4,5.0,25072.0,28943.0,95475.0,74176.0,25221.0,38621.0,40253.0,42225.0,17409.0,12704.0
2026-05-06 16:21:49.103062,767004,1609506772512770,4372425412,-0.93696,0.452864,-0.743712,12.81,-116.59375,-47.6,25.064001,8.032001,-100.880005,eccentric,4,5.0,25072.0,28943.0,95475.0,74176.0,25221.0,38621.0,40253.0,42225.0,17409.0,12704.0
2026-05-06 16:21:49.106305,767005,1609506772521722,4372434135,-0.93696,0.452864,-0.743712,7.7,-116.121254,-49.2275,25.064001,8.032001,-100.880005,eccentric,4,5.0,25072.0,28943.0,95475.0,74176.0,25221.0,38621.0,40253.0,42225.0,17409.0,12704.0
2026-05-06 16:21:49.110605,767006,1609506772536449,4372449178,-0.977952,0.42944,-0.681248,0.315,-116.24375,-49.9975,27.136002,5.712,-99.232,eccentric,4,5.0,25072.0,28943.0,95475.0,74176.0,25221.0,38621.0,40253.0,42225.0,17409.0,12704.0
2026-05-06 16:21:49.122586,767007,1609506772545517,4372457882,-0.979904,0.407968,-0.698816,-4.15625,-115.9375,-50.015,28.52,7.168,-96.32001,eccentric,4,5.0,25072.0,28943.0,95475.0,74176.0,25221.0,38621.0,40253.0,42225.0,17409.0,12704.0
2026-05-06 16:21:49.128822,767008,1609506772554428,4372466619,-0.979904,0.407968,-0.698816,-1.8375,-113.058754,-48.055,28.52,7.168,-96.32001,eccentric,4,5.0,25072.0,28943.0,95475.0,74176.0,25221.0,38621.0,40253.0,42225.0,17409.0,12704.0
2026-05-06 16:21:49.142620,767009,1609506772568968,4372481603,-0.987712,0.345504,-0.659776,2.19625,-109.01625,-45.29875,29.808,7.656,-97.05601,eccentric,4,5.0,25072.0,28943.0,95475.0,74176.0,25221.0,38621.0,40253.0,42225.0,17409.0,12704.0
2026-05-06 16:21:49.151301,767010,1609506772577927,4372490390,-0.987712,0.345504,-0.659776,1.61,-105.86625,-44.52875,29.808,7.656,-97.05601,eccentric,4,5.0,25072.0,28943.0,95475.0,74176.0,25221.0,38621.0,40253.0,42225.0,17409.0,12704.0
2026-05-06 16:21:49.165226,767011,1609506772592475,4372503332,-0.99552,0.347456,-0.648064,-1.925,-101.66625,-42.035,31.016,9.584001,-97.304,eccentric,4,5.0,25072.0,28943.0,95475.0,74176.0,25221.0,38621.0,40253.0,42225.0,17409.0,12704.0
2026-05-06 16:21:49.221322,767022,1609506772601778,4372514252,-0.99552,0.347456,-0.648064,-5.4075,-96.01375,-39.24375,31.016,9.584001,-97.304,eccentric,4,5.0,25219.0,29377.0,97618.0,73814.0,25301.0,38930.0,41219.0,41983.0,17479.0,12856.0
2026-05-06 16:21:49.223738,767023,1609506772610803,4372523061,-1.007232,0.3904,-0.610976,-7.44625,-89.83625,-36.0675,32.456,8.280001,-95.648,eccentric,4,5.0,25219.0,29377.0,97618.0,73814.0,25301.0,38930.0,41219.0,41983.0,17479.0,12856.0
2026-05-06 16:21:49.248977,767024,1609506772625309,4372537967,-1.03456,0.359168,-0.5856,-11.97875,-84.25375,-33.97625,33.544003,10.160001,-95.512,eccentric,4,5.0,25219.0,29377.0,97618.0,73814.0,25301.0,38930.0,41219.0,41983.0,17479.0,12856.0
2026-05-06 16:21:49.273979,767025,1609506772634208,4372546679,-1.03456,0.359168,-0.5856,-16.2575,-80.21125,-32.4975,33.544003,10.160001,-95.512,eccentric,4,5.0,25219.0,29377.0,97618.0,73814.0,25301.0,38930.0,41219.0,41983.0,17479.0,12856.0
2026-05-06 16:21:49.276354,767026,1609506772648745,4372559576,-0.976,0.245952,-0.569984,-18.095,-76.60625,-30.98375,34.632,10.136001,-95.552,eccentric,4,5.0,25219.0,29377.0,97618.0,73814.0,25301.0,38930.0,41219.0,41983.0,17479.0,12856.0
2026-05-06 16:21:49.278989,767027,1609506772658073,4372570367,-0.976,0.245952,-0.569984,-13.43125,-71.855,-27.5625,34.632,10.136001,-95.552,eccentric,4,5.0,25219.0,29377.0,97618.0,73814.0,25301.0,38930.0,41219.0,41983.0,17479.0,12856.0
2026-05-06 16:21:49.281505,767028,1609506772667042,4372579066,-0.977952,0.310368,-0.593408,-4.9175,-64.16375,-23.73875,35.088,10.752001,-95.32001,eccentric,4,5.0,25219.0,29377.0,97618.0,73814.0,25301.0,38930.0,41219.0,41983.0,17479.0,12856.0
2026-05-06 16:21:49.283976,767029,1609506772681544,4372594161,-0.977952,0.310368,-0.593408,2.87,-56.37625,-19.55625,35.088,10.752001,-95.32001,eccentric,4,5.0,25219.0,29377.0,97618.0,73814.0,25301.0,38930.0,41219.0,41983.0,17479.0,12856.0
2026-05-06 16:21:49.286303,767030,1609506772690449,4372602865,-1.022848,0.41968,-0.486048,6.37,-49.76125,-16.65125,35.648003,10.048,-94.48,eccentric,4,5.0,25219.0,29377.0,97618.0,73814.0,25301.0,38930.0,41219.0,41983.0,17479.0,12856.0
2026-05-06 16:21:49.318869,767041,1609506772704965,4372615786,-1.022848,0.41968,-0.486048,-1.2075,-45.64,-16.2225,35.648003,10.048,-94.48,eccentric,4,5.0,25003.0,29601.0,99856.0,73178.0,25095.0,39064.0,42261.0,41620.0,17324.0,12952.0
2026-05-06 16:21:49.321348,767042,1609506772714306,4372626684,-1.036512,0.374784,-0.472384,-20.2475,-44.065,-15.75,36.128002,10.392,-94.328,eccentric,4,5.0,25003.0,29601.0,99856.0,73178.0,25095.0,39064.0,42261.0,41620.0,17324.0,12952.0
2026-05-06 16:21:49.323963,767043,1609506772728866,4372641656,-0.979904,0.290848,-0.523136,-37.87,-42.55125,-15.5225,36.320004,8.368,-93.216,eccentric,4,5.0,25003.0,29601.0,99856.0,73178.0,25095.0,39064.0,42261.0,41620.0,17324.0,12952.0
2026-05-06 16:21:49.326369,767044,1609506772737930,4372650400,-0.979904,0.290848,-0.523136,-39.96125,-37.6775,-14.875,36.320004,8.368,-93.216,eccentric,4,5.0,25003.0,29601.0,99856.0,73178.0,25095.0,39064.0,42261.0,41620.0,17324.0,12952.0
2026-05-06 16:21:49.328975,767045,1609506772746962,4372659149,-0.99552,0.284992,-0.462624,-28.0,-28.91875,-11.55,36.832,8.304001,-94.248,eccentric,4,5.0,25003.0,29601.0,99856.0,73178.0,25095.0,39064.0,42261.0,41620.0,17324.0,12952.0
2026-05-06 16:21:49.335235,767046,1609506772761465,4372674119,-0.99552,0.284992,-0.462624,-18.3225,-19.39875,-6.29125,36.832,8.304001,-94.248,eccentric,4,5.0,25003.0,29601.0,99856.0,73178.0,25095.0,39064.0,42261.0,41620.0,17324.0,12952.0
2026-05-06 16:21:49.343965,767047,1609506772770401,4372682862,-1.0248,0.329888,-0.4392,-18.55875,-11.92625,-1.67125,36.632,9.464001,-94.72,eccentric,4,5.0,25003.0,29601.0,99856.0,73178.0,25095.0,39064.0,42261.0,41620.0,17324.0,12952.0
