pc_time,serial_num,sensor_ts,host_ts,ax,ay,az,gx,gy,gz,mx,my,mz,phase,rpe,weight_kg,ppg_a,ppg_b,ppg_c,ppg_d,ppg_e,ppg_f,ppg_g,ppg_h,ppg_i,ppg_j
2026-05-06 16:21:24.375000,762346,1609506747750187,4347661384,-0.972096,0.347456,-0.569984,0.35875,24.3775,13.32625,32.024002,10.344001,-97.656006,concentric,4,5.0,27864.0,31998.0,102090.0,76021.0,25221.0,39207.0,42721.0,42320.0,17305.0,12953.0
2026-05-06 16:21:24.377451,762347,1609506747759999,4347672231,-0.942816,0.396256,-0.642208,-0.1575,30.12625,16.16125,31.432001,8.176001,-97.69601,concentric,4,5.0,27864.0,31998.0,102090.0,76021.0,25221.0,39207.0,42721.0,42320.0,17305.0,12953.0
2026-05-06 16:21:24.379958,762348,1609506747768971,4347681000,-0.942816,0.396256,-0.642208,-0.88375,35.945,18.4275,31.432001,8.176001,-97.69601,concentric,4,5.0,27864.0,31998.0,102090.0,76021.0,25221.0,39207.0,42721.0,42320.0,17305.0,12953.0
2026-05-06 16:21:24.382474,762349,1609506747783508,4347696149,-0.944768,0.337696,-0.593408,-0.4725,40.5825,20.4575,30.952002,9.736,-98.560005,concentric,4,5.0,27864.0,31998.0,102090.0,76021.0,25221.0,39207.0,42721.0,42320.0,17305.0,12953.0
2026-05-06 16:21:24.387197,762350,1609506747792511,4347704914,-0.944768,0.337696,-0.593408,-0.21,45.05375,22.67125,30.952002,9.736,-98.560005,concentric,4,5.0,27864.0,31998.0,102090.0,76021.0,25221.0,39207.0,42721.0,42320.0,17305.0,12953.0
2026-05-06 16:21:24.388673,762351,1609506747807138,4347719799,-0.983808,0.2928,-0.651968,1.32125,50.2075,25.76,30.288002,9.464001,-98.52801,concentric,4,5.0,27864.0,31998.0,102090.0,76021.0,25221.0,39207.0,42721.0,42320.0,17305.0,12953.0
2026-05-06 16:21:24.390172,762352,1609506747816089,4347728563,-0.983808,0.2928,-0.651968,5.11875,55.9125,29.286251,30.288002,9.464001,-98.52801,concentric,4,5.0,27864.0,31998.0,102090.0,76021.0,25221.0,39207.0,42721.0,42320.0,17305.0,12953.0
2026-05-06 16:21:24.399793,762353,1609506747825048,4347737275,-0.977952,0.333792,-0.632448,10.605001,62.43125,32.85625,29.304,9.416,-99.184006,concentric,4,5.0,27864.0,31998.0,102090.0,76021.0,25221.0,39207.0,42721.0,42320.0,17305.0,12953.0
2026-05-06 16:21:24.421294,762354,1609506747839739,4347752332,-0.95648,0.427488,-0.628544,10.4125,68.29375,35.5775,28.624,9.048,-99.8,concentric,4,5.0,27864.0,31998.0,102090.0,76021.0,25221.0,39207.0,42721.0,42320.0,17305.0,12953.0
2026-05-06 16:21:24.451274,762365,1609506747848797,4347761089,-0.95648,0.427488,-0.628544,8.95125,73.59625,37.8875,28.624,9.048,-99.8,concentric,4,5.0,28025.0,32379.0,102930.0,75282.0,25344.0,39539.0,43087.0,41898.0,17395.0,13136.0
2026-05-06 16:21:24.453833,762366,1609506747863443,4347776111,-0.942816,0.36112,-0.669536,6.3175,77.70875,38.3075,26.768002,6.752,-99.192,concentric,4,5.0,28025.0,32379.0,102930.0,75282.0,25344.0,39539.0,43087.0,41898.0,17395.0,13136.0
2026-05-06 16:21:24.456300,762367,1609506747872532,4347784901,-0.942816,0.36112,-0.669536,3.99,81.31375,38.955,26.768002,6.752,-99.192,concentric,4,5.0,28025.0,32379.0,102930.0,75282.0,25344.0,39539.0,43087.0,41898.0,17395.0,13136.0
2026-05-06 16:21:24.461167,762368,1609506747881463,4347793603,-0.935008,0.37088,-0.681248,3.71875,84.58625,39.80375,25.704,6.808,-99.72,concentric,4,5.0,28025.0,32379.0,102930.0,75282.0,25344.0,39539.0,43087.0,41898.0,17395.0,13136.0
2026-05-06 16:21:24.470119,762369,1609506747896098,4347808522,-0.935008,0.37088,-0.681248,5.48625,88.55,42.07875,25.704,6.808,-99.72,concentric,4,5.0,28025.0,32379.0,102930.0,75282.0,25344.0,39539.0,43087.0,41898.0,17395.0,13136.0
2026-05-06 16:21:24.478775,762370,1609506747905033,4347817270,-0.915488,0.382592,-0.689056,9.9925,93.52,45.08,24.344002,6.336,-99.16,concentric,4,5.0,28025.0,32379.0,102930.0,75282.0,25344.0,39539.0,43087.0,41898.0,17395.0,13136.0
2026-05-06 16:21:24.490127,762371,1609506747919560,4347830405,-0.9272,0.404064,-0.675392,11.13,98.2625,46.55,23.264002,7.912,-102.01601,concentric,4,5.0,28025.0,32379.0,102930.0,75282.0,25344.0,39539.0,43087.0,41898.0,17395.0,13136.0
2026-05-06 16:21:24.503919,762372,1609506747928881,4347841208,-0.9272,0.404064,-0.675392,8.67125,103.74875,49.7,23.264002,7.912,-102.01601,concentric,4,5.0,28025.0,32379.0,102930.0,75282.0,25344.0,39539.0,43087.0,41898.0,17395.0,13136.0
2026-05-06 16:21:24.513978,762373,1609506747937829,4347849911,-0.9272,0.404064,-0.737856,7.58625,108.99,51.93125,23.264002,7.912,-102.01601,concentric,4,5.0,28025.0,32379.0,102930.0,75282.0,25344.0,39539.0,43087.0,41898.0,17395.0,13136.0
2026-05-06 16:21:24.546324,762384,1609506747952614,4347865026,-0.925248,0.421632,-0.749568,6.18625,113.21625,53.36625,21.184002,7.712,-101.96001,concentric,4,5.0,28354.0,32911.0,105486.0,74412.0,25644.0,40046.0,44281.0,41395.0,17614.0,13408.0
2026-05-06 16:21:24.548839,762385,1609506747961605,4347873893,-0.89792,0.3904,-0.718336,7.455,118.4925,56.58625,19.176,7.36,-102.912,concentric,4,5.0,28354.0,32911.0,105486.0,74412.0,25644.0,40046.0,44281.0,41395.0,17614.0,13408.0
2026-05-06 16:21:24.551354,762386,1609506747976155,4347888861,-0.89792,0.3904,-0.718336,8.65375,122.902504,57.74125,19.176,7.36,-102.912,concentric,4,5.0,28354.0,32911.0,105486.0,74412.0,25644.0,40046.0,44281.0,41395.0,17614.0,13408.0
2026-05-06 16:21:24.557569,762387,1609506747985092,4347897584,-0.83936,0.452864,-0.79056,4.235,126.44625,59.6575,17.432001,7.096,-103.22401,concentric,4,5.0,28354.0,32911.0,105486.0,74412.0,25644.0,40046.0,44281.0,41395.0,17614.0,13408.0
2026-05-06 16:21:24.577729,762388,1609506747999605,4347910500,-0.81008,0.466528,-0.774944,5.74875,130.20876,61.11,15.136001,7.176,-104.496,concentric,4,5.0,28354.0,32911.0,105486.0,74412.0,25644.0,40046.0,44281.0,41395.0,17614.0,13408.0
2026-05-06 16:21:24.581483,762389,1609506748008927,4347921269,-0.81008,0.466528,-0.774944,6.62375,133.77,61.34625,15.136001,7.176,-104.496,concentric,4,5.0,28354.0,32911.0,105486.0,74412.0,25644.0,40046.0,44281.0,41395.0,17614.0,13408.0
2026-05-06 16:21:24.590241,762390,1609506748017881,4347930065,-0.81008,0.466528,-0.774944,4.12125,136.03625,60.725,15.136001,7.176,-104.496,concentric,4,5.0,28354.0,32911.0,105486.0,74412.0,25644.0,40046.0,44281.0,41395.0,17614.0,13408.0
2026-05-06 16:21:24.628894,762391,1609506748032481,4347945000,-0.794464,0.447008,-0.841312,0.5075,138.18875,60.62,12.664001,6.632,-106.464005,concentric,4,5.0,28354.0,32911.0,105486.0,74412.0,25644.0,40046.0,44281.0,41395.0,17614.0,13408.0
2026-05-06 16:21:24.653851,762392,1609506748041546,4347953703,-0.784704,0.427488,-0.903776,-0.14,139.8075,61.18875,10.744,6.856,-104.328,concentric,4,5.0,28354.0,32911.0,105486.0,74412.0,25644.0,40046.0,44281.0,41395.0,17614.0,13408.0
2026-05-06 16:21:24.692752,762403,1609506748056114,4347967076,-0.784704,0.427488,-0.903776,2.1,142.11751,62.48375,10.744,6.856,-104.328,concentric,4,5.0,28613.0,33045.0,105864.0,74193.0,25914.0,40221.0,44442.0,41269.0,17812.0,13490.0
2026-05-06 16:21:24.695220,762404,1609506748065543,4347977955,-0.75152,0.415776,-0.913536,4.4275,143.3425,63.0525,8.408,5.856,-104.72,concentric,4,5.0,28613.0,33045.0,105864.0,74193.0,25914.0,40221.0,44442.0,41269.0,17812.0,13490.0
2026-05-06 16:21:24.697718,762405,1609506748074463,4347986684,-0.75152,0.415776,-0.913536,4.4625,144.55875,65.371254,8.408,5.856,-104.72,concentric,4,5.0,28613.0,33045.0,105864.0,74193.0,25914.0,40221.0,44442.0,41269.0,17812.0,13490.0
2026-05-06 16:21:24.700228,762406,1609506748088981,4348001603,-0.677344,0.441152,-0.915488,6.4575,147.1575,66.42125,6.088,6.72,-104.344,concentric,4,5.0,28613.0,33045.0,105864.0,74193.0,25914.0,40221.0,44442.0,41269.0,17812.0,13490.0
2026-05-06 16:21:24.702671,762407,1609506748098048,4348010299,-0.677344,0.441152,-0.915488,5.6525,149.73875,67.55,6.088,6.72,-104.344,concentric,4,5.0,28613.0,33045.0,105864.0,74193.0,25914.0,40221.0,44442.0,41269.0,17812.0,13490.0
2026-05-06 16:21:24.705136,762408,1609506748112645,4348025294,-0.601216,0.47824,-0.91744,5.3725,152.11874,68.11875,3.376,7.000001,-104.84801,concentric,4,5.0,28613.0,33045.0,105864.0,74193.0,25914.0,40221.0,44442.0,41269.0,17812.0,13490.0
2026-05-06 16:21:24.707666,762409,1609506748121714,4348034042,-0.564128,0.474336,-1.001376,4.90875,153.58,66.6925,1.328,6.84,-103.728004,concentric,4,5.0,28613.0,33045.0,105864.0,74193.0,25914.0,40221.0,44442.0,41269.0,17812.0,13490.0
2026-05-06 16:21:24.710110,762410,1609506748130681,4348042773,-0.564128,0.474336,-1.001376,2.3625,153.9825,65.590004,1.328,6.84,-103.728004,concentric,4,5.0,28613.0,33045.0,105864.0,74193.0,25914.0,40221.0,44442.0,41269.0,17812.0,13490.0
2026-05-06 16:21:24.743725,762421,1609506748145340,4348057910,-0.511424,0.509472,-0.942816,5.45125,155.68001,65.5375,-1.048,7.048,-103.48,concentric,4,5.0,28908.0,33068.0,105667.0,74179.0,26166.0,40295.0,44247.0,41258.0,17974.0,13504.0
2026-05-06 16:21:24.746157,762422,1609506748154392,4348066928,-0.511424,0.509472,-0.942816,10.96375,159.85374,64.54875,-1.048,7.048,-103.48,concentric,4,5.0,28908.0,33068.0,105667.0,74179.0,26166.0,40295.0,44247.0,41258.0,17974.0,13504.0
2026-05-06 16:21:24.748849,762423,1609506748168902,4348079853,-0.499712,0.45872,-0.981856,5.04875,162.4525,64.365,-3.84,3.56,-100.75201,concentric,4,5.0,28908.0,33068.0,105667.0,74179.0,26166.0,40295.0,44247.0,41258.0,17974.0,13504.0
2026-05-06 16:21:24.751387,762424,1609506748178404,4348090863,-0.499712,0.45872,-0.981856,0.98875,164.5875,63.91875,-3.84,3.56,-100.75201,concentric,4,5.0,28908.0,33068.0,105667.0,74179.0,26166.0,40295.0,44247.0,41258.0,17974.0,13504.0
2026-05-06 16:21:24.760043,762425,1609506748187376,4348099604,-0.437248,0.35136,-0.954528,-3.115,163.4675,64.4,-5.912,5.968,-101.656006,concentric,4,5.0,28908.0,33068.0,105667.0,74179.0,26166.0,40295.0,44247.0,41258.0,17974.0,13504.0
2026-05-06 16:21:24.776353,762426,1609506748201871,4348114538,-0.345504,0.474336,-0.948672,0.14875,160.99126,64.00625,-8.136001,7.816001,-101.992004,concentric,4,5.0,28908.0,33068.0,105667.0,74179.0,26166.0,40295.0,44247.0,41258.0,17974.0,13504.0
2026-05-06 16:21:24.782730,762427,1609506748210793,4348123243,-0.345504,0.474336,-0.948672,5.53875,160.02875,65.24875,-8.136001,7.816001,-101.992004,concentric,4,5.0,28908.0,33068.0,105667.0,74179.0,26166.0,40295.0,44247.0,41258.0,17974.0,13504.0
2026-05-06 16:21:24.803991,762428,1609506748225399,4348136156,-0.228384,0.493856,-0.987712,5.80125,160.20375,65.38,-10.928,6.592001,-100.05601,concentric,4,5.0,28908.0,33068.0,105667.0,74179.0,26166.0,40295.0,44247.0,41258.0,17974.0,13504.0
2026-05-06 16:21:24.806393,762429,1609506748234733,4348146974,-0.228384,0.493856,-0.987712,3.14125,158.41875,63.035,-10.928,6.592001,-100.05601,concentric,4,5.0,28908.0,33068.0,105667.0,74179.0,26166.0,40295.0,44247.0,41258.0,17974.0,13504.0
2026-05-06 16:21:24.822851,762430,1609506748243877,4348155686,-0.220576,0.476288,-0.901824,2.00375,158.08626,59.7975,-12.608001,7.384,-100.41601,concentric,4,5.0,28908.0,33068.0,105667.0,74179.0,26166.0,40295.0,44247.0,41258.0,17974.0,13504.0
2026-05-06 16:21:24.849983,762441,1609506748258448,4348170678,-0.220576,0.476288,-0.901824,4.71625,158.06,57.96875,-12.608001,7.384,-100.41601,concentric,4,5.0,29495.0,33548.0,108503.0,73976.0,26743.0,40771.0,45486.0,41107.0,18416.0,13744.0
2026-05-06 16:21:24.855111,762442,1609506748267493,4348179449,-0.191296,0.452864,-0.923296,4.7425,157.91125,55.92125,-14.392001,7.368001,-96.54401,concentric,4,5.0,29495.0,33548.0,108503.0,73976.0,26743.0,40771.0,45486.0,41107.0,18416.0,13744.0
2026-05-06 16:21:24.857624,762443,1609506748282036,4348194379,-0.138592,0.402112,-0.89792,4.03375,158.48,55.8075,-16.512001,7.608,-96.560005,concentric,4,5.0,29495.0,33548.0,108503.0,73976.0,26743.0,40771.0,45486.0,41107.0,18416.0,13744.0
2026-05-06 16:21:24.885128,762444,1609506748290960,4348203100,-0.138592,0.402112,-0.89792,5.6175,157.57,54.425,-16.512001,7.608,-96.560005,concentric,4,5.0,29495.0,33548.0,108503.0,73976.0,26743.0,40771.0,45486.0,41107.0,18416.0,13744.0
2026-05-06 16:21:24.887556,762445,1609506748299947,4348211802,-0.138592,0.402112,-0.89792,0.06125,154.4725,53.725,-16.512001,7.608,-96.560005,concentric,4,5.0,29495.0,33548.0,108503.0,73976.0,26743.0,40771.0,45486.0,41107.0,18416.0,13744.0
2026-05-06 16:21:24.889974,762446,1609506748314515,4348226719,-0.05856,0.4392,-0.940864,-1.67125,152.565,54.215,-18.408,9.656,-98.520004,concentric,4,5.0,29495.0,33548.0,108503.0,73976.0,26743.0,40771.0,45486.0,41107.0,18416.0,13744.0
2026-05-06 16:21:24.894659,762447,1609506748323608,4348235514,-0.00976,0.406016,-0.860832,2.21375,152.64375,53.5325,-20.320002,6.736001,-94.04,concentric,4,5.0,29495.0,33548.0,108503.0,73976.0,26743.0,40771.0,45486.0,41107.0,18416.0,13744.0
2026-05-06 16:21:24.915178,762448,1609506748338100,4348250433,-0.00976,0.406016,-0.860832,-2.79125,149.75626,54.04,-20.320002,6.736001,-94.04,concentric,4,5.0,29495.0,33548.0,108503.0,73976.0,26743.0,40771.0,45486.0,41107.0,18416.0,13744.0
2026-05-06 16:21:24.946217,762459,1609506748347016,4348259157,0.064416,0.454816,-0.9272,1.295,147.665,53.795002,-20.936,10.112,-94.536,concentric,4,5.0,29515.0,33158.0,106847.0,74171.0,26827.0,40407.0,44822.0,41214.0,18531.0,13573.0
2026-05-06 16:21:24.948539,762460,1609506748356496,4348267938,0.064416,0.454816,-0.9272,0.74375,147.37625,55.39625,-20.936,10.112,-94.536,concentric,4,5.0,29515.0,33158.0,106847.0,74171.0,26827.0,40407.0,44822.0,41214.0,18531.0,13573.0
2026-05-06 16:21:24.951186,762461,1609506748371079,4348283026,0.089792,0.4392,-0.833504,-1.54,147.525,54.285,-22.736002,10.736,-93.648,concentric,4,5.0,29515.0,33158.0,106847.0,74171.0,26827.0,40407.0,44822.0,41214.0,18531.0,13573.0
2026-05-06 16:21:24.953849,762462,1609506748380072,4348291755,0.089792,0.4392,-0.833504,-8.89,145.29375,51.6425,-22.736002,10.736,-93.648,concentric,4,5.0,29515.0,33158.0,106847.0,74171.0,26827.0,40407.0,44822.0,41214.0,18531.0,13573.0
2026-05-06 16:21:24.967620,762463,1609506748394720,4348306916,0.13664,0.423584,-0.862784,-13.90375,142.30125,49.201252,-24.424002,10.096001,-90.896,concentric,4,5.0,29515.0,33158.0,106847.0,74171.0,26827.0,40407.0,44822.0,41214.0,18531.0,13573.0
2026-05-06 16:21:24.996892,762464,1609506748403747,4348315636,0.218624,0.349408,-0.794464,-14.58625,139.5975,48.30875,-25.536001,11.88,-93.12,concentric,4,5.0,29515.0,33158.0,106847.0,74171.0,26827.0,40407.0,44822.0,41214.0,18531.0,13573.0
2026-05-06 16:21:25.020243,762465,1609506748418311,4348330629,0.218624,0.349408,-0.794464,-8.26,139.2475,46.7775,-25.536001,11.88,-93.12,concentric,4,5.0,29515.0,33158.0,106847.0,74171.0,26827.0,40407.0,44822.0,41214.0,18531.0,13573.0
2026-05-06 16:21:25.028834,762466,1609506748427211,4348339326,0.265472,0.415776,-0.776896,-13.055,136.7275,44.6775,-26.712002,11.024,-89.840004,concentric,4,5.0,29515.0,33158.0,106847.0,74171.0,26827.0,40407.0,44822.0,41214.0,18531.0,13573.0
2026-05-06 16:21:25.031319,762467,1609506748436116,4348348034,0.265472,0.415776,-0.776896,-15.785,133.77875,43.435,-26.712002,11.024,-89.840004,concentric,4,5.0,29515.0,33158.0,106847.0,74171.0,26827.0,40407.0,44822.0,41214.0,18531.0,13573.0
2026-05-06 16:21:25.063992,762478,1609506748451334,4348363300,0.325984,0.417728,-0.788608,-19.0925,131.85374,41.23875,-27.840002,12.192,-88.952,concentric,4,5.0,29736.0,33120.0,106279.0,74420.0,27071.0,40377.0,44374.0,41327.0,18727.0,13528.0
2026-05-06 16:21:25.066441,762479,1609506748460365,4348372005,0.325984,0.417728,-0.788608,-21.44625,129.10625,40.4775,-27.840002,12.192,-88.952,concentric,4,5.0,29736.0,33120.0,106279.0,74420.0,27071.0,40377.0,44374.0,41327.0,18727.0,13528.0
2026-05-06 16:21:25.068982,762480,1609506748475047,4348387016,0.374784,0.33184,-0.726144,-13.7725,126.9975,38.35125,-28.464,12.544001,-87.48801,concentric,4,5.0,29736.0,33120.0,106279.0,74420.0,27071.0,40377.0,44374.0,41327.0,18727.0,13528.0
2026-05-06 16:21:25.071449,762481,1609506748484045,4348395833,0.423584,0.35136,-0.691008,-12.6,124.46,39.33125,-29.824001,9.144,-85.05601,concentric,4,5.0,29736.0,33120.0,106279.0,74420.0,27071.0,40377.0,44374.0,41327.0,18727.0,13528.0
2026-05-06 16:21:25.079759,762482,1609506748493187,4348404546,0.423584,0.35136,-0.691008,-15.6975,121.16125,39.89125,-29.824001,9.144,-85.05601,concentric,4,5.0,29736.0,33120.0,106279.0,74420.0,27071.0,40377.0,44374.0,41327.0,18727.0,13528.0
2026-05-06 16:21:25.080247,762483,1609506748507786,4348419577,0.450912,0.349408,-0.65392,-18.7775,117.52125,40.39875,-30.536001,10.808001,-84.69601,concentric,4,5.0,29736.0,33120.0,106279.0,74420.0,27071.0,40377.0,44374.0,41327.0,18727.0,13528.0
2026-05-06 16:21:25.088600,762484,1609506748516698,4348428298,0.450912,0.349408,-0.65392,-20.93875,112.2275,39.2175,-30.536001,10.808001,-84.69601,concentric,4,5.0,29736.0,33120.0,106279.0,74420.0,27071.0,40377.0,44374.0,41327.0,18727.0,13528.0
2026-05-06 16:21:25.108791,762485,1609506748531287,4348443276,0.480192,0.316224,-0.706624,-18.05125,105.9975,39.27875,-31.000002,13.112,-84.952,concentric,4,5.0,29736.0,33120.0,106279.0,74420.0,27071.0,40377.0,44374.0,41327.0,18727.0,13528.0
2026-05-06 16:21:25.111274,762486,1609506748540273,4348451988,0.480192,0.316224,-0.706624,-13.16875,102.13,39.90875,-31.000002,13.112,-84.952,concentric,4,5.0,29736.0,33120.0,106279.0,74420.0,27071.0,40377.0,44374.0,41327.0,18727.0,13528.0
2026-05-06 16:21:25.149012,762497,1609506748549699,4348460746,0.515328,0.275232,-0.59536,-6.60625,101.85,42.00875,-31.576002,13.120001,-83.704,concentric,4,5.0,28957.0,32329.0,101030.0,75321.0,26451.0,39731.0,42144.0,41896.0,18224.0,13154.0
2026-05-06 16:21:25.151503,762498,1609506748564548,4348475704,0.503616,0.316224,-0.542656,-8.8375,97.9125,40.1275,-32.032,13.704,-82.592,concentric,4,5.0,28957.0,32329.0,101030.0,75321.0,26451.0,39731.0,42144.0,41896.0,18224.0,13154.0
2026-05-06 16:21:25.156490,762499,1609506748573960,4348486624,0.503616,0.316224,-0.542656,-9.87,94.15875,39.5675,-32.032,13.704,-82.592,concentric,4,5.0,28957.0,32329.0,101030.0,75321.0,26451.0,39731.0,42144.0,41896.0,18224.0,13154.0
2026-05-06 16:21:25.159027,762500,1609506748583028,4348495348,0.503616,0.347456,-0.60512,-16.6075,90.4575,38.745,-32.032,13.704,-82.592,concentric,4,5.0,28957.0,32329.0,101030.0,75321.0,26451.0,39731.0,42144.0,41896.0,18224.0,13154.0
2026-05-06 16:21:25.172725,762501,1609506748597546,4348508302,0.589504,0.347456,-0.60512,-20.69375,86.7475,39.935,-32.440002,12.64,-81.96001,concentric,4,5.0,28957.0,32329.0,101030.0,75321.0,26451.0,39731.0,42144.0,41896.0,18224.0,13154.0
2026-05-06 16:21:25.181355,762502,1609506748606716,4348519202,0.622688,0.261568,-0.6344,-17.9375,84.385,38.64875,-32.608,14.976001,-80.856,concentric,4,5.0,28957.0,32329.0,101030.0,75321.0,26451.0,39731.0,42144.0,41896.0,18224.0,13154.0
2026-05-06 16:21:25.194877,762503,1609506748621294,4348532094,0.622688,0.261568,-0.6344,-18.87375,82.03125,39.375,-32.608,14.976001,-80.856,concentric,4,5.0,28957.0,32329.0,101030.0,75321.0,26451.0,39731.0,42144.0,41896.0,18224.0,13154.0
2026-05-06 16:21:25.203461,762504,1609506748630583,4348543011,0.599264,0.218624,-0.505568,-11.917501,79.17,41.16,-33.04,13.64,-78.984,concentric,4,5.0,28957.0,32329.0,101030.0,75321.0,26451.0,39731.0,42144.0,41896.0,18224.0,13154.0
2026-05-06 16:21:25.217391,762505,1609506748645182,4348555938,0.638304,0.300608,-0.45872,-4.71625,77.5075,39.576252,-33.120003,13.920001,-81.58401,concentric,4,5.0,28957.0,32329.0,101030.0,75321.0,26451.0,39731.0,42144.0,41896.0,18224.0,13154.0
2026-05-06 16:21:25.247526,762516,1609506748654582,4348566770,0.638304,0.300608,-0.45872,-2.17875,75.32,42.35875,-33.120003,13.920001,-81.58401,concentric,4,5.0,28349.0,32120.0,98611.0,75122.0,25960.0,39595.0,40968.0,41829.0,17843.0,13074.0
2026-05-06 16:21:25.250043,762517,1609506748663584,4348575668,0.638304,0.33184,-0.50752,-0.79625,73.00125,43.28625,-33.120003,13.920001,-81.58401,concentric,4,5.0,28349.0,32120.0,98611.0,75122.0,25960.0,39595.0,40968.0,41829.0,17843.0,13074.0
2026-05-06 16:21:25.252390,762518,1609506748678120,4348590603,0.671488,0.339648,-0.50752,-5.18,70.55125,41.13375,-32.736,16.064001,-78.32001,concentric,4,5.0,28349.0,32120.0,98611.0,75122.0,25960.0,39595.0,40968.0,41829.0,17843.0,13074.0
2026-05-06 16:21:25.259930,762519,1609506748687062,4348599343,0.694912,0.259616,-0.480192,-5.0225,68.32875,39.2525,-33.336002,14.800001,-77.032005,concentric,4,5.0,28349.0,32120.0,98611.0,75122.0,25960.0,39595.0,40968.0,41829.0,17843.0,13074.0
2026-05-06 16:21:25.293652,762520,1609506748701556,4348614232,0.694912,0.259616,-0.480192,-4.6725,67.55,36.28625,-33.336002,14.800001,-77.032005,concentric,4,5.0,28349.0,32120.0,98611.0,75122.0,25960.0,39595.0,40968.0,41829.0,17843.0,13074.0
2026-05-06 16:21:25.296289,762521,1609506748710516,4348622996,0.735904,0.22448,-0.423584,-3.01,65.7825,35.9625,-33.128002,16.456001,-76.152,concentric,4,5.0,28349.0,32120.0,98611.0,75122.0,25960.0,39595.0,40968.0,41829.0,17843.0,13074.0
2026-05-06 16:21:25.298849,762522,1609506748719450,4348631690,0.735904,0.22448,-0.423584,-4.78625,64.9775,35.84,-33.128002,16.456001,-76.152,concentric,4,5.0,28349.0,32120.0,98611.0,75122.0,25960.0,39595.0,40968.0,41829.0,17843.0,13074.0
2026-05-06 16:21:25.307536,762523,1609506748733978,4348646651,0.759328,0.329888,-0.45872,-8.05875,64.91625,38.89375,-33.224003,16.592001,-76.368004,concentric,4,5.0,28349.0,32120.0,98611.0,75122.0,25960.0,39595.0,40968.0,41829.0,17843.0,13074.0
2026-05-06 16:21:25.313977,762524,1609506748742943,4348655394,0.759328,0.329888,-0.45872,-6.97375,64.96875,38.47375,-33.224003,16.592001,-76.368004,concentric,4,5.0,28349.0,32120.0,98611.0,75122.0,25960.0,39595.0,40968.0,41829.0,17843.0,13074.0
2026-05-06 16:21:25.419764,762535,1609506748757496,4348668390,0.749568,0.271328,-0.349408,-10.80625,64.56625,35.48125,-33.136,17.464,-73.936005,concentric,4,5.0,28192.0,32446.0,98418.0,74716.0,25825.0,39768.0,40770.0,41595.0,17755.0,13195.0
2026-05-06 16:21:25.422203,762536,1609506748767078,4348679174,0.813984,0.181536,-0.388448,-16.05625,61.075,34.25625,-33.424,17.752,-75.688,concentric,4,5.0,28192.0,32446.0,98418.0,74716.0,25825.0,39768.0,40770.0,41595.0,17755.0,13195.0
2026-05-06 16:21:25.424802,762537,1609506748775978,4348687918,0.813984,0.181536,-0.388448,-18.6725,58.49375,32.795002,-33.424,17.752,-75.688,concentric,4,5.0,28192.0,32446.0,98418.0,74716.0,25825.0,39768.0,40770.0,41595.0,17755.0,13195.0
2026-05-06 16:21:25.427298,762538,1609506748790572,4348702904,0.79056,0.23424,-0.357216,-14.77875,58.61625,35.2975,-33.056,18.616001,-74.992004,concentric,4,5.0,28192.0,32446.0,98418.0,74716.0,25825.0,39768.0,40770.0,41595.0,17755.0,13195.0
2026-05-06 16:21:25.429727,762539,1609506748799507,4348711619,0.79056,0.23424,-0.357216,-0.8925,57.93375,35.420002,-33.056,18.616001,-74.992004,concentric,4,5.0,28192.0,32446.0,98418.0,74716.0,25825.0,39768.0,40770.0,41595.0,17755.0,13195.0
2026-05-06 16:21:25.432198,762540,1609506748814008,4348726513,0.796416,0.247904,-0.337696,0.93625,56.56875,33.5125,-33.168003,18.816,-74.304,concentric,4,5.0,28192.0,32446.0,98418.0,74716.0,25825.0,39768.0,40770.0,41595.0,17755.0,13195.0
2026-05-06 16:21:25.434636,762541,1609506748822985,4348735400,0.796416,0.247904,-0.337696,-5.29375,51.9225,32.1125,-33.168003,18.816,-74.304,concentric,4,5.0,28192.0,32446.0,98418.0,74716.0,25825.0,39768.0,40770.0,41595.0,17755.0,13195.0
2026-05-06 16:21:25.437135,762542,1609506748837471,4348748284,0.821792,0.255712,-0.359168,-9.59875,49.420002,29.70625,-33.136,18.84,-74.104004,concentric,4,5.0,28192.0,32446.0,98418.0,74716.0,25825.0,39768.0,40770.0,41595.0,17755.0,13195.0
2026-05-06 16:21:25.439655,762543,1609506748846700,4348759097,0.813984,0.183488,-0.247904,-13.20375,46.795002,27.0725,-33.048,19.296001,-71.264,concentric,4,5.0,28192.0,32446.0,98418.0,74716.0,25825.0,39768.0,40770.0,41595.0,17755.0,13195.0
2026-05-06 16:21:25.469715,762554,1609506748855877,4348767870,0.813984,0.183488,-0.247904,-14.28875,44.23125,23.79125,-33.048,19.296001,-71.264,concentric,4,5.0,27646.0,32337.0,94552.0,74839.0,25404.0,39691.0,39065.0,41690.0,17432.0,13150.0
2026-05-06 16:21:25.472177,762555,1609506748870559,4348782808,0.841312,0.140544,-0.2928,-15.9425,42.30625,22.82875,-32.792,19.496,-71.952,concentric,4,5.0,27646.0,32337.0,94552.0,74839.0,25404.0,39691.0,39065.0,41690.0,17432.0,13150.0
2026-05-06 16:21:25.474766,762556,1609506748879530,4348791568,0.841312,0.140544,-0.2928,-17.272501,39.8475,23.52875,-32.792,19.496,-71.952,concentric,4,5.0,27646.0,32337.0,94552.0,74839.0,25404.0,39691.0,39065.0,41690.0,17432.0,13150.0
2026-05-06 16:21:25.477211,762557,1609506748894318,4348806930,0.84912,0.160064,-0.284992,-14.6825,38.12375,26.25875,-32.968002,17.888,-71.624,concentric,4,5.0,27646.0,32337.0,94552.0,74839.0,25404.0,39691.0,39065.0,41690.0,17432.0,13150.0
2026-05-06 16:21:25.479735,762558,1609506748903549,4348815749,0.84912,0.160064,-0.284992,-7.90125,36.365,25.05125,-32.968002,17.888,-71.624,concentric,4,5.0,27646.0,32337.0,94552.0,74839.0,25404.0,39691.0,39065.0,41690.0,17432.0,13150.0
2026-05-06 16:21:25.483529,762559,1609506748912544,4348824542,0.81008,0.162016,-0.255712,-9.68625,36.11125,23.178751,-32.800003,18.216002,-71.208,concentric,4,5.0,27646.0,32337.0,94552.0,74839.0,25404.0,39691.0,39065.0,41690.0,17432.0,13150.0
2026-05-06 16:21:25.528557,762560,1609506748927078,4348839651,0.841312,0.173728,-0.25376,-12.25,33.6,24.5525,-32.464,20.592001,-72.07201,concentric,4,5.0,27646.0,32337.0,94552.0,74839.0,25404.0,39691.0,39065.0,41690.0,17432.0,13150.0
2026-05-06 16:21:25.531013,762561,1609506748936101,4348848382,0.841312,0.173728,-0.25376,-11.62875,31.15875,24.43,-32.464,20.592001,-72.07201,concentric,4,5.0,27646.0,32337.0,94552.0,74839.0,25404.0,39691.0,39065.0,41690.0,17432.0,13150.0
2026-05-06 16:21:25.563515,762572,1609506748950598,4348863248,0.853024,0.119072,-0.284992,-8.14625,28.46375,23.4325,-32.592003,21.048,-72.264,concentric,4,5.0,26306.0,31820.0,90791.0,73848.0,24228.0,39186.0,37247.0,41242.0,16568.0,12882.0
2026-05-06 16:21:25.565969,762573,1609506748960066,4348871949,0.853024,0.119072,-0.284992,-7.665,27.83375,19.985,-32.592003,21.048,-72.264,concentric,4,5.0,26306.0,31820.0,90791.0,73848.0,24228.0,39186.0,37247.0,41242.0,16568.0,12882.0
2026-05-06 16:21:25.568479,762574,1609506748969002,4348880774,0.825696,0.148352,-0.247904,-11.62,26.460001,22.4525,-32.112003,21.064001,-71.584,concentric,4,5.0,26306.0,31820.0,90791.0,73848.0,24228.0,39186.0,37247.0,41242.0,16568.0,12882.0
2026-05-06 16:21:25.570964,762575,1609506748983580,4348895790,0.825696,0.148352,-0.247904,-9.415,24.5175,20.85125,-32.112003,21.064001,-71.584,concentric,4,5.0,26306.0,31820.0,90791.0,73848.0,24228.0,39186.0,37247.0,41242.0,16568.0,12882.0
2026-05-06 16:21:25.573498,762576,1609506748992539,4348904524,0.815936,0.15616,-0.2928,-4.99625,23.21375,17.5,-32.288002,21.2,-71.552,concentric,4,5.0,26306.0,31820.0,90791.0,73848.0,24228.0,39186.0,37247.0,41242.0,16568.0,12882.0
2026-05-06 16:21:25.579907,762577,1609506749007100,4348919439,0.847168,0.113216,-0.22448,-4.59375,22.1375,17.52625,-31.984001,21.584002,-72.048004,concentric,4,5.0,26306.0,31820.0,90791.0,73848.0,24228.0,39186.0,37247.0,41242.0,16568.0,12882.0
2026-05-06 16:21:25.588535,762578,1609506749016065,4348928186,0.847168,0.113216,-0.22448,-4.80375,20.23875,14.0175,-31.984001,21.584002,-72.048004,concentric,4,5.0,26306.0,31820.0,90791.0,73848.0,24228.0,39186.0,37247.0,41242.0,16568.0,12882.0
2026-05-06 16:21:25.597354,762579,1609506749025014,4348936910,0.847168,0.113216,-0.22448,-8.4525,19.3025,13.15125,-31.984001,21.584002,-72.048004,concentric,4,5.0,26306.0,31820.0,90791.0,73848.0,24228.0,39186.0,37247.0,41242.0,16568.0,12882.0
2026-05-06 16:21:25.611213,762580,1609506749039511,4348951882,0.847168,0.11712,-0.208864,-6.37,17.6575,12.215,-32.136,21.296001,-71.048004,concentric,4,5.0,26306.0,31820.0,90791.0,73848.0,24228.0,39186.0,37247.0,41242.0,16568.0,12882.0
2026-05-06 16:21:25.624953,762581,1609506749048442,4348960613,0.825696,0.128832,-0.275232,-4.55,15.53125,9.0125,-32.264,19.992,-67.632,concentric,4,5.0,26306.0,31820.0,90791.0,73848.0,24228.0,39186.0,37247.0,41242.0,16568.0,12882.0
2026-05-06 16:21:25.654791,762592,1609506749063114,4348975785,0.825696,0.128832,-0.275232,-6.81625,13.85125,8.54,-32.264,19.992,-67.632,concentric,4,5.0,25079.0,31783.0,88906.0,72021.0,23155.0,39135.0,36322.0,40287.0,15821.0,12837.0
2026-05-06 16:21:25.657346,762593,1609506749072147,4348984604,0.821792,0.111264,-0.210816,-8.47875,11.87375,7.83125,-32.112003,19.992,-70.088005,concentric,4,5.0,25079.0,31783.0,88906.0,72021.0,23155.0,39135.0,36322.0,40287.0,15821.0,12837.0
2026-05-06 16:21:25.662377,762594,1609506749086645,4348997452,0.821792,0.111264,-0.201056,-7.09625,10.05375,3.99875,-32.112003,19.992,-70.088005,concentric,4,5.0,25079.0,31783.0,88906.0,72021.0,23155.0,39135.0,36322.0,40287.0,15821.0,12837.0
2026-05-06 16:21:25.668564,762595,1609506749095937,4349008365,0.835456,0.12688,-0.201056,-6.405,7.04375,2.2925,-31.968002,20.720001,-72.12,concentric,4,5.0,25079.0,31783.0,88906.0,72021.0,23155.0,39135.0,36322.0,40287.0,15821.0,12837.0
2026-05-06 16:21:25.677375,762596,1609506749104925,4349017082,0.835456,0.12688,-0.201056,-6.46625,4.71625,1.54875,-31.968002,20.720001,-72.12,concentric,4,5.0,25079.0,31783.0,88906.0,72021.0,23155.0,39135.0,36322.0,40287.0,15821.0,12837.0
2026-05-06 16:21:25.717278,762597,1609506749119415,4349031997,0.8296,0.113216,-0.240096,-5.97625,2.03,-0.525,-32.048,21.384,-69.560005,concentric,4,5.0,25079.0,31783.0,88906.0,72021.0,23155.0,39135.0,36322.0,40287.0,15821.0,12837.0
2026-05-06 16:21:25.742299,762598,1609506749128405,4349040727,0.808128,0.099552,-0.251808,-10.19375,-0.06125,-2.10875,-32.168003,20.072,-70.872,concentric,4,5.0,25079.0,31783.0,88906.0,72021.0,23155.0,39135.0,36322.0,40287.0,15821.0,12837.0
2026-05-06 16:21:25.767298,762599,1609506749142830,4349053582,0.808128,0.099552,-0.251808,-11.698751,-2.23125,-2.5025,-32.168003,20.072,-70.872,concentric,4,5.0,25079.0,31783.0,88906.0,72021.0,23155.0,39135.0,36322.0,40287.0,15821.0,12837.0
2026-05-06 16:21:25.819759,762610,1609506749152543,4349064435,0.841312,0.089792,-0.193248,-9.275,-5.31125,-5.06625,-31.808,21.664001,-71.552,eccentric,4,5.0,24641.0,31787.0,88776.0,71279.0,22749.0,39133.0,36265.0,39879.0,15567.0,12834.0
2026-05-06 16:21:25.822254,762611,1609506749161703,4349073147,0.841312,0.089792,-0.193248,-6.5625,-7.595,-5.565,-31.808,21.664001,-71.552,eccentric,4,5.0,24641.0,31787.0,88776.0,71279.0,22749.0,39133.0,36265.0,39879.0,15567.0,12834.0
2026-05-06 16:21:25.824739,762612,1609506749176211,4349088113,0.86864,0.10736,-0.21472,-3.33375,-9.42375,-4.8825,-31.968002,21.568,-71.944,eccentric,4,5.0,24641.0,31787.0,88776.0,71279.0,22749.0,39133.0,36265.0,39879.0,15567.0,12834.0
2026-05-06 16:21:25.827183,762613,1609506749185212,4349096800,0.86864,0.10736,-0.21472,-2.7825,-10.8675,-6.58875,-31.968002,21.568,-71.944,eccentric,4,5.0,24641.0,31787.0,88776.0,71279.0,22749.0,39133.0,36265.0,39879.0,15567.0,12834.0
2026-05-06 16:21:25.829642,762614,1609506749199770,4349111762,0.812032,0.124928,-0.26352,-6.01125,-11.99625,-6.78125,-30.944002,21.136002,-71.336006,eccentric,4,5.0,24641.0,31787.0,88776.0,71279.0,22749.0,39133.0,36265.0,39879.0,15567.0,12834.0
2026-05-06 16:21:25.832156,762615,1609506749209128,4349120624,0.851072,0.099552,-0.244,-6.41375,-14.00875,-8.82,-31.536001,20.984001,-75.880005,eccentric,4,5.0,24641.0,31787.0,88776.0,71279.0,22749.0,39133.0,36265.0,39879.0,15567.0,12834.0
2026-05-06 16:21:25.834643,762616,1609506749218116,4349129338,0.851072,0.099552,-0.244,-5.145,-16.26625,-11.24375,-31.536001,20.984001,-75.880005,eccentric,4,5.0,24641.0,31787.0,88776.0,71279.0,22749.0,39133.0,36265.0,39879.0,15567.0,12834.0
2026-05-06 16:21:25.837202,762617,1609506749232638,4349144290,0.864736,0.124928,-0.218624,-4.48,-18.29625,-10.99,-31.872002,19.872002,-71.128006,eccentric,4,5.0,24641.0,31787.0,88776.0,71279.0,22749.0,39133.0,36265.0,39879.0,15567.0,12834.0
2026-05-06 16:21:25.839688,762618,1609506749241621,4349153136,0.864736,0.124928,-0.218624,-3.07125,-19.4775,-11.5325,-31.872002,19.872002,-71.128006,eccentric,4,5.0,24641.0,31787.0,88776.0,71279.0,22749.0,39133.0,36265.0,39879.0,15567.0,12834.0
2026-05-06 16:21:25.870930,762629,1609506749256743,4349168417,0.856928,0.124928,-0.259616,-2.0475,-20.265,-12.2325,-31.848001,18.776001,-71.22401,eccentric,4,5.0,24789.0,32288.0,89652.0,70682.0,22910.0,39663.0,36733.0,39582.0,15682.0,13092.0
2026-05-06 16:21:25.873456,762630,1609506749265762,4349177201,0.856928,0.124928,-0.259616,-4.655,-20.86875,-12.5825,-31.848001,18.776001,-71.22401,eccentric,4,5.0,24789.0,32288.0,89652.0,70682.0,22910.0,39663.0,36733.0,39582.0,15682.0,13092.0
2026-05-06 16:21:25.875907,762631,1609506749274709,4349186083,0.843264,0.111264,-0.230336,-3.3075,-22.522501,-14.20125,-31.368002,18.608002,-70.912,eccentric,4,5.0,24789.0,32288.0,89652.0,70682.0,22910.0,39663.0,36733.0,39582.0,15682.0,13092.0
2026-05-06 16:21:25.878432,762632,1609506749289357,4349201130,0.86864,0.134688,-0.203008,0.3325,-23.49375,-15.72375,-32.216003,17.768002,-71.184006,eccentric,4,5.0,24789.0,32288.0,89652.0,70682.0,22910.0,39663.0,36733.0,39582.0,15682.0,13092.0
2026-05-06 16:21:25.880917,762633,1609506749298272,4349209932,0.86864,0.134688,-0.203008,0.49875,-25.025,-15.05875,-32.216003,17.768002,-71.184006,eccentric,4,5.0,24789.0,32288.0,89652.0,70682.0,22910.0,39663.0,36733.0,39582.0,15682.0,13092.0
2026-05-06 16:21:25.884613,762634,1609506749313341,4349225141,0.84912,0.142496,-0.294752,2.07375,-27.317501,-15.81125,-31.560001,20.064001,-73.22401,eccentric,4,5.0,24789.0,32288.0,89652.0,70682.0,22910.0,39663.0,36733.0,39582.0,15682.0,13092.0
2026-05-06 16:21:25.893466,762635,1609506749322304,4349234052,0.84912,0.142496,-0.294752,1.9775,-29.67125,-18.54125,-31.560001,20.064001,-73.22401,eccentric,4,5.0,24789.0,32288.0,89652.0,70682.0,22910.0,39663.0,36733.0,39582.0,15682.0,13092.0
2026-05-06 16:21:25.902245,762636,1609506749331348,4349242904,0.796416,0.154208,-0.324032,-1.5225,-30.5375,-18.38375,-31.496002,20.808,-73.328,eccentric,4,5.0,24789.0,32288.0,89652.0,70682.0,22910.0,39663.0,36733.0,39582.0,15682.0,13092.0
2026-05-06 16:21:25.936744,762637,1609506749345884,4349257820,0.796416,0.154208,-0.324032,-1.14625,-31.84125,-19.80125,-31.496002,20.808,-73.328,eccentric,4,5.0,24789.0,32288.0,89652.0,70682.0,22910.0,39663.0,36733.0,39582.0,15682.0,13092.0
2026-05-06 16:21:25.969659,762648,1609506749354948,4349266736,0.835456,0.109312,-0.288896,3.71,-34.18625,-23.16125,-31.896002,20.192001,-74.008,eccentric,4,5.0,25329.0,32884.0,91248.0,70582.0,23441.0,40363.0,37536.0,39575.0,16046.0,13385.0
2026-05-06 16:21:25.975906,762649,1609506749369506,4349281756,0.83936,0.15616,-0.275232,6.72875,-36.855,-22.3825,-31.704002,20.12,-74.064,eccentric,4,5.0,25329.0,32884.0,91248.0,70582.0,23441.0,40363.0,37536.0,39575.0,16046.0,13385.0
2026-05-06 16:21:25.978468,762650,1609506749378468,4349290542,0.83936,0.15616,-0.275232,7.60375,-38.68375,-21.72625,-31.704002,20.12,-74.064,eccentric,4,5.0,25329.0,32884.0,91248.0,70582.0,23441.0,40363.0,37536.0,39575.0,16046.0,13385.0
2026-05-06 16:21:25.980889,762651,1609506749387434,4349299289,0.83936,0.15616,-0.275232,9.5025,-41.43125,-24.40375,-31.704002,20.12,-74.064,eccentric,4,5.0,25329.0,32884.0,91248.0,70582.0,23441.0,40363.0,37536.0,39575.0,16046.0,13385.0
2026-05-06 16:21:25.983456,762652,1609506749402050,4349314228,0.823744,0.173728,-0.347456,11.52375,-43.19875,-27.685,-32.024002,18.152,-73.064,eccentric,4,5.0,25329.0,32884.0,91248.0,70582.0,23441.0,40363.0,37536.0,39575.0,16046.0,13385.0
2026-05-06 16:21:25.985869,762653,1609506749410972,4349322929,0.782752,0.1952,-0.3904,8.1025,-43.4,-29.61875,-32.24,17.624,-73.90401,eccentric,4,5.0,25329.0,32884.0,91248.0,70582.0,23441.0,40363.0,37536.0,39575.0,16046.0,13385.0
2026-05-06 16:21:26.006020,762654,1609506749425516,4349337908,0.782752,0.1952,-0.3904,3.98125,-45.395,-31.01,-32.24,17.624,-73.90401,eccentric,4,5.0,25329.0,32884.0,91248.0,70582.0,23441.0,40363.0,37536.0,39575.0,16046.0,13385.0
2026-05-06 16:21:26.008546,762655,1609506749434458,4349346658,0.81984,0.1464,-0.357216,5.06625,-46.8825,-33.7575,-32.152,18.848001,-75.11201,eccentric,4,5.0,25329.0,32884.0,91248.0,70582.0,23441.0,40363.0,37536.0,39575.0,16046.0,13385.0
2026-05-06 16:21:26.022167,762656,1609506749449002,4349361571,0.81984,0.1464,-0.357216,8.07625,-48.16875,-35.27125,-32.152,18.848001,-75.11201,eccentric,4,5.0,25329.0,32884.0,91248.0,70582.0,23441.0,40363.0,37536.0,39575.0,16046.0,13385.0
2026-05-06 16:21:26.049912,762667,1609506749458059,4349370467,0.802272,0.18544,-0.3416,7.35,-48.4575,-34.09,-32.104,19.072,-76.192,eccentric,4,5.0,25737.0,33154.0,92935.0,70902.0,23927.0,40745.0,38409.0,39765.0,16393.0,13568.0
2026-05-06 16:21:26.052515,762668,1609506749467171,4349379274,0.802272,0.18544,-0.3416,5.9675,-49.83125,-34.326252,-32.104,19.072,-76.192,eccentric,4,5.0,25737.0,33154.0,92935.0,70902.0,23927.0,40745.0,38409.0,39765.0,16393.0,13568.0
2026-05-06 16:21:26.055048,762669,1609506749481711,4349394240,0.786656,0.242048,-0.406016,3.0625,-51.4675,-35.7525,-32.4,18.720001,-76.048004,eccentric,4,5.0,25737.0,33154.0,92935.0,70902.0,23927.0,40745.0,38409.0,39765.0,16393.0,13568.0
2026-05-06 16:21:26.063845,762670,1609506749490842,4349403034,0.757376,0.222528,-0.388448,2.87,-52.82375,-37.77375,-32.336002,18.128,-77.008,eccentric,4,5.0,25737.0,33154.0,92935.0,70902.0,23927.0,40745.0,38409.0,39765.0,16393.0,13568.0
2026-05-06 16:21:26.098841,762671,1609506749505416,4349417923,0.757376,0.222528,-0.388448,4.55875,-54.95875,-41.2125,-32.336002,18.128,-77.008,eccentric,4,5.0,25737.0,33154.0,92935.0,70902.0,23927.0,40745.0,38409.0,39765.0,16393.0,13568.0
2026-05-06 16:21:26.127075,762672,1609506749514520,4349426613,0.77104,0.197152,-0.394304,4.94375,-57.56625,-43.46125,-32.176003,17.672,-77.536,eccentric,4,5.0,25737.0,33154.0,92935.0,70902.0,23927.0,40745.0,38409.0,39765.0,16393.0,13568.0
2026-05-06 16:21:26.148814,762673,1609506749523552,4349435313,0.77104,0.197152,-0.394304,3.5525,-59.08,-41.475,-32.176003,17.672,-77.536,eccentric,4,5.0,25737.0,33154.0,92935.0,70902.0,23927.0,40745.0,38409.0,39765.0,16393.0,13568.0
2026-05-06 16:21:26.173918,762674,1609506749538069,4349450231,0.745664,0.236192,-0.484096,1.6625,-60.27,-41.25625,-32.4,17.568,-78.07201,eccentric,4,5.0,25737.0,33154.0,92935.0,70902.0,23927.0,40745.0,38409.0,39765.0,16393.0,13568.0
2026-05-06 16:21:26.190188,762675,1609506749546996,4349458956,0.745664,0.236192,-0.484096,1.54875,-60.8475,-41.30875,-32.4,17.568,-78.07201,eccentric,4,5.0,25737.0,33154.0,92935.0,70902.0,23927.0,40745.0,38409.0,39765.0,16393.0,13568.0
2026-05-06 16:21:26.221458,762687,1609506749561580,4349473967,0.720288,0.25376,-0.474336,5.03125,-60.1475,-41.02,-32.04,17.104,-78.784004,eccentric,4,5.0,26684.0,32974.0,94621.0,72858.0,24808.0,40636.0,39291.0,40849.0,16987.0,13532.0
2026-05-06 16:21:26.223265,762688,1609506749570558,4349482661,0.720288,0.247904,-0.452864,10.66625,-59.63125,-42.8925,-32.04,17.104,-80.832,eccentric,4,5.0,26684.0,32974.0,94621.0,72858.0,24808.0,40636.0,39291.0,40849.0,16987.0,13532.0
2026-05-06 16:21:26.224684,762689,1609506749579486,4349491374,0.700768,0.247904,-0.452864,14.28,-59.80625,-42.857502,-32.328003,17.296001,-80.912,eccentric,4,5.0,26684.0,32974.0,94621.0,72858.0,24808.0,40636.0,39291.0,40849.0,16987.0,13532.0
2026-05-06 16:21:26.227481,762690,1609506749593987,4349506371,0.698816,0.277184,-0.437248,12.4425,-61.10125,-40.705,-32.280003,16.648,-79.992004,eccentric,4,5.0,26684.0,32974.0,94621.0,72858.0,24808.0,40636.0,39291.0,40849.0,16987.0,13532.0
2026-05-06 16:21:26.230093,762691,1609506749602919,4349515088,0.698816,0.277184,-0.437248,9.26625,-63.07,-41.51875,-32.280003,16.648,-79.992004,eccentric,4,5.0,26684.0,32974.0,94621.0,72858.0,24808.0,40636.0,39291.0,40849.0,16987.0,13532.0
2026-05-06 16:21:26.232554,762692,1609506749617421,4349530029,0.6832,0.306464,-0.542656,6.79875,-65.4325,-43.68,-32.024002,16.320002,-80.104004,eccentric,4,5.0,26684.0,32974.0,94621.0,72858.0,24808.0,40636.0,39291.0,40849.0,16987.0,13532.0
2026-05-06 16:21:26.237596,762693,1609506749626399,4349538817,0.6832,0.306464,-0.542656,5.64375,-66.77125,-43.75875,-32.024002,16.320002,-80.104004,eccentric,4,5.0,26684.0,32974.0,94621.0,72858.0,24808.0,40636.0,39291.0,40849.0,16987.0,13532.0
2026-05-06 16:21:26.240119,762694,1609506749641025,4349553787,0.626592,0.271328,-0.528992,12.04,-67.6375,-45.91125,-31.776001,12.56,-78.952,eccentric,4,5.0,26684.0,32974.0,94621.0,72858.0,24808.0,40636.0,39291.0,40849.0,16987.0,13532.0
2026-05-06 16:21:26.242736,762695,1609506749650094,4349562544,0.626592,0.271328,-0.528992,14.88375,-69.06375,-47.55625,-31.776001,12.56,-78.952,eccentric,4,5.0,26684.0,32974.0,94621.0,72858.0,24808.0,40636.0,39291.0,40849.0,16987.0,13532.0
2026-05-06 16:21:26.275046,762706,1609506749659183,4349571328,0.677344,0.247904,-0.470432,15.8725,-70.28,-46.1825,-32.016003,12.072001,-81.01601,eccentric,4,5.0,27616.0,32993.0,97574.0,74435.0,25673.0,40650.0,40746.0,41707.0,17591.0,13590.0
2026-05-06 16:21:26.277464,762707,1609506749673772,4349586291,0.59536,0.335744,-0.651968,11.33125,-72.56375,-46.3225,-31.584002,13.392,-81.04,eccentric,4,5.0,27616.0,32993.0,97574.0,74435.0,25673.0,40650.0,40746.0,41707.0,17591.0,13590.0
2026-05-06 16:21:26.279977,762708,1609506749682715,4349595004,0.59536,0.335744,-0.651968,5.18,-76.0375,-45.57,-31.584002,13.392,-81.04,eccentric,4,5.0,27616.0,32993.0,97574.0,74435.0,25673.0,40650.0,40746.0,41707.0,17591.0,13590.0
2026-05-06 16:21:26.282636,762709,1609506749697320,4349609918,0.56608,0.335744,-0.675392,6.4925,-77.74375,-46.9175,-31.424002,13.208,-82.136,eccentric,4,5.0,27616.0,32993.0,97574.0,74435.0,25673.0,40650.0,40746.0,41707.0,17591.0,13590.0
2026-05-06 16:21:26.285132,762710,1609506749706392,4349618745,0.56608,0.335744,-0.675392,11.38375,-79.61625,-47.81,-31.424002,13.208,-82.136,eccentric,4,5.0,27616.0,32993.0,97574.0,74435.0,25673.0,40650.0,40746.0,41707.0,17591.0,13590.0
2026-05-06 16:21:26.287643,762711,1609506749715338,4349627477,0.521184,0.335744,-0.591456,15.365,-80.61375,-45.92875,-30.864002,13.152,-82.68,eccentric,4,5.0,27616.0,32993.0,97574.0,74435.0,25673.0,40650.0,40746.0,41707.0,17591.0,13590.0
2026-05-06 16:21:26.304906,762712,1609506749729875,4349642390,0.521184,0.335744,-0.591456,21.51625,-82.53,-45.3075,-30.864002,13.152,-82.68,eccentric,4,5.0,27616.0,32993.0,97574.0,74435.0,25673.0,40650.0,40746.0,41707.0,17591.0,13590.0
2026-05-06 16:21:26.312404,762713,1609506749738785,4349651093,0.521184,0.36112,-0.636352,17.675,-85.30375,-45.7625,-30.400002,14.400001,-85.088005,eccentric,4,5.0,27616.0,32993.0,97574.0,74435.0,25673.0,40650.0,40746.0,41707.0,17591.0,13590.0
2026-05-06 16:21:26.325064,762714,1609506749753343,4349666047,0.528992,0.378688,-0.784704,5.32,-88.83,-43.23375,-29.848001,13.76,-84.408005,eccentric,4,5.0,27616.0,32993.0,97574.0,74435.0,25673.0,40650.0,40746.0,41707.0,17591.0,13590.0
2026-05-06 16:21:26.367750,762725,1609506749762398,4349674920,0.528992,0.378688,-0.784704,-0.41125,-90.0025,-43.18125,-29.848001,13.76,-84.408005,eccentric,4,5.0,28443.0,32844.0,99733.0,75411.0,26393.0,40481.0,41657.0,42208.0,18104.0,13526.0
2026-05-06 16:21:26.370228,762726,1609506749777025,4349687782,0.472384,0.411872,-0.802272,-2.275,-90.02875,-44.45875,-29.208002,11.192,-84.464005,eccentric,4,5.0,28443.0,32844.0,99733.0,75411.0,26393.0,40481.0,41657.0,42208.0,18104.0,13526.0
2026-05-06 16:21:26.375265,762727,1609506749786260,4349698628,0.472384,0.411872,-0.802272,3.05375,-88.725,-43.9075,-29.208002,11.192,-84.464005,eccentric,4,5.0,28443.0,32844.0,99733.0,75411.0,26393.0,40481.0,41657.0,42208.0,18104.0,13526.0
2026-05-06 16:21:26.377751,762728,1609506749795215,4349707356,0.45872,0.378688,-0.583648,14.4025,-86.19625,-43.085,-28.544,13.256001,-87.144005,eccentric,4,5.0,28443.0,32844.0,99733.0,75411.0,26393.0,40481.0,41657.0,42208.0,18104.0,13526.0
2026-05-06 16:21:26.381507,762729,1609506749809730,4349722384,0.45872,0.378688,-0.583648,17.7975,-87.2375,-43.5225,-28.544,13.256001,-87.144005,eccentric,4,5.0,28443.0,32844.0,99733.0,75411.0,26393.0,40481.0,41657.0,42208.0,18104.0,13526.0
2026-05-06 16:21:26.395315,762730,1609506749818651,4349731098,0.447008,0.472384,-0.796416,6.8075,-88.83,-42.21,-28.072,12.712001,-88.096,eccentric,4,5.0,28443.0,32844.0,99733.0,75411.0,26393.0,40481.0,41657.0,42208.0,18104.0,13526.0
2026-05-06 16:21:26.407253,762731,1609506749833162,4349743957,0.382592,0.4392,-0.845216,-3.71,-90.06375,-40.17125,-27.576002,12.768001,-87.336006,eccentric,4,5.0,28443.0,32844.0,99733.0,75411.0,26393.0,40481.0,41657.0,42208.0,18104.0,13526.0
2026-05-06 16:21:26.414922,762732,1609506749842373,4349754715,0.382592,0.4392,-0.845216,-8.00625,-89.88875,-42.420002,-27.576002,12.768001,-87.336006,eccentric,4,5.0,28443.0,32844.0,99733.0,75411.0,26393.0,40481.0,41657.0,42208.0,18104.0,13526.0
2026-05-06 16:21:26.423853,762733,1609506749851334,4349763514,0.382592,0.4392,-0.845216,-8.8725,-90.545,-43.3125,-27.576002,12.768001,-87.336006,eccentric,4,5.0,28443.0,32844.0,99733.0,75411.0,26393.0,40481.0,41657.0,42208.0,18104.0,13526.0
2026-05-06 16:21:26.504274,762744,1609506749865990,4349778596,0.329888,0.398208,-0.739808,-7.53375,-91.2975,-42.2975,-26.888,11.744,-89.75201,eccentric,4,5.0,28802.0,32445.0,99510.0,76276.0,26706.0,40167.0,41567.0,42666.0,18333.0,13369.0
2026-05-06 16:21:26.504827,762745,1609506749875050,4349787346,0.353312,0.41968,-0.862784,-4.62875,-92.70625,-41.37875,-26.176,9.784,-88.984,eccentric,4,5.0,28802.0,32445.0,99510.0,76276.0,26706.0,40167.0,41567.0,42666.0,18333.0,13369.0
2026-05-06 16:21:26.507303,762746,1609506749889550,4349802280,0.353312,0.41968,-0.862784,-10.5875,-95.48875,-42.16625,-26.176,9.784,-88.984,eccentric,4,5.0,28802.0,32445.0,99510.0,76276.0,26706.0,40167.0,41567.0,42666.0,18333.0,13369.0
2026-05-06 16:21:26.510037,762747,1609506749898466,4349810982,0.316224,0.482144,-0.85888,-18.66375,-94.8325,-39.34,-25.144001,11.200001,-91.592,eccentric,4,5.0,28802.0,32445.0,99510.0,76276.0,26706.0,40167.0,41567.0,42666.0,18333.0,13369.0
2026-05-06 16:21:26.512556,762748,1609506749913089,4349823847,0.316224,0.450912,-0.880352,-9.3275,-93.6425,-41.4575,-25.144001,11.200001,-91.592,eccentric,4,5.0,28802.0,32445.0,99510.0,76276.0,26706.0,40167.0,41567.0,42666.0,18333.0,13369.0
2026-05-06 16:21:26.515037,762749,1609506749922280,4349834790,0.28304,0.450912,-0.880352,-4.935,-94.10625,-44.42375,-24.392002,11.168,-91.928,eccentric,4,5.0,28802.0,32445.0,99510.0,76276.0,26706.0,40167.0,41567.0,42666.0,18333.0,13369.0
2026-05-06 16:21:26.517574,762750,1609506749931255,4349843513,0.28304,0.450912,-0.880352,-10.5175,-94.63125,-39.235,-24.392002,11.168,-91.928,eccentric,4,5.0,28802.0,32445.0,99510.0,76276.0,26706.0,40167.0,41567.0,42666.0,18333.0,13369.0
2026-05-06 16:21:26.520065,762751,1609506749945823,4349858521,0.220576,0.456768,-0.755424,-4.8825,-94.45625,-38.255,-23.592001,7.920001,-90.984,eccentric,4,5.0,28802.0,32445.0,99510.0,76276.0,26706.0,40167.0,41567.0,42666.0,18333.0,13369.0
2026-05-06 16:21:26.528917,762752,1609506749954911,4349867221,0.220576,0.452864,-0.853024,2.77375,-95.36625,-42.97125,-23.056002,6.976,-93.80801,eccentric,4,5.0,28802.0,32445.0,99510.0,76276.0,26706.0,40167.0,41567.0,42666.0,18333.0,13369.0
2026-05-06 16:21:26.556188,762763,1609506749969645,4349882350,0.220576,0.452864,-0.853024,-3.73625,-97.67625,-42.2275,-23.056002,6.976,-93.80801,eccentric,4,5.0,28677.0,31745.0,97582.0,76872.0,26621.0,39627.0,40804.0,43012.0,18283.0,13072.0
2026-05-06 16:21:26.558787,762764,1609506749978616,4349891294,0.257664,0.474336,-0.99552,-7.2625,-96.99375,-41.27375,-21.688002,9.416,-95.01601,eccentric,4,5.0,28677.0,31745.0,97582.0,76872.0,26621.0,39627.0,40804.0,43012.0,18283.0,13072.0
2026-05-06 16:21:26.561218,762765,1609506749987671,4349900055,0.257664,0.474336,-0.99552,-7.46375,-94.35125,-44.625,-21.688002,9.416,-95.01601,eccentric,4,5.0,28677.0,31745.0,97582.0,76872.0,26621.0,39627.0,40804.0,43012.0,18283.0,13072.0
2026-05-06 16:21:26.577661,762766,1609506750002231,4349913005,0.199104,0.462624,-0.94672,-4.50625,-92.40875,-45.955,-21.088001,9.496,-96.04,eccentric,4,5.0,28677.0,31745.0,97582.0,76872.0,26621.0,39627.0,40804.0,43012.0,18283.0,13072.0
2026-05-06 16:21:26.586860,762767,1609506750011519,4349923795,0.199104,0.462624,-0.94672,1.72375,-91.4375,-45.85875,-21.088001,9.496,-96.04,eccentric,4,5.0,28677.0,31745.0,97582.0,76872.0,26621.0,39627.0,40804.0,43012.0,18283.0,13072.0
2026-05-06 16:21:26.617574,762768,1609506750026131,4349938744,0.13664,0.437248,-0.763232,6.4575,-92.8025,-46.34,-19.776001,7.264,-95.216,eccentric,4,5.0,28677.0,31745.0,97582.0,76872.0,26621.0,39627.0,40804.0,43012.0,18283.0,13072.0
2026-05-06 16:21:26.620113,762769,1609506750035241,4349947477,0.033184,0.349408,-0.85888,6.09875,-97.92125,-47.0575,-18.752,8.848001,-96.128006,eccentric,4,5.0,28677.0,31745.0,97582.0,76872.0,26621.0,39627.0,40804.0,43012.0,18283.0,13072.0
2026-05-06 16:21:26.622597,762770,1609506750044276,4349956172,0.033184,0.349408,-0.85888,0.20125,-104.64125,-50.0675,-18.752,8.848001,-96.128006,eccentric,4,5.0,28677.0,31745.0,97582.0,76872.0,26621.0,39627.0,40804.0,43012.0,18283.0,13072.0
2026-05-06 16:21:26.653996,762781,1609506750059187,4349971270,-0.001952,0.433344,-0.972096,-8.68,-108.47375,-52.3425,-17.664001,7.32,-98.552,eccentric,4,5.0,28368.0,31131.0,97918.0,77840.0,26282.0,39095.0,40937.0,43548.0,18018.0,12792.0
2026-05-06 16:21:26.656461,762782,1609506750068271,4349980136,-0.001952,0.433344,-0.972096,-0.0175,-107.45,-51.54625,-17.664001,7.32,-98.552,eccentric,4,5.0,28368.0,31131.0,97918.0,77840.0,26282.0,39095.0,40937.0,43548.0,18018.0,12792.0
2026-05-06 16:21:26.659036,762783,1609506750082813,4349995124,-0.07808,0.421632,-0.882304,13.43125,-105.805,-50.575,-16.328001,6.984,-97.54401,eccentric,4,5.0,28368.0,31131.0,97918.0,77840.0,26282.0,39095.0,40937.0,43548.0,18018.0,12792.0
2026-05-06 16:21:26.665280,762784,1609506750091817,4350003835,-0.07808,0.421632,-0.882304,15.09375,-105.0875,-48.1425,-16.328001,6.984,-97.54401,eccentric,4,5.0,28368.0,31131.0,97918.0,77840.0,26282.0,39095.0,40937.0,43548.0,18018.0,12792.0
2026-05-06 16:21:26.674033,762785,1609506750100782,4350012652,-0.095648,0.413824,-0.909632,4.29625,-105.7875,-44.3275,-14.864,5.872,-97.592,eccentric,4,5.0,28368.0,31131.0,97918.0,77840.0,26282.0,39095.0,40937.0,43548.0,18018.0,12792.0
2026-05-06 16:21:26.689245,762786,1609506750115383,4350027612,-0.183488,0.386496,-0.901824,-1.155,-107.73,-43.575,-13.504001,8.192,-100.01601,eccentric,4,5.0,28368.0,31131.0,97918.0,77840.0,26282.0,39095.0,40937.0,43548.0,18018.0,12792.0
2026-05-06 16:21:26.702570,762787,1609506750124497,4350036352,-0.183488,0.386496,-0.901824,2.44125,-108.955,-45.10625,-13.504001,8.192,-100.01601,eccentric,4,5.0,28368.0,31131.0,97918.0,77840.0,26282.0,39095.0,40937.0,43548.0,18018.0,12792.0
2026-05-06 16:21:26.711199,762788,1609506750138996,4350051294,-0.18544,0.472384,-0.952576,12.565,-108.4825,-43.63625,-11.960001,8.496,-100.608,eccentric,4,5.0,28368.0,31131.0,97918.0,77840.0,26282.0,39095.0,40937.0,43548.0,18018.0,12792.0
2026-05-06 16:21:26.720176,762789,1609506750147944,4350060079,-0.18544,0.472384,-0.952576,18.795,-108.38625,-41.545002,-11.960001,8.496,-100.608,eccentric,4,5.0,28368.0,31131.0,97918.0,77840.0,26282.0,39095.0,40937.0,43548.0,18018.0,12792.0
2026-05-06 16:21:26.731534,762790,1609506750156912,4350068795,-0.193248,0.521184,-0.95648,19.81875,-106.855,-38.66625,-10.432,8.384001,-99.28001,eccentric,4,5.0,28368.0,31131.0,97918.0,77840.0,26282.0,39095.0,40937.0,43548.0,18018.0,12792.0
2026-05-06 16:21:26.761468,762801,1609506750171553,4350083791,-0.193248,0.521184,-0.95648,20.9475,-104.8075,-38.185,-10.432,8.384001,-99.28001,eccentric,4,5.0,28325.0,31277.0,102628.0,77403.0,26161.0,39104.0,43137.0,43290.0,17982.0,12845.0
2026-05-06 16:21:26.763948,762802,1609506750180626,4350092522,-0.16592,0.40016,-0.843264,12.24125,-105.9975,-39.7075,-8.856,6.088,-100.448006,eccentric,4,5.0,28325.0,31277.0,102628.0,77403.0,26161.0,39104.0,43137.0,43290.0,17982.0,12845.0
2026-05-06 16:21:26.766463,762803,1609506750195208,4350107628,-0.16592,0.413824,-0.962336,3.54375,-109.22625,-43.925,-8.856,6.088,-100.448006,eccentric,4,5.0,28325.0,31277.0,102628.0,77403.0,26161.0,39104.0,43137.0,43290.0,17982.0,12845.0
2026-05-06 16:21:26.777598,762804,1609506750204162,4350116348,-0.238144,0.413824,-0.962336,2.345,-111.81625,-47.985,-7.8,6.56,-99.90401,eccentric,4,5.0,28325.0,31277.0,102628.0,77403.0,26161.0,39104.0,43137.0,43290.0,17982.0,12845.0
2026-05-06 16:21:26.808846,762805,1609506750218742,4350131393,-0.218624,0.493856,-0.960384,3.1675,-113.715004,-48.1425,-5.824,8.384001,-102.992004,eccentric,4,5.0,28325.0,31277.0,102628.0,77403.0,26161.0,39104.0,43137.0,43290.0,17982.0,12845.0
2026-05-06 16:21:26.833811,762806,1609506750227662,4350140148,-0.218624,0.493856,-0.960384,7.0175,-114.275,-46.6375,-5.824,8.384001,-102.992004,eccentric,4,5.0,28325.0,31277.0,102628.0,77403.0,26161.0,39104.0,43137.0,43290.0,17982.0,12845.0
2026-05-06 16:21:26.858853,762807,1609506750236678,4350148855,-0.316224,0.464576,-0.806176,8.0675,-117.22375,-45.8325,-3.888,8.056001,-104.22401,eccentric,4,5.0,28325.0,31277.0,102628.0,77403.0,26161.0,39104.0,43137.0,43290.0,17982.0,12845.0
2026-05-06 16:21:26.874293,762808,1609506750251196,4350163827,-0.316224,0.464576,-0.806176,4.6375,-123.69875,-48.43125,-3.888,8.056001,-104.22401,eccentric,4,5.0,28325.0,31277.0,102628.0,77403.0,26161.0,39104.0,43137.0,43290.0,17982.0,12845.0
2026-05-06 16:21:26.903970,762819,1609506750260664,4350172571,-0.368928,0.3416,-0.776896,-1.63625,-131.04875,-49.98,-2.104,7.6,-103.560005,eccentric,4,5.0,28283.0,32100.0,109027.0,75763.0,26171.0,39710.0,46201.0,42297.0,18055.0,13198.0
2026-05-06 16:21:26.906466,762820,1609506750275283,4350187550,-0.368928,0.3416,-0.776896,-2.975,-137.5675,-52.64,-2.104,7.6,-103.560005,eccentric,4,5.0,28283.0,32100.0,109027.0,75763.0,26171.0,39710.0,46201.0,42297.0,18055.0,13198.0
2026-05-06 16:21:26.908978,762821,1609506750284177,4350196238,-0.528992,0.411872,-0.794464,0.98,-143.7625,-55.2475,0.32,7.832,-104.504005,eccentric,4,5.0,28283.0,32100.0,109027.0,75763.0,26171.0,39710.0,46201.0,42297.0,18055.0,13198.0
2026-05-06 16:21:26.911259,762822,1609506750293232,4350205140,-0.528992,0.411872,-0.794464,15.60125,-145.34625,-57.365,0.32,7.832,-104.504005,eccentric,4,5.0,28283.0,32100.0,109027.0,75763.0,26171.0,39710.0,46201.0,42297.0,18055.0,13198.0
2026-05-06 16:21:26.913692,762823,1609506750307763,4350220161,-0.52704,0.450912,-0.85888,14.93625,-149.10875,-60.15625,2.496,7.84,-103.952,eccentric,4,5.0,28283.0,32100.0,109027.0,75763.0,26171.0,39710.0,46201.0,42297.0,18055.0,13198.0
2026-05-06 16:21:26.916476,762824,1609506750316758,4350228930,-0.618784,0.335744,-0.882304,-3.64875,-155.8725,-63.4025,4.896,7.84,-103.176,eccentric,4,5.0,28283.0,32100.0,109027.0,75763.0,26171.0,39710.0,46201.0,42297.0,18055.0,13198.0
2026-05-06 16:21:26.918986,762825,1609506750331322,4350243876,-0.618784,0.335744,-0.882304,-6.08125,-158.0075,-69.2475,4.896,7.84,-103.176,eccentric,4,5.0,28283.0,32100.0,109027.0,75763.0,26171.0,39710.0,46201.0,42297.0,18055.0,13198.0
2026-05-06 16:21:26.921496,762826,1609506750340320,4350252637,-0.772992,0.32208,-0.8296,-0.3325,-158.22626,-68.3725,6.992,8.336,-104.01601,eccentric,4,5.0,28283.0,32100.0,109027.0,75763.0,26171.0,39710.0,46201.0,42297.0,18055.0,13198.0
2026-05-06 16:21:26.927621,762827,1609506750354828,4350267568,-0.772992,0.32208,-0.8296,7.49875,-157.0625,-65.7125,6.992,8.336,-104.01601,eccentric,4,5.0,28283.0,32100.0,109027.0,75763.0,26171.0,39710.0,46201.0,42297.0,18055.0,13198.0
2026-05-06 16:21:26.957702,762838,1609506750363886,4350276456,-0.84912,0.35136,-0.812032,6.92125,-155.365,-63.638752,9.336,7.24,-101.688,eccentric,4,5.0,29576.0,33237.0,114088.0,74582.0,27475.0,40804.0,48488.0,41591.0,19066.0,13789.0
2026-05-06 16:21:26.962376,762839,1609506750372895,4350285209,-0.84912,0.35136,-0.812032,0.72625,-151.97874,-59.05375,9.336,7.24,-101.688,eccentric,4,5.0,29576.0,33237.0,114088.0,74582.0,27475.0,40804.0,48488.0,41591.0,19066.0,13789.0
2026-05-06 16:21:26.962543,762840,1609506750387563,4350300191,-0.892064,0.411872,-0.815936,-0.175,-146.65,-58.58125,11.664001,6.216,-102.088005,eccentric,4,5.0,29576.0,33237.0,114088.0,74582.0,27475.0,40804.0,48488.0,41591.0,19066.0,13789.0
2026-05-06 16:21:26.971336,762841,1609506750396704,4350308926,-0.892064,0.411872,-0.827648,-7.81375,-141.84625,-56.83125,11.664001,6.216,-102.088005,eccentric,4,5.0,29576.0,33237.0,114088.0,74582.0,27475.0,40804.0,48488.0,41591.0,19066.0,13789.0
2026-05-06 16:21:26.982330,762842,1609506750411256,4350323898,-0.88816,0.372832,-0.827648,-12.5475,-135.4675,-57.0325,13.880001,8.424001,-104.30401,eccentric,4,5.0,29576.0,33237.0,114088.0,74582.0,27475.0,40804.0,48488.0,41591.0,19066.0,13789.0
2026-05-06 16:21:26.993664,762843,1609506750420172,4350332630,-0.895968,0.337696,-0.886208,-15.75875,-129.87625,-55.93,15.456,8.384001,-103.184006,eccentric,4,5.0,29576.0,33237.0,114088.0,74582.0,27475.0,40804.0,48488.0,41591.0,19066.0,13789.0
2026-05-06 16:21:27.001311,762844,1609506750429097,4350341340,-0.895968,0.337696,-0.886208,-17.35125,-125.43125,-53.03375,15.456,8.384001,-103.184006,eccentric,4,5.0,29576.0,33237.0,114088.0,74582.0,27475.0,40804.0,48488.0,41591.0,19066.0,13789.0
2026-05-06 16:21:27.017717,762845,1609506750443716,4350356240,-0.894016,0.398208,-0.745664,-12.792501,-121.21375,-51.17875,17.344002,6.072001,-100.96001,eccentric,4,5.0,29576.0,33237.0,114088.0,74582.0,27475.0,40804.0,48488.0,41591.0,19066.0,13789.0
2026-05-06 16:21:27.023981,762846,1609506750452675,4350365024,-0.894016,0.398208,-0.745664,-3.64875,-113.88125,-48.55375,17.344002,6.072001,-100.96001,eccentric,4,5.0,29576.0,33237.0,114088.0,74582.0,27475.0,40804.0,48488.0,41591.0,19066.0,13789.0
2026-05-06 16:21:27.060106,762857,1609506750467323,4350380101,-0.874496,0.489952,-0.767136,-4.2,-108.01,-46.305,19.136002,6.272,-102.37601,eccentric,4,5.0,31386.0,34079.0,117493.0,74393.0,29372.0,41800.0,49967.0,41440.0,20620.0,14320.0
2026-05-06 16:21:27.060490,762858,1609506750476323,4350388842,-0.874496,0.489952,-0.767136,-12.4775,-102.92625,-45.2725,19.136002,6.272,-102.37601,eccentric,4,5.0,31386.0,34079.0,117493.0,74393.0,29372.0,41800.0,49967.0,41440.0,20620.0,14320.0
2026-05-06 16:21:27.061204,762859,1609506750485266,4350397689,-0.866688,0.464576,-0.786656,-17.535,-99.505,-47.13625,20.144001,5.136,-101.192,eccentric,4,5.0,31386.0,34079.0,117493.0,74393.0,29372.0,41800.0,49967.0,41440.0,20620.0,14320.0
2026-05-06 16:21:27.070675,762860,1609506750499848,4350410832,-0.85888,0.437248,-0.786656,-25.2,-97.57125,-47.94125,22.016,6.824,-100.728004,eccentric,4,5.0,31386.0,34079.0,117493.0,74393.0,29372.0,41800.0,49967.0,41440.0,20620.0,14320.0
2026-05-06 16:21:27.083806,762861,1609506750509280,4350421661,-0.85888,0.437248,-0.786656,-29.39125,-96.1275,-47.03125,22.016,6.824,-100.728004,eccentric,4,5.0,31386.0,34079.0,117493.0,74393.0,29372.0,41800.0,49967.0,41440.0,20620.0,14320.0
2026-05-06 16:21:27.104788,762862,1609506750523891,4350436568,-0.841312,0.46848,-0.821792,-27.965,-94.683754,-45.75375,23.400002,8.632,-101.30401,eccentric,4,5.0,31386.0,34079.0,117493.0,74393.0,29372.0,41800.0,49967.0,41440.0,20620.0,14320.0
2026-05-06 16:21:27.107201,762863,1609506750532817,4350445272,-0.841312,0.46848,-0.821792,-23.178751,-94.33375,-44.31,23.400002,8.632,-101.30401,eccentric,4,5.0,31386.0,34079.0,117493.0,74393.0,29372.0,41800.0,49967.0,41440.0,20620.0,14320.0
2026-05-06 16:21:27.121036,762864,1609506750547353,4350458199,-0.851072,0.417728,-0.733952,-18.03375,-95.2875,-43.47,24.824001,8.496,-101.248,eccentric,4,5.0,31386.0,34079.0,117493.0,74393.0,29372.0,41800.0,49967.0,41440.0,20620.0,14320.0
2026-05-06 16:21:27.129836,762865,1609506750556639,4350468966,-0.851072,0.417728,-0.733952,-17.255,-95.2525,-43.1025,24.824001,8.496,-101.248,eccentric,4,5.0,31386.0,34079.0,117493.0,74393.0,29372.0,41800.0,49967.0,41440.0,20620.0,14320.0
2026-05-06 16:21:27.159926,762876,1609506750565885,4350477901,-0.903776,0.427488,-0.747616,-22.995,-94.12375,-41.74625,25.712002,7.768001,-100.608,eccentric,4,5.0,31523.0,34069.0,116894.0,74558.0,29524.0,41887.0,49728.0,41508.0,20705.0,14343.0
2026-05-06 16:21:27.162402,762877,1609506750580445,4350492880,-0.923296,0.406016,-0.659776,-28.02625,-91.69125,-39.69875,27.12,6.888001,-99.392006,eccentric,4,5.0,31523.0,34069.0,116894.0,74558.0,29524.0,41887.0,49728.0,41508.0,20705.0,14343.0
2026-05-06 16:21:27.165080,762878,1609506750589375,4350501608,-0.923296,0.406016,-0.659776,-27.43125,-87.54375,-37.607502,27.12,6.888001,-99.392006,eccentric,4,5.0,31523.0,34069.0,116894.0,74558.0,29524.0,41887.0,49728.0,41508.0,20705.0,14343.0
2026-05-06 16:21:27.200149,762879,1609506750604062,4350516666,-0.952576,0.37088,-0.651968,-29.3825,-83.405,-35.8225,28.36,6.096,-97.776,eccentric,4,5.0,31523.0,34069.0,116894.0,74558.0,29524.0,41887.0,49728.0,41508.0,20705.0,14343.0
2026-05-06 16:21:27.225121,762880,1609506750613067,4350525372,-0.952576,0.37088,-0.651968,-28.91,-79.485,-34.16,28.36,6.096,-97.776,eccentric,4,5.0,31523.0,34069.0,116894.0,74558.0,29524.0,41887.0,49728.0,41508.0,20705.0,14343.0
2026-05-06 16:21:27.251924,762881,1609506750621987,4350534069,-0.968192,0.359168,-0.661728,-28.0175,-75.8275,-33.18875,29.472002,8.168,-99.456,eccentric,4,5.0,31523.0,34069.0,116894.0,74558.0,29524.0,41887.0,49728.0,41508.0,20705.0,14343.0
2026-05-06 16:21:27.258789,762882,1609506750636481,4350548993,-0.968192,0.359168,-0.661728,-26.71375,-73.2025,-31.29875,29.472002,8.168,-99.456,eccentric,4,5.0,31523.0,34069.0,116894.0,74558.0,29524.0,41887.0,49728.0,41508.0,20705.0,14343.0
2026-05-06 16:21:27.261298,762883,1609506750645377,4350557838,-0.958432,0.404064,-0.681248,-25.89125,-70.9275,-29.942501,30.600002,8.488001,-98.648,eccentric,4,5.0,31523.0,34069.0,116894.0,74558.0,29524.0,41887.0,49728.0,41508.0,20705.0,14343.0
2026-05-06 16:21:27.263811,762884,1609506750659867,4350570677,-0.960384,0.337696,-0.56608,-27.973751,-70.385,-28.72625,31.192001,8.64,-100.648,eccentric,4,5.0,31523.0,34069.0,116894.0,74558.0,29524.0,41887.0,49728.0,41508.0,20705.0,14343.0
2026-05-06 16:21:27.291391,762895,1609506750669262,4350581509,-0.960384,0.337696,-0.56608,-29.96875,-70.90125,-28.25375,31.192001,8.64,-100.648,eccentric,4,5.0,32881.0,34982.0,121793.0,74112.0,30867.0,42893.0,51836.0,41244.0,21705.0,14873.0
2026-05-06 16:21:27.293762,762896,1609506750678251,4350590278,-0.960384,0.337696,-0.56608,-25.22625,-71.09375,-30.05625,31.192001,8.64,-100.648,eccentric,4,5.0,32881.0,34982.0,121793.0,74112.0,30867.0,42893.0,51836.0,41244.0,21705.0,14873.0
2026-05-06 16:21:27.296159,762897,1609506750692756,4350605195,-0.991616,0.327936,-0.472384,-21.51625,-70.245,-30.6425,32.280003,8.84,-96.16,eccentric,4,5.0,32881.0,34982.0,121793.0,74112.0,30867.0,42893.0,51836.0,41244.0,21705.0,14873.0
2026-05-06 16:21:27.298678,762898,1609506750701759,4350613970,-1.020896,0.376736,-0.415776,-23.72125,-67.73375,-30.58125,32.552002,6.76,-96.464005,eccentric,4,5.0,32881.0,34982.0,121793.0,74112.0,30867.0,42893.0,51836.0,41244.0,21705.0,14873.0
2026-05-06 16:21:27.302660,762899,1609506750716282,4350628929,-1.020896,0.376736,-0.415776,-27.85125,-65.56375,-30.47625,32.552002,6.76,-96.464005,eccentric,4,5.0,32881.0,34982.0,121793.0,74112.0,30867.0,42893.0,51836.0,41244.0,21705.0,14873.0
2026-05-06 16:21:27.303793,762900,1609506750725275,4350637663,-1.022848,0.300608,-0.413824,-31.68375,-61.495,-29.5925,33.872,6.144,-96.04,eccentric,4,5.0,32881.0,34982.0,121793.0,74112.0,30867.0,42893.0,51836.0,41244.0,21705.0,14873.0
2026-05-06 16:21:27.310080,762901,1609506750739783,4350650585,-0.993568,0.201056,-0.482144,-34.69375,-56.06125,-27.25625,33.992,6.336,-95.07201,eccentric,4,5.0,32881.0,34982.0,121793.0,74112.0,30867.0,42893.0,51836.0,41244.0,21705.0,14873.0
