pc_time,serial_num,sensor_ts,host_ts,ax,ay,az,gx,gy,gz,mx,my,mz,phase,rpe,weight_kg,ppg_a,ppg_b,ppg_c,ppg_d,ppg_e,ppg_f,ppg_g,ppg_h,ppg_i,ppg_j
2026-05-06 16:21:30.568645,763507,1609506753954156,4353866540,-1.01504,0.206912,-0.339648,-27.72,0.2625,4.025,41.176003,10.544001,-90.592,concentric,4,5.0,26215.0,30340.0,98885.0,75123.0,24817.0,38551.0,41492.0,42142.0,17118.0,12587.0
2026-05-06 16:21:30.571325,763508,1609506753963093,4353875245,-1.01504,0.206912,-0.339648,-22.61875,6.9475,7.5075,41.176003,10.544001,-90.592,concentric,4,5.0,26215.0,30340.0,98885.0,75123.0,24817.0,38551.0,41492.0,42142.0,17118.0,12587.0
2026-05-06 16:21:30.573687,763509,1609506753977613,4353890219,-1.032608,0.25376,-0.35136,-15.715,14.02625,11.8475,40.984,10.608001,-90.504005,concentric,4,5.0,26215.0,30340.0,98885.0,75123.0,24817.0,38551.0,41492.0,42142.0,17118.0,12587.0
2026-05-06 16:21:30.601095,763520,1609506753986642,4353899067,-1.022848,0.325984,-0.349408,-11.34,20.65875,15.365,40.872,10.008,-91.07201,concentric,4,5.0,25972.0,30091.0,98132.0,74842.0,24604.0,38313.0,41222.0,42017.0,16951.0,12490.0
2026-05-06 16:21:30.603593,763521,1609506753995579,4353907754,-1.022848,0.325984,-0.349408,-10.85875,26.10125,17.115,40.872,10.008,-91.07201,concentric,4,5.0,25972.0,30091.0,98132.0,74842.0,24604.0,38313.0,41222.0,42017.0,16951.0,12490.0
2026-05-06 16:21:30.606289,763522,1609506754010077,4353922697,-1.028704,0.281088,-0.316224,-13.405,31.14125,19.6,40.808002,7.648,-90.648,concentric,4,5.0,25972.0,30091.0,98132.0,74842.0,24604.0,38313.0,41222.0,42017.0,16951.0,12490.0
2026-05-06 16:21:30.608814,763523,1609506754019139,4353931462,-1.028704,0.281088,-0.316224,-16.37125,35.56,22.81125,40.808002,7.648,-90.648,concentric,4,5.0,25972.0,30091.0,98132.0,74842.0,24604.0,38313.0,41222.0,42017.0,16951.0,12490.0
2026-05-06 16:21:30.611177,763524,1609506754033825,4353946394,-1.040416,0.16592,-0.396256,-16.59,38.78875,24.59625,40.192,6.912,-90.79201,concentric,4,5.0,25972.0,30091.0,98132.0,74842.0,24604.0,38313.0,41222.0,42017.0,16951.0,12490.0
2026-05-06 16:21:30.615142,763525,1609506754042922,4353955143,-1.040416,0.16592,-0.396256,-11.55,44.905,28.48125,40.192,6.912,-90.79201,concentric,4,5.0,25972.0,30091.0,98132.0,74842.0,24604.0,38313.0,41222.0,42017.0,16951.0,12490.0
2026-05-06 16:21:30.647741,763526,1609506754057474,4353970125,-1.077504,0.261568,-0.407968,-2.93125,50.951252,33.215,39.608,6.72,-91.16801,concentric,4,5.0,25972.0,30091.0,98132.0,74842.0,24604.0,38313.0,41222.0,42017.0,16951.0,12490.0
2026-05-06 16:21:30.650216,763527,1609506754066390,4353978825,-1.091168,0.407968,-0.347456,4.90875,56.07875,34.475,38.896004,8.160001,-93.392006,concentric,4,5.0,25972.0,30091.0,98132.0,74842.0,24604.0,38313.0,41222.0,42017.0,16951.0,12490.0
2026-05-06 16:21:30.652734,763528,1609506754075319,4353987502,-1.091168,0.407968,-0.347456,4.75125,60.55,34.04625,38.896004,8.160001,-93.392006,concentric,4,5.0,25972.0,30091.0,98132.0,74842.0,24604.0,38313.0,41222.0,42017.0,16951.0,12490.0
2026-05-06 16:21:30.679978,763539,1609506754090011,4354002710,-1.057984,0.382592,-0.33184,-0.83125,64.35625,35.88375,38.384003,7.400001,-94.192,concentric,4,5.0,26051.0,31018.0,100481.0,72983.0,24646.0,39170.0,42492.0,40933.0,16998.0,12917.0
2026-05-06 16:21:30.682389,763540,1609506754099004,4354011530,-1.057984,0.382592,-0.33184,-5.18875,68.915,39.03375,38.384003,7.400001,-94.192,concentric,4,5.0,26051.0,31018.0,100481.0,72983.0,24646.0,39170.0,42492.0,40933.0,16998.0,12917.0
2026-05-06 16:21:30.684839,763541,1609506754113512,4354024421,-1.046272,0.308416,-0.3416,-3.5,73.71,42.315,37.704002,6.424,-94.864006,concentric,4,5.0,26051.0,31018.0,100481.0,72983.0,24646.0,39170.0,42492.0,40933.0,16998.0,12917.0
2026-05-06 16:21:30.695215,763542,1609506754123039,4354035240,-1.046272,0.308416,-0.3416,-0.84875,79.6075,45.920002,37.704002,6.424,-94.864006,concentric,4,5.0,26051.0,31018.0,100481.0,72983.0,24646.0,39170.0,42492.0,40933.0,16998.0,12917.0
2026-05-06 16:21:30.708926,763543,1609506754131997,4354043948,-1.028704,0.318176,-0.421632,-3.80625,84.76125,49.48125,36.800003,6.048,-97.288,concentric,4,5.0,26051.0,31018.0,100481.0,72983.0,24646.0,39170.0,42492.0,40933.0,16998.0,12917.0
2026-05-06 16:21:30.722736,763544,1609506754146551,4354058938,-1.01504,0.353312,-0.40016,-6.1425,89.32,52.3075,35.264,3.6,-95.26401,concentric,4,5.0,26051.0,31018.0,100481.0,72983.0,24646.0,39170.0,42492.0,40933.0,16998.0,12917.0
2026-05-06 16:21:30.728920,763545,1609506754155493,4354067633,-1.01504,0.353312,-0.40016,-2.975,95.305,55.46625,35.264,3.6,-95.26401,concentric,4,5.0,26051.0,31018.0,100481.0,72983.0,24646.0,39170.0,42492.0,40933.0,16998.0,12917.0
2026-05-06 16:21:30.744884,763546,1609506754169981,4354082658,-1.0736,0.447008,-0.47824,-0.7,100.66,58.52,33.848003,3.224,-98.36001,concentric,4,5.0,26051.0,31018.0,100481.0,72983.0,24646.0,39170.0,42492.0,40933.0,16998.0,12917.0
2026-05-06 16:21:30.753815,763547,1609506754178897,4354091382,-1.0736,0.447008,-0.47824,0.14,104.545,59.8675,33.848003,3.224,-98.36001,concentric,4,5.0,26051.0,31018.0,100481.0,72983.0,24646.0,39170.0,42492.0,40933.0,16998.0,12917.0
2026-05-06 16:21:30.781475,763558,1609506754188022,4354100307,-1.059936,0.46848,-0.50752,0.175,107.738754,59.0625,32.272003,3.4,-98.920006,concentric,4,5.0,26218.0,31418.0,99604.0,72204.0,24841.0,39665.0,42206.0,40483.0,17161.0,13158.0
2026-05-06 16:21:30.783972,763559,1609506754202645,4354115252,-1.059936,0.46848,-0.50752,1.74125,111.79875,60.48,32.272003,3.4,-98.920006,concentric,4,5.0,26218.0,31418.0,99604.0,72204.0,24841.0,39665.0,42206.0,40483.0,17161.0,13158.0
2026-05-06 16:21:30.786498,763560,1609506754211705,4354123960,-1.056032,0.40992,-0.488,4.29625,115.325,63.21875,30.680002,3.568,-100.240005,concentric,4,5.0,26218.0,31418.0,99604.0,72204.0,24841.0,39665.0,42206.0,40483.0,17161.0,13158.0
2026-05-06 16:21:30.797710,763561,1609506754226235,4354137001,-1.013088,0.421632,-0.515328,6.895,120.085,67.1475,28.512001,1.24,-98.184006,concentric,4,5.0,26218.0,31418.0,99604.0,72204.0,24841.0,39665.0,42206.0,40483.0,17161.0,13158.0
2026-05-06 16:21:30.808861,763562,1609506754235453,4354147791,-1.013088,0.421632,-0.515328,11.7425,125.58,71.02375,28.512001,1.24,-98.184006,concentric,4,5.0,26218.0,31418.0,99604.0,72204.0,24841.0,39665.0,42206.0,40483.0,17161.0,13158.0
2026-05-06 16:21:30.824929,763563,1609506754250041,4354162778,-0.976,0.480192,-0.593408,13.79875,128.17,72.70375,26.872002,2.2,-101.96001,concentric,4,5.0,26218.0,31418.0,99604.0,72204.0,24841.0,39665.0,42206.0,40483.0,17161.0,13158.0
2026-05-06 16:21:30.833676,763564,1609506754258966,4354171477,-0.976,0.480192,-0.593408,12.792501,131.04875,73.22875,26.872002,2.2,-101.96001,concentric,4,5.0,26218.0,31418.0,99604.0,72204.0,24841.0,39665.0,42206.0,40483.0,17161.0,13158.0
2026-05-06 16:21:30.867729,763565,1609506754267946,4354180188,-1.016992,0.464576,-0.57584,17.70125,133.74374,75.20625,24.784,2.472,-102.688,concentric,4,5.0,26218.0,31418.0,99604.0,72204.0,24841.0,39665.0,42206.0,40483.0,17161.0,13158.0
2026-05-06 16:21:30.943880,763576,1609506754282644,4354195088,-1.016992,0.464576,-0.57584,27.23,137.515,76.72875,24.784,2.472,-102.688,concentric,4,5.0,26679.0,31642.0,99783.0,72367.0,25233.0,39888.0,42406.0,40537.0,17440.0,13285.0
2026-05-06 16:21:30.946381,763577,1609506754291625,4354203894,-0.983808,0.523136,-0.62464,29.225,141.56625,77.6125,22.208,1.824,-103.248,concentric,4,5.0,26679.0,31642.0,99783.0,72367.0,25233.0,39888.0,42406.0,40537.0,17440.0,13285.0
2026-05-06 16:21:30.948887,763578,1609506754306106,4354218780,-0.983808,0.523136,-0.708576,27.76375,145.355,78.6975,22.208,1.824,-103.248,concentric,4,5.0,26679.0,31642.0,99783.0,72367.0,25233.0,39888.0,42406.0,40537.0,17440.0,13285.0
2026-05-06 16:21:30.951307,763579,1609506754315028,4354227553,-0.944768,0.560224,-0.708576,27.5275,148.25125,77.76125,19.880001,2.312,-103.608,concentric,4,5.0,26679.0,31642.0,99783.0,72367.0,25233.0,39888.0,42406.0,40537.0,17440.0,13285.0
2026-05-06 16:21:30.953862,763580,1609506754323948,4354236265,-0.944768,0.560224,-0.708576,30.19625,150.185,77.02625,19.880001,2.312,-103.608,concentric,4,5.0,26679.0,31642.0,99783.0,72367.0,25233.0,39888.0,42406.0,40537.0,17440.0,13285.0
2026-05-06 16:21:30.956322,763581,1609506754338550,4354251247,-0.942816,0.47824,-0.69296,32.8825,152.55624,75.25,17.432001,2.4,-104.424,concentric,4,5.0,26679.0,31642.0,99783.0,72367.0,25233.0,39888.0,42406.0,40537.0,17440.0,13285.0
2026-05-06 16:21:30.958840,763582,1609506754347496,4354259945,-0.860832,0.462624,-0.696864,29.8025,154.5775,76.335,14.56,2.488,-105.024,concentric,4,5.0,26679.0,31642.0,99783.0,72367.0,25233.0,39888.0,42406.0,40537.0,17440.0,13285.0
2026-05-06 16:21:30.961453,763583,1609506754362124,4354272995,-0.860832,0.462624,-0.696864,29.54,157.3425,77.6825,14.56,2.488,-105.024,concentric,4,5.0,26679.0,31642.0,99783.0,72367.0,25233.0,39888.0,42406.0,40537.0,17440.0,13285.0
2026-05-06 16:21:30.966453,763584,1609506754371606,4354283941,-0.833504,0.5368,-0.864736,27.18625,158.9175,75.67875,12.032001,0.528,-103.024,concentric,4,5.0,26679.0,31642.0,99783.0,72367.0,25233.0,39888.0,42406.0,40537.0,17440.0,13285.0
2026-05-06 16:21:30.968969,763585,1609506754380572,4354292661,-0.833504,0.5368,-0.864736,30.03875,160.85126,75.7225,12.032001,0.528,-103.024,concentric,4,5.0,26679.0,31642.0,99783.0,72367.0,25233.0,39888.0,42406.0,40537.0,17440.0,13285.0
2026-05-06 16:21:30.996267,763596,1609506754395182,4354307785,-0.825696,0.538752,-0.823744,41.83375,163.5025,75.775,9.008,0.064,-103.296005,concentric,4,5.0,27052.0,31631.0,100786.0,72534.0,25575.0,39842.0,42869.0,40609.0,17676.0,13278.0
2026-05-06 16:21:30.998744,763597,1609506754404123,4354316584,-0.825696,0.538752,-0.823744,47.4775,167.1075,75.55625,9.008,0.064,-103.296005,concentric,4,5.0,27052.0,31631.0,100786.0,72534.0,25575.0,39842.0,42869.0,40609.0,17676.0,13278.0
2026-05-06 16:21:31.001245,763598,1609506754418671,4354329489,-0.763232,0.548512,-0.856928,42.51625,169.25125,76.7375,6.168,0.336,-102.896,concentric,4,5.0,27052.0,31631.0,100786.0,72534.0,25575.0,39842.0,42869.0,40609.0,17676.0,13278.0
2026-05-06 16:21:31.003714,763599,1609506754428074,4354340286,-0.732,0.638304,-0.895968,32.38375,171.38625,77.1925,3.672,0.696,-104.536,concentric,4,5.0,27052.0,31631.0,100786.0,72534.0,25575.0,39842.0,42869.0,40609.0,17676.0,13278.0
2026-05-06 16:21:31.011863,763600,1609506754437071,4354349023,-0.732,0.638304,-0.895968,27.8775,175.98875,77.67375,3.672,0.696,-104.536,concentric,4,5.0,27052.0,31631.0,100786.0,72534.0,25575.0,39842.0,42869.0,40609.0,17676.0,13278.0
2026-05-06 16:21:31.032440,763601,1609506754451612,4354363955,-0.691008,0.597312,-0.962336,22.23375,180.88875,78.4,0.896,4.944,-103.84801,concentric,4,5.0,27052.0,31631.0,100786.0,72534.0,25575.0,39842.0,42869.0,40609.0,17676.0,13278.0
2026-05-06 16:21:31.034874,763602,1609506754460509,4354372639,-0.691008,0.597312,-0.962336,11.69,182.62125,79.73,0.896,4.944,-103.84801,concentric,4,5.0,27052.0,31631.0,100786.0,72534.0,25575.0,39842.0,42869.0,40609.0,17676.0,13278.0
2026-05-06 16:21:31.051302,763603,1609506754475043,4354387532,-0.484096,0.372832,-0.9272,-0.14875,181.08125,80.92875,-2.128,2.736,-103.240005,concentric,4,5.0,27052.0,31631.0,100786.0,72534.0,25575.0,39842.0,42869.0,40609.0,17676.0,13278.0
2026-05-06 16:21:31.085134,763614,1609506754483961,4354396224,-0.484096,0.372832,-0.9272,1.68,178.0275,79.51125,-2.128,2.736,-103.240005,concentric,4,5.0,26721.0,31070.0,101832.0,72398.0,25200.0,39161.0,43166.0,40571.0,17457.0,12982.0
2026-05-06 16:21:31.087448,763615,1609506754498746,4354411203,-0.427488,0.45872,-0.83936,15.39125,176.88126,80.395,-4.304,4.864,-103.648,concentric,4,5.0,26721.0,31070.0,101832.0,72398.0,25200.0,39161.0,43166.0,40571.0,17457.0,12982.0
2026-05-06 16:21:31.089887,763616,1609506754507681,4354419995,-0.427488,0.45872,-0.952576,28.7525,177.0125,83.32625,-4.304,4.864,-103.648,concentric,4,5.0,26721.0,31070.0,101832.0,72398.0,25200.0,39161.0,43166.0,40571.0,17457.0,12982.0
2026-05-06 16:21:31.092370,763617,1609506754516635,4354428745,-0.357216,0.691008,-0.952576,26.7225,176.47,85.19875,-6.960001,4.68,-102.664,concentric,4,5.0,26721.0,31070.0,101832.0,72398.0,25200.0,39161.0,43166.0,40571.0,17457.0,12982.0
2026-05-06 16:21:31.106802,763618,1609506754531373,4354443721,-0.314272,0.597312,-0.909632,30.49375,175.48125,83.685,-9.208,4.784,-99.664,concentric,4,5.0,26721.0,31070.0,101832.0,72398.0,25200.0,39161.0,43166.0,40571.0,17457.0,12982.0
2026-05-06 16:21:31.112430,763619,1609506754540436,4354452424,-0.314272,0.597312,-0.909632,33.25,175.80501,79.96625,-9.208,4.784,-99.664,concentric,4,5.0,26721.0,31070.0,101832.0,72398.0,25200.0,39161.0,43166.0,40571.0,17457.0,12982.0
2026-05-06 16:21:31.146414,763620,1609506754554935,4354467362,-0.288896,0.435296,-0.890112,25.20875,173.97626,76.09875,-11.568001,4.48,-98.41601,concentric,4,5.0,26721.0,31070.0,101832.0,72398.0,25200.0,39161.0,43166.0,40571.0,17457.0,12982.0
2026-05-06 16:21:31.148968,763621,1609506754563860,4354476069,-0.288896,0.435296,-0.890112,15.575,171.63126,72.45,-11.568001,4.48,-98.41601,concentric,4,5.0,26721.0,31070.0,101832.0,72398.0,25200.0,39161.0,43166.0,40571.0,17457.0,12982.0
2026-05-06 16:21:31.151484,763622,1609506754572822,4354484824,-0.160064,0.501664,-0.9272,5.24125,170.7475,70.1925,-13.768001,7.952,-100.248,concentric,4,5.0,26721.0,31070.0,101832.0,72398.0,25200.0,39161.0,43166.0,40571.0,17457.0,12982.0
2026-05-06 16:21:31.182532,763633,1609506754587790,4354499807,-0.160064,0.501664,-0.9272,0.21875,171.08,68.74,-13.768001,7.952,-100.248,concentric,4,5.0,26181.0,30258.0,101234.0,72694.0,24721.0,38387.0,42696.0,40768.0,17130.0,12578.0
2026-05-06 16:21:31.185001,763634,1609506754596855,4354508567,-0.119072,0.534848,-0.96624,-7.02625,168.6475,65.30125,-15.472001,8.112,-99.728004,concentric,4,5.0,26181.0,30258.0,101234.0,72694.0,24721.0,38387.0,42696.0,40768.0,17130.0,12578.0
2026-05-06 16:21:31.187438,763635,1609506754611474,4354523705,-0.070272,0.523136,-0.958432,-11.165,164.57875,63.166252,-17.480001,9.048,-97.616005,concentric,4,5.0,26181.0,30258.0,101234.0,72694.0,24721.0,38387.0,42696.0,40768.0,17130.0,12578.0
2026-05-06 16:21:31.195957,763636,1609506754620584,4354532437,-0.070272,0.523136,-0.958432,-2.3975,163.73,61.62625,-17.480001,9.048,-97.616005,concentric,4,5.0,26181.0,30258.0,101234.0,72694.0,24721.0,38387.0,42696.0,40768.0,17130.0,12578.0
2026-05-06 16:21:31.202796,763637,1609506754629499,4354541299,-0.02928,0.349408,-0.929152,7.7525,165.6725,61.73125,-19.848001,7.968,-95.94401,concentric,4,5.0,26181.0,30258.0,101234.0,72694.0,24721.0,38387.0,42696.0,40768.0,17130.0,12578.0
2026-05-06 16:21:31.216323,763638,1609506754643998,4354556294,-0.02928,0.349408,-0.929152,8.09375,165.45375,60.8475,-19.848001,7.968,-95.94401,concentric,4,5.0,26181.0,30258.0,101234.0,72694.0,24721.0,38387.0,42696.0,40768.0,17130.0,12578.0
2026-05-06 16:21:31.241412,763639,1609506754652992,4354565016,-0.081984,0.452864,-0.903776,3.54375,165.52376,59.7975,-21.496,9.984,-94.968,concentric,4,5.0,26181.0,30258.0,101234.0,72694.0,24721.0,38387.0,42696.0,40768.0,17130.0,12578.0
2026-05-06 16:21:31.266452,763640,1609506754667478,4354579951,-0.081984,0.452864,-0.903776,-3.2375,165.90875,62.055,-21.496,9.984,-94.968,concentric,4,5.0,26181.0,30258.0,101234.0,72694.0,24721.0,38387.0,42696.0,40768.0,17130.0,12578.0
2026-05-06 16:21:31.291421,763641,1609506754676353,4354588704,0.080032,0.6344,-0.85888,-5.2675,169.49625,64.3475,-23.208,10.0,-94.776,concentric,4,5.0,26181.0,30258.0,101234.0,72694.0,24721.0,38387.0,42696.0,40768.0,17130.0,12578.0
2026-05-06 16:21:31.340108,763652,1609506754691197,4354601987,0.197152,0.486048,-0.772992,-25.69875,173.15375,62.01125,-24.744001,9.312,-90.344,concentric,4,5.0,26326.0,30044.0,99556.0,73321.0,24834.0,38244.0,41880.0,41163.0,17160.0,12507.0
2026-05-06 16:21:31.342844,763653,1609506754700452,4354612854,0.197152,0.486048,-0.772992,-61.3025,168.84875,59.78,-24.744001,9.312,-90.344,concentric,4,5.0,26326.0,30044.0,99556.0,73321.0,24834.0,38244.0,41880.0,41163.0,17160.0,12507.0
2026-05-06 16:21:31.347674,763654,1609506754709379,4354621618,0.197152,0.247904,-0.71248,-73.45625,159.1975,56.315,-24.744001,9.312,-90.344,concentric,4,5.0,26326.0,30044.0,99556.0,73321.0,24834.0,38244.0,41880.0,41163.0,17160.0,12507.0
2026-05-06 16:21:31.350160,763655,1609506754723977,4354636555,0.357216,0.247904,-0.71248,-56.595,152.46,56.7,-26.320002,10.008,-92.448006,concentric,4,5.0,26326.0,30044.0,99556.0,73321.0,24834.0,38244.0,41880.0,41163.0,17160.0,12507.0
2026-05-06 16:21:31.352676,763656,1609506754733030,4354645245,0.425536,0.32208,-0.745664,-27.62375,149.99251,63.67375,-27.256,9.832001,-90.304,concentric,4,5.0,26326.0,30044.0,99556.0,73321.0,24834.0,38244.0,41880.0,41163.0,17160.0,12507.0
2026-05-06 16:21:31.357659,763657,1609506754747582,4354660287,0.425536,0.32208,-0.745664,-7.945,147.3325,69.58875,-27.256,9.832001,-90.304,concentric,4,5.0,26326.0,30044.0,99556.0,73321.0,24834.0,38244.0,41880.0,41163.0,17160.0,12507.0
2026-05-06 16:21:31.359999,763658,1609506754756520,4354669044,0.452864,0.470432,-0.65392,0.91875,144.6375,72.94875,-28.416002,10.984,-88.344,concentric,4,5.0,26326.0,30044.0,99556.0,73321.0,24834.0,38244.0,41880.0,41163.0,17160.0,12507.0
2026-05-06 16:21:31.362483,763659,1609506754765540,4354677809,0.452864,0.470432,-0.65392,-2.765,140.06125,70.105,-28.416002,10.984,-88.344,concentric,4,5.0,26326.0,30044.0,99556.0,73321.0,24834.0,38244.0,41880.0,41163.0,17160.0,12507.0
2026-05-06 16:21:31.367678,763660,1609506754780103,4354692759,0.415776,0.374784,-0.464576,-13.658751,134.25125,66.14125,-29.272001,11.280001,-87.216,concentric,4,5.0,26326.0,30044.0,99556.0,73321.0,24834.0,38244.0,41880.0,41163.0,17160.0,12507.0
2026-05-06 16:21:31.401199,763671,1609506754789689,4354701887,0.415776,0.374784,-0.464576,-20.895,125.676254,56.95375,-29.272001,11.280001,-87.216,concentric,4,5.0,26641.0,29837.0,97271.0,75578.0,25049.0,38273.0,40739.0,42430.0,17170.0,12441.0
2026-05-06 16:21:31.403673,763672,1609506754804386,4354716845,0.3904,0.25376,-0.568032,-27.825,114.54625,52.28125,-30.272001,9.696,-86.592,concentric,4,5.0,26641.0,29837.0,97271.0,75578.0,25049.0,38273.0,40739.0,42430.0,17170.0,12441.0
2026-05-06 16:21:31.406303,763673,1609506754813422,4354725687,0.528992,0.284992,-0.651968,-25.85625,108.38625,54.9675,-30.36,12.216001,-85.856,concentric,4,5.0,26641.0,29837.0,97271.0,75578.0,25049.0,38273.0,40739.0,42430.0,17170.0,12441.0
2026-05-06 16:21:31.408900,763674,1609506754822370,4354734486,0.528992,0.284992,-0.651968,-15.2775,107.5725,56.0175,-30.36,12.216001,-85.856,concentric,4,5.0,26641.0,29837.0,97271.0,75578.0,25049.0,38273.0,40739.0,42430.0,17170.0,12441.0
2026-05-06 16:21:31.411257,763675,1609506754836873,4354749403,0.493856,0.288896,-0.568032,-7.27125,107.03875,52.21125,-31.240002,11.504001,-85.176,concentric,4,5.0,26641.0,29837.0,97271.0,75578.0,25049.0,38273.0,40739.0,42430.0,17170.0,12441.0
2026-05-06 16:21:31.417560,763676,1609506754845797,4354758196,0.493856,0.288896,-0.568032,-2.485,104.895,49.1575,-31.240002,11.504001,-85.176,concentric,4,5.0,26641.0,29837.0,97271.0,75578.0,25049.0,38273.0,40739.0,42430.0,17170.0,12441.0
2026-05-06 16:21:31.431416,763677,1609506754860254,4354771106,0.435296,0.324032,-0.523136,-0.4725,101.40375,44.24875,-31.928001,13.224001,-82.816,concentric,4,5.0,26641.0,29837.0,97271.0,75578.0,25049.0,38273.0,40739.0,42430.0,17170.0,12441.0
2026-05-06 16:21:31.451473,763678,1609506754869558,4354781889,0.435296,0.324032,-0.523136,2.80875,98.42875,40.69625,-31.928001,13.224001,-82.816,concentric,4,5.0,26641.0,29837.0,97271.0,75578.0,25049.0,38273.0,40739.0,42430.0,17170.0,12441.0
2026-05-06 16:21:31.453980,763679,1609506754878512,4354790587,0.519232,0.271328,-0.466528,0.46375,93.84375,35.5075,-32.328003,12.048,-81.176,concentric,4,5.0,26641.0,29837.0,97271.0,75578.0,25049.0,38273.0,40739.0,42430.0,17170.0,12441.0
2026-05-06 16:21:31.490169,763690,1609506754893278,4354805536,0.558272,0.269376,-0.532896,-7.805,89.215004,33.9675,-32.664,13.176001,-81.952,concentric,4,5.0,26357.0,29257.0,93458.0,76429.0,24798.0,37900.0,38903.0,42895.0,16950.0,12209.0
2026-05-06 16:21:31.492317,763691,1609506754902286,4354814350,0.558272,0.269376,-0.532896,-11.68125,86.38,31.9375,-32.664,13.176001,-81.952,concentric,4,5.0,26357.0,29257.0,93458.0,76429.0,24798.0,37900.0,38903.0,42895.0,16950.0,12209.0
2026-05-06 16:21:31.495032,763692,1609506754916810,4354829263,0.61488,0.22448,-0.499712,-15.58375,81.24375,28.46375,-33.016003,11.112,-80.43201,concentric,4,5.0,26357.0,29257.0,93458.0,76429.0,24798.0,37900.0,38903.0,42895.0,16950.0,12209.0
2026-05-06 16:21:31.497550,763693,1609506754925776,4354838008,0.61488,0.22448,-0.499712,-13.55375,76.53625,27.545,-33.016003,11.112,-80.43201,concentric,4,5.0,26357.0,29257.0,93458.0,76429.0,24798.0,37900.0,38903.0,42895.0,16950.0,12209.0
2026-05-06 16:21:31.531398,763694,1609506754940276,4354852990,0.661728,0.191296,-0.404064,-8.28625,74.4625,28.88375,-33.256,12.888001,-79.232,concentric,4,5.0,26357.0,29257.0,93458.0,76429.0,24798.0,37900.0,38903.0,42895.0,16950.0,12209.0
2026-05-06 16:21:31.533965,763695,1609506754949854,4354861810,0.661728,0.191296,-0.404064,1.88125,71.28625,29.35625,-33.256,12.888001,-79.232,concentric,4,5.0,26357.0,29257.0,93458.0,76429.0,24798.0,37900.0,38903.0,42895.0,16950.0,12209.0
2026-05-06 16:21:31.536500,763696,1609506754958821,4354870546,0.71248,0.238144,-0.495808,5.22375,68.46875,27.86,-33.624,15.160001,-80.08,concentric,4,5.0,26357.0,29257.0,93458.0,76429.0,24798.0,37900.0,38903.0,42895.0,16950.0,12209.0
2026-05-06 16:21:31.550184,763697,1609506754973367,4354885478,0.769088,0.284992,-0.30256,6.46625,66.64,30.31875,-33.688,13.488001,-78.472,concentric,4,5.0,26357.0,29257.0,93458.0,76429.0,24798.0,37900.0,38903.0,42895.0,16950.0,12209.0
2026-05-06 16:21:31.556518,763698,1609506754982345,4354894182,0.769088,0.284992,-0.30256,10.00125,65.24875,30.37125,-33.688,13.488001,-78.472,concentric,4,5.0,26357.0,29257.0,93458.0,76429.0,24798.0,37900.0,38903.0,42895.0,16950.0,12209.0
2026-05-06 16:21:31.606380,763709,1609506754997147,4354909228,0.7808,0.25376,-0.265472,10.40375,62.58,25.025,-34.032,13.824,-76.75201,concentric,4,5.0,25825.0,29386.0,93466.0,75489.0,24400.0,37909.0,38817.0,42411.0,16662.0,12226.0
2026-05-06 16:21:31.631489,763710,1609506755006147,4354918036,0.7808,0.25376,-0.265472,2.87875,58.625,23.73875,-34.032,13.824,-76.75201,concentric,4,5.0,25825.0,29386.0,93466.0,75489.0,24400.0,37909.0,38817.0,42411.0,16662.0,12226.0
2026-05-06 16:21:31.642774,763711,1609506755015072,4354926788,0.786656,0.25376,-0.3904,2.26625,54.451252,22.785,-34.144,14.392001,-75.44,concentric,4,5.0,25825.0,29386.0,93466.0,75489.0,24400.0,37909.0,38817.0,42411.0,16662.0,12226.0
2026-05-06 16:21:31.647664,763712,1609506755029538,4354941760,0.786656,0.25376,-0.3904,4.8125,52.66625,21.7,-34.144,14.392001,-75.44,concentric,4,5.0,25825.0,29386.0,93466.0,75489.0,24400.0,37909.0,38817.0,42411.0,16662.0,12226.0
2026-05-06 16:21:31.650152,763713,1609506755038472,4354950472,0.792512,0.232288,-0.320128,8.995,52.57875,21.25375,-34.072002,16.504002,-76.560005,concentric,4,5.0,25825.0,29386.0,93466.0,75489.0,24400.0,37909.0,38817.0,42411.0,16662.0,12226.0
2026-05-06 16:21:31.652632,763714,1609506755053010,4354965439,0.769088,0.261568,-0.339648,8.8375,49.84,18.5675,-34.232002,17.08,-76.064,concentric,4,5.0,25825.0,29386.0,93466.0,75489.0,24400.0,37909.0,38817.0,42411.0,16662.0,12226.0
2026-05-06 16:21:31.657663,763715,1609506755062137,4354974164,0.769088,0.261568,-0.339648,10.24625,46.61125,16.9925,-34.232002,17.08,-76.064,concentric,4,5.0,25825.0,29386.0,93466.0,75489.0,24400.0,37909.0,38817.0,42411.0,16662.0,12226.0
2026-05-06 16:21:31.662971,763716,1609506755071164,4354982869,0.769088,0.261568,-0.339648,11.05125,42.56875,17.325,-34.232002,17.08,-76.064,concentric,4,5.0,25825.0,29386.0,93466.0,75489.0,24400.0,37909.0,38817.0,42411.0,16662.0,12226.0
2026-05-06 16:21:31.663421,763717,1609506755085643,4354997803,0.802272,0.242048,-0.320128,11.73375,38.255,14.385,-34.312,17.112001,-74.656006,concentric,4,5.0,25825.0,29386.0,93466.0,75489.0,24400.0,37909.0,38817.0,42411.0,16662.0,12226.0
2026-05-06 16:21:31.690114,763728,1609506755094729,4355006666,0.776896,0.242048,-0.28304,11.52375,35.76125,13.67625,-34.0,17.160002,-74.408005,concentric,4,5.0,25002.0,29472.0,92421.0,73794.0,23722.0,37831.0,38271.0,41494.0,16197.0,12231.0
2026-05-06 16:21:31.695073,763729,1609506755109308,4355021613,0.776896,0.242048,-0.28304,11.7075,33.1625,12.915,-34.0,17.160002,-74.408005,concentric,4,5.0,25002.0,29472.0,92421.0,73794.0,23722.0,37831.0,38271.0,41494.0,16197.0,12231.0
2026-05-06 16:21:31.697613,763730,1609506755118343,4355030368,0.774944,0.242048,-0.355264,11.7775,29.645,10.59625,-34.432003,15.624001,-73.304,concentric,4,5.0,25002.0,29472.0,92421.0,73794.0,23722.0,37831.0,38271.0,41494.0,16197.0,12231.0
2026-05-06 16:21:31.705125,763731,1609506755132875,4355045300,0.759328,0.236192,-0.329888,11.445,27.18625,11.06875,-34.432003,15.624001,-72.75201,concentric,4,5.0,25002.0,29472.0,92421.0,73794.0,23722.0,37831.0,38271.0,41494.0,16197.0,12231.0
2026-05-06 16:21:31.715102,763732,1609506755141818,4355054061,0.757376,0.236192,-0.329888,15.33,24.053751,9.948751,-34.528,16.16,-72.75201,concentric,4,5.0,25002.0,29472.0,92421.0,73794.0,23722.0,37831.0,38271.0,41494.0,16197.0,12231.0
2026-05-06 16:21:31.723889,763733,1609506755150737,4355062916,0.757376,0.236192,-0.329888,19.18875,23.66,7.00875,-34.528,16.16,-72.75201,concentric,4,5.0,25002.0,29472.0,92421.0,73794.0,23722.0,37831.0,38271.0,41494.0,16197.0,12231.0
2026-05-06 16:21:31.737664,763734,1609506755165256,4355077827,0.759328,0.247904,-0.277184,17.99,21.7,7.56875,-34.592003,17.904001,-73.48,concentric,4,5.0,25002.0,29472.0,92421.0,73794.0,23722.0,37831.0,38271.0,41494.0,16197.0,12231.0
2026-05-06 16:21:31.746486,763735,1609506755174201,4355086569,0.778848,0.259616,-0.407968,16.52875,18.1125,7.5775,-34.352,15.936001,-71.032005,concentric,4,5.0,25002.0,29472.0,92421.0,73794.0,23722.0,37831.0,38271.0,41494.0,16197.0,12231.0
2026-05-06 16:21:31.784765,763746,1609506755189274,4355102106,0.778848,0.259616,-0.407968,18.2875,16.178751,6.9825,-34.352,15.936001,-71.032005,concentric,4,5.0,23775.0,29404.0,89923.0,71855.0,22664.0,37664.0,37017.0,40454.0,15535.0,12152.0
2026-05-06 16:21:31.787546,763747,1609506755198332,4355110903,0.769088,0.222528,-0.339648,19.01375,15.23375,4.8125,-34.192,18.104,-72.864006,concentric,4,5.0,23775.0,29404.0,89923.0,71855.0,22664.0,37664.0,37017.0,40454.0,15535.0,12152.0
2026-05-06 16:21:31.790065,763748,1609506755207348,4355119691,0.769088,0.222528,-0.339648,17.8675,13.755,2.42375,-34.192,18.104,-72.864006,concentric,4,5.0,23775.0,29404.0,89923.0,71855.0,22664.0,37664.0,37017.0,40454.0,15535.0,12152.0
2026-05-06 16:21:31.793792,763749,1609506755222040,4355134660,0.767136,0.238144,-0.337696,15.575,12.5825,2.6425,-34.432003,14.768001,-70.528,concentric,4,5.0,23775.0,29404.0,89923.0,71855.0,22664.0,37664.0,37017.0,40454.0,15535.0,12152.0
2026-05-06 16:21:31.805099,763750,1609506755230960,4355143378,0.767136,0.238144,-0.337696,16.12625,10.43,2.1875,-34.432003,14.768001,-70.528,concentric,4,5.0,23775.0,29404.0,89923.0,71855.0,22664.0,37664.0,37017.0,40454.0,15535.0,12152.0
2026-05-06 16:21:31.818923,763751,1609506755245525,4355156284,0.778848,0.257664,-0.402112,16.52875,9.5725,0.79625,-34.16,18.808,-72.256004,concentric,4,5.0,23775.0,29404.0,89923.0,71855.0,22664.0,37664.0,37017.0,40454.0,15535.0,12152.0
2026-05-06 16:21:31.827616,763752,1609506755254855,4355167107,0.7808,0.265472,-0.406016,14.88375,10.0275,1.32125,-34.416,18.832,-73.616005,concentric,4,5.0,23775.0,29404.0,89923.0,71855.0,22664.0,37664.0,37017.0,40454.0,15535.0,12152.0
2026-05-06 16:21:31.836466,763753,1609506755263854,4355175809,0.7808,0.265472,-0.406016,10.3075,9.31,0.55125,-34.416,18.832,-73.616005,concentric,4,5.0,23775.0,29404.0,89923.0,71855.0,22664.0,37664.0,37017.0,40454.0,15535.0,12152.0
2026-05-06 16:21:31.850032,763754,1609506755278420,4355190836,0.798368,0.247904,-0.298656,6.65,8.5225,-0.7,-34.640003,17.424002,-70.816,concentric,4,5.0,23775.0,29404.0,89923.0,71855.0,22664.0,37664.0,37017.0,40454.0,15535.0,12152.0
2026-05-06 16:21:31.863829,763755,1609506755287393,4355199538,0.798368,0.247904,-0.298656,3.9025,6.44875,-1.89875,-34.640003,17.424002,-70.816,concentric,4,5.0,23775.0,29404.0,89923.0,71855.0,22664.0,37664.0,37017.0,40454.0,15535.0,12152.0
2026-05-06 16:21:31.895192,763766,1609506755302296,4355214748,0.841312,0.244,-0.407968,0.35875,4.10375,-1.28625,-33.864002,18.720001,-71.704,concentric,4,5.0,22797.0,29599.0,87731.0,69941.0,21849.0,37891.0,35964.0,39391.0,15039.0,12262.0
2026-05-06 16:21:31.897428,763767,1609506755311245,4355223495,0.841312,0.244,-0.407968,-2.63375,4.15625,0.595,-33.864002,18.720001,-71.704,concentric,4,5.0,22797.0,29599.0,87731.0,69941.0,21849.0,37891.0,35964.0,39391.0,15039.0,12262.0
2026-05-06 16:21:31.928727,763768,1609506755320198,4355232201,0.813984,0.220576,-0.3904,-3.2025,4.235,-0.6825,-34.144,18.056002,-72.144005,concentric,4,5.0,22797.0,29599.0,87731.0,69941.0,21849.0,37891.0,35964.0,39391.0,15039.0,12262.0
2026-05-06 16:21:31.931180,763769,1609506755334847,4355247239,0.812032,0.222528,-0.271328,-2.94,5.425,-1.435,-33.920002,19.36,-71.32,concentric,4,5.0,22797.0,29599.0,87731.0,69941.0,21849.0,37891.0,35964.0,39391.0,15039.0,12262.0
2026-05-06 16:21:31.933762,763770,1609506755343795,4355255931,0.812032,0.222528,-0.271328,-1.96875,4.62,-0.60375,-33.920002,19.36,-71.32,concentric,4,5.0,22797.0,29599.0,87731.0,69941.0,21849.0,37891.0,35964.0,39391.0,15039.0,12262.0
2026-05-06 16:21:31.936128,763771,1609506755358295,4355270869,0.823744,0.281088,-0.327936,1.5575,3.4125,-1.435,-34.088,19.384,-71.8,concentric,4,5.0,22797.0,29599.0,87731.0,69941.0,21849.0,37891.0,35964.0,39391.0,15039.0,12262.0
2026-05-06 16:21:31.938947,763772,1609506755367255,4355279616,0.823744,0.281088,-0.327936,2.2575,1.72375,0.8925,-34.088,19.384,-71.8,concentric,4,5.0,22797.0,29599.0,87731.0,69941.0,21849.0,37891.0,35964.0,39391.0,15039.0,12262.0
2026-05-06 16:21:31.953347,763773,1609506755381759,4355292685,0.854976,0.249856,-0.324032,-2.9925,-1.56625,-0.4375,-34.472,16.072,-71.16801,concentric,4,5.0,22797.0,29599.0,87731.0,69941.0,21849.0,37891.0,35964.0,39391.0,15039.0,12262.0
2026-05-06 16:21:32.035401,763784,1609506755391432,4355303512,0.854976,0.249856,-0.324032,-11.43625,-3.49125,-3.47375,-34.472,16.072,-71.16801,concentric,4,5.0,22649.0,30057.0,86991.0,69119.0,21761.0,38296.0,35620.0,38940.0,14973.0,12454.0
2026-05-06 16:21:32.041714,763785,1609506755400493,4355312366,0.806176,0.1952,-0.333792,-16.28375,-4.9525,-4.31375,-34.088,18.720001,-71.84801,eccentric,4,5.0,22649.0,30057.0,86991.0,69119.0,21761.0,38296.0,35620.0,38940.0,14973.0,12454.0
2026-05-06 16:21:32.042308,763786,1609506755415048,4355327349,0.806176,0.167872,-0.318176,-18.69,-6.53625,-5.31125,-34.088,18.720001,-72.392006,eccentric,4,5.0,22649.0,30057.0,86991.0,69119.0,21761.0,38296.0,35620.0,38940.0,14973.0,12454.0
2026-05-06 16:21:32.044869,763787,1609506755424022,4355336050,0.798368,0.167872,-0.318176,-15.9775,-7.7875,-4.655,-34.032,19.2,-72.392006,eccentric,4,5.0,22649.0,30057.0,86991.0,69119.0,21761.0,38296.0,35620.0,38940.0,14973.0,12454.0
2026-05-06 16:21:32.047656,763788,1609506755438674,4355350962,0.823744,0.1952,-0.325984,-10.61375,-9.5025,-3.955,-34.04,18.92,-72.328,eccentric,4,5.0,22649.0,30057.0,86991.0,69119.0,21761.0,38296.0,35620.0,38940.0,14973.0,12454.0
2026-05-06 16:21:32.050561,763789,1609506755447658,4355359692,0.823744,0.1952,-0.325984,-6.79,-10.96375,-2.7125,-34.04,18.92,-72.328,eccentric,4,5.0,22649.0,30057.0,86991.0,69119.0,21761.0,38296.0,35620.0,38940.0,14973.0,12454.0
2026-05-06 16:21:32.052492,763790,1609506755456573,4355368443,0.792512,0.226432,-0.345504,-6.16875,-12.11875,-1.2775,-34.128002,17.2,-71.352005,eccentric,4,5.0,22649.0,30057.0,86991.0,69119.0,21761.0,38296.0,35620.0,38940.0,14973.0,12454.0
2026-05-06 16:21:32.055051,763791,1609506755471099,4355383386,0.792512,0.226432,-0.345504,-7.95375,-13.83375,-1.63625,-34.128002,17.2,-71.352005,eccentric,4,5.0,22649.0,30057.0,86991.0,69119.0,21761.0,38296.0,35620.0,38940.0,14973.0,12454.0
2026-05-06 16:21:32.057554,763792,1609506755480108,4355392109,0.782752,0.193248,-0.343552,-8.7325,-15.8375,-3.78,-34.448,17.224,-71.896,eccentric,4,5.0,22649.0,30057.0,86991.0,69119.0,21761.0,38296.0,35620.0,38940.0,14973.0,12454.0
2026-05-06 16:21:32.086344,763803,1609506755495057,4355407151,0.782752,0.193248,-0.343552,-11.235,-17.395,-5.32875,-34.448,17.224,-71.896,eccentric,4,5.0,22676.0,30150.0,87304.0,69042.0,21847.0,38429.0,35779.0,38911.0,15039.0,12516.0
2026-05-06 16:21:32.088879,763804,1609506755504146,4355416002,0.798368,0.183488,-0.355264,-11.7075,-19.145,-5.46,-33.752003,18.640001,-72.576004,eccentric,4,5.0,22676.0,30150.0,87304.0,69042.0,21847.0,38429.0,35779.0,38911.0,15039.0,12516.0
2026-05-06 16:21:32.091342,763805,1609506755513165,4355424829,0.798368,0.183488,-0.355264,-9.84375,-20.6675,-5.32875,-33.752003,18.640001,-72.576004,eccentric,4,5.0,22676.0,30150.0,87304.0,69042.0,21847.0,38429.0,35779.0,38911.0,15039.0,12516.0
2026-05-06 16:21:32.100012,763806,1609506755527695,4355439806,0.778848,0.193248,-0.374784,-9.93125,-21.5775,-5.62625,-33.88,18.328001,-73.600006,eccentric,4,5.0,22676.0,30150.0,87304.0,69042.0,21847.0,38429.0,35779.0,38911.0,15039.0,12516.0
2026-05-06 16:21:32.109038,763807,1609506755536661,4355448535,0.784704,0.191296,-0.38064,-7.95375,-23.8175,-6.93875,-33.72,15.280001,-72.936005,eccentric,4,5.0,22676.0,30150.0,87304.0,69042.0,21847.0,38429.0,35779.0,38911.0,15039.0,12516.0
2026-05-06 16:21:32.126198,763808,1609506755551149,4355463442,0.784704,0.191296,-0.38064,-6.46625,-24.675,-8.198751,-33.72,15.280001,-72.936005,eccentric,4,5.0,22676.0,30150.0,87304.0,69042.0,21847.0,38429.0,35779.0,38911.0,15039.0,12516.0
2026-05-06 16:21:32.134657,763809,1609506755560183,4355472141,0.784704,0.208864,-0.36112,-7.6475,-25.92625,-6.93875,-33.656002,18.472,-74.28001,eccentric,4,5.0,22676.0,30150.0,87304.0,69042.0,21847.0,38429.0,35779.0,38911.0,15039.0,12516.0
2026-05-06 16:21:32.146409,763810,1609506755574695,4355487141,0.784704,0.208864,-0.36112,-7.595,-27.545,-8.47,-33.656002,18.472,-74.28001,eccentric,4,5.0,22676.0,30150.0,87304.0,69042.0,21847.0,38429.0,35779.0,38911.0,15039.0,12516.0
2026-05-06 16:21:32.160051,763811,1609506755583664,4355495857,0.792512,0.220576,-0.347456,-7.48125,-29.303751,-11.33125,-33.632,18.512001,-76.824005,eccentric,4,5.0,22676.0,30150.0,87304.0,69042.0,21847.0,38429.0,35779.0,38911.0,15039.0,12516.0
2026-05-06 16:21:32.187801,763822,1609506755592647,4355504649,0.792512,0.220576,-0.347456,-6.86,-31.395,-12.01375,-33.632,18.512001,-76.824005,eccentric,4,5.0,23043.0,30833.0,88289.0,69018.0,22263.0,39108.0,36285.0,38882.0,15331.0,12779.0
2026-05-06 16:21:32.190235,763823,1609506755607294,4355519685,0.778848,0.210816,-0.402112,-6.2475,-33.2675,-14.06125,-33.144,16.112001,-73.744,eccentric,4,5.0,23043.0,30833.0,88289.0,69018.0,22263.0,39108.0,36285.0,38882.0,15331.0,12779.0
2026-05-06 16:21:32.192819,763824,1609506755616318,4355528438,0.778848,0.208864,-0.425536,-8.015,-35.27125,-15.015,-33.144,16.112001,-73.744,eccentric,4,5.0,23043.0,30833.0,88289.0,69018.0,22263.0,39108.0,36285.0,38882.0,15331.0,12779.0
2026-05-06 16:21:32.206513,763825,1609506755630833,4355543364,0.765184,0.208864,-0.425536,-8.51375,-37.135,-15.435,-33.392002,16.256,-74.272,eccentric,4,5.0,23043.0,30833.0,88289.0,69018.0,22263.0,39108.0,36285.0,38882.0,15331.0,12779.0
2026-05-06 16:21:32.212567,763826,1609506755639775,4355552051,0.774944,0.1952,-0.407968,-7.0875,-39.445,-17.10625,-32.936,17.656,-76.240005,eccentric,4,5.0,23043.0,30833.0,88289.0,69018.0,22263.0,39108.0,36285.0,38882.0,15331.0,12779.0
2026-05-06 16:21:32.220034,763827,1609506755648720,4355560878,0.774944,0.1952,-0.407968,-5.64375,-41.7725,-18.41,-32.936,17.656,-76.240005,eccentric,4,5.0,23043.0,30833.0,88289.0,69018.0,22263.0,39108.0,36285.0,38882.0,15331.0,12779.0
2026-05-06 16:21:32.253805,763828,1609506755663198,4355575791,0.774944,0.199104,-0.443104,-3.22875,-42.84875,-18.73375,-32.72,17.816,-76.840004,eccentric,4,5.0,23043.0,30833.0,88289.0,69018.0,22263.0,39108.0,36285.0,38882.0,15331.0,12779.0
2026-05-06 16:21:32.256144,763829,1609506755672119,4355584494,0.774944,0.199104,-0.443104,0.6825,-44.26625,-18.8475,-32.72,17.816,-76.840004,eccentric,4,5.0,23043.0,30833.0,88289.0,69018.0,22263.0,39108.0,36285.0,38882.0,15331.0,12779.0
2026-05-06 16:21:32.258841,763830,1609506755686630,4355597387,0.763232,0.21472,-0.433344,5.20625,-45.43,-19.425,-32.968002,16.912,-76.568,eccentric,4,5.0,23043.0,30833.0,88289.0,69018.0,22263.0,39108.0,36285.0,38882.0,15331.0,12779.0
2026-05-06 16:21:32.287599,763841,1609506755696092,4355608305,0.763232,0.21472,-0.433344,8.0325,-45.82375,-21.035,-32.968002,16.912,-76.568,eccentric,4,5.0,23433.0,31395.0,89861.0,68849.0,22633.0,39768.0,37078.0,38834.0,15579.0,13109.0
2026-05-06 16:21:32.290170,763842,1609506755705244,4355617209,0.749568,0.267424,-0.456768,5.31125,-45.5,-21.42,-32.768,15.920001,-77.464005,eccentric,4,5.0,23433.0,31395.0,89861.0,68849.0,22633.0,39768.0,37078.0,38834.0,15579.0,13109.0
2026-05-06 16:21:32.292795,763843,1609506755719794,4355632122,0.763232,0.267424,-0.46848,2.9925,-46.357502,-23.0125,-32.608,17.096,-78.08,eccentric,4,5.0,23433.0,31395.0,89861.0,68849.0,22633.0,39768.0,37078.0,38834.0,15579.0,13109.0
2026-05-06 16:21:32.301468,763844,1609506755728825,4355640869,0.763232,0.267424,-0.46848,1.8375,-47.39875,-26.64375,-32.608,17.096,-78.08,eccentric,4,5.0,23433.0,31395.0,89861.0,68849.0,22633.0,39768.0,37078.0,38834.0,15579.0,13109.0
2026-05-06 16:21:32.315209,763845,1609506755743350,4355655812,0.739808,0.25376,-0.525088,2.19625,-48.46625,-30.12625,-32.600002,14.832001,-77.392006,eccentric,4,5.0,23433.0,31395.0,89861.0,68849.0,22633.0,39768.0,37078.0,38834.0,15579.0,13109.0
2026-05-06 16:21:32.345048,763846,1609506755752349,4355664528,0.739808,0.25376,-0.525088,0.91,-48.50125,-32.19125,-32.600002,14.832001,-77.392006,eccentric,4,5.0,23433.0,31395.0,89861.0,68849.0,22633.0,39768.0,37078.0,38834.0,15579.0,13109.0
2026-05-06 16:21:32.370122,763847,1609506755766831,4355679416,0.698816,0.257664,-0.542656,1.4525,-48.405,-32.71625,-32.456,16.432001,-78.840004,eccentric,4,5.0,23433.0,31395.0,89861.0,68849.0,22633.0,39768.0,37078.0,38834.0,15579.0,13109.0
2026-05-06 16:21:32.388966,763848,1609506755775736,4355688126,0.698816,0.257664,-0.542656,2.9225,-49.14875,-34.5625,-32.456,16.432001,-78.840004,eccentric,4,5.0,23433.0,31395.0,89861.0,68849.0,22633.0,39768.0,37078.0,38834.0,15579.0,13109.0
2026-05-06 16:21:32.391447,763849,1609506755784737,4355696949,0.710528,0.279136,-0.548512,1.68,-49.385,-35.34125,-32.728,16.12,-79.568,eccentric,4,5.0,23433.0,31395.0,89861.0,68849.0,22633.0,39768.0,37078.0,38834.0,15579.0,13109.0
2026-05-06 16:21:32.420234,763860,1609506755799324,4355712004,0.69296,0.296704,-0.47824,0.0875,-49.97125,-35.665,-32.424,15.608001,-78.43201,eccentric,4,5.0,23818.0,30983.0,91161.0,69450.0,22904.0,39466.0,37756.0,39170.0,15773.0,12939.0
2026-05-06 16:21:32.421127,763861,1609506755808316,4355720737,0.69296,0.296704,-0.47824,0.93625,-51.2225,-36.4875,-32.424,15.608001,-78.43201,eccentric,4,5.0,23818.0,30983.0,91161.0,69450.0,22904.0,39466.0,37756.0,39170.0,15773.0,12939.0
2026-05-06 16:21:32.423533,763862,1609506755822838,4355733610,0.70272,0.267424,-0.462624,4.08625,-52.5,-38.94625,-32.144,15.464001,-80.840004,eccentric,4,5.0,23818.0,30983.0,91161.0,69450.0,22904.0,39466.0,37756.0,39170.0,15773.0,12939.0
2026-05-06 16:21:32.426175,763863,1609506755832284,4355744388,0.70272,0.267424,-0.462624,4.10375,-54.32875,-40.83625,-32.144,15.464001,-80.840004,eccentric,4,5.0,23818.0,30983.0,91161.0,69450.0,22904.0,39466.0,37756.0,39170.0,15773.0,12939.0
2026-05-06 16:21:32.428799,763864,1609506755841302,4355753195,0.679296,0.288896,-0.583648,0.315,-56.9275,-39.27,-32.496002,14.488001,-81.296005,eccentric,4,5.0,23818.0,30983.0,91161.0,69450.0,22904.0,39466.0,37756.0,39170.0,15773.0,12939.0
2026-05-06 16:21:32.435134,763865,1609506755855833,4355768148,0.679296,0.288896,-0.583648,-0.34125,-58.03,-38.465,-32.496002,14.488001,-81.296005,eccentric,4,5.0,23818.0,30983.0,91161.0,69450.0,22904.0,39466.0,37756.0,39170.0,15773.0,12939.0
2026-05-06 16:21:32.437558,763866,1609506755864877,4355776884,0.6344,0.27328,-0.560224,7.7175,-58.8175,-41.11625,-32.352,14.624001,-81.776,eccentric,4,5.0,23818.0,30983.0,91161.0,69450.0,22904.0,39466.0,37756.0,39170.0,15773.0,12939.0
2026-05-06 16:21:32.471498,763867,1609506755879380,4355791824,0.60512,0.304512,-0.503616,17.7275,-60.13,-42.84,-31.896002,14.936001,-82.776,eccentric,4,5.0,23818.0,30983.0,91161.0,69450.0,22904.0,39466.0,37756.0,39170.0,15773.0,12939.0
2026-05-06 16:21:32.473987,763868,1609506755888350,4355800559,0.60512,0.304512,-0.503616,25.71625,-60.585,-40.3025,-31.896002,14.936001,-82.776,eccentric,4,5.0,23818.0,30983.0,91161.0,69450.0,22904.0,39466.0,37756.0,39170.0,15773.0,12939.0
2026-05-06 16:21:32.508744,763880,1609506755902987,4355815576,0.640256,0.30256,-0.636352,31.12375,-62.5975,-38.36,-31.776001,14.76,-82.856,eccentric,4,5.0,24787.0,29777.0,91721.0,72753.0,23774.0,38428.0,38122.0,41060.0,16311.0,12475.0
2026-05-06 16:21:32.508880,763881,1609506755911945,4355824300,0.640256,0.30256,-0.636352,29.505001,-64.46125,-39.55875,-31.776001,14.76,-82.856,eccentric,4,5.0,24787.0,29777.0,91721.0,72753.0,23774.0,38428.0,38122.0,41060.0,16311.0,12475.0
2026-05-06 16:21:32.513366,763882,1609506755921082,4355833077,0.591456,0.333792,-0.607072,19.53875,-66.12375,-38.50875,-31.704002,13.864,-82.184006,eccentric,4,5.0,24787.0,29777.0,91721.0,72753.0,23774.0,38428.0,38122.0,41060.0,16311.0,12475.0
2026-05-06 16:21:32.513501,763883,1609506755935698,4355848094,0.591456,0.333792,-0.607072,20.09,-67.85625,-41.13375,-31.704002,13.864,-82.184006,eccentric,4,5.0,24787.0,29777.0,91721.0,72753.0,23774.0,38428.0,38122.0,41060.0,16311.0,12475.0
2026-05-06 16:21:32.516170,763884,1609506755944780,4355856766,0.515328,0.257664,-0.505568,26.83625,-70.51625,-48.8425,-31.544,12.184001,-82.80801,eccentric,4,5.0,24787.0,29777.0,91721.0,72753.0,23774.0,38428.0,38122.0,41060.0,16311.0,12475.0
2026-05-06 16:21:32.565210,763885,1609506755959262,4355871716,0.49776,0.30256,-0.704672,27.8775,-74.0425,-51.66875,-31.544,14.000001,-83.392006,eccentric,4,5.0,24787.0,29777.0,91721.0,72753.0,23774.0,38428.0,38122.0,41060.0,16311.0,12475.0
2026-05-06 16:21:32.567688,763886,1609506755968212,4355880428,0.49776,0.30256,-0.704672,23.7125,-78.28625,-47.8625,-30.896002,14.000001,-83.392006,eccentric,4,5.0,24787.0,29777.0,91721.0,72753.0,23774.0,38428.0,38122.0,41060.0,16311.0,12475.0
2026-05-06 16:21:32.570243,763887,1609506755977144,4355889334,0.49776,0.30256,-0.704672,22.3125,-80.2725,-46.06,-30.896002,14.000001,-83.392006,eccentric,4,5.0,24787.0,29777.0,91721.0,72753.0,23774.0,38428.0,38122.0,41060.0,16311.0,12475.0
2026-05-06 16:21:32.597723,763898,1609506755991635,4355904571,0.423584,0.349408,-0.679296,26.29375,-81.69875,-48.88625,-30.712002,13.976001,-85.90401,eccentric,4,5.0,25648.0,29429.0,93469.0,74626.0,24455.0,38064.0,38897.0,42048.0,16795.0,12330.0
2026-05-06 16:21:32.603511,763899,1609506756000607,4355913363,0.402112,0.343552,-0.610976,25.9175,-83.9475,-50.4175,-30.44,13.328001,-86.328,eccentric,4,5.0,25648.0,29429.0,93469.0,74626.0,24455.0,38064.0,38897.0,42048.0,16795.0,12330.0
2026-05-06 16:21:32.604091,763900,1609506756015373,4355926323,0.402112,0.343552,-0.610976,25.5325,-87.43875,-48.67625,-30.44,13.328001,-86.328,eccentric,4,5.0,25648.0,29429.0,93469.0,74626.0,24455.0,38064.0,38897.0,42048.0,16795.0,12330.0
2026-05-06 16:21:32.604994,763901,1609506756024781,4355937280,0.366976,0.279136,-0.65392,27.67625,-92.14625,-52.57875,-29.416002,12.624001,-86.43201,eccentric,4,5.0,25648.0,29429.0,93469.0,74626.0,24455.0,38064.0,38897.0,42048.0,16795.0,12330.0
2026-05-06 16:21:32.611670,763902,1609506756033743,4355946024,0.366976,0.279136,-0.65392,20.8775,-99.1375,-54.92375,-29.416002,12.624001,-86.43201,eccentric,4,5.0,25648.0,29429.0,93469.0,74626.0,24455.0,38064.0,38897.0,42048.0,16795.0,12330.0
2026-05-06 16:21:32.621356,763903,1609506756048259,4355960949,0.359168,0.368928,-0.866688,12.7225,-102.33125,-51.826252,-29.048002,12.664001,-87.58401,eccentric,4,5.0,25648.0,29429.0,93469.0,74626.0,24455.0,38064.0,38897.0,42048.0,16795.0,12330.0
2026-05-06 16:21:32.630079,763904,1609506756057189,4355969702,0.359168,0.368928,-0.866688,21.0,-102.3575,-53.43625,-29.048002,12.664001,-87.58401,eccentric,4,5.0,25648.0,29429.0,93469.0,74626.0,24455.0,38064.0,38897.0,42048.0,16795.0,12330.0
2026-05-06 16:21:32.645088,763905,1609506756071709,4355982581,0.298656,0.372832,-0.796416,33.04,-101.52625,-54.888752,-28.224,12.688001,-88.248,eccentric,4,5.0,25648.0,29429.0,93469.0,74626.0,24455.0,38064.0,38897.0,42048.0,16795.0,12330.0
2026-05-06 16:21:32.653832,763906,1609506756081022,4355993375,0.228384,0.345504,-0.681248,38.78,-102.27875,-51.2925,-27.632002,12.064,-87.816,eccentric,4,5.0,25648.0,29429.0,93469.0,74626.0,24455.0,38064.0,38897.0,42048.0,16795.0,12330.0
2026-05-06 16:21:32.737701,763917,1609506756096303,4356008375,0.228384,0.345504,-0.681248,36.47875,-106.91625,-51.23125,-27.632002,12.064,-87.816,eccentric,4,5.0,25891.0,28970.0,94857.0,75475.0,24600.0,37567.0,39437.0,42494.0,16876.0,12118.0
2026-05-06 16:21:32.755279,763918,1609506756105328,4356017209,0.216672,0.386496,-0.905728,28.34125,-113.82,-51.80875,-26.640001,12.080001,-90.15201,eccentric,4,5.0,25891.0,28970.0,94857.0,75475.0,24600.0,37567.0,39437.0,42494.0,16876.0,12118.0
2026-05-06 16:21:32.757750,763919,1609506756114401,4356025957,0.216672,0.386496,-0.905728,24.5875,-118.22125,-52.255,-26.640001,12.080001,-90.15201,eccentric,4,5.0,25891.0,28970.0,94857.0,75475.0,24600.0,37567.0,39437.0,42494.0,16876.0,12118.0
2026-05-06 16:21:32.760153,763920,1609506756128920,4356040891,0.218624,0.456768,-1.01504,29.1375,-116.6025,-50.75,-26.04,11.120001,-89.928,eccentric,4,5.0,25891.0,28970.0,94857.0,75475.0,24600.0,37567.0,39437.0,42494.0,16876.0,12118.0
2026-05-06 16:21:32.762763,763921,1609506756137865,4356049589,0.218624,0.456768,-1.01504,34.43125,-110.145004,-48.53625,-26.04,11.120001,-89.928,eccentric,4,5.0,25891.0,28970.0,94857.0,75475.0,24600.0,37567.0,39437.0,42494.0,16876.0,12118.0
2026-05-06 16:21:32.765296,763922,1609506756146777,4356058367,0.199104,0.425536,-0.89792,33.04875,-106.715004,-48.16,-24.976002,12.264001,-91.560005,eccentric,4,5.0,25891.0,28970.0,94857.0,75475.0,24600.0,37567.0,39437.0,42494.0,16876.0,12118.0
2026-05-06 16:21:32.767757,763923,1609506756161445,4356073289,0.093696,0.36112,-0.765184,30.38875,-106.05,-47.1275,-24.032001,12.120001,-92.968,eccentric,4,5.0,25891.0,28970.0,94857.0,75475.0,24600.0,37567.0,39437.0,42494.0,16876.0,12118.0
2026-05-06 16:21:32.770232,763924,1609506756170427,4356081989,0.093696,0.36112,-0.765184,21.1575,-109.051254,-47.59125,-24.032001,12.120001,-92.968,eccentric,4,5.0,25891.0,28970.0,94857.0,75475.0,24600.0,37567.0,39437.0,42494.0,16876.0,12118.0
2026-05-06 16:21:32.772625,763925,1609506756184978,4356096946,0.091744,0.415776,-1.09312,7.77875,-114.05625,-48.93875,-23.208,11.72,-93.136,eccentric,4,5.0,25891.0,28970.0,94857.0,75475.0,24600.0,37567.0,39437.0,42494.0,16876.0,12118.0
2026-05-06 16:21:32.799761,763936,1609506756193948,4356105815,0.091744,0.415776,-1.09312,-0.04375,-114.1875,-45.395,-23.208,11.72,-93.136,eccentric,4,5.0,25513.0,28115.0,93523.0,75770.0,24252.0,36749.0,38743.0,42694.0,16666.0,11684.0
2026-05-06 16:21:32.802465,763937,1609506756208485,4356120787,0.111264,0.42944,-0.981856,3.50875,-109.97,-42.93625,-22.304,9.360001,-91.26401,eccentric,4,5.0,25513.0,28115.0,93523.0,75770.0,24252.0,36749.0,38743.0,42694.0,16666.0,11684.0
2026-05-06 16:21:32.805065,763938,1609506756217407,4356129733,0.111264,0.42944,-0.981856,5.25,-107.42375,-40.41625,-22.304,9.360001,-91.26401,eccentric,4,5.0,25513.0,28115.0,93523.0,75770.0,24252.0,36749.0,38743.0,42694.0,16666.0,11684.0
2026-05-06 16:21:32.807553,763939,1609506756226451,4356138483,0.054656,0.435296,-0.940864,3.40375,-107.415,-38.01,-21.128,8.904,-94.36001,eccentric,4,5.0,25513.0,28115.0,93523.0,75770.0,24252.0,36749.0,38743.0,42694.0,16666.0,11684.0
2026-05-06 16:21:32.813842,763940,1609506756240992,4356153480,0.054656,0.435296,-0.958432,-1.58375,-110.11,-36.5925,-21.128,8.904,-94.36001,eccentric,4,5.0,25513.0,28115.0,93523.0,75770.0,24252.0,36749.0,38743.0,42694.0,16666.0,11684.0
2026-05-06 16:21:32.822588,763941,1609506756249937,4356162263,-0.003904,0.421632,-0.958432,-0.3675,-113.225,-36.54,-19.856,9.200001,-95.064,eccentric,4,5.0,25513.0,28115.0,93523.0,75770.0,24252.0,36749.0,38743.0,42694.0,16666.0,11684.0
2026-05-06 16:21:32.839046,763942,1609506756264473,4356177214,0.011712,0.51728,-1.061888,2.77375,-114.7475,-36.68,-18.304,9.504001,-96.52801,eccentric,4,5.0,25513.0,28115.0,93523.0,75770.0,24252.0,36749.0,38743.0,42694.0,16666.0,11684.0
2026-05-06 16:21:32.846494,763943,1609506756273518,4356185947,0.011712,0.51728,-1.061888,5.005,-113.77625,-34.69375,-18.304,9.504001,-96.52801,eccentric,4,5.0,25513.0,28115.0,93523.0,75770.0,24252.0,36749.0,38743.0,42694.0,16666.0,11684.0
2026-05-06 16:21:32.860171,763944,1609506756288033,4356198797,-0.031232,0.472384,-0.962336,8.12875,-110.7925,-34.13375,-16.992,8.888001,-96.72,eccentric,4,5.0,25513.0,28115.0,93523.0,75770.0,24252.0,36749.0,38743.0,42694.0,16666.0,11684.0
2026-05-06 16:21:32.893709,763955,1609506756297744,4356209801,-0.031232,0.472384,-0.962336,2.61625,-110.24125,-33.25,-16.992,8.888001,-96.72,eccentric,4,5.0,25744.0,28151.0,93641.0,76311.0,24464.0,36801.0,38813.0,42977.0,16804.0,11748.0
2026-05-06 16:21:32.894182,763956,1609506756306873,4356218602,-0.099552,0.411872,-1.059936,-7.14,-112.79625,-32.27,-15.224001,8.552,-97.16,eccentric,4,5.0,25744.0,28151.0,93641.0,76311.0,24464.0,36801.0,38813.0,42977.0,16804.0,11748.0
2026-05-06 16:21:32.896630,763957,1609506756321689,4356233592,-0.099552,0.38064,-1.020896,-7.21,-116.24375,-32.62,-15.224001,8.552,-97.16,eccentric,4,5.0,25744.0,28151.0,93641.0,76311.0,24464.0,36801.0,38813.0,42977.0,16804.0,11748.0
2026-05-06 16:21:32.902568,763958,1609506756330757,4356242375,-0.124928,0.384544,-1.020896,7.245,-114.45,-31.21125,-13.936001,8.056001,-97.656006,eccentric,4,5.0,25744.0,28151.0,93641.0,76311.0,24464.0,36801.0,38813.0,42977.0,16804.0,11748.0
2026-05-06 16:21:32.913747,763959,1609506756339705,4356251076,-0.124928,0.384544,-1.020896,22.14625,-112.27125,-28.34125,-13.936001,8.056001,-97.656006,eccentric,4,5.0,25744.0,28151.0,93641.0,76311.0,24464.0,36801.0,38813.0,42977.0,16804.0,11748.0
2026-05-06 16:21:32.928869,763960,1609506756354237,4356266066,-0.191296,0.460672,-0.952576,28.735,-109.9175,-23.52875,-12.408001,9.496,-99.69601,eccentric,4,5.0,25744.0,28151.0,93641.0,76311.0,24464.0,36801.0,38813.0,42977.0,16804.0,11748.0
2026-05-06 16:21:32.935159,763961,1609506756363165,4356274766,-0.247904,0.447008,-1.059936,24.08,-110.4075,-22.1375,-10.672001,10.960001,-100.58401,eccentric,4,5.0,25744.0,28151.0,93641.0,76311.0,24464.0,36801.0,38813.0,42977.0,16804.0,11748.0
2026-05-06 16:21:32.961519,763962,1609506756377646,4356289823,-0.247904,0.447008,-1.059936,6.79,-114.03,-20.965,-10.672001,10.960001,-100.58401,eccentric,4,5.0,25744.0,28151.0,93641.0,76311.0,24464.0,36801.0,38813.0,42977.0,16804.0,11748.0
2026-05-06 16:21:32.964003,763963,1609506756386579,4356298582,-0.25376,0.333792,-1.032608,-6.8775,-115.4475,-21.53375,-9.168,10.240001,-100.776,eccentric,4,5.0,25744.0,28151.0,93641.0,76311.0,24464.0,36801.0,38813.0,42977.0,16804.0,11748.0
2026-05-06 16:21:32.993821,763974,1609506756401321,4356313741,-0.25376,0.333792,-1.032608,-8.37375,-114.44125,-23.03875,-9.168,10.240001,-100.776,eccentric,4,5.0,25407.0,28089.0,95841.0,76166.0,24130.0,36647.0,39773.0,42871.0,16586.0,11670.0
2026-05-06 16:21:32.998925,763975,1609506756410376,4356322574,-0.36112,0.30256,-0.901824,-5.11875,-113.44375,-21.46375,-7.544,8.944,-99.872,eccentric,4,5.0,25407.0,28089.0,95841.0,76166.0,24130.0,36647.0,39773.0,42871.0,16586.0,11670.0
2026-05-06 16:21:33.001209,763976,1609506756419340,4356331367,-0.36112,0.30256,-0.901824,3.96375,-112.2275,-23.03,-7.544,8.944,-99.872,eccentric,4,5.0,25407.0,28089.0,95841.0,76166.0,24130.0,36647.0,39773.0,42871.0,16586.0,11670.0
2026-05-06 16:21:33.007585,763977,1609506756434020,4356346290,-0.413824,0.388448,-0.90768,5.03125,-114.44125,-22.44375,-5.704001,8.872001,-100.616005,eccentric,4,5.0,25407.0,28089.0,95841.0,76166.0,24130.0,36647.0,39773.0,42871.0,16586.0,11670.0
2026-05-06 16:21:33.013872,763978,1609506756443056,4356355054,-0.42944,0.386496,-0.93696,-0.18375,-118.44,-22.19,-5.704001,8.872001,-101.504005,eccentric,4,5.0,25407.0,28089.0,95841.0,76166.0,24130.0,36647.0,39773.0,42871.0,16586.0,11670.0
2026-05-06 16:21:33.047739,763979,1609506756457558,4356369989,-0.42944,0.386496,-0.93696,-2.31875,-121.19625,-24.6925,-4.0,8.856,-101.504005,eccentric,4,5.0,25407.0,28089.0,95841.0,76166.0,24130.0,36647.0,39773.0,42871.0,16586.0,11670.0
2026-05-06 16:21:33.050250,763980,1609506756466506,4356378746,-0.40016,0.325984,-0.88816,-3.78,-122.325,-24.59625,-1.736,10.704,-102.608,eccentric,4,5.0,25407.0,28089.0,95841.0,76166.0,24130.0,36647.0,39773.0,42871.0,16586.0,11670.0
2026-05-06 16:21:33.052962,763981,1609506756475482,4356387464,-0.40016,0.325984,-0.88816,-6.23875,-124.04,-26.90625,-1.736,10.704,-102.608,eccentric,4,5.0,25407.0,28089.0,95841.0,76166.0,24130.0,36647.0,39773.0,42871.0,16586.0,11670.0
2026-05-06 16:21:33.081731,763982,1609506756490039,4356402422,-0.521184,0.28304,-0.827648,-6.5625,-127.32125,-29.61875,0.032,7.960001,-100.83201,eccentric,4,5.0,25407.0,28089.0,95841.0,76166.0,24130.0,36647.0,39773.0,42871.0,16586.0,11670.0
2026-05-06 16:21:33.142810,763993,1609506756499648,4356411929,-0.521184,0.28304,-0.827648,1.74125,-127.33875,-32.48,0.032,7.960001,-100.83201,eccentric,4,5.0,25364.0,29068.0,101261.0,74508.0,23998.0,37370.0,42321.0,41849.0,16541.0,12083.0
2026-05-06 16:21:33.145217,763994,1609506756514248,4356426862,-0.618784,0.343552,-0.911584,2.975,-128.7125,-32.89125,2.336,10.032001,-103.368004,eccentric,4,5.0,25364.0,29068.0,101261.0,74508.0,23998.0,37370.0,42321.0,41849.0,16541.0,12083.0
2026-05-06 16:21:33.147708,763995,1609506756523158,4356435550,-0.618784,0.359168,-0.860832,3.395,-130.20876,-33.0225,2.336,10.032001,-103.368004,eccentric,4,5.0,25364.0,29068.0,101261.0,74508.0,23998.0,37370.0,42321.0,41849.0,16541.0,12083.0
2026-05-06 16:21:33.150222,763996,1609506756532071,4356444269,-0.642208,0.37088,-0.860832,1.7325,-130.22626,-34.51875,4.36,10.440001,-103.01601,eccentric,4,5.0,25364.0,29068.0,101261.0,74508.0,23998.0,37370.0,42321.0,41849.0,16541.0,12083.0
2026-05-06 16:21:33.152748,763997,1609506756546565,4356459160,-0.661728,0.353312,-0.944768,-4.99625,-131.17125,-33.85375,6.32,10.728001,-103.424,eccentric,4,5.0,25364.0,29068.0,101261.0,74508.0,23998.0,37370.0,42321.0,41849.0,16541.0,12083.0
2026-05-06 16:21:33.155217,763998,1609506756555843,4356468047,-0.661728,0.353312,-0.944768,-8.14625,-130.64626,-36.58375,6.32,10.728001,-103.424,eccentric,4,5.0,25364.0,29068.0,101261.0,74508.0,23998.0,37370.0,42321.0,41849.0,16541.0,12083.0
2026-05-06 16:21:33.157741,763999,1609506756570386,4356483039,-0.6832,0.247904,-0.905728,-10.5525,-127.33,-36.61875,7.936,8.856,-102.43201,eccentric,4,5.0,25364.0,29068.0,101261.0,74508.0,23998.0,37370.0,42321.0,41849.0,16541.0,12083.0
2026-05-06 16:21:33.160145,764000,1609506756579383,4356491776,-0.6832,0.247904,-0.905728,-8.2775,-122.1675,-37.2225,7.936,8.856,-102.43201,eccentric,4,5.0,25364.0,29068.0,101261.0,74508.0,23998.0,37370.0,42321.0,41849.0,16541.0,12083.0
2026-05-06 16:21:33.162750,764001,1609506756588451,4356500501,-0.767136,0.279136,-0.827648,-0.56875,-116.97,-37.07375,9.856001,8.904,-102.12,eccentric,4,5.0,25364.0,29068.0,101261.0,74508.0,23998.0,37370.0,42321.0,41849.0,16541.0,12083.0
2026-05-06 16:21:33.217707,764012,1609506756603047,4356515644,-0.767136,0.279136,-0.827648,4.9875,-114.3625,-36.14625,9.856001,8.904,-102.12,eccentric,4,5.0,25437.0,29488.0,102964.0,74199.0,24040.0,37750.0,43192.0,41668.0,16618.0,12326.0
2026-05-06 16:21:33.220175,764013,1609506756612023,4356524448,-0.782752,0.357216,-0.837408,0.84,-114.87875,-37.1,11.464001,8.672001,-102.272,eccentric,4,5.0,25437.0,29488.0,102964.0,74199.0,24040.0,37750.0,43192.0,41668.0,16618.0,12326.0
2026-05-06 16:21:33.222750,764014,1609506756626624,4356539364,-0.79056,0.363072,-0.892064,-10.17625,-115.59625,-38.98125,13.504001,10.184,-103.184006,eccentric,4,5.0,25437.0,29488.0,102964.0,74199.0,24040.0,37750.0,43192.0,41668.0,16618.0,12326.0
2026-05-06 16:21:33.225231,764015,1609506756635571,4356548100,-0.79056,0.363072,-0.892064,-23.835001,-117.25875,-41.1425,13.504001,10.184,-103.184006,eccentric,4,5.0,25437.0,29488.0,102964.0,74199.0,24040.0,37750.0,43192.0,41668.0,16618.0,12326.0
2026-05-06 16:21:33.227671,764016,1609506756650097,4356561013,-0.753472,0.339648,-0.81008,-26.705,-118.25625,-44.17875,14.904,10.232,-102.912,eccentric,4,5.0,25437.0,29488.0,102964.0,74199.0,24040.0,37750.0,43192.0,41668.0,16618.0,12326.0
2026-05-06 16:21:33.231473,764017,1609506756659460,4356571811,-0.753472,0.339648,-0.81008,-22.303751,-119.175,-44.7475,14.904,10.232,-102.912,eccentric,4,5.0,25437.0,29488.0,102964.0,74199.0,24040.0,37750.0,43192.0,41668.0,16618.0,12326.0
2026-05-06 16:21:33.245254,764018,1609506756668390,4356580587,-0.747616,0.335744,-0.813984,-19.43375,-122.027504,-43.68875,17.384,9.744,-102.384,eccentric,4,5.0,25437.0,29488.0,102964.0,74199.0,24040.0,37750.0,43192.0,41668.0,16618.0,12326.0
2026-05-06 16:21:33.262411,764019,1609506756682888,4356595475,-0.747616,0.335744,-0.813984,-16.6775,-125.79875,-44.86125,17.384,9.744,-102.384,eccentric,4,5.0,25437.0,29488.0,102964.0,74199.0,24040.0,37750.0,43192.0,41668.0,16618.0,12326.0
2026-05-06 16:21:33.263728,764020,1609506756691830,4356604270,-0.774944,0.40016,-0.691008,-15.435,-130.48875,-46.97875,19.312,9.736,-102.48801,eccentric,4,5.0,25437.0,29488.0,102964.0,74199.0,24040.0,37750.0,43192.0,41668.0,16618.0,12326.0
2026-05-06 16:21:33.301397,764031,1609506756706835,4356619264,-0.854976,0.308416,-0.720288,-16.75625,-134.63625,-48.2475,21.104,6.24,-101.08,eccentric,4,5.0,26129.0,30181.0,104180.0,74369.0,24684.0,38421.0,43838.0,41692.0,17053.0,12638.0
2026-05-06 16:21:33.303928,764032,1609506756715982,4356628145,-0.854976,0.308416,-0.720288,-22.77625,-140.53375,-50.56625,21.104,6.24,-101.08,eccentric,4,5.0,26129.0,30181.0,104180.0,74369.0,24684.0,38421.0,43838.0,41692.0,17053.0,12638.0
2026-05-06 16:21:33.306450,764033,1609506756724961,4356636919,-0.948672,0.26352,-0.669536,-29.58375,-145.85374,-51.10875,21.104,6.24,-99.032005,eccentric,4,5.0,26129.0,30181.0,104180.0,74369.0,24684.0,38421.0,43838.0,41692.0,17053.0,12638.0
2026-05-06 16:21:33.312700,764034,1609506756739536,4356651875,-0.940864,0.26352,-0.669536,-33.25875,-150.21126,-52.1325,23.36,8.528001,-100.104004,eccentric,4,5.0,26129.0,30181.0,104180.0,74369.0,24684.0,38421.0,43838.0,41692.0,17053.0,12638.0
2026-05-06 16:21:33.321466,764035,1609506756748476,4356660638,-1.016992,0.325984,-0.698816,-33.41625,-154.97125,-53.0775,25.536001,7.896,-98.920006,eccentric,4,5.0,26129.0,30181.0,104180.0,74369.0,24684.0,38421.0,43838.0,41692.0,17053.0,12638.0
2026-05-06 16:21:33.335228,764036,1609506756762972,4356675592,-1.016992,0.325984,-0.698816,-31.10625,-157.6575,-52.71,25.536001,7.896,-98.920006,eccentric,4,5.0,26129.0,30181.0,104180.0,74369.0,24684.0,38421.0,43838.0,41692.0,17053.0,12638.0
2026-05-06 16:21:33.348981,764037,1609506756771908,4356684374,-1.022848,0.320128,-0.704672,-22.995,-156.59875,-51.4325,27.640001,9.864,-97.352005,eccentric,4,5.0,26129.0,30181.0,104180.0,74369.0,24684.0,38421.0,43838.0,41692.0,17053.0,12638.0
2026-05-06 16:21:33.358789,764038,1609506756780857,4356693088,-1.022848,0.320128,-0.704672,-13.60625,-151.36626,-49.735,27.640001,9.864,-97.352005,eccentric,4,5.0,26129.0,30181.0,104180.0,74369.0,24684.0,38421.0,43838.0,41692.0,17053.0,12638.0
2026-05-06 16:21:33.368901,764039,1609506756795422,4356708050,-1.061888,0.255712,-0.515328,-5.74,-142.3975,-48.71125,29.328001,10.408001,-98.184006,eccentric,4,5.0,26129.0,30181.0,104180.0,74369.0,24684.0,38421.0,43838.0,41692.0,17053.0,12638.0
2026-05-06 16:21:33.399054,764050,1609506756804463,4356716806,-1.061888,0.255712,-0.515328,1.60125,-132.1075,-45.38625,29.328001,10.408001,-98.184006,eccentric,4,5.0,27183.0,31167.0,104186.0,75565.0,25721.0,39590.0,43878.0,42316.0,17746.0,13178.0
2026-05-06 16:21:33.401438,764051,1609506756819113,4356731880,-1.14192,0.212768,-0.366976,2.58125,-123.5675,-42.5075,31.096,11.256001,-97.600006,eccentric,4,5.0,27183.0,31167.0,104186.0,75565.0,25721.0,39590.0,43878.0,42316.0,17746.0,13178.0
2026-05-06 16:21:33.403995,764052,1609506756828082,4356740605,-1.139968,0.318176,-0.363072,-4.96125,-113.98625,-41.67625,32.168003,11.472,-96.312004,eccentric,4,5.0,27183.0,31167.0,104186.0,75565.0,25721.0,39590.0,43878.0,42316.0,17746.0,13178.0
2026-05-06 16:21:33.417760,764053,1609506756842671,4356753554,-1.139968,0.318176,-0.363072,-12.48625,-102.06875,-39.69875,32.168003,11.472,-96.312004,eccentric,4,5.0,27183.0,31167.0,104186.0,75565.0,25721.0,39590.0,43878.0,42316.0,17746.0,13178.0
2026-05-06 16:21:33.448891,764054,1609506756851979,4356764315,-1.061888,0.337696,-0.349408,-20.37,-91.32375,-36.12875,33.384003,10.68,-95.768005,eccentric,4,5.0,27183.0,31167.0,104186.0,75565.0,25721.0,39590.0,43878.0,42316.0,17746.0,13178.0
2026-05-06 16:21:33.473846,764055,1609506756860920,4356773087,-1.061888,0.337696,-0.349408,-25.97,-82.08375,-33.4775,33.384003,10.68,-95.768005,eccentric,4,5.0,27183.0,31167.0,104186.0,75565.0,25721.0,39590.0,43878.0,42316.0,17746.0,13178.0
2026-05-06 16:21:33.493821,764056,1609506756875508,4356788010,-1.030656,0.32208,-0.437248,-29.0325,-75.9675,-32.12125,33.984,11.016001,-94.840004,eccentric,4,5.0,27183.0,31167.0,104186.0,75565.0,25721.0,39590.0,43878.0,42316.0,17746.0,13178.0
2026-05-06 16:21:33.496282,764057,1609506756884413,4356796717,-1.030656,0.32208,-0.437248,-29.75,-71.39125,-31.43875,33.984,11.016001,-94.840004,eccentric,4,5.0,27183.0,31167.0,104186.0,75565.0,25721.0,39590.0,43878.0,42316.0,17746.0,13178.0
2026-05-06 16:21:33.527668,764068,1609506756899242,4356811996,-1.009184,0.310368,-0.45872,-23.84375,-65.72125,-30.26625,34.832,11.704,-94.552,eccentric,4,5.0,27077.0,31054.0,103669.0,76058.0,25629.0,39535.0,43697.0,42594.0,17666.0,13135.0
2026-05-06 16:21:33.530163,764069,1609506756908276,4356820791,-1.011136,0.355264,-0.49776,-18.69,-62.64125,-28.7525,35.472,11.448001,-94.952,eccentric,4,5.0,27077.0,31054.0,103669.0,76058.0,25629.0,39535.0,43697.0,42594.0,17666.0,13135.0
2026-05-06 16:21:33.532776,764070,1609506756917182,4356829516,-1.011136,0.355264,-0.49776,-16.82625,-61.99375,-26.74,35.472,11.448001,-94.952,eccentric,4,5.0,27077.0,31054.0,103669.0,76058.0,25629.0,39535.0,43697.0,42594.0,17666.0,13135.0
2026-05-06 16:21:33.537345,764071,1609506756931869,4356844541,-1.038464,0.347456,-0.45872,-15.33,-61.0575,-26.460001,36.192,11.768001,-94.272,eccentric,4,5.0,27077.0,31054.0,103669.0,76058.0,25629.0,39535.0,43697.0,42594.0,17666.0,13135.0
2026-05-06 16:21:33.537839,764072,1609506756940939,4356853264,-1.038464,0.347456,-0.45872,-17.63125,-61.06625,-26.53875,36.192,11.768001,-94.272,eccentric,4,5.0,27077.0,31054.0,103669.0,76058.0,25629.0,39535.0,43697.0,42594.0,17666.0,13135.0
2026-05-06 16:21:33.540001,764073,1609506756955642,4356868256,-1.0736,0.267424,-0.42944,-22.0675,-62.09,-26.11,36.904003,10.400001,-93.576004,eccentric,4,5.0,27077.0,31054.0,103669.0,76058.0,25629.0,39535.0,43697.0,42594.0,17666.0,13135.0
2026-05-06 16:21:33.542518,764074,1609506756964726,4356876988,-1.0736,0.267424,-0.42944,-22.4,-60.94375,-23.84375,36.904003,10.400001,-93.576004,eccentric,4,5.0,27077.0,31054.0,103669.0,76058.0,25629.0,39535.0,43697.0,42594.0,17666.0,13135.0
2026-05-06 16:21:33.546288,764075,1609506756973804,4356885735,-1.038464,0.288896,-0.445056,-16.75625,-56.79625,-21.035,37.728,12.392,-93.512,eccentric,4,5.0,27077.0,31054.0,103669.0,76058.0,25629.0,39535.0,43697.0,42594.0,17666.0,13135.0
2026-05-06 16:21:33.562049,764076,1609506756988333,4356900705,-1.052128,0.32208,-0.41968,-13.9825,-51.73875,-18.48875,38.04,11.976001,-92.568,eccentric,4,5.0,27077.0,31054.0,103669.0,76058.0,25629.0,39535.0,43697.0,42594.0,17666.0,13135.0
2026-05-06 16:21:33.568822,764077,1609506756997295,4356909441,-1.052128,0.32208,-0.41968,-16.42375,-48.9125,-17.59625,38.04,11.976001,-92.568,eccentric,4,5.0,27077.0,31054.0,103669.0,76058.0,25629.0,39535.0,43697.0,42594.0,17666.0,13135.0
2026-05-06 16:21:33.603927,764088,1609506757011870,4356924551,-1.01504,0.21472,-0.40992,-23.89625,-46.935,-17.710001,38.4,8.360001,-89.840004,eccentric,4,5.0,26655.0,30664.0,102354.0,75845.0,25221.0,39177.0,43106.0,42511.0,17396.0,12934.0
2026-05-06 16:21:33.606457,764089,1609506757020846,4356933368,-1.01504,0.21472,-0.40992,-32.62,-44.1175,-17.33375,38.4,8.360001,-89.840004,eccentric,4,5.0,26655.0,30664.0,102354.0,75845.0,25221.0,39177.0,43106.0,42511.0,17396.0,12934.0
2026-05-06 16:21:33.608957,764090,1609506757035489,4356946295,-1.009184,0.187392,-0.40016,-32.10375,-38.99,-14.34125,38.688004,8.184,-90.552,eccentric,4,5.0,26655.0,30664.0,102354.0,75845.0,25221.0,39177.0,43106.0,42511.0,17396.0,12934.0
2026-05-06 16:21:33.617706,764091,1609506757044916,4356957142,-1.009184,0.187392,-0.40016,-22.2775,-31.0975,-9.0125,38.688004,8.184,-90.552,eccentric,4,5.0,26655.0,30664.0,102354.0,75845.0,25221.0,39177.0,43106.0,42511.0,17396.0,12934.0
2026-05-06 16:21:33.626397,764092,1609506757053872,4356965848,-1.01504,0.27328,-0.337696,-13.545,-23.17,-5.22375,39.168003,11.848001,-91.576004,eccentric,4,5.0,26655.0,30664.0,102354.0,75845.0,25221.0,39177.0,43106.0,42511.0,17396.0,12934.0
2026-05-06 16:21:33.660052,764093,1609506757068384,4356980778,-1.026752,0.265472,-0.365024,-13.06375,-17.19375,-2.80875,39.192,10.536,-90.600006,eccentric,4,5.0,26655.0,30664.0,102354.0,75845.0,25221.0,39177.0,43106.0,42511.0,17396.0,12934.0
2026-05-06 16:21:33.662638,764094,1609506757077319,4356989505,-1.026752,0.265472,-0.365024,-16.2575,-13.2475,-1.98625,39.192,10.536,-90.600006,eccentric,4,5.0,26655.0,30664.0,102354.0,75845.0,25221.0,39177.0,43106.0,42511.0,17396.0,12934.0
2026-05-06 16:21:33.665128,764095,1609506757091832,4357004444,-1.032608,0.257664,-0.386496,-17.47375,-9.82625,-2.17,39.176003,11.568001,-91.872,eccentric,4,5.0,26655.0,30664.0,102354.0,75845.0,25221.0,39177.0,43106.0,42511.0,17396.0,12934.0
2026-05-06 16:21:33.701468,764106,1609506757101495,4357013227,-1.032608,0.257664,-0.386496,-19.18,-5.03125,0.07875,39.176003,11.568001,-91.872,eccentric,4,5.0,26413.0,30446.0,102104.0,75800.0,25060.0,38972.0,42988.0,42470.0,17279.0,12845.0
2026-05-06 16:21:33.703991,764107,1609506757110667,4357022083,-1.007232,0.281088,-0.404064,-16.87875,1.75,3.4125,39.288002,9.768001,-92.064,eccentric,4,5.0,26413.0,30446.0,102104.0,75800.0,25060.0,38972.0,42988.0,42470.0,17279.0,12845.0
2026-05-06 16:21:33.706435,764108,1609506757125300,4357037316,-1.007232,0.281088,-0.404064,-11.515,8.75875,7.175,39.288002,9.768001,-92.064,eccentric,4,5.0,26413.0,30446.0,102104.0,75800.0,25060.0,38972.0,42988.0,42470.0,17279.0,12845.0
2026-05-06 16:21:33.709015,764109,1609506757134267,4357046025,-0.987712,0.275232,-0.37088,-5.67,15.44375,10.24625,39.688004,10.752001,-92.672005,eccentric,4,5.0,26413.0,30446.0,102104.0,75800.0,25060.0,38972.0,42988.0,42470.0,17279.0,12845.0
2026-05-06 16:21:33.715190,764110,1609506757143216,4357054762,-0.987712,0.275232,-0.37088,-4.6725,20.335001,12.15375,39.688004,10.752001,-92.672005,eccentric,4,5.0,26413.0,30446.0,102104.0,75800.0,25060.0,38972.0,42988.0,42470.0,17279.0,12845.0
2026-05-06 16:21:33.728829,764111,1609506757157720,4357069790,-1.01504,0.259616,-0.49776,-8.295,23.8175,12.6175,38.768,9.032001,-91.288,eccentric,4,5.0,26413.0,30446.0,102104.0,75800.0,25060.0,38972.0,42988.0,42470.0,17279.0,12845.0
2026-05-06 16:21:33.742642,764112,1609506757166691,4357078515,-1.01504,0.259616,-0.49776,-7.97125,31.0625,16.05625,38.768,9.032001,-91.288,eccentric,4,5.0,26413.0,30446.0,102104.0,75800.0,25060.0,38972.0,42988.0,42470.0,17279.0,12845.0
2026-05-06 16:21:33.756311,764113,1609506757181218,4357093439,-1.067744,0.269376,-0.368928,1.74125,40.55625,20.62375,38.328003,9.440001,-92.968,eccentric,4,5.0,26413.0,30446.0,102104.0,75800.0,25060.0,38972.0,42988.0,42470.0,17279.0,12845.0
2026-05-06 16:21:33.762637,764114,1609506757190154,4357102168,-1.052128,0.359168,-0.474336,11.68125,49.56875,24.605,37.848003,9.872001,-94.192,eccentric,4,5.0,26413.0,30446.0,102104.0,75800.0,25060.0,38972.0,42988.0,42470.0,17279.0,12845.0
