pc_time,serial_num,sensor_ts,host_ts,ax,ay,az,gx,gy,gz,mx,my,mz,phase,rpe,weight_kg,ppg_a,ppg_b,ppg_c,ppg_d,ppg_e,ppg_f,ppg_g,ppg_h,ppg_i,ppg_j
2026-05-06 16:21:43.262303,765905,1609506766660166,4366572429,-0.91744,0.3904,-0.726144,-6.50125,57.33,26.71375,26.672,6.448,-101.32001,concentric,4,5.0,24885.0,29334.0,100948.0,71881.0,24013.0,38090.0,42540.0,40640.0,16589.0,12500.0
2026-05-06 16:21:43.264804,765906,1609506766669297,4366581253,-0.90768,0.388448,-0.726144,-6.97375,61.18,29.39125,26.088001,6.448,-101.32001,concentric,4,5.0,24885.0,29334.0,100948.0,71881.0,24013.0,38090.0,42540.0,40640.0,16589.0,12500.0
2026-05-06 16:21:43.267362,765907,1609506766678322,4366590137,-0.90768,0.388448,-0.726144,-5.845,67.27,32.9525,26.088001,6.448,-101.32001,concentric,4,5.0,24885.0,29334.0,100948.0,71881.0,24013.0,38090.0,42540.0,40640.0,16589.0,12500.0
2026-05-06 16:21:43.269970,765908,1609506766692832,4366605113,-0.905728,0.415776,-0.730048,-1.925,74.80375,37.5375,24.888,4.816001,-101.352005,concentric,4,5.0,24885.0,29334.0,100948.0,71881.0,24013.0,38090.0,42540.0,40640.0,16589.0,12500.0
2026-05-06 16:21:43.276164,765909,1609506766701742,4366613864,-0.88816,0.454816,-0.753472,2.23125,84.0525,41.615,23.240002,3.4,-100.464005,concentric,4,5.0,24885.0,29334.0,100948.0,71881.0,24013.0,38090.0,42540.0,40640.0,16589.0,12500.0
2026-05-06 16:21:43.288909,765910,1609506766716348,4366628731,-0.88816,0.454816,-0.753472,3.43,91.6125,44.07375,23.240002,3.4,-100.464005,concentric,4,5.0,24885.0,29334.0,100948.0,71881.0,24013.0,38090.0,42540.0,40640.0,16589.0,12500.0
2026-05-06 16:21:43.297430,765911,1609506766725255,4366637443,-0.86864,0.476288,-0.7808,-0.0175,96.6175,43.855,21.928001,4.912,-102.8,concentric,4,5.0,24885.0,29334.0,100948.0,71881.0,24013.0,38090.0,42540.0,40640.0,16589.0,12500.0
2026-05-06 16:21:43.307586,765912,1609506766734199,4366646150,-0.86864,0.476288,-0.7808,-0.665,99.925,43.3475,21.928001,4.912,-102.8,concentric,4,5.0,24885.0,29334.0,100948.0,71881.0,24013.0,38090.0,42540.0,40640.0,16589.0,12500.0
2026-05-06 16:21:43.341205,765913,1609506766748729,4366661100,-0.817888,0.443104,-0.776896,0.035,101.98125,43.715,20.344002,5.576,-103.336006,concentric,4,5.0,24885.0,29334.0,100948.0,71881.0,24013.0,38090.0,42540.0,40640.0,16589.0,12500.0
2026-05-06 16:21:43.451292,765924,1609506766757651,4366669768,-0.817888,0.443104,-0.776896,0.175,104.90375,45.14125,20.344002,5.576,-103.336006,concentric,4,5.0,24699.0,29297.0,101080.0,71475.0,23857.0,38049.0,42580.0,40406.0,16488.0,12469.0
2026-05-06 16:21:43.453807,765925,1609506766772231,4366684673,-0.784704,0.421632,-0.778848,2.2925,107.82625,46.36625,18.28,4.768,-103.504005,concentric,4,5.0,24699.0,29297.0,101080.0,71475.0,23857.0,38049.0,42580.0,40406.0,16488.0,12469.0
2026-05-06 16:21:43.456313,765926,1609506766781257,4366693462,-0.80032,0.423584,-0.794464,1.0675,109.725,48.2825,16.84,4.856,-100.16,concentric,4,5.0,24699.0,29297.0,101080.0,71475.0,23857.0,38049.0,42580.0,40406.0,16488.0,12469.0
2026-05-06 16:21:43.458861,765927,1609506766795743,4366708446,-0.80032,0.423584,-0.794464,4.03375,112.65625,50.11125,16.84,4.856,-100.16,concentric,4,5.0,24699.0,29297.0,101080.0,71475.0,23857.0,38049.0,42580.0,40406.0,16488.0,12469.0
2026-05-06 16:21:43.461301,765928,1609506766804710,4366717164,-0.782752,0.423584,-0.794464,6.36125,115.7975,52.15875,14.728001,4.816001,-104.656006,concentric,4,5.0,24699.0,29297.0,101080.0,71475.0,23857.0,38049.0,42580.0,40406.0,16488.0,12469.0
2026-05-06 16:21:43.463894,765929,1609506766813634,4366725871,-0.782752,0.423584,-0.794464,6.55375,117.9325,53.6375,14.728001,4.816001,-104.656006,concentric,4,5.0,24699.0,29297.0,101080.0,71475.0,23857.0,38049.0,42580.0,40406.0,16488.0,12469.0
2026-05-06 16:21:43.466352,765930,1609506766828246,4366740776,-0.767136,0.493856,-0.831552,7.39375,120.3825,54.36375,12.912001,5.088,-104.72,concentric,4,5.0,24699.0,29297.0,101080.0,71475.0,23857.0,38049.0,42580.0,40406.0,16488.0,12469.0
2026-05-06 16:21:43.468946,765931,1609506766837283,4366749500,-0.767136,0.493856,-0.831552,8.77625,122.15875,54.075,12.912001,5.088,-104.72,concentric,4,5.0,24699.0,29297.0,101080.0,71475.0,23857.0,38049.0,42580.0,40406.0,16488.0,12469.0
2026-05-06 16:21:43.471435,765932,1609506766852040,4366764551,-0.753472,0.45872,-0.845216,10.17625,123.165,52.89375,10.8,2.896,-103.58401,concentric,4,5.0,24699.0,29297.0,101080.0,71475.0,23857.0,38049.0,42580.0,40406.0,16488.0,12469.0
2026-05-06 16:21:43.502738,765943,1609506766861626,4366773462,-0.753472,0.45872,-0.8296,10.4825,125.5975,52.1325,10.8,4.944,-105.72,concentric,4,5.0,24809.0,29385.0,100809.0,71447.0,23960.0,38180.0,42450.0,40399.0,16562.0,12498.0
2026-05-06 16:21:43.507715,765944,1609506766870639,4366782164,-0.724192,0.431392,-0.8296,11.05125,127.9075,52.535,8.528001,4.728,-105.72,concentric,4,5.0,24809.0,29385.0,100809.0,71447.0,23960.0,38180.0,42450.0,40399.0,16562.0,12498.0
2026-05-06 16:21:43.510108,765945,1609506766885242,4366797125,-0.694912,0.474336,-0.882304,11.71625,130.4625,52.3075,6.2,1.664,-102.712006,concentric,4,5.0,24809.0,29385.0,100809.0,71447.0,23960.0,38180.0,42450.0,40399.0,16562.0,12498.0
2026-05-06 16:21:43.512681,765946,1609506766894294,4366805918,-0.694912,0.474336,-0.882304,8.18125,133.35,52.115,6.2,1.664,-102.712006,concentric,4,5.0,24809.0,29385.0,100809.0,71447.0,23960.0,38180.0,42450.0,40399.0,16562.0,12498.0
2026-05-06 16:21:43.517718,765947,1609506766908912,4366820950,-0.657824,0.452864,-0.899872,4.61125,134.47874,51.30125,3.992,1.96,-104.048004,concentric,4,5.0,24809.0,29385.0,100809.0,71447.0,23960.0,38180.0,42450.0,40399.0,16562.0,12498.0
2026-05-06 16:21:43.522882,765948,1609506766917901,4366829734,-0.657824,0.452864,-0.899872,4.2175,136.08,51.3275,3.992,1.96,-104.048004,concentric,4,5.0,24809.0,29385.0,100809.0,71447.0,23960.0,38180.0,42450.0,40399.0,16562.0,12498.0
2026-05-06 16:21:43.523264,765949,1609506766926823,4366838476,-0.593408,0.47824,-0.925248,5.53,137.76,51.94,1.6,1.776,-103.456,concentric,4,5.0,24809.0,29385.0,100809.0,71447.0,23960.0,38180.0,42450.0,40399.0,16562.0,12498.0
2026-05-06 16:21:43.524961,765950,1609506766941408,4366853542,-0.593408,0.47824,-0.925248,9.56375,140.11375,53.38375,1.6,1.776,-103.456,concentric,4,5.0,24809.0,29385.0,100809.0,71447.0,23960.0,38180.0,42450.0,40399.0,16562.0,12498.0
2026-05-06 16:21:43.529275,765951,1609506766950457,4366862273,-0.558272,0.47824,-0.923296,11.83875,142.415,54.013752,-0.328,5.512,-101.368004,concentric,4,5.0,24809.0,29385.0,100809.0,71447.0,23960.0,38180.0,42450.0,40399.0,16562.0,12498.0
2026-05-06 16:21:43.556099,765962,1609506766965186,4366877378,-0.503616,0.495808,-0.808128,9.415,143.7275,53.3925,-2.032,3.648,-102.64001,concentric,4,5.0,24689.0,29237.0,100267.0,71443.0,23893.0,38034.0,42173.0,40417.0,16517.0,12434.0
2026-05-06 16:21:43.558479,765963,1609506766974187,4366886123,-0.503616,0.495808,-0.808128,6.16,143.2725,51.00375,-2.032,3.648,-102.64001,concentric,4,5.0,24689.0,29237.0,100267.0,71443.0,23893.0,38034.0,42173.0,40417.0,16517.0,12434.0
2026-05-06 16:21:43.561258,765964,1609506766983187,4366894883,-0.470432,0.45872,-0.835456,0.9275,140.28876,47.6525,-4.472,3.976,-103.07201,concentric,4,5.0,24689.0,29237.0,100267.0,71443.0,23893.0,38034.0,42173.0,40417.0,16517.0,12434.0
2026-05-06 16:21:43.571299,765965,1609506766997656,4366909844,-0.470432,0.45872,-0.835456,6.90375,138.145,43.995,-4.472,3.976,-103.07201,concentric,4,5.0,24689.0,29237.0,100267.0,71443.0,23893.0,38034.0,42173.0,40417.0,16517.0,12434.0
2026-05-06 16:21:43.580210,765966,1609506767006580,4366918618,-0.398208,0.489952,-0.94672,13.18625,138.62625,44.24875,-6.72,5.984,-102.90401,concentric,4,5.0,24689.0,29237.0,100267.0,71443.0,23893.0,38034.0,42173.0,40417.0,16517.0,12434.0
2026-05-06 16:21:43.593957,765967,1609506767021202,4366933609,-0.398208,0.489952,-0.94672,17.80625,140.7875,47.7925,-6.72,5.984,-102.90401,concentric,4,5.0,24689.0,29237.0,100267.0,71443.0,23893.0,38034.0,42173.0,40417.0,16517.0,12434.0
2026-05-06 16:21:43.606444,765968,1609506767030145,4366942321,-0.343552,0.46848,-1.003328,19.6875,141.23375,50.6625,-8.448,6.808,-100.08,concentric,4,5.0,24689.0,29237.0,100267.0,71443.0,23893.0,38034.0,42173.0,40417.0,16517.0,12434.0
2026-05-06 16:21:43.619984,765969,1609506767044670,4366957261,-0.26352,0.515328,-0.886208,15.60125,141.16376,51.8875,-10.752001,7.488,-102.07201,concentric,4,5.0,24689.0,29237.0,100267.0,71443.0,23893.0,38034.0,42173.0,40417.0,16517.0,12434.0
2026-05-06 16:21:43.628813,765970,1609506767053597,4366965953,-0.26352,0.515328,-0.886208,12.31125,141.3825,52.8325,-10.752001,7.488,-102.07201,concentric,4,5.0,24689.0,29237.0,100267.0,71443.0,23893.0,38034.0,42173.0,40417.0,16517.0,12434.0
2026-05-06 16:21:43.656284,765981,1609506767062867,4366974980,-0.26352,0.515328,-0.981856,6.8775,140.86626,52.395,-10.752001,7.488,-102.07201,concentric,4,5.0,24427.0,28066.0,96919.0,72319.0,23748.0,37004.0,40500.0,40965.0,16407.0,11871.0
2026-05-06 16:21:43.659008,765982,1609506767077477,4366989971,-0.208864,0.5368,-0.981856,-1.7325,138.915,52.08,-12.200001,6.968,-100.4,concentric,4,5.0,24427.0,28066.0,96919.0,72319.0,23748.0,37004.0,40500.0,40965.0,16407.0,11871.0
2026-05-06 16:21:43.661396,765983,1609506767086406,4366998760,-0.15616,0.501664,-0.976,-2.31875,137.41,49.875,-13.912001,8.064,-99.728004,concentric,4,5.0,24427.0,28066.0,96919.0,72319.0,23748.0,37004.0,40500.0,40965.0,16407.0,11871.0
2026-05-06 16:21:43.675238,765984,1609506767101031,4367013692,-0.15616,0.501664,-0.976,-1.9775,136.255,49.11375,-13.912001,8.064,-99.728004,concentric,4,5.0,24427.0,28066.0,96919.0,72319.0,23748.0,37004.0,40500.0,40965.0,16407.0,11871.0
2026-05-06 16:21:43.683981,765985,1609506767109997,4367022500,-0.099552,0.441152,-0.909632,7.28,137.03375,48.43125,-15.992001,8.664001,-98.456,concentric,4,5.0,24427.0,28066.0,96919.0,72319.0,23748.0,37004.0,40500.0,40965.0,16407.0,11871.0
2026-05-06 16:21:43.695111,765986,1609506767119004,4367031236,-0.099552,0.441152,-0.909632,8.365,136.52625,47.85375,-15.992001,8.664001,-98.456,concentric,4,5.0,24427.0,28066.0,96919.0,72319.0,23748.0,37004.0,40500.0,40965.0,16407.0,11871.0
2026-05-06 16:21:43.711339,765987,1609506767133526,4367046145,-0.042944,0.464576,-0.962336,1.2425,135.30125,48.9125,-17.704,8.072001,-97.384,concentric,4,5.0,24427.0,28066.0,96919.0,72319.0,23748.0,37004.0,40500.0,40965.0,16407.0,11871.0
2026-05-06 16:21:43.736316,765988,1609506767142448,4367054947,-0.042944,0.464576,-0.962336,-3.7625,133.8925,47.57375,-17.704,8.072001,-97.384,concentric,4,5.0,24427.0,28066.0,96919.0,72319.0,23748.0,37004.0,40500.0,40965.0,16407.0,11871.0
2026-05-06 16:21:43.761456,765989,1609506767156934,4367067834,0.040992,0.452864,-0.944768,-11.1475,129.5175,47.013752,-19.184,8.976001,-94.896,concentric,4,5.0,24427.0,28066.0,96919.0,72319.0,23748.0,37004.0,40500.0,40965.0,16407.0,11871.0
2026-05-06 16:21:43.797742,766000,1609506767166464,4367078885,0.054656,0.398208,-0.960384,-11.50625,124.7575,47.451252,-20.28,8.8,-95.79201,concentric,4,5.0,25032.0,27891.0,93573.0,73811.0,24382.0,36959.0,38970.0,41813.0,16780.0,11852.0
2026-05-06 16:21:43.800038,766001,1609506767175390,4367087601,0.054656,0.398208,-0.960384,-0.5775,124.74,47.22375,-20.28,8.8,-95.79201,concentric,4,5.0,25032.0,27891.0,93573.0,73811.0,24382.0,36959.0,38970.0,41813.0,16780.0,11852.0
2026-05-06 16:21:43.805067,766002,1609506767189968,4367102508,0.052704,0.384544,-0.915488,4.1125,123.7425,49.9625,-21.720001,9.872001,-94.784004,concentric,4,5.0,25032.0,27891.0,93573.0,73811.0,24382.0,36959.0,38970.0,41813.0,16780.0,11852.0
2026-05-06 16:21:43.807365,766003,1609506767199079,4367111251,0.052704,0.384544,-0.915488,13.08125,122.6575,51.80875,-21.720001,9.872001,-94.784004,concentric,4,5.0,25032.0,27891.0,93573.0,73811.0,24382.0,36959.0,38970.0,41813.0,16780.0,11852.0
2026-05-06 16:21:43.809849,766004,1609506767213651,4367126208,0.070272,0.398208,-0.759328,17.47375,122.4825,52.54375,-22.448002,10.304001,-93.648,concentric,4,5.0,25032.0,27891.0,93573.0,73811.0,24382.0,36959.0,38970.0,41813.0,16780.0,11852.0
2026-05-06 16:21:43.814836,766005,1609506767222729,4367135204,0.070272,0.398208,-0.759328,10.0275,122.185,53.585,-22.448002,10.304001,-93.648,concentric,4,5.0,25032.0,27891.0,93573.0,73811.0,24382.0,36959.0,38970.0,41813.0,16780.0,11852.0
2026-05-06 16:21:43.818186,766006,1609506767237268,4367148081,0.158112,0.454816,-0.851072,-7.5425,116.2,50.295002,-23.432001,10.744,-92.44,concentric,4,5.0,25032.0,27891.0,93573.0,73811.0,24382.0,36959.0,38970.0,41813.0,16780.0,11852.0
2026-05-06 16:21:43.820083,766007,1609506767246570,4367158863,0.288896,0.394304,-1.011136,-23.5025,110.53875,51.45,-24.768002,11.648001,-92.048004,concentric,4,5.0,25032.0,27891.0,93573.0,73811.0,24382.0,36959.0,38970.0,41813.0,16780.0,11852.0
2026-05-06 16:21:43.828781,766008,1609506767255531,4367167700,0.288896,0.394304,-1.011136,-22.3825,109.82125,50.732502,-24.768002,11.648001,-92.048004,concentric,4,5.0,25032.0,27891.0,93573.0,73811.0,24382.0,36959.0,38970.0,41813.0,16780.0,11852.0
2026-05-06 16:21:43.857618,766019,1609506767270591,4367183085,0.25376,0.353312,-0.823744,-13.825,111.090004,49.25375,-25.864,10.0,-89.76,concentric,4,5.0,25357.0,27900.0,91348.0,74116.0,24561.0,37072.0,37968.0,42010.0,16853.0,11889.0
2026-05-06 16:21:43.859882,766020,1609506767279609,4367191894,0.25376,0.353312,-0.823744,-3.31625,113.40875,49.56,-25.864,10.0,-89.76,concentric,4,5.0,25357.0,27900.0,91348.0,74116.0,24561.0,37072.0,37968.0,42010.0,16853.0,11889.0
2026-05-06 16:21:43.862605,766021,1609506767288576,4367200599,0.208864,0.378688,-0.564128,2.61625,112.8225,48.86,-26.576002,10.944,-88.496,concentric,4,5.0,25357.0,27900.0,91348.0,74116.0,24561.0,37072.0,37968.0,42010.0,16853.0,11889.0
2026-05-06 16:21:43.876144,766022,1609506767303068,4367215589,0.208864,0.378688,-0.564128,0.28,108.89375,46.585,-26.576002,10.944,-88.496,concentric,4,5.0,25357.0,27900.0,91348.0,74116.0,24561.0,37072.0,37968.0,42010.0,16853.0,11889.0
2026-05-06 16:21:43.885229,766023,1609506767311985,4367224331,0.378688,0.437248,-0.755424,-17.19375,103.32875,44.42375,-27.296001,12.152,-89.288,concentric,4,5.0,25357.0,27900.0,91348.0,74116.0,24561.0,37072.0,37968.0,42010.0,16853.0,11889.0
2026-05-06 16:21:43.898907,766024,1609506767326460,4367237262,0.411872,0.421632,-0.792512,-22.88125,101.5,43.26875,-27.728,12.792001,-89.568,concentric,4,5.0,25357.0,27900.0,91348.0,74116.0,24561.0,37072.0,37968.0,42010.0,16853.0,11889.0
2026-05-06 16:21:43.908623,766025,1609506767335730,4367248028,0.411872,0.421632,-0.792512,-20.25625,101.17625,37.7825,-27.728,12.792001,-89.568,concentric,4,5.0,25357.0,27900.0,91348.0,74116.0,24561.0,37072.0,37968.0,42010.0,16853.0,11889.0
2026-05-06 16:21:43.922613,766026,1609506767350267,4367261073,0.392352,0.394304,-0.763232,-14.51625,100.94875,35.49,-28.768002,12.904,-87.672005,concentric,4,5.0,25357.0,27900.0,91348.0,74116.0,24561.0,37072.0,37968.0,42010.0,16853.0,11889.0
2026-05-06 16:21:43.933869,766027,1609506767359518,4367271873,0.392352,0.394304,-0.763232,-14.6825,99.91625,32.795002,-28.768002,12.904,-87.672005,concentric,4,5.0,25357.0,27900.0,91348.0,74116.0,24561.0,37072.0,37968.0,42010.0,16853.0,11889.0
2026-05-06 16:21:43.961335,766038,1609506767368585,4367280643,0.466528,0.386496,-0.763232,-17.2025,99.6275,33.17125,-29.824001,12.512001,-86.48,concentric,4,5.0,25100.0,27911.0,90355.0,73409.0,24292.0,37137.0,37485.0,41588.0,16674.0,11913.0
2026-05-06 16:21:43.963984,766039,1609506767383088,4367295632,0.466528,0.386496,-0.763232,-17.94625,98.69125,33.46875,-29.824001,12.512001,-86.48,concentric,4,5.0,25100.0,27911.0,90355.0,73409.0,24292.0,37137.0,37485.0,41588.0,16674.0,11913.0
2026-05-06 16:21:43.966510,766040,1609506767392118,4367304353,0.44896,0.347456,-0.667584,-17.29875,97.50125,34.09875,-29.880001,13.448001,-84.48,concentric,4,5.0,25100.0,27911.0,90355.0,73409.0,24292.0,37137.0,37485.0,41588.0,16674.0,11913.0
2026-05-06 16:21:43.980280,766041,1609506767406783,4367319421,0.493856,0.320128,-0.589504,-17.15875,94.29,34.51875,-30.552002,13.328001,-86.184006,concentric,4,5.0,25100.0,27911.0,90355.0,73409.0,24292.0,37137.0,37485.0,41588.0,16674.0,11913.0
2026-05-06 16:21:43.989046,766042,1609506767415714,4367328160,0.493856,0.320128,-0.589504,-15.70625,89.74875,34.79875,-30.552002,13.328001,-86.184006,concentric,4,5.0,25100.0,27911.0,90355.0,73409.0,24292.0,37137.0,37485.0,41588.0,16674.0,11913.0
2026-05-06 16:21:43.997604,766043,1609506767424634,4367336886,0.493856,0.320128,-0.589504,-16.30125,85.21625,35.13125,-30.552002,13.328001,-86.184006,concentric,4,5.0,25100.0,27911.0,90355.0,73409.0,24292.0,37137.0,37485.0,41588.0,16674.0,11913.0
2026-05-06 16:21:44.031353,766044,1609506767439156,4367351786,0.540704,0.347456,-0.628544,-18.8125,81.2175,37.59,-30.656002,13.888001,-83.11201,concentric,4,5.0,25100.0,27911.0,90355.0,73409.0,24292.0,37137.0,37485.0,41588.0,16674.0,11913.0
2026-05-06 16:21:44.033843,766045,1609506767448056,4367360518,0.558272,0.3416,-0.61488,-19.74,78.505,38.64875,-31.408,12.664001,-82.48801,concentric,4,5.0,25100.0,27911.0,90355.0,73409.0,24292.0,37137.0,37485.0,41588.0,16674.0,11913.0
2026-05-06 16:21:44.086628,766056,1609506767463214,4367375945,0.558272,0.3416,-0.61488,-21.25375,75.4775,39.19125,-31.408,12.664001,-82.48801,concentric,4,5.0,24358.0,27994.0,88977.0,72783.0,23870.0,37149.0,36805.0,41286.0,16348.0,11905.0
2026-05-06 16:21:44.111262,766057,1609506767472225,4367384794,0.560224,0.33184,-0.718336,-21.77875,73.43875,40.39,-31.680002,12.272,-81.424,concentric,4,5.0,24358.0,27994.0,88977.0,72783.0,23870.0,37149.0,36805.0,41286.0,16348.0,11905.0
2026-05-06 16:21:44.138932,766058,1609506767481342,4367393547,0.560224,0.33184,-0.718336,-19.495,74.0425,43.085,-31.680002,12.272,-81.424,concentric,4,5.0,24358.0,27994.0,88977.0,72783.0,23870.0,37149.0,36805.0,41286.0,16348.0,11905.0
2026-05-06 16:21:44.152523,766059,1609506767495849,4367408481,0.57584,0.279136,-0.460672,-10.3075,73.535,41.41375,-31.712002,12.816001,-80.936005,concentric,4,5.0,24358.0,27994.0,88977.0,72783.0,23870.0,37149.0,36805.0,41286.0,16348.0,11905.0
2026-05-06 16:21:44.154819,766060,1609506767504837,4367417154,0.57584,0.279136,-0.460672,-8.74125,71.277504,39.17375,-31.712002,12.816001,-80.936005,concentric,4,5.0,24358.0,27994.0,88977.0,72783.0,23870.0,37149.0,36805.0,41286.0,16348.0,11905.0
2026-05-06 16:21:44.157664,766061,1609506767519473,4367432112,0.6832,0.32208,-0.509472,-11.261251,67.10375,42.28,-31.800001,15.440001,-81.352005,concentric,4,5.0,24358.0,27994.0,88977.0,72783.0,23870.0,37149.0,36805.0,41286.0,16348.0,11905.0
2026-05-06 16:21:44.160003,766062,1609506767528543,4367440846,0.691008,0.27328,-0.499712,-14.25375,64.65375,42.41125,-31.912,15.408001,-79.80801,concentric,4,5.0,24358.0,27994.0,88977.0,72783.0,23870.0,37149.0,36805.0,41286.0,16348.0,11905.0
2026-05-06 16:21:44.162457,766063,1609506767543038,4367455746,0.691008,0.27328,-0.499712,-14.13125,61.565,38.31625,-31.912,15.408001,-79.80801,concentric,4,5.0,24358.0,27994.0,88977.0,72783.0,23870.0,37149.0,36805.0,41286.0,16348.0,11905.0
2026-05-06 16:21:44.165139,766064,1609506767551975,4367464471,0.687104,0.267424,-0.577792,-20.3,59.5,37.3975,-32.08,11.904,-78.888,concentric,4,5.0,24358.0,27994.0,88977.0,72783.0,23870.0,37149.0,36805.0,41286.0,16348.0,11905.0
2026-05-06 16:21:44.167662,766065,1609506767560969,4367473176,0.687104,0.267424,-0.577792,-21.49875,58.5375,39.01625,-32.08,11.904,-78.888,concentric,4,5.0,24358.0,27994.0,88977.0,72783.0,23870.0,37149.0,36805.0,41286.0,16348.0,11905.0
2026-05-06 16:21:44.194904,766076,1609506767575536,4367488136,0.67344,0.220576,-0.534848,-12.67875,58.3275,35.98875,-32.0,15.840001,-79.944,concentric,4,5.0,23693.0,28116.0,87805.0,71691.0,23333.0,37318.0,36244.0,40766.0,15995.0,11967.0
2026-05-06 16:21:44.197536,766077,1609506767584472,4367496831,0.67344,0.220576,-0.534848,-9.065,57.96875,36.25125,-32.0,15.840001,-79.944,concentric,4,5.0,23693.0,28116.0,87805.0,71691.0,23333.0,37318.0,36244.0,40766.0,15995.0,11967.0
2026-05-06 16:21:44.200070,766078,1609506767598983,4367509797,0.724192,0.236192,-0.523136,-8.02375,56.385002,40.39875,-32.440002,16.568,-79.312004,concentric,4,5.0,23693.0,28116.0,87805.0,71691.0,23333.0,37318.0,36244.0,40766.0,15995.0,11967.0
2026-05-06 16:21:44.202556,766079,1609506767608416,4367520722,0.70272,0.216672,-0.404064,-3.40375,55.30875,40.15375,-32.432003,15.944001,-75.792,concentric,4,5.0,23693.0,28116.0,87805.0,71691.0,23333.0,37318.0,36244.0,40766.0,15995.0,11967.0
2026-05-06 16:21:44.207532,766080,1609506767617401,4367529494,0.70272,0.216672,-0.404064,2.51125,53.47125,37.73,-32.432003,15.944001,-75.792,concentric,4,5.0,23693.0,28116.0,87805.0,71691.0,23333.0,37318.0,36244.0,40766.0,15995.0,11967.0
2026-05-06 16:21:44.209872,766081,1609506767632026,4367544468,0.774944,0.271328,-0.452864,1.33875,51.555,37.45875,-32.168003,15.720001,-77.144005,concentric,4,5.0,23693.0,28116.0,87805.0,71691.0,23333.0,37318.0,36244.0,40766.0,15995.0,11967.0
2026-05-06 16:21:44.213979,766082,1609506767641013,4367553176,0.774944,0.271328,-0.452864,-4.655,49.46375,39.4275,-32.168003,15.720001,-77.144005,concentric,4,5.0,23693.0,28116.0,87805.0,71691.0,23333.0,37318.0,36244.0,40766.0,15995.0,11967.0
2026-05-06 16:21:44.235254,766083,1609506767655522,4367568196,0.74176,0.238144,-0.480192,-7.88375,48.85125,36.9775,-32.04,17.664001,-77.592,concentric,4,5.0,23693.0,28116.0,87805.0,71691.0,23333.0,37318.0,36244.0,40766.0,15995.0,11967.0
2026-05-06 16:21:44.267790,766094,1609506767665094,4367577110,0.74176,0.238144,-0.480192,-9.8875,47.845,32.99625,-32.04,17.664001,-77.592,concentric,4,5.0,23106.0,28608.0,86699.0,70390.0,22866.0,37797.0,35733.0,40024.0,15696.0,12208.0
2026-05-06 16:21:44.270238,766095,1609506767674250,4367585856,0.743712,0.189344,-0.404064,-12.97625,46.69875,32.27,-31.816002,17.960001,-77.272,concentric,4,5.0,23106.0,28608.0,86699.0,70390.0,22866.0,37797.0,35733.0,40024.0,15696.0,12208.0
2026-05-06 16:21:44.272748,766096,1609506767688783,4367600823,0.776896,0.169824,-0.407968,-11.3575,45.0625,31.35125,-32.208,15.752001,-73.68,concentric,4,5.0,23106.0,28608.0,86699.0,70390.0,22866.0,37797.0,35733.0,40024.0,15696.0,12208.0
2026-05-06 16:21:44.275074,766097,1609506767697727,4367609631,0.776896,0.169824,-0.407968,-7.70875,43.47,30.87,-32.208,15.752001,-73.68,concentric,4,5.0,23106.0,28608.0,86699.0,70390.0,22866.0,37797.0,35733.0,40024.0,15696.0,12208.0
2026-05-06 16:21:44.289131,766098,1609506767712309,4367624624,0.774944,0.183488,-0.484096,-2.05625,43.1375,31.1675,-32.16,15.480001,-74.152,concentric,4,5.0,23106.0,28608.0,86699.0,70390.0,22866.0,37797.0,35733.0,40024.0,15696.0,12208.0
2026-05-06 16:21:44.294936,766099,1609506767721307,4367633316,0.774944,0.183488,-0.484096,2.765,43.12,30.63375,-32.16,15.480001,-74.152,concentric,4,5.0,23106.0,28608.0,86699.0,70390.0,22866.0,37797.0,35733.0,40024.0,15696.0,12208.0
2026-05-06 16:21:44.301247,766100,1609506767730262,4367642006,0.75152,0.203008,-0.386496,3.885,43.365,29.47,-31.872002,19.240002,-76.152,concentric,4,5.0,23106.0,28608.0,86699.0,70390.0,22866.0,37797.0,35733.0,40024.0,15696.0,12208.0
2026-05-06 16:21:44.335169,766101,1609506767744747,4367656927,0.75152,0.203008,-0.386496,3.115,42.35,26.74875,-31.872002,19.240002,-76.152,concentric,4,5.0,23106.0,28608.0,86699.0,70390.0,22866.0,37797.0,35733.0,40024.0,15696.0,12208.0
2026-05-06 16:21:44.337716,766102,1609506767753642,4367665779,0.804224,0.177632,-0.324032,-0.25375,39.2525,23.5375,-31.624,19.544,-75.776,concentric,4,5.0,23106.0,28608.0,86699.0,70390.0,22866.0,37797.0,35733.0,40024.0,15696.0,12208.0
2026-05-06 16:21:44.370619,766113,1609506767768401,4367680731,0.804224,0.160064,-0.396256,-2.8,36.37375,20.5275,-31.624,19.544,-73.776,concentric,4,5.0,22600.0,28812.0,85488.0,69453.0,22426.0,37979.0,35147.0,39469.0,15418.0,12320.0
2026-05-06 16:21:44.370901,766114,1609506767777361,4367689460,0.802272,0.160064,-0.396256,-3.1325,35.1925,18.73375,-31.712002,19.248001,-73.776,concentric,4,5.0,22600.0,28812.0,85488.0,69453.0,22426.0,37979.0,35147.0,39469.0,15418.0,12320.0
2026-05-06 16:21:44.374159,766115,1609506767792002,4367704344,0.75152,0.17568,-0.413824,-1.7675,35.1225,16.695,-32.280003,18.064001,-73.424,concentric,4,5.0,22600.0,28812.0,85488.0,69453.0,22426.0,37979.0,35147.0,39469.0,15418.0,12320.0
2026-05-06 16:21:44.374832,766116,1609506767800979,4367713090,0.75152,0.17568,-0.413824,-0.875,35.315,15.12,-32.280003,18.064001,-73.424,concentric,4,5.0,22600.0,28812.0,85488.0,69453.0,22426.0,37979.0,35147.0,39469.0,15418.0,12320.0
2026-05-06 16:21:44.383879,766117,1609506767809946,4367721829,0.792512,0.148352,-0.355264,0.1575,34.83375,13.37875,-31.672,19.856,-73.264,concentric,4,5.0,22600.0,28812.0,85488.0,69453.0,22426.0,37979.0,35147.0,39469.0,15418.0,12320.0
2026-05-06 16:21:44.397573,766118,1609506767824450,4367736793,0.792512,0.148352,-0.355264,-0.06125,33.1625,12.136251,-31.672,19.856,-73.264,concentric,4,5.0,22600.0,28812.0,85488.0,69453.0,22426.0,37979.0,35147.0,39469.0,15418.0,12320.0
2026-05-06 16:21:44.406334,766119,1609506767833356,4367745552,0.841312,0.12688,-0.324032,-0.95375,32.17375,10.91125,-31.840002,20.336,-74.144005,concentric,4,5.0,22600.0,28812.0,85488.0,69453.0,22426.0,37979.0,35147.0,39469.0,15418.0,12320.0
2026-05-06 16:21:44.420203,766120,1609506767847985,4367760526,0.841312,0.12688,-0.324032,0.8925,31.17625,9.93125,-31.840002,20.336,-74.144005,concentric,4,5.0,22600.0,28812.0,85488.0,69453.0,22426.0,37979.0,35147.0,39469.0,15418.0,12320.0
2026-05-06 16:21:44.433984,766121,1609506767856908,4367769220,0.825696,0.152256,-0.378688,0.805,30.70375,10.3425,-31.848001,20.504002,-73.312004,concentric,4,5.0,22600.0,28812.0,85488.0,69453.0,22426.0,37979.0,35147.0,39469.0,15418.0,12320.0
2026-05-06 16:21:44.523959,766132,1609506767871731,4367784503,0.851072,0.144448,-0.3416,-0.0525,29.522501,11.22625,-32.256,16.776001,-71.264,concentric,4,5.0,22173.0,28904.0,84285.0,68727.0,22081.0,38058.0,34598.0,39103.0,15191.0,12369.0
2026-05-06 16:21:44.526283,766133,1609506767880802,4367793358,0.851072,0.144448,-0.3416,0.56,29.37375,9.6425,-32.256,16.776001,-71.264,concentric,4,5.0,22173.0,28904.0,84285.0,68727.0,22081.0,38058.0,34598.0,39103.0,15191.0,12369.0
2026-05-06 16:21:44.528769,766134,1609506767889834,4367802063,0.88816,0.144448,-0.306464,-0.14875,28.88375,10.2725,-31.904001,21.128,-73.560005,concentric,4,5.0,22173.0,28904.0,84285.0,68727.0,22081.0,38058.0,34598.0,39103.0,15191.0,12369.0
2026-05-06 16:21:44.531456,766135,1609506767904331,4367817004,0.88816,0.144448,-0.306464,-1.00625,27.895,10.675,-31.904001,21.128,-73.560005,concentric,4,5.0,22173.0,28904.0,84285.0,68727.0,22081.0,38058.0,34598.0,39103.0,15191.0,12369.0
2026-05-06 16:21:44.533993,766136,1609506767913239,4367825699,0.903776,0.160064,-0.40016,-5.5125,28.1225,11.261251,-32.136,20.632002,-72.704,concentric,4,5.0,22173.0,28904.0,84285.0,68727.0,22081.0,38058.0,34598.0,39103.0,15191.0,12369.0
2026-05-06 16:21:44.536475,766137,1609506767927749,4367838559,0.903776,0.160064,-0.40016,-12.64375,28.3325,13.6325,-32.136,20.632002,-72.704,concentric,4,5.0,22173.0,28904.0,84285.0,68727.0,22081.0,38058.0,34598.0,39103.0,15191.0,12369.0
2026-05-06 16:21:44.538964,766138,1609506767936976,4367849313,0.837408,0.18544,-0.28304,-18.96125,29.18125,14.8925,-32.032,20.888,-72.744,concentric,4,5.0,22173.0,28904.0,84285.0,68727.0,22081.0,38058.0,34598.0,39103.0,15191.0,12369.0
2026-05-06 16:21:44.541493,766139,1609506767945908,4367858059,0.837408,0.18544,-0.28304,-21.428751,28.875,13.65,-32.032,20.888,-72.744,concentric,4,5.0,22173.0,28904.0,84285.0,68727.0,22081.0,38058.0,34598.0,39103.0,15191.0,12369.0
2026-05-06 16:21:44.543924,766140,1609506767960412,4367872979,0.89792,0.162016,-0.216672,-21.035,27.62375,12.495,-32.088,18.800001,-71.136,concentric,4,5.0,22173.0,28904.0,84285.0,68727.0,22081.0,38058.0,34598.0,39103.0,15191.0,12369.0
2026-05-06 16:21:44.576025,766151,1609506767969653,4367881741,0.89792,0.162016,-0.26352,-19.3025,26.10125,10.185,-32.088,18.800001,-71.136,concentric,4,5.0,22136.0,29477.0,83873.0,68150.0,22109.0,38670.0,34426.0,38754.0,15204.0,12655.0
2026-05-06 16:21:44.578634,766152,1609506767984232,4367896750,0.911584,0.130784,-0.26352,-15.14625,23.45875,8.19,-31.672,20.592001,-73.520004,concentric,4,5.0,22136.0,29477.0,83873.0,68150.0,22109.0,38670.0,34426.0,38754.0,15204.0,12655.0
2026-05-06 16:21:44.581292,766153,1609506767993176,4367905545,0.86864,0.138592,-0.290848,-13.2125,22.81125,7.46375,-31.856,20.952002,-72.408005,concentric,4,5.0,22136.0,29477.0,83873.0,68150.0,22109.0,38670.0,34426.0,38754.0,15204.0,12655.0
2026-05-06 16:21:44.583816,766154,1609506768002148,4367914342,0.86864,0.138592,-0.290848,-15.96,21.385,8.05875,-31.856,20.952002,-72.408005,concentric,4,5.0,22136.0,29477.0,83873.0,68150.0,22109.0,38670.0,34426.0,38754.0,15204.0,12655.0
2026-05-06 16:21:44.590039,766155,1609506768016751,4367929259,0.81984,0.138592,-0.290848,-17.98125,21.06125,6.76375,-31.728,21.28,-72.32,concentric,4,5.0,22136.0,29477.0,83873.0,68150.0,22109.0,38670.0,34426.0,38754.0,15204.0,12655.0
2026-05-06 16:21:44.603940,766156,1609506768025689,4367938042,0.81984,0.138592,-0.290848,-17.9725,19.62625,6.9475,-31.728,21.28,-72.32,concentric,4,5.0,22136.0,29477.0,83873.0,68150.0,22109.0,38670.0,34426.0,38754.0,15204.0,12655.0
2026-05-06 16:21:44.612600,766157,1609506768040251,4367952983,0.845216,0.122976,-0.187392,-16.19625,17.325,5.32,-31.928001,21.264002,-72.064,concentric,4,5.0,22136.0,29477.0,83873.0,68150.0,22109.0,38670.0,34426.0,38754.0,15204.0,12655.0
2026-05-06 16:21:44.621434,766158,1609506768049306,4367961678,0.845216,0.122976,-0.187392,-14.28875,15.26875,5.01375,-31.928001,21.264002,-72.064,concentric,4,5.0,22136.0,29477.0,83873.0,68150.0,22109.0,38670.0,34426.0,38754.0,15204.0,12655.0
2026-05-06 16:21:44.643908,766159,1609506768063830,4367974594,0.841312,0.132736,-0.245952,-12.22375,13.125,5.48625,-31.640001,20.696001,-72.576004,concentric,4,5.0,22136.0,29477.0,83873.0,68150.0,22109.0,38670.0,34426.0,38754.0,15204.0,12655.0
2026-05-06 16:21:44.674072,766170,1609506768073367,4367985768,0.784704,0.132736,-0.318176,-12.50375,11.71625,4.7425,-31.960001,21.048,-72.264,concentric,4,5.0,21999.0,29721.0,84038.0,67641.0,21987.0,38912.0,34499.0,38449.0,15139.0,12749.0
2026-05-06 16:21:44.679484,766171,1609506768082344,4367994483,0.784704,0.132736,-0.318176,-14.42,9.21375,4.1475,-31.960001,21.048,-72.264,concentric,4,5.0,21999.0,29721.0,84038.0,67641.0,21987.0,38912.0,34499.0,38449.0,15139.0,12749.0
2026-05-06 16:21:44.680020,766172,1609506768096966,4368009431,0.80032,0.111264,-0.238144,-15.5925,6.5275,2.23125,-31.744001,21.088001,-71.216,concentric,4,5.0,21999.0,29721.0,84038.0,67641.0,21987.0,38912.0,34499.0,38449.0,15139.0,12749.0
2026-05-06 16:21:44.681265,766173,1609506768105999,4368018158,0.80032,0.111264,-0.238144,-15.70625,3.99,1.2075,-31.744001,21.088001,-71.216,concentric,4,5.0,21999.0,29721.0,84038.0,67641.0,21987.0,38912.0,34499.0,38449.0,15139.0,12749.0
2026-05-06 16:21:44.695186,766174,1609506768120552,4368033138,0.853024,0.105408,-0.208864,-12.18,2.1175,-0.18375,-31.904001,19.424002,-71.28001,concentric,4,5.0,21999.0,29721.0,84038.0,67641.0,21987.0,38912.0,34499.0,38449.0,15139.0,12749.0
2026-05-06 16:21:44.724929,766175,1609506768129477,4368041839,0.853024,0.105408,-0.208864,-7.83125,0.06125,-0.32375,-31.904001,19.424002,-71.28001,eccentric,4,5.0,21999.0,29721.0,84038.0,67641.0,21987.0,38912.0,34499.0,38449.0,15139.0,12749.0
2026-05-06 16:21:44.727419,766176,1609506768138407,4368050540,0.825696,0.132736,-0.300608,-6.04625,-0.84,-0.81375,-31.896002,20.44,-72.616005,eccentric,4,5.0,21999.0,29721.0,84038.0,67641.0,21987.0,38912.0,34499.0,38449.0,15139.0,12749.0
2026-05-06 16:21:44.729981,766177,1609506768153038,4368065473,0.81984,0.138592,-0.240096,-7.37625,-1.26875,-1.365,-31.656002,21.104,-72.584,eccentric,4,5.0,21999.0,29721.0,84038.0,67641.0,21987.0,38912.0,34499.0,38449.0,15139.0,12749.0
2026-05-06 16:21:44.736273,766178,1609506768162067,4368074262,0.81984,0.138592,-0.240096,-8.54875,-2.835,-2.9925,-31.656002,21.104,-72.584,eccentric,4,5.0,21999.0,29721.0,84038.0,67641.0,21987.0,38912.0,34499.0,38449.0,15139.0,12749.0
2026-05-06 16:21:44.763939,766189,1609506768176624,4368089325,0.85888,0.113216,-0.199104,-8.9425,-4.41875,-6.15125,-31.720001,18.472,-70.952,eccentric,4,5.0,22009.0,29923.0,84373.0,67302.0,21978.0,39123.0,34662.0,38279.0,15146.0,12852.0
2026-05-06 16:21:44.766470,766190,1609506768185594,4368098026,0.85888,0.113216,-0.199104,-9.5725,-5.80125,-7.81375,-31.720001,18.472,-70.952,eccentric,4,5.0,22009.0,29923.0,84373.0,67302.0,21978.0,39123.0,34662.0,38279.0,15146.0,12852.0
2026-05-06 16:21:44.773133,766191,1609506768194572,4368106812,0.864736,0.124928,-0.20496,-6.965,-7.34125,-8.715,-32.032,16.976002,-70.48801,eccentric,4,5.0,22009.0,29923.0,84373.0,67302.0,21978.0,39123.0,34662.0,38279.0,15146.0,12852.0
2026-05-06 16:21:44.784297,766192,1609506768209034,4368121757,0.864736,0.124928,-0.20496,-3.7975,-7.93625,-7.8925,-32.032,16.976002,-70.48801,eccentric,4,5.0,22009.0,29923.0,84373.0,67302.0,21978.0,39123.0,34662.0,38279.0,15146.0,12852.0
2026-05-06 16:21:44.791292,766193,1609506768217986,4368130478,0.85888,0.13664,-0.257664,-4.69,-9.44125,-9.03875,-31.936,20.84,-72.912,eccentric,4,5.0,22009.0,29923.0,84373.0,67302.0,21978.0,39123.0,34662.0,38279.0,15146.0,12852.0
2026-05-06 16:21:44.807591,766194,1609506768232623,4368143373,0.847168,0.122976,-0.238144,-7.11375,-9.37125,-10.15,-31.696001,20.84,-73.856,eccentric,4,5.0,22009.0,29923.0,84373.0,67302.0,21978.0,39123.0,34662.0,38279.0,15146.0,12852.0
2026-05-06 16:21:44.841460,766195,1609506768241820,4368154195,0.847168,0.122976,-0.238144,-6.86,-10.9025,-11.97875,-31.696001,20.84,-73.856,eccentric,4,5.0,22009.0,29923.0,84373.0,67302.0,21978.0,39123.0,34662.0,38279.0,15146.0,12852.0
2026-05-06 16:21:44.866425,766196,1609506768256310,4368167063,0.864736,0.11712,-0.271328,-5.145,-12.60875,-14.096251,-31.856,20.784,-73.128006,eccentric,4,5.0,22009.0,29923.0,84373.0,67302.0,21978.0,39123.0,34662.0,38279.0,15146.0,12852.0
2026-05-06 16:21:44.878647,766197,1609506768265506,4368177851,0.864736,0.11712,-0.271328,-4.36625,-14.14875,-13.34375,-31.856,20.784,-73.128006,eccentric,4,5.0,22009.0,29923.0,84373.0,67302.0,21978.0,39123.0,34662.0,38279.0,15146.0,12852.0
2026-05-06 16:21:44.905926,766208,1609506768274585,4368186703,0.884256,0.111264,-0.244,-1.61,-15.79375,-14.35875,-31.968002,20.008001,-73.328,eccentric,4,5.0,22219.0,30331.0,85362.0,67012.0,22226.0,39578.0,35168.0,38117.0,15315.0,13064.0
2026-05-06 16:21:44.908405,766209,1609506768289050,4368201597,0.884256,0.111264,-0.244,0.21875,-15.68875,-15.198751,-31.968002,20.008001,-73.328,eccentric,4,5.0,22219.0,30331.0,85362.0,67012.0,22226.0,39578.0,35168.0,38117.0,15315.0,13064.0
2026-05-06 16:21:44.910988,766210,1609506768297982,4368210326,0.843264,0.138592,-0.267424,-0.875,-15.00625,-13.71125,-32.16,20.216002,-73.816,eccentric,4,5.0,22219.0,30331.0,85362.0,67012.0,22226.0,39578.0,35168.0,38117.0,15315.0,13064.0
2026-05-06 16:21:44.913494,766211,1609506768312514,4368223313,0.874496,0.148352,-0.218624,-0.2975,-15.4,-13.90375,-32.16,22.264002,-73.36,eccentric,4,5.0,22219.0,30331.0,85362.0,67012.0,22226.0,39578.0,35168.0,38117.0,15315.0,13064.0
2026-05-06 16:21:44.918468,766212,1609506768321891,4368234121,0.874496,0.148352,-0.218624,1.07625,-18.05125,-15.51375,-32.184002,20.768002,-73.36,eccentric,4,5.0,22219.0,30331.0,85362.0,67012.0,22226.0,39578.0,35168.0,38117.0,15315.0,13064.0
2026-05-06 16:21:44.920952,766213,1609506768330882,4368242870,0.874496,0.148352,-0.218624,0.41125,-19.495,-17.1675,-32.184002,20.768002,-73.36,eccentric,4,5.0,22219.0,30331.0,85362.0,67012.0,22226.0,39578.0,35168.0,38117.0,15315.0,13064.0
2026-05-06 16:21:44.923469,766214,1609506768345437,4368257773,0.854976,0.140544,-0.32208,0.83125,-21.35,-19.32875,-31.856,20.344002,-73.96001,eccentric,4,5.0,22219.0,30331.0,85362.0,67012.0,22226.0,39578.0,35168.0,38117.0,15315.0,13064.0
2026-05-06 16:21:44.925892,766215,1609506768354452,4368266671,0.808128,0.138592,-0.304512,2.56375,-22.88125,-21.63,-32.24,19.976002,-74.36,eccentric,4,5.0,22219.0,30331.0,85362.0,67012.0,22226.0,39578.0,35168.0,38117.0,15315.0,13064.0
2026-05-06 16:21:44.965685,766226,1609506768369390,4368281665,0.808128,0.138592,-0.304512,3.24625,-24.15875,-23.0825,-32.24,19.976002,-74.36,eccentric,4,5.0,22472.0,30771.0,86463.0,66740.0,22500.0,40056.0,35718.0,37976.0,15501.0,13284.0
2026-05-06 16:21:44.967471,766227,1609506768378476,4368290534,0.817888,0.150304,-0.277184,2.96625,-25.5675,-23.44125,-32.008003,19.232,-74.336006,eccentric,4,5.0,22472.0,30771.0,86463.0,66740.0,22500.0,40056.0,35718.0,37976.0,15501.0,13284.0
2026-05-06 16:21:44.970029,766228,1609506768387554,4368299341,0.817888,0.150304,-0.277184,3.675,-27.13375,-23.44125,-32.008003,19.232,-74.336006,eccentric,4,5.0,22472.0,30771.0,86463.0,66740.0,22500.0,40056.0,35718.0,37976.0,15501.0,13284.0
2026-05-06 16:21:44.976143,766229,1609506768402091,4368314276,0.825696,0.181536,-0.290848,5.13625,-28.5775,-24.0975,-32.424,16.304,-73.01601,eccentric,4,5.0,22472.0,30771.0,86463.0,66740.0,22500.0,40056.0,35718.0,37976.0,15501.0,13284.0
2026-05-06 16:21:44.982570,766230,1609506768411059,4368323044,0.825696,0.181536,-0.290848,7.525,-29.723751,-25.12125,-32.424,16.304,-73.01601,eccentric,4,5.0,22472.0,30771.0,86463.0,66740.0,22500.0,40056.0,35718.0,37976.0,15501.0,13284.0
2026-05-06 16:21:45.016422,766231,1609506768425546,4368337985,0.80032,0.17568,-0.329888,9.21375,-31.2025,-27.58,-32.656002,19.608002,-75.37601,eccentric,4,5.0,22472.0,30771.0,86463.0,66740.0,22500.0,40056.0,35718.0,37976.0,15501.0,13284.0
2026-05-06 16:21:45.018766,766232,1609506768434450,4368346798,0.774944,0.183488,-0.347456,8.5575,-31.9725,-29.155,-32.704002,19.272001,-75.240005,eccentric,4,5.0,22472.0,30771.0,86463.0,66740.0,22500.0,40056.0,35718.0,37976.0,15501.0,13284.0
2026-05-06 16:21:45.021317,766233,1609506768443393,4368355533,0.774944,0.183488,-0.347456,6.9125,-33.17125,-29.26,-32.704002,19.272001,-75.240005,eccentric,4,5.0,22472.0,30771.0,86463.0,66740.0,22500.0,40056.0,35718.0,37976.0,15501.0,13284.0
2026-05-06 16:21:45.030132,766234,1609506768457892,4368370511,0.784704,0.208864,-0.347456,6.055,-35.00875,-29.44375,-32.792,17.648,-74.328,eccentric,4,5.0,22472.0,30771.0,86463.0,66740.0,22500.0,40056.0,35718.0,37976.0,15501.0,13284.0
2026-05-06 16:21:45.043960,766235,1609506768466830,4368379249,0.784704,0.208864,-0.347456,6.23875,-36.14625,-28.7875,-32.792,17.648,-74.328,eccentric,4,5.0,22472.0,30771.0,86463.0,66740.0,22500.0,40056.0,35718.0,37976.0,15501.0,13284.0
2026-05-06 16:21:45.071339,766246,1609506768481529,4368394292,0.769088,0.23424,-0.357216,7.69125,-37.14375,-29.067501,-32.600002,18.536001,-75.824005,eccentric,4,5.0,22603.0,30838.0,87546.0,66570.0,22567.0,40113.0,36265.0,37940.0,15577.0,13311.0
2026-05-06 16:21:45.073840,766247,1609506768490619,4368403081,0.769088,0.23424,-0.357216,8.6625,-38.0275,-30.49375,-32.600002,18.536001,-75.824005,eccentric,4,5.0,22603.0,30838.0,87546.0,66570.0,22567.0,40113.0,36265.0,37940.0,15577.0,13311.0
2026-05-06 16:21:45.076187,766248,1609506768505141,4368415965,0.76128,0.257664,-0.402112,7.63,-39.025,-30.8875,-32.56,16.464,-74.728004,eccentric,4,5.0,22603.0,30838.0,87546.0,66570.0,22567.0,40113.0,36265.0,37940.0,15577.0,13311.0
2026-05-06 16:21:45.088905,766249,1609506768514464,4368426846,0.79056,0.265472,-0.335744,4.3225,-39.3925,-32.1125,-32.856003,16.776001,-77.624,eccentric,4,5.0,22603.0,30838.0,87546.0,66570.0,22567.0,40113.0,36265.0,37940.0,15577.0,13311.0
2026-05-06 16:21:45.095202,766250,1609506768523388,4368435597,0.79056,0.265472,-0.335744,1.74125,-40.4075,-34.1425,-32.856003,16.776001,-77.624,eccentric,4,5.0,22603.0,30838.0,87546.0,66570.0,22567.0,40113.0,36265.0,37940.0,15577.0,13311.0
2026-05-06 16:21:45.129017,766251,1609506768537962,4368450641,0.772992,0.279136,-0.3904,0.69125,-41.23875,-36.63625,-32.968002,17.352001,-77.32001,eccentric,4,5.0,22603.0,30838.0,87546.0,66570.0,22567.0,40113.0,36265.0,37940.0,15577.0,13311.0
2026-05-06 16:21:45.131524,766252,1609506768546890,4368459351,0.772992,0.279136,-0.3904,0.70875,-41.51875,-37.52875,-32.968002,17.352001,-77.32001,eccentric,4,5.0,22603.0,30838.0,87546.0,66570.0,22567.0,40113.0,36265.0,37940.0,15577.0,13311.0
2026-05-06 16:21:45.134036,766253,1609506768561374,4368472188,0.778848,0.281088,-0.378688,0.76125,-43.155,-39.13,-32.688,17.232,-77.504005,eccentric,4,5.0,22603.0,30838.0,87546.0,66570.0,22567.0,40113.0,36265.0,37940.0,15577.0,13311.0
2026-05-06 16:21:45.170110,766264,1609506768571432,4368483188,0.778848,0.281088,-0.378688,-0.595,-43.70625,-40.81,-32.688,17.232,-77.504005,eccentric,4,5.0,22685.0,30275.0,88908.0,66983.0,22632.0,39591.0,36990.0,38187.0,15643.0,13051.0
2026-05-06 16:21:45.172601,766265,1609506768580504,4368491994,0.763232,0.284992,-0.413824,-2.695,-44.84375,-40.97625,-32.584003,16.368,-77.856,eccentric,4,5.0,22685.0,30275.0,88908.0,66983.0,22632.0,39591.0,36990.0,38187.0,15643.0,13051.0
2026-05-06 16:21:45.175095,766266,1609506768595021,4368506966,0.7808,0.284992,-0.388448,-4.9175,-47.285,-41.25625,-32.672,15.568001,-78.464005,eccentric,4,5.0,22685.0,30275.0,88908.0,66983.0,22632.0,39591.0,36990.0,38187.0,15643.0,13051.0
2026-05-06 16:21:45.177522,766267,1609506768603960,4368515710,0.7808,0.284992,-0.388448,-6.93,-50.26,-42.8225,-32.672,15.568001,-78.464005,eccentric,4,5.0,22685.0,30275.0,88908.0,66983.0,22632.0,39591.0,36990.0,38187.0,15643.0,13051.0
2026-05-06 16:21:45.230229,766268,1609506768618458,4368530737,0.743712,0.286944,-0.435296,-8.35625,-52.98125,-43.60125,-32.936,13.968,-79.176,eccentric,4,5.0,22685.0,30275.0,88908.0,66983.0,22632.0,39591.0,36990.0,38187.0,15643.0,13051.0
2026-05-06 16:21:45.242656,766269,1609506768627390,4368539466,0.743712,0.286944,-0.435296,-9.9225,-54.4075,-43.1375,-32.936,13.968,-79.176,eccentric,4,5.0,22685.0,30275.0,88908.0,66983.0,22632.0,39591.0,36990.0,38187.0,15643.0,13051.0
2026-05-06 16:21:45.245317,766270,1609506768636294,4368548137,0.71248,0.304512,-0.45872,-9.86125,-55.36125,-42.9275,-32.792,14.944,-81.592,eccentric,4,5.0,22685.0,30275.0,88908.0,66983.0,22632.0,39591.0,36990.0,38187.0,15643.0,13051.0
2026-05-06 16:21:45.248889,766271,1609506768650776,4368563234,0.71248,0.304512,-0.45872,-10.535,-55.50125,-41.57125,-32.792,14.944,-81.592,eccentric,4,5.0,22685.0,30275.0,88908.0,66983.0,22632.0,39591.0,36990.0,38187.0,15643.0,13051.0
2026-05-06 16:21:45.249885,766272,1609506768659706,4368571964,0.710528,0.296704,-0.417728,-6.405,-56.638752,-41.30875,-32.872,14.896001,-80.48801,eccentric,4,5.0,22685.0,30275.0,88908.0,66983.0,22632.0,39591.0,36990.0,38187.0,15643.0,13051.0
2026-05-06 16:21:45.277908,766283,1609506768674439,4368586906,0.710528,0.296704,-0.417728,-2.09125,-58.87875,-42.638752,-32.872,14.896001,-80.48801,eccentric,4,5.0,23114.0,29275.0,89206.0,69158.0,23028.0,38722.0,37208.0,39463.0,15871.0,12653.0
2026-05-06 16:21:45.280217,766284,1609506768683588,4368595713,0.728096,0.30256,-0.466528,-2.2575,-61.66125,-43.40875,-32.304,14.360001,-82.128006,eccentric,4,5.0,23114.0,29275.0,89206.0,69158.0,23028.0,38722.0,37208.0,39463.0,15871.0,12653.0
2026-05-06 16:21:45.285205,766285,1609506768692667,4368604459,0.728096,0.30256,-0.466528,-5.34625,-64.715004,-42.63,-32.304,14.360001,-82.128006,eccentric,4,5.0,23114.0,29275.0,89206.0,69158.0,23028.0,38722.0,37208.0,39463.0,15871.0,12653.0
2026-05-06 16:21:45.287712,766286,1609506768707225,4368619380,0.638304,0.36112,-0.560224,-4.19125,-65.94,-42.28875,-32.392002,10.208,-79.64001,eccentric,4,5.0,23114.0,29275.0,89206.0,69158.0,23028.0,38722.0,37208.0,39463.0,15871.0,12653.0
2026-05-06 16:21:45.290226,766287,1609506768716177,4368628137,0.640256,0.337696,-0.569984,1.35625,-66.35125,-44.66,-32.456,11.072001,-83.568,eccentric,4,5.0,23114.0,29275.0,89206.0,69158.0,23028.0,38722.0,37208.0,39463.0,15871.0,12653.0
2026-05-06 16:21:45.306362,766288,1609506768730711,4368643066,0.640256,0.337696,-0.569984,2.38875,-67.41,-45.99,-32.456,11.072001,-83.568,eccentric,4,5.0,23114.0,29275.0,89206.0,69158.0,23028.0,38722.0,37208.0,39463.0,15871.0,12653.0
2026-05-06 16:21:45.312733,766289,1609506768739630,4368651844,0.618784,0.3416,-0.528992,2.625,-67.558754,-44.70375,-31.736002,12.824,-83.408005,eccentric,4,5.0,23114.0,29275.0,89206.0,69158.0,23028.0,38722.0,37208.0,39463.0,15871.0,12653.0
2026-05-06 16:21:45.352572,766290,1609506768754229,4368666742,0.618784,0.3416,-0.528992,4.4625,-69.0725,-44.94,-31.736002,12.824,-83.408005,eccentric,4,5.0,23114.0,29275.0,89206.0,69158.0,23028.0,38722.0,37208.0,39463.0,15871.0,12653.0
2026-05-06 16:21:45.367600,766291,1609506768763172,4368675462,0.620736,0.386496,-0.630496,3.185,-70.32375,-46.59375,-31.592001,12.344001,-83.232,eccentric,4,5.0,23114.0,29275.0,89206.0,69158.0,23028.0,38722.0,37208.0,39463.0,15871.0,12653.0
2026-05-06 16:21:45.400206,766302,1609506768772391,4368684256,0.620736,0.386496,-0.630496,0.0875,-70.175,-44.3275,-31.592001,12.344001,-83.232,eccentric,4,5.0,24256.0,29119.0,89424.0,71803.0,24071.0,38671.0,37402.0,40901.0,16570.0,12637.0
2026-05-06 16:21:45.402737,766303,1609506768786952,4368699357,0.544608,0.417728,-0.669536,3.7975,-68.04875,-43.155,-30.960001,11.888001,-84.712006,eccentric,4,5.0,24256.0,29119.0,89424.0,71803.0,24071.0,38671.0,37402.0,40901.0,16570.0,12637.0
2026-05-06 16:21:45.405293,766304,1609506768795873,4368708054,0.544608,0.37088,-0.49776,6.5975,-66.2025,-45.31625,-30.960001,11.888001,-84.712006,eccentric,4,5.0,24256.0,29119.0,89424.0,71803.0,24071.0,38671.0,37402.0,40901.0,16570.0,12637.0
2026-05-06 16:21:45.407730,766305,1609506768810495,4368723018,0.523136,0.37088,-0.49776,9.40625,-67.76,-46.43625,-31.192001,12.136001,-86.48,eccentric,4,5.0,24256.0,29119.0,89424.0,71803.0,24071.0,38671.0,37402.0,40901.0,16570.0,12637.0
2026-05-06 16:21:45.410159,766306,1609506768819437,4368731769,0.548512,0.349408,-0.569984,8.49625,-70.14875,-47.43375,-30.808,10.472,-86.648,eccentric,4,5.0,24256.0,29119.0,89424.0,71803.0,24071.0,38671.0,37402.0,40901.0,16570.0,12637.0
2026-05-06 16:21:45.412708,766307,1609506768828432,4368740444,0.548512,0.349408,-0.569984,0.18375,-73.78875,-47.888752,-30.808,10.472,-86.648,eccentric,4,5.0,24256.0,29119.0,89424.0,71803.0,24071.0,38671.0,37402.0,40901.0,16570.0,12637.0
2026-05-06 16:21:45.415264,766308,1609506768842991,4368755425,0.470432,0.402112,-0.638304,-2.44125,-76.01125,-48.85125,-30.176,10.608001,-87.26401,eccentric,4,5.0,24256.0,29119.0,89424.0,71803.0,24071.0,38671.0,37402.0,40901.0,16570.0,12637.0
2026-05-06 16:21:45.428839,766309,1609506768851951,4368764138,0.470432,0.402112,-0.638304,2.26625,-77.28,-52.43875,-30.176,10.608001,-87.26401,eccentric,4,5.0,24256.0,29119.0,89424.0,71803.0,24071.0,38671.0,37402.0,40901.0,16570.0,12637.0
2026-05-06 16:21:45.442595,766310,1609506768866523,4368779087,0.452864,0.437248,-0.6832,4.68125,-77.1575,-53.48,-30.336002,8.464001,-86.90401,eccentric,4,5.0,24256.0,29119.0,89424.0,71803.0,24071.0,38671.0,37402.0,40901.0,16570.0,12637.0
2026-05-06 16:21:45.477660,766322,1609506768875648,4368787918,0.452864,0.437248,-0.6832,4.97,-77.1575,-50.11125,-30.336002,8.464001,-86.90401,eccentric,4,5.0,25560.0,29274.0,91881.0,74449.0,25216.0,38835.0,38578.0,42263.0,17323.0,12748.0
2026-05-06 16:21:45.482698,766323,1609506768890229,4368802939,0.425536,0.40992,-0.579744,6.405,-78.40875,-50.72375,-29.488,9.272,-87.176,eccentric,4,5.0,25560.0,29274.0,91881.0,74449.0,25216.0,38835.0,38578.0,42263.0,17323.0,12748.0
2026-05-06 16:21:45.485178,766324,1609506768899165,4368811649,0.411872,0.42944,-0.691008,2.6425,-82.18875,-53.52375,-28.720001,10.064,-89.184006,eccentric,4,5.0,25560.0,29274.0,91881.0,74449.0,25216.0,38835.0,38578.0,42263.0,17323.0,12748.0
2026-05-06 16:21:45.490263,766325,1609506768908250,4368820397,0.411872,0.42944,-0.691008,0.9275,-86.72125,-54.2675,-28.720001,10.064,-89.184006,eccentric,4,5.0,25560.0,29274.0,91881.0,74449.0,25216.0,38835.0,38578.0,42263.0,17323.0,12748.0
2026-05-06 16:21:45.496504,766326,1609506768922820,4368835365,0.437248,0.433344,-0.815936,6.265,-88.4275,-55.44,-28.432001,9.072001,-89.408005,eccentric,4,5.0,25560.0,29274.0,91881.0,74449.0,25216.0,38835.0,38578.0,42263.0,17323.0,12748.0
2026-05-06 16:21:45.505211,766327,1609506768931785,4368844150,0.437248,0.433344,-0.815936,6.86,-87.43,-56.28875,-28.432001,9.072001,-89.408005,eccentric,4,5.0,25560.0,29274.0,91881.0,74449.0,25216.0,38835.0,38578.0,42263.0,17323.0,12748.0
2026-05-06 16:21:45.538837,766328,1609506768946330,4368859038,0.365024,0.489952,-0.61488,8.295,-86.17,-54.17125,-27.896002,6.960001,-89.72,eccentric,4,5.0,25560.0,29274.0,91881.0,74449.0,25216.0,38835.0,38578.0,42263.0,17323.0,12748.0
2026-05-06 16:21:45.541343,766329,1609506768955253,4368867784,0.365024,0.489952,-0.61488,12.7575,-87.5,-57.19875,-27.896002,6.960001,-89.72,eccentric,4,5.0,25560.0,29274.0,91881.0,74449.0,25216.0,38835.0,38578.0,42263.0,17323.0,12748.0
2026-05-06 16:21:45.543744,766330,1609506768964162,4368876498,0.261568,0.489952,-0.64416,5.3725,-92.33875,-60.24375,-27.192001,7.984,-92.464005,eccentric,4,5.0,25560.0,29274.0,91881.0,74449.0,25216.0,38835.0,38578.0,42263.0,17323.0,12748.0
2026-05-06 16:21:45.631172,766341,1609506768978823,4368889622,0.290848,0.488,-0.905728,1.00625,-96.25875,-61.31125,-26.104002,7.16,-94.384,eccentric,4,5.0,26102.0,29319.0,92785.0,75625.0,25773.0,38959.0,39005.0,42916.0,17662.0,12775.0
2026-05-06 16:21:45.633813,766342,1609506768988164,4368900537,0.290848,0.488,-0.905728,-0.0175,-97.81625,-61.6525,-26.104002,7.16,-94.384,eccentric,4,5.0,26102.0,29319.0,92785.0,75625.0,25773.0,38959.0,39005.0,42916.0,17662.0,12775.0
2026-05-06 16:21:45.636275,766343,1609506769002691,4368913439,0.288896,0.501664,-0.901824,3.92,-95.97875,-59.19375,-25.560001,7.32,-93.568,eccentric,4,5.0,26102.0,29319.0,92785.0,75625.0,25773.0,38959.0,39005.0,42916.0,17662.0,12775.0
2026-05-06 16:21:45.638808,766344,1609506769011882,4368924283,0.288896,0.501664,-0.901824,6.86875,-92.19875,-58.485,-25.560001,7.32,-93.568,eccentric,4,5.0,26102.0,29319.0,92785.0,75625.0,25773.0,38959.0,39005.0,42916.0,17662.0,12775.0
2026-05-06 16:21:45.641269,766345,1609506769020850,4368932997,0.1952,0.55632,-0.845216,6.69375,-88.97875,-56.46375,-24.640001,6.368001,-94.496,eccentric,4,5.0,26102.0,29319.0,92785.0,75625.0,25773.0,38959.0,39005.0,42916.0,17662.0,12775.0
2026-05-06 16:21:45.643660,766346,1609506769035326,4368947948,0.1952,0.55632,-0.845216,4.50625,-89.1975,-56.49,-24.640001,6.368001,-94.496,eccentric,4,5.0,26102.0,29319.0,92785.0,75625.0,25773.0,38959.0,39005.0,42916.0,17662.0,12775.0
2026-05-06 16:21:45.646322,766347,1609506769044220,4368956647,0.163968,0.589504,-0.940864,-1.18125,-88.9,-53.7075,-23.688002,6.2,-95.20801,eccentric,4,5.0,26102.0,29319.0,92785.0,75625.0,25773.0,38959.0,39005.0,42916.0,17662.0,12775.0
2026-05-06 16:21:45.648840,766348,1609506769058854,4368969711,0.23424,0.60512,-0.993568,-5.92375,-85.96,-51.33625,-23.168001,6.144,-96.01601,eccentric,4,5.0,26102.0,29319.0,92785.0,75625.0,25773.0,38959.0,39005.0,42916.0,17662.0,12775.0
2026-05-06 16:21:45.651278,766349,1609506769068205,4368980569,0.23424,0.60512,-0.993568,-9.63375,-80.885,-45.675,-23.168001,6.144,-96.01601,eccentric,4,5.0,26102.0,29319.0,92785.0,75625.0,25773.0,38959.0,39005.0,42916.0,17662.0,12775.0
2026-05-06 16:21:45.682743,766360,1609506769082925,4368995671,0.173728,0.501664,-0.81984,-8.35625,-74.83,-42.91,-22.504002,5.208,-95.712006,eccentric,4,5.0,26340.0,29500.0,95300.0,76162.0,25989.0,39142.0,40217.0,43192.0,17824.0,12884.0
2026-05-06 16:21:45.685093,766361,1609506769091878,4369004434,0.173728,0.501664,-0.81984,-11.725,-73.52625,-42.44625,-22.504002,5.208,-95.712006,eccentric,4,5.0,26340.0,29500.0,95300.0,76162.0,25989.0,39142.0,40217.0,43192.0,17824.0,12884.0
2026-05-06 16:21:45.687707,766362,1609506769100850,4369013132,0.052704,0.466528,-0.769088,-14.0,-76.22125,-42.3675,-21.784,3.384,-95.952,eccentric,4,5.0,26340.0,29500.0,95300.0,76162.0,25989.0,39142.0,40217.0,43192.0,17824.0,12884.0
2026-05-06 16:21:45.692771,766363,1609506769115392,4369028085,0.052704,0.466528,-0.769088,-11.12125,-78.155,-44.0825,-21.784,3.384,-95.952,eccentric,4,5.0,26340.0,29500.0,95300.0,76162.0,25989.0,39142.0,40217.0,43192.0,17824.0,12884.0
2026-05-06 16:21:45.698978,766364,1609506769124348,4369036823,0.093696,0.573888,-0.728096,-5.03125,-79.03,-42.09625,-20.808,3.04,-97.600006,eccentric,4,5.0,26340.0,29500.0,95300.0,76162.0,25989.0,39142.0,40217.0,43192.0,17824.0,12884.0
2026-05-06 16:21:45.716097,766365,1609506769138870,4369049788,0.113216,0.609024,-0.759328,2.5375,-84.385,-44.9575,-20.808,4.472,-97.37601,eccentric,4,5.0,26340.0,29500.0,95300.0,76162.0,25989.0,39142.0,40217.0,43192.0,17824.0,12884.0
2026-05-06 16:21:45.721295,766366,1609506769148343,4369060600,0.113216,0.609024,-0.759328,13.37875,-86.14375,-47.08375,-19.528002,4.472,-97.37601,eccentric,4,5.0,26340.0,29500.0,95300.0,76162.0,25989.0,39142.0,40217.0,43192.0,17824.0,12884.0
2026-05-06 16:21:45.729807,766367,1609506769157282,4369069312,0.113216,0.609024,-0.759328,14.56875,-92.5925,-51.975,-19.528002,4.472,-97.37601,eccentric,4,5.0,26340.0,29500.0,95300.0,76162.0,25989.0,39142.0,40217.0,43192.0,17824.0,12884.0
2026-05-06 16:21:45.777746,766378,1609506769171836,4369084337,0.031232,0.552416,-0.813984,12.39,-97.76375,-55.982502,-18.44,5.008,-99.68001,eccentric,4,5.0,25163.0,29115.0,101077.0,75434.0,24747.0,38733.0,42741.0,42764.0,17007.0,12665.0
2026-05-06 16:21:45.780235,766379,1609506769180899,4369093064,-0.07808,0.484096,-0.772992,11.15625,-101.42125,-58.89625,-17.072,1.0,-98.328,eccentric,4,5.0,25163.0,29115.0,101077.0,75434.0,24747.0,38733.0,42741.0,42764.0,17007.0,12665.0
2026-05-06 16:21:45.782733,766380,1609506769195405,4369107991,-0.07808,0.484096,-0.772992,10.96375,-107.82625,-63.81375,-17.072,1.0,-98.328,eccentric,4,5.0,25163.0,29115.0,101077.0,75434.0,24747.0,38733.0,42741.0,42764.0,17007.0,12665.0
2026-05-06 16:21:45.784971,766381,1609506769204367,4369116722,-0.121024,0.36112,-0.804224,12.48625,-114.8175,-66.08875,-15.392001,3.648,-100.840004,eccentric,4,5.0,25163.0,29115.0,101077.0,75434.0,24747.0,38733.0,42741.0,42764.0,17007.0,12665.0
2026-05-06 16:21:45.787741,766382,1609506769213412,4369125456,-0.121024,0.36112,-0.804224,15.9425,-120.18125,-69.2125,-15.392001,3.648,-100.840004,eccentric,4,5.0,25163.0,29115.0,101077.0,75434.0,24747.0,38733.0,42741.0,42764.0,17007.0,12665.0
2026-05-06 16:21:45.812181,766383,1609506769227939,4369140480,-0.20496,0.489952,-0.823744,25.26125,-122.185,-69.72875,-13.960001,4.416,-101.48801,eccentric,4,5.0,25163.0,29115.0,101077.0,75434.0,24747.0,38733.0,42741.0,42764.0,17007.0,12665.0
2026-05-06 16:21:45.816394,766384,1609506769236882,4369149256,-0.20496,0.489952,-0.823744,28.07875,-124.355,-68.83625,-13.960001,4.416,-101.48801,eccentric,4,5.0,25163.0,29115.0,101077.0,75434.0,24747.0,38733.0,42741.0,42764.0,17007.0,12665.0
2026-05-06 16:21:45.823818,766385,1609506769251361,4369162135,-0.271328,0.552416,-0.894016,15.4525,-129.885,-69.78125,-11.896001,3.936,-102.15201,eccentric,4,5.0,25163.0,29115.0,101077.0,75434.0,24747.0,38733.0,42741.0,42764.0,17007.0,12665.0
2026-05-06 16:21:45.833852,766386,1609506769260573,4369172923,-0.327936,0.425536,-0.866688,2.33625,-138.0225,-74.13875,-9.968,2.376,-101.69601,eccentric,4,5.0,25163.0,29115.0,101077.0,75434.0,24747.0,38733.0,42741.0,42764.0,17007.0,12665.0
2026-05-06 16:21:45.875124,766397,1609506769275310,4369187984,-0.327936,0.425536,-0.866688,2.7825,-140.9975,-76.125,-9.968,2.376,-101.69601,eccentric,4,5.0,24323.0,28877.0,102170.0,73648.0,23941.0,38285.0,43174.0,41776.0,16554.0,12496.0
2026-05-06 16:21:45.877637,766398,1609506769284428,4369196770,-0.366976,0.304512,-0.870592,0.55125,-143.5875,-77.35,-7.944,3.328,-103.48801,eccentric,4,5.0,24323.0,28877.0,102170.0,73648.0,23941.0,38285.0,43174.0,41776.0,16554.0,12496.0
2026-05-06 16:21:45.880158,766399,1609506769293447,4369205530,-0.366976,0.304512,-0.870592,4.8475,-145.32,-77.09625,-7.944,3.328,-103.48801,eccentric,4,5.0,24323.0,28877.0,102170.0,73648.0,23941.0,38285.0,43174.0,41776.0,16554.0,12496.0
2026-05-06 16:21:45.882654,766400,1609506769307911,4369220496,-0.472384,0.466528,-0.8296,13.29125,-146.9475,-76.3525,-5.792,1.952,-103.11201,eccentric,4,5.0,24323.0,28877.0,102170.0,73648.0,23941.0,38285.0,43174.0,41776.0,16554.0,12496.0
2026-05-06 16:21:45.891447,766401,1609506769316863,4369229246,-0.472384,0.466528,-0.8296,20.83375,-149.3275,-73.6225,-5.792,1.952,-103.11201,eccentric,4,5.0,24323.0,28877.0,102170.0,73648.0,23941.0,38285.0,43174.0,41776.0,16554.0,12496.0
2026-05-06 16:21:45.907052,766402,1609506769331376,4369242184,-0.56608,0.519232,-0.843264,19.76625,-151.78625,-73.1675,-3.416,3.384,-104.784004,eccentric,4,5.0,24323.0,28877.0,102170.0,73648.0,23941.0,38285.0,43174.0,41776.0,16554.0,12496.0
2026-05-06 16:21:45.916309,766403,1609506769341155,4369253083,-0.607072,0.413824,-0.767136,12.04875,-155.4525,-73.3775,-0.904,0.56,-101.48,eccentric,4,5.0,24323.0,28877.0,102170.0,73648.0,23941.0,38285.0,43174.0,41776.0,16554.0,12496.0
2026-05-06 16:21:45.941346,766404,1609506769350099,4369261785,-0.607072,0.413824,-0.767136,11.0075,-156.8175,-75.95,-0.904,0.56,-101.48,eccentric,4,5.0,24323.0,28877.0,102170.0,73648.0,23941.0,38285.0,43174.0,41776.0,16554.0,12496.0
2026-05-06 16:21:45.966523,766405,1609506769364613,4369276833,-0.681248,0.423584,-0.872544,8.61875,-157.4475,-76.746254,1.672,3.984,-105.216,eccentric,4,5.0,24323.0,28877.0,102170.0,73648.0,23941.0,38285.0,43174.0,41776.0,16554.0,12496.0
2026-05-06 16:21:46.045284,766416,1609506769373572,4369285567,-0.681248,0.423584,-0.872544,8.28625,-158.13875,-75.9325,1.672,3.984,-105.216,eccentric,4,5.0,24563.0,29247.0,103322.0,72921.0,24145.0,38546.0,43740.0,41381.0,16682.0,12656.0
2026-05-06 16:21:46.047690,766417,1609506769388115,4369300517,-0.669536,0.474336,-0.845216,14.805,-156.975,-75.83625,4.224,4.096,-105.32001,eccentric,4,5.0,24563.0,29247.0,103322.0,72921.0,24145.0,38546.0,43740.0,41381.0,16682.0,12656.0
2026-05-06 16:21:46.050078,766418,1609506769397067,4369309196,-0.669536,0.474336,-0.845216,17.22,-156.0825,-74.2875,4.224,4.096,-105.32001,eccentric,4,5.0,24563.0,29247.0,103322.0,72921.0,24145.0,38546.0,43740.0,41381.0,16682.0,12656.0
2026-05-06 16:21:46.052717,766419,1609506769406012,4369318111,-0.747616,0.464576,-0.851072,18.13,-156.09125,-74.2,6.944,4.392,-105.048004,eccentric,4,5.0,24563.0,29247.0,103322.0,72921.0,24145.0,38546.0,43740.0,41381.0,16682.0,12656.0
2026-05-06 16:21:46.055291,766420,1609506769420548,4369333068,-0.747616,0.460672,-0.860832,16.975,-155.05,-72.75625,6.944,4.392,-105.048004,eccentric,4,5.0,24563.0,29247.0,103322.0,72921.0,24145.0,38546.0,43740.0,41381.0,16682.0,12656.0
2026-05-06 16:21:46.057733,766421,1609506769429539,4369341891,-0.802272,0.460672,-0.860832,14.2275,-154.98875,-70.83125,9.264001,4.856,-106.288,eccentric,4,5.0,24563.0,29247.0,103322.0,72921.0,24145.0,38546.0,43740.0,41381.0,16682.0,12656.0
2026-05-06 16:21:46.062736,766422,1609506769444122,4369356818,-0.831552,0.472384,-0.843264,8.44375,-155.3825,-69.34375,11.752001,3.464,-103.664,eccentric,4,5.0,24563.0,29247.0,103322.0,72921.0,24145.0,38546.0,43740.0,41381.0,16682.0,12656.0
2026-05-06 16:21:46.067731,766423,1609506769453075,4369365528,-0.831552,0.472384,-0.843264,8.636251,-152.915,-67.7075,11.752001,3.464,-103.664,eccentric,4,5.0,24563.0,29247.0,103322.0,72921.0,24145.0,38546.0,43740.0,41381.0,16682.0,12656.0
2026-05-06 16:21:46.070057,766424,1609506769467629,4369378461,-0.85888,0.523136,-0.708576,13.02875,-148.0325,-65.93125,14.016001,5.848,-104.496,eccentric,4,5.0,24563.0,29247.0,103322.0,72921.0,24145.0,38546.0,43740.0,41381.0,16682.0,12656.0
2026-05-06 16:21:46.097337,766435,1609506769477577,4369389338,-0.85888,0.523136,-0.708576,15.715,-144.74251,-63.420002,14.016001,5.848,-104.496,eccentric,4,5.0,25214.0,29811.0,104494.0,73017.0,24685.0,39084.0,44377.0,41390.0,17060.0,12940.0
2026-05-06 16:21:46.100079,766436,1609506769486659,4369398111,-0.89792,0.40992,-0.794464,9.9225,-144.99625,-63.245,16.704,5.768,-104.12,eccentric,4,5.0,25214.0,29811.0,104494.0,73017.0,24685.0,39084.0,44377.0,41390.0,17060.0,12940.0
2026-05-06 16:21:46.102579,766437,1609506769501306,4369413145,-0.89792,0.450912,-0.841312,2.205,-144.9175,-63.51625,16.704,5.768,-104.12,eccentric,4,5.0,25214.0,29811.0,104494.0,73017.0,24685.0,39084.0,44377.0,41390.0,17060.0,12940.0
2026-05-06 16:21:46.105041,766438,1609506769510423,4369421994,-0.899872,0.450912,-0.841312,-0.3675,-141.6975,-61.20625,18.776001,6.56,-103.36001,eccentric,4,5.0,25214.0,29811.0,104494.0,73017.0,24685.0,39084.0,44377.0,41390.0,17060.0,12940.0
2026-05-06 16:21:46.107568,766439,1609506769519351,4369430755,-0.899872,0.450912,-0.841312,5.215,-135.35374,-56.90125,18.776001,6.56,-103.36001,eccentric,4,5.0,25214.0,29811.0,104494.0,73017.0,24685.0,39084.0,44377.0,41390.0,17060.0,12940.0
2026-05-06 16:21:46.109935,766440,1609506769534200,4369445653,-0.894016,0.550464,-0.7808,3.3075,-130.80376,-52.885,20.664001,6.384,-102.952,eccentric,4,5.0,25214.0,29811.0,104494.0,73017.0,24685.0,39084.0,44377.0,41390.0,17060.0,12940.0
2026-05-06 16:21:46.113834,766441,1609506769543319,4369454416,-0.933056,0.480192,-0.735904,-0.5425,-127.9775,-50.68875,22.696001,6.888001,-101.336006,eccentric,4,5.0,25214.0,29811.0,104494.0,73017.0,24685.0,39084.0,44377.0,41390.0,17060.0,12940.0
2026-05-06 16:21:46.135081,766442,1609506769558184,4369469359,-0.933056,0.480192,-0.735904,-4.82125,-125.6325,-50.98625,22.696001,6.888001,-101.336006,eccentric,4,5.0,25214.0,29811.0,104494.0,73017.0,24685.0,39084.0,44377.0,41390.0,17060.0,12940.0
2026-05-06 16:21:46.141483,766443,1609506769567545,4369480150,-0.944768,0.41968,-0.706624,-8.26875,-123.59375,-49.665,24.712002,7.04,-101.44,eccentric,4,5.0,25214.0,29811.0,104494.0,73017.0,24685.0,39084.0,44377.0,41390.0,17060.0,12940.0
2026-05-06 16:21:46.172741,766454,1609506769577057,4369489048,-0.944768,0.41968,-0.706624,-10.01875,-119.49,-47.78375,24.712002,7.04,-101.44,eccentric,4,5.0,25447.0,29938.0,104391.0,73340.0,24899.0,39213.0,44331.0,41551.0,17206.0,13027.0
2026-05-06 16:21:46.178742,766455,1609506769591687,4369504228,-0.940864,0.484096,-0.687104,-9.730001,-113.61875,-44.1175,25.984001,7.096,-100.176,eccentric,4,5.0,25447.0,29938.0,104391.0,73340.0,24899.0,39213.0,44331.0,41551.0,17206.0,13027.0
2026-05-06 16:21:46.179912,766456,1609506769600652,4369513057,-0.940864,0.484096,-0.687104,-11.83,-108.15,-40.8975,25.984001,7.096,-100.176,eccentric,4,5.0,25447.0,29938.0,104391.0,73340.0,24899.0,39213.0,44331.0,41551.0,17206.0,13027.0
2026-05-06 16:21:46.186386,766457,1609506769615179,4369525937,-0.962336,0.42944,-0.648064,-17.26375,-103.27625,-39.33125,27.576002,6.056,-99.192,eccentric,4,5.0,25447.0,29938.0,104391.0,73340.0,24899.0,39213.0,44331.0,41551.0,17206.0,13027.0
2026-05-06 16:21:46.198245,766458,1609506769624379,4369536735,-0.987712,0.386496,-0.669536,-22.7325,-98.02625,-37.73,28.896002,7.336,-100.05601,eccentric,4,5.0,25447.0,29938.0,104391.0,73340.0,24899.0,39213.0,44331.0,41551.0,17206.0,13027.0
2026-05-06 16:21:46.206142,766459,1609506769633316,4369545492,-0.987712,0.386496,-0.669536,-23.6775,-92.67125,-36.05875,28.896002,7.336,-100.05601,eccentric,4,5.0,25447.0,29938.0,104391.0,73340.0,24899.0,39213.0,44331.0,41551.0,17206.0,13027.0
2026-05-06 16:21:46.240068,766460,1609506769647823,4369560522,-0.970144,0.421632,-0.671488,-23.40625,-86.8875,-33.11875,30.008001,7.76,-99.344,eccentric,4,5.0,25447.0,29938.0,104391.0,73340.0,24899.0,39213.0,44331.0,41551.0,17206.0,13027.0
2026-05-06 16:21:46.242646,766461,1609506769656747,4369569213,-0.970144,0.421632,-0.671488,-24.99875,-80.9375,-31.10625,30.008001,7.76,-99.344,eccentric,4,5.0,25447.0,29938.0,104391.0,73340.0,24899.0,39213.0,44331.0,41551.0,17206.0,13027.0
2026-05-06 16:21:46.245071,766462,1609506769671248,4369582202,-0.9272,0.417728,-0.642208,-27.65,-75.03125,-29.2425,31.160002,7.384,-98.608,eccentric,4,5.0,25447.0,29938.0,104391.0,73340.0,24899.0,39213.0,44331.0,41551.0,17206.0,13027.0
2026-05-06 16:21:46.274973,766473,1609506769680927,4369593109,-0.9272,0.417728,-0.642208,-29.54875,-68.7575,-27.615,31.160002,7.384,-98.608,eccentric,4,5.0,25269.0,29673.0,103001.0,73458.0,24760.0,39035.0,43678.0,41643.0,17092.0,12906.0
2026-05-06 16:21:46.280321,766474,1609506769690127,4369601932,-0.95648,0.394304,-0.64416,-32.3225,-61.8275,-26.59125,31.28,3.84,-96.41601,eccentric,4,5.0,25269.0,29673.0,103001.0,73458.0,24760.0,39035.0,43678.0,41643.0,17092.0,12906.0
2026-05-06 16:21:46.280797,766475,1609506769704696,4369616867,-0.958432,0.357216,-0.577792,-35.5775,-54.83625,-24.64,32.232002,3.264,-96.352005,eccentric,4,5.0,25269.0,29673.0,103001.0,73458.0,24760.0,39035.0,43678.0,41643.0,17092.0,12906.0
2026-05-06 16:21:46.311166,766476,1609506769713881,4369625647,-0.958432,0.357216,-0.577792,-38.82375,-47.145,-21.245,32.232002,3.264,-96.352005,eccentric,4,5.0,25269.0,29673.0,103001.0,73458.0,24760.0,39035.0,43678.0,41643.0,17092.0,12906.0
