pc_time,serial_num,sensor_ts,host_ts,ax,ay,az,gx,gy,gz,mx,my,mz,phase,rpe,weight_kg,ppg_a,ppg_b,ppg_c,ppg_d,ppg_e,ppg_f,ppg_g,ppg_h,ppg_i,ppg_j
2026-05-06 16:29:21.059401,852041,1609507224410162,4824320925,0.69296,-0.597312,-0.122976,8.6625,-1.015,-9.87,-33.104,-15.008,-85.616005,none,8,5.0,42544.0,43809.0,87021.0,76442.0,40337.0,53768.0,38446.0,43174.0,25783.0,18997.0
2026-05-06 16:29:21.061203,852042,1609507224419422,4824331736,0.75152,-0.704672,-0.171776,4.29625,-0.39375,-9.86125,-33.256,-13.120001,-86.184006,none,8,5.0,42544.0,43809.0,87021.0,76442.0,40337.0,53768.0,38446.0,43174.0,25783.0,18997.0
2026-05-06 16:29:21.063935,852043,1609507224434094,4824346657,0.75152,-0.704672,-0.171776,5.3725,-0.77875,-7.735,-33.256,-13.120001,-86.184006,none,8,5.0,42544.0,43809.0,87021.0,76442.0,40337.0,53768.0,38446.0,43174.0,25783.0,18997.0
2026-05-06 16:29:21.066422,852044,1609507224443128,4824355362,0.757376,-0.528992,-0.10736,10.63125,-1.8725,-4.725,-33.008003,-13.176001,-86.8,none,8,5.0,42544.0,43809.0,87021.0,76442.0,40337.0,53768.0,38446.0,43174.0,25783.0,18997.0
2026-05-06 16:29:21.068886,852045,1609507224452065,4824364100,0.757376,-0.528992,-0.10736,13.965,-2.0475,-4.095,-33.008003,-13.176001,-86.8,none,8,5.0,42544.0,43809.0,87021.0,76442.0,40337.0,53768.0,38446.0,43174.0,25783.0,18997.0
2026-05-06 16:29:21.071492,852046,1609507224466658,4824379044,0.696864,-0.550464,-0.099552,12.32875,-1.5925,-5.075,-33.184002,-12.808001,-86.088005,none,8,5.0,42544.0,43809.0,87021.0,76442.0,40337.0,53768.0,38446.0,43174.0,25783.0,18997.0
2026-05-06 16:29:21.073870,852047,1609507224475676,4824387865,0.696864,-0.550464,-0.099552,9.00375,-1.02375,-5.59125,-33.184002,-12.808001,-86.088005,none,8,5.0,42544.0,43809.0,87021.0,76442.0,40337.0,53768.0,38446.0,43174.0,25783.0,18997.0
2026-05-06 16:29:21.082627,852048,1609507224490189,4824402848,0.743712,-0.661728,-0.142496,8.32125,-1.56625,-5.22375,-33.024002,-12.816001,-86.728004,none,8,5.0,42544.0,43809.0,87021.0,76442.0,40337.0,53768.0,38446.0,43174.0,25783.0,18997.0
2026-05-06 16:29:21.091306,852049,1609507224499134,4824411574,0.743712,-0.661728,-0.109312,11.235,-2.7825,-2.8175,-33.024002,-12.816001,-86.728004,none,8,5.0,42544.0,43809.0,87021.0,76442.0,40337.0,53768.0,38446.0,43174.0,25783.0,18997.0
2026-05-06 16:29:21.124010,852061,1609507224508203,4824420301,0.724192,-0.569984,-0.109312,12.775,-4.0425,-1.33875,-32.832,-14.184001,-84.296005,none,8,5.0,42635.0,43793.0,87223.0,76304.0,40455.0,53711.0,38507.0,43117.0,25904.0,18993.0
2026-05-06 16:29:21.126439,852062,1609507224522819,4824435252,0.69296,-0.528992,-0.072224,13.36125,-5.53875,-2.96625,-32.832,-12.200001,-87.024,none,8,5.0,42635.0,43793.0,87223.0,76304.0,40455.0,53711.0,38507.0,43117.0,25904.0,18993.0
2026-05-06 16:29:21.128964,852063,1609507224531756,4824444068,0.69296,-0.528992,-0.072224,13.011251,-6.55375,-5.1975,-32.832,-12.200001,-87.024,none,8,5.0,42635.0,43793.0,87223.0,76304.0,40455.0,53711.0,38507.0,43117.0,25904.0,18993.0
2026-05-06 16:29:21.137859,852064,1609507224546424,4824459142,0.71248,-0.638304,-0.113216,13.29125,-8.23375,-5.915,-32.472,-12.208,-86.896,none,8,5.0,42635.0,43793.0,87223.0,76304.0,40455.0,53711.0,38507.0,43117.0,25904.0,18993.0
2026-05-06 16:29:21.146315,852065,1609507224555375,4824467823,0.71248,-0.638304,-0.113216,15.0675,-9.24,-4.94375,-32.472,-12.208,-86.896,none,8,5.0,42635.0,43793.0,87223.0,76304.0,40455.0,53711.0,38507.0,43117.0,25904.0,18993.0
2026-05-06 16:29:21.160151,852066,1609507224569912,4824480690,0.724192,-0.593408,-0.132736,18.01625,-10.73625,-1.5225,-32.600002,-12.496,-87.064,none,8,5.0,42635.0,43793.0,87223.0,76304.0,40455.0,53711.0,38507.0,43117.0,25904.0,18993.0
2026-05-06 16:29:21.168989,852067,1609507224579130,4824491459,0.724192,-0.593408,-0.132736,19.34625,-11.43625,1.25125,-32.600002,-12.496,-87.064,none,8,5.0,42635.0,43793.0,87223.0,76304.0,40455.0,53711.0,38507.0,43117.0,25904.0,18993.0
2026-05-06 16:29:21.182744,852068,1609507224588060,4824500303,0.718336,-0.50752,-0.13664,16.7125,-12.005,1.44375,-32.664,-11.808001,-84.69601,none,8,5.0,42635.0,43793.0,87223.0,76304.0,40455.0,53711.0,38507.0,43117.0,25904.0,18993.0
2026-05-06 16:29:21.223747,852079,1609507224602562,4824515585,0.696864,-0.55632,-0.148352,11.47125,-12.04875,0.2625,-32.72,-13.472001,-86.336006,none,8,5.0,42627.0,43713.0,87179.0,76109.0,40498.0,53628.0,38523.0,43080.0,25959.0,18954.0
2026-05-06 16:29:21.226161,852080,1609507224611562,4824522347,0.696864,-0.55632,-0.148352,7.4025,-11.78625,-0.42875,-32.72,-13.472001,-86.336006,none,8,5.0,42627.0,43713.0,87179.0,76109.0,40498.0,53628.0,38523.0,43080.0,25959.0,18954.0
2026-05-06 16:29:21.228836,852081,1609507224626489,4824537346,0.70272,-0.648064,-0.109312,4.15625,-11.6025,-0.07,-32.496002,-13.064001,-86.22401,none,8,5.0,42627.0,43713.0,87179.0,76109.0,40498.0,53628.0,38523.0,43080.0,25959.0,18954.0
2026-05-06 16:29:21.231477,852082,1609507224636102,4824548315,0.70272,-0.648064,-0.109312,4.1125,-12.285,2.28375,-32.496002,-13.064001,-86.22401,none,8,5.0,42627.0,43713.0,87179.0,76109.0,40498.0,53628.0,38523.0,43080.0,25959.0,18954.0
2026-05-06 16:29:21.237696,852083,1609507224645224,4824557069,0.689056,-0.583648,-0.18544,6.50125,-13.448751,5.41625,-32.496002,-12.888001,-86.552,none,8,5.0,42627.0,43713.0,87179.0,76109.0,40498.0,53628.0,38523.0,43080.0,25959.0,18954.0
2026-05-06 16:29:21.276596,852084,1609507224659746,4824572031,0.689056,-0.583648,-0.18544,8.11125,-14.25375,6.18625,-32.496002,-12.888001,-86.552,none,8,5.0,42627.0,43713.0,87179.0,76109.0,40498.0,53628.0,38523.0,43080.0,25959.0,18954.0
2026-05-06 16:29:21.301607,852085,1609507224668677,4824580767,0.739808,-0.56608,-0.122976,6.4575,-14.13125,4.38375,-31.992,-11.120001,-87.456,none,8,5.0,42627.0,43713.0,87179.0,76109.0,40498.0,53628.0,38523.0,43080.0,25959.0,18954.0
2026-05-06 16:29:21.315885,852086,1609507224683148,4824595667,0.714432,-0.57584,-0.115168,4.9875,-13.755,3.78875,-31.936,-10.8,-87.816,none,8,5.0,42627.0,43713.0,87179.0,76109.0,40498.0,53628.0,38523.0,43080.0,25959.0,18954.0
2026-05-06 16:29:21.317350,852087,1609507224692083,4824604394,0.714432,-0.57584,-0.115168,4.7425,-13.29125,4.36625,-31.936,-10.8,-87.816,none,8,5.0,42627.0,43713.0,87179.0,76109.0,40498.0,53628.0,38523.0,43080.0,25959.0,18954.0
2026-05-06 16:29:21.320174,852088,1609507224701023,4824613033,0.698816,-0.577792,-0.13664,3.0625,-13.475,3.66625,-31.936,-10.8,-88.096,none,8,5.0,42627.0,43713.0,87179.0,76109.0,40498.0,53628.0,38523.0,43080.0,25959.0,18954.0
2026-05-06 16:29:21.347759,852099,1609507224715585,4824628006,0.69296,-0.577792,-0.13664,0.7,-13.195,3.8675,-31.880001,-10.776001,-88.096,none,8,5.0,42454.0,43615.0,87021.0,75847.0,40426.0,53597.0,38450.0,43039.0,25891.0,18960.0
2026-05-06 16:29:21.350255,852100,1609507224724525,4824636726,0.69296,-0.630496,-0.203008,-1.7325,-12.94125,5.495,-32.072002,-10.928,-88.240005,none,8,5.0,42454.0,43615.0,87021.0,75847.0,40426.0,53597.0,38450.0,43039.0,25891.0,18960.0
2026-05-06 16:29:21.352798,852101,1609507224738983,4824651672,0.69296,-0.630496,-0.203008,-2.625,-13.02,7.21,-32.072002,-10.928,-88.240005,none,8,5.0,42454.0,43615.0,87021.0,75847.0,40426.0,53597.0,38450.0,43039.0,25891.0,18960.0
2026-05-06 16:29:21.355133,852102,1609507224747931,4824660542,0.716384,-0.59536,-0.150304,-1.16375,-13.5975,7.4025,-31.824001,-10.272,-88.47201,none,8,5.0,42454.0,43615.0,87021.0,75847.0,40426.0,53597.0,38450.0,43039.0,25891.0,18960.0
2026-05-06 16:29:21.357824,852103,1609507224762588,4824673427,0.698816,-0.577792,-0.162016,2.2925,-14.49,7.35875,-31.624,-11.576,-88.912,none,8,5.0,42454.0,43615.0,87021.0,75847.0,40426.0,53597.0,38450.0,43039.0,25891.0,18960.0
2026-05-06 16:29:21.364091,852104,1609507224771871,4824684284,0.698816,-0.577792,-0.162016,3.87625,-14.77,6.74625,-31.624,-11.576,-88.912,none,8,5.0,42454.0,43615.0,87021.0,75847.0,40426.0,53597.0,38450.0,43039.0,25891.0,18960.0
2026-05-06 16:29:21.372842,852105,1609507224780904,4824693096,0.698816,-0.577792,-0.162016,1.42625,-13.9475,5.43375,-31.624,-11.576,-88.912,none,8,5.0,42454.0,43615.0,87021.0,75847.0,40426.0,53597.0,38450.0,43039.0,25891.0,18960.0
2026-05-06 16:29:21.386582,852106,1609507224795499,4824708077,0.708576,-0.640256,-0.216672,-0.81375,-13.3,5.25875,-31.536001,-11.944,-87.384,none,8,5.0,42454.0,43615.0,87021.0,75847.0,40426.0,53597.0,38450.0,43039.0,25891.0,18960.0
2026-05-06 16:29:21.425184,852117,1609507224804417,4824716776,0.716384,-0.609024,-0.201056,-0.93625,-13.04625,5.845,-31.160002,-10.032001,-88.840004,none,8,5.0,42238.0,43603.0,86786.0,75536.0,40288.0,53655.0,38354.0,42984.0,25808.0,18972.0
2026-05-06 16:29:21.427516,852118,1609507224818981,4824729796,0.716384,-0.609024,-0.201056,0.91,-13.055,7.41125,-31.160002,-10.032001,-88.840004,none,8,5.0,42238.0,43603.0,86786.0,75536.0,40288.0,53655.0,38354.0,42984.0,25808.0,18972.0
2026-05-06 16:29:21.430076,852119,1609507224828411,4824740653,0.704672,-0.589504,-0.150304,1.9425,-12.7225,7.4725,-31.224,-12.328001,-87.75201,none,8,5.0,42238.0,43603.0,86786.0,75536.0,40288.0,53655.0,38354.0,42984.0,25808.0,18972.0
2026-05-06 16:29:21.432395,852120,1609507224837330,4824749390,0.704672,-0.589504,-0.150304,2.17,-12.25,6.9475,-31.224,-12.328001,-87.75201,none,8,5.0,42238.0,43603.0,86786.0,75536.0,40288.0,53655.0,38354.0,42984.0,25808.0,18972.0
2026-05-06 16:29:21.443858,852121,1609507224851852,4824764346,0.685152,-0.62464,-0.189344,0.90125,-11.83875,6.4925,-31.048002,-12.608001,-86.744,none,8,5.0,42238.0,43603.0,86786.0,75536.0,40288.0,53655.0,38354.0,42984.0,25808.0,18972.0
2026-05-06 16:29:21.452419,852122,1609507224860808,4824773062,0.685152,-0.62464,-0.189344,-0.42875,-11.3225,6.545,-31.048002,-12.608001,-86.744,none,8,5.0,42238.0,43603.0,86786.0,75536.0,40288.0,53655.0,38354.0,42984.0,25808.0,18972.0
2026-05-06 16:29:21.468777,852123,1609507224875346,4824787968,0.65392,-0.630496,-0.148352,-0.2275,-11.36625,6.8425,-31.264002,-9.744,-89.520004,none,8,5.0,42238.0,43603.0,86786.0,75536.0,40288.0,53655.0,38354.0,42984.0,25808.0,18972.0
2026-05-06 16:29:21.475161,852124,1609507224884261,4824796723,0.65392,-0.591456,-0.13664,0.21,-12.45125,7.07875,-30.648,-9.52,-89.288,none,8,5.0,42238.0,43603.0,86786.0,75536.0,40288.0,53655.0,38354.0,42984.0,25808.0,18972.0
2026-05-06 16:29:21.483934,852125,1609507224893179,4824805438,0.65392,-0.591456,-0.13664,0.56875,-13.57125,7.97125,-30.648,-9.52,-89.288,none,8,5.0,42238.0,43603.0,86786.0,75536.0,40288.0,53655.0,38354.0,42984.0,25808.0,18972.0
2026-05-06 16:29:21.519892,852136,1609507224907817,4824820423,0.610976,-0.60512,-0.16592,0.58625,-14.65625,9.44125,-30.544,-9.456,-89.832,none,8,5.0,42185.0,43731.0,86726.0,75222.0,40264.0,53795.0,38309.0,42868.0,25767.0,19032.0
2026-05-06 16:29:21.526265,852137,1609507224917003,4824829197,0.610976,-0.60512,-0.16592,0.8575,-16.10875,10.10625,-30.544,-9.456,-89.832,none,8,5.0,42185.0,43731.0,86726.0,75222.0,40264.0,53795.0,38309.0,42868.0,25767.0,19032.0
2026-05-06 16:29:21.528733,852138,1609507224931614,4824844251,0.618784,-0.620736,-0.160064,1.085,-17.8675,11.2525,-30.352001,-11.072001,-88.47201,none,8,5.0,42185.0,43731.0,86726.0,75222.0,40264.0,53795.0,38309.0,42868.0,25767.0,19032.0
2026-05-06 16:29:21.531138,852139,1609507224940580,4824852945,0.618784,-0.620736,-0.160064,1.82,-19.66125,14.245,-30.352001,-11.072001,-88.47201,none,8,5.0,42185.0,43731.0,86726.0,75222.0,40264.0,53795.0,38309.0,42868.0,25767.0,19032.0
2026-05-06 16:29:21.555082,852140,1609507224955104,4824867860,0.612928,-0.601216,-0.138592,0.3325,-21.5075,16.54625,-30.328001,-10.160001,-88.928,none,8,5.0,42185.0,43731.0,86726.0,75222.0,40264.0,53795.0,38309.0,42868.0,25767.0,19032.0
2026-05-06 16:29:21.557525,852141,1609507224964051,4824876609,0.630496,-0.607072,-0.193248,-1.19,-23.86125,18.366251,-29.992,-8.320001,-89.128006,none,8,5.0,42185.0,43731.0,86726.0,75222.0,40264.0,53795.0,38309.0,42868.0,25767.0,19032.0
2026-05-06 16:29:21.563769,852142,1609507224972917,4824885328,0.630496,-0.607072,-0.193248,-1.25125,-26.59125,18.025,-29.992,-8.320001,-89.128006,none,8,5.0,42185.0,43731.0,86726.0,75222.0,40264.0,53795.0,38309.0,42868.0,25767.0,19032.0
2026-05-06 16:29:21.577459,852143,1609507224987470,4824898224,0.642208,-0.62464,-0.179584,0.7875,-29.00625,18.147501,-29.472002,-8.320001,-91.008,none,8,5.0,42185.0,43731.0,86726.0,75222.0,40264.0,53795.0,38309.0,42868.0,25767.0,19032.0
2026-05-06 16:29:21.591368,852144,1609507224996799,4824909038,0.642208,-0.62464,-0.179584,4.26125,-31.465,19.7225,-29.472002,-8.320001,-91.008,none,8,5.0,42185.0,43731.0,86726.0,75222.0,40264.0,53795.0,38309.0,42868.0,25767.0,19032.0
2026-05-06 16:29:21.642727,852155,1609507225011610,4824924216,0.69296,-0.687104,-0.199104,8.89,-33.27625,20.15125,-28.816002,-7.904,-90.008,none,8,5.0,42223.0,43751.0,86709.0,74993.0,40285.0,53910.0,38295.0,42893.0,25780.0,19067.0
2026-05-06 16:29:21.667843,852156,1609507225020612,4824933035,0.69296,-0.687104,-0.199104,8.8025,-35.93625,20.2825,-28.816002,-7.904,-90.008,none,8,5.0,42223.0,43751.0,86709.0,74993.0,40285.0,53910.0,38295.0,42893.0,25780.0,19067.0
2026-05-06 16:29:21.692678,852157,1609507225029559,4824941748,0.671488,-0.609024,-0.183488,11.20875,-38.675,21.16625,-28.816002,-7.112001,-91.392006,none,8,5.0,42223.0,43751.0,86709.0,74993.0,40285.0,53910.0,38295.0,42893.0,25780.0,19067.0
2026-05-06 16:29:21.711426,852158,1609507225044089,4824956664,0.679296,-0.696864,-0.267424,12.94125,-40.0925,21.7875,-28.048002,-6.776001,-90.096,none,8,5.0,42223.0,43751.0,86709.0,74993.0,40285.0,53910.0,38295.0,42893.0,25780.0,19067.0
2026-05-06 16:29:21.713735,852159,1609507225053016,4824965357,0.679296,-0.696864,-0.267424,11.1825,-40.670002,21.07875,-28.048002,-6.776001,-90.096,none,8,5.0,42223.0,43751.0,86709.0,74993.0,40285.0,53910.0,38295.0,42893.0,25780.0,19067.0
2026-05-06 16:29:21.716289,852160,1609507225067698,4824980315,0.710528,-0.726144,-0.193248,9.948751,-40.83625,20.1775,-27.696001,-6.392,-92.248,none,8,5.0,42223.0,43751.0,86709.0,74993.0,40285.0,53910.0,38295.0,42893.0,25780.0,19067.0
2026-05-06 16:29:21.718830,852161,1609507225076662,4824989028,0.710528,-0.726144,-0.193248,11.261251,-41.58,18.73375,-27.696001,-6.392,-92.248,none,8,5.0,42223.0,43751.0,86709.0,74993.0,40285.0,53910.0,38295.0,42893.0,25780.0,19067.0
2026-05-06 16:29:21.721268,852162,1609507225085603,4824997754,0.636352,-0.642208,-0.199104,13.8075,-43.1375,18.01625,-27.2,-5.832,-92.79201,none,8,5.0,42223.0,43751.0,86709.0,74993.0,40285.0,53910.0,38295.0,42893.0,25780.0,19067.0
2026-05-06 16:29:21.723706,852163,1609507225100089,4825012634,0.636352,-0.642208,-0.199104,12.88875,-44.70375,17.08875,-27.2,-5.832,-92.79201,none,8,5.0,42223.0,43751.0,86709.0,74993.0,40285.0,53910.0,38295.0,42893.0,25780.0,19067.0
2026-05-06 16:29:21.754015,852174,1609507225109550,4825021541,0.612928,-0.718336,-0.240096,9.24875,-45.255,16.07375,-26.216002,-6.000001,-92.616005,none,8,5.0,42283.0,43681.0,86953.0,74861.0,40353.0,53969.0,38434.0,42909.0,25780.0,19099.0
2026-05-06 16:29:21.756318,852175,1609507225124151,4825036551,0.628544,-0.749568,-0.244,6.1075,-45.21125,14.3325,-26.216002,-6.000001,-94.600006,none,8,5.0,42283.0,43681.0,86953.0,74861.0,40353.0,53969.0,38434.0,42909.0,25780.0,19099.0
2026-05-06 16:29:21.758977,852176,1609507225133081,4825045288,0.630496,-0.749568,-0.244,8.417501,-45.5,13.69375,-25.728,-5.512,-94.600006,none,8,5.0,42283.0,43681.0,86953.0,74861.0,40353.0,53969.0,38434.0,42909.0,25780.0,19099.0
2026-05-06 16:29:21.765221,852177,1609507225142113,4825054012,0.630496,-0.749568,-0.244,11.06875,-45.7625,15.575,-25.728,-5.512,-94.600006,none,8,5.0,42283.0,43681.0,86953.0,74861.0,40353.0,53969.0,38434.0,42909.0,25780.0,19099.0
2026-05-06 16:29:21.767805,852178,1609507225156678,4825068982,0.571936,-0.726144,-0.199104,8.65375,-45.00125,16.485,-25.28,-6.656,-96.256004,none,8,5.0,42283.0,43681.0,86953.0,74861.0,40353.0,53969.0,38434.0,42909.0,25780.0,19099.0
2026-05-06 16:29:21.770287,852179,1609507225165622,4825077718,0.530944,-0.72224,-0.277184,4.9175,-45.15875,14.60375,-24.456001,-5.064,-94.48801,none,8,5.0,42283.0,43681.0,86953.0,74861.0,40353.0,53969.0,38434.0,42909.0,25780.0,19099.0
2026-05-06 16:29:21.774589,852180,1609507225180134,4825092643,0.530944,-0.72224,-0.277184,2.135,-46.025,13.6325,-24.456001,-5.064,-94.48801,none,8,5.0,42283.0,43681.0,86953.0,74861.0,40353.0,53969.0,38434.0,42909.0,25780.0,19099.0
2026-05-06 16:29:21.781850,852181,1609507225189064,4825101453,0.534848,-0.730048,-0.284992,4.47125,-46.75125,13.1425,-24.464,-8.032001,-92.496,none,8,5.0,42283.0,43681.0,86953.0,74861.0,40353.0,53969.0,38434.0,42909.0,25780.0,19099.0
2026-05-06 16:29:21.792676,852182,1609507225203611,4825114360,0.534848,-0.730048,-0.284992,8.505,-47.888752,12.15375,-24.464,-8.032001,-92.496,none,8,5.0,42283.0,43681.0,86953.0,74861.0,40353.0,53969.0,38434.0,42909.0,25780.0,19099.0
2026-05-06 16:29:21.823767,852193,1609507225212953,4825125396,0.532896,-0.730048,-0.310368,11.85625,-47.9675,10.3425,-23.392,-4.496,-94.984,none,8,5.0,42501.0,43737.0,87457.0,74931.0,40562.0,54150.0,38700.0,43034.0,25884.0,19206.0
2026-05-06 16:29:21.826521,852194,1609507225222021,4825134152,0.532896,-0.730048,-0.310368,14.20125,-45.9025,9.31875,-23.392,-4.496,-94.984,none,8,5.0,42501.0,43737.0,87457.0,74931.0,40562.0,54150.0,38700.0,43034.0,25884.0,19206.0
2026-05-06 16:29:21.829018,852195,1609507225236776,4825149071,0.525088,-0.70272,-0.318176,11.06875,-43.12,9.948751,-23.36,-4.224,-95.28001,none,8,5.0,42501.0,43737.0,87457.0,74931.0,40562.0,54150.0,38700.0,43034.0,25884.0,19206.0
2026-05-06 16:29:21.837922,852196,1609507225245716,4825157817,0.489952,-0.70272,-0.372832,6.09,-41.37,9.8,-22.352001,-3.736,-95.920006,none,8,5.0,42501.0,43737.0,87457.0,74931.0,40562.0,54150.0,38700.0,43034.0,25884.0,19206.0
2026-05-06 16:29:21.854079,852197,1609507225260235,4825172732,0.489952,-0.70272,-0.372832,3.42125,-40.27625,7.21,-22.352001,-3.736,-95.920006,none,8,5.0,42501.0,43737.0,87457.0,74931.0,40562.0,54150.0,38700.0,43034.0,25884.0,19206.0
2026-05-06 16:29:21.860142,852198,1609507225269162,4825181428,0.488,-0.76128,-0.368928,7.35,-39.36625,5.25,-21.920002,-4.768,-94.69601,none,8,5.0,42501.0,43737.0,87457.0,74931.0,40562.0,54150.0,38700.0,43034.0,25884.0,19206.0
2026-05-06 16:29:21.869020,852199,1609507225278119,4825190189,0.488,-0.76128,-0.368928,13.99125,-38.0275,5.3375,-21.920002,-4.768,-94.69601,none,8,5.0,42501.0,43737.0,87457.0,74931.0,40562.0,54150.0,38700.0,43034.0,25884.0,19206.0
2026-05-06 16:29:21.888630,852200,1609507225292626,4825205140,0.45872,-0.745664,-0.366976,19.94125,-36.575,3.8675,-21.640001,-4.96,-96.448006,none,8,5.0,42501.0,43737.0,87457.0,74931.0,40562.0,54150.0,38700.0,43034.0,25884.0,19206.0
2026-05-06 16:29:21.893741,852201,1609507225301557,4825213825,0.45872,-0.745664,-0.366976,22.9075,-34.8075,1.05,-21.640001,-4.96,-96.448006,none,8,5.0,42501.0,43737.0,87457.0,74931.0,40562.0,54150.0,38700.0,43034.0,25884.0,19206.0
2026-05-06 16:29:21.925318,852212,1609507225316273,4825228839,0.456768,-0.648064,-0.472384,22.2075,-33.1975,0.79625,-20.912,-4.744,-95.58401,none,8,5.0,42770.0,43973.0,87763.0,75144.0,40823.0,54423.0,38872.0,43163.0,25989.0,19305.0
2026-05-06 16:29:21.927744,852213,1609507225325334,4825237552,0.456768,-0.648064,-0.503616,17.82375,-30.14375,-0.7175,-20.912,-4.744,-95.58401,none,8,5.0,42770.0,43973.0,87763.0,75144.0,40823.0,54423.0,38872.0,43163.0,25989.0,19305.0
2026-05-06 16:29:21.930338,852214,1609507225339979,4825252502,0.49776,-0.69296,-0.503616,11.05125,-26.005,-3.15,-20.608002,-2.856,-96.32001,none,8,5.0,42770.0,43973.0,87763.0,75144.0,40823.0,54423.0,38872.0,43163.0,25989.0,19305.0
2026-05-06 16:29:21.947842,852215,1609507225348931,4825261299,0.433344,-0.894016,-0.501664,10.7275,-21.3675,-4.9,-20.328001,-2.432,-96.704,none,8,5.0,42770.0,43973.0,87763.0,75144.0,40823.0,54423.0,38872.0,43163.0,25989.0,19305.0
2026-05-06 16:29:21.950337,852216,1609507225357946,4825270076,0.433344,-0.894016,-0.501664,17.710001,-17.89375,-13.4575,-20.328001,-2.432,-96.704,none,8,5.0,42770.0,43973.0,87763.0,75144.0,40823.0,54423.0,38872.0,43163.0,25989.0,19305.0
2026-05-06 16:29:21.964100,852217,1609507225372473,4825285084,0.484096,-0.835456,-0.476288,18.2175,-13.83375,-26.04875,-20.064001,-2.56,-96.896,none,8,5.0,42770.0,43973.0,87763.0,75144.0,40823.0,54423.0,38872.0,43163.0,25989.0,19305.0
2026-05-06 16:29:21.977630,852218,1609507225381402,4825293786,0.484096,-0.835456,-0.476288,28.81375,-11.19125,-29.3475,-20.064001,-2.56,-96.896,none,8,5.0,42770.0,43973.0,87763.0,75144.0,40823.0,54423.0,38872.0,43163.0,25989.0,19305.0
2026-05-06 16:29:22.008777,852219,1609507225396072,4825308725,0.589504,-0.689056,-0.441152,37.5375,-7.175,-30.817501,-20.232,-1.352,-96.288,none,8,5.0,42770.0,43973.0,87763.0,75144.0,40823.0,54423.0,38872.0,43163.0,25989.0,19305.0
2026-05-06 16:29:22.034115,852220,1609507225404977,4825317424,0.589504,-0.689056,-0.441152,39.20875,-2.52875,-35.525,-20.232,-1.352,-96.288,none,8,5.0,42770.0,43973.0,87763.0,75144.0,40823.0,54423.0,38872.0,43163.0,25989.0,19305.0
2026-05-06 16:29:22.070333,852231,1609507225414052,4825326682,0.505568,-0.687104,-0.50752,37.54625,2.59,-39.29625,-20.328001,-1.72,-97.896,none,8,5.0,42789.0,43969.0,87909.0,75179.0,40817.0,54454.0,38949.0,43187.0,25974.0,19309.0
2026-05-06 16:29:22.076376,852232,1609507225428593,4825339606,0.491904,-0.769088,-0.528992,35.23625,7.42,-45.7975,-20.496,-3.0,-95.704,none,8,5.0,42789.0,43969.0,87909.0,75179.0,40817.0,54454.0,38949.0,43187.0,25974.0,19309.0
2026-05-06 16:29:22.076815,852233,1609507225437901,4825350412,0.491904,-0.769088,-0.528992,32.33125,11.8825,-51.87875,-20.496,-3.0,-95.704,none,8,5.0,42789.0,43969.0,87909.0,75179.0,40817.0,54454.0,38949.0,43187.0,25974.0,19309.0
2026-05-06 16:29:22.077723,852234,1609507225452408,4825363264,0.552416,-0.681248,-0.413824,36.35625,16.23125,-54.7925,-20.896002,-0.992,-96.464005,none,8,5.0,42789.0,43969.0,87909.0,75179.0,40817.0,54454.0,38949.0,43187.0,25974.0,19309.0
2026-05-06 16:29:22.084085,852235,1609507225461886,4825374111,0.552416,-0.681248,-0.413824,47.29375,20.79875,-57.89875,-20.896002,-0.992,-96.464005,none,8,5.0,42789.0,43969.0,87909.0,75179.0,40817.0,54454.0,38949.0,43187.0,25974.0,19309.0
2026-05-06 16:29:22.084620,852236,1609507225470872,4825382883,0.42944,-0.616832,-0.372832,52.465,25.71625,-61.95,-21.096,-2.712,-95.28001,none,8,5.0,42789.0,43969.0,87909.0,75179.0,40817.0,54454.0,38949.0,43187.0,25974.0,19309.0
2026-05-06 16:29:22.086048,852237,1609507225485408,4825397853,0.42944,-0.616832,-0.372832,53.0425,29.435,-64.575,-21.096,-2.712,-95.28001,none,8,5.0,42789.0,43969.0,87909.0,75179.0,40817.0,54454.0,38949.0,43187.0,25974.0,19309.0
2026-05-06 16:29:22.087555,852238,1609507225494362,4825406579,0.470432,-0.601216,-0.355264,56.13125,32.94375,-68.67,-21.712002,-2.424,-92.48801,none,8,5.0,42789.0,43969.0,87909.0,75179.0,40817.0,54454.0,38949.0,43187.0,25974.0,19309.0
2026-05-06 16:29:22.128970,852249,1609507225508921,4825421580,0.503616,-0.571936,-0.337696,60.27,35.7175,-70.79625,-22.6,-0.832,-95.48,none,8,5.0,42959.0,43883.0,88388.0,75470.0,40995.0,54398.0,39182.0,43346.0,26164.0,19376.0
2026-05-06 16:29:22.131543,852250,1609507225517992,4825430352,0.503616,-0.571936,-0.337696,67.375,38.87625,-73.78,-22.6,-0.832,-95.48,none,8,5.0,42959.0,43883.0,88388.0,75470.0,40995.0,54398.0,39182.0,43346.0,26164.0,19376.0
2026-05-06 16:29:22.134075,852251,1609507225532507,4825443349,0.564128,-0.491904,-0.277184,73.40375,41.25625,-76.58,-23.088001,0.608,-94.592,none,8,5.0,42959.0,43883.0,88388.0,75470.0,40995.0,54398.0,39182.0,43346.0,26164.0,19376.0
2026-05-06 16:29:22.136579,852252,1609507225541905,4825454192,0.564128,-0.491904,-0.277184,76.22125,44.14375,-74.90875,-23.088001,0.608,-94.592,none,8,5.0,42959.0,43883.0,88388.0,75470.0,40995.0,54398.0,39182.0,43346.0,26164.0,19376.0
2026-05-06 16:29:22.142800,852253,1609507225550835,4825462906,0.46848,-0.464576,-0.269376,77.63,46.94375,-72.2925,-23.912,1.248,-94.32001,none,8,5.0,42959.0,43883.0,88388.0,75470.0,40995.0,54398.0,39182.0,43346.0,26164.0,19376.0
2026-05-06 16:29:22.160121,852254,1609507225565347,4825477842,0.46848,-0.464576,-0.269376,77.23625,49.455,-74.795,-23.912,1.248,-94.32001,none,8,5.0,42959.0,43883.0,88388.0,75470.0,40995.0,54398.0,39182.0,43346.0,26164.0,19376.0
2026-05-06 16:29:22.167193,852255,1609507225574250,4825486567,0.49776,-0.484096,-0.212768,78.0675,51.4675,-79.96625,-24.704,1.776,-96.00001,none,8,5.0,42959.0,43883.0,88388.0,75470.0,40995.0,54398.0,39182.0,43346.0,26164.0,19376.0
2026-05-06 16:29:22.180182,852256,1609507225588750,4825499555,0.603168,-0.464576,-0.171776,84.79625,54.22375,-81.06875,-25.792002,2.32,-92.952,none,8,5.0,42959.0,43883.0,88388.0,75470.0,40995.0,54398.0,39182.0,43346.0,26164.0,19376.0
2026-05-06 16:29:22.188725,852257,1609507225598137,4825510383,0.603168,-0.464576,-0.171776,93.70375,57.19875,-81.515,-25.792002,2.32,-92.952,none,8,5.0,42959.0,43883.0,88388.0,75470.0,40995.0,54398.0,39182.0,43346.0,26164.0,19376.0
2026-05-06 16:29:22.202688,852258,1609507225607150,4825519099,0.603168,-0.464576,-0.171776,101.03625,58.38,-83.895,-25.792002,2.32,-92.952,none,8,5.0,42959.0,43883.0,88388.0,75470.0,40995.0,54398.0,39182.0,43346.0,26164.0,19376.0
2026-05-06 16:29:22.230187,852269,1609507225621759,4825534097,0.544608,-0.343552,-0.113216,104.69375,60.03375,-85.19,-26.44,1.08,-91.216,none,8,5.0,42435.0,43260.0,88469.0,76574.0,40792.0,53866.0,39214.0,44033.0,26301.0,19275.0
2026-05-06 16:29:22.232831,852270,1609507225630752,4825542859,0.569984,-0.368928,-0.072224,106.5225,61.005,-86.17875,-27.392002,1.288,-90.592,none,8,5.0,42435.0,43260.0,88469.0,76574.0,40792.0,53866.0,39214.0,44033.0,26301.0,19275.0
2026-05-06 16:29:22.235329,852271,1609507225645263,4825557960,0.569984,-0.368928,-0.072224,106.16375,62.0375,-89.27625,-27.392002,1.288,-90.592,none,8,5.0,42435.0,43260.0,88469.0,76574.0,40792.0,53866.0,39214.0,44033.0,26301.0,19275.0
2026-05-06 16:29:22.249123,852272,1609507225654189,4825566688,0.655872,-0.415776,-0.011712,105.2975,63.02625,-94.40375,-28.176,3.6,-90.688,none,8,5.0,42435.0,43260.0,88469.0,76574.0,40792.0,53866.0,39214.0,44033.0,26301.0,19275.0
2026-05-06 16:29:22.258746,852273,1609507225663181,4825575462,0.655872,-0.415776,-0.011712,110.08375,63.34125,-96.4075,-28.176,3.6,-90.688,none,8,5.0,42435.0,43260.0,88469.0,76574.0,40792.0,53866.0,39214.0,44033.0,26301.0,19275.0
2026-05-06 16:29:22.271500,852274,1609507225677683,4825590393,0.735904,-0.366976,-0.02928,119.60375,64.79375,-95.4625,-29.296001,4.04,-88.824005,none,8,5.0,42435.0,43260.0,88469.0,76574.0,40792.0,53866.0,39214.0,44033.0,26301.0,19275.0
2026-05-06 16:29:22.277784,852275,1609507225686643,4825599175,0.735904,-0.366976,-0.02928,130.5325,64.09375,-93.555,-29.296001,4.04,-88.824005,none,8,5.0,42435.0,43260.0,88469.0,76574.0,40792.0,53866.0,39214.0,44033.0,26301.0,19275.0
2026-05-06 16:29:22.291559,852276,1609507225701165,4825612044,0.698816,-0.201056,0.003904,137.6375,63.95375,-94.78875,-30.264002,1.36,-86.688,none,8,5.0,42435.0,43260.0,88469.0,76574.0,40792.0,53866.0,39214.0,44033.0,26301.0,19275.0
2026-05-06 16:29:22.352868,852287,1609507225710502,4825622784,0.812032,-0.21472,0.177632,152.8275,60.20875,-96.71375,-31.328001,2.032,-87.064,none,8,5.0,42041.0,42195.0,88398.0,77796.0,40529.0,53012.0,39121.0,44736.0,26259.0,18982.0
2026-05-06 16:29:22.377692,852288,1609507225720000,4825631566,0.812032,-0.21472,0.177632,158.15625,58.56375,-98.1925,-31.328001,2.032,-87.064,none,8,5.0,42041.0,42195.0,88398.0,77796.0,40529.0,53012.0,39121.0,44736.0,26259.0,18982.0
2026-05-06 16:29:22.402857,852289,1609507225734496,4825646539,1.138016,-0.046848,0.347456,160.81625,55.291252,-94.955,-31.840002,6.904,-86.144005,none,8,5.0,42041.0,42195.0,88398.0,77796.0,40529.0,53012.0,39121.0,44736.0,26259.0,18982.0
2026-05-06 16:29:22.416629,852290,1609507225743501,4825655299,1.138016,-0.046848,0.347456,177.84375,50.86375,-82.8975,-31.840002,6.904,-86.144005,none,8,5.0,42041.0,42195.0,88398.0,77796.0,40529.0,53012.0,39121.0,44736.0,26259.0,18982.0
2026-05-06 16:29:22.419118,852291,1609507225758296,4825670322,0.599264,-0.56608,-0.064416,191.94875,51.065,-80.49125,-33.056,6.952,-84.744,none,8,5.0,42041.0,42195.0,88398.0,77796.0,40529.0,53012.0,39121.0,44736.0,26259.0,18982.0
2026-05-06 16:29:22.421686,852292,1609507225767301,4825679045,0.599264,-0.56608,-0.064416,130.8825,70.105,-122.96375,-33.056,6.952,-84.744,none,8,5.0,42041.0,42195.0,88398.0,77796.0,40529.0,53012.0,39121.0,44736.0,26259.0,18982.0
2026-05-06 16:29:22.424132,852293,1609507225776262,4825687782,0.013664,-0.488,0.22448,80.84125,83.23875,-159.10126,-35.024002,5.36,-85.01601,none,8,5.0,42041.0,42195.0,88398.0,77796.0,40529.0,53012.0,39121.0,44736.0,26259.0,18982.0
2026-05-06 16:29:22.426700,852294,1609507225790757,4825702780,0.948672,-0.085888,0.402112,126.35,82.4775,-129.885,-35.544003,7.28,-81.888,none,8,5.0,42041.0,42195.0,88398.0,77796.0,40529.0,53012.0,39121.0,44736.0,26259.0,18982.0
2026-05-06 16:29:22.429219,852295,1609507225799719,4825711479,0.948672,-0.085888,0.402112,176.9075,78.23375,-92.933754,-35.544003,7.28,-81.888,none,8,5.0,42041.0,42195.0,88398.0,77796.0,40529.0,53012.0,39121.0,44736.0,26259.0,18982.0
2026-05-06 16:29:22.456953,852306,1609507225814800,4825726996,0.558272,0.32208,0.486048,178.325,76.195,-93.49375,-36.800003,7.416,-79.880005,none,8,5.0,42271.0,43444.0,87368.0,76342.0,40882.0,54219.0,38648.0,43831.0,26426.0,19439.0
2026-05-06 16:29:22.461261,852307,1609507225823739,4825735746,0.558272,0.32208,0.486048,176.4,71.95125,-97.09875,-36.800003,7.416,-79.880005,none,8,5.0,42271.0,43444.0,87368.0,76342.0,40882.0,54219.0,38648.0,43831.0,26426.0,19439.0
2026-05-06 16:29:22.463946,852308,1609507225838492,4825750833,0.269376,0.427488,0.450912,151.27875,66.2725,-95.445,-37.624,6.704001,-79.008,none,8,5.0,42271.0,43444.0,87368.0,76342.0,40882.0,54219.0,38648.0,43831.0,26426.0,19439.0
2026-05-06 16:29:22.466456,852309,1609507225847507,4825759574,0.269376,0.427488,0.450912,122.027504,63.63,-99.5925,-37.624,6.704001,-79.008,none,8,5.0,42271.0,43444.0,87368.0,76342.0,40882.0,54219.0,38648.0,43831.0,26426.0,19439.0
2026-05-06 16:29:22.468912,852310,1609507225856490,4825768375,0.862784,0.03904,0.42944,89.565,69.71125,-108.815,-38.416,6.184001,-77.11201,none,8,5.0,42271.0,43444.0,87368.0,76342.0,40882.0,54219.0,38648.0,43831.0,26426.0,19439.0
2026-05-06 16:29:22.471261,852311,1609507225871059,4825783348,0.845216,0.00976,0.294752,68.81875,80.36,-109.488754,-39.688004,5.224001,-76.672005,none,8,5.0,42271.0,43444.0,87368.0,76342.0,40882.0,54219.0,38648.0,43831.0,26426.0,19439.0
2026-05-06 16:29:22.473685,852312,1609507225879993,4825792060,0.845216,0.00976,0.294752,73.56125,86.98375,-100.371254,-39.688004,5.224001,-76.672005,none,8,5.0,42271.0,43444.0,87368.0,76342.0,40882.0,54219.0,38648.0,43831.0,26426.0,19439.0
2026-05-06 16:29:22.487688,852313,1609507225894572,4825806978,0.52704,0.261568,0.472384,99.51375,88.655,-96.3725,-40.136,4.784,-74.064,none,8,5.0,42271.0,43444.0,87368.0,76342.0,40882.0,54219.0,38648.0,43831.0,26426.0,19439.0
2026-05-06 16:29:22.493989,852314,1609507225904203,4825815975,0.52704,0.261568,0.472384,118.3,87.7975,-97.65,-40.136,4.784,-74.064,none,8,5.0,42271.0,43444.0,87368.0,76342.0,40882.0,54219.0,38648.0,43831.0,26426.0,19439.0
2026-05-06 16:29:22.527796,852325,1609507225913768,4825824770,0.538752,0.417728,0.66368,108.19375,87.815,-95.1475,-41.144,4.424,-72.28001,none,8,5.0,40617.0,41837.0,85171.0,77751.0,39739.0,52989.0,37757.0,44595.0,25848.0,18946.0
2026-05-06 16:29:22.530321,852326,1609507225923380,4825835623,0.538752,0.417728,0.66368,79.65125,85.3475,-85.89,-41.144,4.424,-72.28001,none,8,5.0,40617.0,41837.0,85171.0,77751.0,39739.0,52989.0,37757.0,44595.0,25848.0,18946.0
2026-05-06 16:29:22.532837,852327,1609507225937996,4825850625,0.710528,-0.040992,0.050752,48.83375,80.675,-79.9225,-43.152,4.584,-65.368004,none,8,5.0,40617.0,41837.0,85171.0,77751.0,39739.0,52989.0,37757.0,44595.0,25848.0,18946.0
2026-05-06 16:29:22.538863,852328,1609507225946959,4825859368,0.710528,-0.040992,0.050752,30.59,68.25,-70.9625,-43.152,4.584,-65.368004,none,8,5.0,40617.0,41837.0,85171.0,77751.0,39739.0,52989.0,37757.0,44595.0,25848.0,18946.0
2026-05-06 16:29:22.552799,852329,1609507225961768,4825872542,0.823744,0.860832,0.08784,-37.9575,69.8775,56.2625,-42.760002,5.336,-62.600002,none,8,5.0,40617.0,41837.0,85171.0,77751.0,39739.0,52989.0,37757.0,44595.0,25848.0,18946.0
2026-05-06 16:29:22.561538,852330,1609507225970974,4825883316,0.681248,0.81008,0.499712,218.47,61.87125,-2.44125,-43.728,3.92,-62.816,none,8,5.0,40617.0,41837.0,85171.0,77751.0,39739.0,52989.0,37757.0,44595.0,25848.0,18946.0
2026-05-06 16:29:22.576604,852331,1609507225985485,4825896330,0.681248,0.81008,0.499712,159.10126,42.7875,-106.61875,-43.728,3.92,-62.816,none,8,5.0,40617.0,41837.0,85171.0,77751.0,39739.0,52989.0,37757.0,44595.0,25848.0,18946.0
2026-05-06 16:29:22.590283,852332,1609507225994744,4825907103,0.542656,0.495808,0.69296,117.635,63.07875,-73.5875,-44.712,3.84,-60.24,none,8,5.0,40617.0,41837.0,85171.0,77751.0,39739.0,52989.0,37757.0,44595.0,25848.0,18946.0
2026-05-06 16:29:22.594110,852333,1609507226003672,4825915960,0.542656,0.495808,0.69296,147.4375,65.590004,-51.5025,-44.712,3.84,-60.24,none,8,5.0,40617.0,41837.0,85171.0,77751.0,39739.0,52989.0,37757.0,44595.0,25848.0,18946.0
2026-05-06 16:29:22.631035,852344,1609507226018603,4825931098,0.548512,0.55632,0.538752,150.85875,57.00625,-107.371254,-45.792004,2.32,-58.072002,none,8,5.0,41083.0,43731.0,86332.0,79870.0,40218.0,54727.0,38310.0,45650.0,26337.0,19823.0
2026-05-06 16:29:22.631444,852345,1609507226027670,4825939862,0.548512,0.55632,0.538752,121.77375,60.96125,-139.3175,-45.792004,2.32,-58.072002,none,8,5.0,41083.0,43731.0,86332.0,79870.0,40218.0,54727.0,38310.0,45650.0,26337.0,19823.0
2026-05-06 16:29:22.632608,852346,1609507226036651,4825948672,0.724192,0.601216,0.735904,94.71,71.1725,-116.10375,-46.408,1.008,-57.128002,none,8,5.0,41083.0,43731.0,86332.0,79870.0,40218.0,54727.0,38310.0,45650.0,26337.0,19823.0
2026-05-06 16:29:22.646384,852347,1609507226051214,4825963617,0.599264,0.581696,0.892064,67.13875,79.6075,-99.5225,-46.408,-1.04,-55.424004,none,8,5.0,41083.0,43731.0,86332.0,79870.0,40218.0,54727.0,38310.0,45650.0,26337.0,19823.0
2026-05-06 16:29:22.652723,852348,1609507226060182,4825972367,0.599264,0.581696,0.892064,54.52125,80.42125,-106.40875,-47.176003,-1.008,-55.424004,none,8,5.0,41083.0,43731.0,86332.0,79870.0,40218.0,54727.0,38310.0,45650.0,26337.0,19823.0
2026-05-06 16:29:22.666537,852349,1609507226074680,4825987353,0.661728,0.646112,0.853024,32.43625,83.16,-101.5525,-47.704002,-1.624,-54.432003,none,8,5.0,41083.0,43731.0,86332.0,79870.0,40218.0,54727.0,38310.0,45650.0,26337.0,19823.0
2026-05-06 16:29:22.676477,852350,1609507226083710,4825996152,0.661728,0.646112,0.853024,15.5575,89.985,-89.88875,-47.704002,-1.624,-54.432003,none,8,5.0,41083.0,43731.0,86332.0,79870.0,40218.0,54727.0,38310.0,45650.0,26337.0,19823.0
2026-05-06 16:29:22.690199,852351,1609507226098245,4826009072,0.860832,0.532896,0.847168,12.74875,99.53125,-90.32625,-48.472004,-5.176,-54.04,none,8,5.0,41083.0,43731.0,86332.0,79870.0,40218.0,54727.0,38310.0,45650.0,26337.0,19823.0
2026-05-06 16:29:22.699094,852352,1609507226107508,4826019833,0.860832,0.532896,0.847168,0.84875,109.725,-97.95625,-48.472004,-5.176,-54.04,none,8,5.0,41083.0,43731.0,86332.0,79870.0,40218.0,54727.0,38310.0,45650.0,26337.0,19823.0
2026-05-06 16:29:22.795337,852363,1609507226117253,4826028752,0.689056,0.558272,0.88816,-19.355,124.8275,-99.37375,-48.432003,-5.480001,-49.912003,none,8,5.0,39583.0,42795.0,84510.0,89365.0,39357.0,53950.0,37374.0,51473.0,25919.0,19389.0
2026-05-06 16:29:22.797779,852364,1609507226131807,4826043754,0.484096,0.491904,0.901824,-23.59875,136.28125,-102.865,-48.432003,-6.232,-48.032,none,8,5.0,39583.0,42795.0,84510.0,89365.0,39357.0,53950.0,37374.0,51473.0,25919.0,19389.0
2026-05-06 16:29:22.800305,852365,1609507226140763,4826052470,0.484096,0.491904,0.901824,-29.40875,143.1325,-102.445,-48.688004,-6.232,-48.032,none,8,5.0,39583.0,42795.0,84510.0,89365.0,39357.0,53950.0,37374.0,51473.0,25919.0,19389.0
2026-05-06 16:29:22.802811,852366,1609507226155214,4826067400,0.587552,0.562176,0.935008,-40.915,147.07,-89.38125,-48.424004,-9.352,-44.112003,none,8,5.0,39583.0,42795.0,84510.0,89365.0,39357.0,53950.0,37374.0,51473.0,25919.0,19389.0
2026-05-06 16:29:22.805188,852367,1609507226164186,4826076156,0.587552,0.562176,0.935008,-25.8125,151.095,-78.81125,-48.424004,-9.352,-44.112003,none,8,5.0,39583.0,42795.0,84510.0,89365.0,39357.0,53950.0,37374.0,51473.0,25919.0,19389.0
2026-05-06 16:29:22.807806,852368,1609507226173116,4826084963,0.460672,0.532896,1.01504,-0.2275,150.40375,-82.2325,-47.904003,-6.992,-44.936,none,8,5.0,39583.0,42795.0,84510.0,89365.0,39357.0,53950.0,37374.0,51473.0,25919.0,19389.0
2026-05-06 16:29:22.810343,852369,1609507226187638,4826099865,0.460672,0.532896,1.01504,14.30625,147.28,-82.1975,-47.904003,-6.992,-44.936,none,8,5.0,39583.0,42795.0,84510.0,89365.0,39357.0,53950.0,37374.0,51473.0,25919.0,19389.0
2026-05-06 16:29:22.812812,852370,1609507226196596,4826108612,0.511424,0.366976,0.935008,15.198751,141.49625,-69.51875,-47.480003,-8.192,-42.472,none,8,5.0,39583.0,42795.0,84510.0,89365.0,39357.0,53950.0,37374.0,51473.0,25919.0,19389.0
2026-05-06 16:29:22.815330,852371,1609507226211124,4826123550,0.511424,0.366976,0.935008,15.54875,135.31876,-49.00875,-47.480003,-8.192,-42.472,none,8,5.0,39583.0,42795.0,84510.0,89365.0,39357.0,53950.0,37374.0,51473.0,25919.0,19389.0
2026-05-06 16:29:22.845498,852382,1609507226220276,4826132409,0.382592,0.583648,0.890112,26.10125,124.985,-40.0575,-46.800003,-11.928,-38.736,none,8,5.0,38818.0,41998.0,82505.0,85496.0,38850.0,53308.0,36370.0,49633.0,25480.0,19013.0
2026-05-06 16:29:22.845632,852383,1609507226229234,4826141204,0.382592,0.583648,0.890112,40.41625,121.00375,-34.107502,-46.800003,-11.928,-38.736,none,8,5.0,38818.0,41998.0,82505.0,85496.0,38850.0,53308.0,36370.0,49633.0,25480.0,19013.0
2026-05-06 16:29:22.847710,852384,1609507226243777,4826156244,0.31232,0.778848,0.960384,37.87875,113.4,-21.32375,-46.168003,-11.248,-37.84,none,8,5.0,38818.0,41998.0,82505.0,85496.0,38850.0,53308.0,36370.0,49633.0,25480.0,19013.0
2026-05-06 16:29:22.849991,852385,1609507226252735,4826165110,0.259616,0.417728,1.13216,61.5825,118.60625,-9.31,-46.168003,-11.944,-36.56,none,8,5.0,38818.0,41998.0,82505.0,85496.0,38850.0,53308.0,36370.0,49633.0,25480.0,19013.0
2026-05-06 16:29:22.859503,852386,1609507226267314,4826180079,0.259616,0.417728,1.13216,98.8925,111.13375,-21.5425,-45.52,-11.944,-36.56,none,8,5.0,38818.0,41998.0,82505.0,85496.0,38850.0,53308.0,36370.0,49633.0,25480.0,19013.0
2026-05-06 16:29:22.867691,852387,1609507226276348,4826188793,0.343552,0.61488,0.831552,103.71375,100.17875,-13.60625,-44.408,-12.176001,-35.184002,none,8,5.0,38818.0,41998.0,82505.0,85496.0,38850.0,53308.0,36370.0,49633.0,25480.0,19013.0
2026-05-06 16:29:22.881566,852388,1609507226290885,4826201676,0.343552,0.61488,0.831552,99.95125,94.57875,-4.55875,-44.408,-12.176001,-35.184002,none,8,5.0,38818.0,41998.0,82505.0,85496.0,38850.0,53308.0,36370.0,49633.0,25480.0,19013.0
2026-05-06 16:29:22.891238,852389,1609507226300111,4826212542,0.220576,0.77104,0.827648,93.371254,96.4075,-1.25125,-44.2,-13.776001,-33.576,none,8,5.0,38818.0,41998.0,82505.0,85496.0,38850.0,53308.0,36370.0,49633.0,25480.0,19013.0
2026-05-06 16:29:22.900187,852390,1609507226309054,4826221253,0.220576,0.77104,0.827648,97.8075,97.475,-1.155,-44.2,-13.776001,-33.576,none,8,5.0,38818.0,41998.0,82505.0,85496.0,38850.0,53308.0,36370.0,49633.0,25480.0,19013.0
2026-05-06 16:29:22.928884,852401,1609507226324000,4826236510,0.286944,0.884256,0.899872,104.8775,100.0125,-2.485,-43.712,-16.736,-31.28,none,8,5.0,39226.0,43165.0,82068.0,99382.0,39739.0,54649.0,36335.0,57520.0,26365.0,19673.0
2026-05-06 16:29:22.931461,852402,1609507226333111,4826245264,0.099552,0.872544,0.964288,88.97,101.98125,-23.51125,-43.712,-16.736,-31.096,none,8,5.0,39226.0,43165.0,82068.0,99382.0,39739.0,54649.0,36335.0,57520.0,26365.0,19673.0
2026-05-06 16:29:22.965240,852403,1609507226347640,4826260245,0.099552,0.872544,0.964288,57.5575,95.165,-35.34125,-42.712,-15.784,-31.096,none,8,5.0,39226.0,43165.0,82068.0,99382.0,39739.0,54649.0,36335.0,57520.0,26365.0,19673.0
2026-05-06 16:29:22.967852,852404,1609507226356690,4826268961,0.17568,0.730048,0.88816,25.82125,84.105,-34.92125,-41.968002,-16.216002,-30.632002,none,8,5.0,39226.0,43165.0,82068.0,99382.0,39739.0,54649.0,36335.0,57520.0,26365.0,19673.0
2026-05-06 16:29:22.970326,852405,1609507226365769,4826277683,0.17568,0.730048,0.88816,6.64125,75.60875,-33.1625,-41.968002,-16.216002,-30.632002,none,8,5.0,39226.0,43165.0,82068.0,99382.0,39739.0,54649.0,36335.0,57520.0,26365.0,19673.0
2026-05-06 16:29:22.972696,852406,1609507226380276,4826292659,0.05856,0.607072,0.90768,7.9275,71.5925,-30.6775,-41.224003,-16.936,-28.760002,none,8,5.0,39226.0,43165.0,82068.0,99382.0,39739.0,54649.0,36335.0,57520.0,26365.0,19673.0
2026-05-06 16:29:22.981589,852407,1609507226389213,4826301414,0.05856,0.607072,0.90768,21.62125,65.94875,-29.435,-41.224003,-16.936,-28.760002,none,8,5.0,39226.0,43165.0,82068.0,99382.0,39739.0,54649.0,36335.0,57520.0,26365.0,19673.0
2026-05-06 16:29:23.006053,852408,1609507226403753,4826316485,0.095648,0.591456,0.968192,28.9275,59.50875,-23.19625,-40.744003,-19.824001,-27.576002,none,8,5.0,39226.0,43165.0,82068.0,99382.0,39739.0,54649.0,36335.0,57520.0,26365.0,19673.0
2026-05-06 16:29:23.006622,852409,1609507226412689,4826325181,0.095648,0.591456,0.968192,31.15875,54.31125,-12.73125,-40.744003,-19.824001,-27.576002,none,8,5.0,39226.0,43165.0,82068.0,99382.0,39739.0,54649.0,36335.0,57520.0,26365.0,19673.0
2026-05-06 16:29:23.033768,852420,1609507226421770,4826334016,0.140544,0.503616,0.77104,33.215,50.54,-8.8375,-40.176003,-15.920001,-29.312002,none,8,5.0,41227.0,41610.0,78448.0,118204.0,43533.0,53450.0,34820.0,70307.0,29166.0,19183.0
2026-05-06 16:29:23.036555,852421,1609507226436287,4826347064,0.308416,0.216672,0.700768,11.480001,43.98625,-6.9125,-39.888,-18.664001,-27.800001,none,8,5.0,41227.0,41610.0,78448.0,118204.0,43533.0,53450.0,34820.0,70307.0,29166.0,19183.0
2026-05-06 16:29:23.038952,852422,1609507226445540,4826357845,0.308416,0.216672,0.700768,37.26625,49.83125,-15.30375,-39.888,-18.664001,-27.800001,none,8,5.0,41227.0,41610.0,78448.0,118204.0,43533.0,53450.0,34820.0,70307.0,29166.0,19183.0
2026-05-06 16:29:23.052813,852423,1609507226460126,4826372833,0.062464,0.772992,0.802272,20.0025,39.5325,-47.39875,-39.296,-20.240002,-25.896002,none,8,5.0,41227.0,41610.0,78448.0,118204.0,43533.0,53450.0,34820.0,70307.0,29166.0,19183.0
2026-05-06 16:29:23.061600,852424,1609507226469230,4826381582,0.062464,0.772992,0.802272,-41.125,49.56,-54.565,-39.296,-20.240002,-25.896002,none,8,5.0,41227.0,41610.0,78448.0,118204.0,43533.0,53450.0,34820.0,70307.0,29166.0,19183.0
2026-05-06 16:29:23.070336,852425,1609507226478181,4826390320,-0.148352,0.591456,0.66368,-47.18,55.55375,-51.72125,-38.864002,-21.072,-24.560001,none,8,5.0,41227.0,41610.0,78448.0,118204.0,43533.0,53450.0,34820.0,70307.0,29166.0,19183.0
2026-05-06 16:29:23.111619,852426,1609507226492701,4826405223,-0.148352,0.591456,0.66368,-44.4325,55.107502,-67.558754,-38.864002,-21.072,-24.560001,none,8,5.0,41227.0,41610.0,78448.0,118204.0,43533.0,53450.0,34820.0,70307.0,29166.0,19183.0
2026-05-06 16:29:23.136574,852427,1609507226501649,4826413982,-0.230336,0.569984,0.569984,-67.3225,55.8075,-78.02375,-37.368,-21.008001,-24.44,none,8,5.0,41227.0,41610.0,78448.0,118204.0,43533.0,53450.0,34820.0,70307.0,29166.0,19183.0
2026-05-06 16:29:23.175120,852438,1609507226516169,4826427093,-0.30256,0.5368,0.655872,-67.06875,49.91,-90.055,-36.728,-21.344002,-24.136002,none,8,5.0,39685.0,40395.0,81040.0,97680.0,40463.0,52552.0,36307.0,57061.0,26270.0,18320.0
2026-05-06 16:29:23.177784,852439,1609507226525530,4826437915,-0.30256,0.5368,0.655872,-51.98375,53.87375,-122.75375,-36.728,-21.344002,-24.136002,none,8,5.0,39685.0,40395.0,81040.0,97680.0,40463.0,52552.0,36307.0,57061.0,26270.0,18320.0
2026-05-06 16:29:23.180291,852440,1609507226540228,4826452903,-0.267424,0.505568,0.59536,-40.53875,53.5325,-174.1075,-35.24,-21.736002,-22.160002,none,8,5.0,39685.0,40395.0,81040.0,97680.0,40463.0,52552.0,36307.0,57061.0,26270.0,18320.0
2026-05-06 16:29:23.182742,852441,1609507226549155,4826461644,-0.267424,0.505568,0.59536,-70.2975,49.5425,-213.4125,-35.24,-21.736002,-22.160002,none,8,5.0,39685.0,40395.0,81040.0,97680.0,40463.0,52552.0,36307.0,57061.0,26270.0,18320.0
2026-05-06 16:29:23.185280,852442,1609507226558143,4826470382,-0.366976,0.074176,0.542656,-103.71375,52.52625,-241.605,-32.72,-20.672,-22.896002,none,8,5.0,39685.0,40395.0,81040.0,97680.0,40463.0,52552.0,36307.0,57061.0,26270.0,18320.0
2026-05-06 16:29:23.187867,852443,1609507226572728,4826485347,-0.366976,0.074176,0.542656,-130.26125,49.420002,-274.61002,-32.72,-20.672,-22.896002,none,8,5.0,39685.0,40395.0,81040.0,97680.0,40463.0,52552.0,36307.0,57061.0,26270.0,18320.0
2026-05-06 16:29:23.190362,852444,1609507226581719,4826494092,-0.542656,-1.245376,0.884256,-146.76375,39.445,-268.98376,-28.848001,-19.776001,-15.536001,none,8,5.0,39685.0,40395.0,81040.0,97680.0,40463.0,52552.0,36307.0,57061.0,26270.0,18320.0
2026-05-06 16:29:23.193864,852445,1609507226596245,4826507061,-0.77104,-0.232288,0.325984,-36.33,57.33875,-148.19,-29.552002,-21.152,-17.096,none,8,5.0,39685.0,40395.0,81040.0,97680.0,40463.0,52552.0,36307.0,57061.0,26270.0,18320.0
2026-05-06 16:29:23.196371,852446,1609507226605575,4826517857,-0.77104,-0.232288,0.325984,243.11874,166.8625,169.42625,-29.552002,-21.152,-17.096,none,8,5.0,39685.0,40395.0,81040.0,97680.0,40463.0,52552.0,36307.0,57061.0,26270.0,18320.0
2026-05-06 16:29:23.207719,852447,1609507226614499,4826526565,-0.77104,-0.232288,0.325984,248.47375,62.335,270.2525,-29.552002,-21.152,-17.096,none,8,5.0,39685.0,40395.0,81040.0,97680.0,40463.0,52552.0,36307.0,57061.0,26270.0,18320.0
2026-05-06 16:29:23.235327,852458,1609507226629253,4826541615,0.685152,1.850496,0.847168,239.96875,-25.095,76.62375,-32.912003,-33.048,-32.544003,none,8,5.0,41338.0,41042.0,80762.0,98281.0,42041.0,53135.0,36227.0,56880.0,27753.0,19023.0
2026-05-06 16:29:23.237821,852459,1609507226638360,4826550391,-0.825696,1.460096,0.870592,285.34625,-100.63375,-174.405,-32.232002,-39.52,-33.864002,none,8,5.0,41338.0,41042.0,80762.0,98281.0,42041.0,53135.0,36227.0,56880.0,27753.0,19023.0
2026-05-06 16:29:23.244141,852460,1609507226652891,4826565317,-0.825696,1.460096,0.870592,218.1725,-82.4425,-257.06625,-32.232002,-39.52,-33.864002,none,8,5.0,41338.0,41042.0,80762.0,98281.0,42041.0,53135.0,36227.0,56880.0,27753.0,19023.0
2026-05-06 16:29:23.252920,852461,1609507226661839,4826574030,-0.569984,0.96624,0.747616,106.98625,-69.41375,-184.0125,-31.680002,-38.784,-35.808002,none,8,5.0,41338.0,41042.0,80762.0,98281.0,42041.0,53135.0,36227.0,56880.0,27753.0,19023.0
2026-05-06 16:29:23.266615,852462,1609507226670806,4826582754,-0.569984,0.96624,0.747616,36.5575,-67.85625,-127.56625,-31.680002,-38.784,-35.808002,none,8,5.0,41338.0,41042.0,80762.0,98281.0,42041.0,53135.0,36227.0,56880.0,27753.0,19023.0
2026-05-06 16:29:23.275355,852463,1609507226685306,4826597721,-0.251808,0.669536,0.5368,30.05625,-68.74,-129.71875,-31.400002,-41.08,-36.280003,none,8,5.0,41338.0,41042.0,80762.0,98281.0,42041.0,53135.0,36227.0,56880.0,27753.0,19023.0
2026-05-06 16:29:23.289046,852464,1609507226694234,4826606431,-0.251808,0.669536,0.5368,69.51875,-70.6825,-156.09125,-31.400002,-41.08,-36.280003,none,8,5.0,41338.0,41042.0,80762.0,98281.0,42041.0,53135.0,36227.0,56880.0,27753.0,19023.0
2026-05-06 16:29:23.302477,852465,1609507226708782,4826621380,-0.599264,0.534848,0.56608,145.845,-70.2275,-171.17625,-30.456001,-45.704002,-39.376003,none,8,5.0,41338.0,41042.0,80762.0,98281.0,42041.0,53135.0,36227.0,56880.0,27753.0,19023.0
2026-05-06 16:29:23.331442,852476,1609507226718214,4826630299,-0.81984,0.765184,0.44896,243.61751,-90.67625,-162.715,-30.160002,-48.216003,-45.752003,none,8,5.0,40637.0,38563.0,82357.0,96838.0,41579.0,50685.0,36737.0,57258.0,27228.0,17737.0
2026-05-06 16:29:23.334115,852477,1609507226727402,4826639160,-0.81984,0.765184,0.44896,286.055,-116.68125,-133.27126,-30.160002,-48.216003,-45.752003,none,8,5.0,40637.0,38563.0,82357.0,96838.0,41579.0,50685.0,36737.0,57258.0,27228.0,17737.0
2026-05-06 16:29:23.336583,852478,1609507226741960,4826654145,-0.925248,1.501088,-0.386496,286.58,-124.74875,-83.48375,-31.600002,-54.296,-54.024002,none,8,5.0,40637.0,38563.0,82357.0,96838.0,41579.0,50685.0,36737.0,57258.0,27228.0,17737.0
2026-05-06 16:29:23.342886,852479,1609507226750913,4826662868,-0.925248,1.501088,-0.386496,286.58,-121.70375,-10.43875,-31.600002,-54.296,-54.024002,none,8,5.0,40637.0,38563.0,82357.0,96838.0,41579.0,50685.0,36737.0,57258.0,27228.0,17737.0
2026-05-06 16:29:23.376653,852480,1609507226765429,4826677804,-0.677344,1.870016,-0.866688,286.58,-113.015,52.745,-33.336002,-50.336002,-63.688004,none,8,5.0,40637.0,38563.0,82357.0,96838.0,41579.0,50685.0,36737.0,57258.0,27228.0,17737.0
2026-05-06 16:29:23.381818,852481,1609507226774349,4826686523,-0.677344,1.870016,-0.866688,286.58,-98.245,79.1175,-33.336002,-50.336002,-63.688004,none,8,5.0,40637.0,38563.0,82357.0,96838.0,41579.0,50685.0,36737.0,57258.0,27228.0,17737.0
2026-05-06 16:29:23.382229,852482,1609507226788893,4826701461,-0.476288,1.881728,-0.732,286.58,-82.32875,77.1925,-33.808002,-48.480003,-70.504005,none,8,5.0,40637.0,38563.0,82357.0,96838.0,41579.0,50685.0,36737.0,57258.0,27228.0,17737.0
2026-05-06 16:29:23.391854,852483,1609507226797868,4826710202,-0.349408,1.604544,-0.913536,286.58,-60.322502,67.1825,-34.776,-48.256,-74.76,none,8,5.0,40637.0,38563.0,82357.0,96838.0,41579.0,50685.0,36737.0,57258.0,27228.0,17737.0
2026-05-06 16:29:23.399072,852484,1609507226806790,4826718916,-0.349408,1.604544,-0.913536,281.855,-29.015,69.29125,-34.776,-48.256,-74.76,none,8,5.0,40637.0,38563.0,82357.0,96838.0,41579.0,50685.0,36737.0,57258.0,27228.0,17737.0
2026-05-06 16:29:23.435358,852496,1609507226821573,4826733907,-0.337696,1.399584,-0.837408,224.27126,-7.0,85.61875,-36.096,-44.392002,-76.472,none,8,5.0,42492.0,40966.0,90764.0,94081.0,42952.0,52515.0,40579.0,54853.0,27577.0,18431.0
2026-05-06 16:29:23.437803,852497,1609507226830575,4826742652,-0.337696,1.399584,-0.837408,148.9775,4.62875,99.6975,-36.096,-44.392002,-76.472,none,8,5.0,42492.0,40966.0,90764.0,94081.0,42952.0,52515.0,40579.0,54853.0,27577.0,18431.0
2026-05-06 16:29:23.440422,852498,1609507226845382,4826757751,-0.339648,1.128256,-0.698816,89.22375,14.14,98.7175,-37.312,-44.504,-74.64001,none,8,5.0,42492.0,40966.0,90764.0,94081.0,42952.0,52515.0,40579.0,54853.0,27577.0,18431.0
2026-05-06 16:29:23.446301,852499,1609507226854351,4826766524,-0.339648,1.128256,-0.698816,44.21375,20.18625,88.05125,-37.312,-44.504,-74.64001,none,8,5.0,42492.0,40966.0,90764.0,94081.0,42952.0,52515.0,40579.0,54853.0,27577.0,18431.0
2026-05-06 16:29:23.455216,852500,1609507226863285,4826775222,-0.320128,0.860832,-0.441152,9.28375,21.20125,79.2225,-38.84,-44.696003,-73.632,none,8,5.0,42492.0,40966.0,90764.0,94081.0,42952.0,52515.0,40579.0,54853.0,27577.0,18431.0
2026-05-06 16:29:23.482414,852501,1609507226877786,4826790216,-0.271328,0.714432,-0.550464,-29.96875,29.61875,80.35125,-39.456,-40.408,-73.8,none,8,5.0,42492.0,40966.0,90764.0,94081.0,42952.0,52515.0,40579.0,54853.0,27577.0,18431.0
2026-05-06 16:29:23.505019,852502,1609507226886721,4826798914,-0.271328,0.714432,-0.550464,-63.13125,35.02625,83.08125,-39.456,-40.408,-73.8,none,8,5.0,42492.0,40966.0,90764.0,94081.0,42952.0,52515.0,40579.0,54853.0,27577.0,18431.0
2026-05-06 16:29:23.515258,852503,1609507226901221,4826813825,-0.1952,0.659776,-0.46848,-79.205,38.815,79.94,-40.760002,-41.864002,-72.11201,none,8,5.0,42492.0,40966.0,90764.0,94081.0,42952.0,52515.0,40579.0,54853.0,27577.0,18431.0
2026-05-06 16:29:23.517714,852504,1609507226910155,4826822530,-0.1952,0.659776,-0.46848,-80.8675,45.08875,70.402504,-40.760002,-41.864002,-72.11201,none,8,5.0,42492.0,40966.0,90764.0,94081.0,42952.0,52515.0,40579.0,54853.0,27577.0,18431.0
2026-05-06 16:29:23.545354,852515,1609507226924730,4826835547,-0.171776,0.599264,-0.368928,-75.71375,49.9275,58.98375,-41.120003,-39.176003,-73.28001,none,8,5.0,41441.0,39289.0,85882.0,95511.0,42119.0,50913.0,38429.0,55532.0,26996.0,17631.0
2026-05-06 16:29:23.547890,852516,1609507226934089,4826846402,-0.171776,0.599264,-0.368928,-83.06375,55.16,44.51125,-41.120003,-39.176003,-73.28001,none,8,5.0,41441.0,39289.0,85882.0,95511.0,42119.0,50913.0,38429.0,55532.0,26996.0,17631.0
2026-05-06 16:29:23.550241,852517,1609507226943146,4826855140,-0.06832,0.671488,-0.378688,-105.3325,61.232502,33.6175,-42.000004,-41.144,-68.392006,none,8,5.0,41441.0,39289.0,85882.0,95511.0,42119.0,50913.0,38429.0,55532.0,26996.0,17631.0
2026-05-06 16:29:23.552841,852518,1609507226957727,4826870264,-0.06832,0.62464,-0.21472,-114.135,62.405,30.1,-42.000004,-41.144,-68.392006,none,8,5.0,41441.0,39289.0,85882.0,95511.0,42119.0,50913.0,38429.0,55532.0,26996.0,17631.0
2026-05-06 16:29:23.559104,852519,1609507226966670,4826879010,0.005856,0.62464,-0.21472,-109.585,58.59,26.69625,-42.224003,-40.584003,-67.688,none,8,5.0,41441.0,39289.0,85882.0,95511.0,42119.0,50913.0,38429.0,55532.0,26996.0,17631.0
2026-05-06 16:29:23.575920,852520,1609507226981201,4826893914,0.21472,0.632448,-0.191296,-107.2575,56.2625,14.48125,-41.488003,-38.800003,-65.264,none,8,5.0,41441.0,39289.0,85882.0,95511.0,42119.0,50913.0,38429.0,55532.0,26996.0,17631.0
2026-05-06 16:29:23.605064,852521,1609507226990124,4826902611,0.21472,0.632448,-0.191296,-107.905,53.7425,-3.89375,-41.488003,-38.800003,-65.264,none,8,5.0,41441.0,39289.0,85882.0,95511.0,42119.0,50913.0,38429.0,55532.0,26996.0,17631.0
2026-05-06 16:29:23.607673,852522,1609507226999237,4826911440,0.929152,-0.394304,1.850496,-61.59125,25.6025,-25.83875,-40.568,-38.936,-67.216,none,8,5.0,41441.0,39289.0,85882.0,95511.0,42119.0,50913.0,38429.0,55532.0,26996.0,17631.0
2026-05-06 16:29:23.610303,852523,1609507227013743,4826926356,0.929152,-0.394304,1.850496,130.31375,-43.5925,-56.175,-40.568,-38.936,-67.216,none,8,5.0,41441.0,39289.0,85882.0,95511.0,42119.0,50913.0,38429.0,55532.0,26996.0,17631.0
2026-05-06 16:29:23.641592,852534,1609507227022897,4826935095,-0.32208,0.304512,-0.396256,146.755,-35.857502,-66.36,-40.416,-39.536003,-67.912,none,8,5.0,45000.0,43715.0,88499.0,95082.0,44529.0,54705.0,39452.0,54779.0,27685.0,18800.0
2026-05-06 16:29:23.644042,852535,1609507227037626,4826950198,-0.32208,0.304512,-0.396256,107.70375,61.3375,-76.78125,-40.416,-39.536003,-67.912,none,8,5.0,45000.0,43715.0,88499.0,95082.0,44529.0,54705.0,39452.0,54779.0,27685.0,18800.0
2026-05-06 16:29:23.646608,852536,1609507227046692,4826958913,-1.19072,0.870592,-0.778848,155.1725,70.56875,-36.82,-40.952003,-42.088,-66.368004,none,8,5.0,45000.0,43715.0,88499.0,95082.0,44529.0,54705.0,39452.0,54779.0,27685.0,18800.0
2026-05-06 16:29:23.649080,852537,1609507227055692,4826967642,-1.19072,0.870592,-0.778848,142.7125,23.8875,40.24125,-40.952003,-42.088,-66.368004,none,8,5.0,45000.0,43715.0,88499.0,95082.0,44529.0,54705.0,39452.0,54779.0,27685.0,18800.0
2026-05-06 16:29:23.670314,852538,1609507227070251,4826982572,-0.704672,1.663104,-0.171776,63.09625,-32.095,62.50125,-41.176003,-40.760002,-68.920006,none,8,5.0,45000.0,43715.0,88499.0,95082.0,44529.0,54705.0,39452.0,54779.0,27685.0,18800.0
2026-05-06 16:29:23.672478,852539,1609507227079203,4826991311,0.247904,1.182912,0.122976,-36.645,-40.20625,4.05125,-39.848003,-39.976,-70.192,none,8,5.0,45000.0,43715.0,88499.0,95082.0,44529.0,54705.0,39452.0,54779.0,27685.0,18800.0
2026-05-06 16:29:23.686437,852540,1609507227093669,4827006249,0.247904,1.182912,0.122976,-62.1775,-31.61375,-96.22375,-39.848003,-39.976,-70.192,none,8,5.0,45000.0,43715.0,88499.0,95082.0,44529.0,54705.0,39452.0,54779.0,27685.0,18800.0
2026-05-06 16:29:23.695274,852541,1609507227102597,4827014969,0.407968,0.484096,0.013664,-74.5675,-30.4675,-171.1675,-37.536003,-42.472,-68.920006,none,8,5.0,45000.0,43715.0,88499.0,95082.0,44529.0,54705.0,39452.0,54779.0,27685.0,18800.0
2026-05-06 16:29:23.709106,852542,1609507227117077,4827027926,0.407968,0.484096,0.013664,-90.69375,-10.2725,-189.62125,-37.536003,-42.472,-68.920006,none,8,5.0,45000.0,43715.0,88499.0,95082.0,44529.0,54705.0,39452.0,54779.0,27685.0,18800.0
2026-05-06 16:29:23.741624,852553,1609507227126429,4827038849,-0.027328,0.470432,-0.070272,-51.1875,3.08875,-157.73625,-36.744003,-43.4,-68.408005,none,8,5.0,46713.0,44196.0,87499.0,99506.0,45830.0,55264.0,39112.0,56994.0,28480.0,19157.0
2026-05-06 16:29:23.744030,852554,1609507227135649,4827047671,-0.027328,0.470432,-0.070272,34.5625,0.8225,-101.29,-36.744003,-43.4,-68.408005,none,8,5.0,46713.0,44196.0,87499.0,99506.0,45830.0,55264.0,39112.0,56994.0,28480.0,19157.0
2026-05-06 16:29:23.746601,852555,1609507227150189,4827062666,-0.38064,0.812032,-0.296704,119.735,1.2775,-48.97375,-36.480003,-45.36,-70.312004,none,8,5.0,46713.0,44196.0,87499.0,99506.0,45830.0,55264.0,39112.0,56994.0,28480.0,19157.0
2026-05-06 16:29:23.750323,852556,1609507227159195,4827071380,-0.38064,1.182912,-0.687104,148.47874,5.355,-21.77,-36.480003,-45.36,-70.312004,none,8,5.0,46713.0,44196.0,87499.0,99506.0,45830.0,55264.0,39112.0,56994.0,28480.0,19157.0
2026-05-06 16:29:23.766292,852557,1609507227173742,4827086268,-0.488,1.182912,-0.687104,132.05501,2.03,-34.0025,-36.136,-43.264004,-70.840004,none,8,5.0,46713.0,44196.0,87499.0,99506.0,45830.0,55264.0,39112.0,56994.0,28480.0,19157.0
2026-05-06 16:29:23.777687,852558,1609507227182699,4827094971,-0.423584,1.061888,-0.872544,101.78875,-7.02625,-69.95625,-34.808002,-44.632004,-74.256004,none,8,5.0,46713.0,44196.0,87499.0,99506.0,45830.0,55264.0,39112.0,56994.0,28480.0,19157.0
2026-05-06 16:29:23.783970,852559,1609507227191628,4827103820,-0.423584,1.061888,-0.872544,63.3675,-7.525,-95.80375,-34.808002,-44.632004,-74.256004,none,8,5.0,46713.0,44196.0,87499.0,99506.0,45830.0,55264.0,39112.0,56994.0,28480.0,19157.0
2026-05-06 16:29:23.797728,852560,1609507227206097,4827118669,-0.304512,0.95648,-0.6832,30.66,-6.1075,-91.621254,-34.208,-45.384003,-74.536,none,8,5.0,46713.0,44196.0,87499.0,99506.0,45830.0,55264.0,39112.0,56994.0,28480.0,19157.0
2026-05-06 16:29:23.806509,852561,1609507227215007,4827127373,-0.304512,0.95648,-0.6832,8.1375,-2.7475,-72.52,-34.208,-45.384003,-74.536,none,8,5.0,46713.0,44196.0,87499.0,99506.0,45830.0,55264.0,39112.0,56994.0,28480.0,19157.0
2026-05-06 16:29:23.888942,852572,1609507227229855,4827142474,-0.296704,0.835456,-0.706624,-9.3275,10.36,-62.37,-33.584003,-46.192,-74.32001,none,8,5.0,47585.0,43653.0,85369.0,101169.0,46429.0,55040.0,38211.0,57789.0,28948.0,19213.0
2026-05-06 16:29:23.891532,852573,1609507227239054,4827151209,-0.296704,0.835456,-0.706624,-18.1125,19.48625,-61.32875,-33.584003,-46.192,-74.32001,none,8,5.0,47585.0,43653.0,85369.0,101169.0,46429.0,55040.0,38211.0,57789.0,28948.0,19213.0
2026-05-06 16:29:23.894221,852574,1609507227253576,4827166112,-0.378688,0.733952,-0.55632,0.6125,15.26,-59.29875,-33.104,-47.104004,-76.712006,none,8,5.0,47585.0,43653.0,85369.0,101169.0,46429.0,55040.0,38211.0,57789.0,28948.0,19213.0
2026-05-06 16:29:23.896404,852575,1609507227262497,4827174878,-0.452864,0.6832,-0.335744,38.75375,7.49,-55.18625,-32.712,-47.4,-75.888,none,8,5.0,47585.0,43653.0,85369.0,101169.0,46429.0,55040.0,38211.0,57789.0,28948.0,19213.0
2026-05-06 16:29:23.902839,852576,1609507227271407,4827183577,-0.452864,0.6832,-0.335744,68.5125,3.4825,-47.31125,-32.712,-47.4,-75.888,none,8,5.0,47585.0,43653.0,85369.0,101169.0,46429.0,55040.0,38211.0,57789.0,28948.0,19213.0
2026-05-06 16:29:23.907833,852577,1609507227285919,4827198520,-0.593408,1.1224,0.060512,73.255,6.4225,-31.01875,-33.024002,-47.600002,-77.11201,none,8,5.0,47585.0,43653.0,85369.0,101169.0,46429.0,55040.0,38211.0,57789.0,28948.0,19213.0
2026-05-06 16:29:23.910277,852578,1609507227294835,4827207206,-0.593408,1.1224,0.060512,63.42875,-9.98375,-6.685,-33.024002,-47.600002,-77.11201,none,8,5.0,47585.0,43653.0,85369.0,101169.0,46429.0,55040.0,38211.0,57789.0,28948.0,19213.0
2026-05-06 16:29:23.912830,852579,1609507227309437,4827222210,-0.59536,1.534272,-0.519232,80.07125,-29.95125,22.365,-33.08,-49.432003,-77.144005,none,8,5.0,47585.0,43653.0,85369.0,101169.0,46429.0,55040.0,38211.0,57789.0,28948.0,19213.0
2026-05-06 16:29:23.915331,852580,1609507227318389,4827230932,-0.59536,1.534272,-0.519232,96.17125,-17.045,31.3075,-33.08,-49.432003,-77.144005,none,8,5.0,47585.0,43653.0,85369.0,101169.0,46429.0,55040.0,38211.0,57789.0,28948.0,19213.0
2026-05-06 16:29:23.952337,852591,1609507227333030,4827244158,-0.552416,1.09312,-0.591456,54.5475,-34.74625,13.48375,-32.4,-47.152,-79.472,none,8,5.0,47443.0,42969.0,84905.0,100634.0,46202.0,54424.0,37963.0,57489.0,28889.0,19003.0
2026-05-06 16:29:23.952464,852592,1609507227342616,4827255025,-0.513376,0.80032,-0.376736,24.053751,-37.87,-9.00375,-32.288002,-47.472004,-79.824005,none,8,5.0,47443.0,42969.0,84905.0,100634.0,46202.0,54424.0,37963.0,57489.0,28889.0,19003.0
2026-05-06 16:29:23.955050,852593,1609507227351544,4827263732,-0.513376,0.80032,-0.376736,8.2425,-25.4275,-23.17,-32.288002,-47.472004,-79.824005,none,8,5.0,47443.0,42969.0,84905.0,100634.0,46202.0,54424.0,37963.0,57489.0,28889.0,19003.0
2026-05-06 16:29:23.957527,852594,1609507227366048,4827278719,-0.564128,0.925248,-0.486048,15.89,-13.78125,-22.505,-32.256,-47.328003,-80.05601,none,8,5.0,47443.0,42969.0,84905.0,100634.0,46202.0,54424.0,37963.0,57489.0,28889.0,19003.0
2026-05-06 16:29:23.967691,852595,1609507227375000,4827287443,-0.564128,0.925248,-0.486048,46.19125,-0.3675,-5.3025,-32.256,-47.328003,-80.05601,none,8,5.0,47443.0,42969.0,84905.0,100634.0,46202.0,54424.0,37963.0,57489.0,28889.0,19003.0
2026-05-06 16:29:23.981461,852596,1609507227389528,4827300328,-0.55632,1.118496,-0.54656,68.69625,4.76875,10.9375,-32.584003,-46.792004,-81.32001,none,8,5.0,47443.0,42969.0,84905.0,100634.0,46202.0,54424.0,37963.0,57489.0,28889.0,19003.0
2026-05-06 16:29:23.990249,852597,1609507227398850,4827311138,-0.55632,1.118496,-0.54656,74.9175,7.04375,11.5325,-32.584003,-46.792004,-81.32001,none,8,5.0,47443.0,42969.0,84905.0,100634.0,46202.0,54424.0,37963.0,57489.0,28889.0,19003.0
2026-05-06 16:29:23.999097,852598,1609507227407943,4827319935,-0.45872,1.069696,-0.46848,58.3625,7.76125,-0.0875,-32.672,-46.872,-81.448006,none,8,5.0,47443.0,42969.0,84905.0,100634.0,46202.0,54424.0,37963.0,57489.0,28889.0,19003.0
2026-05-06 16:29:24.040027,852609,1609507227422770,4827334950,-0.445056,0.880352,-0.491904,36.6275,6.60625,-12.60875,-32.256,-46.536003,-81.632,none,8,5.0,46906.0,40753.0,84520.0,100548.0,45664.0,52415.0,37634.0,57514.0,28782.0,18236.0
2026-05-06 16:29:24.042999,852610,1609507227431856,4827343689,-0.445056,0.880352,-0.491904,23.02125,7.455,-21.4725,-32.256,-46.536003,-81.632,none,8,5.0,46906.0,40753.0,84520.0,100548.0,45664.0,52415.0,37634.0,57514.0,28782.0,18236.0
2026-05-06 16:29:24.045524,852611,1609507227440826,4827352488,-0.445056,0.880352,-0.491904,16.065,9.93125,-23.4325,-32.256,-46.536003,-81.632,none,8,5.0,46906.0,40753.0,84520.0,100548.0,45664.0,52415.0,37634.0,57514.0,28782.0,18236.0
2026-05-06 16:29:24.047550,852612,1609507227455263,4827367447,-0.435296,0.890112,-0.57584,25.52375,11.82125,-17.3425,-32.184002,-47.504,-81.424,none,8,5.0,46906.0,40753.0,84520.0,100548.0,45664.0,52415.0,37634.0,57514.0,28782.0,18236.0
2026-05-06 16:29:24.058968,852613,1609507227464232,4827376192,-0.437248,0.970144,-0.472384,33.88,14.02625,-8.2425,-32.296,-47.584003,-80.888,none,8,5.0,46906.0,40753.0,84520.0,100548.0,45664.0,52415.0,37634.0,57514.0,28782.0,18236.0
2026-05-06 16:29:24.072617,852614,1609507227478922,4827391143,-0.437248,0.970144,-0.472384,23.00375,13.667501,-2.02125,-32.296,-47.584003,-80.888,none,8,5.0,46906.0,40753.0,84520.0,100548.0,45664.0,52415.0,37634.0,57514.0,28782.0,18236.0
2026-05-06 16:29:24.079077,852615,1609507227488008,4827399872,-0.433344,0.909632,-0.40992,1.995,9.89625,-1.42625,-31.744001,-47.032,-81.624,none,8,5.0,46906.0,40753.0,84520.0,100548.0,45664.0,52415.0,37634.0,57514.0,28782.0,18236.0
2026-05-06 16:29:24.115275,852616,1609507227502510,4827414812,-0.462624,0.769088,-0.482144,-23.345,5.1975,-4.29625,-31.552002,-46.528004,-80.648,none,8,5.0,46906.0,40753.0,84520.0,100548.0,45664.0,52415.0,37634.0,57514.0,28782.0,18236.0
2026-05-06 16:29:24.117850,852617,1609507227511448,4827423525,-0.462624,0.769088,-0.482144,-37.9925,1.645,-7.23625,-31.552002,-46.528004,-80.648,none,8,5.0,46906.0,40753.0,84520.0,100548.0,45664.0,52415.0,37634.0,57514.0,28782.0,18236.0
2026-05-06 16:29:24.120350,852618,1609507227520470,4827432287,-0.462624,0.769088,-0.482144,-38.7975,-3.08,-10.045,-31.552002,-46.528004,-80.648,none,8,5.0,46906.0,40753.0,84520.0,100548.0,45664.0,52415.0,37634.0,57514.0,28782.0,18236.0
2026-05-06 16:29:24.149861,852629,1609507227535027,4827447325,-0.489952,0.636352,-0.51728,-30.4325,-7.55125,-12.67875,-31.736002,-46.864002,-81.200005,none,8,5.0,46428.0,40469.0,84206.0,100165.0,45235.0,52112.0,37545.0,57310.0,28468.0,18005.0
2026-05-06 16:29:24.152415,852630,1609507227544064,4827456041,-0.554368,0.689056,-0.511424,-15.4,-10.49125,-13.93875,-32.112003,-50.128002,-79.664,none,8,5.0,46428.0,40469.0,84206.0,100165.0,45235.0,52112.0,37545.0,57310.0,28468.0,18005.0
2026-05-06 16:29:24.154966,852631,1609507227558574,4827471047,-0.554368,0.689056,-0.511424,1.7325,-9.5725,-13.65,-32.112003,-50.128002,-79.664,none,8,5.0,46428.0,40469.0,84206.0,100165.0,45235.0,52112.0,37545.0,57310.0,28468.0,18005.0
2026-05-06 16:29:24.158976,852632,1609507227567549,4827479755,-0.548512,0.921344,-0.470432,17.01,-6.92125,-12.18,-31.648,-50.320004,-79.192,none,8,5.0,46428.0,40469.0,84206.0,100165.0,45235.0,52112.0,37545.0,57310.0,28468.0,18005.0
2026-05-06 16:29:24.167483,852633,1609507227576513,4827488499,-0.548512,0.921344,-0.470432,26.4425,-8.75,-8.89875,-31.648,-50.320004,-79.192,none,8,5.0,46428.0,40469.0,84206.0,100165.0,45235.0,52112.0,37545.0,57310.0,28468.0,18005.0
2026-05-06 16:29:24.181463,852634,1609507227591048,4827503427,-0.503616,1.040416,-0.378688,21.41125,-11.13875,-9.19625,-31.400002,-46.856003,-81.504005,none,8,5.0,46428.0,40469.0,84206.0,100165.0,45235.0,52112.0,37545.0,57310.0,28468.0,18005.0
2026-05-06 16:29:24.216622,852635,1609507227600138,4827512278,-0.503616,1.040416,-0.378688,1.785,-11.34,-13.0375,-31.400002,-46.856003,-81.504005,none,8,5.0,46428.0,40469.0,84206.0,100165.0,45235.0,52112.0,37545.0,57310.0,28468.0,18005.0
2026-05-06 16:29:24.245304,852636,1609507227614717,4827527200,-0.503616,1.016992,-0.569984,-21.00875,-11.97,-16.87,-30.856,-47.552002,-81.136,none,8,5.0,46428.0,40469.0,84206.0,100165.0,45235.0,52112.0,37545.0,57310.0,28468.0,18005.0
2026-05-06 16:29:24.331097,852647,1609507227624174,4827535970,-0.450912,0.905728,-0.51728,-39.025,-14.13125,-21.63,-30.248001,-47.576004,-80.032005,none,8,5.0,46359.0,40445.0,93187.0,98897.0,45180.0,52136.0,41609.0,56618.0,28400.0,17972.0
2026-05-06 16:29:24.331219,852648,1609507227633193,4827544731,-0.450912,0.905728,-0.51728,-41.6325,-12.39,-25.76875,-30.248001,-47.576004,-80.032005,none,8,5.0,46359.0,40445.0,93187.0,98897.0,45180.0,52136.0,41609.0,56618.0,28400.0,17972.0
2026-05-06 16:29:24.333709,852649,1609507227647661,4827559676,-0.454816,0.931104,-0.36112,-33.78375,-6.335,-26.9675,-30.264002,-47.800003,-80.4,none,8,5.0,46359.0,40445.0,93187.0,98897.0,45180.0,52136.0,41609.0,56618.0,28400.0,17972.0
2026-05-06 16:29:24.336452,852650,1609507227656581,4827568398,-0.454816,0.931104,-0.36112,-28.02625,0.46375,-22.95125,-30.264002,-47.800003,-80.4,none,8,5.0,46359.0,40445.0,93187.0,98897.0,45180.0,52136.0,41609.0,56618.0,28400.0,17972.0
2026-05-06 16:29:24.338865,852651,1609507227671183,4827583327,-0.50752,1.097024,-0.404064,-32.69875,6.1775,-14.323751,-30.112001,-47.88,-79.816,none,8,5.0,46359.0,40445.0,93187.0,98897.0,45180.0,52136.0,41609.0,56618.0,28400.0,17972.0
2026-05-06 16:29:24.341462,852652,1609507227680128,4827592023,-0.50752,1.097024,-0.404064,-46.78625,5.7575,-4.62,-30.112001,-47.88,-79.816,none,8,5.0,46359.0,40445.0,93187.0,98897.0,45180.0,52136.0,41609.0,56618.0,28400.0,17972.0
2026-05-06 16:29:24.343895,852653,1609507227694639,4827606982,-0.501664,1.071648,-0.548512,-62.83375,6.0025,-3.40375,-30.088001,-48.448,-78.80801,none,8,5.0,46359.0,40445.0,93187.0,98897.0,45180.0,52136.0,41609.0,56618.0,28400.0,17972.0
2026-05-06 16:29:24.346442,852654,1609507227703549,4827615677,-0.482144,0.952576,-0.505568,-71.505,8.75875,-9.8,-30.088001,-48.664,-78.088005,none,8,5.0,46359.0,40445.0,93187.0,98897.0,45180.0,52136.0,41609.0,56618.0,28400.0,17972.0
2026-05-06 16:29:24.348836,852655,1609507227712554,4827624532,-0.482144,0.952576,-0.505568,-73.675,12.15375,-14.42,-30.176,-48.664,-78.088005,none,8,5.0,46359.0,40445.0,93187.0,98897.0,45180.0,52136.0,41609.0,56618.0,28400.0,17972.0
2026-05-06 16:29:24.378949,852666,1609507227727283,4827639488,-0.519232,0.90768,-0.396256,-67.59375,8.4,-9.625,-30.568,-48.912003,-76.69601,none,8,5.0,45320.0,41253.0,89791.0,97084.0,44165.0,52827.0,40168.0,55606.0,27487.0,18154.0
2026-05-06 16:29:24.381378,852667,1609507227736360,4827648366,-0.519232,0.90768,-0.396256,-69.48375,9.02125,-1.5225,-30.568,-48.912003,-76.69601,none,8,5.0,45320.0,41253.0,89791.0,97084.0,44165.0,52827.0,40168.0,55606.0,27487.0,18154.0
2026-05-06 16:29:24.384137,852668,1609507227751067,4827663432,-0.515328,0.841312,-0.37088,-85.496254,9.9925,3.0625,-30.424002,-52.648003,-73.824005,none,8,5.0,45320.0,41253.0,89791.0,97084.0,44165.0,52827.0,40168.0,55606.0,27487.0,18154.0
2026-05-06 16:29:24.386586,852669,1609507227760072,4827672195,-0.515328,0.841312,-0.37088,-102.6025,4.4275,-0.945,-30.424002,-52.648003,-73.824005,none,8,5.0,45320.0,41253.0,89791.0,97084.0,44165.0,52827.0,40168.0,55606.0,27487.0,18154.0
2026-05-06 16:29:24.389025,852670,1609507227769006,4827680940,-0.437248,0.681248,-0.320128,-106.785,1.2075,-13.0725,-30.240002,-51.728,-72.552,none,8,5.0,45320.0,41253.0,89791.0,97084.0,44165.0,52827.0,40168.0,55606.0,27487.0,18154.0
2026-05-06 16:29:24.391563,852671,1609507227783544,4827695968,-0.437248,0.681248,-0.298656,-91.56875,-0.84,-23.10875,-30.240002,-51.728,-72.552,none,8,5.0,45320.0,41253.0,89791.0,97084.0,44165.0,52827.0,40168.0,55606.0,27487.0,18154.0
2026-05-06 16:29:24.394088,852672,1609507227792503,4827704718,-0.462624,0.59536,-0.298656,-59.7275,-5.2325,-27.5625,-30.36,-51.344,-71.0,none,8,5.0,45320.0,41253.0,89791.0,97084.0,44165.0,52827.0,40168.0,55606.0,27487.0,18154.0
2026-05-06 16:29:24.399083,852673,1609507227807012,4827719679,-0.599264,0.9272,-0.45872,-24.15875,-2.4325,-23.7125,-29.856,-51.112003,-73.536,none,8,5.0,45320.0,41253.0,89791.0,97084.0,44165.0,52827.0,40168.0,55606.0,27487.0,18154.0
2026-05-06 16:29:24.407833,852674,1609507227815930,4827728434,-0.599264,0.9272,-0.45872,10.92,2.695,-7.44625,-29.856,-51.112003,-73.536,none,8,5.0,45320.0,41253.0,89791.0,97084.0,44165.0,52827.0,40168.0,55606.0,27487.0,18154.0
2026-05-06 16:29:24.438716,852685,1609507227830686,4827741467,-0.626592,1.362496,-0.55632,24.4475,6.69375,11.85625,-30.248001,-51.256004,-72.392006,none,8,5.0,45469.0,42123.0,88006.0,96158.0,44287.0,53577.0,39297.0,55014.0,27437.0,18435.0
2026-05-06 16:29:24.441419,852686,1609507227839993,4827752300,-0.626592,1.362496,-0.55632,20.46625,9.695,21.245,-30.248001,-51.256004,-72.392006,none,8,5.0,45469.0,42123.0,88006.0,96158.0,44287.0,53577.0,39297.0,55014.0,27437.0,18435.0
2026-05-06 16:29:24.443938,852687,1609507227848989,4827761026,-0.476288,1.194624,-0.376736,-9.21375,10.99,18.4975,-29.688002,-49.728,-72.424,none,8,5.0,45469.0,42123.0,88006.0,96158.0,44287.0,53577.0,39297.0,55014.0,27437.0,18435.0
2026-05-06 16:29:24.461501,852688,1609507227863488,4827775950,-0.476288,1.194624,-0.376736,-60.6025,0.665,5.52125,-29.688002,-49.728,-72.424,none,8,5.0,45469.0,42123.0,88006.0,96158.0,44287.0,53577.0,39297.0,55014.0,27437.0,18435.0
2026-05-06 16:29:24.464092,852689,1609507227872419,4827784802,-0.318176,0.70272,-0.23424,-105.77875,-3.22,-12.705,-30.176,-51.088,-69.352005,none,8,5.0,45469.0,42123.0,88006.0,96158.0,44287.0,53577.0,39297.0,55014.0,27437.0,18435.0
2026-05-06 16:29:24.485273,852690,1609507227886899,4827797677,-0.329888,0.519232,-0.310368,-123.165,-6.3175,-26.897501,-29.376001,-50.672,-69.848,none,8,5.0,45469.0,42123.0,88006.0,96158.0,44287.0,53577.0,39297.0,55014.0,27437.0,18435.0
2026-05-06 16:29:24.487842,852691,1609507227896112,4827808532,-0.329888,0.519232,-0.310368,-115.33375,-4.1475,-32.1475,-29.376001,-50.672,-69.848,none,8,5.0,45469.0,42123.0,88006.0,96158.0,44287.0,53577.0,39297.0,55014.0,27437.0,18435.0
2026-05-06 16:29:24.496563,852692,1609507227905065,4827817233,-0.472384,0.716384,-0.122976,-80.71,2.96625,-23.8875,-29.376001,-51.416004,-71.296005,none,8,5.0,45469.0,42123.0,88006.0,96158.0,44287.0,53577.0,39297.0,55014.0,27437.0,18435.0
2026-05-06 16:29:24.510212,852693,1609507227919746,4827832190,-0.472384,0.716384,-0.122976,-20.83375,9.52875,-11.585,-29.36,-51.416004,-71.296005,none,8,5.0,45469.0,42123.0,88006.0,96158.0,44287.0,53577.0,39297.0,55014.0,27437.0,18435.0
2026-05-06 16:29:24.538796,852704,1609507227929097,4827840953,-0.589504,1.013088,-0.212768,21.35875,15.11125,-11.87375,-29.272001,-49.624,-69.768005,none,8,5.0,44670.0,42313.0,87886.0,95282.0,43515.0,53525.0,39170.0,54576.0,26939.0,18333.0
2026-05-06 16:29:24.541388,852705,1609507227943698,4827855934,-0.589504,1.013088,-0.212768,40.1975,17.885,-14.3675,-29.272001,-49.624,-69.768005,none,8,5.0,44670.0,42313.0,87886.0,95282.0,43515.0,53525.0,39170.0,54576.0,26939.0,18333.0
2026-05-06 16:29:24.543966,852706,1609507227952638,4827864658,-0.603168,1.575264,-0.411872,35.3675,20.72,-4.305,-29.296001,-50.920002,-68.632,none,8,5.0,44670.0,42313.0,87886.0,95282.0,43515.0,53525.0,39170.0,54576.0,26939.0,18333.0
2026-05-06 16:29:24.552824,852707,1609507227961628,4827873406,-0.603168,1.575264,-0.411872,1.47875,18.94375,19.22375,-29.296001,-50.920002,-68.632,none,8,5.0,44670.0,42313.0,87886.0,95282.0,43515.0,53525.0,39170.0,54576.0,26939.0,18333.0
2026-05-06 16:29:24.584061,852708,1609507227976118,4827888384,-0.511424,1.799744,-0.46848,-63.72625,16.09125,33.76625,-29.816002,-49.312004,-68.064,none,8,5.0,44670.0,42313.0,87886.0,95282.0,43515.0,53525.0,39170.0,54576.0,26939.0,18333.0
2026-05-06 16:29:24.608933,852709,1609507227985081,4827897078,-0.511424,1.799744,-0.616832,-134.7675,15.9775,28.4725,-29.816002,-49.312004,-68.064,none,8,5.0,44670.0,42313.0,87886.0,95282.0,43515.0,53525.0,39170.0,54576.0,26939.0,18333.0
2026-05-06 16:29:24.616545,852710,1609507227999635,4827911990,-0.534848,1.489376,-0.616832,-200.1825,16.397501,27.1425,-30.328001,-49.592003,-63.112003,none,8,5.0,44670.0,42313.0,87886.0,95282.0,43515.0,53525.0,39170.0,54576.0,26939.0,18333.0
2026-05-06 16:29:24.618938,852711,1609507228008747,4827920795,-0.552416,1.032608,-0.443104,-250.90625,15.0325,38.01875,-30.656002,-49.048004,-60.368004,none,8,5.0,44670.0,42313.0,87886.0,95282.0,43515.0,53525.0,39170.0,54576.0,26939.0,18333.0
2026-05-06 16:29:24.646609,852722,1609507228023235,4827936144,-0.552416,1.032608,-0.443104,-273.93625,15.8725,38.263752,-30.656002,-49.048004,-60.368004,none,8,5.0,45536.0,43521.0,87827.0,95192.0,44189.0,54502.0,39111.0,54353.0,27187.0,18663.0
2026-05-06 16:29:24.649073,852723,1609507228032250,4827944888,-0.495808,0.609024,-0.284992,-275.9575,19.52125,23.65125,-30.944002,-51.480003,-54.576004,none,8,5.0,45536.0,43521.0,87827.0,95192.0,44189.0,54502.0,39111.0,54353.0,27187.0,18663.0
2026-05-06 16:29:24.651633,852724,1609507228041513,4827953708,-0.495808,0.609024,-0.284992,-253.8375,20.755,10.92,-30.944002,-51.480003,-54.576004,none,8,5.0,45536.0,43521.0,87827.0,95192.0,44189.0,54502.0,39111.0,54353.0,27187.0,18663.0
2026-05-06 16:29:24.654129,852725,1609507228056090,4827968836,-0.40992,0.470432,-0.11712,-214.20876,24.9725,10.2025,-31.424002,-51.392002,-52.336002,none,8,5.0,45536.0,43521.0,87827.0,95192.0,44189.0,54502.0,39111.0,54353.0,27187.0,18663.0
2026-05-06 16:29:24.656516,852726,1609507228065017,4827977638,-0.40992,0.470432,-0.11712,-165.935,31.885,21.13125,-31.424002,-51.392002,-52.336002,none,8,5.0,45536.0,43521.0,87827.0,95192.0,44189.0,54502.0,39111.0,54353.0,27187.0,18663.0
2026-05-06 16:29:24.679023,852727,1609507228079532,4827990511,-0.427488,0.786656,-0.13664,-124.7225,37.345,41.39625,-31.608002,-49.600002,-52.120003,none,8,5.0,45536.0,43521.0,87827.0,95192.0,44189.0,54502.0,39111.0,54353.0,27187.0,18663.0
2026-05-06 16:29:24.681516,852728,1609507228089075,4828001359,-0.433344,1.430816,-0.119072,-102.10375,42.0875,63.81375,-32.232002,-45.600002,-51.416004,none,8,5.0,45536.0,43521.0,87827.0,95192.0,44189.0,54502.0,39111.0,54353.0,27187.0,18663.0
2026-05-06 16:29:24.690230,852729,1609507228098150,4828010107,-0.433344,1.430816,-0.119072,-107.59875,46.76,80.15,-32.232002,-45.600002,-51.416004,none,8,5.0,45536.0,43521.0,87827.0,95192.0,44189.0,54502.0,39111.0,54353.0,27187.0,18663.0
2026-05-06 16:29:24.705589,852730,1609507228112702,4828025052,-0.462624,1.50304,-0.101504,-139.25626,48.72875,81.5325,-32.752003,-44.232002,-47.776,none,8,5.0,45536.0,43521.0,87827.0,95192.0,44189.0,54502.0,39111.0,54353.0,27187.0,18663.0
2026-05-06 16:29:24.712675,852731,1609507228121661,4828033785,-0.462624,1.50304,-0.101504,-171.01,50.68875,63.4025,-32.752003,-44.232002,-47.776,none,8,5.0,45536.0,43521.0,87827.0,95192.0,44189.0,54502.0,39111.0,54353.0,27187.0,18663.0
2026-05-06 16:29:24.740162,852742,1609507228136207,4828048956,-0.486048,1.147776,-0.158112,-193.78625,48.62375,43.74125,-33.104,-44.824,-45.120003,none,8,5.0,46987.0,43878.0,85674.0,96599.0,45553.0,55093.0,38229.0,54981.0,27884.0,18876.0
2026-05-06 16:29:24.742850,852743,1609507228145199,4828057722,-0.486048,1.147776,-0.158112,-210.77875,45.255,47.11,-33.104,-44.824,-45.120003,none,8,5.0,46987.0,43878.0,85674.0,96599.0,45553.0,55093.0,38229.0,54981.0,27884.0,18876.0
2026-05-06 16:29:24.746582,852744,1609507228154256,4828066450,-0.394304,0.964288,-0.249856,-229.69626,40.52125,68.4775,-33.712,-42.032,-42.784,none,8,5.0,46987.0,43878.0,85674.0,96599.0,45553.0,55093.0,38229.0,54981.0,27884.0,18876.0
2026-05-06 16:29:24.760366,852745,1609507228168913,4828081409,-0.40992,0.71248,-0.244,-256.0425,38.61375,87.64,-34.120003,-37.344,-40.672,none,8,5.0,46987.0,43878.0,85674.0,96599.0,45553.0,55093.0,38229.0,54981.0,27884.0,18876.0
2026-05-06 16:29:24.769134,852746,1609507228177887,4828090143,-0.40992,0.71248,-0.244,-281.05,35.93625,86.31875,-34.120003,-37.344,-40.672,none,8,5.0,46987.0,43878.0,85674.0,96599.0,45553.0,55093.0,38229.0,54981.0,27884.0,18876.0
2026-05-06 16:29:24.785270,852747,1609507228192520,4828105127,-0.40992,0.437248,-0.056608,-285.18,29.785,68.50375,-34.064003,-34.568,-38.4,none,8,5.0,46987.0,43878.0,85674.0,96599.0,45553.0,55093.0,38229.0,54981.0,27884.0,18876.0
2026-05-06 16:29:24.794615,852748,1609507228201487,4828113833,-0.40992,0.437248,-0.056608,-283.6225,22.7325,43.435,-34.064003,-34.568,-38.4,none,8,5.0,46987.0,43878.0,85674.0,96599.0,45553.0,55093.0,38229.0,54981.0,27884.0,18876.0
2026-05-06 16:29:24.807694,852749,1609507228215994,4828128743,-0.335744,0.378688,0.121024,-267.575,13.99125,43.19,-34.536003,-31.808,-36.752003,none,8,5.0,46987.0,43878.0,85674.0,96599.0,45553.0,55093.0,38229.0,54981.0,27884.0,18876.0
2026-05-06 16:29:24.841603,852760,1609507228224921,4828137390,-0.335744,0.378688,0.121024,-247.52,11.9525,73.045,-34.536003,-31.808,-36.752003,none,8,5.0,47205.0,45571.0,85534.0,102694.0,45703.0,56369.0,38176.0,58373.0,27844.0,19334.0
2026-05-06 16:29:24.843876,852761,1609507228233963,4828146178,-0.33184,0.64416,0.064416,-224.105,14.86625,100.84375,-34.848003,-29.04,-33.488003,none,8,5.0,47205.0,45571.0,85534.0,102694.0,45703.0,56369.0,38176.0,58373.0,27844.0,19334.0
2026-05-06 16:29:24.846327,852762,1609507228248578,4828161128,-0.411872,0.597312,0.244,-181.85126,16.45,102.4275,-35.064003,-26.608002,-36.320004,none,8,5.0,47205.0,45571.0,85534.0,102694.0,45703.0,56369.0,38176.0,58373.0,27844.0,19334.0
2026-05-06 16:29:24.848804,852763,1609507228257503,4828169862,-0.411872,0.597312,0.244,-145.2675,11.8125,82.04,-35.064003,-26.608002,-36.320004,none,8,5.0,47205.0,45571.0,85534.0,102694.0,45703.0,56369.0,38176.0,58373.0,27844.0,19334.0
2026-05-06 16:29:24.887776,852764,1609507228272120,4828184792,-0.62464,0.140544,0.923296,-154.175,4.71625,48.16875,-35.440002,-24.44,-33.872,none,8,5.0,47205.0,45571.0,85534.0,102694.0,45703.0,56369.0,38176.0,58373.0,27844.0,19334.0
2026-05-06 16:29:24.890518,852765,1609507228281045,4828193544,-0.62464,0.140544,0.923296,-202.86,-27.44875,1.75,-35.440002,-24.44,-33.872,none,8,5.0,47205.0,45571.0,85534.0,102694.0,45703.0,56369.0,38176.0,58373.0,27844.0,19334.0
2026-05-06 16:29:24.892835,852766,1609507228289984,4828202245,-0.41968,-0.167872,0.70272,-215.9675,-30.24875,-25.62875,-35.600002,-22.368002,-32.968002,none,8,5.0,47205.0,45571.0,85534.0,102694.0,45703.0,56369.0,38176.0,58373.0,27844.0,19334.0
2026-05-06 16:29:24.896528,852767,1609507228304466,4828217179,-0.41968,-0.167872,0.70272,-196.8225,-27.1775,-9.1,-35.600002,-22.368002,-32.968002,none,8,5.0,47205.0,45571.0,85534.0,102694.0,45703.0,56369.0,38176.0,58373.0,27844.0,19334.0
2026-05-06 16:29:24.905051,852768,1609507228313495,4828225968,-0.47824,-0.183488,0.921344,-148.21625,-47.17125,2.44125,-36.208,-23.28,-32.944,none,8,5.0,47205.0,45571.0,85534.0,102694.0,45703.0,56369.0,38176.0,58373.0,27844.0,19334.0
2026-05-06 16:29:25.017855,852779,1609507228328505,4828240950,-0.489952,-0.115168,1.134112,-73.7975,-64.8025,-27.81625,-36.208,-23.28,-35.888,none,8,5.0,44357.0,46139.0,86948.0,107850.0,43167.0,56794.0,38723.0,60627.0,26374.0,19555.0
2026-05-06 16:29:25.020342,852780,1609507228337521,4828249683,-0.489952,-0.115168,1.134112,19.0575,-90.43125,-65.2925,-36.984,-23.240002,-35.888,none,8,5.0,44357.0,46139.0,86948.0,107850.0,43167.0,56794.0,38723.0,60627.0,26374.0,19555.0
2026-05-06 16:29:25.022809,852781,1609507228346511,4828258436,-0.489952,-0.115168,1.134112,120.51375,-102.96125,-63.35,-36.984,-23.240002,-35.888,none,8,5.0,44357.0,46139.0,86948.0,107850.0,43167.0,56794.0,38723.0,60627.0,26374.0,19555.0
2026-05-06 16:29:25.025311,852782,1609507228361070,4828273348,-0.193248,0.55632,0.542656,228.71625,-102.54125,-18.3925,-38.512,-26.336,-37.392002,none,8,5.0,44357.0,46139.0,86948.0,107850.0,43167.0,56794.0,38723.0,60627.0,26374.0,19555.0
2026-05-06 16:29:25.031567,852783,1609507228370001,4828282078,0.033184,1.352736,0.325984,284.15625,-109.8825,38.185,-40.016003,-28.080002,-40.592003,none,8,5.0,44357.0,46139.0,86948.0,107850.0,43167.0,56794.0,38723.0,60627.0,26374.0,19555.0
2026-05-06 16:29:25.034097,852784,1609507228384483,4828296968,0.033184,1.352736,0.325984,286.58,-117.565,83.6325,-40.016003,-28.080002,-40.592003,none,8,5.0,44357.0,46139.0,86948.0,107850.0,43167.0,56794.0,38723.0,60627.0,26374.0,19555.0
2026-05-06 16:29:25.036632,852785,1609507228393400,4828305708,-0.02928,1.665056,0.499712,277.33124,-118.16,91.035,-41.272003,-29.408,-43.144,none,8,5.0,44357.0,46139.0,86948.0,107850.0,43167.0,56794.0,38723.0,60627.0,26374.0,19555.0
2026-05-06 16:29:25.039026,852786,1609507228407886,4828318626,-0.02928,1.665056,0.499712,197.79375,-102.7425,48.20375,-41.272003,-29.408,-43.144,none,8,5.0,44357.0,46139.0,86948.0,107850.0,43167.0,56794.0,38723.0,60627.0,26374.0,19555.0
2026-05-06 16:29:25.041561,852787,1609507228417203,4828329433,-0.17568,1.260992,0.44896,89.3025,-82.4425,1.4175,-41.72,-30.064001,-44.248,none,8,5.0,44357.0,46139.0,86948.0,107850.0,43167.0,56794.0,38723.0,60627.0,26374.0,19555.0
2026-05-06 16:29:25.068825,852798,1609507228426151,4828338580,-0.17568,1.260992,0.44896,2.56375,-66.19375,-22.40875,-41.72,-30.064001,-44.248,none,8,5.0,50042.0,46693.0,87773.0,122051.0,47519.0,57852.0,39341.0,68016.0,28685.0,20318.0
2026-05-06 16:29:25.074164,852799,1609507228440965,4828353580,-0.130784,0.862784,0.587552,-39.41,-57.0325,-34.18625,-41.936,-30.048002,-44.296,none,8,5.0,50042.0,46693.0,87773.0,122051.0,47519.0,57852.0,39341.0,68016.0,28685.0,20318.0
2026-05-06 16:29:25.074255,852800,1609507228449993,4828362364,-0.056608,0.636352,0.669536,-40.36375,-54.34625,-41.37875,-42.048,-32.488003,-45.656002,none,8,5.0,50042.0,46693.0,87773.0,122051.0,47519.0,57852.0,39341.0,68016.0,28685.0,20318.0
2026-05-06 16:29:25.076702,852801,1609507228464568,4828377284,-0.056608,0.636352,0.669536,-26.3025,-53.64625,-34.41375,-42.048,-32.488003,-45.656002,none,8,5.0,50042.0,46693.0,87773.0,122051.0,47519.0,57852.0,39341.0,68016.0,28685.0,20318.0
2026-05-06 16:29:25.078774,852802,1609507228473547,4828386117,0.081984,0.685152,0.669536,-12.88875,-47.3725,-18.03375,-42.328003,-32.280003,-44.488003,none,8,5.0,50042.0,46693.0,87773.0,122051.0,47519.0,57852.0,39341.0,68016.0,28685.0,20318.0
2026-05-06 16:29:25.081432,852803,1609507228482495,4828394837,0.081984,0.685152,0.669536,-1.9075,-40.69625,2.17875,-42.328003,-32.280003,-44.488003,none,8,5.0,50042.0,46693.0,87773.0,122051.0,47519.0,57852.0,39341.0,68016.0,28685.0,20318.0
2026-05-06 16:29:25.090183,852804,1609507228497133,4828409821,0.163968,0.794464,0.681248,16.59875,-38.482502,15.95125,-42.68,-30.928001,-46.920002,none,8,5.0,50042.0,46693.0,87773.0,122051.0,47519.0,57852.0,39341.0,68016.0,28685.0,20318.0
2026-05-06 16:29:25.098954,852805,1609507228506053,4828418559,0.163968,0.794464,0.681248,31.28125,-35.77,14.6125,-42.68,-30.928001,-46.920002,none,8,5.0,50042.0,46693.0,87773.0,122051.0,47519.0,57852.0,39341.0,68016.0,28685.0,20318.0
2026-05-06 16:29:25.112826,852806,1609507228520631,4828431485,0.144448,0.847168,0.716384,24.94625,-37.8525,11.2175,-42.584003,-30.432001,-46.608,none,8,5.0,50042.0,46693.0,87773.0,122051.0,47519.0,57852.0,39341.0,68016.0,28685.0,20318.0
2026-05-06 16:29:25.144045,852817,1609507228530646,4828442412,0.093696,0.866688,0.651968,10.33375,-34.8075,12.11,-43.016003,-32.792,-45.464,none,8,5.0,49018.0,47780.0,88313.0,122597.0,46789.0,58843.0,39533.0,68126.0,28486.0,20728.0
2026-05-06 16:29:25.146612,852818,1609507228539856,4828451234,0.093696,0.866688,0.651968,5.90625,-35.7525,12.53,-43.016003,-32.792,-45.464,none,8,5.0,49018.0,47780.0,88313.0,122597.0,46789.0,58843.0,39533.0,68126.0,28486.0,20728.0
2026-05-06 16:29:25.149086,852819,1609507228554414,4828466279,0.132736,0.841312,0.599264,12.55625,-39.47125,10.80625,-43.52,-30.176,-48.048004,none,8,5.0,49018.0,47780.0,88313.0,122597.0,46789.0,58843.0,39533.0,68126.0,28486.0,20728.0
2026-05-06 16:29:25.155177,852820,1609507228563412,4828475069,0.132736,0.841312,0.599264,19.17125,-40.8975,10.99,-43.52,-30.176,-48.048004,none,8,5.0,49018.0,47780.0,88313.0,122597.0,46789.0,58843.0,39533.0,68126.0,28486.0,20728.0
2026-05-06 16:29:25.169430,852821,1609507228577896,4828489997,0.128832,0.784704,0.501664,22.53125,-41.3175,15.95125,-43.888,-29.960001,-48.752003,none,8,5.0,49018.0,47780.0,88313.0,122597.0,46789.0,58843.0,39533.0,68126.0,28486.0,20728.0
2026-05-06 16:29:25.182675,852822,1609507228586879,4828498740,0.128832,0.784704,0.501664,19.215,-36.505,18.13,-43.888,-29.960001,-48.752003,none,8,5.0,49018.0,47780.0,88313.0,122597.0,46789.0,58843.0,39533.0,68126.0,28486.0,20728.0
2026-05-06 16:29:25.185199,852823,1609507228595810,4828507459,0.064416,0.7808,0.476288,13.4925,-31.4475,16.3625,-43.832,-30.168001,-48.872,none,8,5.0,49018.0,47780.0,88313.0,122597.0,46789.0,58843.0,39533.0,68126.0,28486.0,20728.0
2026-05-06 16:29:25.209082,852824,1609507228610324,4828522519,0.035136,0.827648,0.493856,7.63,-28.866251,20.1775,-43.832,-29.760002,-49.456,none,8,5.0,49018.0,47780.0,88313.0,122597.0,46789.0,58843.0,39533.0,68126.0,28486.0,20728.0
2026-05-06 16:29:25.211604,852825,1609507228619249,4828531219,0.035136,0.827648,0.493856,3.29875,-27.37875,25.3575,-44.4,-29.760002,-49.456,none,8,5.0,49018.0,47780.0,88313.0,122597.0,46789.0,58843.0,39533.0,68126.0,28486.0,20728.0
2026-05-06 16:29:25.242855,852836,1609507228633958,4828546389,0.076128,0.757376,0.472384,-0.86625,-25.6025,22.9775,-44.672,-31.400002,-48.344,none,8,5.0,47309.0,45783.0,87546.0,112072.0,45551.0,57311.0,39193.0,63113.0,28148.0,20309.0
2026-05-06 16:29:25.245353,852837,1609507228642911,4828555132,0.076128,0.757376,0.472384,-1.96,-23.3625,16.21375,-44.672,-31.400002,-48.344,none,8,5.0,47309.0,45783.0,87546.0,112072.0,45551.0,57311.0,39193.0,63113.0,28148.0,20309.0
2026-05-06 16:29:25.247829,852838,1609507228657564,4828570221,0.080032,0.650016,0.552416,0.2625,-22.16375,9.72125,-44.760002,-31.632002,-48.840004,none,8,5.0,47309.0,45783.0,87546.0,112072.0,45551.0,57311.0,39193.0,63113.0,28148.0,20309.0
2026-05-06 16:29:25.261305,852839,1609507228666581,4828578958,0.080032,0.650016,0.552416,8.8025,-24.31625,6.37,-44.760002,-31.632002,-48.840004,none,8,5.0,47309.0,45783.0,87546.0,112072.0,45551.0,57311.0,39193.0,63113.0,28148.0,20309.0
2026-05-06 16:29:25.267556,852840,1609507228675533,4828587642,0.138592,0.6344,0.470432,21.56875,-22.23375,5.99375,-45.104004,-29.816002,-50.296,none,8,5.0,47309.0,45783.0,87546.0,112072.0,45551.0,57311.0,39193.0,63113.0,28148.0,20309.0
2026-05-06 16:29:25.281415,852841,1609507228690061,4828602625,0.138592,0.6344,0.4392,34.763752,-17.77125,9.52875,-45.104004,-29.816002,-50.296,none,8,5.0,47309.0,45783.0,87546.0,112072.0,45551.0,57311.0,39193.0,63113.0,28148.0,20309.0
2026-05-06 16:29:25.290160,852842,1609507228698991,4828611337,0.20496,0.708576,0.441152,42.3675,-12.32875,10.64875,-44.984,-29.632002,-49.592003,none,8,5.0,47309.0,45783.0,87546.0,112072.0,45551.0,57311.0,39193.0,63113.0,28148.0,20309.0
2026-05-06 16:29:25.317837,852843,1609507228713500,4828624266,0.17568,0.905728,0.528992,48.37875,-9.73875,11.2525,-45.024002,-29.800001,-51.480003,none,8,5.0,47309.0,45783.0,87546.0,112072.0,45551.0,57311.0,39193.0,63113.0,28148.0,20309.0
2026-05-06 16:29:25.342814,852844,1609507228722810,4828635030,0.17568,0.905728,0.528992,55.97375,-7.60375,14.980001,-45.024002,-29.800001,-51.480003,none,8,5.0,47309.0,45783.0,87546.0,112072.0,45551.0,57311.0,39193.0,63113.0,28148.0,20309.0
2026-05-06 16:29:25.376440,852855,1609507228732547,4828643884,0.163968,0.979904,0.519232,58.65125,-5.41625,15.9775,-45.368004,-30.536001,-51.624,none,8,5.0,46636.0,45128.0,87352.0,108158.0,44902.0,56715.0,39082.0,61066.0,27937.0,20087.0
2026-05-06 16:29:25.378960,852856,1609507228747129,4828658937,0.163968,0.979904,0.519232,53.40125,-3.35125,13.125,-45.368004,-30.536001,-51.624,none,8,5.0,46636.0,45128.0,87352.0,108158.0,44902.0,56715.0,39082.0,61066.0,27937.0,20087.0
2026-05-06 16:29:25.381464,852857,1609507228756034,4828667626,0.179584,0.970144,0.427488,36.19,2.065,10.2725,-45.552002,-30.04,-51.792004,none,8,5.0,46636.0,45128.0,87352.0,108158.0,44902.0,56715.0,39082.0,61066.0,27937.0,20087.0
2026-05-06 16:29:25.383971,852858,1609507228770735,4828682612,0.179584,0.970144,0.443104,14.8575,5.0925,15.0325,-45.552002,-30.04,-51.792004,none,8,5.0,46636.0,45128.0,87352.0,108158.0,44902.0,56715.0,39082.0,61066.0,27937.0,20087.0
2026-05-06 16:29:25.386510,852859,1609507228779854,4828691361,0.201056,0.942816,0.443104,-0.07875,9.0475,19.5475,-45.376003,-30.856,-49.576004,none,8,5.0,46636.0,45128.0,87352.0,108158.0,44902.0,56715.0,39082.0,61066.0,27937.0,20087.0
2026-05-06 16:29:25.388979,852860,1609507228788775,4828700248,0.201056,0.942816,0.443104,-1.785,10.08,19.17125,-45.376003,-30.856,-49.576004,none,8,5.0,46636.0,45128.0,87352.0,108158.0,44902.0,56715.0,39082.0,61066.0,27937.0,20087.0
2026-05-06 16:29:25.395272,852861,1609507228803302,4828715177,0.150304,0.854976,0.462624,4.99625,8.65375,17.43875,-45.36,-31.208002,-50.440002,none,8,5.0,46636.0,45128.0,87352.0,108158.0,44902.0,56715.0,39082.0,61066.0,27937.0,20087.0
2026-05-06 16:29:25.404081,852862,1609507228812267,4828723977,0.13664,0.81984,0.474336,10.2025,8.8025,17.66625,-46.024002,-30.920002,-50.304,none,8,5.0,46636.0,45128.0,87352.0,108158.0,44902.0,56715.0,39082.0,61066.0,27937.0,20087.0
2026-05-06 16:29:25.421373,852863,1609507228826784,4828738948,0.13664,0.81984,0.474336,17.43,6.34375,22.89,-46.024002,-30.920002,-50.304,none,8,5.0,46636.0,45128.0,87352.0,108158.0,44902.0,56715.0,39082.0,61066.0,27937.0,20087.0
2026-05-06 16:29:25.451426,852875,1609507228835805,4828747719,0.138592,0.821792,0.44896,23.8175,6.8775,27.536251,-45.568,-29.048002,-51.784004,none,8,5.0,46187.0,44789.0,87110.0,106074.0,44476.0,56394.0,38971.0,59945.0,27754.0,20007.0
2026-05-06 16:29:25.453908,852876,1609507228844824,4828756643,0.138592,0.821792,0.44896,21.7175,6.72875,30.03875,-45.568,-29.048002,-51.784004,none,8,5.0,46187.0,44789.0,87110.0,106074.0,44476.0,56394.0,38971.0,59945.0,27754.0,20007.0
2026-05-06 16:29:25.456408,852877,1609507228859367,4828771637,0.13664,0.8296,0.40992,13.71125,7.46375,28.455,-45.960003,-28.432001,-52.056004,none,8,5.0,46187.0,44789.0,87110.0,106074.0,44476.0,56394.0,38971.0,59945.0,27754.0,20007.0
2026-05-06 16:29:25.458922,852878,1609507228868292,4828780356,0.13664,0.8296,0.40992,-1.75,10.87625,22.39125,-45.960003,-28.432001,-52.056004,none,8,5.0,46187.0,44789.0,87110.0,106074.0,44476.0,56394.0,38971.0,59945.0,27754.0,20007.0
2026-05-06 16:29:25.475313,852879,1609507228882835,4828795260,0.162016,0.798368,0.45872,-18.57625,12.1275,14.6825,-45.816,-28.136002,-51.128002,none,8,5.0,46187.0,44789.0,87110.0,106074.0,44476.0,56394.0,38971.0,59945.0,27754.0,20007.0
2026-05-06 16:29:25.483965,852880,1609507228891852,4828804074,0.162016,0.845216,0.443104,-22.61,10.29,8.72375,-45.816,-28.136002,-51.128002,none,8,5.0,46187.0,44789.0,87110.0,106074.0,44476.0,56394.0,38971.0,59945.0,27754.0,20007.0
2026-05-06 16:29:25.497855,852881,1609507228906353,4828819033,0.142496,0.845216,0.443104,-19.66125,9.0825,6.3875,-46.224003,-31.696001,-48.072002,none,8,5.0,46187.0,44789.0,87110.0,106074.0,44476.0,56394.0,38971.0,59945.0,27754.0,20007.0
2026-05-06 16:29:25.527881,852882,1609507228915285,4828827731,0.099552,0.911584,0.450912,-17.08,5.80125,9.03,-46.304,-27.808,-51.160004,none,8,5.0,46187.0,44789.0,87110.0,106074.0,44476.0,56394.0,38971.0,59945.0,27754.0,20007.0
2026-05-06 16:29:25.530263,852883,1609507228924212,4828836492,0.099552,0.911584,0.450912,-20.92125,3.42125,12.6875,-46.304,-27.808,-51.160004,none,8,5.0,46187.0,44789.0,87110.0,106074.0,44476.0,56394.0,38971.0,59945.0,27754.0,20007.0
2026-05-06 16:29:25.557753,852894,1609507228938738,4828851467,0.121024,0.876448,0.495808,-33.25875,2.7125,12.3025,-45.800003,-27.336,-50.536003,none,8,5.0,46318.0,44732.0,86475.0,105676.0,44563.0,56435.0,38719.0,59616.0,27861.0,20058.0
2026-05-06 16:29:25.560264,852895,1609507228947729,4828860303,0.121024,0.876448,0.495808,-50.21625,2.02125,6.95625,-45.800003,-27.336,-50.536003,none,8,5.0,46318.0,44732.0,86475.0,105676.0,44563.0,56435.0,38719.0,59616.0,27861.0,20058.0
2026-05-06 16:29:25.562649,852896,1609507228962463,4828873224,0.12688,0.782752,0.51728,-66.395,2.10875,0.805,-46.152,-28.928001,-49.112003,none,8,5.0,46318.0,44732.0,86475.0,105676.0,44563.0,56435.0,38719.0,59616.0,27861.0,20058.0
2026-05-06 16:29:25.565146,852897,1609507228971722,4828883994,0.12688,0.782752,0.51728,-69.46625,0.8225,-5.69625,-46.152,-28.928001,-49.112003,none,8,5.0,46318.0,44732.0,86475.0,105676.0,44563.0,56435.0,38719.0,59616.0,27861.0,20058.0
2026-05-06 16:29:25.571492,852898,1609507228980773,4828892736,0.121024,0.681248,0.548512,-61.06625,-2.82625,-10.7625,-46.2,-27.984001,-50.008003,none,8,5.0,46318.0,44732.0,86475.0,105676.0,44563.0,56435.0,38719.0,59616.0,27861.0,20058.0
2026-05-06 16:29:25.605173,852899,1609507228995255,4828907668,0.154208,0.655872,0.562176,-54.0575,-3.40375,-12.76625,-45.760002,-26.448002,-49.632004,none,8,5.0,46318.0,44732.0,86475.0,105676.0,44563.0,56435.0,38719.0,59616.0,27861.0,20058.0
2026-05-06 16:29:25.607821,852900,1609507229004173,4828916391,0.154208,0.655872,0.562176,-52.92875,-3.94625,-11.03375,-45.760002,-26.448002,-49.632004,none,8,5.0,46318.0,44732.0,86475.0,105676.0,44563.0,56435.0,38719.0,59616.0,27861.0,20058.0
2026-05-06 16:29:25.610146,852901,1609507229018664,4828931287,0.218624,0.698816,0.493856,-50.88125,-1.575,-7.97125,-45.768,-26.256,-49.752003,none,8,5.0,46318.0,44732.0,86475.0,105676.0,44563.0,56435.0,38719.0,59616.0,27861.0,20058.0
2026-05-06 16:29:25.619050,852902,1609507229027583,4828940151,0.218624,0.698816,0.493856,-54.845,1.61,-7.14,-45.768,-26.256,-49.752003,none,8,5.0,46318.0,44732.0,86475.0,105676.0,44563.0,56435.0,38719.0,59616.0,27861.0,20058.0
2026-05-06 16:29:25.650229,852913,1609507229042338,4828953229,0.197152,0.833504,0.67344,-62.6675,2.35375,-9.7825,-45.712,-27.112001,-47.784,none,8,5.0,45826.0,44461.0,86836.0,104737.0,44094.0,56066.0,38877.0,59124.0,27598.0,19908.0
2026-05-06 16:29:25.652687,852914,1609507229051796,4828964014,0.197152,0.833504,0.67344,-57.260002,1.645,-14.245,-45.712,-27.112001,-47.784,none,8,5.0,45826.0,44461.0,86836.0,104737.0,44094.0,56066.0,38877.0,59124.0,27598.0,19908.0
2026-05-06 16:29:25.655028,852915,1609507229060780,4828972732,0.1464,0.804224,0.694912,-45.21125,1.12,-19.1625,-45.648003,-26.416,-49.312004,none,8,5.0,45826.0,44461.0,86836.0,104737.0,44094.0,56066.0,38877.0,59124.0,27598.0,19908.0
2026-05-06 16:29:25.686495,852916,1609507229075333,4828987676,0.167872,0.675392,0.6832,-45.12375,3.01875,-27.055,-45.656002,-26.672,-48.872,none,8,5.0,45826.0,44461.0,86836.0,104737.0,44094.0,56066.0,38877.0,59124.0,27598.0,19908.0
2026-05-06 16:29:25.711583,852917,1609507229084238,4828996392,0.167872,0.675392,0.6832,-43.82875,3.50875,-32.92625,-45.656002,-26.672,-48.872,none,8,5.0,45826.0,44461.0,86836.0,104737.0,44094.0,56066.0,38877.0,59124.0,27598.0,19908.0
2026-05-06 16:29:25.737700,852918,1609507229098696,4829011296,0.113216,0.609024,0.651968,-35.60375,5.285,-34.65,-45.488003,-26.416,-48.416004,none,8,5.0,45826.0,44461.0,86836.0,104737.0,44094.0,56066.0,38877.0,59124.0,27598.0,19908.0
2026-05-06 16:29:25.740179,852919,1609507229107576,4829019974,0.113216,0.609024,0.651968,-24.710001,5.55625,-35.55125,-45.488003,-26.416,-48.416004,none,8,5.0,45826.0,44461.0,86836.0,104737.0,44094.0,56066.0,38877.0,59124.0,27598.0,19908.0
2026-05-06 16:29:25.742682,852920,1609507229116501,4829028716,0.021472,0.669536,0.610976,-16.0475,5.775,-37.52,-45.008003,-27.6,-48.176003,none,8,5.0,45826.0,44461.0,86836.0,104737.0,44094.0,56066.0,38877.0,59124.0,27598.0,19908.0
2026-05-06 16:29:25.770320,852931,1609507229131047,4829043680,0.021472,0.669536,0.610976,-10.78,7.34125,-40.95875,-45.008003,-27.6,-48.176003,none,8,5.0,45778.0,44391.0,86963.0,103352.0,43874.0,55847.0,38898.0,58389.0,27484.0,19859.0
2026-05-06 16:29:25.772798,852932,1609507229140046,4829052478,-0.021472,0.757376,0.648064,-7.04375,6.8775,-44.835,-45.112003,-28.784002,-47.952003,none,8,5.0,45778.0,44391.0,86963.0,103352.0,43874.0,55847.0,38898.0,58389.0,27484.0,19859.0
2026-05-06 16:29:25.775361,852933,1609507229154533,4829065339,-0.076128,0.784704,0.642208,-10.40375,6.2825,-49.83125,-44.512,-30.256,-46.680004,none,8,5.0,45778.0,44391.0,86963.0,103352.0,43874.0,55847.0,38898.0,58389.0,27484.0,19859.0
2026-05-06 16:29:25.777835,852934,1609507229163807,4829076247,-0.076128,0.784704,0.642208,-23.31,6.3875,-55.7725,-44.512,-30.256,-46.680004,none,8,5.0,45778.0,44391.0,86963.0,103352.0,43874.0,55847.0,38898.0,58389.0,27484.0,19859.0
2026-05-06 16:29:25.780358,852935,1609507229178328,4829089131,-0.083936,0.823744,0.708576,-41.475,7.1925,-64.6275,-43.576,-31.400002,-46.368004,none,8,5.0,45778.0,44391.0,86963.0,103352.0,43874.0,55847.0,38898.0,58389.0,27484.0,19859.0
2026-05-06 16:29:25.782856,852936,1609507229187689,4829099941,-0.083936,0.823744,0.708576,-50.3825,7.7875,-70.21875,-43.576,-31.400002,-46.368004,none,8,5.0,45778.0,44391.0,86963.0,103352.0,43874.0,55847.0,38898.0,58389.0,27484.0,19859.0
2026-05-06 16:29:25.789020,852937,1609507229196638,4829108753,-0.066368,0.813984,0.655872,-38.31625,3.85875,-66.66625,-43.472004,-32.344,-45.472004,none,8,5.0,45778.0,44391.0,86963.0,103352.0,43874.0,55847.0,38898.0,58389.0,27484.0,19859.0
2026-05-06 16:29:25.802830,852938,1609507229211330,4829123674,-0.066368,0.813984,0.655872,-18.90875,2.835,-61.48625,-43.472004,-32.344,-45.472004,none,8,5.0,45778.0,44391.0,86963.0,103352.0,43874.0,55847.0,38898.0,58389.0,27484.0,19859.0
2026-05-06 16:29:25.811598,852939,1609507229220289,4829132523,-0.050752,0.786656,0.667584,-14.752501,1.75875,-66.00125,-43.480003,-32.656002,-45.944004,none,8,5.0,45778.0,44391.0,86963.0,103352.0,43874.0,55847.0,38898.0,58389.0,27484.0,19859.0
2026-05-06 16:29:25.855023,852950,1609507229234916,4829145753,-0.083936,0.8296,0.589504,-20.46625,-0.63875,-69.01125,-41.432003,-32.848003,-48.480003,none,8,5.0,45568.0,44101.0,86273.0,103587.0,43868.0,55679.0,38604.0,58498.0,27461.0,19713.0
2026-05-06 16:29:25.857718,852951,1609507229244174,4829156744,-0.083936,0.8296,0.589504,-20.7025,0.93625,-61.74875,-42.472,-32.848003,-48.480003,none,8,5.0,45568.0,44101.0,86273.0,103587.0,43868.0,55679.0,38604.0,58498.0,27461.0,19713.0
2026-05-06 16:29:25.860122,852952,1609507229253260,4829165557,-0.083936,0.8296,0.589504,-15.82875,1.785,-49.97125,-42.472,-32.848003,-48.480003,none,8,5.0,45568.0,44101.0,86273.0,103587.0,43868.0,55679.0,38604.0,58498.0,27461.0,19713.0
2026-05-06 16:29:25.862582,852953,1609507229267772,4829178534,-0.119072,0.837408,0.552416,-11.40125,2.87,-44.21375,-42.336002,-35.480003,-44.256,none,8,5.0,45568.0,44101.0,86273.0,103587.0,43868.0,55679.0,38604.0,58498.0,27461.0,19713.0
2026-05-06 16:29:25.869005,852954,1609507229277023,4829189371,-0.140544,0.798368,0.493856,-11.1475,4.80375,-43.63625,-41.872,-34.320004,-45.208004,none,8,5.0,45568.0,44101.0,86273.0,103587.0,43868.0,55679.0,38604.0,58498.0,27461.0,19713.0
2026-05-06 16:29:25.882830,852955,1609507229291689,4829204392,-0.140544,0.798368,0.493856,-18.165,7.34125,-44.45875,-41.872,-34.320004,-45.208004,none,8,5.0,45568.0,44101.0,86273.0,103587.0,43868.0,55679.0,38604.0,58498.0,27461.0,19713.0
2026-05-06 16:29:25.891459,852956,1609507229300768,4829213101,-0.128832,0.813984,0.571936,-27.86,9.58125,-40.36375,-41.656002,-32.768,-45.552002,none,8,5.0,45568.0,44101.0,86273.0,103587.0,43868.0,55679.0,38604.0,58498.0,27461.0,19713.0
2026-05-06 16:29:25.905299,852957,1609507229309854,4829221853,-0.128832,0.813984,0.571936,-36.225,10.78875,-33.9325,-41.656002,-32.768,-45.552002,none,8,5.0,45568.0,44101.0,86273.0,103587.0,43868.0,55679.0,38604.0,58498.0,27461.0,19713.0
2026-05-06 16:29:25.920359,852958,1609507229324359,4829236742,-0.101504,0.833504,0.612928,-41.16,12.73125,-28.5075,-41.592003,-32.760002,-45.552002,none,8,5.0,45568.0,44101.0,86273.0,103587.0,43868.0,55679.0,38604.0,58498.0,27461.0,19713.0
2026-05-06 16:29:25.949025,852969,1609507229333449,4829245505,-0.101504,0.833504,0.612928,-45.38625,11.1125,-22.19,-41.592003,-32.760002,-45.552002,none,8,5.0,45976.0,44205.0,86106.0,104505.0,44251.0,55671.0,38598.0,59202.0,27960.0,19888.0
2026-05-06 16:29:25.953894,852970,1609507229348040,4829260577,-0.042944,0.854976,0.67344,-45.01,9.61625,-16.09125,-41.456,-34.848003,-44.072002,none,8,5.0,45976.0,44205.0,86106.0,104505.0,44251.0,55671.0,38598.0,59202.0,27960.0,19888.0
2026-05-06 16:29:25.956354,852971,1609507229356984,4829269362,0.005856,0.716384,0.648064,-40.87125,10.77125,-13.7025,-41.256,-34.104,-44.36,none,8,5.0,45976.0,44205.0,86106.0,104505.0,44251.0,55671.0,38598.0,59202.0,27960.0,19888.0
2026-05-06 16:29:25.959177,852972,1609507229365930,4829278055,0.005856,0.716384,0.648064,-35.65625,11.165,-14.98875,-41.256,-34.104,-44.36,none,8,5.0,45976.0,44205.0,86106.0,104505.0,44251.0,55671.0,38598.0,59202.0,27960.0,19888.0
2026-05-06 16:29:25.972708,852973,1609507229380581,4829293039,-0.031232,0.607072,0.6344,-27.29125,10.7975,-14.9625,-41.136,-35.072002,-42.408,none,8,5.0,45976.0,44205.0,86106.0,104505.0,44251.0,55671.0,38598.0,59202.0,27960.0,19888.0
2026-05-06 16:29:25.981377,852974,1609507229389480,4829301759,-0.031232,0.607072,0.6344,-17.07125,9.65125,-11.935,-41.136,-35.072002,-42.408,none,8,5.0,45976.0,44205.0,86106.0,104505.0,44251.0,55671.0,38598.0,59202.0,27960.0,19888.0
2026-05-06 16:29:26.015172,852975,1609507229404138,4829316839,-0.0488,0.636352,0.75152,-9.3275,7.58625,-8.28625,-41.384003,-34.24,-44.248,none,8,5.0,45976.0,44205.0,86106.0,104505.0,44251.0,55671.0,38598.0,59202.0,27960.0,19888.0
2026-05-06 16:29:26.017686,852976,1609507229413072,4829325530,-0.0488,0.636352,0.75152,-7.56,3.99875,-7.6125,-41.384003,-34.24,-44.248,none,8,5.0,45976.0,44205.0,86106.0,104505.0,44251.0,55671.0,38598.0,59202.0,27960.0,19888.0
2026-05-06 16:29:26.020186,852977,1609507229427558,4829338421,-0.06832,0.747616,0.755424,-6.43125,0.07,-10.31625,-41.048,-32.784,-44.440002,none,8,5.0,45976.0,44205.0,86106.0,104505.0,44251.0,55671.0,38598.0,59202.0,27960.0,19888.0
2026-05-06 16:29:26.107744,852988,1609507229437540,4829349277,-0.052704,0.815936,0.733952,-1.7675,-3.43,-11.03375,-41.120003,-32.84,-45.112003,none,8,5.0,45704.0,43995.0,85695.0,103592.0,43934.0,55427.0,38330.0,58742.0,27806.0,19799.0
2026-05-06 16:29:26.108138,852989,1609507229446585,4829358048,-0.052704,0.815936,0.733952,3.8675,-5.7575,-9.3975,-41.120003,-32.84,-45.112003,none,8,5.0,45704.0,43995.0,85695.0,103592.0,43934.0,55427.0,38330.0,58742.0,27806.0,19799.0
2026-05-06 16:29:26.110006,852990,1609507229461099,4829373197,-0.06832,0.7808,0.671488,5.9675,-5.845,-10.4825,-40.992,-32.52,-44.936,none,8,5.0,45704.0,43995.0,85695.0,103592.0,43934.0,55427.0,38330.0,58742.0,27806.0,19799.0
2026-05-06 16:29:26.112771,852991,1609507229470087,4829381906,-0.06832,0.7808,0.671488,5.425,-5.55625,-13.86,-40.992,-32.52,-44.936,none,8,5.0,45704.0,43995.0,85695.0,103592.0,43934.0,55427.0,38330.0,58742.0,27806.0,19799.0
2026-05-06 16:29:26.115000,852992,1609507229478994,4829390710,-0.109312,0.745664,0.69296,5.38125,-4.76875,-14.980001,-41.104,-33.072002,-44.664,none,8,5.0,45704.0,43995.0,85695.0,103592.0,43934.0,55427.0,38330.0,58742.0,27806.0,19799.0
2026-05-06 16:29:26.117583,852993,1609507229493518,4829405669,-0.109312,0.745664,0.69296,4.82125,-4.235,-12.87125,-41.104,-33.072002,-44.664,none,8,5.0,45704.0,43995.0,85695.0,103592.0,43934.0,55427.0,38330.0,58742.0,27806.0,19799.0
2026-05-06 16:29:26.120273,852994,1609507229502479,4829414377,-0.158112,0.747616,0.67344,4.8475,-3.36,-10.85875,-40.784,-33.272003,-44.88,none,8,5.0,45704.0,43995.0,85695.0,103592.0,43934.0,55427.0,38330.0,58742.0,27806.0,19799.0
2026-05-06 16:29:26.122728,852995,1609507229517078,4829429374,-0.144448,0.77104,0.728096,6.22125,-2.45875,-8.58375,-41.008003,-35.232002,-43.352,none,8,5.0,45704.0,43995.0,85695.0,103592.0,43934.0,55427.0,38330.0,58742.0,27806.0,19799.0
2026-05-06 16:29:26.125217,852996,1609507229526049,4829438084,-0.144448,0.77104,0.728096,4.97875,-2.73,-6.65875,-41.008003,-35.232002,-43.352,none,8,5.0,45704.0,43995.0,85695.0,103592.0,43934.0,55427.0,38330.0,58742.0,27806.0,19799.0
2026-05-06 16:29:26.180343,853007,1609507229540920,4829453041,-0.1464,0.821792,0.66368,-0.44625,-2.17875,-4.9875,-41.248,-34.808002,-42.544003,none,8,5.0,45483.0,43740.0,85041.0,103334.0,43762.0,55224.0,38040.0,58535.0,27730.0,19687.0
2026-05-06 16:29:26.182842,853008,1609507229550129,4829461851,-0.1464,0.821792,0.66368,-2.485,-1.6275,-1.8375,-41.248,-34.808002,-42.544003,none,8,5.0,45483.0,43740.0,85041.0,103334.0,43762.0,55224.0,38040.0,58535.0,27730.0,19687.0
2026-05-06 16:29:26.185348,853009,1609507229559061,4829470655,-0.15616,0.77104,0.6344,-6.3175,-0.77875,1.2425,-41.160004,-32.864002,-45.168003,none,8,5.0,45483.0,43740.0,85041.0,103334.0,43762.0,55224.0,38040.0,58535.0,27730.0,19687.0
2026-05-06 16:29:26.187784,853010,1609507229573586,4829485543,-0.15616,0.77104,0.6344,-13.886251,1.4875,0.7,-41.160004,-32.864002,-45.168003,none,8,5.0,45483.0,43740.0,85041.0,103334.0,43762.0,55224.0,38040.0,58535.0,27730.0,19687.0
2026-05-06 16:29:26.192346,853011,1609507229582570,4829494245,-0.177632,0.681248,0.632448,-20.58875,3.36875,-1.18125,-40.904003,-32.728,-44.496002,none,8,5.0,45483.0,43740.0,85041.0,103334.0,43762.0,55224.0,38040.0,58535.0,27730.0,19687.0
2026-05-06 16:29:26.192896,853012,1609507229597138,4829509263,-0.177632,0.638304,0.632448,-22.4,4.0775,-1.42625,-40.904003,-32.728,-44.496002,none,8,5.0,45483.0,43740.0,85041.0,103334.0,43762.0,55224.0,38040.0,58535.0,27730.0,19687.0
2026-05-06 16:29:26.200198,853013,1609507229606080,4829518016,-0.15616,0.638304,0.632448,-19.845,3.82375,0.72625,-40.744003,-34.656002,-45.24,none,8,5.0,45483.0,43740.0,85041.0,103334.0,43762.0,55224.0,38040.0,58535.0,27730.0,19687.0
2026-05-06 16:29:26.207490,853014,1609507229615010,4829526706,-0.15616,0.638304,0.632448,-12.60875,2.23125,3.24625,-40.744003,-34.656002,-45.24,none,8,5.0,45483.0,43740.0,85041.0,103334.0,43762.0,55224.0,38040.0,58535.0,27730.0,19687.0
2026-05-06 16:29:26.221520,853015,1609507229629515,4829541686,-0.121024,0.665632,0.659776,-3.91125,0.69125,5.50375,-41.160004,-32.36,-44.464,none,8,5.0,45483.0,43740.0,85041.0,103334.0,43762.0,55224.0,38040.0,58535.0,27730.0,19687.0
2026-05-06 16:29:26.250312,853026,1609507229638786,4829550510,-0.111264,0.732,0.659776,4.52375,-1.07625,6.34375,-41.392002,-33.696003,-44.952003,none,8,5.0,45461.0,43741.0,85154.0,102443.0,43722.0,55190.0,38073.0,58040.0,27710.0,19675.0
2026-05-06 16:29:26.252600,853027,1609507229653449,4829565595,-0.111264,0.732,0.659776,10.29,-2.96625,6.615,-41.392002,-33.696003,-44.952003,none,8,5.0,45461.0,43741.0,85154.0,102443.0,43722.0,55190.0,38073.0,58040.0,27710.0,19675.0
2026-05-06 16:29:26.255084,853028,1609507229662454,4829574398,-0.12688,0.776896,0.657824,12.3725,-4.2175,7.28875,-41.52,-34.416,-43.496002,none,8,5.0,45461.0,43741.0,85154.0,102443.0,43722.0,55190.0,38073.0,58040.0,27710.0,19675.0
2026-05-06 16:29:26.261475,853029,1609507229671499,4829583207,-0.12688,0.776896,0.657824,11.36625,-5.005,6.86875,-41.52,-34.416,-43.496002,none,8,5.0,45461.0,43741.0,85154.0,102443.0,43722.0,55190.0,38073.0,58040.0,27710.0,19675.0
2026-05-06 16:29:26.285663,853030,1609507229685986,4829598175,-0.12688,0.739808,0.657824,9.05625,-5.565,4.9875,-41.376003,-34.624,-43.928,none,8,5.0,45461.0,43741.0,85154.0,102443.0,43722.0,55190.0,38073.0,58040.0,27710.0,19675.0
2026-05-06 16:29:26.287604,853031,1609507229694900,4829606891,-0.12688,0.739808,0.657824,5.39875,-6.1075,2.66875,-41.376003,-34.624,-43.928,none,8,5.0,45461.0,43741.0,85154.0,102443.0,43722.0,55190.0,38073.0,58040.0,27710.0,19675.0
2026-05-06 16:29:26.301434,853032,1609507229709450,4829621800,-0.138592,0.72224,0.677344,1.9425,-6.7375,1.75,-41.536003,-32.72,-45.136,none,8,5.0,45461.0,43741.0,85154.0,102443.0,43722.0,55190.0,38073.0,58040.0,27710.0,19675.0
2026-05-06 16:29:26.310178,853033,1609507229718402,4829630524,-0.103456,0.724192,0.704672,1.33875,-7.42875,1.79375,-41.536003,-35.480003,-41.472,none,8,5.0,45461.0,43741.0,85154.0,102443.0,43722.0,55190.0,38073.0,58040.0,27710.0,19675.0
2026-05-06 16:29:26.323969,853034,1609507229732960,4829645499,-0.103456,0.724192,0.704672,1.84625,-8.18125,1.05,-41.904003,-35.480003,-41.472,none,8,5.0,45461.0,43741.0,85154.0,102443.0,43722.0,55190.0,38073.0,58040.0,27710.0,19675.0
2026-05-06 16:29:26.351600,853045,1609507229742107,4829654299,-0.05856,0.776896,0.708576,1.3475,-9.09125,0.98875,-41.512,-32.752003,-45.08,none,8,5.0,45284.0,43611.0,84929.0,102649.0,43490.0,55032.0,37904.0,58060.0,27572.0,19638.0
2026-05-06 16:29:26.354063,853046,1609507229751183,4829663246,-0.05856,0.776896,0.708576,1.40875,-8.295,1.60125,-41.512,-32.752003,-45.08,none,8,5.0,45284.0,43611.0,84929.0,102649.0,43490.0,55032.0,37904.0,58060.0,27572.0,19638.0
2026-05-06 16:29:26.356612,853047,1609507229765660,4829678236,-0.054656,0.763232,0.718336,4.13875,-7.14875,1.39125,-41.968002,-36.008003,-41.384003,none,8,5.0,45284.0,43611.0,84929.0,102649.0,43490.0,55032.0,37904.0,58060.0,27572.0,19638.0
2026-05-06 16:29:26.370340,853048,1609507229774587,4829686951,-0.054656,0.763232,0.718336,3.08875,-6.83375,-1.6275,-41.968002,-36.008003,-41.384003,none,8,5.0,45284.0,43611.0,84929.0,102649.0,43490.0,55032.0,37904.0,58060.0,27572.0,19638.0
2026-05-06 16:29:26.383945,853049,1609507229789118,4829701849,-0.074176,0.72224,0.671488,-2.00375,-5.52125,-3.12375,-41.808002,-32.408,-45.344,none,8,5.0,45284.0,43611.0,84929.0,102649.0,43490.0,55032.0,37904.0,58060.0,27572.0,19638.0
2026-05-06 16:29:26.390861,853050,1609507229798060,4829710561,-0.074176,0.72224,0.671488,-5.06625,-3.82375,-2.7825,-41.808002,-32.408,-45.344,none,8,5.0,45284.0,43611.0,84929.0,102649.0,43490.0,55032.0,37904.0,58060.0,27572.0,19638.0
2026-05-06 16:29:26.430197,853051,1609507229812585,4829723448,-0.083936,0.704672,0.669536,-6.67625,-2.87875,-2.9925,-41.528004,-32.264,-44.336002,none,8,5.0,45284.0,43611.0,84929.0,102649.0,43490.0,55032.0,37904.0,58060.0,27572.0,19638.0
2026-05-06 16:29:26.440225,853052,1609507229821882,4829734213,-0.033184,0.714432,0.728096,-8.435,-2.135,-3.36875,-41.992,-32.440002,-45.248,none,8,5.0,45284.0,43611.0,84929.0,102649.0,43490.0,55032.0,37904.0,58060.0,27572.0,19638.0
2026-05-06 16:29:26.442816,853053,1609507229830821,4829742885,-0.033184,0.714432,0.728096,-7.805,-1.63625,-3.36,-41.992,-32.440002,-45.248,none,8,5.0,45284.0,43611.0,84929.0,102649.0,43490.0,55032.0,37904.0,58060.0,27572.0,19638.0
2026-05-06 16:29:26.473461,853064,1609507229845350,4829757852,-0.0488,0.718336,0.704672,-4.76875,-0.49,-2.7475,-41.792004,-32.664,-45.304,none,8,5.0,45204.0,43562.0,84874.0,102316.0,43398.0,54990.0,37894.0,57824.0,27524.0,19614.0
2026-05-06 16:29:26.473865,853065,1609507229854274,4829766558,-0.0488,0.718336,0.704672,-2.3275,0.0,-2.40625,-41.792004,-32.664,-45.304,none,8,5.0,45204.0,43562.0,84874.0,102316.0,43398.0,54990.0,37894.0,57824.0,27524.0,19614.0
2026-05-06 16:29:26.475098,853066,1609507229869017,4829781688,-0.0488,0.71248,0.691008,-2.80875,0.455,-2.9925,-41.912003,-34.008003,-44.024002,none,8,5.0,45204.0,43562.0,84874.0,102316.0,43398.0,54990.0,37894.0,57824.0,27524.0,19614.0
2026-05-06 16:29:26.477639,853067,1609507229877987,4829790456,-0.0488,0.71248,0.691008,-8.085,1.6275,-3.38625,-41.912003,-34.008003,-44.024002,none,8,5.0,45204.0,43562.0,84874.0,102316.0,43398.0,54990.0,37894.0,57824.0,27524.0,19614.0
2026-05-06 16:29:26.484968,853068,1609507229886952,4829799144,-0.06832,0.726144,0.6832,-10.73625,2.2225,-3.91125,-41.704002,-35.224003,-41.816,none,8,5.0,45204.0,43562.0,84874.0,102316.0,43398.0,54990.0,37894.0,57824.0,27524.0,19614.0
2026-05-06 16:29:26.493889,853069,1609507229901559,4829814143,-0.081984,0.706624,0.66368,-9.415,2.6775,-4.64625,-41.600002,-33.904003,-44.592003,none,8,5.0,45204.0,43562.0,84874.0,102316.0,43398.0,54990.0,37894.0,57824.0,27524.0,19614.0
2026-05-06 16:29:26.502669,853070,1609507229910645,4829822849,-0.081984,0.706624,0.66368,-8.25125,2.9575,-5.32,-41.600002,-33.904003,-44.592003,none,8,5.0,45204.0,43562.0,84874.0,102316.0,43398.0,54990.0,37894.0,57824.0,27524.0,19614.0
2026-05-06 16:29:26.516396,853071,1609507229925149,4829837756,-0.089792,0.69296,0.65392,-7.035,3.01875,-6.13375,-41.872,-34.504,-44.392002,none,8,5.0,45204.0,43562.0,84874.0,102316.0,43398.0,54990.0,37894.0,57824.0,27524.0,19614.0
2026-05-06 16:29:26.530324,853072,1609507229934083,4829846470,-0.089792,0.69296,0.65392,-5.0225,2.7475,-6.02,-41.872,-34.504,-44.392002,none,8,5.0,45204.0,43562.0,84874.0,102316.0,43398.0,54990.0,37894.0,57824.0,27524.0,19614.0
2026-05-06 16:29:26.561597,853083,1609507229943162,4829855216,-0.105408,0.733952,0.685152,-3.64875,1.79375,-5.775,-41.352,-32.536003,-44.904003,none,8,5.0,45049.0,43454.0,84673.0,102154.0,43215.0,54871.0,37810.0,57769.0,27372.0,19529.0
2026-05-06 16:29:26.567435,853084,1609507229957697,4829870240,-0.105408,0.733952,0.685152,-2.38875,1.0675,-5.46,-41.352,-32.536003,-44.904003,none,8,5.0,45049.0,43454.0,84673.0,102154.0,43215.0,54871.0,37810.0,57769.0,27372.0,19529.0
2026-05-06 16:29:26.567819,853085,1609507229966668,4829878989,-0.101504,0.76128,0.671488,0.23625,0.595,-5.50375,-41.576,-34.088,-44.008003,none,8,5.0,45049.0,43454.0,84673.0,102154.0,43215.0,54871.0,37810.0,57769.0,27372.0,19529.0
2026-05-06 16:29:26.574165,853086,1609507229981140,4829891909,-0.121024,0.71248,0.661728,-0.805,0.455,-7.83125,-41.464,-33.768,-43.112003,none,8,5.0,45049.0,43454.0,84673.0,102154.0,43215.0,54871.0,37810.0,57769.0,27372.0,19529.0
2026-05-06 16:29:26.583937,853087,1609507229990394,4829902687,-0.121024,0.71248,0.661728,-2.0825,0.315,-10.99,-41.464,-33.768,-43.112003,none,8,5.0,45049.0,43454.0,84673.0,102154.0,43215.0,54871.0,37810.0,57769.0,27372.0,19529.0
2026-05-06 16:29:26.600219,853088,1609507230004948,4829917636,-0.122976,0.636352,0.601216,-2.7125,-0.385,-11.89125,-41.592003,-34.344,-44.24,none,8,5.0,45049.0,43454.0,84673.0,102154.0,43215.0,54871.0,37810.0,57769.0,27372.0,19529.0
2026-05-06 16:29:26.604101,853089,1609507230013870,4829926290,-0.122976,0.636352,0.601216,-2.84375,-0.4725,-8.79375,-41.592003,-34.344,-44.24,none,8,5.0,45049.0,43454.0,84673.0,102154.0,43215.0,54871.0,37810.0,57769.0,27372.0,19529.0
2026-05-06 16:29:26.617814,853090,1609507230022847,4829935028,-0.07808,0.630496,0.681248,-0.49875,-1.28625,-4.4975,-41.816,-34.264,-43.944,none,8,5.0,45049.0,43454.0,84673.0,102154.0,43215.0,54871.0,37810.0,57769.0,27372.0,19529.0
2026-05-06 16:29:26.656364,853101,1609507230037461,4829950236,-0.07808,0.630496,0.681248,3.59625,-1.89875,-1.61,-41.816,-34.264,-43.944,none,8,5.0,44923.0,43397.0,84605.0,101799.0,43075.0,54732.0,37747.0,57555.0,27296.0,19490.0
2026-05-06 16:29:26.661244,853102,1609507230046494,4829959032,-0.089792,0.706624,0.696864,8.25125,-2.5375,0.74375,-41.488003,-33.112003,-43.984,none,8,5.0,44923.0,43397.0,84605.0,101799.0,43075.0,54732.0,37747.0,57555.0,27296.0,19490.0
2026-05-06 16:29:26.661650,853103,1609507230061040,4829972078,-0.101504,0.802272,0.675392,11.0075,-3.19375,2.49375,-41.488003,-36.224003,-39.84,none,8,5.0,44923.0,43397.0,84605.0,101799.0,43075.0,54732.0,37747.0,57555.0,27296.0,19490.0
2026-05-06 16:29:26.663847,853104,1609507230070303,4829982882,-0.101504,0.802272,0.675392,10.66625,-3.84125,2.695,-42.032,-36.224003,-39.84,none,8,5.0,44923.0,43397.0,84605.0,101799.0,43075.0,54732.0,37747.0,57555.0,27296.0,19490.0
2026-05-06 16:29:26.672527,853105,1609507230079313,4829991635,-0.101504,0.802272,0.675392,8.23375,-3.99,0.62125,-42.032,-36.224003,-39.84,none,8,5.0,44923.0,43397.0,84605.0,101799.0,43075.0,54732.0,37747.0,57555.0,27296.0,19490.0
2026-05-06 16:29:26.705054,853106,1609507230093951,4830006552,-0.083936,0.81008,0.651968,4.89125,-3.00125,-2.905,-41.768,-36.032,-43.408,none,8,5.0,44923.0,43397.0,84605.0,101799.0,43075.0,54732.0,37747.0,57555.0,27296.0,19490.0
2026-05-06 16:29:26.707693,853107,1609507230103025,4830015283,-0.091744,0.77104,0.67344,1.365,-1.715,-5.8275,-41.600002,-32.856003,-45.336002,none,8,5.0,44923.0,43397.0,84605.0,101799.0,43075.0,54732.0,37747.0,57555.0,27296.0,19490.0
2026-05-06 16:29:26.710317,853108,1609507230117505,4830030210,-0.091744,0.77104,0.67344,-1.4875,-0.49,-7.55125,-41.600002,-32.856003,-45.336002,none,8,5.0,44923.0,43397.0,84605.0,101799.0,43075.0,54732.0,37747.0,57555.0,27296.0,19490.0
2026-05-06 16:29:26.719064,853109,1609507230126549,4830038917,-0.093696,0.743712,0.718336,-4.59375,0.49,-8.47,-41.696003,-32.896,-44.792004,none,8,5.0,44923.0,43397.0,84605.0,101799.0,43075.0,54732.0,37747.0,57555.0,27296.0,19490.0
2026-05-06 16:29:26.727850,853110,1609507230135468,4830047631,-0.093696,0.743712,0.718336,-6.4575,1.28625,-9.2225,-41.696003,-32.896,-44.792004,none,8,5.0,44923.0,43397.0,84605.0,101799.0,43075.0,54732.0,37747.0,57555.0,27296.0,19490.0
2026-05-06 16:29:26.755044,853121,1609507230150067,4830062734,-0.103456,0.720288,0.681248,-5.52125,1.75,-10.2375,-41.232002,-34.768,-43.864002,none,8,5.0,44932.0,43333.0,84378.0,101734.0,43058.0,54708.0,37629.0,57435.0,27291.0,19492.0
2026-05-06 16:29:26.757673,853122,1609507230159051,4830071654,-0.103456,0.720288,0.681248,-3.59625,2.345,-11.095,-41.232002,-34.768,-43.864002,none,8,5.0,44932.0,43333.0,84378.0,101734.0,43058.0,54708.0,37629.0,57435.0,27291.0,19492.0
