pc_time,serial_num,sensor_ts,host_ts,ax,ay,az,gx,gy,gz,mx,my,mz,phase,rpe,weight_kg,ppg_a,ppg_b,ppg_c,ppg_d,ppg_e
2026-04-14 17:26:12.012394,290125,1609505065681168,2665651216,-1.212192,0.044896,-0.261568,10.45625,2.59,-9.7825,30.328001,25.984001,9.304001,concentric,3,3.0,93001.0,288617.0,169484.0,280303.0,185001.0
2026-04-14 17:26:12.015284,290126,1609505065690092,2665659895,-1.212192,0.044896,-0.261568,-9.0825,-0.4375,-11.025,30.328001,25.984001,9.304001,concentric,3,3.0,93001.0,288617.0,169484.0,280303.0,185001.0
2026-04-14 17:26:12.017790,290127,1609505065704709,2665674844,-1.126304,-0.199104,-0.005856,-30.765,-1.925,-11.03375,30.12,26.608002,9.232,concentric,3,3.0,93001.0,288617.0,169484.0,280303.0,185001.0
2026-04-14 17:26:12.019888,290128,1609505065713681,2665683580,-1.126304,-0.199104,-0.005856,-35.72625,0.14875,-8.65375,30.12,26.608002,9.232,concentric,3,3.0,93001.0,288617.0,169484.0,280303.0,185001.0
2026-04-14 17:26:12.022456,290129,1609505065728163,2665698456,-1.139968,-0.203008,-0.064416,-18.08625,1.89,-9.4675,29.872002,26.568,9.400001,concentric,3,3.0,93001.0,288617.0,169484.0,280303.0,185001.0
2026-04-14 17:26:12.025358,290130,1609505065737089,2665707179,-1.19072,-0.050752,-0.376736,3.96375,3.12375,-10.7975,29.872002,27.072,8.088,concentric,3,3.0,93001.0,288617.0,169484.0,280303.0,185001.0
2026-04-14 17:26:12.029950,290131,1609505065746023,2665715864,-1.19072,-0.050752,-0.376736,14.41125,1.6975,-8.21625,29.584002,27.072,8.088,concentric,3,3.0,93001.0,288617.0,169484.0,280303.0,185001.0
2026-04-14 17:26:12.045428,290132,1609505065760508,2665730780,-1.177056,0.021472,-0.042944,7.76125,-2.1525,-6.53625,29.784002,26.664001,9.944,concentric,3,3.0,93001.0,288617.0,169484.0,280303.0,185001.0
2026-04-14 17:26:12.055430,290133,1609505065769412,2665739464,-1.177056,0.021472,-0.042944,-8.61875,-4.64625,-4.64625,29.784002,26.664001,9.944,concentric,3,3.0,93001.0,288617.0,169484.0,280303.0,185001.0
2026-04-14 17:26:12.082374,290144,1609505065783953,2665752822,-1.218048,-0.162016,-0.119072,-24.21125,-4.725,-2.59,29.608002,27.384,9.888001,concentric,3,3.0,88077.0,291714.0,162197.0,282051.0,177459.0
2026-04-14 17:26:12.084870,290145,1609505065792940,2665761639,-1.218048,-0.162016,-0.119072,-31.92,-3.78,-4.4275,29.608002,27.384,9.888001,concentric,3,3.0,88077.0,291714.0,162197.0,282051.0,177459.0
2026-04-14 17:26:12.090306,290146,1609505065807760,2665776543,-1.18096,-0.230336,-0.242048,-20.53625,-2.17875,-5.55625,29.000002,27.096,11.176001,concentric,3,3.0,88077.0,291714.0,162197.0,282051.0,177459.0
2026-04-14 17:26:12.102973,290147,1609505065817087,2665787286,-1.18096,-0.060512,-0.093696,7.18375,-0.7175,-4.54125,29.000002,27.096,11.176001,concentric,3,3.0,88077.0,291714.0,162197.0,282051.0,177459.0
2026-04-14 17:26:12.110467,290148,1609505065825989,2665795952,-1.173152,-0.060512,-0.093696,30.397501,-1.2775,-5.3375,28.800001,26.968,10.400001,concentric,3,3.0,88077.0,291714.0,162197.0,282051.0,177459.0
2026-04-14 17:26:12.125479,290149,1609505065840441,2665808789,-1.108736,0.044896,-0.072224,33.92375,-2.49375,-5.0575,29.472002,26.840002,10.848001,concentric,3,3.0,88077.0,291714.0,162197.0,282051.0,177459.0
2026-04-14 17:26:12.136697,290150,1609505065849590,2665819543,-1.108736,0.044896,-0.072224,17.08875,-3.2025,-3.7975,29.472002,26.840002,10.848001,concentric,3,3.0,88077.0,291714.0,162197.0,282051.0,177459.0
2026-04-14 17:26:12.146363,290151,1609505065864084,2665832466,-1.24928,-0.083936,-0.228384,-8.88125,-4.3225,-4.12125,29.384,27.176,10.584001,concentric,3,3.0,88077.0,291714.0,162197.0,282051.0,177459.0
2026-04-14 17:26:12.182868,290162,1609505065873315,2665843175,-1.24928,-0.083936,-0.228384,-28.455,-3.99,-4.2,29.384,27.176,10.584001,concentric,3,3.0,80464.0,287861.0,152154.0,278666.0,166812.0
2026-04-14 17:26:12.185362,290163,1609505065882370,2665851968,-1.202432,-0.208864,-0.138592,-32.935,-2.21375,-5.15375,29.232002,27.28,10.432,concentric,3,3.0,80464.0,287861.0,152154.0,278666.0,166812.0
2026-04-14 17:26:12.187861,290164,1609505065896894,2665866887,-1.202432,-0.208864,-0.138592,-23.59875,0.1225,-5.4075,29.232002,27.28,10.432,concentric,3,3.0,80464.0,287861.0,152154.0,278666.0,166812.0
2026-04-14 17:26:12.190311,290165,1609505065905864,2665875571,-1.095072,-0.160064,-0.26352,-5.635,2.5375,-4.22625,27.760002,27.888,14.320001,concentric,3,3.0,80464.0,287861.0,152154.0,278666.0,166812.0
2026-04-14 17:26:12.206658,290166,1609505065920372,2665890449,-1.247328,-0.091744,-0.363072,4.8125,3.1325,-4.76875,28.528002,27.072,10.448001,concentric,3,3.0,80464.0,287861.0,152154.0,278666.0,166812.0
2026-04-14 17:26:12.214248,290167,1609505065929286,2665899157,-1.247328,-0.091744,-0.363072,-0.105,1.2075,-4.05125,28.528002,27.072,10.448001,concentric,3,3.0,80464.0,287861.0,152154.0,278666.0,166812.0
2026-04-14 17:26:12.224255,290168,1609505065938230,2665907831,-1.22,-0.06832,-0.23424,-8.98625,-1.1025,-2.45875,28.528002,27.472002,9.264001,concentric,3,3.0,80464.0,287861.0,152154.0,278666.0,166812.0
2026-04-14 17:26:12.237931,290169,1609505065952728,2665922717,-1.22,-0.06832,-0.23424,-12.20625,-0.42,-4.5325,29.272001,27.472002,9.264001,concentric,3,3.0,80464.0,287861.0,152154.0,278666.0,166812.0
2026-04-14 17:26:12.276541,290170,1609505065961663,2665931399,-1.15168,-0.232288,-0.333792,-15.61,0.67375,-7.14,29.088001,27.488,10.296001,concentric,3,3.0,80464.0,287861.0,152154.0,278666.0,166812.0
2026-04-14 17:26:12.333909,290181,1609505065976229,2665946318,-1.15168,-0.232288,-0.333792,-16.66,0.63,-6.93,29.088001,27.488,10.296001,concentric,3,3.0,68372.0,280429.0,135650.0,271645.0,149758.0
2026-04-14 17:26:12.336367,290182,1609505065985203,2665954998,-1.19072,-0.22448,-0.404064,-3.96375,-1.07625,-4.1825,29.144001,27.560001,11.080001,concentric,3,3.0,68372.0,280429.0,135650.0,271645.0,149758.0
2026-04-14 17:26:12.338910,290183,1609505065999688,2665969903,-1.192672,-0.042944,-0.025376,10.43,-4.41,-2.30125,28.552002,27.192001,11.856001,concentric,3,3.0,68372.0,280429.0,135650.0,271645.0,149758.0
2026-04-14 17:26:12.341371,290184,1609505066008709,2665978625,-1.192672,-0.042944,-0.025376,13.25625,-6.58,-0.4725,28.552002,27.192001,11.856001,concentric,3,3.0,68372.0,280429.0,135650.0,271645.0,149758.0
2026-04-14 17:26:12.343903,290185,1609505066017618,2665987298,-1.192672,-0.042944,-0.025376,7.93625,-7.28875,1.81125,28.552002,27.192001,11.856001,concentric,3,3.0,68372.0,280429.0,135650.0,271645.0,149758.0
2026-04-14 17:26:12.346362,290186,1609505066032137,2666002191,-1.198528,-0.050752,-0.212768,-1.65375,-6.4575,0.21875,27.960001,27.488,11.816001,concentric,3,3.0,68372.0,280429.0,135650.0,271645.0,149758.0
2026-04-14 17:26:12.348929,290187,1609505066041238,2666010907,-1.124352,-0.203008,-0.183488,-13.22125,-4.31375,-2.56375,28.104002,27.336,11.792001,concentric,3,3.0,68372.0,280429.0,135650.0,271645.0,149758.0
2026-04-14 17:26:12.351374,290188,1609505066055799,2666025801,-1.124352,-0.203008,-0.183488,-18.585001,-2.49375,-1.25125,28.104002,27.336,11.792001,concentric,3,3.0,68372.0,280429.0,135650.0,271645.0,149758.0
2026-04-14 17:26:12.356396,290189,1609505066064917,2666034532,-1.212192,-0.163968,-0.271328,-10.63125,-1.33875,-0.35,28.176,27.344002,12.000001,concentric,3,3.0,68372.0,280429.0,135650.0,271645.0,149758.0
2026-04-14 17:26:12.383777,290200,1609505066079527,2666049488,-1.16144,-0.101504,-0.26352,3.28125,-1.085,0.07875,28.072,27.472002,13.432001,concentric,3,3.0,68736.0,279475.0,136527.0,270794.0,150793.0
2026-04-14 17:26:12.386188,290201,1609505066088616,2666058200,-1.16144,-0.101504,-0.26352,8.47,-1.715,0.77,28.072,27.472002,13.432001,concentric,3,3.0,68736.0,279475.0,136527.0,270794.0,150793.0
2026-04-14 17:26:12.388788,290202,1609505066097609,2666066940,-1.16144,-0.101504,-0.26352,4.9525,-3.4475,0.98,28.072,27.472002,13.432001,concentric,3,3.0,68736.0,279475.0,136527.0,270794.0,150793.0
2026-04-14 17:26:12.396206,290203,1609505066112094,2666081865,-1.11264,-0.021472,0.001952,0.175,-3.4475,0.0875,27.456001,27.688002,14.664001,concentric,3,3.0,68736.0,279475.0,136527.0,270794.0,150793.0
2026-04-14 17:26:12.406309,290204,1609505066121045,2666090562,-1.20048,-0.15616,-0.255712,-5.73125,-2.61625,-2.4675,27.832,27.536001,11.736001,concentric,3,3.0,68736.0,279475.0,136527.0,270794.0,150793.0
2026-04-14 17:26:12.420202,290205,1609505066135523,2666105426,-1.20048,-0.15616,-0.255712,-11.06875,-2.45875,-3.54375,27.832,27.536001,11.736001,concentric,3,3.0,68736.0,279475.0,136527.0,270794.0,150793.0
2026-04-14 17:26:12.427659,290206,1609505066144488,2666114138,-1.159488,-0.201056,-0.296704,-7.51625,-2.45,-1.435,29.016,27.272001,10.608001,concentric,3,3.0,68736.0,279475.0,136527.0,270794.0,150793.0
2026-04-14 17:26:12.437683,290207,1609505066153517,2666122899,-1.159488,-0.201056,-0.296704,1.77625,-2.44125,0.13125,29.016,27.272001,10.608001,concentric,3,3.0,68736.0,279475.0,136527.0,270794.0,150793.0
2026-04-14 17:26:12.452675,290208,1609505066167978,2666137774,-1.198528,-0.074176,-0.25376,8.085,-2.38875,1.5925,29.232002,27.320002,11.080001,concentric,3,3.0,68736.0,279475.0,136527.0,270794.0,150793.0
2026-04-14 17:26:12.487279,290219,1609505066177353,2666146723,-1.198528,-0.074176,-0.25376,8.1375,-3.22875,1.96875,29.232002,27.320002,11.080001,concentric,3,3.0,67789.0,277250.0,135277.0,268919.0,149401.0
2026-04-14 17:26:12.489806,290220,1609505066191909,2666161717,-1.147776,-0.054656,-0.288896,4.43625,-2.94875,2.1875,28.912,27.144001,10.88,concentric,3,3.0,67789.0,277250.0,135277.0,268919.0,149401.0
2026-04-14 17:26:12.492552,290221,1609505066200873,2666170453,-1.120448,-0.10736,-0.103456,-0.3675,-2.275,0.805,28.152,27.416,13.208,concentric,3,3.0,67789.0,277250.0,135277.0,268919.0,149401.0
2026-04-14 17:26:12.499992,290222,1609505066215380,2666185374,-1.120448,-0.10736,-0.103456,-3.36,-2.2575,-0.51625,28.152,27.416,13.208,concentric,3,3.0,67789.0,277250.0,135277.0,268919.0,149401.0
2026-04-14 17:26:12.510456,290223,1609505066224298,2666194055,-1.048224,-0.138592,-0.023424,-1.26,-1.11125,-0.14,28.968002,26.928001,10.960001,concentric,3,3.0,67789.0,277250.0,135277.0,268919.0,149401.0
2026-04-14 17:26:12.519239,290224,1609505066233233,2666202742,-1.048224,-0.138592,-0.023424,5.565,-0.735,0.175,28.968002,26.928001,10.960001,concentric,3,3.0,67789.0,277250.0,135277.0,268919.0,149401.0
2026-04-14 17:26:12.531712,290225,1609505066247714,2666217689,-1.05408,-0.08784,-0.03904,10.0625,-0.30625,0.51625,29.104002,27.128002,11.096001,concentric,3,3.0,67789.0,277250.0,135277.0,268919.0,149401.0
2026-04-14 17:26:12.540443,290226,1609505066256634,2666226430,-1.05408,-0.08784,-0.03904,7.65625,-1.23375,1.33,29.104002,27.128002,11.096001,concentric,3,3.0,67789.0,277250.0,135277.0,268919.0,149401.0
2026-04-14 17:26:12.574081,290227,1609505066271114,2666241304,-1.0736,-0.093696,-0.261568,1.89,-1.75875,1.77625,28.848001,27.368002,11.984,concentric,3,3.0,67789.0,277250.0,135277.0,268919.0,149401.0
2026-04-14 17:26:12.606697,290239,1609505066280311,2666249986,-1.057984,-0.128832,-0.005856,-6.44875,-2.345,0.86625,28.848001,27.368002,10.984,concentric,3,3.0,66677.0,275171.0,133715.0,267443.0,147714.0
2026-04-14 17:26:12.609236,290240,1609505066289262,2666258752,-1.052128,-0.128832,-0.005856,-10.395,-2.86125,-0.42875,29.096,27.112001,10.984,concentric,3,3.0,66677.0,275171.0,133715.0,267443.0,147714.0
2026-04-14 17:26:12.611272,290241,1609505066303753,2666273673,-1.09312,-0.095648,-0.03904,-6.25625,-2.59,0.9975,29.2,26.840002,11.000001,concentric,3,3.0,66677.0,275171.0,133715.0,267443.0,147714.0
2026-04-14 17:26:12.636699,290242,1609505066312765,2666282429,-1.09312,-0.095648,-0.03904,0.875,-1.53125,0.455,29.2,26.840002,11.000001,concentric,3,3.0,66677.0,275171.0,133715.0,267443.0,147714.0
2026-04-14 17:26:12.659093,290243,1609505066327355,2666297304,-1.124352,-0.119072,-0.25376,6.51875,-0.84,-0.27125,29.152002,26.808,11.76,concentric,3,3.0,66677.0,275171.0,133715.0,267443.0,147714.0
2026-04-14 17:26:12.661577,290244,1609505066336288,2666306026,-1.124352,-0.119072,-0.25376,7.84875,0.0875,-0.21875,29.152002,26.808,11.76,concentric,3,3.0,66677.0,275171.0,133715.0,267443.0,147714.0
2026-04-14 17:26:12.664048,290245,1609505066350741,2666320933,-1.11264,-0.0976,-0.210816,4.55,0.3325,-0.88375,28.928001,26.616001,10.84,concentric,3,3.0,66677.0,275171.0,133715.0,267443.0,147714.0
2026-04-14 17:26:12.666534,290246,1609505066359655,2666329616,-1.11264,-0.0976,-0.210816,-1.2775,0.2625,-1.4875,28.928001,26.616001,10.84,concentric,3,3.0,66677.0,275171.0,133715.0,267443.0,147714.0
2026-04-14 17:26:12.669086,290247,1609505066368559,2666338289,-1.128256,-0.115168,-0.072224,-6.18625,-0.77,-2.31875,28.992,27.232,13.208,concentric,3,3.0,66677.0,275171.0,133715.0,267443.0,147714.0
2026-04-14 17:26:12.699016,290258,1609505066383112,2666353206,-1.091168,-0.208864,-0.150304,-7.8575,-2.23125,-2.345,28.088001,27.28,12.208,concentric,3,3.0,63980.0,273835.0,129735.0,266446.0,143737.0
2026-04-14 17:26:12.701687,290259,1609505066392172,2666362024,-1.091168,-0.208864,-0.150304,-3.61375,-3.185,-1.4525,28.088001,27.28,12.208,concentric,3,3.0,63980.0,273835.0,129735.0,266446.0,143737.0
2026-04-14 17:26:12.703819,290260,1609505066406785,2666376921,-1.163392,-0.13664,-0.208864,6.3525,-3.2025,-0.20125,28.392002,26.896002,12.352,concentric,3,3.0,63980.0,273835.0,129735.0,266446.0,143737.0
2026-04-14 17:26:12.706673,290261,1609505066415753,2666385607,-1.163392,-0.13664,-0.208864,13.265,-3.43,0.60375,28.392002,26.896002,12.352,concentric,3,3.0,63980.0,273835.0,129735.0,266446.0,143737.0
2026-04-14 17:26:12.717939,290262,1609505066430250,2666400492,-1.280512,-0.056608,-0.247904,10.815,-3.92875,0.4375,28.224,26.808,12.016001,concentric,3,3.0,63980.0,273835.0,129735.0,266446.0,143737.0
2026-04-14 17:26:12.724239,290263,1609505066439169,2666409234,-1.280512,-0.056608,-0.247904,1.93375,-4.27,0.5425,28.224,26.808,12.016001,concentric,3,3.0,63980.0,273835.0,129735.0,266446.0,143737.0
2026-04-14 17:26:12.732942,290264,1609505066448102,2666417912,-1.173152,-0.11712,0.021472,-4.62875,-4.55875,0.60375,28.992,26.512001,10.912001,concentric,3,3.0,63980.0,273835.0,129735.0,266446.0,143737.0
2026-04-14 17:26:12.749182,290265,1609505066462569,2666432797,-1.24928,-0.169824,-0.150304,-6.37,-4.48875,0.0875,29.256,26.824001,11.824,concentric,3,3.0,63980.0,273835.0,129735.0,266446.0,143737.0
2026-04-14 17:26:12.756519,290266,1609505066471496,2666441488,-1.24928,-0.169824,-0.150304,-1.16375,-3.84125,-0.805,29.256,26.824001,11.824,concentric,3,3.0,63980.0,273835.0,129735.0,266446.0,143737.0
2026-04-14 17:26:12.787908,290277,1609505066486401,2666456658,-1.157536,-0.13664,-0.025376,8.51375,-3.15875,-0.35,28.936,26.456001,11.296001,concentric,3,3.0,65243.0,275475.0,131678.0,267596.0,145774.0
2026-04-14 17:26:12.790437,290278,1609505066495386,2666465392,-1.157536,-0.13664,-0.025376,14.93625,-2.96625,1.05875,28.936,26.456001,11.296001,concentric,3,3.0,65243.0,275475.0,131678.0,267596.0,145774.0
2026-04-14 17:26:12.792930,290279,1609505066504334,2666474125,-1.198528,-0.07808,-0.08784,15.58375,-2.52875,1.93375,29.224,26.224,11.248,concentric,3,3.0,65243.0,275475.0,131678.0,267596.0,145774.0
2026-04-14 17:26:12.805449,290280,1609505066518846,2666489017,-1.198528,-0.07808,-0.08784,7.5425,-4.05125,1.6975,29.224,26.224,11.248,concentric,3,3.0,65243.0,275475.0,131678.0,267596.0,145774.0
2026-04-14 17:26:12.813742,290281,1609505066527741,2666497715,-1.255136,-0.093696,-0.121024,-1.12,-5.81875,1.3475,29.512001,26.088001,11.184001,concentric,3,3.0,65243.0,275475.0,131678.0,267596.0,145774.0
2026-04-14 17:26:12.826694,290282,1609505066542318,2666512668,-1.147776,-0.150304,0.007808,-2.8175,-6.44,2.70375,29.024002,26.128002,11.208,concentric,3,3.0,65243.0,275475.0,131678.0,267596.0,145774.0
2026-04-14 17:26:12.837500,290283,1609505066551215,2666521349,-1.147776,-0.150304,0.007808,0.76125,-6.125,2.1,29.024002,26.128002,11.208,concentric,3,3.0,65243.0,275475.0,131678.0,267596.0,145774.0
2026-04-14 17:26:12.849084,290284,1609505066565709,2666534175,-1.264896,-0.115168,-0.169824,5.97625,-5.6,1.35625,29.368002,26.056002,12.224001,concentric,3,3.0,65243.0,275475.0,131678.0,267596.0,145774.0
2026-04-14 17:26:12.859930,290285,1609505066574993,2666544926,-1.264896,-0.115168,-0.169824,9.0825,-5.08375,1.32125,29.368002,26.056002,12.224001,concentric,3,3.0,65243.0,275475.0,131678.0,267596.0,145774.0
2026-04-14 17:26:12.890360,290296,1609505066584063,2666553675,-1.155584,-0.040992,0.01952,9.49375,-4.99625,1.715,28.528002,26.176,12.208,concentric,3,3.0,69955.0,278744.0,138544.0,270646.0,152772.0
2026-04-14 17:26:12.892920,290297,1609505066598604,2666568599,-1.155584,-0.040992,0.01952,8.14625,-4.64625,1.21625,28.528002,26.176,12.208,concentric,3,3.0,69955.0,278744.0,138544.0,270646.0,152772.0
2026-04-14 17:26:12.895526,290298,1609505066607509,2666577289,-1.208288,-0.138592,-0.242048,3.15875,-5.03125,-0.06125,28.192001,25.904001,11.792001,concentric,3,3.0,69955.0,278744.0,138544.0,270646.0,152772.0
2026-04-14 17:26:12.906730,290299,1609505066622033,2666592200,-1.208288,-0.138592,-0.03904,-1.96875,-4.8475,0.315,28.192001,25.904001,11.792001,concentric,3,3.0,69955.0,278744.0,138544.0,270646.0,152772.0
2026-04-14 17:26:12.916697,290300,1609505066630964,2666600866,-1.177056,-0.163968,-0.03904,-4.10375,-4.7775,1.25125,29.328001,25.992,11.152,concentric,3,3.0,69955.0,278744.0,138544.0,270646.0,152772.0
2026-04-14 17:26:12.927505,290301,1609505066645451,2666613798,-1.212192,-0.066368,-0.070272,0.7175,-5.285,1.49625,29.680002,25.424002,11.632001,concentric,3,3.0,69955.0,278744.0,138544.0,270646.0,152772.0
2026-04-14 17:26:12.938842,290302,1609505066654626,2666624537,-1.212192,-0.066368,-0.070272,9.38875,-4.87375,2.30125,29.680002,25.424002,11.632001,concentric,3,3.0,69955.0,278744.0,138544.0,270646.0,152772.0
2026-04-14 17:26:12.947921,290303,1609505066663559,2666633226,-1.266848,-0.02928,-0.212768,12.8625,-4.94375,2.24875,29.52,25.704,11.608001,concentric,3,3.0,69955.0,278744.0,138544.0,270646.0,152772.0
2026-04-14 17:26:13.031970,290314,1609505066678034,2666648126,-1.266848,-0.02928,-0.212768,9.3625,-6.83375,1.1725,29.52,25.704,11.608001,concentric,3,3.0,73853.0,280412.0,143967.0,272680.0,158396.0
2026-04-14 17:26:13.056715,290315,1609505066687569,2666656858,-1.196576,-0.101504,-0.179584,2.7125,-7.595,0.11375,29.400002,25.160002,10.832001,concentric,3,3.0,73853.0,280412.0,143967.0,272680.0,158396.0
2026-04-14 17:26:13.059234,290316,1609505066702087,2666671862,-1.196576,-0.101504,-0.179584,2.07375,-7.84,-0.2625,29.400002,25.160002,10.832001,concentric,3,3.0,73853.0,280412.0,143967.0,272680.0,158396.0
2026-04-14 17:26:13.061263,290317,1609505066711000,2666680532,-1.179008,-0.003904,-0.105408,9.4325,-7.49,-1.54875,29.840002,25.064001,14.672001,concentric,3,3.0,73853.0,280412.0,143967.0,272680.0,158396.0
2026-04-14 17:26:13.064259,290318,1609505066719895,2666689187,-1.179008,-0.003904,-0.105408,14.42875,-8.3825,-3.56125,29.840002,25.064001,14.672001,concentric,3,3.0,73853.0,280412.0,143967.0,272680.0,158396.0
2026-04-14 17:26:13.066627,290319,1609505066734330,2666704124,-1.153632,0.093696,-0.0976,7.97125,-10.14125,-4.99625,29.656002,24.880001,10.0,concentric,3,3.0,73853.0,280412.0,143967.0,272680.0,158396.0
2026-04-14 17:26:13.069235,290320,1609505066743250,2666712799,-1.1224,-0.130784,0.01952,-6.16,-11.94375,-6.81625,29.656002,24.880001,10.76,concentric,3,3.0,73853.0,280412.0,143967.0,272680.0,158396.0
2026-04-14 17:26:13.071270,290321,1609505066757722,2666727669,-1.110688,-0.130784,0.01952,-18.7425,-13.15125,-7.98875,29.656002,24.992,10.76,concentric,3,3.0,73853.0,280412.0,143967.0,272680.0,158396.0
2026-04-14 17:26:13.074248,290322,1609505066766660,2666736346,-1.06384,-0.197152,-0.162016,-14.23625,-11.1825,-7.09625,28.952002,24.792002,10.504001,concentric,3,3.0,73853.0,280412.0,143967.0,272680.0,158396.0
2026-04-14 17:26:13.108183,290333,1609505066781630,2666751516,-1.06384,-0.197152,-0.162016,7.25375,-7.49,-7.4725,28.952002,24.792002,10.504001,concentric,3,3.0,83561.0,286059.0,157079.0,277499.0,172169.0
2026-04-14 17:26:13.108671,290334,1609505066790733,2666760260,-1.108736,-0.072224,-0.177632,25.305,-4.66375,-7.11375,28.52,24.320002,10.304001,concentric,3,3.0,83561.0,286059.0,157079.0,277499.0,172169.0
2026-04-14 17:26:13.111534,290335,1609505066799675,2666768992,-1.108736,-0.072224,-0.177632,27.098751,-2.6425,-4.69,28.52,24.320002,10.304001,concentric,3,3.0,83561.0,286059.0,157079.0,277499.0,172169.0
2026-04-14 17:26:13.114084,290336,1609505066814236,2666783932,-1.138016,-0.017568,-0.121024,16.397501,-1.855,-2.24875,28.344002,24.080002,9.96,concentric,3,3.0,83561.0,286059.0,157079.0,277499.0,172169.0
2026-04-14 17:26:13.116089,290337,1609505066823133,2666792620,-1.138016,-0.017568,-0.121024,4.57625,-2.16125,-0.77,28.344002,24.080002,9.96,concentric,3,3.0,83561.0,286059.0,157079.0,277499.0,172169.0
2026-04-14 17:26:13.121552,290338,1609505066837716,2666807533,-1.05408,-0.089792,0.035136,-2.9575,-2.61625,0.83125,28.224,23.448002,12.048,concentric,3,3.0,83561.0,286059.0,157079.0,277499.0,172169.0
2026-04-14 17:26:13.129793,290339,1609505066846657,2666816261,-1.108736,-0.083936,-0.271328,-3.6225,-2.6075,0.9975,28.096,23.096,9.120001,concentric,3,3.0,83561.0,286059.0,157079.0,277499.0,172169.0
2026-04-14 17:26:13.140310,290340,1609505066855594,2666824952,-1.108736,-0.083936,-0.271328,1.2775,-1.8725,1.33,28.096,23.096,9.120001,concentric,3,3.0,83561.0,286059.0,157079.0,277499.0,172169.0
2026-04-14 17:26:13.156314,290341,1609505066870072,2666839835,-1.087264,-0.007808,-0.062464,7.4375,-2.52,0.91,28.320002,22.048,6.944,concentric,3,3.0,83561.0,286059.0,157079.0,277499.0,172169.0
2026-04-14 17:26:13.218985,290352,1609505066878960,2666848569,-1.087264,-0.007808,-0.062464,9.59875,-2.37125,-0.48125,28.320002,22.048,6.944,concentric,3,3.0,86084.0,284281.0,160524.0,276651.0,175515.0
2026-04-14 17:26:13.221585,290353,1609505066893606,2666863559,-1.136064,-0.01952,-0.1952,8.11125,-2.3975,-1.7325,27.456001,21.400002,6.432,concentric,3,3.0,86084.0,284281.0,160524.0,276651.0,175515.0
2026-04-14 17:26:13.224211,290354,1609505066902535,2666872252,-1.136064,-0.01952,-0.1952,5.74,-1.3825,-3.94625,27.456001,21.400002,6.432,concentric,3,3.0,86084.0,284281.0,160524.0,276651.0,175515.0
2026-04-14 17:26:13.226645,290355,1609505066917020,2666887109,-1.05408,-0.05856,0.054656,3.885,0.21,-5.5125,26.688002,21.04,5.76,concentric,3,3.0,86084.0,284281.0,160524.0,276651.0,175515.0
2026-04-14 17:26:13.229034,290356,1609505066925980,2666895780,-1.157536,-0.06832,-0.228384,4.025,1.77625,-6.39625,24.696001,20.312,6.2,concentric,3,3.0,86084.0,284281.0,160524.0,276651.0,175515.0
2026-04-14 17:26:13.231322,290357,1609505066934923,2666904494,-1.157536,-0.06832,-0.228384,4.27,2.2575,-7.39375,24.696001,20.312,6.2,concentric,3,3.0,86084.0,284281.0,160524.0,276651.0,175515.0
2026-04-14 17:26:13.233895,290358,1609505066949464,2666919400,-1.059936,-0.062464,-0.076128,4.76,1.74125,-6.09,23.344002,19.512001,6.528,concentric,3,3.0,86084.0,284281.0,160524.0,276651.0,175515.0
2026-04-14 17:26:13.244239,290359,1609505066958489,2666928084,-1.059936,-0.062464,-0.076128,4.68125,1.4175,-4.69875,23.344002,19.512001,6.528,concentric,3,3.0,86084.0,284281.0,160524.0,276651.0,175515.0
2026-04-14 17:26:13.257946,290360,1609505066972973,2666942973,-1.138016,-0.099552,-0.111264,3.15875,1.39125,-3.85,22.368002,18.320002,5.896,concentric,3,3.0,86084.0,284281.0,160524.0,276651.0,175515.0
2026-04-14 17:26:13.288732,290371,1609505066982475,2666951752,-1.138016,-0.099552,-0.111264,0.27125,1.44375,-2.37125,22.368002,18.320002,5.896,concentric,3,3.0,84390.0,282618.0,158086.0,275527.0,173017.0
2026-04-14 17:26:13.292981,290372,1609505066991528,2666960483,-1.089216,-0.080032,-0.017568,-0.035,1.86375,-0.0875,20.992,18.088001,5.264,concentric,3,3.0,84390.0,282618.0,158086.0,275527.0,173017.0
2026-04-14 17:26:13.295532,290373,1609505067006024,2666975409,-1.087264,0.001952,0.005856,5.69625,2.10875,1.435,19.552,17.84,7.2,concentric,3,3.0,84390.0,282618.0,158086.0,275527.0,173017.0
2026-04-14 17:26:13.299095,290374,1609505067015071,2666984072,-1.087264,0.001952,0.005856,9.6425,1.25125,1.085,19.552,17.84,7.2,concentric,3,3.0,84390.0,282618.0,158086.0,275527.0,173017.0
2026-04-14 17:26:13.316270,290375,1609505067029549,2666998978,-1.104832,-0.050752,-0.044896,5.495,-0.30625,0.5775,18.624,18.344002,8.904,concentric,3,3.0,84390.0,282618.0,158086.0,275527.0,173017.0
2026-04-14 17:26:13.322897,290376,1609505067038503,2667007664,-1.104832,-0.050752,-0.044896,-3.66625,-1.46125,1.12875,18.624,18.344002,8.904,concentric,3,3.0,84390.0,282618.0,158086.0,275527.0,173017.0
2026-04-14 17:26:13.339225,290377,1609505067052983,2667022555,-1.128256,-0.109312,-0.031232,-9.75625,-2.40625,1.2425,17.696001,19.080002,13.008,concentric,3,3.0,84390.0,282618.0,158086.0,275527.0,173017.0
2026-04-14 17:26:13.345509,290378,1609505067061918,2667031257,-1.128256,-0.109312,-0.031232,-1.925,-2.5725,1.5225,17.696001,19.080002,13.008,concentric,3,3.0,84390.0,282618.0,158086.0,275527.0,173017.0
2026-04-14 17:26:13.371693,290379,1609505067070838,2667039960,-1.087264,-0.07808,-0.245952,12.81875,-2.24875,0.81375,17.992,19.448002,14.032001,concentric,3,3.0,84390.0,282618.0,158086.0,275527.0,173017.0
2026-04-14 17:26:13.426088,290390,1609505067085433,2667054945,-1.134112,-0.013664,-0.044896,16.975,-2.52,0.30625,17.992,19.448002,15.336,eccentric,3,3.0,78342.0,275530.0,150479.0,270259.0,164573.0
2026-04-14 17:26:13.428538,290391,1609505067094377,2667063609,-1.126304,-0.013664,-0.044896,10.35125,-3.92,1.365,19.528002,20.04,15.336,eccentric,3,3.0,78342.0,275530.0,150479.0,270259.0,164573.0
2026-04-14 17:26:13.431116,290392,1609505067108870,2667078552,-1.085312,-0.095648,-0.01952,2.09125,-4.935,2.63375,20.752,20.736,15.584001,eccentric,3,3.0,78342.0,275530.0,150479.0,270259.0,164573.0
2026-04-14 17:26:13.443859,290393,1609505067117855,2667087243,-1.085312,-0.095648,-0.01952,-4.0425,-6.23,2.51125,20.752,20.736,15.584001,eccentric,3,3.0,78342.0,275530.0,150479.0,270259.0,164573.0
2026-04-14 17:26:13.444137,290394,1609505067132480,2667102157,-1.10288,-0.121024,-0.284992,-3.71,-6.195,3.43875,22.096,21.648,16.208,eccentric,3,3.0,78342.0,275530.0,150479.0,270259.0,164573.0
2026-04-14 17:26:13.444302,290395,1609505067141394,2667110872,-1.10288,-0.121024,-0.284992,-0.28875,-7.0525,5.13625,22.096,21.648,16.208,eccentric,3,3.0,78342.0,275530.0,150479.0,270259.0,164573.0
2026-04-14 17:26:13.444453,290396,1609505067150296,2667119575,-1.040416,-0.109312,-0.212768,3.605,-9.40625,6.8775,23.312,22.088001,17.28,eccentric,3,3.0,78342.0,275530.0,150479.0,270259.0,164573.0
2026-04-14 17:26:13.448948,290397,1609505067164783,2667134490,-1.040416,-0.109312,-0.212768,7.28875,-13.1425,9.26625,23.312,22.088001,17.28,eccentric,3,3.0,78342.0,275530.0,150479.0,270259.0,164573.0
2026-04-14 17:26:13.457654,290398,1609505067173706,2667143165,-1.018944,-0.035136,0.037088,10.8325,-16.205,11.17375,23.392,22.936,19.088001,eccentric,3,3.0,78342.0,275530.0,150479.0,270259.0,164573.0
2026-04-14 17:26:13.489800,290409,1609505067188245,2667158359,-1.011136,-0.017568,0.115168,12.11875,-18.29625,12.76625,24.224,23.056002,16.304,eccentric,3,3.0,69118.0,264963.0,138399.0,261505.0,152044.0
2026-04-14 17:26:13.493118,290410,1609505067197221,2667167154,-1.011136,-0.017568,0.115168,7.175,-18.6025,13.475,24.224,23.056002,16.304,eccentric,3,3.0,69118.0,264963.0,138399.0,261505.0,152044.0
2026-04-14 17:26:13.494944,290411,1609505067206270,2667175847,-0.901824,-0.154208,-0.152256,-1.33875,-17.91125,14.86625,24.224,23.056002,15.872001,eccentric,3,3.0,69118.0,264963.0,138399.0,261505.0,152044.0
2026-04-14 17:26:13.505011,290412,1609505067220823,2667190822,-0.901824,-0.154208,-0.152256,-7.21,-17.96375,15.09375,25.528002,23.304,15.872001,eccentric,3,3.0,69118.0,264963.0,138399.0,261505.0,152044.0
2026-04-14 17:26:13.515055,290413,1609505067229745,2667199510,-0.981856,-0.023424,-0.10736,-0.79625,-18.55,15.70625,26.088001,23.216002,15.952001,eccentric,3,3.0,69118.0,264963.0,138399.0,261505.0,152044.0
2026-04-14 17:26:13.528814,290414,1609505067244210,2667214427,-0.981856,-0.023424,-0.10736,11.5675,-18.865,16.5375,26.088001,23.216002,15.952001,eccentric,3,3.0,69118.0,264963.0,138399.0,261505.0,152044.0
2026-04-14 17:26:13.537567,290415,1609505067253135,2667223099,-0.974048,0.0976,0.013664,16.12625,-18.585001,16.26625,26.344002,23.736002,16.272001,eccentric,3,3.0,69118.0,264963.0,138399.0,261505.0,152044.0
2026-04-14 17:26:13.551350,290416,1609505067267617,2667235963,-0.98576,-0.076128,-0.16592,1.07625,-18.6025,15.77625,26.112001,23.608002,15.064001,eccentric,3,3.0,69118.0,264963.0,138399.0,261505.0,152044.0
2026-04-14 17:26:13.562419,290417,1609505067276834,2667246708,-0.98576,-0.076128,-0.16592,-24.45625,-17.91125,15.715,26.112001,23.608002,15.064001,eccentric,3,3.0,69118.0,264963.0,138399.0,261505.0,152044.0
2026-04-14 17:26:13.589771,290428,1609505067285918,2667255435,-0.98576,-0.076128,-0.16592,-40.99375,-18.7425,15.39125,26.112001,23.608002,15.064001,eccentric,3,3.0,67885.0,262214.0,136544.0,259060.0,150536.0
2026-04-14 17:26:13.592455,290429,1609505067300455,2667270406,-0.90768,-0.162016,0.062464,-32.29625,-20.01125,15.645,26.880001,23.648,16.384,eccentric,3,3.0,67885.0,262214.0,136544.0,259060.0,150536.0
2026-04-14 17:26:13.594811,290430,1609505067309480,2667279109,-1.130208,0.033184,-0.017568,-3.40375,-20.16,16.21375,26.816002,23.392,14.784,eccentric,3,3.0,67885.0,262214.0,136544.0,259060.0,150536.0
2026-04-14 17:26:13.609920,290431,1609505067323983,2667293989,-1.130208,0.033184,-0.017568,21.4725,-19.59125,16.10875,26.816002,23.392,14.784,eccentric,3,3.0,67885.0,262214.0,136544.0,259060.0,150536.0
2026-04-14 17:26:13.617502,290432,1609505067332921,2667302653,-1.159488,0.081984,-0.177632,22.8375,-19.915,15.32125,26.800001,23.328001,14.392001,eccentric,3,3.0,67885.0,262214.0,136544.0,259060.0,150536.0
2026-04-14 17:26:13.631311,290433,1609505067347461,2667317593,-1.087264,-0.081984,-0.113216,1.8375,-21.2275,15.33875,26.704,23.816002,14.320001,eccentric,3,3.0,67885.0,262214.0,136544.0,259060.0,150536.0
2026-04-14 17:26:13.640191,290434,1609505067356376,2667326300,-1.087264,-0.081984,-0.113216,-20.8425,-24.955,18.445,26.704,23.816002,14.320001,eccentric,3,3.0,67885.0,262214.0,136544.0,259060.0,150536.0
2026-04-14 17:26:13.650166,290435,1609505067365337,2667334978,-1.087264,-0.081984,-0.113216,-24.40375,-29.26,20.3875,26.704,23.816002,14.320001,eccentric,3,3.0,67885.0,262214.0,136544.0,259060.0,150536.0
2026-04-14 17:26:13.665149,290436,1609505067379751,2667349837,-0.987712,-0.101504,-0.056608,-7.48125,-31.9025,19.52125,25.760002,23.736002,16.616001,eccentric,3,3.0,67885.0,262214.0,136544.0,259060.0,150536.0
2026-04-14 17:26:13.692118,290447,1609505067388754,2667358586,-1.08336,0.003904,-0.128832,12.285,-33.04,20.3,25.536001,23.288002,14.816001,eccentric,3,3.0,75379.0,256132.0,147820.0,255834.0,161706.0
2026-04-14 17:26:13.694634,290448,1609505067403270,2667373511,-1.08336,0.003904,-0.128832,17.395,-34.5975,22.44375,25.536001,23.288002,14.816001,eccentric,3,3.0,75379.0,256132.0,147820.0,255834.0,161706.0
2026-04-14 17:26:13.697101,290449,1609505067412231,2667382273,-1.0736,-0.035136,0.023424,8.05,-36.68875,24.77125,25.688002,23.208,15.568001,eccentric,3,3.0,75379.0,256132.0,147820.0,255834.0,161706.0
2026-04-14 17:26:13.709982,290450,1609505067426708,2667395139,-1.0736,-0.035136,0.023424,-2.40625,-36.26875,26.6525,25.688002,23.208,15.568001,eccentric,3,3.0,75379.0,256132.0,147820.0,255834.0,161706.0
2026-04-14 17:26:13.737636,290451,1609505067436076,2667405903,-1.04432,-0.011712,0.007808,-5.5125,-33.81875,27.16,26.184002,22.800001,16.472,eccentric,3,3.0,75379.0,256132.0,147820.0,255834.0,161706.0
2026-04-14 17:26:13.762403,290452,1609505067444999,2667414567,-1.04432,-0.011712,0.007808,1.68,-30.8,26.6175,26.184002,22.800001,16.472,eccentric,3,3.0,75379.0,256132.0,147820.0,255834.0,161706.0
2026-04-14 17:26:13.772340,290453,1609505067459450,2667429421,-0.997472,0.27328,0.284992,7.70875,-26.94125,21.7175,24.512001,23.52,16.832,eccentric,3,3.0,75379.0,256132.0,147820.0,255834.0,161706.0
2026-04-14 17:26:13.774996,290454,1609505067468407,2667438156,-1.018944,0.037088,0.02928,-2.5025,-22.295,3.1675,23.944,23.664001,17.04,eccentric,3,3.0,75379.0,256132.0,147820.0,255834.0,161706.0
2026-04-14 17:26:13.802584,290465,1609505067483365,2667453029,-1.018944,0.037088,0.02928,-24.045,-21.8575,-19.0925,23.944,23.664001,17.04,eccentric,3,3.0,68882.0,247741.0,138495.0,248709.0,152304.0
2026-04-14 17:26:13.805147,290466,1609505067492382,2667461842,-0.96624,-0.13664,-0.017568,-41.475,-25.165,-11.7075,24.208002,24.016,15.384001,eccentric,3,3.0,68882.0,247741.0,138495.0,248709.0,152304.0
2026-04-14 17:26:13.807641,290467,1609505067501493,2667470566,-0.96624,-0.13664,-0.017568,-47.670002,-28.28,-9.96625,24.208002,24.016,15.384001,eccentric,3,3.0,68882.0,247741.0,138495.0,248709.0,152304.0
2026-04-14 17:26:13.810156,290468,1609505067516054,2667485476,-0.864736,-0.122976,0.07808,-43.16375,-29.7675,-15.25125,24.064001,24.416,15.256001,eccentric,3,3.0,68882.0,247741.0,138495.0,248709.0,152304.0
2026-04-14 17:26:13.812498,290469,1609505067524977,2667494163,-0.864736,-0.122976,0.07808,-31.00125,-31.0625,-13.265,24.064001,24.416,15.256001,eccentric,3,3.0,68882.0,247741.0,138495.0,248709.0,152304.0
2026-04-14 17:26:13.825098,290470,1609505067539477,2667509036,-0.833504,0.01952,0.226432,-21.595,-31.99,-6.29125,23.832,24.584002,15.320001,eccentric,3,3.0,68882.0,247741.0,138495.0,248709.0,152304.0
2026-04-14 17:26:13.851216,290471,1609505067548455,2667517725,-0.93696,-0.005856,0.115168,-15.79375,-31.43,-1.30375,23.832,24.584002,15.376,eccentric,3,3.0,68882.0,247741.0,138495.0,248709.0,152304.0
2026-04-14 17:26:13.855699,290472,1609505067557311,2667526442,-0.93696,-0.005856,0.115168,-13.53625,-30.2925,5.41625,23.456001,24.584002,15.376,eccentric,3,3.0,68882.0,247741.0,138495.0,248709.0,152304.0
2026-04-14 17:26:13.856188,290473,1609505067571760,2667541309,-0.872544,0.0488,0.138592,-13.08125,-29.3825,10.3075,23.880001,24.768002,15.232,eccentric,3,3.0,68882.0,247741.0,138495.0,248709.0,152304.0
2026-04-14 17:26:13.870338,290474,1609505067580734,2667550072,-0.872544,0.0488,0.138592,-15.93375,-30.66,14.84875,23.880001,24.768002,15.232,eccentric,3,3.0,68882.0,247741.0,138495.0,248709.0,152304.0
2026-04-14 17:26:13.897410,290485,1609505067595256,2667565111,-0.806176,0.044896,0.259616,-21.07,-31.52625,14.5075,24.184002,24.240002,16.168001,eccentric,3,3.0,64499.0,238874.0,131056.0,237491.0,144548.0
2026-04-14 17:26:13.899901,290486,1609505067604214,2667573883,-0.806176,0.044896,0.259616,-20.69375,-29.51375,11.78625,24.184002,24.240002,16.168001,eccentric,3,3.0,64499.0,238874.0,131056.0,237491.0,144548.0
2026-04-14 17:26:13.902464,290487,1609505067618779,2667588814,-0.83936,-0.023424,0.105408,-13.4225,-26.04875,10.42125,24.152,24.128,14.272,eccentric,3,3.0,64499.0,238874.0,131056.0,237491.0,144548.0
2026-04-14 17:26:13.911091,290488,1609505067627707,2667597488,-0.83936,-0.023424,0.105408,-4.0425,-23.23125,9.91375,24.152,24.128,14.272,eccentric,3,3.0,64499.0,238874.0,131056.0,237491.0,144548.0
2026-04-14 17:26:13.921618,290489,1609505067636626,2667606169,-0.913536,0.050752,0.044896,3.28125,-21.77875,9.695,24.376001,24.552002,16.104,eccentric,3,3.0,64499.0,238874.0,131056.0,237491.0,144548.0
2026-04-14 17:26:13.937758,290490,1609505067651210,2667621082,-0.84912,0.011712,0.007808,15.5225,-20.1775,13.16,24.008001,23.592001,15.000001,eccentric,3,3.0,64499.0,238874.0,131056.0,237491.0,144548.0
2026-04-14 17:26:13.943785,290491,1609505067660137,2667629755,-0.84912,0.011712,0.007808,18.41,-15.09375,14.8225,24.008001,23.592001,15.000001,eccentric,3,3.0,64499.0,238874.0,131056.0,237491.0,144548.0
2026-04-14 17:26:13.959081,290492,1609505067674686,2667644635,-0.991616,0.10736,0.003904,17.94625,-17.1325,15.53125,23.336,23.640001,15.312,eccentric,3,3.0,64499.0,238874.0,131056.0,237491.0,144548.0
2026-04-14 17:26:13.991614,290503,1609505067683646,2667653354,-0.991616,0.10736,0.003904,8.89875,-14.3325,12.075,23.336,23.640001,15.312,eccentric,3,3.0,44927.0,217109.0,101988.0,221647.0,114554.0
2026-04-14 17:26:13.994227,290504,1609505067693073,2667662079,-0.974048,0.122976,0.177632,6.06375,-13.9475,9.79125,22.560001,23.608002,16.144001,eccentric,3,3.0,44927.0,217109.0,101988.0,221647.0,114554.0
2026-04-14 17:26:13.996184,290505,1609505067707579,2667677068,-0.974048,0.122976,0.177632,4.8475,-12.8275,11.5325,22.560001,23.608002,16.144001,eccentric,3,3.0,44927.0,217109.0,101988.0,221647.0,114554.0
2026-04-14 17:26:14.001704,290506,1609505067716505,2667685769,-1.061888,0.103456,-0.074176,5.87125,-9.275,6.615,23.424002,23.688002,15.144001,eccentric,3,3.0,44927.0,217109.0,101988.0,221647.0,114554.0
2026-04-14 17:26:14.016262,290507,1609505067730997,2667700625,-1.026752,0.130784,0.191296,7.37625,-9.73875,1.6975,24.024002,23.096,15.208001,eccentric,3,3.0,44927.0,217109.0,101988.0,221647.0,114554.0
2026-04-14 17:26:14.024236,290508,1609505067739952,2667709336,-1.026752,0.130784,0.191296,11.82125,-9.7475,-1.74125,24.024002,23.096,15.208001,eccentric,3,3.0,44927.0,217109.0,101988.0,221647.0,114554.0
2026-04-14 17:26:14.038896,290509,1609505067754426,2667724199,-1.046272,0.095648,0.32208,12.60875,-10.71,1.16375,23.896002,23.048,15.552001,eccentric,3,3.0,44927.0,217109.0,101988.0,221647.0,114554.0
2026-04-14 17:26:14.049025,290510,1609505067763407,2667732889,-1.046272,0.095648,0.32208,6.81625,-6.95625,-1.70625,23.896002,23.048,15.552001,eccentric,3,3.0,44927.0,217109.0,101988.0,221647.0,114554.0
2026-04-14 17:26:14.058843,290511,1609505067772380,2667741559,-1.050176,0.023424,0.023424,4.3575,-1.81125,-6.615,23.36,22.960001,17.128,eccentric,3,3.0,44927.0,217109.0,101988.0,221647.0,114554.0
2026-04-14 17:26:14.141124,290522,1609505067786944,2667756515,-1.050176,0.023424,0.023424,7.595,3.66625,-7.18375,23.36,22.960001,17.128,eccentric,3,3.0,44016.0,221721.0,100001.0,226248.0,112385.0
2026-04-14 17:26:14.143396,290523,1609505067795940,2667765239,-1.1712,0.08784,-0.007808,11.2525,6.71125,-6.78125,23.736002,23.088001,15.888001,eccentric,3,3.0,44016.0,221721.0,100001.0,226248.0,112385.0
2026-04-14 17:26:14.144798,290524,1609505067810433,2667780196,-1.075552,0.109312,0.1952,13.0025,7.23625,-7.0175,23.840002,23.208,14.808001,eccentric,3,3.0,44016.0,221721.0,100001.0,226248.0,112385.0
2026-04-14 17:26:14.147423,290525,1609505067819424,2667788837,-1.075552,0.109312,0.1952,12.17125,6.3525,-7.37625,23.840002,23.208,14.808001,eccentric,3,3.0,44016.0,221721.0,100001.0,226248.0,112385.0
2026-04-14 17:26:14.150289,290526,1609505067833911,2667803726,-1.106784,0.023424,0.037088,9.0825,5.11,-7.86625,23.928001,22.432001,15.672001,eccentric,3,3.0,44016.0,221721.0,100001.0,226248.0,112385.0
2026-04-14 17:26:14.152790,290527,1609505067842836,2667812397,-1.106784,0.023424,0.037088,6.5625,5.80125,-7.37625,23.928001,22.432001,15.672001,eccentric,3,3.0,44016.0,221721.0,100001.0,226248.0,112385.0
2026-04-14 17:26:14.155294,290528,1609505067851751,2667821070,-1.136064,-0.001952,0.00976,7.18375,7.455,-6.8075,24.056002,23.112001,16.352001,eccentric,3,3.0,44016.0,221721.0,100001.0,226248.0,112385.0
2026-04-14 17:26:14.157366,290529,1609505067866315,2667836076,-1.136064,-0.001952,0.00976,11.13875,8.6975,-5.425,24.056002,23.112001,16.352001,eccentric,3,3.0,44016.0,221721.0,100001.0,226248.0,112385.0
2026-04-14 17:26:14.162345,290530,1609505067875238,2667844791,-1.040416,0.01952,0.111264,15.4,10.167501,-4.33125,22.824001,23.072,17.368,eccentric,3,3.0,44016.0,221721.0,100001.0,226248.0,112385.0
2026-04-14 17:26:14.192470,290541,1609505067889881,2667859968,-1.040416,0.01952,0.111264,15.21625,11.27875,-3.85875,22.824001,23.072,17.368,eccentric,3,3.0,43812.0,222988.0,99453.0,227162.0,111718.0
2026-04-14 17:26:14.195326,290542,1609505067898926,2667868768,-1.13216,0.040992,0.037088,11.41875,11.6375,-3.92,23.464,23.04,16.704,eccentric,3,3.0,43812.0,222988.0,99453.0,227162.0,111718.0
2026-04-14 17:26:14.200412,290543,1609505067913488,2667883687,-1.059936,-0.011712,0.01952,6.99125,11.54125,-4.71625,23.232,22.728,17.12,eccentric,3,3.0,43812.0,222988.0,99453.0,227162.0,111718.0
2026-04-14 17:26:14.206655,290544,1609505067922469,2667892399,-1.059936,-0.011712,0.01952,6.76375,11.12125,-6.3,23.232,22.728,17.12,eccentric,3,3.0,43812.0,222988.0,99453.0,227162.0,111718.0
2026-04-14 17:26:14.214955,290545,1609505067931441,2667901079,-1.108736,0.052704,0.206912,10.64,9.77375,-6.965,23.736002,22.496,16.824001,eccentric,3,3.0,43812.0,222988.0,99453.0,227162.0,111718.0
2026-04-14 17:26:14.232399,290546,1609505067945909,2667915960,-1.108736,0.052704,0.206912,15.05,8.6975,-6.8425,23.736002,22.496,16.824001,eccentric,3,3.0,43812.0,222988.0,99453.0,227162.0,111718.0
2026-04-14 17:26:14.239781,290547,1609505067954936,2667924658,-1.100928,0.056608,0.269376,12.6,7.14875,-6.2475,23.352001,22.496,15.944001,eccentric,3,3.0,43812.0,222988.0,99453.0,227162.0,111718.0
2026-04-14 17:26:14.255317,290548,1609505067969401,2667939549,-1.100928,0.056608,0.269376,6.1775,5.6175,-4.76,23.352001,22.496,15.944001,eccentric,3,3.0,43812.0,222988.0,99453.0,227162.0,111718.0
2026-04-14 17:26:14.262304,290549,1609505067978315,2667948222,-1.079456,0.023424,0.269376,0.95375,5.04875,-2.82625,24.000002,22.456001,16.240002,eccentric,3,3.0,43812.0,222988.0,99453.0,227162.0,111718.0
2026-04-14 17:26:14.295536,290560,1609505067987728,2667956948,-1.079456,0.023424,0.269376,-2.12625,5.17125,-2.905,24.000002,22.456001,16.240002,eccentric,3,3.0,41760.0,221194.0,95572.0,225003.0,107696.0
2026-04-14 17:26:14.297393,290561,1609505068002261,2667971900,-1.116544,0.040992,0.076128,2.555,5.39,-4.40125,24.472002,22.184002,16.144001,eccentric,3,3.0,41760.0,221194.0,95572.0,225003.0,107696.0
2026-04-14 17:26:14.300440,290562,1609505068011232,2667980639,-1.116544,0.05856,0.163968,9.485,5.03125,-5.1975,24.472002,22.184002,16.144001,eccentric,3,3.0,41760.0,221194.0,95572.0,225003.0,107696.0
2026-04-14 17:26:14.310422,290563,1609505068025758,2667995528,-1.01504,0.05856,0.163968,11.19125,4.06,-6.0025,24.472002,22.168001,18.52,eccentric,3,3.0,41760.0,221194.0,95572.0,225003.0,107696.0
2026-04-14 17:26:14.319251,290564,1609505068034679,2668004197,-1.128256,0.083936,0.142496,8.28625,2.905,-7.23625,24.456001,21.944,16.368,eccentric,3,3.0,41760.0,221194.0,95572.0,225003.0,107696.0
2026-04-14 17:26:14.332494,290565,1609505068049120,2668019030,-1.128256,0.083936,0.142496,5.495,1.225,-7.81375,24.456001,21.944,16.368,eccentric,3,3.0,41760.0,221194.0,95572.0,225003.0,107696.0
2026-04-14 17:26:14.344078,290566,1609505068058128,2668027722,-1.08336,0.05856,0.21472,4.48875,-0.06125,-8.015,23.52,21.936,16.272001,eccentric,3,3.0,41760.0,221194.0,95572.0,225003.0,107696.0
2026-04-14 17:26:14.351645,290567,1609505068067039,2668036417,-1.08336,0.05856,0.21472,5.635,-0.37625,-8.085,23.52,21.936,16.272001,eccentric,3,3.0,41760.0,221194.0,95572.0,225003.0,107696.0
2026-04-14 17:26:14.366654,290568,1609505068081509,2668051291,-1.020896,0.054656,0.238144,8.04125,-0.13125,-7.60375,24.272001,22.2,16.704,eccentric,3,3.0,41760.0,221194.0,95572.0,225003.0,107696.0
2026-04-14 17:26:14.398905,290579,1609505068090546,2668060108,-1.020896,0.054656,0.238144,8.8725,0.14,-6.8425,24.272001,22.2,16.704,eccentric,3,3.0,42066.0,221367.0,96017.0,225240.0,108269.0
2026-04-14 17:26:14.401697,290580,1609505068105111,2668075013,-1.089216,0.076128,0.111264,7.7,0.9625,-6.3,23.424002,22.128,17.512001,eccentric,3,3.0,42066.0,221367.0,96017.0,225240.0,108269.0
2026-04-14 17:26:14.404200,290581,1609505068114018,2668083693,-1.059936,0.031232,-0.00976,6.60625,2.58125,-5.705,23.496,22.192001,18.664001,eccentric,3,3.0,42066.0,221367.0,96017.0,225240.0,108269.0
2026-04-14 17:26:14.415607,290582,1609505068128492,2668098642,-1.059936,0.031232,-0.00976,5.67,3.955,-5.74875,23.496,22.192001,18.664001,eccentric,3,3.0,42066.0,221367.0,96017.0,225240.0,108269.0
2026-04-14 17:26:14.421504,290583,1609505068137391,2668107340,-1.069696,0.076128,0.121024,4.7075,4.2875,-5.8275,23.408,22.464,17.728,eccentric,3,3.0,42066.0,221367.0,96017.0,225240.0,108269.0
2026-04-14 17:26:14.429824,290584,1609505068146377,2668115998,-1.069696,0.076128,0.121024,4.76,5.95,-5.7225,23.408,22.464,17.728,eccentric,3,3.0,42066.0,221367.0,96017.0,225240.0,108269.0
2026-04-14 17:26:14.446113,290585,1609505068160878,2668130897,-1.067744,0.070272,-0.035136,4.78625,6.3,-6.67625,23.552002,21.84,17.592001,eccentric,3,3.0,42066.0,221367.0,96017.0,225240.0,108269.0
2026-04-14 17:26:14.475841,290586,1609505068169793,2668139608,-1.067744,0.070272,-0.035136,5.57375,6.9825,-7.49875,23.552002,21.84,17.592001,eccentric,3,3.0,42066.0,221367.0,96017.0,225240.0,108269.0
2026-04-14 17:26:14.477959,290587,1609505068184288,2668154507,-1.00528,0.023424,-0.005856,3.96375,7.5425,-8.54875,24.224,21.536001,16.368,eccentric,3,3.0,42066.0,221367.0,96017.0,225240.0,108269.0
2026-04-14 17:26:14.555432,290598,1609505068193245,2668163260,-0.98576,0.02928,0.218624,-0.07875,8.645,-9.30125,23.608002,21.936,17.824001,eccentric,3,3.0,43068.0,222021.0,97653.0,226044.0,110150.0
2026-04-14 17:26:14.557946,290599,1609505068207705,2668176144,-0.98576,0.02928,0.218624,-0.315,10.167501,-8.96875,23.608002,21.936,17.824001,eccentric,3,3.0,43068.0,222021.0,97653.0,226044.0,110150.0
2026-04-14 17:26:14.560481,290600,1609505068216926,2668186882,-0.991616,0.054656,0.177632,3.07125,11.48875,-8.53125,23.808,22.392,18.168001,eccentric,3,3.0,43068.0,222021.0,97653.0,226044.0,110150.0
2026-04-14 17:26:14.562564,290601,1609505068225855,2668195539,-0.991616,0.054656,0.177632,4.5675,12.38125,-9.49375,23.808,22.392,18.168001,eccentric,3,3.0,43068.0,222021.0,97653.0,226044.0,110150.0
2026-04-14 17:26:14.564981,290602,1609505068240307,2668210405,-1.057984,0.040992,-0.015616,3.2725,13.46625,-9.24875,22.952002,22.52,18.824001,eccentric,3,3.0,43068.0,222021.0,97653.0,226044.0,110150.0
2026-04-14 17:26:14.567500,290603,1609505068249215,2668219088,-1.057984,0.040992,-0.015616,2.52875,14.4725,-9.87875,22.952002,22.52,18.824001,eccentric,3,3.0,43068.0,222021.0,97653.0,226044.0,110150.0
2026-04-14 17:26:14.570413,290604,1609505068263711,2668234000,-1.061888,0.064416,-0.021472,3.17625,14.77,-11.4625,22.952002,22.256,17.232,eccentric,3,3.0,43068.0,222021.0,97653.0,226044.0,110150.0
2026-04-14 17:26:14.572464,290605,1609505068272693,2668242763,-1.061888,0.064416,-0.01952,5.5125,14.455,-12.32875,22.952002,22.256,17.232,eccentric,3,3.0,43068.0,222021.0,97653.0,226044.0,110150.0
2026-04-14 17:26:14.575413,290606,1609505068281683,2668251476,-0.981856,0.011712,-0.01952,5.4775,15.1375,-12.81875,23.864,22.240002,17.904001,eccentric,3,3.0,43068.0,222021.0,97653.0,226044.0,110150.0
2026-04-14 17:26:14.608179,290617,1609505068296575,2668266493,-1.06384,0.056608,0.02928,3.7625,15.785,-14.41125,23.840002,22.456001,17.152,eccentric,3,3.0,42352.0,218619.0,96529.0,223269.0,108744.0
2026-04-14 17:26:14.608322,290618,1609505068305664,2668275397,-1.06384,0.056608,0.02928,2.68625,16.56375,-15.37375,23.840002,22.456001,17.152,eccentric,3,3.0,42352.0,218619.0,96529.0,223269.0,108744.0
2026-04-14 17:26:14.609996,290619,1609505068320127,2668290295,-0.981856,0.0,0.083936,0.53375,17.12375,-16.03875,23.784,22.2,16.992,eccentric,3,3.0,42352.0,218619.0,96529.0,223269.0,108744.0
2026-04-14 17:26:14.613663,290620,1609505068329112,2668298987,-0.981856,0.0,0.083936,-3.0975,17.56125,-16.09125,23.784,22.2,16.992,eccentric,3,3.0,42352.0,218619.0,96529.0,223269.0,108744.0
2026-04-14 17:26:14.628822,290621,1609505068343661,2668313860,-1.110688,0.02928,0.017568,-5.03125,17.99,-15.81125,24.264002,22.128,16.240002,eccentric,3,3.0,42352.0,218619.0,96529.0,223269.0,108744.0
2026-04-14 17:26:14.636607,290622,1609505068352665,2668322596,-1.110688,0.02928,0.017568,-5.06625,18.1825,-15.72375,24.264002,22.128,16.240002,eccentric,3,3.0,42352.0,218619.0,96529.0,223269.0,108744.0
2026-04-14 17:26:14.646206,290623,1609505068361654,2668331301,-1.098976,0.021472,-0.015616,-4.5325,18.48,-15.5225,24.528002,22.248001,16.552,eccentric,3,3.0,42352.0,218619.0,96529.0,223269.0,108744.0
2026-04-14 17:26:14.662502,290624,1609505068376140,2668346169,-1.040416,-0.005856,-0.080032,-3.5175,19.32875,-14.84875,24.952002,21.960001,15.664001,eccentric,3,3.0,42352.0,218619.0,96529.0,223269.0,108744.0
2026-04-14 17:26:14.670446,290625,1609505068385071,2668354838,-1.040416,-0.005856,-0.080032,-3.77125,20.72,-15.505,24.952002,21.960001,15.664001,eccentric,3,3.0,42352.0,218619.0,96529.0,223269.0,108744.0
2026-04-14 17:26:14.699951,290636,1609505068399601,2668369798,-0.970144,-0.027328,0.01952,-4.4625,21.28875,-16.1525,25.44,22.392,15.800001,eccentric,3,3.0,41249.0,215468.0,94675.0,220878.0,106774.0
2026-04-14 17:26:14.702389,290637,1609505068408547,2668378578,-0.970144,-0.027328,0.01952,-6.23875,20.772501,-16.24875,25.44,22.392,15.800001,eccentric,3,3.0,41249.0,215468.0,94675.0,220878.0,106774.0
2026-04-14 17:26:14.711088,290638,1609505068417449,2668387253,-1.007232,-0.025376,0.060512,-7.32375,19.2325,-15.5225,25.104002,22.52,15.760001,eccentric,3,3.0,41249.0,215468.0,94675.0,220878.0,106774.0
2026-04-14 17:26:14.717783,290639,1609505068431955,2668402155,-1.007232,-0.025376,0.060512,-8.8375,18.71625,-14.7,25.104002,22.52,15.760001,eccentric,3,3.0,41249.0,215468.0,94675.0,220878.0,106774.0
2026-04-14 17:26:14.727802,290640,1609505068440887,2668410819,-1.061888,-0.011712,-0.037088,-10.6225,18.90875,-13.448751,24.504002,22.472,15.112,eccentric,3,3.0,41249.0,215468.0,94675.0,220878.0,106774.0
2026-04-14 17:26:14.740428,290641,1609505068455421,2668425770,-0.997472,-0.05856,-0.062464,-11.7075,20.01125,-12.81,25.472002,22.872002,15.000001,eccentric,3,3.0,41249.0,215468.0,94675.0,220878.0,106774.0
2026-04-14 17:26:14.748755,290642,1609505068464353,2668434470,-0.997472,-0.05856,-0.062464,-12.25875,20.8075,-12.6525,25.472002,22.872002,15.000001,eccentric,3,3.0,41249.0,215468.0,94675.0,220878.0,106774.0
2026-04-14 17:26:14.763709,290643,1609505068478815,2668447343,-0.925248,-0.025376,0.083936,-12.36375,20.2475,-12.39,25.416,23.016,15.336,eccentric,3,3.0,41249.0,215468.0,94675.0,220878.0,106774.0
2026-04-14 17:26:14.799135,290654,1609505068488608,2668458157,-0.925248,-0.025376,0.083936,-8.61875,19.62625,-11.165,25.416,23.016,15.336,eccentric,3,3.0,41887.0,216281.0,95961.0,221789.0,108129.0
2026-04-14 17:26:14.799398,290655,1609505068497670,2668466880,-0.954528,-0.003904,0.109312,-6.55375,18.375,-11.12125,24.592001,23.12,15.968,eccentric,3,3.0,41887.0,216281.0,95961.0,221789.0,108129.0
2026-04-14 17:26:14.806422,290656,1609505068512188,2668481816,-0.954528,-0.003904,0.109312,-8.5925,17.115,-11.03375,24.592001,23.12,15.968,eccentric,3,3.0,41887.0,216281.0,95961.0,221789.0,108129.0
2026-04-14 17:26:14.806503,290657,1609505068521132,2668490519,-0.964288,-0.040992,0.16592,-13.09,17.01875,-10.29875,24.968,23.544,15.848001,eccentric,3,3.0,41887.0,216281.0,95961.0,221789.0,108129.0
2026-04-14 17:26:14.841336,290658,1609505068535637,2668505333,-0.987712,-0.066368,0.017568,-15.67125,17.36875,-10.10625,24.752,23.496,14.448001,eccentric,3,3.0,41887.0,216281.0,95961.0,221789.0,108129.0
2026-04-14 17:26:14.866405,290659,1609505068544546,2668514014,-0.987712,-0.066368,0.017568,-15.645,19.48625,-10.61375,24.752,23.496,14.448001,eccentric,3,3.0,41887.0,216281.0,95961.0,221789.0,108129.0
2026-04-14 17:26:14.888926,290660,1609505068553498,2668522698,-0.987712,-0.066368,0.017568,-14.20125,21.875,-11.68125,24.752,23.496,14.448001,eccentric,3,3.0,41887.0,216281.0,95961.0,221789.0,108129.0
2026-04-14 17:26:14.891459,290661,1609505068567982,2668537562,-1.052128,0.02928,-0.042944,-10.36,22.54,-12.985,26.160002,23.176,14.912001,eccentric,3,3.0,41887.0,216281.0,95961.0,221789.0,108129.0
2026-04-14 17:26:14.895368,290662,1609505068576891,2668546263,-0.968192,-0.044896,-0.052704,-9.695,22.16375,-14.9275,26.12,23.52,12.768001,eccentric,3,3.0,41887.0,216281.0,95961.0,221789.0,108129.0
2026-04-14 17:26:14.923943,290673,1609505068591939,2668561688,-0.968192,-0.044896,-0.052704,-14.28,21.98875,-17.15875,26.12,23.52,12.768001,eccentric,3,3.0,42661.0,223978.0,96885.0,228604.0,109353.0
2026-04-14 17:26:14.926602,290674,1609505068600926,2668570428,-0.970144,-0.081984,0.128832,-21.4725,22.505,-19.2325,26.240002,23.296001,14.264001,eccentric,3,3.0,42661.0,223978.0,96885.0,228604.0,109353.0
2026-04-14 17:26:14.928409,290675,1609505068609883,2668579066,-0.970144,-0.081984,0.128832,-24.85,22.3825,-18.68125,26.240002,23.296001,14.264001,eccentric,3,3.0,42661.0,223978.0,96885.0,228604.0,109353.0
2026-04-14 17:26:14.931164,290676,1609505068624410,2668593946,-1.067744,-0.0976,-0.160064,-23.415,23.10875,-17.57875,26.12,23.768002,14.072001,eccentric,3,3.0,42661.0,223978.0,96885.0,228604.0,109353.0
2026-04-14 17:26:14.933742,290677,1609505068633409,2668602601,-1.067744,-0.0976,-0.160064,-14.735,23.19625,-16.82625,26.12,23.768002,14.072001,eccentric,3,3.0,42661.0,223978.0,96885.0,228604.0,109353.0
2026-04-14 17:26:14.936299,290678,1609505068647896,2668617521,-0.974048,-0.05856,0.007808,-6.88625,23.47625,-15.846251,26.368002,23.824001,11.904,eccentric,3,3.0,42661.0,223978.0,96885.0,228604.0,109353.0
2026-04-14 17:26:14.941264,290679,1609505068656832,2668626201,-0.93696,-0.085888,-0.074176,-5.7575,23.98375,-15.33875,26.104002,23.904001,15.472001,eccentric,3,3.0,42661.0,223978.0,96885.0,228604.0,109353.0
2026-04-14 17:26:14.957496,290680,1609505068671297,2668641061,-0.93696,-0.085888,-0.074176,-9.345,23.49375,-14.9275,26.104002,23.904001,15.472001,eccentric,3,3.0,42661.0,223978.0,96885.0,228604.0,109353.0
2026-04-14 17:26:14.963819,290681,1609505068680212,2668649816,-1.098976,-0.060512,0.00976,-13.13375,23.26625,-14.60375,25.944002,23.800001,13.960001,eccentric,3,3.0,42661.0,223978.0,96885.0,228604.0,109353.0
2026-04-14 17:26:14.998816,290692,1609505068689134,2668658477,-1.098976,-0.060512,0.00976,-14.18375,21.67375,-13.72875,25.944002,23.800001,13.960001,eccentric,3,3.0,46570.0,234977.0,103300.0,238106.0,116382.0
2026-04-14 17:26:15.001072,290693,1609505068704220,2668673397,-1.104832,0.011712,0.003904,-11.89125,21.0,-12.52125,25.024002,24.232,14.824,eccentric,3,3.0,46570.0,234977.0,103300.0,238106.0,116382.0
2026-04-14 17:26:15.004178,290694,1609505068713139,2668682081,-1.104832,0.011712,0.003904,-11.80375,19.87125,-11.8825,25.024002,24.232,14.824,eccentric,3,3.0,46570.0,234977.0,103300.0,238106.0,116382.0
2026-04-14 17:26:15.013702,290695,1609505068727655,2668697049,-1.04432,-0.027328,-0.021472,-15.435,18.71625,-12.17125,24.992,24.784,15.056001,eccentric,3,3.0,46570.0,234977.0,103300.0,238106.0,116382.0
2026-04-14 17:26:15.019988,290696,1609505068736553,2668705751,-1.071648,-0.122976,-0.119072,-18.90875,17.9375,-11.15625,24.848001,24.896002,13.616,eccentric,3,3.0,46570.0,234977.0,103300.0,238106.0,116382.0
2026-04-14 17:26:15.036345,290697,1609505068751000,2668720642,-1.071648,-0.122976,-0.119072,-21.93625,18.13,-10.21125,24.848001,24.896002,13.616,eccentric,3,3.0,46570.0,234977.0,103300.0,238106.0,116382.0
2026-04-14 17:26:15.043888,290698,1609505068759919,2668729320,-1.100928,-0.07808,-0.169824,-19.32875,19.145,-9.17,25.552002,23.800001,13.688001,eccentric,3,3.0,46570.0,234977.0,103300.0,238106.0,116382.0
2026-04-14 17:26:15.053910,290699,1609505068768826,2668737980,-1.100928,-0.07808,-0.169824,-13.230001,18.803751,-7.735,25.552002,23.800001,13.688001,eccentric,3,3.0,46570.0,234977.0,103300.0,238106.0,116382.0
2026-04-14 17:26:15.066432,290700,1609505068783330,2668752908,-0.99552,-0.031232,-0.042944,-7.8925,17.43,-7.1225,24.160002,24.640001,14.480001,eccentric,3,3.0,46570.0,234977.0,103300.0,238106.0,116382.0
2026-04-14 17:26:15.097500,290711,1609505068792448,2668761669,-0.99552,-0.031232,-0.042944,-8.12875,15.8725,-6.8425,24.160002,24.640001,14.480001,eccentric,3,3.0,47778.0,238391.0,105238.0,240893.0,118446.0
2026-04-14 17:26:15.099982,290712,1609505068807004,2668776643,-1.032608,-0.060512,-0.144448,-11.3925,14.13125,-6.95625,24.400002,24.008001,13.552001,eccentric,3,3.0,47778.0,238391.0,105238.0,240893.0,118446.0
2026-04-14 17:26:15.102453,290713,1609505068815925,2668785373,-1.032608,-0.060512,-0.081984,-12.53,13.16875,-6.97375,24.400002,24.008001,13.552001,eccentric,3,3.0,47778.0,238391.0,105238.0,240893.0,118446.0
2026-04-14 17:26:15.130153,290714,1609505068830435,2668800278,-1.100928,-0.044896,-0.083936,-11.19125,13.5275,-7.56875,24.352001,24.088001,11.296001,eccentric,3,3.0,47778.0,238391.0,105238.0,240893.0,118446.0
2026-04-14 17:26:15.137650,290715,1609505068839295,2668808939,-1.114592,-0.005856,-0.031232,-9.0125,14.51625,-9.1,23.032001,23.472002,12.960001,eccentric,3,3.0,47778.0,238391.0,105238.0,240893.0,118446.0
2026-04-14 17:26:15.140126,290716,1609505068848211,2668817626,-1.114592,-0.005856,-0.031232,-7.67375,15.5225,-10.1325,23.032001,23.472002,12.960001,eccentric,3,3.0,47778.0,238391.0,105238.0,240893.0,118446.0
2026-04-14 17:26:15.147700,290717,1609505068862715,2668832548,-1.048224,-0.08784,-0.238144,-10.91125,15.05875,-10.815,23.192001,23.728,12.672001,eccentric,3,3.0,47778.0,238391.0,105238.0,240893.0,118446.0
2026-04-14 17:26:15.156363,290718,1609505068871664,2668841265,-1.048224,-0.08784,-0.238144,-16.38,12.73125,-10.395,23.192001,23.728,12.672001,eccentric,3,3.0,47778.0,238391.0,105238.0,240893.0,118446.0
2026-04-14 17:26:15.173392,290719,1609505068886166,2668856145,-0.977952,-0.111264,-0.054656,-17.50875,10.2375,-9.511251,22.496,23.632002,12.056001,eccentric,3,3.0,47778.0,238391.0,105238.0,240893.0,118446.0
2026-04-14 17:26:15.248900,290730,1609505068895222,2668865356,-0.977952,-0.111264,-0.054656,-15.417501,9.09125,-7.84,22.496,23.632002,12.056001,eccentric,3,3.0,45980.0,239146.0,101915.0,240571.0,114892.0
2026-04-14 17:26:15.251418,290731,1609505068904253,2668874193,-1.038464,-0.11712,-0.124928,-13.13375,9.1,-5.81875,21.456001,23.400002,13.368001,eccentric,3,3.0,45980.0,239146.0,101915.0,240571.0,114892.0
2026-04-14 17:26:15.253939,290732,1609505068918733,2668887075,-1.052128,-0.035136,-0.017568,-8.4,10.05375,-4.165,21.080002,23.248001,12.304001,eccentric,3,3.0,45980.0,239146.0,101915.0,240571.0,114892.0
2026-04-14 17:26:15.256373,290733,1609505068927804,2668897805,-1.052128,-0.035136,-0.017568,-3.2375,10.35125,-2.93125,21.080002,23.248001,12.304001,eccentric,3,3.0,45980.0,239146.0,101915.0,240571.0,114892.0
2026-04-14 17:26:15.258946,290734,1609505068942248,2668910635,-0.989664,-0.040992,-0.011712,-3.255,9.66875,-2.91375,21.024,23.056002,10.208,eccentric,3,3.0,45980.0,239146.0,101915.0,240571.0,114892.0
2026-04-14 17:26:15.261417,290735,1609505068951465,2668921346,-0.989664,-0.040992,-0.011712,-5.34625,8.435,-2.59875,21.024,23.056002,10.208,eccentric,3,3.0,45980.0,239146.0,101915.0,240571.0,114892.0
2026-04-14 17:26:15.267058,290736,1609505068966026,2668936242,-0.970144,0.0,0.050752,-4.71625,7.5775,-2.1875,21.336,22.184002,9.52,eccentric,3,3.0,45980.0,239146.0,101915.0,240571.0,114892.0
2026-04-14 17:26:15.267474,290737,1609505068975001,2668945006,-0.970144,0.0,0.050752,-5.83625,6.88625,-2.61625,21.336,22.184002,9.52,eccentric,3,3.0,45980.0,239146.0,101915.0,240571.0,114892.0
2026-04-14 17:26:15.268622,290738,1609505068983943,2668953698,-1.036512,-0.03904,-0.173728,-9.6425,6.825,-4.13,21.640001,22.28,8.256001,eccentric,3,3.0,45980.0,239146.0,101915.0,240571.0,114892.0
2026-04-14 17:26:15.298902,290749,1609505068998473,2668968621,-0.915488,-0.121024,-0.025376,-13.230001,7.16625,-4.41875,21.872002,22.672,5.744,eccentric,3,3.0,48828.0,245803.0,106726.0,245702.0,120086.0
2026-04-14 17:26:15.301410,290750,1609505069007389,2668977358,-0.915488,-0.121024,-0.025376,-16.75625,6.81625,-4.08625,21.872002,22.672,5.744,eccentric,3,3.0,48828.0,245803.0,106726.0,245702.0,120086.0
2026-04-14 17:26:15.307969,290751,1609505069021909,2668992284,-0.935008,-0.142496,-0.0976,-14.945,5.85375,-2.5375,22.392,22.400002,6.984,eccentric,3,3.0,48828.0,245803.0,106726.0,245702.0,120086.0
2026-04-14 17:26:15.317989,290752,1609505069030822,2669000977,-0.935008,-0.142496,-0.0976,-7.16625,4.8825,-0.14,22.392,22.400002,6.984,eccentric,3,3.0,48828.0,245803.0,106726.0,245702.0,120086.0
2026-04-14 17:26:15.328929,290753,1609505069045388,2669013828,-0.942816,0.037088,0.035136,-0.07875,4.89125,0.60375,22.384,22.112001,6.096,eccentric,3,3.0,48828.0,245803.0,106726.0,245702.0,120086.0
2026-04-14 17:26:15.339212,290754,1609505069054753,2669024581,-0.942816,0.037088,0.035136,1.54875,7.56,0.2275,22.384,22.112001,6.096,eccentric,3,3.0,48828.0,245803.0,106726.0,245702.0,120086.0
2026-04-14 17:26:15.347981,290755,1609505069063708,2669033264,-1.011136,0.050752,0.03904,-7.35875,9.52,-1.86375,24.072,22.096,5.352,eccentric,3,3.0,48828.0,245803.0,106726.0,245702.0,120086.0
2026-04-14 17:26:15.363858,290756,1609505069078185,2669048128,-1.067744,-0.128832,-0.267424,-22.4175,10.71,-4.5325,24.072,24.144001,2.896,eccentric,3,3.0,48828.0,245803.0,106726.0,245702.0,120086.0
2026-04-14 17:26:15.372206,290757,1609505069087100,2669056817,-1.067744,-0.128832,-0.267424,-33.81875,10.5875,-4.9175,25.208002,22.784,2.896,eccentric,3,3.0,48828.0,245803.0,106726.0,245702.0,120086.0
2026-04-14 17:26:15.399208,290768,1609505069101721,2669071896,-1.104832,-0.162016,-0.355264,-32.22625,8.95125,-5.1275,26.072,23.232,5.696,eccentric,3,3.0,50879.0,254601.0,109598.0,251628.0,123161.0
2026-04-14 17:26:15.401259,290769,1609505069110709,2669080586,-1.104832,-0.162016,-0.355264,-18.10375,7.09625,-6.44875,26.072,23.232,5.696,eccentric,3,3.0,50879.0,254601.0,109598.0,251628.0,123161.0
2026-04-14 17:26:15.404209,290770,1609505069119639,2669089259,-1.057984,0.06832,-0.11712,3.4125,3.7625,-6.97375,26.088001,24.064001,5.792,eccentric,3,3.0,50879.0,254601.0,109598.0,251628.0,123161.0
2026-04-14 17:26:15.419261,290771,1609505069134116,2669104137,-1.057984,0.06832,-0.11712,16.23125,1.93375,-8.085,26.088001,24.064001,5.792,eccentric,3,3.0,50879.0,254601.0,109598.0,251628.0,123161.0
2026-04-14 17:26:15.427975,290772,1609505069143038,2669112818,-1.09312,-0.040992,-0.154208,5.46875,-1.1025,-10.605001,26.688002,23.944,5.232,eccentric,3,3.0,50879.0,254601.0,109598.0,251628.0,123161.0
2026-04-14 17:26:15.442941,290773,1609505069157517,2669127688,-1.09312,-0.040992,-0.154208,-12.25875,-2.7475,-7.77875,26.688002,23.944,5.232,eccentric,3,3.0,50879.0,254601.0,109598.0,251628.0,123161.0
2026-04-14 17:26:15.450269,290774,1609505069166440,2669136409,-0.991616,-0.144448,0.035136,-18.50625,-1.75875,-4.64625,28.376001,24.304,5.192,eccentric,3,3.0,50879.0,254601.0,109598.0,251628.0,123161.0
2026-04-14 17:26:15.465403,290775,1609505069180896,2669149249,-1.011136,-0.142496,-0.236192,-12.38125,-0.1575,-6.48375,28.584002,24.984001,6.520001,eccentric,3,3.0,50879.0,254601.0,109598.0,251628.0,123161.0
2026-04-14 17:26:15.476570,290776,1609505069190034,2669159993,-1.011136,-0.142496,-0.236192,-0.23625,0.67375,-6.93,28.584002,24.984001,6.520001,eccentric,3,3.0,50879.0,254601.0,109598.0,251628.0,123161.0
2026-04-14 17:26:15.504238,290787,1609505069198969,2669168789,-1.022848,-0.03904,-0.052704,8.86375,0.83125,-4.375,28.584002,24.984001,6.888001,eccentric,3,3.0,55975.0,264928.0,117668.0,259050.0,131386.0
2026-04-14 17:26:15.506720,290788,1609505069213534,2669183717,-1.022848,-0.03904,-0.052704,6.37875,-0.20125,-2.40625,27.888,25.872002,6.888001,eccentric,3,3.0,55975.0,264928.0,117668.0,259050.0,131386.0
2026-04-14 17:26:15.509004,290789,1609505069222474,2669192389,-0.98576,-0.050752,-0.007808,0.56875,1.015,-1.96,27.6,26.032001,9.048,eccentric,3,3.0,55975.0,264928.0,117668.0,259050.0,131386.0
2026-04-14 17:26:15.521714,290790,1609505069236949,2669207287,-0.98576,-0.050752,-0.007808,-5.17125,3.28125,-3.54375,27.6,26.032001,9.048,eccentric,3,3.0,55975.0,264928.0,117668.0,259050.0,131386.0
2026-04-14 17:26:15.531345,290791,1609505069245889,2669215973,-1.069696,-0.085888,-0.349408,-9.10875,4.4975,-4.08625,29.44,25.576002,5.592001,eccentric,3,3.0,55975.0,264928.0,117668.0,259050.0,131386.0
2026-04-14 17:26:15.544237,290792,1609505069260386,2669228800,-1.026752,-0.11712,-0.148352,-7.46375,2.70375,-4.5325,29.472002,26.456001,7.968,eccentric,3,3.0,55975.0,264928.0,117668.0,259050.0,131386.0
2026-04-14 17:26:15.577448,290793,1609505069269599,2669239529,-1.026752,-0.11712,-0.148352,-6.1425,0.2975,-5.92375,29.472002,26.456001,7.968,eccentric,3,3.0,55975.0,264928.0,117668.0,259050.0,131386.0
2026-04-14 17:26:15.580046,290794,1609505069278500,2669248193,-1.026752,-0.11712,-0.148352,-7.63875,-0.46375,-4.69875,29.472002,26.456001,7.968,eccentric,3,3.0,55975.0,264928.0,117668.0,259050.0,131386.0
2026-04-14 17:26:15.665026,290805,1609505069293155,2669263531,-1.030656,-0.07808,0.037088,-8.417501,0.90125,-4.025,29.600002,26.272001,8.400001,eccentric,3,3.0,55051.0,266943.0,115740.0,259141.0,129377.0
2026-04-14 17:26:15.667920,290806,1609505069302185,2669272257,-1.130208,-0.066368,-0.00976,-6.8075,4.375,-4.22625,29.288002,26.448002,9.160001,eccentric,3,3.0,55051.0,266943.0,115740.0,259141.0,129377.0
2026-04-14 17:26:15.669951,290807,1609505069316650,2669285074,-1.130208,-0.066368,-0.00976,-5.24125,7.42875,-3.64,29.288002,26.448002,9.160001,eccentric,3,3.0,55051.0,266943.0,115740.0,259141.0,129377.0
2026-04-14 17:26:15.672923,290808,1609505069325983,2669295851,-1.139968,-0.124928,-0.298656,-5.775,8.61,-3.395,29.016,26.728,9.552,eccentric,3,3.0,55051.0,266943.0,115740.0,259141.0,129377.0
2026-04-14 17:26:15.675258,290809,1609505069334927,2669304538,-1.139968,-0.124928,-0.298656,-11.7775,7.84875,-2.75625,29.016,26.728,9.552,eccentric,3,3.0,55051.0,266943.0,115740.0,259141.0,129377.0
2026-04-14 17:26:15.678062,290810,1609505069349392,2669319427,-1.065792,-0.109312,-0.11712,-16.6775,5.32,1.0675,28.968002,27.072,9.8,eccentric,3,3.0,55051.0,266943.0,115740.0,259141.0,129377.0
