pc_time,serial_num,sensor_ts,host_ts,ax,ay,az,gx,gy,gz,mx,my,mz,phase,rpe,weight_kg,ppg_a,ppg_b,ppg_c,ppg_d,ppg_e
2026-04-14 17:26:19.251506,291489,1609505072949239,2672919223,-0.925248,-0.138592,-0.031232,-14.0875,-5.1625,-7.385,28.352001,24.720001,6.576,concentric,3,3.0,51653.0,251559.0,111083.0,249191.0,124697.0
2026-04-14 17:26:19.253617,291490,1609505072958136,2672927885,-0.925248,-0.138592,-0.031232,-9.03,-3.395,-6.90375,28.352001,24.720001,6.576,concentric,3,3.0,51653.0,251559.0,111083.0,249191.0,124697.0
2026-04-14 17:26:19.281238,291491,1609505072972577,2672942730,-1.032608,-0.003904,-0.021472,4.36625,-0.81375,-7.0525,29.400002,24.456001,5.432,concentric,3,3.0,51653.0,251559.0,111083.0,249191.0,124697.0
2026-04-14 17:26:19.291305,291492,1609505072981518,2672951412,-1.032608,-0.003904,-0.021472,16.1175,0.67375,-9.45,29.400002,24.456001,5.432,concentric,3,3.0,51653.0,251559.0,111083.0,249191.0,124697.0
2026-04-14 17:26:19.293761,291493,1609505072995936,2672966270,-1.016992,0.074176,-0.154208,17.85,0.7,-10.43,29.392002,24.52,6.448,concentric,3,3.0,51653.0,251559.0,111083.0,249191.0,124697.0
2026-04-14 17:26:19.296188,291494,1609505073004863,2672974959,-1.067744,0.003904,-0.183488,6.60625,-1.5575,-10.40375,29.912,24.984001,6.32,concentric,3,3.0,51653.0,251559.0,111083.0,249191.0,124697.0
2026-04-14 17:26:19.323896,291505,1609505073013808,2672984055,-1.067744,0.003904,-0.183488,-8.417501,-4.68125,-10.85,29.912,24.984001,6.32,concentric,3,3.0,53297.0,254959.0,113660.0,251905.0,127306.0
2026-04-14 17:26:19.328646,291506,1609505073028613,2672997000,-1.052128,-0.111264,-0.062464,-18.8125,-5.95875,-11.7075,29.920002,25.504002,7.016,concentric,3,3.0,53297.0,254959.0,113660.0,251905.0,127306.0
2026-04-14 17:26:19.329194,291507,1609505073037938,2673007835,-1.052128,-0.111264,-0.062464,-17.50875,-4.40125,-11.83875,29.920002,25.504002,7.016,concentric,3,3.0,53297.0,254959.0,113660.0,251905.0,127306.0
2026-04-14 17:26:19.338630,291508,1609505073052520,2673022739,-1.143872,-0.044896,-0.203008,-3.38625,-0.035,-12.22375,30.104002,25.688002,8.344001,concentric,3,3.0,53297.0,254959.0,113660.0,251905.0,127306.0
2026-04-14 17:26:19.347792,291509,1609505073061425,2673031406,-1.143872,-0.044896,-0.203008,11.31375,4.6375,-15.190001,30.104002,25.688002,8.344001,concentric,3,3.0,53297.0,254959.0,113660.0,251905.0,127306.0
2026-04-14 17:26:19.354081,291510,1609505073070478,2673040143,-1.03456,-0.027328,-0.124928,16.397501,6.2825,-15.65375,30.04,25.896002,8.256001,concentric,3,3.0,53297.0,254959.0,113660.0,251905.0,127306.0
2026-04-14 17:26:19.370372,291511,1609505073084982,2673055021,-1.179008,-0.015616,-0.103456,12.99375,4.89125,-13.09,29.136002,25.720001,8.120001,concentric,3,3.0,53297.0,254959.0,113660.0,251905.0,127306.0
2026-04-14 17:26:19.378849,291512,1609505073093917,2673063726,-1.179008,-0.015616,-0.103456,4.55,3.63125,-12.50375,29.136002,25.720001,8.120001,concentric,3,3.0,53297.0,254959.0,113660.0,251905.0,127306.0
2026-04-14 17:26:19.394225,291513,1609505073108443,2673078594,-1.216096,0.033184,-0.18544,-2.66875,3.43875,-12.74875,29.784002,26.472002,8.728001,concentric,3,3.0,53297.0,254959.0,113660.0,251905.0,127306.0
2026-04-14 17:26:19.422356,291524,1609505073117693,2673087424,-1.216096,0.033184,-0.18544,-2.555,4.19125,-12.20625,29.784002,26.472002,8.728001,concentric,3,3.0,54113.0,257661.0,114881.0,253478.0,128523.0
2026-04-14 17:26:19.423650,291525,1609505073132190,2673102368,-1.202432,-0.132736,-0.40016,-5.18875,3.29875,-12.6,28.648,26.784,10.112,concentric,3,3.0,54113.0,257661.0,114881.0,253478.0,128523.0
2026-04-14 17:26:19.426191,291526,1609505073141111,2673111069,-1.202432,-0.132736,-0.40016,-8.5575,0.7875,-10.255,28.648,26.784,10.112,concentric,3,3.0,54113.0,257661.0,114881.0,253478.0,128523.0
2026-04-14 17:26:19.436795,291527,1609505073150056,2673119782,-1.175104,-0.128832,-0.208864,-3.77125,-1.47,-4.375,28.832,26.584002,11.400001,concentric,3,3.0,54113.0,257661.0,114881.0,253478.0,128523.0
2026-04-14 17:26:19.449085,291528,1609505073164578,2673134701,-1.204384,-0.027328,-0.25376,7.30625,-3.07125,0.105,29.976002,26.2,9.728001,concentric,3,3.0,54113.0,257661.0,114881.0,253478.0,128523.0
2026-04-14 17:26:19.461613,291529,1609505073173508,2673143365,-1.204384,-0.027328,-0.25376,16.23125,-3.8325,1.77625,29.976002,26.2,9.728001,concentric,3,3.0,54113.0,257661.0,114881.0,253478.0,128523.0
2026-04-14 17:26:19.472944,291530,1609505073187998,2673158237,-1.139968,0.111264,-0.06832,15.1725,-3.5175,2.79125,28.344002,26.352001,11.064,concentric,3,3.0,54113.0,257661.0,114881.0,253478.0,128523.0
2026-04-14 17:26:19.484203,291531,1609505073196997,2673166923,-1.139968,0.111264,-0.06832,7.9975,-2.765,-0.455,28.344002,26.352001,11.064,concentric,3,3.0,54113.0,257661.0,114881.0,253478.0,128523.0
2026-04-14 17:26:19.490433,291532,1609505073205949,2673175645,-1.108736,0.011712,0.056608,-2.42375,-1.12875,-4.03375,29.784002,26.384,9.88,concentric,3,3.0,54113.0,257661.0,114881.0,253478.0,128523.0
2026-04-14 17:26:19.524922,291543,1609505073220473,2673190644,-1.108736,0.011712,0.056608,-15.00625,0.09625,-5.67,29.784002,26.384,9.88,concentric,3,3.0,54342.0,261366.0,115107.0,255721.0,128727.0
2026-04-14 17:26:19.525058,291544,1609505073229442,2673199336,-1.159488,-0.187392,-0.296704,-20.57125,1.11125,-7.945,28.832,26.728,11.152,concentric,3,3.0,54342.0,261366.0,115107.0,255721.0,128727.0
2026-04-14 17:26:19.529924,291545,1609505073243938,2673214233,-1.159488,-0.187392,-0.220576,-12.0925,3.115,-7.9975,28.832,26.728,11.152,concentric,3,3.0,54342.0,261366.0,115107.0,255721.0,128727.0
2026-04-14 17:26:19.537539,291546,1609505073253011,2673222968,-1.085312,-0.16592,-0.220576,3.115,3.73625,-4.78625,28.784002,26.936,12.376,concentric,3,3.0,54342.0,261366.0,115107.0,255721.0,128727.0
2026-04-14 17:26:19.550355,291547,1609505073267475,2673235832,-1.145824,0.044896,-0.314272,16.94,2.8,-2.94,29.032001,26.544,11.368001,concentric,3,3.0,54342.0,261366.0,115107.0,255721.0,128727.0
2026-04-14 17:26:19.564177,291548,1609505073276696,2673246581,-1.145824,0.044896,-0.314272,22.435,2.6775,-2.19625,29.032001,26.544,11.368001,concentric,3,3.0,54342.0,261366.0,115107.0,255721.0,128727.0
2026-04-14 17:26:19.570435,291549,1609505073285611,2673255271,-1.143872,0.072224,0.08784,10.885,1.14625,-2.975,29.264002,26.416,10.6,concentric,3,3.0,54342.0,261366.0,115107.0,255721.0,128727.0
2026-04-14 17:26:19.583824,291550,1609505073300087,2673270235,-1.143872,0.072224,0.08784,-9.73875,0.49875,-3.78,29.264002,26.416,10.6,concentric,3,3.0,54342.0,261366.0,115107.0,255721.0,128727.0
2026-04-14 17:26:19.619012,291551,1609505073309032,2673278932,-1.042368,-0.189344,-0.085888,-24.33375,2.84375,-4.7425,29.696001,26.752,10.624001,concentric,3,3.0,54342.0,261366.0,115107.0,255721.0,128727.0
2026-04-14 17:26:19.714145,291562,1609505073323964,2673293959,-1.042368,-0.189344,-0.085888,-22.37375,6.36125,-7.3325,29.696001,26.752,10.624001,concentric,3,3.0,54642.0,261353.0,115410.0,255479.0,129211.0
2026-04-14 17:26:19.716184,291563,1609505073332865,2673302627,-1.18096,-0.244,-0.456768,-4.4975,8.4,-8.8375,29.592001,26.352001,10.696,concentric,3,3.0,54642.0,261353.0,115410.0,255479.0,129211.0
2026-04-14 17:26:19.719085,291564,1609505073341807,2673311305,-1.18096,-0.244,-0.456768,16.65125,7.98,-7.245,29.592001,26.352001,10.696,concentric,3,3.0,54642.0,261353.0,115410.0,255479.0,129211.0
2026-04-14 17:26:19.721168,291565,1609505073356367,2673326217,-1.065792,0.0488,-0.13664,32.76875,6.4925,-5.46875,29.760002,26.504002,11.472,concentric,3,3.0,54642.0,261353.0,115410.0,255479.0,129211.0
2026-04-14 17:26:19.724084,291566,1609505073365254,2673334967,-1.173152,0.060512,-0.206912,32.1475,5.32875,-7.28875,29.760002,28.552002,11.688001,concentric,3,3.0,54642.0,261353.0,115410.0,255479.0,129211.0
2026-04-14 17:26:19.726585,291567,1609505073379711,2673349823,-1.173152,0.060512,-0.206912,11.06,2.3975,-10.6225,29.648,26.704,11.688001,concentric,3,3.0,54642.0,261353.0,115410.0,255479.0,129211.0
2026-04-14 17:26:19.728632,291568,1609505073388625,2673358547,-1.1224,-0.197152,-0.02928,-14.175,0.91,-10.6225,29.616001,26.536001,10.848001,concentric,3,3.0,54642.0,261353.0,115410.0,255479.0,129211.0
2026-04-14 17:26:19.731071,291569,1609505073403109,2673373395,-1.1224,-0.197152,-0.02928,-27.545,2.205,-9.54625,29.616001,26.536001,10.848001,concentric,3,3.0,54642.0,261353.0,115410.0,255479.0,129211.0
2026-04-14 17:26:19.734152,291570,1609505073412050,2673382098,-1.120448,-0.249856,-0.308416,-19.66125,4.375,-8.32125,29.448002,26.688002,10.936001,concentric,3,3.0,54642.0,261353.0,115410.0,255479.0,129211.0
2026-04-14 17:26:19.763843,291581,1609505073426613,2673395008,-1.204384,-0.02928,-0.255712,4.50625,7.02625,-6.43125,29.256,26.776001,12.64,concentric,3,3.0,54215.0,259779.0,114856.0,253913.0,128681.0
2026-04-14 17:26:19.766346,291582,1609505073435797,2673405809,-1.204384,-0.02928,-0.255712,23.66875,7.77,-6.23875,29.256,26.776001,12.64,concentric,3,3.0,54215.0,259779.0,114856.0,253913.0,128681.0
2026-04-14 17:26:19.771320,291583,1609505073444736,2673414494,-1.204384,-0.02928,-0.255712,27.4925,5.5125,-4.76875,29.256,26.776001,12.64,concentric,3,3.0,54215.0,259779.0,114856.0,253913.0,128681.0
2026-04-14 17:26:19.773834,291584,1609505073459243,2673429485,-1.116544,0.081984,-0.005856,17.73625,3.64875,-3.63125,29.400002,26.240002,13.104001,concentric,3,3.0,54215.0,259779.0,114856.0,253913.0,128681.0
2026-04-14 17:26:19.776202,291585,1609505073468183,2673438190,-1.206336,-0.128832,-0.271328,0.46375,2.9225,-7.39375,28.488,27.048,12.296001,concentric,3,3.0,54215.0,259779.0,114856.0,253913.0,128681.0
2026-04-14 17:26:19.778854,291586,1609505073482793,2673453057,-1.206336,-0.128832,-0.271328,-16.33625,2.66875,-11.8475,28.488,27.048,12.296001,concentric,3,3.0,54215.0,259779.0,114856.0,253913.0,128681.0
2026-04-14 17:26:19.781427,291587,1609505073491714,2673461736,-1.1712,-0.150304,-0.046848,-21.7525,4.13875,-11.64625,28.760002,26.696001,11.976001,concentric,3,3.0,54215.0,259779.0,114856.0,253913.0,128681.0
2026-04-14 17:26:19.785047,291588,1609505073500730,2673470437,-1.1712,-0.150304,-0.046848,-12.145,7.385,-10.56125,28.760002,26.696001,11.976001,concentric,3,3.0,54215.0,259779.0,114856.0,253913.0,128681.0
2026-04-14 17:26:19.825047,291599,1609505073515206,2673485297,-1.136064,-0.111264,-0.105408,-0.48125,10.56125,-10.54375,29.024002,26.768002,11.272,concentric,3,3.0,53235.0,258292.0,113274.0,252254.0,126885.0
2026-04-14 17:26:19.827664,291600,1609505073524202,2673494065,-1.136064,-0.111264,-0.105408,2.065,10.85875,-10.29,29.024002,26.768002,11.272,concentric,3,3.0,53235.0,258292.0,113274.0,252254.0,126885.0
2026-04-14 17:26:19.829904,291601,1609505073538773,2673508992,-1.266848,-0.042944,-0.240096,-2.14375,9.1,-8.575,29.424002,26.696001,13.048,concentric,3,3.0,53235.0,258292.0,113274.0,252254.0,126885.0
2026-04-14 17:26:19.832654,291602,1609505073547696,2673517705,-1.149728,-0.099552,-0.085888,-8.085,6.79875,-8.18125,29.296001,27.016,13.920001,concentric,3,3.0,53235.0,258292.0,113274.0,252254.0,126885.0
2026-04-14 17:26:19.847691,291603,1609505073562297,2673532571,-1.149728,-0.099552,-0.085888,-11.698751,5.10125,-10.1325,29.296001,27.016,13.920001,concentric,3,3.0,53235.0,258292.0,113274.0,252254.0,126885.0
2026-04-14 17:26:19.855079,291604,1609505073571288,2673541296,-1.260992,-0.089792,-0.238144,-11.43625,3.91125,-11.515,28.416002,26.944002,11.120001,concentric,3,3.0,53235.0,258292.0,113274.0,252254.0,126885.0
2026-04-14 17:26:19.865136,291605,1609505073580225,2673549963,-1.260992,-0.089792,-0.238144,-5.94125,3.42125,-10.465,28.416002,26.944002,11.120001,concentric,3,3.0,53235.0,258292.0,113274.0,252254.0,126885.0
2026-04-14 17:26:19.880208,291606,1609505073594723,2673564955,-1.208288,-0.037088,-0.005856,-1.16375,2.73,-9.70375,29.328001,27.024002,10.984,concentric,3,3.0,53235.0,258292.0,113274.0,252254.0,126885.0
2026-04-14 17:26:19.890242,291607,1609505073603668,2673573629,-1.208288,-0.037088,-0.005856,-5.6525,1.82,-9.93125,29.328001,27.024002,10.984,concentric,3,3.0,53235.0,258292.0,113274.0,252254.0,126885.0
2026-04-14 17:26:19.925161,291618,1609505073618582,2673588668,-1.173152,-0.173728,-0.206912,-12.50375,0.98,-10.22,29.400002,27.024002,11.160001,concentric,3,3.0,51660.0,257443.0,110351.0,251069.0,123888.0
2026-04-14 17:26:19.927694,291619,1609505073627637,2673597389,-1.266848,-0.267424,-0.404064,-14.84875,-0.2275,-9.765,28.920002,27.416,11.064,concentric,3,3.0,51660.0,257443.0,110351.0,251069.0,123888.0
2026-04-14 17:26:19.929962,291620,1609505073636560,2673606108,-1.266848,-0.267424,-0.404064,-3.96375,-2.1875,-8.435,28.920002,27.416,11.064,concentric,3,3.0,51660.0,257443.0,110351.0,251069.0,123888.0
2026-04-14 17:26:19.936232,291621,1609505073651045,2673621015,-1.282464,-0.122976,-0.261568,17.54375,-3.33375,-5.7925,28.400002,27.448002,12.328001,concentric,3,3.0,51660.0,257443.0,110351.0,251069.0,123888.0
2026-04-14 17:26:19.943885,291622,1609505073660128,2673629805,-1.282464,-0.122976,-0.261568,33.145,-4.2,-3.78875,28.400002,27.448002,12.328001,concentric,3,3.0,51660.0,257443.0,110351.0,251069.0,123888.0
2026-04-14 17:26:19.958909,291623,1609505073674604,2673644687,-1.1712,0.017568,0.06832,31.036251,-4.47125,-1.4,28.328001,27.048,11.464001,concentric,3,3.0,51660.0,257443.0,110351.0,251069.0,123888.0
2026-04-14 17:26:19.986317,291624,1609505073683547,2673653367,-1.1712,0.017568,0.06832,13.9825,-3.955,0.875,28.328001,27.048,11.464001,concentric,3,3.0,51660.0,257443.0,110351.0,251069.0,123888.0
2026-04-14 17:26:20.011639,291625,1609505073698014,2673668231,-1.272704,-0.162016,-0.265472,-9.49375,-3.3425,0.48125,29.152002,27.176,11.544001,concentric,3,3.0,51660.0,257443.0,110351.0,251069.0,123888.0
2026-04-14 17:26:20.019524,291626,1609505073706901,2673676904,-1.272704,-0.162016,-0.099552,-24.8325,-3.14125,0.06125,29.152002,27.176,11.544001,concentric,3,3.0,51660.0,257443.0,110351.0,251069.0,123888.0
2026-04-14 17:26:20.046606,291637,1609505073715795,2673685637,-1.110688,-0.240096,-0.099552,-18.31375,-2.56375,2.56375,28.952002,26.680002,12.328001,concentric,3,3.0,51449.0,258011.0,110029.0,251059.0,123716.0
2026-04-14 17:26:20.048940,291638,1609505073730352,2673700545,-1.194624,-0.085888,-0.236192,3.1675,-1.75,4.5675,29.384,26.816002,11.616,concentric,3,3.0,51449.0,258011.0,110029.0,251059.0,123716.0
2026-04-14 17:26:20.051730,291639,1609505073739267,2673709227,-1.194624,-0.085888,-0.236192,20.29125,-0.455,3.535,29.384,26.816002,11.616,concentric,3,3.0,51449.0,258011.0,110029.0,251059.0,123716.0
2026-04-14 17:26:20.054248,291640,1609505073753779,2673724119,-1.221952,-0.015616,-0.298656,18.8475,-0.63875,2.1175,29.376001,26.800001,11.904,concentric,3,3.0,51449.0,258011.0,110029.0,251059.0,123716.0
2026-04-14 17:26:20.056256,291641,1609505073762725,2673732842,-1.221952,-0.015616,-0.298656,4.96125,-0.76125,0.665,29.376001,26.800001,11.904,concentric,3,3.0,51449.0,258011.0,110029.0,251059.0,123716.0
2026-04-14 17:26:20.061833,291642,1609505073777266,2673745679,-1.227808,-0.150304,-0.13664,-9.9925,-2.1,-1.30375,29.072,26.960001,11.688001,concentric,3,3.0,51449.0,258011.0,110029.0,251059.0,123716.0
2026-04-14 17:26:20.071769,291643,1609505073786468,2673756414,-1.227808,-0.150304,-0.13664,-13.50125,-2.1525,-2.3275,29.072,26.960001,11.688001,concentric,3,3.0,51449.0,258011.0,110029.0,251059.0,123716.0
2026-04-14 17:26:20.081185,291644,1609505073795389,2673765079,-1.175104,-0.261568,-0.171776,-4.095,-2.38,-2.31,29.288002,26.904001,9.8,concentric,3,3.0,51449.0,258011.0,110029.0,251059.0,123716.0
2026-04-14 17:26:20.094044,291645,1609505073809849,2673779981,-1.157536,-0.0976,-0.122976,13.448751,-1.82,-0.88375,29.344002,26.464,11.824,concentric,3,3.0,51449.0,258011.0,110029.0,251059.0,123716.0
2026-04-14 17:26:20.126735,291656,1609505073818930,2673788760,-1.157536,-0.0976,-0.122976,26.48625,-1.715,1.3125,29.344002,26.464,11.824,concentric,3,3.0,52991.0,259754.0,112652.0,252729.0,126284.0
2026-04-14 17:26:20.128755,291657,1609505073833508,2673803682,-1.225856,-0.027328,-0.212768,23.19625,-1.5925,1.98625,29.528002,26.696001,12.624001,concentric,3,3.0,52991.0,259754.0,112652.0,252729.0,126284.0
2026-04-14 17:26:20.131749,291658,1609505073842530,2673812364,-1.225856,-0.027328,-0.212768,5.3025,-2.1175,2.03875,29.528002,26.696001,12.624001,concentric,3,3.0,52991.0,259754.0,112652.0,252729.0,126284.0
2026-04-14 17:26:20.136782,291659,1609505073851513,2673821046,-1.241472,-0.144448,-0.183488,-13.2125,-2.7825,2.7475,28.448002,26.680002,12.864,concentric,3,3.0,52991.0,259754.0,112652.0,252729.0,126284.0
2026-04-14 17:26:20.152600,291660,1609505073866011,2673835947,-1.241472,-0.144448,-0.183488,-20.53625,-3.57,3.12375,28.448002,26.680002,12.864,concentric,3,3.0,52991.0,259754.0,112652.0,252729.0,126284.0
2026-04-14 17:26:20.159234,291661,1609505073874933,2673844644,-1.22976,-0.216672,-0.335744,-12.285,-2.87,2.80875,29.176,26.504002,11.464001,concentric,3,3.0,52991.0,259754.0,112652.0,252729.0,126284.0
2026-04-14 17:26:20.174958,291662,1609505073889417,2673859529,-1.23952,-0.054656,-0.242048,1.93375,-1.645,2.54625,29.000002,26.208002,11.040001,concentric,3,3.0,52991.0,259754.0,112652.0,252729.0,126284.0
2026-04-14 17:26:20.185846,291663,1609505073898332,2673868272,-1.23952,-0.054656,-0.242048,12.573751,-0.7,2.8875,29.000002,26.208002,11.040001,concentric,3,3.0,52991.0,259754.0,112652.0,252729.0,126284.0
2026-04-14 17:26:20.199086,291664,1609505073912880,2673883132,-1.192672,-0.050752,-0.062464,10.85,-0.13125,0.91875,29.104002,26.312002,11.76,concentric,3,3.0,52991.0,259754.0,112652.0,252729.0,126284.0
2026-04-14 17:26:20.251433,291675,1609505073921952,2673891856,-1.192672,-0.050752,-0.062464,1.645,-0.30625,-1.4175,29.104002,26.312002,11.76,concentric,3,3.0,54634.0,262376.0,114941.0,254603.0,128634.0
2026-04-14 17:26:20.254256,291676,1609505073931062,2673900600,-1.206336,-0.1952,-0.11712,-8.6975,-1.715,-1.93375,28.432001,26.944002,13.688001,concentric,3,3.0,54634.0,262376.0,114941.0,254603.0,128634.0
2026-04-14 17:26:20.256287,291677,1609505073945571,2673915483,-1.206336,-0.1952,-0.11712,-10.2375,-3.31625,-0.84,28.432001,26.944002,13.688001,concentric,3,3.0,54634.0,262376.0,114941.0,254603.0,128634.0
2026-04-14 17:26:20.259223,291678,1609505073954491,2673924154,-1.235616,-0.187392,-0.318176,-0.55125,-4.13,1.11125,27.800001,26.464,13.704,concentric,3,3.0,54634.0,262376.0,114941.0,254603.0,128634.0
2026-04-14 17:26:20.261775,291679,1609505073968951,2673939080,-1.22,-0.005856,-0.064416,12.6875,-4.4275,3.0625,27.800001,26.464,13.704,concentric,3,3.0,54634.0,262376.0,114941.0,254603.0,128634.0
2026-04-14 17:26:20.265637,291680,1609505073977857,2673947753,-1.233664,-0.005856,-0.064416,18.89125,-4.515,5.03125,27.672,26.400002,12.416,concentric,3,3.0,54634.0,262376.0,114941.0,254603.0,128634.0
2026-04-14 17:26:20.277635,291681,1609505073992346,2673962622,-1.184864,-0.105408,-0.076128,10.4825,-5.53,5.915,29.424002,26.632002,12.080001,concentric,3,3.0,54634.0,262376.0,114941.0,254603.0,128634.0
2026-04-14 17:26:20.286562,291682,1609505074001365,2673971311,-1.184864,-0.105408,-0.076128,-6.06375,-6.83375,6.23875,29.424002,26.632002,12.080001,concentric,3,3.0,54634.0,262376.0,114941.0,254603.0,128634.0
2026-04-14 17:26:20.297962,291683,1609505074010386,2673979974,-1.163392,-0.240096,-0.101504,-19.32875,-7.91,6.72875,28.240002,25.952002,13.76,concentric,3,3.0,54634.0,262376.0,114941.0,254603.0,128634.0
2026-04-14 17:26:20.326734,291694,1609505074024977,2673994955,-1.163392,-0.240096,-0.101504,-17.885,-8.26875,7.42,28.240002,25.952002,13.76,concentric,3,3.0,54805.0,262239.0,115092.0,254655.0,128914.0
2026-04-14 17:26:20.328826,291695,1609505074033971,2674003669,-1.274656,-0.122976,-0.28304,-1.72375,-7.2625,7.9625,28.912,26.432001,13.056001,concentric,3,3.0,54805.0,262239.0,115092.0,254655.0,128914.0
2026-04-14 17:26:20.354246,291696,1609505074048477,2674018574,-1.274656,-0.122976,-0.28304,17.71875,-5.99375,8.35625,28.912,26.432001,13.056001,concentric,3,3.0,54805.0,262239.0,115092.0,254655.0,128914.0
2026-04-14 17:26:20.376547,291697,1609505074057375,2674027277,-1.262944,0.031232,-0.281088,24.78875,-5.22375,6.93875,28.656002,25.984001,11.992001,concentric,3,3.0,54805.0,262239.0,115092.0,254655.0,128914.0
2026-04-14 17:26:20.378642,291698,1609505074071821,2674042144,-1.14192,-0.023424,-0.007808,17.00125,-5.17125,4.5675,29.44,25.968,12.296001,concentric,3,3.0,54805.0,262239.0,115092.0,254655.0,128914.0
2026-04-14 17:26:20.381125,291699,1609505074080730,2674050808,-1.14192,-0.023424,-0.007808,1.54875,-4.89125,1.49625,29.44,25.968,12.296001,concentric,3,3.0,54805.0,262239.0,115092.0,254655.0,128914.0
2026-04-14 17:26:20.384378,291700,1609505074089649,2674059471,-1.14192,-0.222528,-0.281088,-10.54375,-4.7425,-1.785,29.44,25.968,10.248,concentric,3,3.0,54805.0,262239.0,115092.0,254655.0,128914.0
2026-04-14 17:26:20.390457,291701,1609505074104147,2674074353,-1.145824,-0.222528,-0.281088,-11.2525,-4.2,-3.84125,29.576002,25.904001,11.512,concentric,3,3.0,54805.0,262239.0,115092.0,254655.0,128914.0
2026-04-14 17:26:20.400516,291702,1609505074113127,2674083040,-1.196576,-0.1464,-0.288896,-1.93375,-3.9025,-2.3625,29.072,25.824001,12.648001,concentric,3,3.0,54805.0,262239.0,115092.0,254655.0,128914.0
2026-04-14 17:26:20.427584,291713,1609505074127967,2674098187,-1.196576,-0.1464,-0.288896,12.66125,-3.73625,0.42,29.072,25.824001,12.648001,concentric,3,3.0,58506.0,264706.0,121371.0,257701.0,135258.0
2026-04-14 17:26:20.430474,291714,1609505074136893,2674106874,-1.24928,0.013664,-0.245952,21.39375,-3.61375,1.75,28.192001,25.912,13.024,concentric,3,3.0,58506.0,264706.0,121371.0,257701.0,135258.0
2026-04-14 17:26:20.432974,291715,1609505074145878,2674115570,-1.24928,0.013664,-0.245952,16.8875,-5.03125,1.95125,28.192001,25.912,13.024,concentric,3,3.0,58506.0,264706.0,121371.0,257701.0,135258.0
2026-04-14 17:26:20.445459,291716,1609505074160366,2674130479,-1.120448,-0.064416,-0.054656,1.70625,-5.46,1.89,27.832,26.104002,13.040001,concentric,3,3.0,58506.0,264706.0,121371.0,257701.0,135258.0
2026-04-14 17:26:20.453818,291717,1609505074169283,2674139225,-1.120448,-0.064416,-0.054656,-13.72,-6.7375,2.30125,27.832,26.104002,13.040001,concentric,3,3.0,58506.0,264706.0,121371.0,257701.0,135258.0
2026-04-14 17:26:20.477309,291718,1609505074183820,2674154086,-1.120448,-0.193248,-0.158112,-15.56625,-7.035,3.26375,29.608002,25.952002,9.504001,concentric,3,3.0,58506.0,264706.0,121371.0,257701.0,135258.0
2026-04-14 17:26:20.480053,291719,1609505074192775,2674162784,-1.167296,-0.0488,-0.101504,-1.44375,-5.13625,3.24625,29.28,25.2,11.392,concentric,3,3.0,58506.0,264706.0,121371.0,257701.0,135258.0
2026-04-14 17:26:20.491331,291720,1609505074207248,2674175667,-1.167296,-0.0488,-0.101504,16.40625,-3.7625,1.89,29.28,25.2,11.392,concentric,3,3.0,58506.0,264706.0,121371.0,257701.0,135258.0
2026-04-14 17:26:20.502689,291721,1609505074216492,2674186478,-1.192672,0.031232,-0.284992,22.303751,-3.92875,1.4875,29.52,25.208002,11.704,concentric,3,3.0,58506.0,264706.0,121371.0,257701.0,135258.0
2026-04-14 17:26:20.532676,291732,1609505074225479,2674195196,-1.192672,0.031232,-0.284992,14.79625,-4.515,0.5775,29.52,25.208002,11.704,concentric,3,3.0,63210.0,265360.0,129235.0,259519.0,142982.0
2026-04-14 17:26:20.535108,291733,1609505074240011,2674210157,-1.106784,-0.085888,-0.12688,0.18375,-5.52125,-2.1525,28.512001,25.248001,12.184001,concentric,3,3.0,63210.0,265360.0,129235.0,259519.0,142982.0
2026-04-14 17:26:20.537673,291734,1609505074248955,2674218830,-1.106784,-0.085888,-0.12688,-10.823751,-5.60875,-3.6225,28.512001,25.248001,12.184001,concentric,3,3.0,63210.0,265360.0,129235.0,259519.0,142982.0
2026-04-14 17:26:20.548639,291735,1609505074263455,2674233710,-1.052128,-0.162016,-0.042944,-10.395,-4.795,-2.54625,28.464,25.400002,11.368001,concentric,3,3.0,63210.0,265360.0,129235.0,259519.0,142982.0
2026-04-14 17:26:20.556268,291736,1609505074272407,2674242422,-1.165344,-0.085888,-0.216672,-1.05875,-4.69,-2.4675,28.52,25.176,10.056001,concentric,3,3.0,63210.0,265360.0,129235.0,259519.0,142982.0
2026-04-14 17:26:20.571170,291737,1609505074286885,2674255269,-1.165344,-0.085888,-0.216672,10.955,-4.38375,-1.785,28.52,25.176,10.056001,concentric,3,3.0,63210.0,265360.0,129235.0,259519.0,142982.0
2026-04-14 17:26:20.582588,291738,1609505074296081,2674266009,-1.1224,0.025376,0.00976,15.89875,-4.55875,-1.35625,29.328001,24.448002,10.672001,concentric,3,3.0,63210.0,265360.0,129235.0,259519.0,142982.0
2026-04-14 17:26:20.590129,291739,1609505074304991,2674274681,-1.1224,0.025376,0.00976,13.230001,-5.57375,-2.6425,29.328001,24.448002,10.672001,concentric,3,3.0,63210.0,265360.0,129235.0,259519.0,142982.0
2026-04-14 17:26:20.632692,291750,1609505074319520,2674289609,-1.048224,-0.064416,-0.02928,4.08625,-5.97625,-3.535,28.792002,24.928001,11.080001,concentric,3,3.0,62211.0,264004.0,127617.0,258292.0,141179.0
2026-04-14 17:26:20.636810,291751,1609505074328442,2674298541,-1.048224,-0.064416,-0.02928,-5.8275,-6.8075,-3.66625,28.792002,24.928001,11.080001,concentric,3,3.0,62211.0,264004.0,127617.0,258292.0,141179.0
2026-04-14 17:26:20.637434,291752,1609505074343047,2674311408,-1.081408,-0.181536,-0.26352,-9.7475,-7.20125,-2.905,29.160002,24.68,9.68,concentric,3,3.0,62211.0,264004.0,127617.0,258292.0,141179.0
2026-04-14 17:26:20.639839,291753,1609505074352287,2674322179,-1.06384,-0.134688,-0.181536,-2.91375,-6.6325,-0.79625,29.056002,24.28,10.472,concentric,3,3.0,62211.0,264004.0,127617.0,258292.0,141179.0
2026-04-14 17:26:20.646152,291754,1609505074361254,2674330895,-1.06384,-0.134688,-0.181536,9.72125,-6.34375,0.83125,29.056002,24.28,10.472,concentric,3,3.0,62211.0,264004.0,127617.0,258292.0,141179.0
2026-04-14 17:26:20.660031,291755,1609505074375770,2674345787,-1.20048,0.08784,-0.140544,19.022501,-5.5475,0.8925,28.688002,23.848001,9.184,concentric,3,3.0,62211.0,264004.0,127617.0,258292.0,141179.0
2026-04-14 17:26:20.670109,291756,1609505074384789,2674354479,-1.20048,0.08784,-0.140544,21.35875,-5.2675,0.1575,28.688002,23.848001,9.184,concentric,3,3.0,62211.0,264004.0,127617.0,258292.0,141179.0
2026-04-14 17:26:20.683952,291757,1609505074399258,2674369352,-1.061888,-0.035136,-0.124928,13.34375,-6.72,-2.2225,28.480001,23.264002,7.8,concentric,3,3.0,62211.0,264004.0,127617.0,258292.0,141179.0
2026-04-14 17:26:20.694252,291758,1609505074408231,2674378018,-1.061888,-0.035136,-0.124928,-3.4825,-9.52875,-4.73375,28.480001,23.264002,7.8,concentric,3,3.0,62211.0,264004.0,127617.0,258292.0,141179.0
2026-04-14 17:26:20.768683,291769,1609505074423179,2674392929,-1.10288,-0.187392,-0.183488,-14.035,-13.86,-4.12125,27.872002,23.112001,9.200001,concentric,3,3.0,58831.0,259585.0,122555.0,255064.0,136248.0
2026-04-14 17:26:20.771593,291770,1609505074432176,2674401611,-0.968192,-0.142496,-0.07808,-2.3625,-14.91875,-1.155,27.872002,22.912,8.064,concentric,3,3.0,58831.0,259585.0,122555.0,255064.0,136248.0
2026-04-14 17:26:20.773982,291771,1609505074441086,2674410291,-0.968192,-0.142496,-0.07808,20.30875,-13.09875,0.25375,26.664001,22.912,8.064,concentric,3,3.0,58831.0,259585.0,122555.0,255064.0,136248.0
2026-04-14 17:26:20.776601,291772,1609505074455565,2674425183,-1.143872,0.115168,0.066368,33.20625,-11.75125,0.02625,25.904001,21.792002,7.448,concentric,3,3.0,58831.0,259585.0,122555.0,255064.0,136248.0
2026-04-14 17:26:20.778587,291773,1609505074464578,2674433851,-1.143872,0.115168,0.066368,30.91375,-11.41875,-0.70875,25.904001,21.792002,7.448,concentric,3,3.0,58831.0,259585.0,122555.0,255064.0,136248.0
2026-04-14 17:26:20.781197,291774,1609505074479094,2674448769,-1.048224,0.040992,0.007808,19.03125,-10.29875,-2.275,25.304,21.056002,6.904,concentric,3,3.0,58831.0,259585.0,122555.0,255064.0,136248.0
2026-04-14 17:26:20.783696,291775,1609505074488040,2674457474,-1.048224,0.040992,0.007808,0.77,-9.68625,-5.20625,25.304,21.056002,6.904,concentric,3,3.0,58831.0,259585.0,122555.0,255064.0,136248.0
2026-04-14 17:26:20.786587,291776,1609505074496957,2674466152,-1.05408,-0.1952,-0.199104,-16.3625,-10.325,-6.58875,24.208002,20.872002,7.208,concentric,3,3.0,58831.0,259585.0,122555.0,255064.0,136248.0
2026-04-14 17:26:20.797417,291777,1609505074511435,2674481034,-1.05408,-0.1952,-0.199104,-16.87875,-10.26375,-4.73375,24.208002,20.872002,7.208,concentric,3,3.0,58831.0,259585.0,122555.0,255064.0,136248.0
2026-04-14 17:26:20.834832,291788,1609505074520337,2674489977,-0.98576,-0.230336,-0.099552,-1.9775,-9.35375,-3.77125,23.008001,20.76,7.960001,concentric,3,3.0,59909.0,256563.0,124596.0,253737.0,138239.0
2026-04-14 17:26:20.837466,291789,1609505074534937,2674504953,-1.048224,0.01952,-0.062464,19.0575,-8.05875,-3.47375,20.072,20.456001,10.52,concentric,3,3.0,59909.0,256563.0,124596.0,253737.0,138239.0
2026-04-14 17:26:20.839981,291790,1609505074543908,2674513662,-1.048224,0.01952,-0.062464,34.34375,-8.09375,-2.35375,20.072,20.456001,10.52,concentric,3,3.0,59909.0,256563.0,124596.0,253737.0,138239.0
2026-04-14 17:26:20.845349,291791,1609505074558386,2674528548,-1.1712,0.060512,-0.212768,31.4125,-9.31875,-2.79125,19.256,20.592001,10.408001,concentric,3,3.0,59909.0,256563.0,124596.0,253737.0,138239.0
2026-04-14 17:26:20.851601,291792,1609505074567352,2674537278,-1.1712,0.060512,-0.212768,10.47375,-11.66375,-5.0225,19.256,20.592001,10.408001,concentric,3,3.0,59909.0,256563.0,124596.0,253737.0,138239.0
2026-04-14 17:26:20.860378,291793,1609505074576287,2674545947,-1.104832,-0.179584,-0.247904,-13.2125,-13.81625,-4.76875,20.152,20.456001,10.336,concentric,3,3.0,59909.0,256563.0,124596.0,253737.0,138239.0
2026-04-14 17:26:20.891758,291794,1609505074590767,2674560824,-1.104832,-0.179584,-0.247904,-23.178751,-16.275,-4.095,20.152,20.456001,10.336,concentric,3,3.0,59909.0,256563.0,124596.0,253737.0,138239.0
2026-04-14 17:26:20.894252,291795,1609505074599686,2674569511,-1.079456,-0.210816,-0.124928,-11.48875,-16.84375,-2.7825,19.824001,20.352001,11.368001,concentric,3,3.0,59909.0,256563.0,124596.0,253737.0,138239.0
2026-04-14 17:26:20.899348,291796,1609505074614189,2674584424,-1.100928,0.060512,0.085888,15.02375,-15.61875,-0.385,20.048,20.728,14.016001,concentric,3,3.0,59909.0,256563.0,124596.0,253737.0,138239.0
2026-04-14 17:26:20.934871,291807,1609505074623307,2674593145,-1.100928,0.060512,0.085888,37.24875,-14.2625,0.6825,20.048,20.728,14.016001,concentric,3,3.0,55766.0,245827.0,118781.0,245652.0,131869.0
2026-04-14 17:26:20.937570,291808,1609505074637881,2674608107,-1.11264,0.040992,-0.26352,38.14125,-13.6325,-0.42875,19.528002,21.368002,15.312,concentric,3,3.0,55766.0,245827.0,118781.0,245652.0,131869.0
2026-04-14 17:26:20.940323,291809,1609505074646789,2674616816,-1.11264,0.040992,-0.26352,17.22875,-15.3475,-2.68625,19.528002,21.368002,15.312,concentric,3,3.0,55766.0,245827.0,118781.0,245652.0,131869.0
2026-04-14 17:26:20.942859,291810,1609505074655763,2674625510,-1.071648,-0.17568,-0.17568,-7.07875,-19.022501,-2.38875,19.824001,21.344002,15.144001,concentric,3,3.0,55766.0,245827.0,118781.0,245652.0,131869.0
2026-04-14 17:26:20.960387,291811,1609505074670258,2674640400,-1.071648,-0.17568,-0.17568,-18.8825,-22.8725,0.35,19.824001,21.344002,15.144001,concentric,3,3.0,55766.0,245827.0,118781.0,245652.0,131869.0
2026-04-14 17:26:20.966750,291812,1609505074679160,2674649056,-1.026752,-0.22448,-0.130784,-11.83,-24.38625,3.2375,20.936,22.048,15.816001,concentric,3,3.0,55766.0,245827.0,118781.0,245652.0,131869.0
2026-04-14 17:26:20.977609,291813,1609505074693707,2674663970,-0.964288,-0.03904,0.040992,8.1025,-22.995,5.81,20.936,22.048,18.984001,concentric,3,3.0,55766.0,245827.0,118781.0,245652.0,131869.0
2026-04-14 17:26:20.989220,291814,1609505074702633,2674672736,-0.968192,-0.03904,0.040992,28.34125,-20.65,7.18375,21.960001,22.088001,18.984001,concentric,3,3.0,55766.0,245827.0,118781.0,245652.0,131869.0
2026-04-14 17:26:20.996422,291815,1609505074711592,2674681420,-0.968192,-0.03904,0.040992,37.96625,-18.12125,7.04375,21.960001,22.088001,18.984001,concentric,3,3.0,55766.0,245827.0,118781.0,245652.0,131869.0
2026-04-14 17:26:21.034920,291826,1609505074726433,2674696411,-0.962336,0.054656,0.074176,31.3075,-17.17625,6.30875,21.904001,22.704,15.472001,eccentric,3,3.0,48171.0,231356.0,106414.0,233917.0,119105.0
2026-04-14 17:26:21.037593,291827,1609505074735431,2674705138,-0.933056,-0.060512,0.089792,14.77875,-17.87625,5.7225,21.52,22.992,20.128,eccentric,3,3.0,48171.0,231356.0,106414.0,233917.0,119105.0
2026-04-14 17:26:21.038483,291828,1609505074749992,2674720100,-0.933056,-0.060512,0.089792,0.455,-18.38375,4.71625,21.52,22.992,20.128,eccentric,3,3.0,48171.0,231356.0,106414.0,233917.0,119105.0
2026-04-14 17:26:21.050189,291829,1609505074758872,2674728791,-0.905728,-0.158112,0.037088,-5.39875,-18.8825,4.2875,22.480001,23.288002,17.872002,eccentric,3,3.0,48171.0,231356.0,106414.0,233917.0,119105.0
2026-04-14 17:26:21.056364,291830,1609505074773349,2674741715,-0.905728,-0.158112,0.037088,-1.3475,-18.75125,4.585,22.480001,23.288002,17.872002,eccentric,3,3.0,48171.0,231356.0,106414.0,233917.0,119105.0
2026-04-14 17:26:21.090073,291831,1609505074782537,2674752450,-0.987712,-0.021472,0.007808,9.8875,-17.77125,4.50625,23.704,23.36,18.928001,eccentric,3,3.0,48171.0,231356.0,106414.0,233917.0,119105.0
2026-04-14 17:26:21.092574,291832,1609505074791494,2674761164,-0.987712,-0.021472,0.007808,18.97,-16.66875,3.66625,23.704,23.36,18.928001,eccentric,3,3.0,48171.0,231356.0,106414.0,233917.0,119105.0
2026-04-14 17:26:21.095143,291833,1609505074805974,2674776036,-1.028704,0.00976,-0.160064,11.68125,-16.98375,2.5725,23.448002,23.008001,17.320002,eccentric,3,3.0,48171.0,231356.0,106414.0,233917.0,119105.0
2026-04-14 17:26:21.120045,291834,1609505074814929,2674784728,-0.962336,-0.124928,0.031232,-10.92875,-19.215,1.42625,23.264002,23.544,17.128,eccentric,3,3.0,48171.0,231356.0,106414.0,233917.0,119105.0
2026-04-14 17:26:21.177631,291845,1609505074829479,2674798087,-0.962336,-0.124928,0.031232,-21.02625,-21.385,0.63,23.264002,23.544,17.128,eccentric,3,3.0,43564.0,224657.0,98107.0,228058.0,110646.0
2026-04-14 17:26:21.180186,291846,1609505074838652,2674808824,-0.972096,-0.144448,-0.111264,-8.30375,-22.51375,0.55125,22.632002,23.392,17.416,eccentric,3,3.0,43564.0,224657.0,98107.0,228058.0,110646.0
2026-04-14 17:26:21.182687,291847,1609505074847568,2674817559,-0.972096,-0.144448,-0.111264,11.025,-22.47875,1.8375,22.632002,23.392,17.416,eccentric,3,3.0,43564.0,224657.0,98107.0,228058.0,110646.0
2026-04-14 17:26:21.185186,291848,1609505074862039,2674830395,-0.89792,0.040992,0.148352,22.79375,-21.6125,3.80625,22.992,23.944,17.960001,eccentric,3,3.0,43564.0,224657.0,98107.0,228058.0,110646.0
2026-04-14 17:26:21.187635,291849,1609505074871220,2674841132,-0.89792,0.040992,0.148352,21.90125,-20.3525,4.43625,22.992,23.944,17.960001,eccentric,3,3.0,43564.0,224657.0,98107.0,228058.0,110646.0
2026-04-14 17:26:21.190195,291850,1609505074885722,2674856033,-0.913536,-0.011712,0.040992,9.52,-19.83625,4.52375,22.848001,23.560001,17.904001,eccentric,3,3.0,43564.0,224657.0,98107.0,228058.0,110646.0
2026-04-14 17:26:21.192688,291851,1609505074894702,2674864745,-0.913536,-0.13664,-0.093696,-9.14375,-19.99375,5.25,22.848001,23.560001,17.904001,eccentric,3,3.0,43564.0,224657.0,98107.0,228058.0,110646.0
2026-04-14 17:26:21.198105,291852,1609505074909219,2674877632,-0.964288,-0.132736,-0.093696,-19.10125,-20.23875,5.45125,22.504002,23.432001,16.392,eccentric,3,3.0,43564.0,224657.0,98107.0,228058.0,110646.0
2026-04-14 17:26:21.207470,291853,1609505074918494,2674888390,-0.90768,-0.089792,-0.105408,-7.30625,-19.6525,5.87125,21.920002,23.880001,18.648,eccentric,3,3.0,43564.0,224657.0,98107.0,228058.0,110646.0
2026-04-14 17:26:21.232596,291864,1609505074927616,2674897190,-0.90768,-0.089792,-0.105408,12.11875,-18.20875,7.6475,21.920002,23.880001,18.648,eccentric,3,3.0,43468.0,222963.0,97953.0,226182.0,110587.0
2026-04-14 17:26:21.235053,291865,1609505074942177,2674912144,-0.86864,0.021472,-0.02928,18.45375,-16.765,8.67125,21.68,23.816002,15.072001,eccentric,3,3.0,43468.0,222963.0,97953.0,226182.0,110587.0
2026-04-14 17:26:21.237628,291866,1609505074951113,2674920840,-0.86864,0.021472,-0.02928,9.3275,-16.2575,8.3475,21.68,23.816002,15.072001,eccentric,3,3.0,43468.0,222963.0,97953.0,226182.0,110587.0
2026-04-14 17:26:21.252689,291867,1609505074965609,2674935776,-0.86864,-0.013664,0.169824,-7.88375,-15.5575,7.55125,22.704,23.400002,17.544,eccentric,3,3.0,43468.0,222963.0,97953.0,226182.0,110587.0
2026-04-14 17:26:21.260227,291868,1609505074974534,2674944450,-0.86864,-0.013664,0.169824,-19.62625,-15.1375,6.7025,22.704,23.400002,17.544,eccentric,3,3.0,43468.0,222963.0,97953.0,226182.0,110587.0
2026-04-14 17:26:21.267718,291869,1609505074983513,2674953193,-0.960384,-0.060512,-0.05856,-19.13625,-14.035,5.5125,22.768002,23.312,16.976002,eccentric,3,3.0,43468.0,222963.0,97953.0,226182.0,110587.0
2026-04-14 17:26:21.284239,291870,1609505074997989,2674968069,-0.93696,0.015616,-0.06832,-5.87125,-12.62625,4.45375,23.536001,23.624,17.288,eccentric,3,3.0,43468.0,222963.0,97953.0,226182.0,110587.0
2026-04-14 17:26:21.291803,291871,1609505075006941,2674976741,-0.93696,0.015616,-0.06832,6.85125,-12.17125,5.06625,23.536001,23.624,17.288,eccentric,3,3.0,43468.0,222963.0,97953.0,226182.0,110587.0
2026-04-14 17:26:21.306614,291872,1609505075021415,2674991597,-0.915488,0.060512,0.130784,5.04875,-12.64375,6.16875,22.944,23.376001,16.472,eccentric,3,3.0,43468.0,222963.0,97953.0,226182.0,110587.0
2026-04-14 17:26:21.334233,291883,1609505075030359,2675000365,-0.915488,0.060512,0.130784,-11.9875,-14.42875,7.175,22.944,23.376001,16.472,eccentric,3,3.0,44888.0,226426.0,100408.0,228541.0,113224.0
2026-04-14 17:26:21.336734,291884,1609505075044993,2675013343,-0.866688,-0.064416,0.261568,-29.26,-16.0125,9.0825,22.952002,23.776001,16.872002,eccentric,3,3.0,44888.0,226426.0,100408.0,228541.0,113224.0
2026-04-14 17:26:21.338852,291885,1609505075054154,2675024111,-0.866688,-0.064416,0.261568,-33.22375,-15.6975,9.9225,22.952002,23.776001,16.872002,eccentric,3,3.0,44888.0,226426.0,100408.0,228541.0,113224.0
2026-04-14 17:26:21.347999,291886,1609505075063070,2675032822,-0.835456,-0.101504,0.124928,-21.53375,-13.72875,9.3975,22.720001,23.904001,16.856,eccentric,3,3.0,44888.0,226426.0,100408.0,228541.0,113224.0
2026-04-14 17:26:21.362588,291887,1609505075077527,2675047680,-0.931104,0.0488,-0.08784,-0.00875,-12.25,8.75875,23.76,23.232,17.640001,eccentric,3,3.0,44888.0,226426.0,100408.0,228541.0,113224.0
2026-04-14 17:26:21.371745,291888,1609505075086475,2675056356,-0.931104,0.0488,-0.08784,16.0125,-12.24125,8.09375,23.76,23.232,17.640001,eccentric,3,3.0,44888.0,226426.0,100408.0,228541.0,113224.0
2026-04-14 17:26:21.385488,291889,1609505075100953,2675071270,-0.925248,0.095648,0.271328,16.10875,-13.615,6.81625,23.68,23.488,15.936001,eccentric,3,3.0,44888.0,226426.0,100408.0,228541.0,113224.0
2026-04-14 17:26:21.400828,291890,1609505075109879,2675079943,-0.925248,0.095648,0.271328,3.87625,-16.03,5.7225,23.68,23.488,15.936001,eccentric,3,3.0,44888.0,226426.0,100408.0,228541.0,113224.0
2026-04-14 17:26:21.455009,291901,1609505075124442,2675093317,-1.030656,-0.081984,0.064416,-10.96375,-17.5175,4.5675,22.704,23.216002,16.128,eccentric,3,3.0,45537.0,234155.0,100913.0,233709.0,113945.0
2026-04-14 17:26:21.479999,291902,1609505075134158,2675104107,-1.030656,-0.081984,0.064416,-13.93,-17.59625,2.905,22.704,23.216002,16.128,eccentric,3,3.0,45537.0,234155.0,100913.0,233709.0,113945.0
2026-04-14 17:26:21.490392,291903,1609505075143153,2675112860,-0.894016,-0.111264,0.23424,-0.7175,-15.35625,0.46375,23.304,22.944,15.744,eccentric,3,3.0,45537.0,234155.0,100913.0,233709.0,113945.0
2026-04-14 17:26:21.491551,291904,1609505075157695,2675127769,-0.993568,0.05856,0.240096,18.76,-12.32,-0.11375,22.904001,22.928001,17.128,eccentric,3,3.0,45537.0,234155.0,100913.0,233709.0,113945.0
2026-04-14 17:26:21.492352,291905,1609505075166624,2675136437,-0.993568,0.05856,0.240096,24.1325,-9.79125,-1.8375,22.904001,22.928001,17.128,eccentric,3,3.0,45537.0,234155.0,100913.0,233709.0,113945.0
2026-04-14 17:26:21.495385,291906,1609505075181138,2675151359,-1.097024,0.001952,0.054656,12.34625,-10.115,-4.83,22.960001,22.864,17.008001,eccentric,3,3.0,45537.0,234155.0,100913.0,233709.0,113945.0
2026-04-14 17:26:21.497365,291907,1609505075190027,2675160053,-1.097024,0.001952,0.054656,-5.53,-12.81,-5.915,22.960001,22.864,17.008001,eccentric,3,3.0,45537.0,234155.0,100913.0,233709.0,113945.0
2026-04-14 17:26:21.499933,291908,1609505075198939,2675168737,-1.016992,-0.152256,0.242048,-16.68625,-14.1575,-6.6325,22.480001,23.344002,19.608002,eccentric,3,3.0,45537.0,234155.0,100913.0,233709.0,113945.0
2026-04-14 17:26:21.502381,291909,1609505075213512,2675183708,-1.016992,-0.152256,0.242048,-14.0525,-13.51875,-7.58625,22.480001,23.344002,19.608002,eccentric,3,3.0,45537.0,234155.0,100913.0,233709.0,113945.0
2026-04-14 17:26:21.532599,291910,1609505075222420,2675192380,-1.030656,-0.105408,0.249856,-0.48125,-11.585,-7.69125,21.912,23.232,17.848001,eccentric,3,3.0,45537.0,234155.0,100913.0,233709.0,113945.0
2026-04-14 17:26:21.559954,291921,1609505075237048,2675207250,-1.030656,0.056608,0.08784,14.6825,-8.96875,-6.405,21.912,23.232,17.848001,eccentric,3,3.0,43931.0,232914.0,98008.0,232387.0,110829.0
2026-04-14 17:26:21.565466,291922,1609505075245985,2675215912,-1.10288,0.056608,0.08784,18.2,-5.8275,-5.5125,21.84,23.448002,18.160002,eccentric,3,3.0,43931.0,232914.0,98008.0,232387.0,110829.0
2026-04-14 17:26:21.567968,291923,1609505075260491,2675228877,-1.1224,0.062464,0.06832,7.5775,-3.29,-5.95875,21.928001,23.376001,18.032001,eccentric,3,3.0,43931.0,232914.0,98008.0,232387.0,110829.0
2026-04-14 17:26:21.570492,291924,1609505075269725,2675239679,-1.1224,0.062464,0.06832,-7.7525,-2.44125,-6.88625,21.928001,23.376001,18.032001,eccentric,3,3.0,43931.0,232914.0,98008.0,232387.0,110829.0
2026-04-14 17:26:21.572958,291925,1609505075278737,2675248394,-1.108736,-0.03904,0.054656,-19.03125,-2.26625,-8.26,22.064001,23.544,19.400002,eccentric,3,3.0,43931.0,232914.0,98008.0,232387.0,110829.0
2026-04-14 17:26:21.578770,291926,1609505075293254,2675263306,-1.108736,-0.03904,0.054656,-18.87375,-2.4675,-9.42375,22.064001,23.544,19.400002,eccentric,3,3.0,43931.0,232914.0,98008.0,232387.0,110829.0
2026-04-14 17:26:21.587911,291927,1609505075302255,2675272020,-1.013088,-0.046848,0.046848,-9.52,-2.0825,-9.52,21.880001,23.536001,17.256,eccentric,3,3.0,43931.0,232914.0,98008.0,232387.0,110829.0
2026-04-14 17:26:21.601067,291928,1609505075316723,2675286884,-1.013088,-0.046848,0.046848,2.10875,-0.42,-8.79375,21.880001,23.536001,17.256,eccentric,3,3.0,43931.0,232914.0,98008.0,232387.0,110829.0
2026-04-14 17:26:21.633499,291939,1609505075326208,2675295596,-1.056032,0.01952,0.02928,4.5325,1.435,-9.0475,22.608002,23.136002,14.616001,eccentric,3,3.0,42603.0,228860.0,95812.0,228924.0,108287.0
2026-04-14 17:26:21.635993,291940,1609505075335243,2675304436,-1.056032,0.01952,0.02928,-1.9075,3.42125,-8.98625,22.608002,23.136002,14.616001,eccentric,3,3.0,42603.0,228860.0,95812.0,228924.0,108287.0
2026-04-14 17:26:21.639049,291941,1609505075349845,2675319342,-1.09312,-0.0488,-0.015616,-8.05875,4.5675,-8.155,22.664001,23.536001,16.776001,eccentric,3,3.0,42603.0,228860.0,95812.0,228924.0,108287.0
2026-04-14 17:26:21.643953,291942,1609505075358769,2675328058,-1.057984,-0.050752,-0.011712,-6.58,5.425,-7.5075,22.464,23.44,17.768002,eccentric,3,3.0,42603.0,228860.0,95812.0,228924.0,108287.0
2026-04-14 17:26:21.659109,291943,1609505075373247,2675343059,-1.057984,-0.050752,-0.011712,1.79375,5.90625,-7.56,22.464,23.44,17.768002,eccentric,3,3.0,42603.0,228860.0,95812.0,228924.0,108287.0
2026-04-14 17:26:21.668167,291944,1609505075382174,2675351783,-1.08336,0.015616,0.056608,7.56,5.88,-6.41375,22.376001,23.512001,17.864,eccentric,3,3.0,42603.0,228860.0,95812.0,228924.0,108287.0
2026-04-14 17:26:21.675406,291945,1609505075391077,2675360451,-1.08336,0.015616,0.056608,5.06625,4.6025,-4.9525,22.376001,23.512001,17.864,eccentric,3,3.0,42603.0,228860.0,95812.0,228924.0,108287.0
2026-04-14 17:26:21.691673,291946,1609505075405527,2675375288,-1.114592,-0.042944,0.033184,-0.60375,3.91125,-4.22625,21.68,23.584002,17.784,eccentric,3,3.0,42603.0,228860.0,95812.0,228924.0,108287.0
2026-04-14 17:26:21.699140,291947,1609505075414457,2675383988,-1.114592,-0.042944,0.033184,-3.36,4.095,-3.33375,21.68,23.584002,17.784,eccentric,3,3.0,42603.0,228860.0,95812.0,228924.0,108287.0
2026-04-14 17:26:21.733853,291958,1609505075429499,2675399243,-1.03456,-0.08784,0.128832,-0.1925,4.15625,-1.9775,22.920002,23.416,16.496,eccentric,3,3.0,41686.0,226828.0,93935.0,226751.0,106416.0
2026-04-14 17:26:21.736746,291959,1609505075438492,2675407974,-1.065792,-0.021472,0.080032,8.8725,4.3925,-0.77875,22.920002,23.416,19.432001,eccentric,3,3.0,41686.0,226828.0,93935.0,226751.0,106416.0
2026-04-14 17:26:21.739248,291960,1609505075447487,2675416668,-1.065792,-0.021472,0.080032,15.89,4.445,-0.79625,22.208,23.888,19.432001,eccentric,3,3.0,41686.0,226828.0,93935.0,226751.0,106416.0
2026-04-14 17:26:21.747441,291961,1609505075462020,2675431675,-1.104832,-0.013664,0.046848,15.225,3.21125,-0.3675,22.224,23.400002,17.880001,eccentric,3,3.0,41686.0,226828.0,93935.0,226751.0,106416.0
2026-04-14 17:26:21.755244,291962,1609505075470995,2675440570,-1.104832,-0.013664,0.046848,7.455,2.7475,-0.7,22.224,23.400002,17.880001,eccentric,3,3.0,41686.0,226828.0,93935.0,226751.0,106416.0
2026-04-14 17:26:21.776764,291963,1609505075485589,2675455535,-1.046272,-0.089792,0.076128,-0.09625,3.2725,-1.96875,22.704,23.216002,16.696001,eccentric,3,3.0,41686.0,226828.0,93935.0,226751.0,106416.0
2026-04-14 17:26:21.784106,291964,1609505075494753,2675464239,-1.046272,-0.089792,0.076128,-3.395,3.185,-3.45625,22.704,23.216002,16.696001,eccentric,3,3.0,41686.0,226828.0,93935.0,226751.0,106416.0
2026-04-14 17:26:21.794086,291965,1609505075509234,2675479117,-1.038464,-0.050752,0.20496,-1.0675,3.395,-4.55875,22.088001,23.408,17.608002,eccentric,3,3.0,41686.0,226828.0,93935.0,226751.0,106416.0
2026-04-14 17:26:21.824615,291966,1609505075518238,2675487814,-1.038464,-0.050752,0.20496,2.40625,3.80625,-5.04,22.088001,23.408,17.608002,eccentric,3,3.0,41686.0,226828.0,93935.0,226751.0,106416.0
2026-04-14 17:26:21.873750,291977,1609505075527338,2675496546,-1.028704,-0.031232,0.220576,1.3125,3.03625,-5.83625,22.296001,23.032001,16.312,eccentric,3,3.0,41584.0,226812.0,93675.0,226730.0,106089.0
2026-04-14 17:26:21.876312,291978,1609505075541844,2675511432,-1.020896,-0.062464,0.10736,-2.5375,1.56625,-5.25875,21.768002,23.344002,18.248001,eccentric,3,3.0,41584.0,226812.0,93675.0,226730.0,106089.0
2026-04-14 17:26:21.878655,291979,1609505075550766,2675520210,-1.020896,-0.062464,0.10736,-6.13375,0.875,-4.80375,21.768002,23.344002,18.248001,eccentric,3,3.0,41584.0,226812.0,93675.0,226730.0,106089.0
2026-04-14 17:26:21.883897,291980,1609505075565219,2675535080,-1.11264,-0.05856,0.07808,-6.71125,0.98875,-4.7775,22.160002,23.272001,17.792002,eccentric,3,3.0,41584.0,226812.0,93675.0,226730.0,106089.0
2026-04-14 17:26:21.886406,291981,1609505075574138,2675543734,-1.11264,-0.05856,0.07808,-4.5325,0.79625,-4.55875,22.160002,23.272001,17.792002,eccentric,3,3.0,41584.0,226812.0,93675.0,226730.0,106089.0
2026-04-14 17:26:21.888857,291982,1609505075588638,2675558658,-1.124352,-0.025376,0.046848,0.1225,0.56,-4.17375,22.216002,23.392,17.992,eccentric,3,3.0,41584.0,226812.0,93675.0,226730.0,106089.0
2026-04-14 17:26:21.891426,291983,1609505075597598,2675567359,-1.124352,-0.025376,0.046848,5.85375,0.28875,-3.98125,22.216002,23.392,17.992,eccentric,3,3.0,41584.0,226812.0,93675.0,226730.0,106089.0
2026-04-14 17:26:21.893930,291984,1609505075606577,2675576051,-1.065792,0.001952,0.003904,8.16375,0.175,-4.15625,22.176,23.456001,17.576,eccentric,3,3.0,41584.0,226812.0,93675.0,226730.0,106089.0
2026-04-14 17:26:21.905155,291985,1609505075621060,2675590970,-1.04432,0.005856,0.22448,4.27,0.0875,-4.165,22.168001,23.088001,17.608002,eccentric,3,3.0,41584.0,226812.0,93675.0,226730.0,106089.0
2026-04-14 17:26:21.936440,291996,1609505075630625,2675599702,-1.04432,0.005856,0.22448,-4.025,-0.56875,-4.20875,22.168001,23.088001,17.608002,eccentric,3,3.0,40949.0,224909.0,92563.0,225363.0,104867.0
2026-04-14 17:26:21.938914,291997,1609505075645218,2675614620,-1.077504,-0.035136,0.191296,-10.03625,-0.4375,-3.885,23.144001,22.928001,16.744001,eccentric,3,3.0,40949.0,224909.0,92563.0,225363.0,104867.0
2026-04-14 17:26:21.941436,291998,1609505075654149,2675623372,-1.077504,-0.035136,0.191296,-9.33625,0.07875,-3.87625,23.144001,22.928001,16.744001,eccentric,3,3.0,40949.0,224909.0,92563.0,225363.0,104867.0
2026-04-14 17:26:21.949162,291999,1609505075663072,2675632091,-1.032608,-0.064416,0.064416,-1.89,0.93625,-3.0275,22.856,23.088001,17.176,eccentric,3,3.0,40949.0,224909.0,92563.0,225363.0,104867.0
2026-04-14 17:26:21.962365,292000,1609505075677528,2675646987,-1.032608,-0.064416,0.064416,4.515,1.4175,-2.03,22.856,23.088001,17.176,eccentric,3,3.0,40949.0,224909.0,92563.0,225363.0,104867.0
2026-04-14 17:26:21.970015,292001,1609505075686444,2675655689,-1.081408,0.027328,0.20496,7.3325,1.37375,-0.8575,22.832,23.488,18.192001,eccentric,3,3.0,40949.0,224909.0,92563.0,225363.0,104867.0
2026-04-14 17:26:21.988858,292002,1609505075700901,2675670542,-1.118496,-0.001952,-0.013664,6.11625,0.5075,-0.5075,22.408,23.256,18.52,eccentric,3,3.0,40949.0,224909.0,92563.0,225363.0,104867.0
2026-04-14 17:26:21.995141,292003,1609505075709828,2675679242,-1.118496,-0.001952,-0.013664,1.70625,0.175,-0.95375,22.408,23.256,18.52,eccentric,3,3.0,40949.0,224909.0,92563.0,225363.0,104867.0
2026-04-14 17:26:22.008938,292004,1609505075724319,2675694134,-1.069696,-0.072224,-0.02928,-2.5725,-0.21875,-0.93625,22.648,22.808,16.904001,eccentric,3,3.0,40949.0,224909.0,92563.0,225363.0,104867.0
2026-04-14 17:26:22.036457,292015,1609505075733443,2675702941,-1.069696,-0.072224,-0.02928,-2.6775,-0.14875,-0.4725,22.648,22.808,16.904001,eccentric,3,3.0,41162.0,226325.0,92760.0,226438.0,105231.0
2026-04-14 17:26:22.038947,292016,1609505075742501,2675711681,-1.018944,-0.042944,0.18544,0.23625,0.30625,-0.735,23.12,22.976002,17.0,eccentric,3,3.0,41162.0,226325.0,92760.0,226438.0,105231.0
2026-04-14 17:26:22.041360,292017,1609505075756971,2675726542,-1.018944,-0.042944,0.18544,5.5825,0.63875,-0.25375,23.12,22.976002,17.0,eccentric,3,3.0,41162.0,226325.0,92760.0,226438.0,105231.0
2026-04-14 17:26:22.050045,292018,1609505075765915,2675735241,-1.028704,-0.03904,0.1464,9.6075,1.015,-0.00875,22.888,22.880001,17.424002,eccentric,3,3.0,41162.0,226325.0,92760.0,226438.0,105231.0
2026-04-14 17:26:22.065430,292019,1609505075780394,2675750164,-1.028704,-0.080032,0.064416,9.70375,0.455,-0.315,22.888,22.880001,17.424002,eccentric,3,3.0,41162.0,226325.0,92760.0,226438.0,105231.0
2026-04-14 17:26:22.074183,292020,1609505075789313,2675758859,-0.991616,-0.080032,0.064416,5.88,-0.8925,-0.1225,23.216002,22.592001,15.312,eccentric,3,3.0,41162.0,226325.0,92760.0,226438.0,105231.0
2026-04-14 17:26:22.087896,292021,1609505075803788,2675773719,-0.979904,-0.083936,0.074176,4.4975,-1.77625,0.3675,22.552002,23.000002,17.992,eccentric,3,3.0,41162.0,226325.0,92760.0,226438.0,105231.0
2026-04-14 17:26:22.096332,292022,1609505075812708,2675782388,-0.979904,-0.083936,0.074176,5.46875,-2.31,-0.13125,22.552002,23.000002,17.992,eccentric,3,3.0,41162.0,226325.0,92760.0,226438.0,105231.0
2026-04-14 17:26:22.108045,292023,1609505075821617,2675791100,-1.095072,0.013664,0.0,6.78125,-3.0275,-1.28625,22.52,22.336,16.512001,eccentric,3,3.0,41162.0,226325.0,92760.0,226438.0,105231.0
2026-04-14 17:26:22.136259,292034,1609505075836150,2675806077,-1.095072,0.013664,0.0,10.57,-2.12625,-1.00625,22.52,22.336,16.512001,eccentric,3,3.0,47177.0,243072.0,102927.0,240573.0,116517.0
2026-04-14 17:26:22.141421,292035,1609505075845103,2675814817,-1.028704,0.013664,0.00976,12.9675,-0.9625,-1.295,22.408,22.504002,18.632,eccentric,3,3.0,47177.0,243072.0,102927.0,240573.0,116517.0
2026-04-14 17:26:22.144543,292036,1609505075859620,2675829773,-1.028704,0.013664,0.00976,8.58375,0.48125,-2.345,22.408,22.504002,18.632,eccentric,3,3.0,47177.0,243072.0,102927.0,240573.0,116517.0
2026-04-14 17:26:22.171971,292037,1609505075868561,2675838459,-1.030656,-0.03904,-0.013664,0.55125,1.93375,-2.4675,22.336,22.856,17.6,eccentric,3,3.0,47177.0,243072.0,102927.0,240573.0,116517.0
2026-04-14 17:26:22.196243,292038,1609505075883020,2675853319,-1.032608,-0.060512,-0.015616,-5.32,3.71,-2.09125,22.384,23.032001,19.320002,eccentric,3,3.0,47177.0,243072.0,102927.0,240573.0,116517.0
2026-04-14 17:26:22.221764,292039,1609505075891923,2675862076,-1.032608,-0.060512,-0.015616,-5.43375,6.53625,-2.44125,22.384,23.032001,19.320002,eccentric,3,3.0,47177.0,243072.0,102927.0,240573.0,116517.0
2026-04-14 17:26:22.236156,292040,1609505075900834,2675870758,-1.032608,-0.060512,0.187392,-1.155,9.96625,-2.8875,22.384,23.032001,19.320002,eccentric,3,3.0,47177.0,243072.0,102927.0,240573.0,116517.0
2026-04-14 17:26:22.240239,292041,1609505075915309,2675885657,-0.962336,0.011712,0.187392,3.61375,12.792501,-4.06875,21.76,22.744001,21.608002,eccentric,3,3.0,47177.0,243072.0,102927.0,240573.0,116517.0
2026-04-14 17:26:22.241220,292042,1609505075924221,2675894312,-0.915488,0.01952,0.072224,7.3675,14.69125,-6.16875,21.936,22.688002,18.160002,eccentric,3,3.0,47177.0,243072.0,102927.0,240573.0,116517.0
2026-04-14 17:26:22.269162,292053,1609505075938787,2675907164,-0.915488,0.01952,0.072224,8.39125,15.47875,-8.68,21.936,22.688002,18.160002,eccentric,3,3.0,52411.0,247405.0,111872.0,244497.0,125631.0
2026-04-14 17:26:22.271705,292054,1609505075948002,2675917937,-0.874496,0.015616,0.040992,8.2075,15.74125,-11.33125,22.704,22.6,18.296001,eccentric,3,3.0,52411.0,247405.0,111872.0,244497.0,125631.0
2026-04-14 17:26:22.274224,292055,1609505075956903,2675926634,-0.874496,0.015616,0.040992,6.93875,15.12875,-12.73125,22.704,22.6,18.296001,eccentric,3,3.0,52411.0,247405.0,111872.0,244497.0,125631.0
2026-04-14 17:26:22.276720,292056,1609505075971428,2675941515,-0.89792,-0.021472,0.162016,4.4275,15.44375,-14.455,22.784,22.240002,18.560001,eccentric,3,3.0,52411.0,247405.0,111872.0,244497.0,125631.0
2026-04-14 17:26:22.278622,292057,1609505075980433,2675950237,-0.89792,-0.021472,0.162016,2.555,16.0475,-15.37375,22.784,22.240002,18.560001,eccentric,3,3.0,52411.0,247405.0,111872.0,244497.0,125631.0
2026-04-14 17:26:22.281283,292058,1609505075994958,2675965118,-0.979904,-0.074176,-0.115168,1.02375,16.45,-15.435,22.768002,22.528002,18.304,eccentric,3,3.0,52411.0,247405.0,111872.0,244497.0,125631.0
2026-04-14 17:26:22.287984,292059,1609505076003904,2675973822,-1.098976,-0.050752,-0.056608,2.0125,16.93125,-14.542501,23.152,22.888,17.624,eccentric,3,3.0,52411.0,247405.0,111872.0,244497.0,125631.0
2026-04-14 17:26:22.302976,292060,1609505076018380,2675988700,-1.098976,-0.050752,-0.056608,8.79375,18.97875,-12.38125,23.152,22.888,17.624,eccentric,3,3.0,52411.0,247405.0,111872.0,244497.0,125631.0
2026-04-14 17:26:22.312450,292061,1609505076027293,2675997382,-0.968192,-0.089792,0.113216,14.175,21.34125,-9.24875,24.048,22.304,17.368,eccentric,3,3.0,52411.0,247405.0,111872.0,244497.0,125631.0
2026-04-14 17:26:22.341014,292072,1609505076036276,2676006145,-0.968192,-0.089792,0.113216,10.22,22.44375,-8.14625,24.048,22.304,17.368,eccentric,3,3.0,46338.0,232657.0,101992.0,233006.0,115313.0
2026-04-14 17:26:22.342563,292073,1609505076050798,2676021054,-1.026752,-0.015616,0.128832,7.5075,23.6425,-7.0175,23.768002,22.168001,18.44,eccentric,3,3.0,46338.0,232657.0,101992.0,233006.0,115313.0
2026-04-14 17:26:22.344996,292074,1609505076059730,2676029754,-1.026752,-0.015616,0.128832,7.91875,25.4625,-5.6175,23.768002,22.168001,18.44,eccentric,3,3.0,46338.0,232657.0,101992.0,233006.0,115313.0
2026-04-14 17:26:22.356599,292075,1609505076074212,2676042615,-1.157536,0.017568,-0.00976,6.6675,26.285,-5.355,23.800001,22.192001,18.672,eccentric,3,3.0,46338.0,232657.0,101992.0,233006.0,115313.0
2026-04-14 17:26:22.367847,292076,1609505076083440,2676053368,-1.016992,-0.046848,0.081984,1.58375,26.69625,-5.5475,24.736002,22.064001,19.104,eccentric,3,3.0,46338.0,232657.0,101992.0,233006.0,115313.0
2026-04-14 17:26:22.382509,292077,1609505076097890,2676066232,-1.016992,-0.046848,0.081984,-3.33375,26.897501,-5.4775,24.736002,22.064001,19.104,eccentric,3,3.0,46338.0,232657.0,101992.0,233006.0,115313.0
2026-04-14 17:26:22.394198,292078,1609505076107102,2676076977,-1.057984,-0.089792,-0.13664,-6.7725,26.31125,-6.265,24.144001,21.960001,17.128,eccentric,3,3.0,46338.0,232657.0,101992.0,233006.0,115313.0
2026-04-14 17:26:22.403684,292079,1609505076116022,2676085652,-1.057984,-0.089792,-0.13664,-6.7375,25.31375,-6.58875,24.144001,21.960001,17.128,eccentric,3,3.0,46338.0,232657.0,101992.0,233006.0,115313.0
2026-04-14 17:26:22.439075,292090,1609505076130539,2676100903,-1.081408,-0.044896,0.005856,-3.01875,25.57625,-5.87125,24.984001,21.808,17.136002,eccentric,3,3.0,43855.0,226972.0,97886.0,228557.0,110924.0
2026-04-14 17:26:22.441588,292091,1609505076139765,2676109693,-1.081408,-0.044896,0.005856,0.04375,26.565,-4.6725,24.984001,21.808,17.136002,eccentric,3,3.0,43855.0,226972.0,97886.0,228557.0,110924.0
2026-04-14 17:26:22.444116,292092,1609505076154348,2676124622,-1.026752,-0.080032,-0.111264,-2.42375,26.74875,-3.94625,25.712002,21.768002,16.888,eccentric,3,3.0,43855.0,226972.0,97886.0,228557.0,110924.0
2026-04-14 17:26:22.450460,292093,1609505076163307,2676133295,-1.013088,-0.080032,-0.140544,-6.4225,26.55625,-3.36875,25.712002,21.776001,15.424001,eccentric,3,3.0,43855.0,226972.0,97886.0,228557.0,110924.0
2026-04-14 17:26:22.456826,292094,1609505076172273,2676141998,-1.013088,-0.080032,-0.140544,-8.54,25.69875,-2.30125,25.920002,21.776001,15.424001,eccentric,3,3.0,43855.0,226972.0,97886.0,228557.0,110924.0
2026-04-14 17:26:22.473006,292095,1609505076186770,2676156899,-0.983808,-0.093696,-0.054656,-8.02375,24.57,-2.2925,26.168001,21.928001,16.312,eccentric,3,3.0,43855.0,226972.0,97886.0,228557.0,110924.0
2026-04-14 17:26:22.480500,292096,1609505076195688,2676165611,-0.983808,-0.093696,-0.054656,-4.96125,24.745,-2.38,26.168001,21.928001,16.312,eccentric,3,3.0,43855.0,226972.0,97886.0,228557.0,110924.0
2026-04-14 17:26:22.495447,292097,1609505076210163,2676180499,-1.067744,-0.027328,-0.064416,-2.54625,24.82375,-2.8,25.344002,21.76,16.76,eccentric,3,3.0,43855.0,226972.0,97886.0,228557.0,110924.0
2026-04-14 17:26:22.511757,292098,1609505076219089,2676189185,-1.067744,-0.027328,-0.064416,-2.49375,25.24375,-3.92875,25.344002,21.76,16.76,eccentric,3,3.0,43855.0,226972.0,97886.0,228557.0,110924.0
2026-04-14 17:26:22.607587,292109,1609505076234034,2676204120,-1.077504,-0.011712,0.064416,-6.65875,25.725,-6.79,26.152,21.432001,16.336,eccentric,3,3.0,43682.0,227255.0,97617.0,228589.0,110549.0
2026-04-14 17:26:22.611752,292110,1609505076243053,2676212848,-1.077504,-0.011712,-0.02928,-9.33625,25.4275,-9.511251,26.152,21.432001,16.336,eccentric,3,3.0,43682.0,227255.0,97617.0,228589.0,110549.0
2026-04-14 17:26:22.615513,292111,1609505076252020,2676221577,-1.00528,-0.066368,-0.027328,-11.8475,23.7125,-11.01625,26.632002,21.464,16.288,eccentric,3,3.0,43682.0,227255.0,97617.0,228589.0,110549.0
2026-04-14 17:26:22.617366,292112,1609505076266474,2676236465,-1.052128,-0.081984,0.050752,-16.9925,21.32375,-11.38375,26.680002,21.992,16.368,eccentric,3,3.0,43682.0,227255.0,97617.0,228589.0,110549.0
2026-04-14 17:26:22.620330,292113,1609505076275384,2676245145,-1.052128,-0.081984,0.050752,-20.67625,20.08125,-10.84125,26.680002,21.992,16.368,eccentric,3,3.0,43682.0,227255.0,97617.0,228589.0,110549.0
2026-04-14 17:26:22.622493,292114,1609505076289855,2676260044,-1.059936,-0.12688,-0.140544,-22.960001,20.3875,-9.8525,26.848001,21.952002,16.624,eccentric,3,3.0,43682.0,227255.0,97617.0,228589.0,110549.0
2026-04-14 17:26:22.625376,292115,1609505076298757,2676268742,-1.059936,-0.12688,-0.140544,-22.93375,20.475,-9.61625,26.848001,21.952002,16.624,eccentric,3,3.0,43682.0,227255.0,97617.0,228589.0,110549.0
2026-04-14 17:26:22.627874,292116,1609505076313228,2676281578,-1.00528,-0.130784,-0.111264,-20.6675,21.0,-8.26875,26.448002,21.936,16.336,eccentric,3,3.0,43682.0,227255.0,97617.0,228589.0,110549.0
2026-04-14 17:26:22.630377,292117,1609505076322381,2676292297,-1.00528,-0.130784,-0.111264,-15.26875,21.14875,-6.85125,26.448002,21.936,16.336,eccentric,3,3.0,43682.0,227255.0,97617.0,228589.0,110549.0
2026-04-14 17:26:22.657999,292128,1609505076331676,2676301071,-1.026752,-0.042944,0.054656,-10.22875,20.51875,-5.24125,27.136002,21.448002,15.736001,eccentric,3,3.0,42952.0,226072.0,96322.0,228161.0,109214.0
2026-04-14 17:26:22.660445,292129,1609505076346231,2676316025,-1.052128,0.017568,-0.025376,-10.85875,19.45125,-3.9025,27.088001,21.816002,16.736,eccentric,3,3.0,42952.0,226072.0,96322.0,228161.0,109214.0
2026-04-14 17:26:22.662580,292130,1609505076355142,2676324777,-1.052128,0.017568,-0.025376,-17.28125,19.62625,-4.01625,27.088001,21.816002,16.736,eccentric,3,3.0,42952.0,226072.0,96322.0,228161.0,109214.0
2026-04-14 17:26:22.665021,292131,1609505076369653,2676339702,-1.00528,-0.003904,0.093696,-26.022501,19.60875,-5.83625,27.152,22.208,16.968,eccentric,3,3.0,42952.0,226072.0,96322.0,228161.0,109214.0
2026-04-14 17:26:22.668056,292132,1609505076378704,2676348393,-1.00528,-0.003904,0.093696,-32.08625,19.32875,-7.735,27.152,22.208,16.968,eccentric,3,3.0,42952.0,226072.0,96322.0,228161.0,109214.0
2026-04-14 17:26:22.671467,292133,1609505076387620,2676357066,-1.040416,-0.121024,-0.20496,-31.84125,19.60875,-9.4325,26.320002,22.144001,17.416,eccentric,3,3.0,42952.0,226072.0,96322.0,228161.0,109214.0
2026-04-14 17:26:22.688080,292134,1609505076402167,2676371932,-1.040416,-0.121024,-0.20496,-28.866251,19.460001,-11.05125,26.320002,22.144001,17.416,eccentric,3,3.0,42952.0,226072.0,96322.0,228161.0,109214.0
2026-04-14 17:26:22.699119,292135,1609505076411096,2676380630,-1.020896,-0.124928,-0.132736,-21.16625,18.76,-11.7425,26.04,21.968,16.44,eccentric,3,3.0,42952.0,226072.0,96322.0,228161.0,109214.0
2026-04-14 17:26:22.711271,292136,1609505076425557,2676395501,-1.114592,-0.003904,-0.130784,-10.91125,18.10375,-11.4275,26.144001,21.856,16.744001,eccentric,3,3.0,42952.0,226072.0,96322.0,228161.0,109214.0
2026-04-14 17:26:22.742564,292147,1609505076434997,2676404762,-1.114592,-0.003904,-0.130784,-3.24625,17.710001,-11.29625,26.144001,21.856,16.744001,eccentric,3,3.0,45483.0,233143.0,100527.0,234312.0,113825.0
2026-04-14 17:26:22.745607,292148,1609505076443970,2676413509,-1.114592,-0.003904,-0.130784,-4.26125,17.28125,-12.03125,26.144001,21.856,16.744001,eccentric,3,3.0,45483.0,233143.0,100527.0,234312.0,113825.0
2026-04-14 17:26:22.747948,292149,1609505076458551,2676428489,-1.009184,-0.054656,0.035136,-12.8625,16.73,-13.62375,24.784,21.536001,19.808,eccentric,3,3.0,45483.0,233143.0,100527.0,234312.0,113825.0
2026-04-14 17:26:22.753057,292150,1609505076467478,2676437190,-1.028704,-0.119072,0.00976,-19.985,16.2925,-13.9825,23.840002,21.624,18.088001,eccentric,3,3.0,45483.0,233143.0,100527.0,234312.0,113825.0
2026-04-14 17:26:22.766810,292151,1609505076481950,2676452040,-1.028704,-0.119072,0.00976,-22.04125,14.665,-13.3175,23.840002,21.624,18.088001,eccentric,3,3.0,45483.0,233143.0,100527.0,234312.0,113825.0
2026-04-14 17:26:22.776806,292152,1609505076490999,2676460743,-1.18096,-0.064416,-0.163968,-18.03375,12.775,-11.06875,23.472002,20.952002,16.744001,eccentric,3,3.0,45483.0,233143.0,100527.0,234312.0,113825.0
2026-04-14 17:26:22.812604,292153,1609505076505480,2676475656,-1.013088,-0.035136,0.085888,-15.225,11.7425,-9.40625,21.424002,20.76,15.400001,eccentric,3,3.0,45483.0,233143.0,100527.0,234312.0,113825.0
2026-04-14 17:26:22.815465,292154,1609505076514386,2676484308,-1.013088,-0.035136,0.085888,-18.41,11.5325,-8.23375,22.400002,20.76,15.400001,eccentric,3,3.0,45483.0,233143.0,100527.0,234312.0,113825.0
2026-04-14 17:26:22.817953,292155,1609505076523306,2676492968,-1.013088,-0.035136,0.085888,-25.64625,11.9,-8.2425,22.400002,20.76,15.400001,eccentric,3,3.0,45483.0,233143.0,100527.0,234312.0,113825.0
2026-04-14 17:26:22.850530,292166,1609505076538033,2676507960,-1.022848,-0.138592,-0.101504,-31.15875,10.9725,-8.68,21.672,20.376001,14.016001,eccentric,3,3.0,47433.0,241071.0,103566.0,240449.0,117156.0
2026-04-14 17:26:22.852672,292167,1609505076547021,2676516656,-1.0736,-0.103456,-0.091744,-29.14625,10.52625,-8.42625,21.056002,20.216002,14.736001,eccentric,3,3.0,47433.0,241071.0,103566.0,240449.0,117156.0
2026-04-14 17:26:22.855525,292168,1609505076561498,2676531540,-1.0736,-0.103456,-0.091744,-20.1775,10.386251,-7.32375,21.056002,20.216002,14.736001,eccentric,3,3.0,47433.0,241071.0,103566.0,240449.0,117156.0
2026-04-14 17:26:22.857880,292169,1609505076570448,2676540306,-1.065792,0.021472,0.013664,-11.0075,9.61625,-8.42625,20.304,19.832,12.72,eccentric,3,3.0,47433.0,241071.0,103566.0,240449.0,117156.0
2026-04-14 17:26:22.872999,292170,1609505076584960,2676555205,-1.065792,0.021472,0.013664,-8.225,8.05,-9.35375,20.304,19.832,12.72,eccentric,3,3.0,47433.0,241071.0,103566.0,240449.0,117156.0
2026-04-14 17:26:22.878797,292171,1609505076593884,2676563958,-0.991616,-0.027328,-0.046848,-15.79375,6.50125,-9.948751,20.672,19.848001,10.824,eccentric,3,3.0,47433.0,241071.0,103566.0,240449.0,117156.0
2026-04-14 17:26:22.888850,292172,1609505076602840,2676572635,-0.991616,-0.027328,-0.046848,-27.973751,4.36625,-10.6575,20.672,19.848001,10.824,eccentric,3,3.0,47433.0,241071.0,103566.0,240449.0,117156.0
2026-04-14 17:26:22.928171,292173,1609505076617311,2676587507,-1.106784,-0.173728,-0.249856,-32.41875,3.47375,-10.94625,20.304,19.552,9.344001,eccentric,3,3.0,47433.0,241071.0,103566.0,240449.0,117156.0
2026-04-14 17:26:22.930008,292174,1609505076626195,2676596197,-1.03456,-0.162016,-0.279136,-25.3575,3.71875,-9.6075,22.352001,19.84,8.304001,eccentric,3,3.0,47433.0,241071.0,103566.0,240449.0,117156.0
