pc_time,serial_num,sensor_ts,host_ts,ax,ay,az,gx,gy,gz,mx,my,mz,phase,rpe,weight_kg,ppg_a,ppg_b,ppg_c,ppg_d,ppg_e
2026-04-14 17:26:28.336424,293195,1609505082050851,2682021066,-0.952576,-0.050752,0.173728,-28.175,-23.485,11.97875,24.624,24.920002,13.816001,eccentric,3,3.0,47619.0,230055.0,105899.0,232449.0,118810.0
2026-04-14 17:26:28.344986,293196,1609505082059836,2682029742,-0.952576,-0.050752,0.12688,-19.88875,-21.98875,11.75125,24.624,24.920002,13.816001,eccentric,3,3.0,47619.0,230055.0,105899.0,232449.0,118810.0
2026-04-14 17:26:28.372992,293207,1609505082074375,2682044699,-0.835456,-0.00976,0.12688,0.0,-20.335001,11.305,24.68,24.52,15.592001,eccentric,3,3.0,46851.0,225309.0,104700.0,228720.0,117588.0
2026-04-14 17:26:28.385384,293208,1609505082083345,2682053462,-0.886208,0.121024,0.232288,13.53625,-19.69625,12.495,24.04,24.52,14.976001,eccentric,3,3.0,46851.0,225309.0,104700.0,228720.0,117588.0
2026-04-14 17:26:28.385577,293209,1609505082097917,2682066295,-0.886208,0.121024,0.232288,12.01375,-19.71375,13.32625,24.04,24.52,14.976001,eccentric,3,3.0,46851.0,225309.0,104700.0,228720.0,117588.0
2026-04-14 17:26:28.391371,293210,1609505082107101,2682077129,-0.915488,0.02928,0.18544,2.09125,-19.53875,12.565,24.104002,25.000002,14.6,eccentric,3,3.0,46851.0,225309.0,104700.0,228720.0,117588.0
2026-04-14 17:26:28.401498,293211,1609505082116013,2682085825,-0.915488,0.02928,0.18544,-5.10125,-17.87625,10.36,24.104002,25.000002,14.6,eccentric,3,3.0,46851.0,225309.0,104700.0,228720.0,117588.0
2026-04-14 17:26:28.440223,293212,1609505082130523,2682100673,-0.93696,0.066368,0.064416,-1.33875,-14.761251,6.86875,23.936,24.128,13.976001,eccentric,3,3.0,46851.0,225309.0,104700.0,228720.0,117588.0
2026-04-14 17:26:28.442770,293213,1609505082139465,2682109336,-0.93696,0.066368,0.064416,12.4075,-14.323751,3.19375,23.936,24.128,13.976001,eccentric,3,3.0,46851.0,225309.0,104700.0,228720.0,117588.0
2026-04-14 17:26:28.445300,293214,1609505082153947,2682124250,-0.911584,0.085888,0.021472,18.7775,-16.26625,1.2425,24.376001,24.184002,14.032001,eccentric,3,3.0,46851.0,225309.0,104700.0,228720.0,117588.0
2026-04-14 17:26:28.495045,293225,1609505082162845,2682133018,-0.950624,-0.007808,0.251808,11.41875,-17.84125,3.29,24.392002,23.928001,13.832001,eccentric,3,3.0,46535.0,229626.0,103924.0,231958.0,116784.0
2026-04-14 17:26:28.497748,293226,1609505082172344,2682141813,-0.950624,-0.007808,0.251808,-3.94625,-17.71875,6.74625,24.392002,23.928001,13.832001,eccentric,3,3.0,46535.0,229626.0,103924.0,231958.0,116784.0
2026-04-14 17:26:28.500178,293227,1609505082186816,2682156649,-0.942816,-0.05856,0.308416,-12.85375,-16.31,9.073751,24.816002,23.976002,14.240001,eccentric,3,3.0,46535.0,229626.0,103924.0,231958.0,116784.0
2026-04-14 17:26:28.502756,293228,1609505082195862,2682165340,-0.942816,-0.05856,0.308416,-4.27875,-12.15375,9.03875,24.816002,23.976002,14.240001,eccentric,3,3.0,46535.0,229626.0,103924.0,231958.0,116784.0
2026-04-14 17:26:28.505119,293229,1609505082210360,2682180242,-0.960384,0.095648,0.072224,18.025,-7.9975,7.07,24.448002,23.568,14.256001,eccentric,3,3.0,46535.0,229626.0,103924.0,231958.0,116784.0
2026-04-14 17:26:28.507746,293230,1609505082219293,2682188914,-0.960384,0.095648,0.072224,35.53375,-7.30625,5.1275,24.448002,23.568,14.256001,eccentric,3,3.0,46535.0,229626.0,103924.0,231958.0,116784.0
2026-04-14 17:26:28.517743,293231,1609505082233805,2682203893,-0.948672,0.1464,0.064416,34.60625,-11.305,3.3775,24.216002,23.056002,14.728001,eccentric,3,3.0,46535.0,229626.0,103924.0,231958.0,116784.0
2026-04-14 17:26:28.527711,293232,1609505082242725,2682212584,-0.921344,-0.001952,0.298656,20.27375,-16.065,2.9575,24.160002,23.144001,15.488001,eccentric,3,3.0,46535.0,229626.0,103924.0,231958.0,116784.0
2026-04-14 17:26:28.536465,293233,1609505082251670,2682221276,-0.921344,-0.001952,0.298656,6.3,-19.39875,4.26125,24.160002,23.144001,15.488001,eccentric,3,3.0,46535.0,229626.0,103924.0,231958.0,116784.0
2026-04-14 17:26:28.597775,293244,1609505082266247,2682236566,-0.93696,-0.091744,0.132736,3.885,-18.76875,5.74875,24.224,23.176,15.384001,eccentric,3,3.0,51590.0,245297.0,111645.0,243647.0,125213.0
2026-04-14 17:26:28.600491,293245,1609505082275266,2682245256,-0.93696,-0.091744,0.132736,12.285,-14.07,5.0925,24.224,23.176,15.384001,eccentric,3,3.0,51590.0,245297.0,111645.0,243647.0,125213.0
2026-04-14 17:26:28.603038,293246,1609505082289737,2682258101,-0.99552,0.06832,0.113216,26.565,-9.86125,3.3075,24.048,22.936,16.776001,eccentric,3,3.0,51590.0,245297.0,111645.0,243647.0,125213.0
2026-04-14 17:26:28.605038,293247,1609505082298943,2682268895,-0.99552,0.06832,0.113216,36.9425,-6.4925,0.525,24.048,22.936,16.776001,eccentric,3,3.0,51590.0,245297.0,111645.0,243647.0,125213.0
2026-04-14 17:26:28.608047,293248,1609505082307903,2682277601,-1.011136,0.103456,0.255712,36.25125,-5.38125,-2.51125,23.648,22.800001,16.776001,eccentric,3,3.0,51590.0,245297.0,111645.0,243647.0,125213.0
2026-04-14 17:26:28.610492,293249,1609505082322411,2682292496,-1.057984,0.03904,0.247904,25.71625,-5.41625,-6.55375,23.272001,22.784,16.272001,eccentric,3,3.0,51590.0,245297.0,111645.0,243647.0,125213.0
2026-04-14 17:26:28.618127,293250,1609505082331406,2682301200,-1.057984,0.03904,0.247904,16.87,-4.80375,-10.5175,23.272001,22.784,16.272001,eccentric,3,3.0,51590.0,245297.0,111645.0,243647.0,125213.0
2026-04-14 17:26:28.633056,293251,1609505082345909,2682316147,-1.052128,-0.011712,0.150304,17.675,-3.31625,-13.97375,23.608002,22.464,16.264,eccentric,3,3.0,51590.0,245297.0,111645.0,243647.0,125213.0
2026-04-14 17:26:28.640178,293252,1609505082354815,2682324816,-1.052128,-0.011712,0.150304,20.825,-3.15,-15.49625,23.608002,22.464,16.264,eccentric,3,3.0,51590.0,245297.0,111645.0,243647.0,125213.0
2026-04-14 17:26:28.671392,293263,1609505082369447,2682339754,-1.118496,0.03904,0.140544,20.1075,-3.6575,-14.665,22.960001,22.616001,17.912,eccentric,3,3.0,48885.0,238390.0,107335.0,238055.0,120507.0
2026-04-14 17:26:28.673902,293264,1609505082378440,2682348543,-1.118496,0.03904,0.140544,15.16375,-3.40375,-12.94125,22.960001,22.616001,17.912,eccentric,3,3.0,48885.0,238390.0,107335.0,238055.0,120507.0
2026-04-14 17:26:28.676393,293265,1609505082387387,2682357238,-1.079456,0.011712,0.076128,8.995,-1.98625,-12.2675,23.68,22.6,16.44,eccentric,3,3.0,48885.0,238390.0,107335.0,238055.0,120507.0
2026-04-14 17:26:28.687736,293266,1609505082401875,2682372120,-1.079456,0.011712,-0.017568,3.0975,0.53375,-11.71625,23.68,22.6,16.44,eccentric,3,3.0,48885.0,238390.0,107335.0,238055.0,120507.0
2026-04-14 17:26:28.695939,293267,1609505082410835,2682380824,-1.130208,0.021472,-0.031232,1.4525,2.17,-10.6925,23.584002,22.264002,15.704,eccentric,3,3.0,48885.0,238390.0,107335.0,238055.0,120507.0
2026-04-14 17:26:28.708477,293268,1609505082425305,2682393662,-1.116544,0.072224,-0.060512,5.5125,2.8,-11.10375,23.840002,22.544,16.128,eccentric,3,3.0,48885.0,238390.0,107335.0,238055.0,120507.0
2026-04-14 17:26:28.718962,293269,1609505082434470,2682404439,-1.116544,0.072224,-0.060512,11.305,1.42625,-11.1125,23.840002,22.544,16.128,eccentric,3,3.0,48885.0,238390.0,107335.0,238055.0,120507.0
2026-04-14 17:26:28.733855,293270,1609505082448919,2682417270,-1.038464,0.081984,0.0976,10.85,-0.7,-10.7275,23.880001,22.376001,16.656,eccentric,3,3.0,48885.0,238390.0,107335.0,238055.0,120507.0
2026-04-14 17:26:28.745199,293271,1609505082458074,2682428029,-1.038464,0.081984,0.0976,5.27625,-1.95125,-9.86125,23.880001,22.376001,16.656,eccentric,3,3.0,48885.0,238390.0,107335.0,238055.0,120507.0
2026-04-14 17:26:28.773966,293282,1609505082467158,2682436825,-1.087264,0.040992,0.050752,-1.05875,-1.1725,-9.40625,23.584002,22.344002,16.928001,eccentric,3,3.0,46829.0,232594.0,103925.0,233521.0,116955.0
2026-04-14 17:26:28.776538,293283,1609505082481684,2682451738,-1.087264,0.040992,0.050752,-3.56125,0.67375,-8.75,23.584002,22.344002,16.928001,eccentric,3,3.0,46829.0,232594.0,103925.0,233521.0,116955.0
2026-04-14 17:26:28.778849,293284,1609505082490771,2682460487,-1.098976,0.033184,-0.021472,-0.4025,2.8175,-8.30375,23.456001,22.792002,17.432001,eccentric,3,3.0,46829.0,232594.0,103925.0,233521.0,116955.0
2026-04-14 17:26:28.806482,293285,1609505082505323,2682475358,-1.065792,0.070272,-0.054656,4.3225,3.6575,-7.41125,23.008001,22.624,16.528,eccentric,3,3.0,46829.0,232594.0,103925.0,233521.0,116955.0
2026-04-14 17:26:28.832835,293286,1609505082514235,2682484018,-1.065792,0.070272,-0.054656,8.295,3.9375,-6.08125,23.008001,22.624,16.528,eccentric,3,3.0,46829.0,232594.0,103925.0,233521.0,116955.0
2026-04-14 17:26:28.856418,293287,1609505082523297,2682492740,-0.993568,0.080032,0.181536,9.8,3.36,-5.80125,23.008001,22.624,19.016,eccentric,3,3.0,46829.0,232594.0,103925.0,233521.0,116955.0
2026-04-14 17:26:28.858920,293288,1609505082537758,2682507613,-0.993568,0.080032,0.181536,7.105,2.87875,-5.20625,22.872002,22.624,19.016,eccentric,3,3.0,46829.0,232594.0,103925.0,233521.0,116955.0
2026-04-14 17:26:28.861473,293289,1609505082546657,2682516279,-0.974048,0.015616,0.076128,4.90875,3.05375,-5.215,22.824001,22.352001,17.688002,eccentric,3,3.0,46829.0,232594.0,103925.0,233521.0,116955.0
2026-04-14 17:26:28.863973,293290,1609505082561122,2682531193,-0.974048,0.015616,0.076128,4.12125,4.0775,-5.6175,22.824001,22.352001,17.688002,eccentric,3,3.0,46829.0,232594.0,103925.0,233521.0,116955.0
2026-04-14 17:26:28.891206,293301,1609505082570143,2682539964,-1.009184,0.062464,0.226432,7.175,6.0375,-6.02875,23.072,22.528002,18.512001,eccentric,3,3.0,47653.0,234070.0,105306.0,234904.0,118456.0
2026-04-14 17:26:28.893640,293302,1609505082584848,2682554934,-1.10288,0.05856,0.0,13.0725,8.365,-6.90375,22.496,22.376001,18.848001,eccentric,3,3.0,47653.0,234070.0,105306.0,234904.0,118456.0
2026-04-14 17:26:28.896190,293303,1609505082593907,2682563659,-1.10288,0.05856,0.0,15.8025,9.415,-7.67375,22.496,22.376001,18.848001,eccentric,3,3.0,47653.0,234070.0,105306.0,234904.0,118456.0
2026-04-14 17:26:28.898667,293304,1609505082602893,2682572356,-1.10288,0.05856,0.0,14.7,9.02125,-7.42875,22.496,22.376001,18.848001,eccentric,3,3.0,47653.0,234070.0,105306.0,234904.0,118456.0
2026-04-14 17:26:28.901327,293305,1609505082617483,2682587298,-0.987712,0.02928,0.210816,11.54125,8.93375,-7.23625,22.112001,22.656,20.824001,eccentric,3,3.0,47653.0,234070.0,105306.0,234904.0,118456.0
2026-04-14 17:26:28.910548,293306,1609505082626427,2682596021,-1.050176,0.025376,0.095648,9.73875,9.8175,-6.8775,23.032001,22.008001,17.752,eccentric,3,3.0,47653.0,234070.0,105306.0,234904.0,118456.0
2026-04-14 17:26:28.926628,293307,1609505082640885,2682610932,-1.050176,0.025376,0.095648,9.7125,10.78875,-7.035,23.032001,22.008001,17.752,eccentric,3,3.0,47653.0,234070.0,105306.0,234904.0,118456.0
2026-04-14 17:26:28.936689,293308,1609505082649819,2682619616,-0.921344,0.013664,0.220576,8.925,12.1975,-6.22125,24.320002,21.896002,16.960001,eccentric,3,3.0,47653.0,234070.0,105306.0,234904.0,118456.0
2026-04-14 17:26:28.943900,293309,1609505082658731,2682628303,-0.921344,0.013664,0.220576,6.37,12.8975,-6.34375,24.320002,21.896002,16.960001,eccentric,3,3.0,47653.0,234070.0,105306.0,234904.0,118456.0
2026-04-14 17:26:28.974289,293320,1609505082673323,2682643291,-1.061888,0.021472,0.066368,5.39875,13.86,-7.11375,24.160002,22.056002,17.76,eccentric,3,3.0,48645.0,234718.0,106981.0,235937.0,120155.0
2026-04-14 17:26:28.976304,293321,1609505082682440,2682652117,-1.061888,0.021472,0.066368,6.825,14.27125,-7.9975,24.160002,22.056002,17.76,eccentric,3,3.0,48645.0,234718.0,106981.0,235937.0,120155.0
2026-04-14 17:26:28.982673,293322,1609505082696953,2682667078,-1.040416,0.0,0.060512,8.72375,14.62125,-8.0325,23.328001,21.952002,18.232,eccentric,3,3.0,48645.0,234718.0,106981.0,235937.0,120155.0
2026-04-14 17:26:28.991759,293323,1609505082705898,2682675760,-1.059936,0.023424,0.01952,10.70125,15.61,-8.295,23.640001,21.856,17.720001,eccentric,3,3.0,48645.0,234718.0,106981.0,235937.0,120155.0
2026-04-14 17:26:29.006790,293324,1609505082720362,2682690626,-1.059936,0.023424,0.01952,14.533751,17.71875,-10.2375,23.640001,21.856,17.720001,eccentric,3,3.0,48645.0,234718.0,106981.0,235937.0,120155.0
2026-04-14 17:26:29.015734,293325,1609505082729290,2682699386,-1.028704,0.074176,-0.037088,17.1675,19.1975,-12.53875,24.192001,21.656,16.848001,eccentric,3,3.0,48645.0,234718.0,106981.0,235937.0,120155.0
2026-04-14 17:26:29.026052,293326,1609505082738254,2682708071,-1.028704,0.074176,-0.037088,13.5975,19.565,-14.13125,24.192001,21.656,16.848001,eccentric,3,3.0,48645.0,234718.0,106981.0,235937.0,120155.0
2026-04-14 17:26:29.039305,293327,1609505082752755,2682722980,-0.99552,0.027328,-0.042944,4.85625,19.8275,-15.3825,23.36,21.76,18.128,eccentric,3,3.0,48645.0,234718.0,106981.0,235937.0,120155.0
2026-04-14 17:26:29.049160,293328,1609505082761721,2682731697,-0.99552,0.027328,-0.042944,-3.10625,20.67625,-15.74125,23.36,21.76,18.128,eccentric,3,3.0,48645.0,234718.0,106981.0,235937.0,120155.0
2026-04-14 17:26:29.076842,293339,1609505082776257,2682744704,-1.071648,-0.060512,-0.074176,-8.5925,21.14,-14.60375,24.456001,21.76,17.096,eccentric,3,3.0,46480.0,227344.0,103555.0,230667.0,116426.0
2026-04-14 17:26:29.078846,293340,1609505082785597,2682755502,-0.999424,-0.017568,0.144448,-8.33875,21.6125,-13.55375,24.592001,22.112001,16.736,eccentric,3,3.0,46480.0,227344.0,103555.0,230667.0,116426.0
2026-04-14 17:26:29.081516,293341,1609505082794572,2682764205,-0.999424,-0.017568,0.144448,-1.61,22.98625,-12.48625,24.592001,22.112001,16.736,eccentric,3,3.0,46480.0,227344.0,103555.0,230667.0,116426.0
2026-04-14 17:26:29.095141,293342,1609505082809075,2682779118,-0.974048,0.02928,-0.066368,5.64375,23.616251,-12.66125,25.008001,21.728,16.464,eccentric,3,3.0,46480.0,227344.0,103555.0,230667.0,116426.0
2026-04-14 17:26:29.107616,293343,1609505082817969,2682787810,-0.974048,0.02928,-0.066368,6.72875,23.94,-12.3025,25.008001,21.728,16.464,eccentric,3,3.0,46480.0,227344.0,103555.0,230667.0,116426.0
2026-04-14 17:26:29.117970,293344,1609505082832498,2682802759,-0.94672,0.011712,0.134688,0.1225,23.94875,-11.62,24.944,21.912,16.488,eccentric,3,3.0,46480.0,227344.0,103555.0,230667.0,116426.0
2026-04-14 17:26:29.127948,293345,1609505082841421,2682811453,-0.94672,0.011712,0.134688,-9.91375,23.47625,-11.54125,24.944,21.912,16.488,eccentric,3,3.0,46480.0,227344.0,103555.0,230667.0,116426.0
2026-04-14 17:26:29.140536,293346,1609505082855873,2682824303,-1.007232,-0.050752,0.10736,-15.575,23.00375,-10.9725,25.080002,21.720001,16.384,eccentric,3,3.0,46480.0,227344.0,103555.0,230667.0,116426.0
2026-04-14 17:26:29.178058,293347,1609505082865143,2682835066,-1.007232,-0.003904,0.124928,-13.65,23.205,-9.6425,25.080002,21.720001,16.384,eccentric,3,3.0,46480.0,227344.0,103555.0,230667.0,116426.0
2026-04-14 17:26:29.250530,293358,1609505082874085,2682843879,-0.9272,-0.001952,0.124928,-8.9075,22.995,-8.60125,25.408,21.888,16.144001,eccentric,3,3.0,45148.0,222205.0,101641.0,226920.0,114314.0
2026-04-14 17:26:29.253027,293359,1609505082888570,2682858747,-0.960384,-0.013664,0.072224,-6.93875,23.66,-8.8025,24.68,22.504002,16.272001,eccentric,3,3.0,45148.0,222205.0,101641.0,226920.0,114314.0
2026-04-14 17:26:29.258068,293360,1609505082897467,2682867392,-0.960384,-0.013664,0.072224,-11.3925,24.85,-8.96,24.68,22.504002,16.272001,eccentric,3,3.0,45148.0,222205.0,101641.0,226920.0,114314.0
2026-04-14 17:26:29.260549,293361,1609505082911941,2682882274,-1.020896,-0.035136,0.08784,-17.01875,25.935,-9.0825,24.896002,22.272001,16.016,eccentric,3,3.0,45148.0,222205.0,101641.0,226920.0,114314.0
2026-04-14 17:26:29.262567,293362,1609505082920868,2682890960,-1.020896,-0.035136,0.08784,-18.305,26.20625,-9.28375,24.896002,22.272001,16.016,eccentric,3,3.0,45148.0,222205.0,101641.0,226920.0,114314.0
2026-04-14 17:26:29.265116,293363,1609505082935330,2682903795,-0.979904,-0.031232,0.021472,-13.18625,26.22375,-9.30125,25.768002,22.064001,15.568001,eccentric,3,3.0,45148.0,222205.0,101641.0,226920.0,114314.0
2026-04-14 17:26:29.267748,293364,1609505082944626,2682914595,-0.979904,-0.031232,0.021472,-8.3125,25.9875,-9.3975,25.768002,22.064001,15.568001,eccentric,3,3.0,45148.0,222205.0,101641.0,226920.0,114314.0
2026-04-14 17:26:29.270446,293365,1609505082953580,2682923309,-0.958432,0.017568,0.07808,-10.17625,26.18,-9.70375,26.28,22.392,13.8,eccentric,3,3.0,45148.0,222205.0,101641.0,226920.0,114314.0
2026-04-14 17:26:29.298369,293376,1609505082968297,2682938634,-1.077504,-0.021472,0.119072,-19.145,26.15375,-10.7975,26.376001,22.208,16.320002,eccentric,3,3.0,46116.0,227546.0,103140.0,231291.0,115945.0
2026-04-14 17:26:29.299970,293377,1609505082977311,2682947376,-1.077504,-0.021472,0.119072,-28.83125,26.0575,-10.24625,26.376001,22.208,16.320002,eccentric,3,3.0,46116.0,227546.0,103140.0,231291.0,115945.0
2026-04-14 17:26:29.306352,293378,1609505082991814,2682960281,-1.016992,-0.091744,-0.015616,-32.9,26.66125,-10.19375,26.512001,22.568,15.168001,eccentric,3,3.0,46116.0,227546.0,103140.0,231291.0,115945.0
2026-04-14 17:26:29.306473,293379,1609505083001140,2682971116,-1.016992,-0.091744,-0.015616,-27.93875,27.755001,-10.43875,26.512001,22.568,15.168001,eccentric,3,3.0,46116.0,227546.0,103140.0,231291.0,115945.0
2026-04-14 17:26:29.309255,293380,1609505083010051,2682979894,-1.04432,0.01952,-0.003904,-18.78625,27.1775,-11.2875,26.800001,23.008001,14.880001,eccentric,3,3.0,46116.0,227546.0,103140.0,231291.0,115945.0
2026-04-14 17:26:29.309908,293381,1609505083024526,2682994822,-1.04432,0.01952,-0.003904,-14.2275,25.795,-11.83875,26.800001,23.008001,14.880001,eccentric,3,3.0,46116.0,227546.0,103140.0,231291.0,115945.0
2026-04-14 17:26:29.318004,293382,1609505083033554,2683003502,-0.964288,-0.031232,0.01952,-17.85875,23.23125,-12.22375,26.656002,22.984001,14.992001,eccentric,3,3.0,46116.0,227546.0,103140.0,231291.0,115945.0
2026-04-14 17:26:29.332577,293383,1609505083048020,2683016366,-0.962336,-0.140544,-0.007808,-26.3375,20.51,-12.29375,26.928001,23.296001,16.728,eccentric,3,3.0,46116.0,227546.0,103140.0,231291.0,115945.0
2026-04-14 17:26:29.344180,293384,1609505083057174,2683027109,-0.962336,-0.140544,-0.007808,-32.3925,19.38125,-11.34875,26.928001,23.296001,16.728,eccentric,3,3.0,46116.0,227546.0,103140.0,231291.0,115945.0
2026-04-14 17:26:29.351873,293385,1609505083066064,2683035776,-0.962336,-0.140544,-0.007808,-29.93375,20.32625,-10.01,26.928001,23.296001,16.728,eccentric,3,3.0,46116.0,227546.0,103140.0,231291.0,115945.0
2026-04-14 17:26:29.381594,293396,1609505083080708,2683050820,-0.987712,-0.095648,-0.124928,-20.62375,21.77875,-8.225,26.216002,23.44,16.384,eccentric,3,3.0,50917.0,238571.0,111134.0,240522.0,124486.0
2026-04-14 17:26:29.383687,293397,1609505083089683,2683059585,-0.977952,-0.023424,-0.130784,-12.635,23.275,-7.8575,26.208002,23.272001,14.768001,eccentric,3,3.0,50917.0,238571.0,111134.0,240522.0,124486.0
2026-04-14 17:26:29.391717,293398,1609505083104183,2683074496,-0.977952,-0.023424,-0.130784,-14.735,23.35375,-8.60125,26.208002,23.272001,14.768001,eccentric,3,3.0,50917.0,238571.0,111134.0,240522.0,124486.0
2026-04-14 17:26:29.397905,293399,1609505083113210,2683083260,-0.976,-0.05856,-0.070272,-21.8225,22.855,-8.25125,27.064001,23.128,14.664001,eccentric,3,3.0,50917.0,238571.0,111134.0,240522.0,124486.0
2026-04-14 17:26:29.412556,293400,1609505083127681,2683096093,-0.983808,-0.091744,-0.044896,-26.241251,21.8925,-8.8375,27.04,23.112001,14.376,eccentric,3,3.0,50917.0,238571.0,111134.0,240522.0,124486.0
2026-04-14 17:26:29.424123,293401,1609505083136893,2683106839,-0.983808,-0.091744,-0.044896,-25.48875,21.7,-10.3425,27.04,23.112001,14.376,eccentric,3,3.0,50917.0,238571.0,111134.0,240522.0,124486.0
2026-04-14 17:26:29.431369,293402,1609505083145803,2683115511,-0.983808,-0.091744,-0.044896,-19.62625,21.65625,-10.2375,27.04,23.112001,14.376,eccentric,3,3.0,50917.0,238571.0,111134.0,240522.0,124486.0
2026-04-14 17:26:29.446318,293403,1609505083160314,2683130449,-1.01504,-0.031232,-0.191296,-14.2975,20.92125,-9.00375,26.824001,23.312,13.984,eccentric,3,3.0,50917.0,238571.0,111134.0,240522.0,124486.0
2026-04-14 17:26:29.481764,293414,1609505083169382,2683139733,-0.972096,-0.072224,-0.033184,-17.14125,19.11875,-8.00625,26.656002,23.12,14.688001,eccentric,3,3.0,57892.0,245345.0,122731.0,247103.0,136080.0
2026-04-14 17:26:29.482470,293415,1609505083183987,2683152595,-0.972096,-0.072224,-0.033184,-26.022501,17.3775,-7.77,26.656002,23.12,14.688001,eccentric,3,3.0,57892.0,245345.0,122731.0,247103.0,136080.0
2026-04-14 17:26:29.486097,293416,1609505083193225,2683163393,-1.11264,-0.072224,-0.040992,-31.52625,16.00375,-6.48375,24.560001,23.512001,16.288,eccentric,3,3.0,57892.0,245345.0,122731.0,247103.0,136080.0
2026-04-14 17:26:29.489838,293417,1609505083202154,2683172131,-1.11264,-0.072224,-0.040992,-27.58,16.485,-5.3375,24.560001,23.512001,16.288,eccentric,3,3.0,57892.0,245345.0,122731.0,247103.0,136080.0
2026-04-14 17:26:29.500407,293418,1609505083216676,2683185024,-0.979904,-0.0488,-0.025376,-17.053751,17.5875,-5.71375,25.088001,22.920002,16.232,eccentric,3,3.0,57892.0,245345.0,122731.0,247103.0,136080.0
2026-04-14 17:26:29.511319,293419,1609505083225862,2683195765,-0.979904,-0.0488,-0.025376,-7.4025,17.745,-7.3675,25.088001,22.920002,16.232,eccentric,3,3.0,57892.0,245345.0,122731.0,247103.0,136080.0
2026-04-14 17:26:29.544710,293420,1609505083240315,2683210614,-0.976,-0.017568,-0.03904,-7.27125,16.19625,-7.70875,25.184002,22.264002,14.824,eccentric,3,3.0,57892.0,245345.0,122731.0,247103.0,136080.0
2026-04-14 17:26:29.546254,293421,1609505083249224,2683219296,-1.042368,-0.054656,-0.124928,-15.627501,14.14875,-7.67375,23.712002,21.704,16.088001,eccentric,3,3.0,57892.0,245345.0,122731.0,247103.0,136080.0
2026-04-14 17:26:29.549329,293422,1609505083263720,2683232183,-1.042368,-0.054656,-0.124928,-25.82125,12.0575,-7.35875,23.712002,21.704,16.088001,eccentric,3,3.0,57892.0,245345.0,122731.0,247103.0,136080.0
2026-04-14 17:26:29.613736,293433,1609505083273369,2683242953,-1.050176,-0.064416,-0.037088,-29.286251,10.92875,-5.99375,22.368002,22.144001,15.136001,eccentric,3,3.0,56002.0,247268.0,119461.0,247974.0,132447.0
2026-04-14 17:26:29.616728,293434,1609505083282367,2683251692,-1.050176,-0.064416,-0.037088,-29.75,11.45375,-5.53,22.368002,22.144001,15.136001,eccentric,3,3.0,56002.0,247268.0,119461.0,247974.0,132447.0
2026-04-14 17:26:29.619219,293435,1609505083296845,2683266624,-1.097024,-0.064416,-0.015616,-31.28125,12.76625,-6.0725,21.072,21.016,13.904,eccentric,3,3.0,56002.0,247268.0,119461.0,247974.0,132447.0
2026-04-14 17:26:29.621762,293436,1609505083305783,2683275332,-1.097024,-0.064416,-0.015616,-29.47875,13.545,-5.39,21.072,21.016,13.904,eccentric,3,3.0,56002.0,247268.0,119461.0,247974.0,132447.0
2026-04-14 17:26:29.624194,293437,1609505083320292,2683290260,-1.056032,-0.109312,-0.232288,-24.31625,12.94125,-4.38375,20.304,20.720001,12.888001,eccentric,3,3.0,56002.0,247268.0,119461.0,247974.0,132447.0
2026-04-14 17:26:29.626760,293438,1609505083329234,2683298946,-1.009184,-0.02928,0.0,-20.4925,11.38375,-3.465,19.784,20.264002,13.728001,eccentric,3,3.0,56002.0,247268.0,119461.0,247974.0,132447.0
2026-04-14 17:26:29.628798,293439,1609505083338232,2683307661,-1.009184,-0.02928,0.0,-21.665,9.23125,-2.2925,19.784,20.264002,13.728001,eccentric,3,3.0,56002.0,247268.0,119461.0,247974.0,132447.0
2026-04-14 17:26:29.637995,293440,1609505083352748,2683322572,-1.147776,0.0,-0.0488,-27.44,7.21,-1.6625,19.408,20.04,10.832001,eccentric,3,3.0,56002.0,247268.0,119461.0,247974.0,132447.0
2026-04-14 17:26:29.647561,293441,1609505083361751,2683331259,-1.147776,0.0,-0.0488,-30.40625,5.57375,-1.44375,19.408,20.04,10.832001,eccentric,3,3.0,56002.0,247268.0,119461.0,247974.0,132447.0
2026-04-14 17:26:29.679001,293452,1609505083376376,2683346184,-1.007232,-0.076128,-0.035136,-28.210001,4.8825,-1.89,20.44,19.592001,7.736001,eccentric,3,3.0,53357.0,251367.0,114856.0,249491.0,128118.0
2026-04-14 17:26:29.684137,293453,1609505083385384,2683354983,-1.007232,-0.076128,-0.035136,-23.07375,4.17375,-2.86125,20.44,19.592001,7.736001,eccentric,3,3.0,53357.0,251367.0,114856.0,249491.0,128118.0
2026-04-14 17:26:29.686610,293454,1609505083399996,2683369913,-1.00528,-0.035136,0.003904,-13.25625,3.45625,-2.275,19.064001,19.744001,7.216001,eccentric,3,3.0,53357.0,251367.0,114856.0,249491.0,128118.0
2026-04-14 17:26:29.694097,293455,1609505083408937,2683378627,-1.067744,0.011712,-0.169824,-4.3925,2.21375,-2.09125,19.064001,19.744001,4.128,eccentric,3,3.0,53357.0,251367.0,114856.0,249491.0,128118.0
2026-04-14 17:26:29.704297,293456,1609505083417845,2683387304,-1.067744,0.011712,-0.169824,-5.78375,2.7475,-2.42375,21.056002,19.536001,4.128,eccentric,3,3.0,53357.0,251367.0,114856.0,249491.0,128118.0
2026-04-14 17:26:29.718169,293457,1609505083432307,2683402184,-1.056032,-0.00976,-0.162016,-17.08,3.08,-2.79125,23.136002,19.832,4.304,eccentric,3,3.0,53357.0,251367.0,114856.0,249491.0,128118.0
2026-04-14 17:26:29.725615,293458,1609505083441221,2683410943,-1.056032,-0.00976,-0.162016,-25.85625,3.56125,-3.43875,23.136002,19.832,4.304,eccentric,3,3.0,53357.0,251367.0,114856.0,249491.0,128118.0
2026-04-14 17:26:29.741866,293459,1609505083455708,2683425813,-0.987712,-0.119072,-0.128832,-28.93625,3.77125,-4.31375,24.272001,20.456001,2.592,eccentric,3,3.0,53357.0,251367.0,114856.0,249491.0,128118.0
2026-04-14 17:26:29.751833,293460,1609505083464668,2683434515,-0.987712,-0.119072,-0.128832,-29.1375,2.3975,-4.4275,24.272001,20.456001,2.592,eccentric,3,3.0,53357.0,251367.0,114856.0,249491.0,128118.0
2026-04-14 17:26:29.778658,293471,1609505083474253,2683443386,-0.976,-0.142496,-0.111264,-23.89625,-0.1575,-2.87,24.832,21.176,2.552,eccentric,3,3.0,55795.0,257575.0,118663.0,254165.0,132182.0
2026-04-14 17:26:29.781679,293472,1609505083488828,2683458375,-0.976,-0.142496,-0.111264,-11.50625,-1.33,-0.13125,24.832,21.176,2.552,eccentric,3,3.0,55795.0,257575.0,118663.0,254165.0,132182.0
2026-04-14 17:26:29.784094,293473,1609505083497726,2683467076,-0.974048,-0.031232,0.017568,-2.56375,-0.77,1.88125,26.368002,21.36,1.312,eccentric,3,3.0,55795.0,257575.0,118663.0,254165.0,132182.0
2026-04-14 17:26:29.797982,293474,1609505083512286,2683481973,-0.976,0.011712,-0.115168,-3.64,0.30625,2.33625,27.560001,22.368002,3.04,eccentric,3,3.0,55795.0,257575.0,118663.0,254165.0,132182.0
2026-04-14 17:26:29.805100,293475,1609505083521216,2683490709,-0.976,0.011712,-0.115168,-8.21625,1.785,1.44375,27.560001,22.368002,3.04,eccentric,3,3.0,55795.0,257575.0,118663.0,254165.0,132182.0
2026-04-14 17:26:29.820241,293476,1609505083535707,2683505574,-0.96624,-0.085888,-0.144448,-13.7725,2.5725,-0.875,28.768002,23.008001,4.144,eccentric,3,3.0,55795.0,257575.0,118663.0,254165.0,132182.0
2026-04-14 17:26:29.851244,293477,1609505083544717,2683514255,-0.96624,-0.085888,-0.144448,-18.9175,2.205,-3.36875,28.768002,23.008001,4.144,eccentric,3,3.0,55795.0,257575.0,118663.0,254165.0,132182.0
2026-04-14 17:26:29.854370,293478,1609505083553667,2683522943,-1.081408,0.017568,-0.070272,-14.56875,2.765,-3.61375,28.592001,23.576,4.312,eccentric,3,3.0,55795.0,257575.0,118663.0,254165.0,132182.0
2026-04-14 17:26:29.856199,293479,1609505083568121,2683537843,-1.081408,0.017568,-0.070272,-6.8425,3.4825,-4.795,28.592001,23.576,4.312,eccentric,3,3.0,55795.0,257575.0,118663.0,254165.0,132182.0
2026-04-14 17:26:29.883885,293490,1609505083577181,2683546581,-1.026752,0.02928,-0.105408,-5.3725,4.10375,-6.2125,29.824001,23.744001,3.888,eccentric,3,3.0,58986.0,260838.0,123773.0,256786.0,137108.0
2026-04-14 17:26:29.909002,293491,1609505083591681,2683561463,-1.016992,-0.152256,-0.318176,-11.865,4.795,-7.28,30.216002,24.840002,4.096,eccentric,3,3.0,58986.0,260838.0,123773.0,256786.0,137108.0
2026-04-14 17:26:29.933998,293492,1609505083600705,2683570224,-1.016992,-0.152256,-0.318176,-23.44125,4.57625,-7.7,30.216002,24.840002,4.096,eccentric,3,3.0,58986.0,260838.0,123773.0,256786.0,137108.0
2026-04-14 17:26:29.948890,293493,1609505083609627,2683578912,-1.016992,-0.152256,-0.318176,-26.355,4.13875,-6.8075,30.216002,24.840002,4.096,eccentric,3,3.0,58986.0,260838.0,123773.0,256786.0,137108.0
2026-04-14 17:26:29.951303,293494,1609505083624036,2683593798,-1.085312,-0.15616,-0.286944,-14.28875,2.7825,-5.38125,30.560001,25.096,5.056,eccentric,3,3.0,58986.0,260838.0,123773.0,256786.0,137108.0
2026-04-14 17:26:29.955296,293495,1609505083633017,2683602479,-1.110688,-0.023424,-0.226432,0.735,1.925,-5.03125,30.640001,25.408,6.112001,eccentric,3,3.0,58986.0,260838.0,123773.0,256786.0,137108.0
2026-04-14 17:26:29.958734,293496,1609505083647472,2683617394,-1.110688,-0.023424,-0.226432,6.7375,2.1175,-5.74,30.640001,25.408,6.112001,eccentric,3,3.0,58986.0,260838.0,123773.0,256786.0,137108.0
2026-04-14 17:26:29.959032,293497,1609505083656382,2683626069,-1.050176,0.130784,-0.109312,5.4775,2.72125,-5.88,29.880001,26.128002,7.2,eccentric,3,3.0,58986.0,260838.0,123773.0,256786.0,137108.0
2026-04-14 17:26:29.986468,293508,1609505083670873,2683640962,-1.04432,-0.08784,-0.07808,-4.8125,4.6025,-9.275,29.880001,26.496002,6.792,eccentric,3,3.0,59751.0,264870.0,124430.0,259281.0,137728.0
2026-04-14 17:26:29.988941,293509,1609505083679903,2683649696,-1.04432,-0.08784,-0.07808,-24.29,5.6525,-13.965,29.904001,26.496002,6.792,eccentric,3,3.0,59751.0,264870.0,124430.0,259281.0,137728.0
2026-04-14 17:26:29.991438,293510,1609505083688874,2683658436,-1.04432,-0.08784,-0.07808,-36.42625,4.99625,-13.25625,29.904001,26.496002,6.792,eccentric,3,3.0,59751.0,264870.0,124430.0,259281.0,137728.0
2026-04-14 17:26:29.993994,293511,1609505083703361,2683673349,-0.954528,-0.201056,-0.089792,-27.685,4.75125,-10.395,29.696001,26.840002,7.520001,eccentric,3,3.0,59751.0,264870.0,124430.0,259281.0,137728.0
2026-04-14 17:26:29.997827,293512,1609505083712287,2683682037,-1.06384,-0.076128,-0.16592,-10.89375,3.5875,-9.4675,29.600002,27.160002,4.696,eccentric,3,3.0,59751.0,264870.0,124430.0,259281.0,137728.0
2026-04-14 17:26:30.012710,293513,1609505083726770,2683696979,-1.06384,-0.076128,-0.16592,0.32375,1.12,-8.3825,29.600002,27.160002,4.696,eccentric,3,3.0,59751.0,264870.0,124430.0,259281.0,137728.0
2026-04-14 17:26:30.020132,293514,1609505083735694,2683705712,-1.059936,0.12688,-0.07808,6.09,-0.4375,-6.57125,30.44,27.12,8.352,eccentric,3,3.0,59751.0,264870.0,124430.0,259281.0,137728.0
2026-04-14 17:26:30.035253,293515,1609505083750160,2683718569,-1.059936,0.12688,-0.07808,0.90125,-0.67375,-7.86625,30.44,27.12,8.352,eccentric,3,3.0,59751.0,264870.0,124430.0,259281.0,137728.0
2026-04-14 17:26:30.050835,293516,1609505083759422,2683729318,-1.085312,-0.103456,-0.27328,-16.4325,-1.89,-10.64875,30.184002,27.608002,6.856,eccentric,3,3.0,59751.0,264870.0,124430.0,259281.0,137728.0
2026-04-14 17:26:30.055100,293517,1609505083768326,2683737979,-1.085312,-0.103456,-0.27328,-25.366251,-2.75625,-10.0975,30.184002,27.608002,6.856,eccentric,3,3.0,59751.0,264870.0,124430.0,259281.0,137728.0
2026-04-14 17:26:30.082738,293528,1609505083782938,2683751327,-1.124352,-0.189344,-0.261568,-17.325,-3.01,-7.67375,29.992,27.568,7.664001,eccentric,3,3.0,57656.0,264881.0,120917.0,258064.0,134510.0
2026-04-14 17:26:30.085093,293529,1609505083792136,2683762082,-1.059936,-0.025376,-0.064416,-3.77125,-3.29875,-6.53625,30.312002,27.376001,6.88,eccentric,3,3.0,57656.0,264881.0,120917.0,258064.0,134510.0
2026-04-14 17:26:30.092851,293530,1609505083806637,2683776950,-1.059936,-0.025376,-0.064416,7.48125,-3.605,-6.2475,30.312002,27.376001,6.88,eccentric,3,3.0,57656.0,264881.0,120917.0,258064.0,134510.0
2026-04-14 17:26:30.100293,293531,1609505083815594,2683785667,-1.110688,0.070272,-0.22448,13.60625,-3.5,-7.23625,29.752,27.888,8.08,eccentric,3,3.0,57656.0,264881.0,120917.0,258064.0,134510.0
2026-04-14 17:26:30.114033,293532,1609505083830059,2683798489,-1.110688,0.070272,-0.22448,7.875,-4.7425,-11.27875,29.752,27.888,8.08,eccentric,3,3.0,57656.0,264881.0,120917.0,258064.0,134510.0
2026-04-14 17:26:30.124053,293533,1609505083839276,2683809287,-1.116544,-0.115168,-0.216672,-8.70625,-5.88,-13.16875,29.888,27.960001,9.080001,eccentric,3,3.0,57656.0,264881.0,120917.0,258064.0,134510.0
2026-04-14 17:26:30.135266,293534,1609505083848232,2683817967,-1.116544,-0.115168,-0.216672,-20.71125,-5.25875,-10.57875,29.888,27.960001,9.080001,eccentric,3,3.0,57656.0,264881.0,120917.0,258064.0,134510.0
2026-04-14 17:26:30.148860,293535,1609505083862711,2683832813,-1.100928,-0.21472,-0.130784,-20.3525,-3.78,-8.155,29.016,28.072,8.824,eccentric,3,3.0,57656.0,264881.0,120917.0,258064.0,134510.0
2026-04-14 17:26:30.181544,293546,1609505083871607,2683841520,-1.100928,-0.05856,-0.070272,-13.23875,-3.64,-7.09625,29.016,28.072,8.824,eccentric,3,3.0,55165.0,263453.0,116857.0,256125.0,130298.0
2026-04-14 17:26:30.184028,293547,1609505083886134,2683856457,-1.182912,-0.056608,-0.070272,-2.70375,-3.68375,-5.80125,29.488,28.024002,8.792001,eccentric,3,3.0,55165.0,263453.0,116857.0,256125.0,130298.0
2026-04-14 17:26:30.186530,293548,1609505083895110,2683865161,-1.149728,0.05856,-0.259616,8.785,-1.3125,-5.27625,29.464,27.984001,8.440001,eccentric,3,3.0,55165.0,263453.0,116857.0,256125.0,130298.0
2026-04-14 17:26:30.188979,293549,1609505083904060,2683873871,-1.149728,0.05856,-0.259616,9.77375,-0.28,-9.8175,29.464,27.984001,8.440001,eccentric,3,3.0,55165.0,263453.0,116857.0,256125.0,130298.0
2026-04-14 17:26:30.204039,293550,1609505083918564,2683888755,-1.22,-0.095648,-0.265472,0.86625,-0.69125,-14.91,29.304,28.04,8.312,eccentric,3,3.0,55165.0,263453.0,116857.0,256125.0,130298.0
2026-04-14 17:26:30.216535,293551,1609505083927523,2683897467,-1.22,-0.095648,-0.265472,-5.74875,-1.42625,-13.195,29.304,28.04,8.312,eccentric,3,3.0,55165.0,263453.0,116857.0,256125.0,130298.0
2026-04-14 17:26:30.229431,293552,1609505083942016,2683912343,-1.196576,-0.148352,-0.122976,-8.198751,-1.25125,-11.24375,28.672,28.208002,9.784,eccentric,3,3.0,55165.0,263453.0,116857.0,256125.0,130298.0
2026-04-14 17:26:30.237876,293553,1609505083950923,2683921018,-1.196576,-0.148352,-0.122976,-9.61625,-1.75,-9.948751,28.672,28.208002,9.784,eccentric,3,3.0,55165.0,263453.0,116857.0,256125.0,130298.0
2026-04-14 17:26:30.249169,293554,1609505083965411,2683933883,-1.329312,-0.089792,-0.392352,-7.9625,-2.94,-7.84,28.272001,28.416002,9.232,eccentric,3,3.0,55165.0,263453.0,116857.0,256125.0,130298.0
2026-04-14 17:26:30.326270,293565,1609505083974761,2683944654,-1.243424,-0.052704,-0.177632,-6.1775,-2.02125,-9.12625,29.328001,28.152,9.136001,eccentric,3,3.0,53361.0,263043.0,113694.0,254814.0,127087.0
2026-04-14 17:26:30.333213,293566,1609505083983758,2683953424,-1.243424,-0.052704,-0.177632,-5.81875,-0.42875,-10.61375,29.328001,28.152,9.136001,eccentric,3,3.0,53361.0,263043.0,113694.0,254814.0,127087.0
2026-04-14 17:26:30.333441,293567,1609505083998237,2683968311,-1.257088,-0.128832,-0.199104,0.55125,0.245,-10.80625,29.184002,27.936,9.448001,eccentric,3,3.0,53361.0,263043.0,113694.0,254814.0,127087.0
2026-04-14 17:26:30.334524,293568,1609505084007213,2683976972,-1.257088,-0.128832,-0.199104,8.82,0.5775,-11.29625,29.184002,27.936,9.448001,eccentric,3,3.0,53361.0,263043.0,113694.0,254814.0,127087.0
2026-04-14 17:26:30.336102,293569,1609505084021686,2683991854,-1.245376,-0.17568,-0.359168,8.65375,0.2975,-9.42375,28.976002,28.008001,9.944,eccentric,3,3.0,53361.0,263043.0,113694.0,254814.0,127087.0
2026-04-14 17:26:30.339161,293570,1609505084030660,2684000585,-1.245376,-0.17568,-0.359168,3.255,-1.84625,-5.11875,28.976002,28.008001,9.944,eccentric,3,3.0,53361.0,263043.0,113694.0,254814.0,127087.0
2026-04-14 17:26:30.341662,293571,1609505084045139,2684015474,-1.21024,-0.056608,-0.119072,0.60375,-3.31625,-3.1675,28.352001,28.432001,10.288,eccentric,3,3.0,53361.0,263043.0,113694.0,254814.0,127087.0
2026-04-14 17:26:30.344157,293572,1609505084054123,2684024176,-1.216096,-0.13664,-0.18544,1.4,-2.70375,-5.38125,28.336,28.568,13.296001,eccentric,3,3.0,53361.0,263043.0,113694.0,254814.0,127087.0
2026-04-14 17:26:30.350399,293573,1609505084063085,2684032903,-1.216096,-0.13664,-0.18544,-0.74375,-1.98625,-8.09375,28.336,28.568,13.296001,eccentric,3,3.0,53361.0,263043.0,113694.0,254814.0,127087.0
2026-04-14 17:26:30.382991,293584,1609505084077692,2684047838,-1.186816,-0.220576,-0.144448,-1.07625,-1.505,-8.4875,28.760002,28.344002,9.384001,eccentric,3,3.0,52582.0,261192.0,112360.0,253226.0,125753.0
2026-04-14 17:26:30.385560,293585,1609505084086767,2684056583,-1.186816,-0.220576,-0.144448,5.775,0.175,-8.04125,28.760002,28.344002,9.384001,eccentric,3,3.0,52582.0,261192.0,112360.0,253226.0,125753.0
2026-04-14 17:26:30.388057,293586,1609505084101235,2684071505,-1.245376,-0.089792,-0.109312,13.2125,1.98625,-6.39625,28.968002,28.352001,9.816001,eccentric,3,3.0,52582.0,261192.0,112360.0,253226.0,125753.0
2026-04-14 17:26:30.395094,293587,1609505084110172,2684080311,-1.245376,-0.089792,-0.109312,14.14875,1.4175,-4.24375,28.968002,28.352001,9.816001,concentric,3,3.0,52582.0,261192.0,112360.0,253226.0,125753.0
2026-04-14 17:26:30.406118,293588,1609505084119234,2684088997,-1.352736,-0.013664,-0.296704,6.20375,-0.665,-4.55875,28.752,28.288002,10.104,concentric,3,3.0,52582.0,261192.0,112360.0,253226.0,125753.0
2026-04-14 17:26:30.421198,293589,1609505084133708,2684103884,-1.313696,-0.093696,-0.132736,-1.61875,-1.37375,-6.41375,28.752,30.336002,9.992001,concentric,3,3.0,52582.0,261192.0,112360.0,253226.0,125753.0
2026-04-14 17:26:30.427524,293590,1609505084142611,2684112557,-1.313696,-0.093696,-0.132736,-7.93625,-1.74125,-8.715,28.008001,28.824001,9.992001,concentric,3,3.0,52582.0,261192.0,112360.0,253226.0,125753.0
2026-04-14 17:26:30.441665,293591,1609505084157128,2684127482,-1.237568,-0.259616,-0.27328,-10.29,-1.925,-11.06875,27.776001,28.552002,9.848001,concentric,3,3.0,52582.0,261192.0,112360.0,253226.0,125753.0
2026-04-14 17:26:30.451340,293592,1609505084166065,2684136152,-1.237568,-0.259616,-0.27328,-3.3075,-0.76125,-8.28625,27.776001,28.552002,9.848001,concentric,3,3.0,52582.0,261192.0,112360.0,253226.0,125753.0
2026-04-14 17:26:30.510350,293603,1609505084180711,2684149316,-1.286368,-0.212768,-0.310368,5.6,0.2275,-5.22375,27.752,28.656002,13.160001,concentric,3,3.0,54224.0,263903.0,114901.0,255526.0,128474.0
2026-04-14 17:26:30.511270,293604,1609505084190286,2684160146,-1.286368,-0.212768,-0.310368,10.98125,0.0,-3.54375,27.752,28.656002,13.160001,concentric,3,3.0,54224.0,263903.0,114901.0,255526.0,128474.0
2026-04-14 17:26:30.513755,293605,1609505084199208,2684168841,-1.237568,-0.060512,-0.158112,13.90375,0.04375,-0.6125,27.776001,28.568,11.376,concentric,3,3.0,54224.0,263903.0,114901.0,255526.0,128474.0
2026-04-14 17:26:30.522675,293606,1609505084213686,2684183707,-1.237568,-0.060512,-0.111264,11.375,-0.4375,-0.0875,27.776001,28.568,11.376,concentric,3,3.0,54224.0,263903.0,114901.0,255526.0,128474.0
2026-04-14 17:26:30.524365,293607,1609505084222647,2684192401,-1.266848,-0.08784,-0.111264,4.97875,-2.21375,-1.925,28.072,28.52,11.056001,concentric,3,3.0,54224.0,263903.0,114901.0,255526.0,128474.0
2026-04-14 17:26:30.524453,293608,1609505084237172,2684207293,-1.208288,-0.158112,-0.052704,0.48125,-3.3075,-2.59,27.552002,28.624,10.584001,concentric,3,3.0,54224.0,263903.0,114901.0,255526.0,128474.0
2026-04-14 17:26:30.530380,293609,1609505084246098,2684216052,-1.208288,-0.158112,-0.052704,1.225,-3.68375,-2.0825,27.552002,28.624,10.584001,concentric,3,3.0,54224.0,263903.0,114901.0,255526.0,128474.0
2026-04-14 17:26:30.541674,293610,1609505084255022,2684224736,-1.28832,-0.0976,-0.158112,7.07875,-2.765,-1.49625,27.480001,27.992,10.552,concentric,3,3.0,54224.0,263903.0,114901.0,255526.0,128474.0
2026-04-14 17:26:30.555523,293611,1609505084269501,2684239626,-1.28832,-0.0976,-0.158112,10.85875,-0.8925,-0.9625,27.480001,27.992,10.552,concentric,3,3.0,54224.0,263903.0,114901.0,255526.0,128474.0
2026-04-14 17:26:30.583063,293622,1609505084278673,2684248427,-1.227808,-0.074176,-0.066368,8.47875,0.385,-1.44375,28.36,27.776001,10.400001,concentric,3,3.0,53000.0,260544.0,113129.0,252510.0,126512.0
2026-04-14 17:26:30.585059,293623,1609505084293174,2684263349,-1.227808,-0.074176,-0.066368,3.605,0.5425,-2.19625,28.36,27.776001,10.400001,concentric,3,3.0,53000.0,260544.0,113129.0,252510.0,126512.0
2026-04-14 17:26:30.587485,293624,1609505084302107,2684272010,-1.212192,-0.206912,-0.261568,-0.2275,-0.14875,-2.79125,27.6,28.2,13.232,concentric,3,3.0,53000.0,260544.0,113129.0,252510.0,126512.0
2026-04-14 17:26:30.604135,293625,1609505084316656,2684286890,-1.223904,-0.121024,-0.050752,2.93125,-1.2075,-2.6775,28.712002,27.824001,10.536,concentric,3,3.0,53000.0,260544.0,113129.0,252510.0,126512.0
2026-04-14 17:26:30.612247,293626,1609505084325564,2684295630,-1.223904,-0.121024,-0.050752,13.2825,-1.60125,-1.35625,28.712002,27.824001,10.536,concentric,3,3.0,53000.0,260544.0,113129.0,252510.0,126512.0
2026-04-14 17:26:30.619240,293627,1609505084334462,2684304302,-1.223904,-0.121024,-0.021472,20.72875,-0.91,-0.245,28.712002,27.824001,10.536,concentric,3,3.0,53000.0,260544.0,113129.0,252510.0,126512.0
2026-04-14 17:26:30.644183,293628,1609505084348932,2684319173,-1.177056,-0.066368,-0.021472,19.6,-0.28875,-0.13125,27.680002,27.944002,10.696,concentric,3,3.0,53000.0,260544.0,113129.0,252510.0,126512.0
2026-04-14 17:26:30.669413,293629,1609505084357872,2684327840,-1.2688,-0.132736,-0.337696,11.13875,-0.2975,1.11125,28.488,27.664001,10.728001,concentric,3,3.0,53000.0,260544.0,113129.0,252510.0,126512.0
2026-04-14 17:26:30.676842,293630,1609505084372769,2684342675,-1.2688,-0.132736,-0.337696,-0.49875,-1.2075,1.9775,28.488,27.664001,10.728001,concentric,3,3.0,53000.0,260544.0,113129.0,252510.0,126512.0
2026-04-14 17:26:30.708457,293641,1609505084381688,2684351438,-1.282464,-0.199104,-0.394304,-5.34625,-2.7825,3.24625,28.584002,27.888,10.808001,concentric,3,3.0,53340.0,260237.0,113688.0,252410.0,127302.0
2026-04-14 17:26:30.708593,293642,1609505084390605,2684360172,-1.282464,-0.199104,-0.394304,-1.1375,-4.13,4.0775,28.584002,27.888,10.808001,concentric,3,3.0,53340.0,260237.0,113688.0,252410.0,127302.0
2026-04-14 17:26:30.708639,293643,1609505084405193,2684375109,-1.286368,-0.099552,-0.203008,8.21625,-5.32,4.3225,28.488,27.832,10.784,concentric,3,3.0,53340.0,260237.0,113688.0,252410.0,127302.0
2026-04-14 17:26:30.711121,293644,1609505084414165,2684383884,-1.286368,-0.099552,-0.203008,19.81,-5.53,4.45375,28.488,27.832,10.784,concentric,3,3.0,53340.0,260237.0,113688.0,252410.0,127302.0
2026-04-14 17:26:30.713997,293645,1609505084428649,2684398790,-1.182912,-0.005856,0.021472,20.15125,-4.19125,2.86125,28.680002,27.496002,10.552,concentric,3,3.0,53340.0,260237.0,113688.0,252410.0,127302.0
2026-04-14 17:26:30.722616,293646,1609505084437623,2684407476,-1.28832,-0.124928,-0.290848,9.0475,-3.71,0.72625,27.688002,27.856,11.56,concentric,3,3.0,53340.0,260237.0,113688.0,252410.0,127302.0
2026-04-14 17:26:30.736831,293647,1609505084452134,2684422396,-1.28832,-0.124928,-0.290848,-3.38625,-4.55,1.09375,27.688002,27.856,11.56,concentric,3,3.0,53340.0,260237.0,113688.0,252410.0,127302.0
2026-04-14 17:26:30.746533,293648,1609505084461048,2684431063,-1.28832,-0.189344,-0.238144,-7.105,-5.4425,2.415,28.176,27.320002,10.856001,concentric,3,3.0,53340.0,260237.0,113688.0,252410.0,127302.0
2026-04-14 17:26:30.756883,293649,1609505084469999,2684439750,-1.28832,-0.189344,-0.238144,1.54,-5.57375,3.325,28.176,27.320002,10.856001,concentric,3,3.0,53340.0,260237.0,113688.0,252410.0,127302.0
2026-04-14 17:26:30.785552,293660,1609505084485057,2684454911,-1.270752,-0.109312,-0.23424,13.448751,-5.81875,4.935,28.768002,26.920002,10.968,concentric,3,3.0,55117.0,262395.0,116533.0,254567.0,130221.0
2026-04-14 17:26:30.787929,293661,1609505084494018,2684463653,-1.270752,-0.109312,-0.23424,19.17125,-6.615,6.44,28.768002,26.920002,10.968,concentric,3,3.0,55117.0,262395.0,116533.0,254567.0,130221.0
2026-04-14 17:26:30.792656,293662,1609505084508602,2684478626,-1.214144,-0.074176,-0.222528,16.19625,-7.42875,6.78125,28.568,26.832,11.144,concentric,3,3.0,55117.0,262395.0,116533.0,254567.0,130221.0
2026-04-14 17:26:30.802928,293663,1609505084517526,2684487303,-1.157536,-0.12688,-0.121024,10.05375,-7.63,6.06375,28.720001,26.872002,9.392,concentric,3,3.0,55117.0,262395.0,116533.0,254567.0,130221.0
2026-04-14 17:26:30.812493,293664,1609505084526452,2684496001,-1.157536,-0.12688,-0.121024,4.62,-7.2975,4.585,28.720001,26.872002,9.392,concentric,3,3.0,55117.0,262395.0,116533.0,254567.0,130221.0
2026-04-14 17:26:30.826777,293665,1609505084540922,2684510859,-1.143872,-0.138592,-0.095648,2.7475,-7.25375,3.56125,28.688002,26.968,11.192,concentric,3,3.0,55117.0,262395.0,116533.0,254567.0,130221.0
2026-04-14 17:26:30.834148,293666,1609505084549919,2684519576,-1.143872,-0.138592,-0.095648,7.63,-7.21875,3.84125,28.688002,26.968,11.192,concentric,3,3.0,55117.0,262395.0,116533.0,254567.0,130221.0
2026-04-14 17:26:30.850583,293667,1609505084564384,2684534459,-1.243424,-0.0488,-0.128832,14.42875,-6.65875,3.42125,27.616001,27.144001,12.176001,concentric,3,3.0,55117.0,262395.0,116533.0,254567.0,130221.0
2026-04-14 17:26:30.859313,293668,1609505084573339,2684543141,-1.243424,-0.0488,-0.128832,15.54,-5.95875,1.47,27.616001,27.144001,12.176001,concentric,3,3.0,55117.0,262395.0,116533.0,254567.0,130221.0
2026-04-14 17:26:30.886144,293679,1609505084587900,2684558091,-1.235616,-0.033184,-0.240096,11.3575,-6.2825,0.48125,28.696001,26.592001,11.296001,concentric,3,3.0,57112.0,263648.0,119831.0,256265.0,133481.0
2026-04-14 17:26:30.890078,293680,1609505084596869,2684566845,-1.104832,-0.138592,-0.154208,6.36125,-7.00875,-0.8925,27.704,26.688002,12.592001,concentric,3,3.0,57112.0,263648.0,119831.0,256265.0,133481.0
2026-04-14 17:26:30.891230,293681,1609505084605803,2684575586,-1.104832,-0.138592,-0.154208,4.025,-7.74375,-1.67125,27.704,26.688002,12.592001,concentric,3,3.0,57112.0,263648.0,119831.0,256265.0,133481.0
2026-04-14 17:26:30.907925,293682,1609505084620295,2684590449,-1.198528,-0.130784,-0.13664,5.53,-7.63875,-0.97125,28.384,26.240002,11.200001,concentric,3,3.0,57112.0,263648.0,119831.0,256265.0,133481.0
2026-04-14 17:26:30.913715,293683,1609505084629239,2684599154,-1.198528,-0.130784,-0.13664,9.87875,-7.595,-0.74375,28.384,26.240002,11.200001,concentric,3,3.0,57112.0,263648.0,119831.0,256265.0,133481.0
2026-04-14 17:26:30.930223,293684,1609505084643712,2684614028,-1.155584,-0.021472,-0.130784,15.8725,-6.545,0.0875,27.640001,26.064001,10.976001,concentric,3,3.0,57112.0,263648.0,119831.0,256265.0,133481.0
2026-04-14 17:26:30.938048,293685,1609505084652614,2684622704,-1.155584,-0.021472,-0.130784,18.41875,-5.9325,0.8925,27.640001,26.064001,10.976001,concentric,3,3.0,57112.0,263648.0,119831.0,256265.0,133481.0
2026-04-14 17:26:30.953079,293686,1609505084667071,2684635514,-1.087264,-0.035136,-0.081984,13.90375,-5.95,-0.20125,28.744001,26.112001,10.960001,concentric,3,3.0,57112.0,263648.0,119831.0,256265.0,133481.0
2026-04-14 17:26:30.985473,293697,1609505084676506,2684646397,-1.087264,-0.035136,-0.206912,7.35875,-6.8775,-1.70625,28.744001,26.112001,10.960001,concentric,3,3.0,57761.0,263317.0,120849.0,256387.0,134398.0
2026-04-14 17:26:31.010080,293698,1609505084686015,2684655300,-1.157536,-0.113216,-0.20496,-0.35875,-8.23375,-1.6275,28.688002,25.944002,10.392,concentric,3,3.0,57761.0,263317.0,120849.0,256387.0,134398.0
2026-04-14 17:26:31.035027,293699,1609505084700532,2684670287,-1.106784,-0.150304,-0.257664,-1.16375,-9.7475,-0.74375,27.536001,26.136002,12.568001,concentric,3,3.0,57761.0,263317.0,120849.0,256387.0,134398.0
2026-04-14 17:26:31.038035,293700,1609505084709507,2684678956,-1.106784,-0.150304,-0.257664,8.61875,-9.9225,1.05,27.536001,26.136002,12.568001,concentric,3,3.0,57761.0,263317.0,120849.0,256387.0,134398.0
2026-04-14 17:26:31.040513,293701,1609505084723944,2684693801,-1.116544,0.0,-0.074176,18.6725,-8.8025,2.63375,26.432001,26.096,13.072001,concentric,3,3.0,57761.0,263317.0,120849.0,256387.0,134398.0
2026-04-14 17:26:31.043051,293702,1609505084732883,2684702489,-1.116544,0.0,-0.074176,21.16625,-8.2775,2.40625,26.432001,26.096,13.072001,concentric,3,3.0,57761.0,263317.0,120849.0,256387.0,134398.0
2026-04-14 17:26:31.045343,293703,1609505084741841,2684711167,-1.065792,-0.037088,-0.210816,14.37625,-8.365,2.0825,26.6,25.824001,11.304001,concentric,3,3.0,57761.0,263317.0,120849.0,256387.0,134398.0
2026-04-14 17:26:31.050554,293704,1609505084756371,2684726098,-1.065792,-0.037088,-0.210816,2.975,-9.44125,-0.11375,26.6,25.824001,11.304001,concentric,3,3.0,57761.0,263317.0,120849.0,256387.0,134398.0
2026-04-14 17:26:31.053020,293705,1609505084765287,2684734775,-0.989664,-0.132736,-0.005856,-2.52875,-9.09125,-0.98,27.312002,25.448002,11.200001,concentric,3,3.0,57761.0,263317.0,120849.0,256387.0,134398.0
2026-04-14 17:26:31.090409,293716,1609505084780141,2684749727,-1.030656,-0.081984,0.021472,2.16125,-7.63,-1.4875,27.984001,25.000002,9.856001,concentric,3,3.0,56855.0,261205.0,119570.0,254652.0,133174.0
2026-04-14 17:26:31.092532,293717,1609505084789236,2684758456,-1.030656,-0.081984,0.021472,15.00625,-5.92375,-2.66875,27.984001,25.000002,9.856001,concentric,3,3.0,56855.0,261205.0,119570.0,254652.0,133174.0
2026-04-14 17:26:31.095241,293718,1609505084798189,2684767244,-1.032608,-0.015616,-0.152256,24.35125,-4.94375,-3.94625,27.984001,25.104002,11.048,concentric,3,3.0,56855.0,261205.0,119570.0,254652.0,133174.0
2026-04-14 17:26:31.097920,293719,1609505084812730,2684782203,-1.032608,-0.015616,-0.152256,22.07625,-5.04875,-3.92875,26.712002,25.104002,11.048,concentric,3,3.0,56855.0,261205.0,119570.0,254652.0,133174.0
2026-04-14 17:26:31.105408,293720,1609505084821651,2684790897,-1.100928,-0.064416,-0.238144,8.89875,-6.76375,-4.165,26.680002,24.6,10.336,concentric,3,3.0,56855.0,261205.0,119570.0,254652.0,133174.0
2026-04-14 17:26:31.134239,293721,1609505084836196,2684805760,-1.100928,-0.064416,-0.238144,-3.01,-8.47875,-4.17375,26.680002,24.6,10.336,concentric,3,3.0,56855.0,261205.0,119570.0,254652.0,133174.0
2026-04-14 17:26:31.136799,293722,1609505084845099,2684814461,-1.020896,-0.17568,-0.052704,-5.57375,-9.1175,-2.84375,25.992,24.288002,8.896001,concentric,3,3.0,56855.0,261205.0,119570.0,254652.0,133174.0
2026-04-14 17:26:31.144303,293723,1609505084859646,2684829397,-1.03456,-0.08784,0.001952,1.26875,-8.23375,-1.89875,25.736002,23.928001,9.728001,concentric,3,3.0,56855.0,261205.0,119570.0,254652.0,133174.0
2026-04-14 17:26:31.153773,293724,1609505084868622,2684838075,-1.03456,-0.08784,0.001952,14.595,-6.37,-0.735,25.736002,23.928001,9.728001,concentric,3,3.0,56855.0,261205.0,119570.0,254652.0,133174.0
2026-04-14 17:26:31.187913,293735,1609505084877529,2684846960,-1.03456,-0.08784,0.001952,22.84625,-6.08125,-0.07875,25.736002,23.928001,9.728001,concentric,3,3.0,55350.0,257227.0,117625.0,251962.0,131012.0
2026-04-14 17:26:31.190402,293736,1609505084892095,2684861846,-1.108736,-0.03904,-0.208864,19.62625,-6.685,0.21875,26.184002,23.024,8.72,concentric,3,3.0,55350.0,257227.0,117625.0,251962.0,131012.0
2026-04-14 17:26:31.192600,293737,1609505084901029,2684870663,-1.136064,-0.031232,-0.138592,10.99,-7.83125,1.30375,25.448002,22.816002,8.568001,concentric,3,3.0,55350.0,257227.0,117625.0,251962.0,131012.0
2026-04-14 17:26:31.201706,293738,1609505084915607,2684885520,-1.136064,-0.031232,-0.138592,2.52,-7.9275,1.0325,25.448002,22.816002,8.568001,concentric,3,3.0,55350.0,257227.0,117625.0,251962.0,131012.0
2026-04-14 17:26:31.209206,293739,1609505084924534,2684894218,-1.028704,-0.134688,-0.10736,-0.42875,-8.295,0.09625,24.536001,22.984001,8.632,concentric,3,3.0,55350.0,257227.0,117625.0,251962.0,131012.0
2026-04-14 17:26:31.224278,293740,1609505084938978,2684909096,-1.011136,-0.134688,-0.17568,3.61375,-8.07625,-0.245,24.536001,22.144001,8.336,concentric,3,3.0,55350.0,257227.0,117625.0,251962.0,131012.0
2026-04-14 17:26:31.233038,293741,1609505084947959,2684917771,-1.011136,-0.134688,-0.17568,10.535,-8.198751,-0.06125,23.544,22.144001,8.336,concentric,3,3.0,55350.0,257227.0,117625.0,251962.0,131012.0
2026-04-14 17:26:31.243051,293742,1609505084956906,2684926491,-1.011136,-0.134688,-0.17568,15.65375,-10.33375,0.00875,23.544,22.144001,8.336,concentric,3,3.0,55350.0,257227.0,117625.0,251962.0,131012.0
2026-04-14 17:26:31.256800,293743,1609505084971371,2684941407,-1.095072,-0.050752,-0.025376,17.605,-12.5475,0.77875,22.768002,21.768002,9.208,concentric,3,3.0,55350.0,257227.0,117625.0,251962.0,131012.0
2026-04-14 17:26:31.290309,293754,1609505084980301,2684950191,-1.108736,-0.01952,-0.121024,16.7825,-13.37875,1.81125,21.088001,21.512001,12.344001,concentric,3,3.0,53677.0,253120.0,115190.0,249231.0,128507.0
2026-04-14 17:26:31.292531,293755,1609505084994876,2684965085,-1.108736,-0.01952,-0.121024,13.50125,-13.15125,1.18125,21.088001,21.512001,12.344001,concentric,3,3.0,53677.0,253120.0,115190.0,249231.0,128507.0
2026-04-14 17:26:31.295261,293756,1609505085003813,2684973796,-1.075552,-0.052704,-0.056608,9.58125,-12.17125,-0.28875,21.28,21.552002,11.320001,concentric,3,3.0,53677.0,253120.0,115190.0,249231.0,128507.0
2026-04-14 17:26:31.304199,293757,1609505085018361,2684988702,-1.075552,-0.052704,-0.056608,3.4475,-11.34,-0.39375,21.28,21.552002,11.320001,concentric,3,3.0,53677.0,253120.0,115190.0,249231.0,128507.0
2026-04-14 17:26:31.319212,293758,1609505085027344,2684997365,-1.001376,-0.148352,0.017568,0.3675,-10.84125,-0.035,19.720001,21.464,11.392,concentric,3,3.0,53677.0,253120.0,115190.0,249231.0,128507.0
2026-04-14 17:26:31.321807,293759,1609505085036241,2685006037,-1.001376,-0.148352,0.017568,3.36875,-11.03375,0.60375,19.720001,21.464,11.392,concentric,3,3.0,53677.0,253120.0,115190.0,249231.0,128507.0
2026-04-14 17:26:31.335554,293760,1609505085050753,2685020942,-1.089216,-0.095648,-0.140544,12.845,-12.04875,1.51375,20.336,21.176,12.456,concentric,3,3.0,53677.0,253120.0,115190.0,249231.0,128507.0
2026-04-14 17:26:31.345336,293761,1609505085059660,2685029626,-1.011136,-0.011712,0.07808,21.49875,-12.6875,2.17875,20.336,21.176,13.032001,concentric,3,3.0,53677.0,253120.0,115190.0,249231.0,128507.0
2026-04-14 17:26:31.380960,293762,1609505085074161,2685042504,-1.011136,-0.011712,0.07808,23.4675,-14.175,1.9775,20.664001,21.208,13.032001,concentric,3,3.0,53677.0,253120.0,115190.0,249231.0,128507.0
2026-04-14 17:26:31.432775,293773,1609505085083462,2685053312,-1.056032,-0.007808,-0.035136,17.52625,-15.3475,1.79375,19.624,21.656,16.112001,concentric,3,3.0,50568.0,245155.0,110533.0,243303.0,123616.0
2026-04-14 17:26:31.435275,293774,1609505085097941,2685068233,-1.056032,-0.007808,-0.035136,6.3175,-15.855001,0.84875,19.624,21.656,16.112001,concentric,3,3.0,50568.0,245155.0,110533.0,243303.0,123616.0
2026-04-14 17:26:31.437668,293775,1609505085106855,2685076899,-1.06384,-0.109312,-0.091744,-2.75625,-15.95125,0.84,19.144001,22.112001,16.800001,concentric,3,3.0,50568.0,245155.0,110533.0,243303.0,123616.0
2026-04-14 17:26:31.439920,293776,1609505085115747,2685085546,-1.06384,-0.109312,-0.091744,-4.03375,-15.12,1.72375,19.144001,22.112001,16.800001,concentric,3,3.0,50568.0,245155.0,110533.0,243303.0,123616.0
2026-04-14 17:26:31.442738,293777,1609505085130220,2685100442,-0.993568,-0.144448,-0.160064,1.23375,-14.62125,2.28375,19.304,22.408,16.800001,concentric,3,3.0,50568.0,245155.0,110533.0,243303.0,123616.0
2026-04-14 17:26:31.445220,293778,1609505085139231,2685109189,-0.993568,-0.144448,-0.160064,5.87125,-14.35,1.65375,19.304,22.408,16.800001,concentric,3,3.0,50568.0,245155.0,110533.0,243303.0,123616.0
2026-04-14 17:26:31.447790,293779,1609505085153787,2685124138,-1.00528,-0.081984,-0.15616,11.9525,-13.895,2.37125,19.744001,22.376001,17.568,concentric,3,3.0,50568.0,245155.0,110533.0,243303.0,123616.0
2026-04-14 17:26:31.450282,293780,1609505085162868,2685132854,-1.030656,-0.007808,-0.150304,14.2625,-14.0525,2.7125,21.224,22.776001,17.504002,concentric,3,3.0,50568.0,245155.0,110533.0,243303.0,123616.0
2026-04-14 17:26:31.456228,293781,1609505085171939,2685141577,-1.030656,-0.007808,-0.150304,9.6775,-15.0675,0.9975,21.224,22.776001,17.504002,concentric,3,3.0,50568.0,245155.0,110533.0,243303.0,123616.0
2026-04-14 17:26:31.491232,293792,1609505085186622,2685156916,-1.048224,-0.044896,-0.05856,1.81125,-16.4325,-0.62125,22.736002,22.776001,17.328001,concentric,3,3.0,46010.0,236884.0,102774.0,235375.0,115585.0
2026-04-14 17:26:31.493649,293793,1609505085195671,2685165608,-1.048224,-0.044896,-0.05856,-2.17,-17.272501,-1.575,22.736002,22.776001,17.328001,concentric,3,3.0,46010.0,236884.0,102774.0,235375.0,115585.0
2026-04-14 17:26:31.496100,293794,1609505085210201,2685180554,-0.999424,-0.080032,0.111264,-0.72625,-17.5,-1.40875,22.136002,23.288002,17.640001,concentric,3,3.0,46010.0,236884.0,102774.0,235375.0,115585.0
2026-04-14 17:26:31.503644,293795,1609505085219111,2685189252,-0.999424,-0.080032,0.111264,3.77125,-17.185,-1.82,22.136002,23.288002,17.640001,concentric,3,3.0,46010.0,236884.0,102774.0,235375.0,115585.0
2026-04-14 17:26:31.517646,293796,1609505085233642,2685202131,-0.935008,-0.037088,0.119072,7.6125,-16.397501,-1.1725,22.320002,23.152,16.696001,concentric,3,3.0,46010.0,236884.0,102774.0,235375.0,115585.0
2026-04-14 17:26:31.528685,293797,1609505085242962,2685212893,-0.909632,-0.056608,0.080032,8.04125,-16.6075,-1.47,23.592001,23.2,16.672,concentric,3,3.0,46010.0,236884.0,102774.0,235375.0,115585.0
2026-04-14 17:26:31.537513,293798,1609505085251892,2685221641,-0.909632,-0.056608,0.080032,4.85625,-16.8,-1.6275,23.592001,23.2,16.672,concentric,3,3.0,46010.0,236884.0,102774.0,235375.0,115585.0
2026-04-14 17:26:31.552878,293799,1609505085266374,2685236625,-1.009184,-0.101504,-0.070272,2.26625,-17.73625,-2.16125,23.848001,22.984001,16.672,concentric,3,3.0,46010.0,236884.0,102774.0,235375.0,115585.0
2026-04-14 17:26:31.560085,293800,1609505085275278,2685245302,-1.009184,-0.101504,-0.070272,7.32375,-18.025,-1.54875,23.848001,22.984001,16.672,concentric,3,3.0,46010.0,236884.0,102774.0,235375.0,115585.0
2026-04-14 17:26:31.592500,293811,1609505085289934,2685260310,-0.989664,0.013664,0.148352,15.3475,-16.4675,-0.98875,23.544,23.248001,17.752,concentric,3,3.0,44808.0,234761.0,100583.0,233586.0,113367.0
2026-04-14 17:26:31.594923,293812,1609505085298890,2685268976,-0.989664,0.013664,0.148352,15.51375,-14.48125,-1.1025,23.544,23.248001,17.752,concentric,3,3.0,44808.0,234761.0,100583.0,233586.0,113367.0
2026-04-14 17:26:31.597788,293813,1609505085307888,2685277687,-1.032608,0.01952,-0.007808,2.4325,-14.3675,-1.575,23.448002,23.480001,17.032001,concentric,3,3.0,44808.0,234761.0,100583.0,233586.0,113367.0
2026-04-14 17:26:31.609334,293814,1609505085322376,2685292603,-1.036512,-0.12688,-0.072224,-13.886251,-14.58625,-1.3475,23.648,23.736002,15.960001,concentric,3,3.0,44808.0,234761.0,100583.0,233586.0,113367.0
2026-04-14 17:26:31.616810,293815,1609505085331305,2685301274,-1.036512,-0.12688,-0.072224,-22.49625,-14.00875,-0.69125,23.648,23.736002,15.960001,concentric,3,3.0,44808.0,234761.0,100583.0,233586.0,113367.0
2026-04-14 17:26:31.631836,293816,1609505085345768,2685314119,-1.030656,-0.150304,-0.154208,-20.58,-13.20375,0.79625,23.488,23.720001,15.632001,concentric,3,3.0,44808.0,234761.0,100583.0,233586.0,113367.0
2026-04-14 17:26:31.639304,293817,1609505085354914,2685324893,-1.030656,-0.150304,-0.154208,-11.025,-11.7425,1.05,23.488,23.720001,15.632001,concentric,3,3.0,44808.0,234761.0,100583.0,233586.0,113367.0
2026-04-14 17:26:31.653863,293818,1609505085369342,2685337718,-0.987712,-0.007808,0.0488,2.26625,-12.3025,2.1875,22.944,23.920002,16.864,concentric,3,3.0,44808.0,234761.0,100583.0,233586.0,113367.0
2026-04-14 17:26:31.664174,293819,1609505085378525,2685348548,-0.987712,-0.007808,0.0488,10.71,-12.43375,4.06,22.944,23.920002,16.864,concentric,3,3.0,44808.0,234761.0,100583.0,233586.0,113367.0
2026-04-14 17:26:31.694140,293830,1609505085387449,2685357282,-1.087264,0.064416,-0.037088,6.475,-14.4375,4.2525,22.888,24.056002,17.152,concentric,3,3.0,43153.0,230195.0,97727.0,229718.0,110236.0
2026-04-14 17:26:31.696581,293831,1609505085401999,2685372190,-1.061888,-0.07808,-0.095648,-6.3175,-16.1175,3.675,22.888,24.288002,16.104,concentric,3,3.0,43153.0,230195.0,97727.0,229718.0,110236.0
2026-04-14 17:26:31.698955,293832,1609505085410941,2685380967,-1.061888,-0.07808,-0.095648,-17.80625,-17.17625,3.68375,22.448002,24.288002,16.104,concentric,3,3.0,43153.0,230195.0,97727.0,229718.0,110236.0
2026-04-14 17:26:31.710550,293833,1609505085425470,2685393831,-0.979904,-0.142496,-0.046848,-21.5425,-17.01,4.62875,23.648,24.184002,15.648001,concentric,3,3.0,43153.0,230195.0,97727.0,229718.0,110236.0
2026-04-14 17:26:31.721819,293834,1609505085434670,2685404569,-0.979904,-0.142496,-0.046848,-16.75625,-16.94875,5.87125,23.648,24.184002,15.648001,concentric,3,3.0,43153.0,230195.0,97727.0,229718.0,110236.0
2026-04-14 17:26:31.746691,293835,1609505085443629,2685413258,-0.919392,-0.02928,0.167872,-5.95875,-16.02125,7.77875,23.608002,23.896002,15.672001,concentric,3,3.0,43153.0,230195.0,97727.0,229718.0,110236.0
2026-04-14 17:26:31.774270,293836,1609505085458107,2685428127,-0.919392,-0.02928,0.167872,5.31125,-14.3675,9.09125,23.608002,23.896002,15.672001,concentric,3,3.0,43153.0,230195.0,97727.0,229718.0,110236.0
2026-04-14 17:26:31.799411,293837,1609505085467006,2685436836,-0.8784,0.003904,0.070272,6.48375,-13.16,8.89,23.448002,24.072,15.664001,concentric,3,3.0,43153.0,230195.0,97727.0,229718.0,110236.0
2026-04-14 17:26:31.831864,293848,1609505085481868,2685451723,-0.8784,0.003904,0.070272,-2.09125,-14.55125,8.49625,23.448002,24.072,15.664001,concentric,3,3.0,43347.0,229720.0,97900.0,229095.0,110584.0
2026-04-14 17:26:31.833735,293849,1609505085490816,2685460498,-0.962336,-0.01952,0.197152,-10.6225,-16.1,8.4,23.448002,24.152,13.888001,concentric,3,3.0,43347.0,229720.0,97900.0,229095.0,110584.0
2026-04-14 17:26:31.836322,293850,1609505085505341,2685475375,-0.856928,-0.037088,0.242048,-10.1325,-16.38,7.945,23.176,24.096,15.704,concentric,3,3.0,43347.0,229720.0,97900.0,229095.0,110584.0
2026-04-14 17:26:31.842238,293851,1609505085514253,2685484042,-0.856928,-0.037088,0.242048,-0.06125,-15.11125,7.49875,23.176,24.096,15.704,concentric,3,3.0,43347.0,229720.0,97900.0,229095.0,110584.0
2026-04-14 17:26:31.843453,293852,1609505085523296,2685492729,-0.872544,0.050752,0.00976,10.7275,-13.615,7.56,23.6,23.504002,15.968,concentric,3,3.0,43347.0,229720.0,97900.0,229095.0,110584.0
2026-04-14 17:26:31.843587,293853,1609505085537845,2685507729,-0.872544,0.050752,0.00976,10.85875,-12.0225,6.62375,23.6,23.504002,15.968,concentric,3,3.0,43347.0,229720.0,97900.0,229095.0,110584.0
