pc_time,serial_num,sensor_ts,host_ts,ax,ay,az,gx,gy,gz,mx,my,mz,phase,rpe,weight_kg,ppg_a,ppg_b,ppg_c,ppg_d,ppg_e
2026-04-14 17:26:31.846137,293854,1609505085546774,2685516471,-0.882304,-0.02928,0.005856,-0.3675,-11.165,4.76,23.432001,23.608002,15.64,concentric,3,3.0,43347.0,229720.0,97900.0,229095.0,110584.0
2026-04-14 17:26:31.848655,293855,1609505085561267,2685531380,-0.882304,-0.02928,0.005856,-11.57625,-12.145,4.655,23.432001,23.608002,15.64,eccentric,3,3.0,43347.0,229720.0,97900.0,229095.0,110584.0
2026-04-14 17:26:31.856707,293856,1609505085570195,2685540114,-0.808128,-0.16592,0.060512,-12.27625,-12.95,5.31125,23.6,24.04,16.152,eccentric,3,3.0,43347.0,229720.0,97900.0,229095.0,110584.0
2026-04-14 17:26:31.890248,293867,1609505085585132,2685555101,-0.960384,0.003904,-0.01952,1.575,-14.13125,4.76875,23.032001,23.68,16.072,eccentric,3,3.0,46431.0,237186.0,102957.0,234918.0,116320.0
2026-04-14 17:26:31.897724,293868,1609505085594178,2685563822,-0.960384,0.003904,-0.01952,23.135,-13.5625,5.67,23.032001,23.68,16.072,eccentric,3,3.0,46431.0,237186.0,102957.0,234918.0,116320.0
2026-04-14 17:26:31.900117,293869,1609505085603133,2685572572,-0.91744,0.162016,0.376736,40.74,-11.82125,7.46375,23.032001,23.68,16.096,eccentric,3,3.0,46431.0,237186.0,102957.0,234918.0,116320.0
2026-04-14 17:26:31.902573,293870,1609505085617635,2685587448,-0.91744,0.162016,0.376736,38.47375,-11.1475,7.56875,22.144001,23.352001,16.096,eccentric,3,3.0,46431.0,237186.0,102957.0,234918.0,116320.0
2026-04-14 17:26:31.911560,293871,1609505085626566,2685596179,-0.958432,0.054656,0.218624,19.5825,-10.2025,5.145,23.080002,22.792002,16.16,eccentric,3,3.0,46431.0,237186.0,102957.0,234918.0,116320.0
2026-04-14 17:26:31.927624,293872,1609505085641014,2685611054,-0.958432,0.054656,0.218624,3.36875,-8.2775,1.65375,23.080002,22.792002,16.16,eccentric,3,3.0,46431.0,237186.0,102957.0,234918.0,116320.0
2026-04-14 17:26:31.935113,293873,1609505085649914,2685619744,-1.03456,-0.10736,0.105408,2.42375,-6.0375,-0.875,23.392,22.936,17.336,eccentric,3,3.0,46431.0,237186.0,102957.0,234918.0,116320.0
2026-04-14 17:26:31.943874,293874,1609505085658820,2685628425,-1.03456,-0.10736,0.105408,13.43125,-4.095,-1.40875,23.392,22.936,17.336,eccentric,3,3.0,46431.0,237186.0,102957.0,234918.0,116320.0
2026-04-14 17:26:31.958901,293875,1609505085673305,2685643311,-1.030656,-0.08784,0.080032,27.195,-2.63375,-1.19,22.944,22.848001,17.896,eccentric,3,3.0,46431.0,237186.0,102957.0,234918.0,116320.0
2026-04-14 17:26:31.991496,293886,1609505085682347,2685651965,-1.030656,-0.08784,0.080032,33.985,-1.5225,-1.23375,22.944,22.848001,17.896,eccentric,3,3.0,48128.0,243298.0,105764.0,239924.0,119167.0
2026-04-14 17:26:31.994049,293887,1609505085697260,2685666923,-1.09312,0.03904,0.16592,30.35375,-0.805,-2.7125,22.112001,22.664001,17.376001,eccentric,3,3.0,48128.0,243298.0,105764.0,239924.0,119167.0
2026-04-14 17:26:32.001500,293888,1609505085706191,2685675625,-1.110688,-0.064416,0.003904,18.8825,-0.6125,-3.92875,21.52,23.056002,18.024,eccentric,3,3.0,48128.0,243298.0,105764.0,239924.0,119167.0
2026-04-14 17:26:32.003986,293889,1609505085715167,2685684314,-1.110688,-0.064416,0.003904,8.5225,0.07875,-6.02875,21.52,23.056002,18.024,eccentric,3,3.0,48128.0,243298.0,105764.0,239924.0,119167.0
2026-04-14 17:26:32.015140,293890,1609505085729653,2685699254,-1.069696,-0.080032,0.128832,4.13,0.525,-6.85125,22.416,22.592001,17.960001,eccentric,3,3.0,48128.0,243298.0,105764.0,239924.0,119167.0
2026-04-14 17:26:32.024346,293891,1609505085738600,2685708002,-1.069696,-0.080032,0.128832,3.5,1.435,-7.67375,22.416,22.592001,17.960001,eccentric,3,3.0,48128.0,243298.0,105764.0,239924.0,119167.0
2026-04-14 17:26:32.037528,293892,1609505085753059,2685722870,-1.104832,-0.066368,-0.003904,1.93375,1.77625,-9.10875,23.704,22.400002,17.544,eccentric,3,3.0,48128.0,243298.0,105764.0,239924.0,119167.0
2026-04-14 17:26:32.046131,293893,1609505085762027,2685731571,-1.104832,-0.066368,-0.003904,-1.07625,2.89625,-9.40625,23.704,22.400002,17.544,eccentric,3,3.0,48128.0,243298.0,105764.0,239924.0,119167.0
2026-04-14 17:26:32.061396,293894,1609505085776509,2685746463,-1.128256,-0.056608,-0.005856,-3.36875,3.10625,-9.8175,23.144001,22.456001,17.024,eccentric,3,3.0,48128.0,243298.0,105764.0,239924.0,119167.0
2026-04-14 17:26:32.137671,293905,1609505085785530,2685755363,-1.028704,-0.040992,0.206912,-4.1475,3.68375,-10.535,22.304,22.704,16.448,eccentric,3,3.0,47309.0,241379.0,104188.0,238015.0,117479.0
2026-04-14 17:26:32.140148,293906,1609505085794620,2685764183,-1.028704,-0.040992,0.206912,-2.7125,3.77125,-10.71875,22.304,22.704,16.448,eccentric,3,3.0,47309.0,241379.0,104188.0,238015.0,117479.0
2026-04-14 17:26:32.147795,293907,1609505085809157,2685779114,-1.104832,-0.01952,-0.074176,-1.49625,3.6225,-10.3425,22.320002,22.856,18.432001,eccentric,3,3.0,47309.0,241379.0,104188.0,238015.0,117479.0
2026-04-14 17:26:32.150236,293908,1609505085818066,2685787776,-1.104832,-0.01952,-0.074176,-1.82,3.3075,-10.07125,22.320002,22.856,18.432001,eccentric,3,3.0,47309.0,241379.0,104188.0,238015.0,117479.0
2026-04-14 17:26:32.152713,293909,1609505085832525,2685802635,-1.018944,-0.015616,0.031232,-4.38375,2.7475,-9.6425,22.272001,22.832,18.216002,eccentric,3,3.0,47309.0,241379.0,104188.0,238015.0,117479.0
2026-04-14 17:26:32.155207,293910,1609505085841417,2685811305,-1.018944,-0.015616,0.031232,-10.10625,2.63375,-9.065,22.272001,22.832,18.216002,eccentric,3,3.0,47309.0,241379.0,104188.0,238015.0,117479.0
2026-04-14 17:26:32.157783,293911,1609505085855890,2685826165,-1.007232,-0.023424,0.212768,-12.87125,2.8175,-8.7325,22.264002,23.088001,18.76,eccentric,3,3.0,47309.0,241379.0,104188.0,238015.0,117479.0
2026-04-14 17:26:32.160268,293912,1609505085864865,2685834844,-1.067744,-0.011712,0.11712,-10.535,2.8,-8.96,22.264002,23.088001,18.352001,eccentric,3,3.0,47309.0,241379.0,104188.0,238015.0,117479.0
2026-04-14 17:26:32.162694,293913,1609505085873928,2685843599,-1.067744,-0.011712,0.11712,-4.17375,3.3425,-8.2425,21.648,23.296001,18.352001,eccentric,3,3.0,47309.0,241379.0,104188.0,238015.0,117479.0
2026-04-14 17:26:32.192790,293924,1609505085888587,2685858681,-1.069696,0.001952,0.103456,1.6975,4.01625,-7.49875,21.688002,23.416,17.976002,eccentric,3,3.0,47448.0,240358.0,104557.0,237586.0,117917.0
2026-04-14 17:26:32.195234,293925,1609505085897517,2685867374,-1.069696,0.001952,0.103456,3.70125,4.13875,-6.23875,21.688002,23.416,17.976002,eccentric,3,3.0,47448.0,240358.0,104557.0,237586.0,117917.0
2026-04-14 17:26:32.197770,293926,1609505085912007,2685882294,-1.079456,0.017568,0.163968,3.29,3.94625,-4.97875,21.544,23.240002,17.856,eccentric,3,3.0,47448.0,240358.0,104557.0,237586.0,117917.0
2026-04-14 17:26:32.207666,293927,1609505085920963,2685890987,-1.079456,0.017568,0.163968,2.12625,4.27875,-4.1125,21.544,23.240002,17.856,eccentric,3,3.0,47448.0,240358.0,104557.0,237586.0,117917.0
2026-04-14 17:26:32.221339,293928,1609505085935546,2685905859,-1.057984,0.00976,0.212768,2.1875,5.145,-3.8325,23.128,22.800001,17.2,eccentric,3,3.0,47448.0,240358.0,104557.0,237586.0,117917.0
2026-04-14 17:26:32.230381,293929,1609505085944496,2685914539,-1.057984,0.00976,0.212768,3.71875,5.7925,-3.57,23.128,22.800001,17.2,eccentric,3,3.0,47448.0,240358.0,104557.0,237586.0,117917.0
2026-04-14 17:26:32.237942,293930,1609505085953515,2685923290,-1.00528,0.001952,0.191296,4.62875,6.5625,-3.78,23.264002,22.936,17.480001,eccentric,3,3.0,47448.0,240358.0,104557.0,237586.0,117917.0
2026-04-14 17:26:32.253035,293931,1609505085967980,2685938165,-0.964288,-0.035136,0.154208,4.5675,7.4025,-4.10375,22.792002,22.888,18.072,eccentric,3,3.0,47448.0,240358.0,104557.0,237586.0,117917.0
2026-04-14 17:26:32.264235,293932,1609505085976930,2685946846,-0.964288,-0.035136,0.154208,4.095,7.385,-3.9025,22.792002,22.888,18.072,eccentric,3,3.0,47448.0,240358.0,104557.0,237586.0,117917.0
2026-04-14 17:26:32.291803,293943,1609505085991427,2685959794,-1.009184,-0.015616,0.179584,4.34,7.44625,-3.2025,22.528002,22.952002,18.144001,eccentric,3,3.0,48786.0,240881.0,106883.0,239039.0,120332.0
2026-04-14 17:26:32.294225,293944,1609505086000672,2685970658,-1.009184,-0.015616,0.179584,5.94125,8.0675,-3.815,22.528002,22.952002,18.144001,eccentric,3,3.0,48786.0,240881.0,106883.0,239039.0,120332.0
2026-04-14 17:26:32.298361,293945,1609505086009610,2685979376,-0.991616,-0.001952,0.18544,7.35,9.02125,-4.655,22.504002,22.808,18.128,eccentric,3,3.0,48786.0,240881.0,106883.0,239039.0,120332.0
2026-04-14 17:26:32.309987,293946,1609505086024151,2685994240,-0.991616,-0.001952,0.18544,7.90125,9.89625,-5.95,22.504002,22.808,18.128,eccentric,3,3.0,48786.0,240881.0,106883.0,239039.0,120332.0
2026-04-14 17:26:32.319156,293947,1609505086033076,2686002968,-0.991616,-0.021472,-0.046848,7.14875,10.26375,-7.91,23.28,22.376001,16.032001,eccentric,3,3.0,48786.0,240881.0,106883.0,239039.0,120332.0
2026-04-14 17:26:32.334156,293948,1609505086047576,2686017847,-0.938912,-0.025376,0.152256,6.06375,10.5525,-9.70375,23.496,22.624,19.264002,eccentric,3,3.0,48786.0,240881.0,106883.0,239039.0,120332.0
2026-04-14 17:26:32.341404,293949,1609505086056490,2686026501,-0.938912,-0.025376,0.152256,4.515,11.31375,-11.4625,23.496,22.624,19.264002,eccentric,3,3.0,48786.0,240881.0,106883.0,239039.0,120332.0
2026-04-14 17:26:32.358085,293950,1609505086071059,2686041393,-1.007232,-0.040992,0.056608,3.33375,10.98125,-11.7425,22.688002,22.552002,17.864,eccentric,3,3.0,48786.0,240881.0,106883.0,239039.0,120332.0
2026-04-14 17:26:32.365581,293951,1609505086080030,2686050101,-1.007232,-0.040992,0.056608,2.09125,10.26375,-12.355001,22.688002,22.552002,17.864,eccentric,3,3.0,48786.0,240881.0,106883.0,239039.0,120332.0
2026-04-14 17:26:32.420423,293962,1609505086089078,2686058848,-1.048224,-0.089792,-0.074176,2.03,9.45875,-11.97,22.68,21.928001,17.144001,eccentric,3,3.0,49799.0,241038.0,108702.0,240278.0,122137.0
2026-04-14 17:26:32.425572,293963,1609505086103649,2686073789,-1.048224,-0.089792,-0.074176,5.25875,8.56625,-10.43875,22.68,21.928001,17.144001,eccentric,3,3.0,49799.0,241038.0,108702.0,240278.0,122137.0
2026-04-14 17:26:32.427551,293964,1609505086112552,2686082466,-1.013088,-0.0976,-0.046848,8.86375,8.44375,-8.26,23.744001,22.032001,17.400002,eccentric,3,3.0,49799.0,241038.0,108702.0,240278.0,122137.0
2026-04-14 17:26:32.429988,293965,1609505086127054,2686097342,-0.958432,-0.093696,0.130784,10.43875,7.97125,-6.58875,23.76,22.384,17.184,eccentric,3,3.0,49799.0,241038.0,108702.0,240278.0,122137.0
2026-04-14 17:26:32.432995,293966,1609505086136029,2686106026,-0.958432,-0.093696,0.130784,9.345,8.07625,-4.17375,23.76,22.384,17.184,eccentric,3,3.0,49799.0,241038.0,108702.0,240278.0,122137.0
2026-04-14 17:26:32.435486,293967,1609505086150603,2686120995,-0.999424,-0.091744,-0.115168,6.2825,8.4525,-2.33625,23.960001,22.336,18.544,eccentric,3,3.0,49799.0,241038.0,108702.0,240278.0,122137.0
2026-04-14 17:26:32.444985,293968,1609505086159574,2686129669,-0.999424,-0.091744,-0.115168,2.7475,9.2225,-1.3825,23.960001,22.336,18.544,eccentric,3,3.0,49799.0,241038.0,108702.0,240278.0,122137.0
2026-04-14 17:26:32.455425,293969,1609505086168486,2686138343,-0.983808,-0.060512,0.128832,-0.39375,9.05625,-0.245,23.160002,22.36,17.368,eccentric,3,3.0,49799.0,241038.0,108702.0,240278.0,122137.0
2026-04-14 17:26:32.482383,293970,1609505086182963,2686153205,-0.983808,-0.060512,0.128832,-1.68,7.8225,0.7875,23.160002,22.36,17.368,eccentric,3,3.0,49799.0,241038.0,108702.0,240278.0,122137.0
2026-04-14 17:26:32.544174,293981,1609505086191920,2686161928,-1.091168,-0.05856,-0.06832,-1.47,7.0,1.1375,23.224,21.944,17.68,eccentric,3,3.0,48662.0,236465.0,107171.0,237842.0,120514.0
2026-04-14 17:26:32.546237,293982,1609505086206666,2686176939,-1.091168,-0.05856,-0.099552,-0.58625,6.685,1.3125,23.224,21.944,17.68,eccentric,3,3.0,48662.0,236465.0,107171.0,237842.0,120514.0
2026-04-14 17:26:32.549017,293983,1609505086215612,2686185612,-1.052128,-0.081984,-0.099552,-0.83125,6.58,1.4875,24.248001,21.816002,18.168001,eccentric,3,3.0,48662.0,236465.0,107171.0,237842.0,120514.0
2026-04-14 17:26:32.551484,293984,1609505086224542,2686194286,-1.052128,-0.081984,-0.099552,-3.395,7.07875,2.2575,24.248001,21.816002,18.168001,eccentric,3,3.0,48662.0,236465.0,107171.0,237842.0,120514.0
2026-04-14 17:26:32.554209,293985,1609505086239011,2686209141,-0.991616,-0.099552,-0.083936,-5.67875,5.95875,3.01,24.400002,21.824001,17.656,eccentric,3,3.0,48662.0,236465.0,107171.0,237842.0,120514.0
2026-04-14 17:26:32.556805,293986,1609505086247934,2686217849,-1.007232,-0.089792,0.044896,-6.13375,5.24125,3.80625,24.496,21.464,17.984001,eccentric,3,3.0,48662.0,236465.0,107171.0,237842.0,120514.0
2026-04-14 17:26:32.559309,293987,1609505086262500,2686232739,-1.007232,-0.089792,0.044896,-4.41,6.09,4.55,24.496,21.464,17.984001,eccentric,3,3.0,48662.0,236465.0,107171.0,237842.0,120514.0
2026-04-14 17:26:32.561782,293988,1609505086271481,2686241442,-1.08336,0.001952,0.027328,-2.3625,7.34125,4.9875,24.816002,21.576,17.968,eccentric,3,3.0,48662.0,236465.0,107171.0,237842.0,120514.0
2026-04-14 17:26:32.594991,293999,1609505086286407,2686256735,-1.08336,0.001952,0.027328,-0.77,10.31625,4.26125,24.816002,21.576,17.968,eccentric,3,3.0,51109.0,237525.0,111603.0,240007.0,125030.0
2026-04-14 17:26:32.597927,294000,1609505086295402,2686265455,-1.009184,0.052704,0.216672,-3.85875,14.51625,1.4,24.616001,21.736002,18.064001,eccentric,3,3.0,51109.0,237525.0,111603.0,240007.0,125030.0
2026-04-14 17:26:32.600294,294001,1609505086304392,2686274162,-1.009184,0.052704,0.216672,-12.8975,16.75625,-2.4325,24.616001,21.736002,18.064001,eccentric,3,3.0,51109.0,237525.0,111603.0,240007.0,125030.0
2026-04-14 17:26:32.605412,294002,1609505086318923,2686289083,-0.983808,-0.03904,-0.044896,-22.63625,19.73125,-6.9125,23.880001,22.056002,18.52,eccentric,3,3.0,51109.0,237525.0,111603.0,240007.0,125030.0
2026-04-14 17:26:32.612557,294003,1609505086327833,2686297751,-0.98576,-0.119072,-0.124928,-26.53,22.575,-9.8875,23.880001,22.056002,18.384,eccentric,3,3.0,51109.0,237525.0,111603.0,240007.0,125030.0
2026-04-14 17:26:32.628695,294004,1609505086342315,2686312624,-0.98576,-0.119072,-0.124928,-25.5675,24.01875,-11.83875,24.448002,22.032001,18.384,eccentric,3,3.0,51109.0,237525.0,111603.0,240007.0,125030.0
2026-04-14 17:26:32.637187,294005,1609505086351279,2686321319,-0.94672,-0.093696,0.023424,-22.61875,24.98125,-12.90625,25.488,22.168001,18.576,eccentric,3,3.0,51109.0,237525.0,111603.0,240007.0,125030.0
2026-04-14 17:26:32.649339,294006,1609505086365791,2686334155,-0.94672,-0.093696,0.023424,-16.625,25.34875,-12.95875,25.488,22.168001,18.576,eccentric,3,3.0,51109.0,237525.0,111603.0,240007.0,125030.0
2026-04-14 17:26:32.660577,294007,1609505086374991,2686344885,-0.962336,-0.011712,0.173728,-13.7375,26.41625,-12.38125,25.616001,22.096,17.344002,eccentric,3,3.0,51109.0,237525.0,111603.0,240007.0,125030.0
2026-04-14 17:26:32.671656,294008,1609505086383936,2686353565,-0.962336,-0.011712,0.173728,-17.3775,26.3375,-12.62625,25.616001,22.096,17.344002,eccentric,3,3.0,51109.0,237525.0,111603.0,240007.0,125030.0
2026-04-14 17:26:32.697534,294019,1609505086398489,2686368552,-0.962336,-0.060512,-0.105408,-23.397501,26.11875,-11.7075,25.28,22.480001,17.064001,eccentric,3,3.0,52267.0,239375.0,113416.0,241440.0,126809.0
2026-04-14 17:26:32.699898,294020,1609505086407406,2686377265,-0.962336,-0.060512,-0.105408,-27.6325,24.59625,-10.2375,25.28,22.480001,17.064001,eccentric,3,3.0,52267.0,239375.0,113416.0,241440.0,126809.0
2026-04-14 17:26:32.706710,294021,1609505086421948,2686392222,-0.899872,-0.11712,0.105408,-30.09125,22.925,-8.47875,25.368002,22.384,16.424002,eccentric,3,3.0,52267.0,239375.0,113416.0,241440.0,126809.0
2026-04-14 17:26:32.718092,294022,1609505086430904,2686400913,-1.079456,-0.070272,0.0,-29.81125,22.5925,-5.8625,24.592001,22.336,19.048,eccentric,3,3.0,52267.0,239375.0,113416.0,241440.0,126809.0
2026-04-14 17:26:32.725578,294023,1609505086439782,2686409575,-1.079456,-0.070272,0.0,-26.31125,22.05875,-3.36875,24.592001,22.336,19.048,eccentric,3,3.0,52267.0,239375.0,113416.0,241440.0,126809.0
2026-04-14 17:26:32.741055,294024,1609505086454252,2686424458,-1.06384,-0.044896,-0.140544,-21.7875,22.9425,-1.1375,25.272001,22.352001,16.792002,eccentric,3,3.0,52267.0,239375.0,113416.0,241440.0,126809.0
2026-04-14 17:26:32.747706,294025,1609505086463227,2686433149,-1.06384,-0.044896,-0.140544,-19.18,23.47625,-1.25125,25.272001,22.352001,16.792002,eccentric,3,3.0,52267.0,239375.0,113416.0,241440.0,126809.0
2026-04-14 17:26:32.765866,294026,1609505086477704,2686448016,-1.0248,-0.044896,-0.242048,-18.45375,21.665,-3.03625,24.112001,22.480001,16.616001,eccentric,3,3.0,52267.0,239375.0,113416.0,241440.0,126809.0
2026-04-14 17:26:32.794989,294037,1609505086486634,2686456770,-1.0248,-0.044896,-0.242048,-16.8,19.22375,-4.15625,24.112001,22.480001,16.616001,eccentric,3,3.0,52106.0,242470.0,113024.0,243464.0,126447.0
2026-04-14 17:26:32.797682,294038,1609505086501721,2686471650,-1.0248,-0.031232,-0.142496,-16.345,17.12375,-5.78375,24.272001,22.184002,18.056002,eccentric,3,3.0,52106.0,242470.0,113024.0,243464.0,126447.0
2026-04-14 17:26:32.800124,294039,1609505086510738,2686480365,-1.050176,-0.00976,0.132736,-18.22625,15.67125,-7.4725,23.824001,21.792002,16.912,eccentric,3,3.0,52106.0,242470.0,113024.0,243464.0,126447.0
2026-04-14 17:26:32.803709,294040,1609505086519668,2686489065,-1.050176,-0.00976,0.132736,-22.25125,15.3475,-7.74375,23.824001,21.792002,16.912,eccentric,3,3.0,52106.0,242470.0,113024.0,243464.0,126447.0
2026-04-14 17:26:32.818963,294041,1609505086534114,2686503923,-1.036512,-0.062464,0.101504,-25.725,15.14625,-8.19,23.336,21.536001,16.224,eccentric,3,3.0,52106.0,242470.0,113024.0,243464.0,126447.0
2026-04-14 17:26:32.848877,294042,1609505086543047,2686512653,-1.036512,-0.062464,0.101504,-24.885,16.065,-8.93375,23.336,21.536001,16.224,eccentric,3,3.0,52106.0,242470.0,113024.0,243464.0,126447.0
2026-04-14 17:26:32.851338,294043,1609505086557501,2686527589,-1.114592,-0.072224,-0.228384,-19.495,16.51125,-10.17625,22.448002,21.776001,16.576,eccentric,3,3.0,52106.0,242470.0,113024.0,243464.0,126447.0
2026-04-14 17:26:32.856460,294044,1609505086566411,2686536255,-1.114592,-0.072224,-0.228384,-9.292501,15.8375,-11.03375,22.448002,21.776001,16.576,eccentric,3,3.0,52106.0,242470.0,113024.0,243464.0,126447.0
2026-04-14 17:26:32.878842,294045,1609505086580912,2686551146,-1.036512,-0.011712,-0.144448,-3.85875,15.190001,-10.185,21.344002,20.856,15.232,eccentric,3,3.0,52106.0,242470.0,113024.0,243464.0,126447.0
2026-04-14 17:26:32.909027,294056,1609505086589904,2686559855,-1.007232,-0.062464,-0.152256,-10.7275,13.475,-10.167501,21.888,20.976002,14.464001,eccentric,3,3.0,55880.0,250784.0,119177.0,250139.0,132645.0
2026-04-14 17:26:32.911517,294057,1609505086598904,2686568577,-1.007232,-0.062464,-0.152256,-25.725,12.69625,-10.0975,21.888,20.976002,14.464001,eccentric,3,3.0,55880.0,250784.0,119177.0,250139.0,132645.0
2026-04-14 17:26:32.913815,294058,1609505086613418,2686583474,-1.138016,-0.124928,-0.03904,-40.46,10.68375,-8.74125,20.984001,20.664001,13.352,eccentric,3,3.0,55880.0,250784.0,119177.0,250139.0,132645.0
2026-04-14 17:26:32.916464,294059,1609505086622343,2686592153,-1.138016,-0.124928,-0.03904,-44.52875,9.65125,-6.39625,20.984001,20.664001,13.352,eccentric,3,3.0,55880.0,250784.0,119177.0,250139.0,132645.0
2026-04-14 17:26:32.924015,294060,1609505086636846,2686607090,-1.108736,-0.158112,-0.189344,-34.74625,10.5525,-4.6725,20.584002,20.296001,13.352,eccentric,3,3.0,55880.0,250784.0,119177.0,250139.0,132645.0
2026-04-14 17:26:32.930124,294061,1609505086645771,2686615795,-1.108736,-0.158112,-0.189344,-14.7875,12.78375,-5.62625,20.584002,20.296001,13.352,eccentric,3,3.0,55880.0,250784.0,119177.0,250139.0,132645.0
2026-04-14 17:26:32.939033,294062,1609505086654765,2686624479,-1.098976,0.0,-0.0488,5.64375,14.55125,-5.67,20.016,20.216002,12.352,eccentric,3,3.0,55880.0,250784.0,119177.0,250139.0,132645.0
2026-04-14 17:26:32.956966,294063,1609505086669280,2686639353,-1.098976,0.0,-0.0488,10.6925,14.0,-5.0575,20.016,20.216002,12.352,eccentric,3,3.0,55880.0,250784.0,119177.0,250139.0,132645.0
2026-04-14 17:26:32.965462,294064,1609505086678228,2686648027,-1.167296,0.02928,-0.101504,-1.58375,12.005,-4.71625,20.496,20.096,10.656,eccentric,3,3.0,55880.0,250784.0,119177.0,250139.0,132645.0
2026-04-14 17:26:32.996265,294075,1609505086692860,2686663044,-1.03456,-0.15616,-0.163968,-17.64875,11.71625,-5.01375,21.488,19.696001,8.8,eccentric,3,3.0,63459.0,262578.0,130988.0,259484.0,144624.0
2026-04-14 17:26:32.999092,294076,1609505086701858,2686671797,-1.03456,-0.15616,-0.163968,-27.772501,10.4825,-4.9875,21.488,19.696001,8.8,eccentric,3,3.0,63459.0,262578.0,130988.0,259484.0,144624.0
2026-04-14 17:26:33.003057,294077,1609505086716380,2686686675,-1.091168,-0.203008,-0.259616,-29.365,8.5225,-4.08625,22.144001,20.176,8.264,eccentric,3,3.0,63459.0,262578.0,130988.0,259484.0,144624.0
2026-04-14 17:26:33.011792,294078,1609505086725328,2686695372,-1.091168,-0.203008,-0.259616,-19.425,7.95375,-1.81125,22.144001,20.176,8.264,eccentric,3,3.0,63459.0,262578.0,130988.0,259484.0,144624.0
2026-04-14 17:26:33.019295,294079,1609505086734278,2686704125,-1.126304,-0.05856,-0.238144,-1.00625,7.60375,-0.39375,22.968,19.952002,8.456,eccentric,3,3.0,63459.0,262578.0,130988.0,259484.0,144624.0
2026-04-14 17:26:33.054501,294080,1609505086748722,2686718988,-1.126304,-0.05856,-0.238144,9.9225,6.37875,-0.35875,22.968,19.952002,8.456,eccentric,3,3.0,63459.0,262578.0,130988.0,259484.0,144624.0
2026-04-14 17:26:33.054615,294081,1609505086757695,2686727662,-1.106784,0.060512,-0.0488,5.46,5.4425,-0.23625,22.936,20.344002,7.816001,eccentric,3,3.0,63459.0,262578.0,130988.0,259484.0,144624.0
2026-04-14 17:26:33.062102,294082,1609505086772155,2686740509,-0.974048,-0.093696,-0.001952,-8.435,3.50875,-0.09625,24.176,21.352001,8.480001,eccentric,3,3.0,63459.0,262578.0,130988.0,259484.0,144624.0
2026-04-14 17:26:33.069322,294083,1609505086781320,2686751240,-0.974048,-0.093696,-0.001952,-22.68,2.02125,-1.53125,24.176,21.352001,8.480001,eccentric,3,3.0,63459.0,262578.0,130988.0,259484.0,144624.0
2026-04-14 17:26:33.097628,294094,1609505086795890,2686766214,-1.077504,-0.162016,-0.02928,-29.47,2.03875,-1.68,25.032001,21.056002,7.104001,eccentric,3,3.0,66103.0,265572.0,134807.0,261781.0,148325.0
2026-04-14 17:26:33.100577,294095,1609505086804882,2686774896,-1.077504,-0.162016,-0.02928,-24.07125,2.765,0.11375,25.032001,21.056002,7.104001,eccentric,3,3.0,66103.0,265572.0,134807.0,261781.0,148325.0
2026-04-14 17:26:33.103081,294096,1609505086813829,2686783613,-1.016992,-0.081984,-0.007808,-9.4675,4.45375,1.435,26.592001,21.584002,6.096,eccentric,3,3.0,66103.0,265572.0,134807.0,261781.0,148325.0
2026-04-14 17:26:33.113809,294097,1609505086828409,2686798501,-1.016992,-0.081984,-0.007808,6.55375,5.92375,2.275,26.592001,21.584002,6.096,eccentric,3,3.0,66103.0,265572.0,134807.0,261781.0,148325.0
2026-04-14 17:26:33.121841,294098,1609505086837394,2686807246,-0.979904,0.037088,0.007808,10.675,6.25625,1.82,27.320002,21.696001,7.504,eccentric,3,3.0,66103.0,265572.0,134807.0,261781.0,148325.0
2026-04-14 17:26:33.136244,294099,1609505086851860,2686822122,-1.001376,-0.003904,0.005856,0.07,4.4975,0.70875,27.344002,22.52,6.312,eccentric,3,3.0,66103.0,265572.0,134807.0,261781.0,148325.0
2026-04-14 17:26:33.147538,294100,1609505086860721,2686830796,-1.001376,-0.003904,0.005856,-14.56875,2.17,0.4375,27.344002,22.52,6.312,eccentric,3,3.0,66103.0,265572.0,134807.0,261781.0,148325.0
2026-04-14 17:26:33.161125,294101,1609505086875192,2686843625,-1.00528,-0.119072,0.070272,-23.8175,0.58625,0.09625,28.864002,22.512001,6.792,eccentric,3,3.0,66103.0,265572.0,134807.0,261781.0,148325.0
2026-04-14 17:26:33.169762,294102,1609505086884502,2686854401,-1.00528,-0.119072,0.070272,-24.26375,0.88375,-0.035,28.864002,22.512001,6.792,eccentric,3,3.0,66103.0,265572.0,134807.0,261781.0,148325.0
2026-04-14 17:26:33.271029,294113,1609505086893533,2686863133,-0.933056,-0.091744,0.050752,-14.2625,3.40375,-0.04375,29.152002,22.976002,7.272,eccentric,3,3.0,64945.0,265147.0,133078.0,261103.0,146558.0
2026-04-14 17:26:33.273615,294114,1609505086908131,2686878069,-0.933056,-0.091744,0.050752,0.7,7.1225,-0.7175,29.152002,22.976002,7.272,eccentric,3,3.0,64945.0,265147.0,133078.0,261103.0,146558.0
2026-04-14 17:26:33.276159,294115,1609505086917079,2686886757,-0.989664,-0.011712,-0.072224,8.44375,8.9775,-1.54875,28.672,23.432001,8.88,eccentric,3,3.0,64945.0,265147.0,133078.0,261103.0,146558.0
2026-04-14 17:26:33.278477,294116,1609505086931546,2686901605,-1.036512,-0.037088,-0.167872,1.7675,7.8575,-1.7675,28.672,23.432001,11.064,eccentric,3,3.0,64945.0,265147.0,133078.0,261103.0,146558.0
2026-04-14 17:26:33.281108,294117,1609505086940480,2686910290,-1.036512,-0.037088,-0.167872,-12.285,5.7225,-1.82,28.896002,24.216002,11.064,eccentric,3,3.0,64945.0,265147.0,133078.0,261103.0,146558.0
2026-04-14 17:26:33.283698,294118,1609505086949401,2686918975,-1.036512,-0.037088,-0.167872,-21.385,4.27875,-2.28375,28.896002,24.216002,11.064,eccentric,3,3.0,64945.0,265147.0,133078.0,261103.0,146558.0
2026-04-14 17:26:33.286441,294119,1609505086963918,2686933872,-1.026752,-0.119072,-0.072224,-24.675,2.73,-3.4125,29.176,24.216002,11.192,eccentric,3,3.0,64945.0,265147.0,133078.0,261103.0,146558.0
2026-04-14 17:26:33.288987,294120,1609505086972843,2686942532,-0.993568,-0.130784,-0.066368,-18.4275,2.10875,-3.52625,29.080002,24.36,8.72,eccentric,3,3.0,64945.0,265147.0,133078.0,261103.0,146558.0
2026-04-14 17:26:33.291392,294121,1609505086987331,2686957406,-0.993568,-0.130784,-0.066368,-6.7375,2.42375,-2.42375,29.080002,24.36,8.72,eccentric,3,3.0,64945.0,265147.0,133078.0,261103.0,146558.0
2026-04-14 17:26:33.321436,294133,1609505086996436,2686966138,-1.08336,-0.033184,-0.288896,0.48125,3.29875,-0.7175,30.064001,24.880001,9.392,eccentric,3,3.0,62540.0,262500.0,129723.0,258354.0,143189.0
2026-04-14 17:26:33.324033,294134,1609505087010945,2686981040,-1.08336,-0.033184,-0.288896,-3.08875,2.5725,-0.3325,30.064001,24.880001,9.392,eccentric,3,3.0,62540.0,262500.0,129723.0,258354.0,143189.0
2026-04-14 17:26:33.329280,294135,1609505087019977,2686989713,-1.114592,-0.003904,-0.042944,-12.9325,0.1225,-0.5075,30.272001,24.928001,10.032001,eccentric,3,3.0,62540.0,262500.0,129723.0,258354.0,143189.0
2026-04-14 17:26:33.329750,294136,1609505087028976,2686998393,-1.114592,-0.003904,-0.042944,-19.17125,-1.51375,-0.4375,30.272001,24.928001,10.032001,eccentric,3,3.0,62540.0,262500.0,129723.0,258354.0,143189.0
2026-04-14 17:26:33.331368,294137,1609505087043479,2687013254,-1.116544,-0.140544,-0.329888,-18.75125,-3.045,-3.045,30.008001,24.920002,10.064,eccentric,3,3.0,62540.0,262500.0,129723.0,258354.0,143189.0
2026-04-14 17:26:33.341504,294138,1609505087052403,2687021954,-1.10288,-0.03904,-0.021472,-6.09,-3.8675,-4.6725,30.008001,24.920002,11.072001,eccentric,3,3.0,62540.0,262500.0,129723.0,258354.0,143189.0
2026-04-14 17:26:33.351438,294139,1609505087066903,2687036977,-1.10288,-0.03904,-0.021472,10.57,-2.51125,-3.115,29.792002,25.12,11.072001,eccentric,3,3.0,62540.0,262500.0,129723.0,258354.0,143189.0
2026-04-14 17:26:33.361560,294140,1609505087075827,2687045672,-1.145824,0.013664,-0.179584,17.3775,-0.14,-3.15875,29.472002,25.056002,10.504001,eccentric,3,3.0,62540.0,262500.0,129723.0,258354.0,143189.0
2026-04-14 17:26:33.401409,294151,1609505087090826,2687060593,-1.145824,0.013664,-0.179584,5.425,2.1,-4.27875,29.472002,25.056002,10.504001,eccentric,3,3.0,63747.0,265315.0,131140.0,260209.0,144531.0
2026-04-14 17:26:33.403850,294152,1609505087099773,2687069423,-1.231712,-0.03904,-0.27328,-14.07,2.70375,-5.6,29.728,25.464,10.200001,eccentric,3,3.0,63747.0,265315.0,131140.0,260209.0,144531.0
2026-04-14 17:26:33.406445,294153,1609505087108753,2687078112,-1.231712,-0.03904,-0.27328,-24.045,1.12,-7.4725,29.728,25.464,10.200001,eccentric,3,3.0,63747.0,265315.0,131140.0,260209.0,144531.0
2026-04-14 17:26:33.408996,294154,1609505087123259,2687093009,-1.104832,-0.18544,-0.183488,-19.06625,-0.63875,-8.30375,29.816002,25.488,10.72,eccentric,3,3.0,63747.0,265315.0,131140.0,260209.0,144531.0
2026-04-14 17:26:33.416535,294155,1609505087132198,2687101733,-1.104832,-0.18544,-0.183488,-4.20875,-2.10875,-7.60375,29.816002,25.488,10.72,eccentric,3,3.0,63747.0,265315.0,131140.0,260209.0,144531.0
2026-04-14 17:26:33.431368,294156,1609505087146678,2687116617,-1.157536,-0.070272,-0.193248,13.39625,-1.68875,-5.41625,29.312002,25.528002,13.424001,eccentric,3,3.0,63747.0,265315.0,131140.0,260209.0,144531.0
2026-04-14 17:26:33.440470,294157,1609505087155659,2687125305,-1.24928,0.02928,-0.015616,18.7425,-0.98,-4.31375,28.976002,26.144001,12.288,eccentric,3,3.0,63747.0,265315.0,131140.0,260209.0,144531.0
2026-04-14 17:26:33.450235,294158,1609505087164604,2687133969,-1.24928,0.02928,-0.015616,5.52125,-1.12875,-5.145,28.976002,26.144001,12.288,eccentric,3,3.0,63747.0,265315.0,131140.0,260209.0,144531.0
2026-04-14 17:26:33.463904,294159,1609505087179070,2687148854,-1.22,-0.062464,-0.103456,-12.24125,-0.6475,-5.20625,28.712002,25.592001,11.272,eccentric,3,3.0,63747.0,265315.0,131140.0,260209.0,144531.0
2026-04-14 17:26:33.473991,294160,1609505087187994,2687157542,-1.22,-0.062464,-0.103456,-23.835001,-0.8225,-5.95,28.712002,25.592001,11.272,eccentric,3,3.0,63747.0,265315.0,131140.0,260209.0,144531.0
2026-04-14 17:26:33.503697,294171,1609505087202603,2687172536,-1.198528,-0.240096,-0.359168,-23.86125,-2.21375,-7.90125,29.52,26.072,11.76,concentric,3,3.0,62880.0,266325.0,129467.0,260725.0,143016.0
2026-04-14 17:26:33.507731,294172,1609505087211607,2687181261,-1.198528,-0.240096,-0.359168,-8.0325,-3.71875,-7.8575,29.52,26.072,11.76,concentric,3,3.0,62880.0,266325.0,129467.0,260725.0,143016.0
2026-04-14 17:26:33.514346,294173,1609505087226079,2687196144,-1.218048,-0.044896,-0.103456,16.98375,-3.66625,-7.18375,28.384,25.936,13.496,concentric,3,3.0,62880.0,266325.0,129467.0,260725.0,143016.0
2026-04-14 17:26:33.519948,294174,1609505087235066,2687204856,-1.165344,-0.007808,-0.1464,30.905,-3.0275,-7.525,29.112001,25.784,12.744,concentric,3,3.0,62880.0,266325.0,129467.0,260725.0,143016.0
2026-04-14 17:26:33.528679,294175,1609505087243986,2687213553,-1.165344,-0.007808,-0.1464,20.5625,-2.93125,-8.16375,29.112001,25.784,12.744,concentric,3,3.0,62880.0,266325.0,129467.0,260725.0,143016.0
2026-04-14 17:26:33.544214,294176,1609505087258507,2687228429,-1.206336,-0.083936,-0.11712,-3.49125,-3.3075,-8.6275,28.416002,26.376001,12.152,concentric,3,3.0,62880.0,266325.0,129467.0,260725.0,143016.0
2026-04-14 17:26:33.553300,294177,1609505087267442,2687237089,-1.206336,-0.083936,-0.11712,-22.35625,-4.69875,-8.82875,28.416002,26.376001,12.152,concentric,3,3.0,62880.0,266325.0,129467.0,260725.0,143016.0
2026-04-14 17:26:33.589290,294178,1609505087281926,2687252010,-1.179008,-0.244,-0.20496,-26.9675,-5.92375,-9.4325,28.160002,25.824001,12.328001,concentric,3,3.0,62880.0,266325.0,129467.0,260725.0,143016.0
2026-04-14 17:26:33.656401,294189,1609505087290864,2687260665,-1.179008,-0.244,-0.20496,-11.97,-5.845,-8.68,28.160002,25.824001,12.328001,concentric,3,3.0,63845.0,268804.0,130982.0,262591.0,144689.0
2026-04-14 17:26:33.659335,294190,1609505087305427,2687275586,-1.243424,-0.105408,-0.1952,13.667501,-4.305,-7.65625,28.008001,26.048,13.592001,concentric,3,3.0,63845.0,268804.0,130982.0,262591.0,144689.0
2026-04-14 17:26:33.664321,294191,1609505087314489,2687284344,-1.25904,0.033184,-0.16592,28.848751,-3.115,-8.67125,27.888,25.936,13.72,concentric,3,3.0,63845.0,268804.0,130982.0,262591.0,144689.0
2026-04-14 17:26:33.693863,294192,1609505087323410,2687293010,-1.25904,0.033184,-0.16592,23.33625,-2.26625,-9.59,27.888,25.936,13.72,concentric,3,3.0,63845.0,268804.0,130982.0,262591.0,144689.0
2026-04-14 17:26:33.696242,294193,1609505087337841,2687307859,-1.149728,-0.091744,-0.115168,4.64625,-0.04375,-8.995,27.896002,26.168001,13.512001,concentric,3,3.0,63845.0,268804.0,130982.0,262591.0,144689.0
2026-04-14 17:26:33.698593,294194,1609505087346762,2687316578,-1.149728,-0.091744,-0.115168,-13.230001,0.51625,-11.17375,27.896002,26.168001,13.512001,concentric,3,3.0,63845.0,268804.0,130982.0,262591.0,144689.0
2026-04-14 17:26:33.701605,294195,1609505087361270,2687331450,-1.184864,-0.230336,-0.183488,-18.025,-0.65625,-13.48375,27.896002,26.184002,13.480001,concentric,3,3.0,63845.0,268804.0,130982.0,262591.0,144689.0
2026-04-14 17:26:33.704328,294196,1609505087370227,2687340198,-1.184864,-0.230336,-0.183488,-7.2975,-1.28625,-12.3375,27.896002,26.184002,13.480001,concentric,3,3.0,63845.0,268804.0,130982.0,262591.0,144689.0
2026-04-14 17:26:33.706271,294197,1609505087384697,2687353067,-1.186816,-0.122976,-0.193248,10.71875,-0.0525,-10.61375,27.880001,26.112001,12.832001,concentric,3,3.0,63845.0,268804.0,130982.0,262591.0,144689.0
2026-04-14 17:26:33.734160,294208,1609505087394436,2687363918,-1.186816,-0.122976,-0.193248,21.3325,0.18375,-10.167501,27.880001,26.112001,10.784,concentric,3,3.0,63361.0,268311.0,130232.0,261751.0,143741.0
2026-04-14 17:26:33.736233,294209,1609505087403384,2687372632,-1.173152,-0.056608,-0.046848,16.8,-0.28875,-8.12,28.000002,26.048,11.616,concentric,3,3.0,63361.0,268311.0,130232.0,261751.0,143741.0
2026-04-14 17:26:33.739249,294210,1609505087417988,2687387575,-1.184864,-0.13664,-0.15616,1.68875,0.4025,-4.8125,28.592001,26.000002,12.872001,concentric,3,3.0,63361.0,268311.0,130232.0,261751.0,143741.0
2026-04-14 17:26:33.741802,294211,1609505087426981,2687396448,-1.184864,-0.13664,-0.15616,-13.16,0.105,-3.8325,28.592001,26.000002,12.872001,concentric,3,3.0,63361.0,268311.0,130232.0,261751.0,143741.0
2026-04-14 17:26:33.744339,294212,1609505087435905,2687405163,-1.192672,-0.189344,-0.216672,-17.885,-0.09625,-2.42375,28.336,25.728,12.232,concentric,3,3.0,63361.0,268311.0,130232.0,261751.0,143741.0
2026-04-14 17:26:33.746788,294213,1609505087450540,2687420183,-1.192672,-0.189344,-0.216672,-14.11375,0.34125,-2.23125,28.336,25.728,12.232,concentric,3,3.0,63361.0,268311.0,130232.0,261751.0,143741.0
2026-04-14 17:26:33.749118,294214,1609505087459484,2687428862,-1.175104,-0.11712,-0.171776,-4.36625,0.07875,-3.33375,28.256,25.944002,12.856001,concentric,3,3.0,63361.0,268311.0,130232.0,261751.0,143741.0
2026-04-14 17:26:33.759309,294215,1609505087473996,2687443758,-1.175104,-0.11712,-0.171776,8.51375,0.5425,-3.15,28.256,25.944002,12.856001,concentric,3,3.0,63361.0,268311.0,130232.0,261751.0,143741.0
2026-04-14 17:26:33.766365,294216,1609505087482953,2687452480,-1.173152,-0.03904,-0.189344,15.16375,1.68875,-4.54125,28.528002,25.976002,11.672001,concentric,3,3.0,63361.0,268311.0,130232.0,261751.0,143741.0
2026-04-14 17:26:33.803848,294227,1609505087497609,2687467563,-1.212192,-0.095648,-0.242048,11.94375,2.00375,-6.88625,28.456001,25.776001,13.272,concentric,3,3.0,60284.0,264936.0,125628.0,258509.0,139190.0
2026-04-14 17:26:33.806515,294228,1609505087506609,2687476256,-1.212192,-0.095648,-0.242048,1.89875,1.32125,-7.81375,28.456001,25.776001,13.272,concentric,3,3.0,60284.0,264936.0,125628.0,258509.0,139190.0
2026-04-14 17:26:33.809741,294229,1609505087515606,2687484978,-1.169248,-0.177632,-0.074176,-7.175,1.54,-8.96875,28.352001,25.928001,13.192,concentric,3,3.0,60284.0,264936.0,125628.0,258509.0,139190.0
2026-04-14 17:26:33.814171,294230,1609505087530165,2687499984,-1.169248,-0.177632,-0.074176,-8.54,1.44375,-9.09125,28.352001,25.928001,13.192,concentric,3,3.0,60284.0,264936.0,125628.0,258509.0,139190.0
2026-04-14 17:26:33.824172,294231,1609505087539129,2687508738,-1.272704,-0.17568,-0.203008,-3.24625,2.12625,-8.015,27.528002,26.048,13.888001,concentric,3,3.0,60284.0,264936.0,125628.0,258509.0,139190.0
2026-04-14 17:26:33.839193,294232,1609505087553607,2687523617,-1.272704,-0.17568,-0.203008,4.31375,1.9775,-6.895,27.528002,26.048,13.888001,concentric,3,3.0,60284.0,264936.0,125628.0,258509.0,139190.0
2026-04-14 17:26:33.848030,294233,1609505087562529,2687532315,-1.175104,-0.13664,-0.150304,10.08,1.61875,-3.85,27.552002,25.736002,13.376,concentric,3,3.0,60284.0,264936.0,125628.0,258509.0,139190.0
2026-04-14 17:26:33.864321,294234,1609505087576989,2687547203,-1.315648,-0.091744,-0.238144,8.295,0.76125,-0.875,28.424002,25.752,12.656,concentric,3,3.0,60284.0,264936.0,125628.0,258509.0,139190.0
2026-04-14 17:26:33.870570,294235,1609505087585899,2687555883,-1.315648,-0.091744,-0.238144,1.46125,-0.4725,0.9975,28.424002,25.752,12.656,concentric,3,3.0,60284.0,264936.0,125628.0,258509.0,139190.0
2026-04-14 17:26:33.916678,294246,1609505087595307,2687564663,-1.315648,-0.091744,-0.238144,-2.80875,-2.65125,2.05625,28.424002,25.752,12.656,concentric,3,3.0,60927.0,266559.0,126420.0,259894.0,140065.0
2026-04-14 17:26:33.919181,294247,1609505087609910,2687579594,-1.227808,-0.160064,-0.222528,-0.93625,-3.4825,2.905,28.36,25.960001,13.736001,concentric,3,3.0,60927.0,266559.0,126420.0,259894.0,140065.0
2026-04-14 17:26:33.921618,294248,1609505087618967,2687588275,-1.274656,-0.130784,-0.109312,-0.945,-4.27875,2.44125,28.032001,26.032001,13.104001,concentric,3,3.0,60927.0,266559.0,126420.0,259894.0,140065.0
2026-04-14 17:26:33.924185,294249,1609505087633420,2687603207,-1.274656,-0.130784,-0.109312,1.75,-4.865,2.4325,28.032001,26.032001,13.104001,concentric,3,3.0,60927.0,266559.0,126420.0,259894.0,140065.0
2026-04-14 17:26:33.951730,294250,1609505087642407,2687611929,-1.1712,-0.07808,-0.031232,9.61625,-4.445,2.47625,26.920002,26.2,15.280001,concentric,3,3.0,60927.0,266559.0,126420.0,259894.0,140065.0
2026-04-14 17:26:33.976823,294251,1609505087651363,2687620693,-1.1712,-0.07808,-0.031232,12.17125,-3.36875,0.72625,26.920002,26.2,15.280001,concentric,3,3.0,60927.0,266559.0,126420.0,259894.0,140065.0
2026-04-14 17:26:33.981823,294252,1609505087665823,2687635582,-1.221952,-0.07808,-0.040992,5.81875,-2.75625,0.07875,26.904001,25.744001,14.496,concentric,3,3.0,60927.0,266559.0,126420.0,259894.0,140065.0
2026-04-14 17:26:33.984320,294253,1609505087674745,2687644309,-1.221952,-0.07808,-0.040992,-2.82625,-1.505,0.63,26.904001,25.744001,14.496,concentric,3,3.0,60927.0,266559.0,126420.0,259894.0,140065.0
2026-04-14 17:26:33.988323,294254,1609505087689218,2687659162,-1.235616,-0.193248,-0.105408,-8.93375,0.16625,0.18375,27.672,25.832,13.888001,concentric,3,3.0,60927.0,266559.0,126420.0,259894.0,140065.0
2026-04-14 17:26:34.016334,294265,1609505087698247,2687667943,-1.192672,-0.18544,-0.132736,-7.9975,0.385,0.7175,27.848001,25.712002,14.68,concentric,3,3.0,62251.0,268220.0,128343.0,261500.0,142071.0
2026-04-14 17:26:34.019225,294266,1609505087712796,2687682861,-1.192672,-0.18544,-0.132736,0.245,0.455,3.50875,27.848001,25.712002,14.68,concentric,3,3.0,62251.0,268220.0,128343.0,261500.0,142071.0
2026-04-14 17:26:34.021727,294267,1609505087721817,2687691556,-1.1712,-0.1464,-0.160064,7.14875,-1.12,5.01375,27.944002,25.864,14.296001,concentric,3,3.0,62251.0,268220.0,128343.0,261500.0,142071.0
2026-04-14 17:26:34.024328,294268,1609505087730770,2687700319,-1.1712,-0.1464,-0.160064,7.86625,-3.75375,6.65,27.944002,25.864,14.296001,concentric,3,3.0,62251.0,268220.0,128343.0,261500.0,142071.0
2026-04-14 17:26:34.031506,294269,1609505087745280,2687715240,-1.245376,-0.080032,-0.091744,2.66,-6.3525,7.2975,27.872002,25.480001,13.264001,concentric,3,3.0,62251.0,268220.0,128343.0,261500.0,142071.0
2026-04-14 17:26:34.039213,294270,1609505087754217,2687723872,-1.245376,-0.080032,-0.091744,-5.69625,-7.46375,5.53,27.872002,25.480001,13.264001,concentric,3,3.0,62251.0,268220.0,128343.0,261500.0,142071.0
2026-04-14 17:26:34.053997,294271,1609505087768660,2687738747,-1.212192,-0.144448,-0.167872,-12.01375,-7.27125,4.12125,28.840002,25.44,13.160001,concentric,3,3.0,62251.0,268220.0,128343.0,261500.0,142071.0
2026-04-14 17:26:34.062699,294272,1609505087777616,2687747428,-1.25904,-0.132736,-0.054656,-13.83375,-5.90625,3.03625,28.936,25.176,12.480001,concentric,3,3.0,62251.0,268220.0,128343.0,261500.0,142071.0
2026-04-14 17:26:34.078089,294273,1609505087792093,2687762303,-1.25904,-0.132736,-0.054656,-11.78625,-4.445,2.3275,28.936,25.176,12.480001,concentric,3,3.0,62251.0,268220.0,128343.0,261500.0,142071.0
2026-04-14 17:26:34.105148,294284,1609505087801135,2687771006,-1.255136,-0.122976,-0.279136,-6.20375,-4.1825,1.6275,28.552002,25.288002,13.152,concentric,3,3.0,66156.0,269776.0,134230.0,263638.0,147949.0
2026-04-14 17:26:34.107523,294285,1609505087810164,2687779809,-1.255136,-0.122976,-0.279136,0.245,-4.095,1.16375,28.552002,25.288002,13.152,concentric,3,3.0,66156.0,269776.0,134230.0,263638.0,147949.0
2026-04-14 17:26:34.110234,294286,1609505087824682,2687794706,-1.175104,-0.072224,-0.089792,0.875,-4.9,1.3825,27.384,25.888,15.048,concentric,3,3.0,66156.0,269776.0,134230.0,263638.0,147949.0
2026-04-14 17:26:34.122588,294287,1609505087833639,2687803405,-1.175104,-0.072224,-0.089792,-4.7075,-6.37875,1.96,27.384,25.888,15.048,concentric,3,3.0,66156.0,269776.0,134230.0,263638.0,147949.0
2026-04-14 17:26:34.134032,294288,1609505087848101,2687818268,-1.21024,-0.070272,-0.11712,-11.7425,-7.315,2.03,27.560001,26.000002,12.744,concentric,3,3.0,66156.0,269776.0,134230.0,263638.0,147949.0
2026-04-14 17:26:34.141514,294289,1609505087857019,2687826978,-1.21024,-0.070272,-0.152256,-16.345,-7.6125,0.77875,27.560001,26.000002,12.744,concentric,3,3.0,66156.0,269776.0,134230.0,263638.0,147949.0
2026-04-14 17:26:34.150291,294290,1609505087865941,2687835695,-1.184864,-0.167872,-0.152256,-19.46875,-7.7175,0.63875,28.688002,25.36,12.096001,concentric,3,3.0,66156.0,269776.0,134230.0,263638.0,147949.0
2026-04-14 17:26:34.166499,294291,1609505087880411,2687850576,-1.192672,-0.144448,-0.208864,-17.928751,-7.7175,1.86375,28.552002,25.776001,12.104001,concentric,3,3.0,66156.0,269776.0,134230.0,263638.0,147949.0
2026-04-14 17:26:34.176401,294292,1609505087889342,2687859246,-1.192672,-0.144448,-0.208864,-9.73875,-7.93625,3.71,28.552002,25.776001,12.104001,concentric,3,3.0,66156.0,269776.0,134230.0,263638.0,147949.0
2026-04-14 17:26:34.203695,294303,1609505087904405,2687874249,-1.184864,-0.027328,-0.015616,-2.59,-8.44375,3.8675,28.608002,25.68,12.432,concentric,3,3.0,68018.0,268988.0,137203.0,263556.0,150832.0
2026-04-14 17:26:34.206443,294304,1609505087913336,2687882977,-1.184864,-0.027328,-0.015616,-2.4325,-8.89875,3.33375,28.608002,25.68,12.432,concentric,3,3.0,68018.0,268988.0,137203.0,263556.0,150832.0
2026-04-14 17:26:34.213991,294305,1609505087927858,2687897891,-1.19072,-0.042944,-0.124928,-8.8375,-9.31,3.185,28.016,25.912,13.224001,concentric,3,3.0,68018.0,268988.0,137203.0,263556.0,150832.0
2026-04-14 17:26:34.222822,294306,1609505087936766,2687906571,-1.19072,-0.042944,-0.124928,-17.8325,-9.59875,2.10875,28.016,25.912,13.224001,concentric,3,3.0,68018.0,268988.0,137203.0,263556.0,150832.0
2026-04-14 17:26:34.230265,294307,1609505087945677,2687915254,-1.19072,-0.111264,-0.056608,-22.40875,-9.695,2.0125,27.720001,25.744001,11.688001,concentric,3,3.0,68018.0,268988.0,137203.0,263556.0,150832.0
2026-04-14 17:26:34.246508,294308,1609505087960147,2687930195,-1.186816,-0.113216,-0.089792,-18.803751,-8.81125,1.35625,28.544,25.432001,11.608001,concentric,3,3.0,68018.0,268988.0,137203.0,263556.0,150832.0
2026-04-14 17:26:34.254048,294309,1609505087969056,2687938866,-1.186816,-0.113216,-0.089792,-8.49625,-7.6825,0.98,28.544,25.432001,11.608001,concentric,3,3.0,68018.0,268988.0,137203.0,263556.0,150832.0
2026-04-14 17:26:34.271670,294310,1609505087983579,2687953722,-1.184864,-0.035136,-0.169824,1.575,-7.175,1.74125,28.568,25.28,11.480001,concentric,3,3.0,68018.0,268988.0,137203.0,263556.0,150832.0
2026-04-14 17:26:34.276520,294311,1609505087992535,2687962450,-1.184864,-0.035136,-0.169824,4.83,-7.20125,1.05875,28.568,25.28,11.480001,concentric,3,3.0,68018.0,268988.0,137203.0,263556.0,150832.0
2026-04-14 17:26:34.382938,294322,1609505088007110,2687977441,-1.223904,0.005856,-0.11712,-0.35,-7.385,-0.76125,27.968,25.448002,13.040001,concentric,3,3.0,68099.0,267350.0,137624.0,262693.0,151231.0
2026-04-14 17:26:34.390089,294323,1609505088016049,2687986130,-1.223904,0.005856,-0.11712,-10.03625,-8.085,-1.91625,27.968,25.448002,13.040001,concentric,3,3.0,68099.0,267350.0,137624.0,262693.0,151231.0
2026-04-14 17:26:34.392971,294324,1609505088024974,2687994792,-1.188768,-0.095648,-0.091744,-17.2375,-8.435,-3.465,28.072,25.296001,10.952001,concentric,3,3.0,68099.0,267350.0,137624.0,262693.0,151231.0
2026-04-14 17:26:34.395230,294325,1609505088039389,2688009658,-1.157536,-0.11712,-0.109312,-17.5525,-8.04125,-3.92,28.664001,25.232,11.320001,concentric,3,3.0,68099.0,267350.0,137624.0,262693.0,151231.0
2026-04-14 17:26:34.398082,294326,1609505088048292,2688018320,-1.157536,-0.11712,-0.109312,-10.98125,-6.78125,-2.73875,28.664001,25.232,11.320001,concentric,3,3.0,68099.0,267350.0,137624.0,262693.0,151231.0
2026-04-14 17:26:34.400559,294327,1609505088062755,2688031137,-1.120448,-0.05856,-0.046848,-2.86125,-6.125,-2.1525,28.504002,25.000002,10.176001,concentric,3,3.0,68099.0,267350.0,137624.0,262693.0,151231.0
2026-04-14 17:26:34.403051,294328,1609505088072003,2688041904,-1.120448,-0.05856,-0.046848,2.0475,-6.7025,-1.39125,28.504002,25.000002,10.176001,concentric,3,3.0,68099.0,267350.0,137624.0,262693.0,151231.0
2026-04-14 17:26:34.405102,294329,1609505088086482,2688056780,-1.100928,-0.005856,-0.144448,2.37125,-7.595,-1.18125,28.248001,24.784,9.848001,concentric,3,3.0,68099.0,267350.0,137624.0,262693.0,151231.0
2026-04-14 17:26:34.435565,294340,1609505088095385,2688065452,-1.100928,-0.005856,-0.144448,-1.46125,-8.4525,-1.7325,28.248001,24.784,9.848001,concentric,3,3.0,68799.0,266615.0,138751.0,262582.0,152324.0
2026-04-14 17:26:34.437984,294341,1609505088104323,2688074176,-1.069696,-0.105408,-0.10736,-7.7525,-9.47625,-3.47375,28.056002,24.904001,10.496,concentric,3,3.0,68799.0,266615.0,138751.0,262582.0,152324.0
2026-04-14 17:26:34.442872,294342,1609505088118815,2688089133,-1.069696,-0.13664,-0.111264,-12.29375,-10.43875,-4.2,28.056002,24.904001,10.496,concentric,3,3.0,68799.0,266615.0,138751.0,262582.0,152324.0
2026-04-14 17:26:34.443393,294343,1609505088127750,2688097846,-1.14192,-0.128832,-0.111264,-6.8425,-9.87,-4.655,27.344002,24.824001,10.936001,concentric,3,3.0,68799.0,266615.0,138751.0,262582.0,152324.0
2026-04-14 17:26:34.445003,294344,1609505088142304,2688110823,-1.067744,-0.00976,-0.017568,7.30625,-7.945,-5.76625,26.512001,24.480001,9.88,concentric,3,3.0,68799.0,266615.0,138751.0,262582.0,152324.0
2026-04-14 17:26:34.447580,294345,1609505088151771,2688121595,-1.067744,-0.00976,-0.017568,18.73375,-6.4225,-5.565,26.512001,24.480001,9.88,concentric,3,3.0,68799.0,266615.0,138751.0,262582.0,152324.0
2026-04-14 17:26:34.450333,294346,1609505088160773,2688130333,-1.046272,0.011712,-0.031232,15.785,-7.11375,-6.27375,25.608002,23.960001,9.664001,concentric,3,3.0,68799.0,266615.0,138751.0,262582.0,152324.0
2026-04-14 17:26:34.460522,294347,1609505088175311,2688145318,-1.046272,0.011712,-0.031232,4.83,-8.6625,-7.39375,25.608002,23.960001,9.664001,concentric,3,3.0,68799.0,266615.0,138751.0,262582.0,152324.0
2026-04-14 17:26:34.471344,294348,1609505088184230,2688153998,-1.08336,-0.13664,-0.23424,-5.39875,-10.50875,-8.295,25.912,23.568,8.272,concentric,3,3.0,68799.0,266615.0,138751.0,262582.0,152324.0
2026-04-14 17:26:34.506820,294359,1609505088198947,2688167372,-1.08336,-0.13664,-0.23424,-8.28625,-13.7025,-8.96,25.912,23.568,8.272,concentric,3,3.0,68434.0,264335.0,138298.0,261527.0,151791.0
2026-04-14 17:26:34.509325,294360,1609505088208246,2688178255,-1.065792,-0.187392,-0.089792,0.51625,-15.72375,-7.0525,25.616001,23.592001,8.104,concentric,3,3.0,68434.0,264335.0,138298.0,261527.0,151791.0
2026-04-14 17:26:34.511474,294361,1609505088217177,2688187040,-1.065792,-0.187392,-0.089792,15.42625,-15.575,-3.77125,25.616001,23.592001,8.104,concentric,3,3.0,68434.0,264335.0,138298.0,261527.0,151791.0
2026-04-14 17:26:34.516808,294362,1609505088231780,2688201957,-1.001376,-0.064416,-0.005856,27.1075,-13.55375,-2.03,24.768002,22.824001,8.416,concentric,3,3.0,68434.0,264335.0,138298.0,261527.0,151791.0
2026-04-14 17:26:34.526819,294363,1609505088240762,2688210672,-1.003328,-0.035136,-0.015616,27.317501,-11.92625,-2.30125,23.496,22.432001,9.0,concentric,3,3.0,68434.0,264335.0,138298.0,261527.0,151791.0
2026-04-14 17:26:34.546020,294364,1609505088255259,2688225563,-1.003328,-0.035136,-0.015616,18.12125,-10.955,-2.3275,23.496,22.432001,9.0,concentric,3,3.0,68434.0,264335.0,138298.0,261527.0,151791.0
2026-04-14 17:26:34.551743,294365,1609505088264172,2688234224,-1.097024,-0.103456,-0.218624,7.60375,-10.955,-2.91375,22.736002,21.960001,8.832001,concentric,3,3.0,68434.0,264335.0,138298.0,261527.0,151791.0
2026-04-14 17:26:34.562734,294366,1609505088278651,2688247120,-1.097024,-0.103456,-0.218624,2.49375,-11.92625,-3.185,22.736002,21.960001,8.832001,concentric,3,3.0,68434.0,264335.0,138298.0,261527.0,151791.0
2026-04-14 17:26:34.574272,294367,1609505088287932,2688257872,-1.138016,-0.08784,-0.12688,5.53875,-13.41375,-2.93125,21.872002,21.768002,9.712001,concentric,3,3.0,68434.0,264335.0,138298.0,261527.0,151791.0
2026-04-14 17:26:34.605553,294378,1609505088296836,2688266628,-1.138016,-0.08784,-0.12688,14.06125,-13.06375,-1.9075,21.872002,21.768002,9.712001,concentric,3,3.0,71077.0,257285.0,142903.0,257468.0,156355.0
2026-04-14 17:26:34.608047,294379,1609505088311846,2688281632,-1.0736,-0.005856,0.081984,21.315,-12.31125,-0.7,21.176,21.76,10.384001,concentric,3,3.0,71077.0,257285.0,142903.0,257468.0,156355.0
2026-04-14 17:26:34.610583,294380,1609505088320774,2688290334,-1.110688,-0.042944,-0.158112,22.1025,-11.64625,-0.28,20.304,21.920002,12.8,concentric,3,3.0,71077.0,257285.0,142903.0,257468.0,156355.0
2026-04-14 17:26:34.621839,294381,1609505088335324,2688305264,-1.110688,-0.042944,-0.158112,15.74125,-11.15625,-0.65625,20.304,21.920002,12.8,concentric,3,3.0,71077.0,257285.0,142903.0,257468.0,156355.0
2026-04-14 17:26:34.630545,294382,1609505088344237,2688313954,-1.091168,-0.15616,-0.240096,5.55625,-11.29625,-1.95125,20.168001,21.912,12.040001,concentric,3,3.0,71077.0,257285.0,142903.0,257468.0,156355.0
2026-04-14 17:26:34.639481,294383,1609505088353200,2688322623,-1.091168,-0.15616,-0.240096,0.98875,-12.11,-2.28375,20.168001,21.912,12.040001,concentric,3,3.0,71077.0,257285.0,142903.0,257468.0,156355.0
2026-04-14 17:26:34.652904,294384,1609505088367704,2688337499,-1.026752,-0.160064,-0.181536,5.03125,-14.1575,-1.95125,20.544,21.968,13.128,concentric,3,3.0,71077.0,257285.0,142903.0,257468.0,156355.0
2026-04-14 17:26:34.661365,294385,1609505088376631,2688346172,-1.026752,-0.160064,-0.181536,14.93625,-18.13875,-1.4875,20.544,21.968,13.128,concentric,3,3.0,71077.0,257285.0,142903.0,257468.0,156355.0
2026-04-14 17:26:34.704354,294386,1609505088391077,2688361084,-1.030656,0.001952,0.13664,23.3275,-20.58875,-0.11375,20.416,22.176,14.832001,concentric,3,3.0,71077.0,257285.0,142903.0,257468.0,156355.0
2026-04-14 17:26:34.733101,294397,1609505088400079,2688369885,-1.030656,0.001952,0.13664,22.75,-21.79625,0.95375,20.416,22.176,14.832001,concentric,3,3.0,69137.0,249764.0,140387.0,252374.0,153640.0
2026-04-14 17:26:34.733579,294398,1609505088414628,2688384851,-1.003328,-0.050752,0.101504,11.05125,-21.1925,0.91875,19.0,23.032001,18.176,concentric,3,3.0,69137.0,249764.0,140387.0,252374.0,153640.0
2026-04-14 17:26:34.736162,294399,1609505088423555,2688393526,-1.028704,-0.171776,-0.152256,-1.82875,-20.8425,1.645,19.224,23.2,16.424002,concentric,3,3.0,69137.0,249764.0,140387.0,252374.0,153640.0
2026-04-14 17:26:34.738892,294400,1609505088432496,2688402235,-1.028704,-0.171776,-0.152256,-4.87375,-18.92625,2.96625,19.224,23.2,16.424002,concentric,3,3.0,69137.0,249764.0,140387.0,252374.0,153640.0
2026-04-14 17:26:34.741157,294401,1609505088447018,2688417226,-1.09312,-0.134688,-0.167872,3.94625,-18.22625,2.8875,19.728,23.144001,16.808,concentric,3,3.0,69137.0,249764.0,140387.0,252374.0,153640.0
2026-04-14 17:26:34.746225,294402,1609505088455934,2688425933,-1.09312,-0.134688,-0.167872,19.46875,-17.3425,3.31625,19.728,23.144001,16.808,concentric,3,3.0,69137.0,249764.0,140387.0,252374.0,153640.0
2026-04-14 17:26:34.754246,294403,1609505088470443,2688438798,-0.968192,0.01952,0.083936,31.2025,-16.9925,3.8325,21.336,23.416,17.184,concentric,3,3.0,69137.0,249764.0,140387.0,252374.0,153640.0
2026-04-14 17:26:34.765411,294404,1609505088479587,2688449554,-0.968192,0.01952,0.083936,29.51375,-16.3625,3.01,21.336,23.416,17.184,concentric,3,3.0,69137.0,249764.0,140387.0,252374.0,153640.0
2026-04-14 17:26:34.778846,294405,1609505088494049,2688462407,-0.972096,0.056608,0.160064,17.84125,-15.72375,0.3325,22.232,23.456001,17.472,concentric,3,3.0,69137.0,249764.0,140387.0,252374.0,153640.0
2026-04-14 17:26:34.806852,294416,1609505088503323,2688473291,-0.95648,-0.081984,0.121024,4.33125,-15.417501,-1.855,21.68,23.920002,17.544,concentric,3,3.0,64530.0,240595.0,133673.0,245297.0,146791.0
2026-04-14 17:26:34.809411,294417,1609505088512301,2688482020,-0.95648,-0.081984,0.121024,-5.81875,-15.1375,-3.42125,21.68,23.920002,17.544,concentric,3,3.0,64530.0,240595.0,133673.0,245297.0,146791.0
2026-04-14 17:26:34.814005,294418,1609505088526790,2688496944,-0.925248,-0.17568,0.035136,-5.88,-14.25375,-3.07125,21.984001,24.256,16.752,concentric,3,3.0,64530.0,240595.0,133673.0,245297.0,146791.0
2026-04-14 17:26:34.821177,294419,1609505088535701,2688505667,-0.925248,-0.17568,0.035136,0.5075,-14.533751,-1.2075,21.984001,24.256,16.752,concentric,3,3.0,64530.0,240595.0,133673.0,245297.0,146791.0
2026-04-14 17:26:34.832675,294420,1609505088550196,2688518570,-0.962336,-0.044896,0.10736,8.53125,-14.385,0.455,22.552002,23.792002,16.560001,concentric,3,3.0,64530.0,240595.0,133673.0,245297.0,146791.0
2026-04-14 17:26:34.843878,294421,1609505088559369,2688529334,-0.962336,-0.044896,0.10736,16.33625,-13.99125,1.65375,22.552002,23.792002,16.560001,concentric,3,3.0,64530.0,240595.0,133673.0,245297.0,146791.0
2026-04-14 17:26:34.853753,294422,1609505088568250,2688538036,-0.997472,0.017568,0.105408,15.408751,-14.11375,2.14375,23.216002,23.568,16.28,concentric,3,3.0,64530.0,240595.0,133673.0,245297.0,146791.0
2026-04-14 17:26:34.867843,294423,1609505088582776,2688552940,-0.85888,-0.052704,0.0976,9.03,-13.895,1.505,23.168001,23.872002,16.16,concentric,3,3.0,64530.0,240595.0,133673.0,245297.0,146791.0
2026-04-14 17:26:34.877828,294424,1609505088591707,2688561623,-0.85888,-0.052704,0.0976,5.06625,-12.43375,0.32375,23.168001,23.872002,16.16,concentric,3,3.0,64530.0,240595.0,133673.0,245297.0,146791.0
2026-04-14 17:26:34.906507,294435,1609505088606221,2688574607,-0.899872,-0.023424,0.046848,4.6025,-11.235,-1.1725,22.112001,24.320002,17.312,concentric,3,3.0,58357.0,232726.0,124581.0,238311.0,137716.0
2026-04-14 17:26:34.912458,294436,1609505088615408,2688585352,-0.899872,-0.023424,0.046848,5.95875,-12.39,-2.70375,22.112001,24.320002,17.312,concentric,3,3.0,58357.0,232726.0,124581.0,238311.0,137716.0
2026-04-14 17:26:34.912818,294437,1609505088629906,2688598265,-1.018944,-0.005856,0.13664,3.5,-13.72,-1.365,23.352001,24.016,16.176,concentric,3,3.0,58357.0,232726.0,124581.0,238311.0,137716.0
2026-04-14 17:26:34.923667,294438,1609505088639073,2688609026,-1.018944,-0.005856,0.13664,-5.41625,-14.18375,0.6125,23.352001,24.016,16.176,concentric,3,3.0,58357.0,232726.0,124581.0,238311.0,137716.0
2026-04-14 17:26:34.935270,294439,1609505088648099,2688617696,-0.81984,-0.140544,0.167872,-14.41125,-12.0575,2.0475,23.288002,24.352001,15.992001,concentric,3,3.0,58357.0,232726.0,124581.0,238311.0,137716.0
