pc_time,serial_num,sensor_ts,host_ts,ax,ay,az,gx,gy,gz,mx,my,mz,phase,rpe,weight_kg,ppg_a,ppg_b,ppg_c,ppg_d,ppg_e
2026-04-14 17:22:45.498537,251307,1609504859219559,2459189758,-0.989664,-0.267424,0.013664,9.1525,23.77375,-44.12625,16.640001,31.672,8.504001,eccentric,3,3.0,114856.0,293907.0,189695.0,281550.0,204300.0
2026-04-14 17:22:45.507319,251308,1609504859228481,2459198480,-0.997472,-0.101504,-0.20496,8.4,25.515,-38.2725,16.448,31.808,9.528001,eccentric,3,3.0,114856.0,293907.0,189695.0,281550.0,204300.0
2026-04-14 17:22:45.520981,251309,1609504859242958,2459211315,-0.960384,-0.093696,-0.197152,12.81875,25.095,-37.8875,16.448,31.808,11.112,eccentric,3,3.0,114856.0,293907.0,189695.0,281550.0,204300.0
2026-04-14 17:22:45.548480,251320,1609504859252187,2459222114,-0.960384,-0.093696,-0.197152,16.1,22.26875,-43.68,15.632001,32.216003,11.112,eccentric,3,3.0,114951.0,297156.0,189377.0,282514.0,204278.0
2026-04-14 17:22:45.550945,251321,1609504859261141,2459230842,-0.960384,-0.093696,-0.197152,10.87625,19.3025,-48.11625,15.632001,32.216003,11.112,eccentric,3,3.0,114951.0,297156.0,189377.0,282514.0,204278.0
2026-04-14 17:22:45.554969,251322,1609504859275628,2459245759,-0.882304,-0.236192,0.021472,10.03625,19.7575,-48.8425,13.592001,32.624,10.672001,eccentric,3,3.0,114951.0,297156.0,189377.0,282514.0,204278.0
2026-04-14 17:22:45.563523,251323,1609504859284538,2459254418,-0.95648,-0.343552,-0.304512,8.575,23.96625,-44.40625,13.480001,32.648003,8.808001,eccentric,3,3.0,114951.0,297156.0,189377.0,282514.0,204278.0
2026-04-14 17:22:45.577315,251324,1609504859299058,2459269273,-0.95648,-0.343552,-0.304512,4.725,26.25,-38.10625,13.480001,32.648003,8.808001,eccentric,3,3.0,114951.0,297156.0,189377.0,282514.0,204278.0
2026-04-14 17:22:45.587389,251325,1609504859307987,2459277968,-0.915488,0.056608,-0.109312,9.292501,27.685,-25.8125,14.896001,32.104,8.816,eccentric,3,3.0,114951.0,297156.0,189377.0,282514.0,204278.0
2026-04-14 17:22:45.598435,251326,1609504859322462,2459290818,-0.915488,0.056608,-0.109312,15.3825,26.425,-25.1125,14.896001,32.104,8.816,eccentric,3,3.0,114951.0,297156.0,189377.0,282514.0,204278.0
2026-04-14 17:22:45.609967,251327,1609504859331601,2459301546,-0.90768,-0.119072,-0.304512,12.46,22.645,-31.57,14.552001,31.864002,7.152,eccentric,3,3.0,114951.0,297156.0,189377.0,282514.0,204278.0
2026-04-14 17:22:45.618571,251328,1609504859340521,2459310246,-0.90768,-0.119072,-0.304512,5.4075,19.94125,-35.07875,14.552001,31.864002,7.152,eccentric,3,3.0,114951.0,297156.0,189377.0,282514.0,204278.0
2026-04-14 17:22:45.648605,251339,1609504859355055,2459325235,-0.812032,-0.208864,-0.187392,4.69,21.88375,-35.79625,14.024001,32.216003,8.712001,eccentric,3,3.0,117911.0,303111.0,193426.0,286038.0,209038.0
2026-04-14 17:22:45.651278,251340,1609504859364072,2459333995,-0.792512,-0.183488,-0.193248,6.93,27.36125,-31.43875,12.984,32.312,9.704,eccentric,3,3.0,117911.0,303111.0,193426.0,286038.0,209038.0
2026-04-14 17:22:45.657264,251341,1609504859378585,2459348903,-0.792512,-0.183488,-0.193248,6.04625,32.27,-26.94125,12.984,32.312,9.704,eccentric,3,3.0,117911.0,303111.0,193426.0,286038.0,209038.0
2026-04-14 17:22:45.666946,251342,1609504859387588,2459357621,-0.66368,-0.081984,-0.1464,3.31625,35.72625,-21.65625,13.392,32.224003,8.112,eccentric,3,3.0,117911.0,303111.0,193426.0,286038.0,209038.0
2026-04-14 17:22:45.677431,251343,1609504859402066,2459370494,-0.66368,-0.081984,-0.1464,2.70375,37.66,-21.875,13.392,32.224003,8.112,eccentric,3,3.0,117911.0,303111.0,193426.0,286038.0,209038.0
2026-04-14 17:22:45.692353,251344,1609504859411301,2459381267,-0.677344,-0.230336,-0.189344,-2.33625,38.00125,-23.28375,13.856001,32.088,6.168,eccentric,3,3.0,117911.0,303111.0,193426.0,286038.0,209038.0
2026-04-14 17:22:45.698568,251345,1609504859420213,2459389967,-0.677344,-0.230336,-0.189344,-9.292501,37.1,-21.035,13.856001,32.088,6.168,eccentric,3,3.0,117911.0,303111.0,193426.0,286038.0,209038.0
2026-04-14 17:22:45.733583,251346,1609504859434682,2459404876,-0.571936,-0.134688,-0.089792,-10.98125,36.0325,-17.77125,14.000001,32.600002,8.824,eccentric,3,3.0,117911.0,303111.0,193426.0,286038.0,209038.0
2026-04-14 17:22:45.758402,251347,1609504859443604,2459413547,-0.571936,-0.134688,-0.13664,-3.96375,33.8975,-13.72875,14.000001,32.600002,8.824,eccentric,3,3.0,117911.0,303111.0,193426.0,286038.0,209038.0
2026-04-14 17:22:45.811536,251358,1609504859458173,2459426534,-0.548512,-0.15616,-0.140544,-5.67875,30.66875,-13.0025,14.056001,32.584003,9.84,eccentric,3,3.0,118159.0,308375.0,193396.0,290087.0,209425.0
2026-04-14 17:22:45.814049,251359,1609504859467394,2459437283,-0.530944,-0.169824,0.005856,-5.83625,26.2675,-8.6975,13.960001,32.632,7.608,eccentric,3,3.0,118159.0,308375.0,193396.0,290087.0,209425.0
2026-04-14 17:22:45.816548,251360,1609504859476339,2459445984,-0.530944,-0.169824,0.005856,-5.32875,21.647501,-7.76125,13.960001,32.632,7.608,eccentric,3,3.0,118159.0,308375.0,193396.0,290087.0,209425.0
2026-04-14 17:22:45.818976,251361,1609504859490834,2459460846,-0.521184,-0.265472,-0.20496,-6.1775,17.22875,-6.01125,14.480001,32.584003,7.368001,eccentric,3,3.0,118159.0,308375.0,193396.0,290087.0,209425.0
2026-04-14 17:22:45.821131,251362,1609504859499746,2459469594,-0.521184,-0.265472,-0.20496,-15.70625,11.7775,-5.7225,14.480001,32.584003,7.368001,eccentric,3,3.0,118159.0,308375.0,193396.0,290087.0,209425.0
2026-04-14 17:22:45.824008,251363,1609504859514237,2459484523,-0.5368,-0.11712,-0.222528,-12.1625,4.795,-0.945,14.224001,32.664,7.304,eccentric,3,3.0,118159.0,308375.0,193396.0,290087.0,209425.0
2026-04-14 17:22:45.851154,251364,1609504859523178,2459493344,-0.5368,-0.11712,-0.222528,-1.0325,-1.32125,0.525,14.224001,32.664,7.304,eccentric,3,3.0,118159.0,308375.0,193396.0,290087.0,209425.0
2026-04-14 17:22:45.853827,251365,1609504859537686,2459506236,-0.54656,-0.128832,-0.158112,-3.70125,-5.74875,3.75375,14.176001,32.888,7.736001,eccentric,3,3.0,118159.0,308375.0,193396.0,290087.0,209425.0
2026-04-14 17:22:45.881158,251376,1609504859547669,2459517080,-0.530944,-0.25376,-0.066368,-10.14125,-7.175,6.1075,14.104001,32.888,8.472,eccentric,3,3.0,118533.0,305634.0,194202.0,287726.0,210360.0
2026-04-14 17:22:45.883585,251377,1609504859556815,2459525896,-0.530944,-0.25376,-0.066368,-8.995,-7.4725,6.4225,14.104001,32.888,8.472,eccentric,3,3.0,118533.0,305634.0,194202.0,287726.0,210360.0
2026-04-14 17:22:45.886198,251378,1609504859571298,2459540786,-0.667584,-0.163968,-0.191296,-9.8875,-7.95375,13.83375,13.656001,32.776,8.512,eccentric,3,3.0,118533.0,305634.0,194202.0,287726.0,210360.0
2026-04-14 17:22:45.888990,251379,1609504859580181,2459549489,-0.667584,-0.163968,-0.191296,-10.2025,-10.94625,15.05875,13.656001,32.776,8.512,eccentric,3,3.0,118533.0,305634.0,194202.0,287726.0,210360.0
2026-04-14 17:22:45.891537,251380,1609504859594699,2459564482,-0.659776,-0.228384,-0.187392,-8.295,-13.93,18.7075,14.024001,32.712,8.112,eccentric,3,3.0,118533.0,305634.0,194202.0,287726.0,210360.0
2026-04-14 17:22:45.893562,251381,1609504859603659,2459573171,-0.659776,-0.228384,-0.187392,-7.07,-16.1525,22.5925,14.024001,32.712,8.112,eccentric,3,3.0,118533.0,305634.0,194202.0,287726.0,210360.0
2026-04-14 17:22:45.896541,251382,1609504859612587,2459581917,-0.655872,-0.15616,-0.081984,-7.035,-15.82875,27.265,14.408001,32.688,9.584001,eccentric,3,3.0,118533.0,305634.0,194202.0,287726.0,210360.0
2026-04-14 17:22:45.905300,251383,1609504859627087,2459596854,-0.806176,-0.203008,-0.257664,-7.665,-13.4575,31.21125,14.896001,32.568,8.704,eccentric,3,3.0,118533.0,305634.0,194202.0,287726.0,210360.0
2026-04-14 17:22:45.913968,251384,1609504859636033,2459605554,-0.806176,-0.203008,-0.257664,-14.04375,-10.96375,32.6375,14.896001,32.568,8.704,eccentric,3,3.0,118533.0,305634.0,194202.0,287726.0,210360.0
2026-04-14 17:22:45.948480,251395,1609504859650678,2459620543,-0.808128,-0.128832,-0.060512,-21.20125,-11.12125,35.07875,15.368001,32.32,8.448,eccentric,3,3.0,118797.0,302262.0,195120.0,285352.0,211248.0
2026-04-14 17:22:45.951424,251396,1609504859659636,2459629290,-0.808128,-0.128832,-0.060512,-15.11125,-13.15125,37.98375,15.368001,32.32,8.448,eccentric,3,3.0,118797.0,302262.0,195120.0,285352.0,211248.0
2026-04-14 17:22:45.953394,251397,1609504859674133,2459644346,-0.962336,-0.140544,-0.238144,-9.98375,-14.56,38.8325,15.024001,32.672,9.216001,eccentric,3,3.0,118797.0,302262.0,195120.0,285352.0,211248.0
2026-04-14 17:22:45.961464,251398,1609504859683107,2459653025,-0.962336,-0.140544,-0.238144,-13.99125,-18.6725,37.91375,15.024001,32.672,9.216001,eccentric,3,3.0,118797.0,302262.0,195120.0,285352.0,211248.0
2026-04-14 17:22:45.971416,251399,1609504859692044,2459661700,-0.88816,-0.230336,-0.199104,-16.87,-22.4175,40.0225,17.272001,32.184002,7.208,eccentric,3,3.0,118797.0,302262.0,195120.0,285352.0,211248.0
2026-04-14 17:22:45.984044,251400,1609504859706521,2459676544,-0.997472,-0.064416,-0.347456,-18.89125,-26.69625,41.04625,17.872002,31.552002,7.048,eccentric,3,3.0,118797.0,302262.0,195120.0,285352.0,211248.0
2026-04-14 17:22:45.993570,251401,1609504859715448,2459685252,-0.997472,-0.064416,-0.347456,-18.85625,-31.26375,41.72,17.872002,31.552002,7.048,eccentric,3,3.0,118797.0,302262.0,195120.0,285352.0,211248.0
2026-04-14 17:22:46.008658,251402,1609504859729938,2459700157,-1.042368,-0.189344,-0.158112,-13.20375,-34.4225,38.84125,17.752,31.864002,8.248,eccentric,3,3.0,118797.0,302262.0,195120.0,285352.0,211248.0
2026-04-14 17:22:46.019003,251403,1609504859738870,2459708849,-1.042368,-0.189344,-0.158112,-13.685,-34.95625,36.26875,17.752,31.864002,8.248,eccentric,3,3.0,118797.0,302262.0,195120.0,285352.0,211248.0
2026-04-14 17:22:46.049732,251414,1609504859753434,2459721798,-0.950624,-0.269376,-0.316224,-15.8725,-33.88,37.14375,18.608002,32.08,7.824,eccentric,3,3.0,117434.0,301191.0,193592.0,284471.0,209377.0
2026-04-14 17:22:46.052638,251415,1609504859762662,2459732610,-0.950624,-0.269376,-0.316224,-11.06875,-32.40125,40.97625,18.608002,32.08,7.824,eccentric,3,3.0,117434.0,301191.0,193592.0,284471.0,209377.0
2026-04-14 17:22:46.055147,251416,1609504859771588,2459741310,-1.071648,-0.056608,-0.201056,-2.8875,-30.2575,45.38625,18.104,31.712002,8.608001,eccentric,3,3.0,117434.0,301191.0,193592.0,284471.0,209377.0
2026-04-14 17:22:46.063911,251417,1609504859786113,2459756223,-1.071648,-0.042944,-0.16592,-11.10375,-28.5075,44.51125,18.104,31.712002,8.608001,eccentric,3,3.0,117434.0,301191.0,193592.0,284471.0,209377.0
2026-04-14 17:22:46.072405,251418,1609504859795083,2459764899,-1.00528,-0.042944,-0.16592,-11.1825,-29.02375,39.3225,19.208,31.480001,6.704001,eccentric,3,3.0,117434.0,301191.0,193592.0,284471.0,209377.0
2026-04-14 17:22:46.123498,251419,1609504859809554,2459779794,-1.0248,-0.183488,-0.314272,-4.82125,-29.61875,35.55125,20.112001,31.048002,8.128,eccentric,3,3.0,117434.0,301191.0,193592.0,284471.0,209377.0
2026-04-14 17:22:46.125895,251420,1609504859818479,2459788456,-1.0248,-0.183488,-0.314272,-11.6025,-30.30125,32.89125,20.112001,31.048002,8.128,eccentric,3,3.0,117434.0,301191.0,193592.0,284471.0,209377.0
2026-04-14 17:22:46.128565,251421,1609504859827438,2459797159,-0.972096,-0.230336,-0.005856,-20.1775,-29.84625,34.965,20.0,31.480001,9.536,eccentric,3,3.0,117434.0,301191.0,193592.0,284471.0,209377.0
2026-04-14 17:22:46.153706,251422,1609504859841917,2459812050,-0.972096,-0.230336,-0.005856,-21.525,-27.78125,39.655,20.0,31.480001,9.536,eccentric,3,3.0,117434.0,301191.0,193592.0,284471.0,209377.0
2026-04-14 17:22:46.181002,251433,1609504859851197,2459820764,-1.163392,0.040992,-0.28304,-13.41375,-26.27625,39.73375,20.376001,30.656002,8.848001,eccentric,3,3.0,115410.0,297548.0,191459.0,281713.0,206989.0
2026-04-14 17:22:46.183556,251434,1609504859865730,2459835732,-1.163392,0.040992,-0.28304,0.945,-26.705,35.49,20.376001,30.656002,8.848001,eccentric,3,3.0,115410.0,297548.0,191459.0,281713.0,206989.0
2026-04-14 17:22:46.186249,251435,1609504859874628,2459844416,-1.050176,-0.052704,-0.10736,3.64,-27.6325,29.25125,20.664001,30.600002,8.152,eccentric,3,3.0,115410.0,297548.0,191459.0,281713.0,206989.0
2026-04-14 17:22:46.188725,251436,1609504859889137,2459859394,-1.003328,-0.216672,-0.013664,-8.82875,-30.58125,23.82625,20.832,30.448002,9.232,eccentric,3,3.0,115410.0,297548.0,191459.0,281713.0,206989.0
2026-04-14 17:22:46.191246,251437,1609504859898117,2459868099,-1.003328,-0.216672,-0.013664,-18.7775,-30.73875,24.89375,20.832,30.448002,9.232,eccentric,3,3.0,115410.0,297548.0,191459.0,281713.0,206989.0
2026-04-14 17:22:46.193718,251438,1609504859907051,2459876783,-1.110688,-0.15616,-0.099552,-19.90625,-28.69125,27.93875,20.832,30.448002,9.688001,eccentric,3,3.0,115410.0,297548.0,191459.0,281713.0,206989.0
2026-04-14 17:22:46.199805,251439,1609504859921577,2459891680,-1.110688,-0.15616,-0.099552,-17.99875,-25.7775,30.38875,21.024,30.320002,9.688001,eccentric,3,3.0,115410.0,297548.0,191459.0,281713.0,206989.0
2026-04-14 17:22:46.207451,251440,1609504859930514,2459900390,-1.157536,0.025376,-0.259616,-6.3,-24.42125,30.70375,21.296001,29.784002,10.904,eccentric,3,3.0,115410.0,297548.0,191459.0,281713.0,206989.0
2026-04-14 17:22:46.228517,251441,1609504859945075,2459915310,-1.157536,0.025376,-0.259616,8.84625,-23.6075,29.63625,21.296001,29.784002,10.904,eccentric,3,3.0,115410.0,297548.0,191459.0,281713.0,206989.0
2026-04-14 17:22:46.251264,251452,1609504859954066,2459924126,-1.079456,-0.042944,-0.171776,4.2,-24.96375,24.29,21.44,29.336,11.152,eccentric,3,3.0,112938.0,289434.0,188908.0,276885.0,203620.0
2026-04-14 17:22:46.253587,251453,1609504859963101,2459932884,-1.079456,-0.042944,-0.171776,-11.0075,-24.40375,19.678751,21.44,29.336,11.152,eccentric,3,3.0,112938.0,289434.0,188908.0,276885.0,203620.0
2026-04-14 17:22:46.256233,251454,1609504859977593,2459947789,-1.126304,-0.083936,0.080032,-17.3425,-23.44125,18.40125,20.296001,29.28,11.856001,eccentric,3,3.0,112938.0,289434.0,188908.0,276885.0,203620.0
2026-04-14 17:22:46.266184,251455,1609504859986553,2459956494,-1.126304,-0.083936,0.080032,-16.10875,-22.58375,16.56375,20.296001,29.28,11.856001,eccentric,3,3.0,112938.0,289434.0,188908.0,276885.0,203620.0
2026-04-14 17:22:46.279987,251456,1609504860001052,2459971350,-1.147776,-0.134688,-0.16592,-13.667501,-22.93375,14.2625,21.192001,28.552002,8.616,eccentric,3,3.0,112938.0,289434.0,188908.0,276885.0,203620.0
2026-04-14 17:22:46.288807,251457,1609504860010088,2459980118,-1.245376,-0.0976,-0.269376,-9.415,-25.2875,16.84375,20.960001,27.512001,10.480001,eccentric,3,3.0,112938.0,289434.0,188908.0,276885.0,203620.0
2026-04-14 17:22:46.301574,251458,1609504860024594,2459992964,-1.245376,-0.0976,-0.269376,-8.54875,-29.77625,18.19125,20.960001,27.512001,10.480001,eccentric,3,3.0,112938.0,289434.0,188908.0,276885.0,203620.0
2026-04-14 17:22:46.318175,251459,1609504860033767,2460003706,-1.138016,-0.013664,-0.095648,-5.71375,-31.26375,16.59,20.592001,26.896002,10.592001,eccentric,3,3.0,112938.0,289434.0,188908.0,276885.0,203620.0
2026-04-14 17:22:46.323952,251460,1609504860042698,2460012374,-1.138016,-0.013664,-0.095648,0.51625,-31.99,14.63875,20.592001,26.896002,10.592001,eccentric,3,3.0,112938.0,289434.0,188908.0,276885.0,203620.0
2026-04-14 17:22:46.351552,251471,1609504860057207,2460027258,-1.260992,0.013664,-0.080032,-1.645,-31.54375,10.50875,20.432001,26.528002,10.248,eccentric,3,3.0,100997.0,279681.0,175762.0,271283.0,189166.0
2026-04-14 17:22:46.354056,251472,1609504860066298,2460036061,-1.260992,0.013664,-0.080032,-10.40375,-30.45875,5.845,20.432001,26.528002,10.248,eccentric,3,3.0,100997.0,279681.0,175762.0,271283.0,189166.0
2026-04-14 17:22:46.360289,251473,1609504860080822,2460051013,-1.153632,-0.163968,-0.12688,-19.95,-31.71875,2.75625,19.032001,27.064001,11.512,eccentric,3,3.0,100997.0,279681.0,175762.0,271283.0,189166.0
2026-04-14 17:22:46.367324,251474,1609504860089790,2460059732,-1.235616,-0.10736,-0.230336,-19.38125,-34.23875,4.48,21.112001,26.296001,6.808,eccentric,3,3.0,100997.0,279681.0,175762.0,271283.0,189166.0
2026-04-14 17:22:46.383582,251475,1609504860104279,2460074611,-1.235616,-0.10736,-0.230336,-6.88625,-35.07,7.72625,21.112001,26.296001,6.808,eccentric,3,3.0,100997.0,279681.0,175762.0,271283.0,189166.0
2026-04-14 17:22:46.394032,251476,1609504860113203,2460083276,-1.27856,-0.015616,-0.226432,4.6025,-34.3,6.37,20.872002,26.744001,9.208,eccentric,3,3.0,100997.0,279681.0,175762.0,271283.0,189166.0
2026-04-14 17:22:46.399754,251477,1609504860122126,2460091976,-1.27856,-0.015616,-0.226432,8.81125,-34.09875,2.8175,20.872002,26.744001,9.208,eccentric,3,3.0,100997.0,279681.0,175762.0,271283.0,189166.0
2026-04-14 17:22:46.417152,251478,1609504860136594,2460106854,-1.167296,-0.046848,-0.152256,5.71375,-33.005,-1.77625,20.616001,27.416,9.472,eccentric,3,3.0,100997.0,279681.0,175762.0,271283.0,189166.0
2026-04-14 17:22:46.426545,251479,1609504860145490,2460115550,-1.167296,-0.046848,-0.152256,-2.98375,-33.5475,-6.5975,20.616001,27.416,9.472,eccentric,3,3.0,100997.0,279681.0,175762.0,271283.0,189166.0
2026-04-14 17:22:46.520992,251490,1609504860160138,2460128791,-1.233664,-0.105408,0.052704,-13.1425,-33.08375,-5.5125,20.016,27.568,9.512,eccentric,3,3.0,84300.0,269603.0,155259.0,261481.0,167898.0
2026-04-14 17:22:46.523563,251491,1609504860169514,2460139603,-1.294176,-0.187392,-0.191296,-21.21875,-29.86375,-3.22875,19.704,28.112001,9.440001,eccentric,3,3.0,84300.0,269603.0,155259.0,261481.0,167898.0
2026-04-14 17:22:46.526099,251492,1609504860178475,2460148275,-1.294176,-0.187392,-0.191296,-19.99375,-26.32,-0.56,19.704,28.112001,9.440001,eccentric,3,3.0,84300.0,269603.0,155259.0,261481.0,167898.0
2026-04-14 17:22:46.528546,251493,1609504860192967,2460163139,-1.300032,-0.140544,-0.142496,-12.7575,-22.8725,3.4475,20.896002,28.288002,8.224,eccentric,3,3.0,84300.0,269603.0,155259.0,261481.0,167898.0
2026-04-14 17:22:46.533509,251494,1609504860201874,2460171860,-1.300032,-0.140544,-0.142496,-6.60625,-21.79625,5.41625,20.896002,28.288002,8.224,concentric,3,3.0,84300.0,269603.0,155259.0,261481.0,167898.0
2026-04-14 17:22:46.536076,251495,1609504860216373,2460184737,-1.221952,-0.081984,-0.095648,4.41875,-22.37375,6.74625,20.36,28.384,8.200001,concentric,3,3.0,84300.0,269603.0,155259.0,261481.0,167898.0
2026-04-14 17:22:46.538598,251496,1609504860225559,2460195524,-1.221952,-0.081984,-0.095648,13.37,-23.178751,6.25625,20.36,28.384,8.200001,concentric,3,3.0,84300.0,269603.0,155259.0,261481.0,167898.0
2026-04-14 17:22:46.541157,251497,1609504860240021,2460208360,-1.231712,-0.109312,-0.124928,8.3125,-23.87875,4.025,20.672,28.376001,8.712001,concentric,3,3.0,84300.0,269603.0,155259.0,261481.0,167898.0
2026-04-14 17:22:46.568738,251508,1609504860249171,2460219231,-1.309792,-0.20496,-0.160064,-4.92625,-23.56375,3.50875,20.672,28.376001,8.52,concentric,3,3.0,77777.0,264262.0,147125.0,256733.0,159652.0
2026-04-14 17:22:46.571248,251509,1609504860258160,2460228161,-1.300032,-0.20496,-0.160064,-13.475,-23.79125,4.17375,20.472,28.832,8.52,concentric,3,3.0,77777.0,264262.0,147125.0,256733.0,159652.0
2026-04-14 17:22:46.573734,251510,1609504860272658,2460241022,-1.22,-0.222528,0.005856,-14.28,-24.815,5.8975,20.608002,29.104002,8.464001,concentric,3,3.0,77777.0,264262.0,147125.0,256733.0,159652.0
2026-04-14 17:22:46.576279,251511,1609504860282007,2460251824,-1.22,-0.222528,0.005856,-6.58875,-23.7825,9.47625,20.608002,29.104002,8.464001,concentric,3,3.0,77777.0,264262.0,147125.0,256733.0,159652.0
2026-04-14 17:22:46.578734,251512,1609504860296570,2460266726,-1.282464,-0.12688,-0.011712,5.425,-21.81375,12.81875,20.792002,29.000002,8.416,concentric,3,3.0,77777.0,264262.0,147125.0,256733.0,159652.0
2026-04-14 17:22:46.582288,251513,1609504860305470,2460275425,-1.282464,-0.12688,-0.011712,10.91125,-20.9125,13.2825,20.792002,29.000002,8.416,concentric,3,3.0,77777.0,264262.0,147125.0,256733.0,159652.0
2026-04-14 17:22:46.592486,251514,1609504860314490,2460284113,-1.177056,-0.113216,-0.072224,10.24625,-18.6725,14.8575,20.44,28.928001,8.776,concentric,3,3.0,77777.0,264262.0,147125.0,256733.0,159652.0
2026-04-14 17:22:46.608430,251515,1609504860329000,2460299009,-1.177056,-0.113216,-0.072224,5.04875,-16.38875,15.00625,20.44,28.928001,8.776,concentric,3,3.0,77777.0,264262.0,147125.0,256733.0,159652.0
2026-04-14 17:22:46.615893,251516,1609504860337910,2460307675,-1.139968,-0.203008,0.074176,-2.6425,-15.91625,15.417501,20.344002,29.144001,9.768001,concentric,3,3.0,77777.0,264262.0,147125.0,256733.0,159652.0
2026-04-14 17:22:46.654970,251527,1609504860352913,2460322678,-1.15168,-0.20496,-0.00976,-9.730001,-17.0625,18.8475,20.0,29.160002,9.568001,concentric,3,3.0,79284.0,265025.0,148841.0,257220.0,161535.0
2026-04-14 17:22:46.657797,251528,1609504860361897,2460331463,-1.15168,-0.20496,-0.00976,-9.835,-18.87375,23.63375,20.0,29.160002,9.568001,concentric,3,3.0,79284.0,265025.0,148841.0,257220.0,161535.0
2026-04-14 17:22:46.660006,251529,1609504860370852,2460340189,-1.218048,-0.138592,-0.10736,2.86125,-19.31125,23.14375,20.416,28.848001,9.168,concentric,3,3.0,79284.0,265025.0,148841.0,257220.0,161535.0
2026-04-14 17:22:46.664803,251530,1609504860385316,2460355086,-1.218048,-0.138592,-0.10736,11.27,-20.01125,24.053751,20.416,28.848001,9.168,concentric,3,3.0,79284.0,265025.0,148841.0,257220.0,161535.0
2026-04-14 17:22:46.672773,251531,1609504860394249,2460363814,-1.11264,-0.11712,0.042944,12.81875,-18.6025,29.77625,21.168001,28.728,9.344001,concentric,3,3.0,79284.0,265025.0,148841.0,257220.0,161535.0
2026-04-14 17:22:46.686560,251532,1609504860408795,2460378696,-1.11264,-0.11712,0.042944,8.1025,-17.01875,29.39125,21.168001,28.728,9.344001,concentric,3,3.0,79284.0,265025.0,148841.0,257220.0,161535.0
2026-04-14 17:22:46.696543,251533,1609504860417730,2460387369,-1.198528,-0.144448,-0.037088,3.42125,-15.855001,27.965,21.28,28.28,10.320001,concentric,3,3.0,79284.0,265025.0,148841.0,257220.0,161535.0
2026-04-14 17:22:46.712637,251534,1609504860432210,2460402247,-1.126304,-0.173728,-0.00976,-1.2775,-15.9775,27.545,20.968,28.672,11.440001,concentric,3,3.0,79284.0,265025.0,148841.0,257220.0,161535.0
2026-04-14 17:22:46.718885,251535,1609504860441150,2460410904,-1.126304,-0.173728,-0.00976,-3.22875,-16.485,27.4925,20.968,28.672,11.440001,concentric,3,3.0,79284.0,265025.0,148841.0,257220.0,161535.0
2026-04-14 17:22:46.755295,251546,1609504860450147,2460419954,-1.126304,-0.173728,-0.031232,1.54875,-16.98375,29.79375,20.968,28.672,11.440001,concentric,3,3.0,78122.0,263010.0,147364.0,255733.0,159877.0
2026-04-14 17:22:46.757759,251547,1609504860464799,2460434992,-1.134112,-0.134688,-0.031232,7.2625,-17.2375,29.70625,20.976002,28.376001,9.544001,concentric,3,3.0,78122.0,263010.0,147364.0,255733.0,159877.0
2026-04-14 17:22:46.760109,251548,1609504860473732,2460443680,-1.128256,-0.06832,0.121024,9.59,-16.87875,27.86,21.632002,27.728,10.0,concentric,3,3.0,78122.0,263010.0,147364.0,255733.0,159877.0
2026-04-14 17:22:46.767376,251549,1609504860488246,2460458555,-1.128256,-0.06832,0.121024,8.7325,-14.72625,27.825,21.632002,27.728,10.0,concentric,3,3.0,78122.0,263010.0,147364.0,255733.0,159877.0
2026-04-14 17:22:46.776240,251550,1609504860497170,2460467268,-1.173152,-0.062464,0.115168,3.59625,-13.62375,26.845,21.76,28.072,9.728001,concentric,3,3.0,78122.0,263010.0,147364.0,255733.0,159877.0
2026-04-14 17:22:46.787829,251551,1609504860511641,2460480158,-1.149728,-0.160064,0.093696,-5.50375,-13.50125,24.710001,22.016,27.560001,10.424001,concentric,3,3.0,78122.0,263010.0,147364.0,255733.0,159877.0
2026-04-14 17:22:46.801031,251552,1609504860521062,2460490908,-1.149728,-0.160064,0.093696,-9.00375,-13.34375,24.99875,22.016,27.560001,10.424001,concentric,3,3.0,78122.0,263010.0,147364.0,255733.0,159877.0
2026-04-14 17:22:46.809868,251553,1609504860530026,2460499597,-1.149728,-0.160064,0.093696,-6.41375,-13.09875,25.45375,22.016,27.560001,10.424001,concentric,3,3.0,78122.0,263010.0,147364.0,255733.0,159877.0
2026-04-14 17:22:46.833447,251554,1609504860544510,2460514498,-1.15168,-0.13664,-0.091744,2.625,-12.29375,26.53,21.912,27.632002,8.848001,concentric,3,3.0,78122.0,263010.0,147364.0,255733.0,159877.0
2026-04-14 17:22:46.891300,251565,1609504860553463,2460523366,-1.188768,0.021472,0.111264,11.2875,-11.2,27.39625,21.688002,28.184002,10.496,concentric,3,3.0,73079.0,257842.0,140908.0,251079.0,153131.0
2026-04-14 17:22:46.893655,251566,1609504860567963,2460538274,-1.188768,0.021472,0.111264,12.27625,-10.71875,26.08375,21.688002,28.184002,10.496,concentric,3,3.0,73079.0,257842.0,140908.0,251079.0,153131.0
2026-04-14 17:22:46.896082,251567,1609504860576844,2460546948,-1.165344,-0.001952,0.111264,4.9525,-10.465,23.45,21.848001,27.544,10.048,concentric,3,3.0,73079.0,257842.0,140908.0,251079.0,153131.0
2026-04-14 17:22:46.898600,251568,1609504860585750,2460555613,-1.165344,-0.001952,0.111264,-3.99875,-10.64875,20.76375,21.848001,27.544,10.048,concentric,3,3.0,73079.0,257842.0,140908.0,251079.0,153131.0
2026-04-14 17:22:46.900965,251569,1609504860600254,2460570583,-1.16144,-0.10736,0.0488,-10.35125,-11.235,18.47125,22.512001,27.376001,10.056001,concentric,3,3.0,73079.0,257842.0,140908.0,251079.0,153131.0
2026-04-14 17:22:46.903935,251570,1609504860609235,2460579295,-1.16144,-0.10736,0.0488,-11.698751,-11.19125,17.5175,22.512001,27.376001,10.056001,concentric,3,3.0,73079.0,257842.0,140908.0,251079.0,153131.0
2026-04-14 17:22:46.906451,251571,1609504860623715,2460592118,-1.126304,-0.109312,-0.081984,-3.71,-10.28125,17.78,22.184002,27.424002,10.320001,concentric,3,3.0,73079.0,257842.0,140908.0,251079.0,153131.0
2026-04-14 17:22:46.911183,251572,1609504860632960,2460602875,-1.10288,-0.01952,0.011712,5.6175,-8.68,17.3075,22.688002,27.264002,11.104,concentric,3,3.0,73079.0,257842.0,140908.0,251079.0,153131.0
2026-04-14 17:22:46.926545,251573,1609504860647442,2460615787,-1.10288,-0.01952,0.011712,8.2425,-7.81375,16.1875,22.688002,27.264002,11.104,concentric,3,3.0,73079.0,257842.0,140908.0,251079.0,153131.0
2026-04-14 17:22:46.957687,251584,1609504860656674,2460626591,-1.126304,0.007808,0.070272,4.03375,-8.5575,14.27125,21.584002,27.256,10.592001,concentric,3,3.0,73587.0,257230.0,141860.0,250664.0,154218.0
2026-04-14 17:22:46.959772,251585,1609504860665623,2460635324,-1.126304,0.007808,0.070272,-2.1525,-8.82,11.57625,21.584002,27.256,10.592001,concentric,3,3.0,73587.0,257230.0,141860.0,250664.0,154218.0
2026-04-14 17:22:46.962781,251586,1609504860680112,2460650279,-1.10288,-0.093696,-0.101504,-6.51,-8.81125,9.28375,20.936,27.296001,11.032001,concentric,3,3.0,73587.0,257230.0,141860.0,250664.0,154218.0
2026-04-14 17:22:46.967791,251587,1609504860689033,2460658959,-1.10288,-0.093696,-0.101504,-6.72,-7.63875,8.61,20.936,27.296001,11.032001,concentric,3,3.0,73587.0,257230.0,141860.0,250664.0,154218.0
2026-04-14 17:22:46.981108,251588,1609504860703681,2460673906,-1.095072,-0.072224,0.091744,-5.0575,-5.95875,9.16125,21.768002,27.320002,11.448001,concentric,3,3.0,73587.0,257230.0,141860.0,250664.0,154218.0
2026-04-14 17:22:46.990742,251589,1609504860712630,2460682585,-1.114592,-0.011712,0.044896,-3.14125,-5.075,9.65125,22.464,26.720001,12.232,concentric,3,3.0,73587.0,257230.0,141860.0,250664.0,154218.0
2026-04-14 17:22:47.000103,251590,1609504860721556,2460691304,-1.114592,-0.011712,0.044896,-0.56875,-4.87375,9.52875,22.464,26.720001,12.232,concentric,3,3.0,73587.0,257230.0,141860.0,250664.0,154218.0
2026-04-14 17:22:47.014682,251591,1609504860736034,2460706179,-1.036512,-0.025376,0.011712,2.415,-4.0075,8.68875,22.576,26.832,10.528001,concentric,3,3.0,73587.0,257230.0,141860.0,250664.0,154218.0
2026-04-14 17:22:47.022318,251592,1609504860744957,2460714808,-1.036512,-0.025376,0.011712,1.05,-3.5525,6.39625,22.576,26.832,10.528001,concentric,3,3.0,73587.0,257230.0,141860.0,250664.0,154218.0
2026-04-14 17:22:47.056565,251603,1609504860759482,2460727955,-1.091168,-0.003904,0.081984,-3.50875,-3.91125,4.3225,22.072,27.208002,10.56,concentric,3,3.0,74708.0,258303.0,143276.0,251452.0,155730.0
2026-04-14 17:22:47.059068,251604,1609504860768909,2460738819,-1.091168,-0.003904,0.081984,-7.1925,-4.025,2.3625,22.072,27.208002,10.56,concentric,3,3.0,74708.0,258303.0,143276.0,251452.0,155730.0
2026-04-14 17:22:47.062864,251605,1609504860783437,2460753679,-1.05408,-0.052704,0.00976,-6.9825,-3.675,0.49875,21.960001,27.032001,11.336,concentric,3,3.0,74708.0,258303.0,143276.0,251452.0,155730.0
2026-04-14 17:22:47.072658,251606,1609504860792370,2460762412,-1.05408,-0.023424,0.111264,-6.0025,-2.26625,-1.11125,21.960001,27.032001,11.336,concentric,3,3.0,74708.0,258303.0,143276.0,251452.0,155730.0
2026-04-14 17:22:47.079031,251607,1609504860801337,2460771164,-1.040416,-0.023424,0.111264,-3.78,-1.39125,-2.205,22.408,26.984001,11.336,concentric,3,3.0,74708.0,258303.0,143276.0,251452.0,155730.0
2026-04-14 17:22:47.093888,251608,1609504860815812,2460786044,-1.098976,-0.013664,-0.03904,-1.37375,-0.88375,-3.0275,22.536001,26.616001,11.440001,concentric,3,3.0,74708.0,258303.0,143276.0,251452.0,155730.0
2026-04-14 17:22:47.102700,251609,1609504860824757,2460794722,-1.098976,-0.013664,-0.03904,-0.3325,-0.77,-4.01625,22.536001,26.616001,11.440001,concentric,3,3.0,74708.0,258303.0,143276.0,251452.0,155730.0
2026-04-14 17:22:47.131208,251610,1609504860839228,2460807562,-1.040416,-0.0488,-0.02928,-2.065,-0.98875,-5.52125,22.544,27.28,10.544001,concentric,3,3.0,74708.0,258303.0,143276.0,251452.0,155730.0
2026-04-14 17:22:47.134421,251611,1609504860848321,2460818289,-1.040416,-0.0488,-0.02928,-3.92875,-0.21,-6.32625,22.544,27.28,10.544001,concentric,3,3.0,74708.0,258303.0,143276.0,251452.0,155730.0
2026-04-14 17:22:47.168345,251623,1609504860857422,2460826992,-1.1224,-0.003904,0.064416,-4.445,0.455,-7.06125,21.256,27.672,11.936001,concentric,3,3.0,75860.0,258716.0,144785.0,251817.0,157254.0
2026-04-14 17:22:47.172370,251624,1609504860872013,2460841927,-1.1224,-0.003904,0.064416,-4.12125,1.53125,-7.65625,21.256,27.672,11.936001,concentric,3,3.0,75860.0,258716.0,144785.0,251817.0,157254.0
2026-04-14 17:22:47.175467,251625,1609504860881000,2460850624,-1.085312,-0.037088,0.054656,-3.7975,2.52875,-8.68875,20.976002,27.216002,11.016001,concentric,3,3.0,75860.0,258716.0,144785.0,251817.0,157254.0
2026-04-14 17:22:47.177557,251626,1609504860895492,2460865493,-1.16144,0.003904,0.00976,-2.275,3.2375,-8.53125,21.84,27.528002,11.568001,concentric,3,3.0,75860.0,258716.0,144785.0,251817.0,157254.0
2026-04-14 17:22:47.201537,251627,1609504860904458,2460874236,-1.16144,0.003904,0.00976,-1.19,3.1675,-8.6625,21.84,27.528002,11.568001,concentric,3,3.0,75860.0,258716.0,144785.0,251817.0,157254.0
2026-04-14 17:22:47.226560,251628,1609504860918933,2460889103,-1.085312,-0.00976,0.080032,-0.34125,2.49375,-8.37375,21.472,27.312002,11.512,concentric,3,3.0,75860.0,258716.0,144785.0,251817.0,157254.0
2026-04-14 17:22:47.228996,251629,1609504860927814,2460897755,-1.085312,-0.00976,0.080032,-1.30375,2.5025,-7.7175,21.472,27.312002,11.512,concentric,3,3.0,75860.0,258716.0,144785.0,251817.0,157254.0
2026-04-14 17:22:47.231075,251630,1609504860936738,2460906416,-1.169248,0.003904,0.015616,-3.0625,3.2025,-8.23375,21.648,27.384,11.6,concentric,3,3.0,75860.0,258716.0,144785.0,251817.0,157254.0
2026-04-14 17:22:47.234013,251631,1609504860951232,2460921339,-1.169248,0.003904,0.015616,-4.235,3.885,-9.0475,21.648,27.384,11.6,concentric,3,3.0,75860.0,258716.0,144785.0,251817.0,157254.0
2026-04-14 17:22:47.260915,251641,1609504860960154,2460930192,-1.175104,-0.031232,-0.113216,-4.27875,4.52375,-9.66875,21.856,27.568,9.912001,concentric,3,3.0,78404.0,261092.0,148282.0,253872.0,160844.0
2026-04-14 17:22:47.265170,251642,1609504860974701,2460943058,-1.108736,-0.005856,0.11712,-3.3775,4.34,-9.59875,21.912,27.12,11.736001,concentric,3,3.0,78404.0,261092.0,148282.0,253872.0,160844.0
2026-04-14 17:22:47.266331,251643,1609504860983932,2460953822,-1.108736,-0.005856,0.11712,-4.095,3.14125,-9.7475,21.912,27.12,11.736001,concentric,3,3.0,78404.0,261092.0,148282.0,253872.0,160844.0
2026-04-14 17:22:47.276486,251644,1609504860998420,2460968764,-1.08336,-0.056608,-0.02928,-2.835,2.9225,-9.93125,22.528002,27.496002,10.328,concentric,3,3.0,78404.0,261092.0,148282.0,253872.0,160844.0
2026-04-14 17:22:47.286516,251645,1609504861007333,2460977435,-1.08336,-0.056608,-0.02928,-0.79625,3.77125,-10.386251,22.528002,27.496002,10.328,concentric,3,3.0,78404.0,261092.0,148282.0,253872.0,160844.0
2026-04-14 17:22:47.295183,251646,1609504861016303,2460986117,-1.134112,-0.044896,0.033184,-2.12625,4.82125,-10.61375,22.416,27.408,10.136001,concentric,3,3.0,78404.0,261092.0,148282.0,253872.0,160844.0
2026-04-14 17:22:47.310301,251647,1609504861030755,2461001031,-1.134112,-0.044896,0.033184,-4.0775,6.08125,-10.22,22.416,27.408,10.136001,concentric,3,3.0,78404.0,261092.0,148282.0,253872.0,160844.0
2026-04-14 17:22:47.317796,251648,1609504861039674,2461009697,-1.147776,-0.027328,0.081984,-4.0425,7.3675,-10.115,21.84,27.584002,11.312,concentric,3,3.0,78404.0,261092.0,148282.0,253872.0,160844.0
2026-04-14 17:22:47.330282,251649,1609504861054141,2461022530,-1.147776,-0.00976,0.130784,-3.84125,8.96875,-10.29,21.84,27.584002,9.264001,concentric,3,3.0,78404.0,261092.0,148282.0,253872.0,160844.0
2026-04-14 17:22:47.360874,251661,1609504861063840,2461033323,-1.11264,-0.00976,0.130784,-2.905,10.6925,-10.61375,21.640001,27.504002,10.144,concentric,3,3.0,85139.0,266145.0,156996.0,258656.0,169821.0
2026-04-14 17:22:47.363850,251662,1609504861072778,2461042329,-1.11264,-0.00976,0.130784,-2.98375,11.43625,-11.10375,21.640001,27.504002,10.144,concentric,3,3.0,85139.0,266145.0,156996.0,258656.0,169821.0
2026-04-14 17:22:47.368906,251663,1609504861087480,2461057485,-1.10288,-0.07808,0.10736,-5.53,11.0775,-11.33125,22.576,27.528002,9.952001,concentric,3,3.0,85139.0,266145.0,156996.0,258656.0,169821.0
2026-04-14 17:22:47.376425,251664,1609504861096435,2461066163,-1.116544,-0.089792,0.037088,-4.47125,11.515,-10.8325,22.464,27.36,9.792001,concentric,3,3.0,85139.0,266145.0,156996.0,258656.0,169821.0
2026-04-14 17:22:47.388854,251665,1609504861110908,2461081207,-1.116544,-0.089792,0.037088,-0.09625,11.45375,-10.885,22.464,27.36,9.792001,concentric,3,3.0,85139.0,266145.0,156996.0,258656.0,169821.0
2026-04-14 17:22:47.399753,251666,1609504861120203,2461090064,-1.188768,0.025376,0.017568,4.8125,12.32875,-11.06,22.232,27.144001,10.040001,concentric,3,3.0,85139.0,266145.0,156996.0,258656.0,169821.0
2026-04-14 17:22:47.407761,251667,1609504861129358,2461098807,-1.188768,0.025376,0.017568,5.24125,13.60625,-12.46,22.232,27.144001,10.040001,concentric,3,3.0,85139.0,266145.0,156996.0,258656.0,169821.0
2026-04-14 17:22:47.422790,251668,1609504861143879,2461113700,-1.145824,-0.03904,0.122976,0.18375,14.00875,-14.56875,22.000002,27.352001,10.744,concentric,3,3.0,85139.0,266145.0,156996.0,258656.0,169821.0
2026-04-14 17:22:47.429789,251669,1609504861152939,2461122566,-1.145824,-0.03904,0.122976,-9.695,14.595,-16.6075,22.000002,27.352001,10.744,concentric,3,3.0,85139.0,266145.0,156996.0,258656.0,169821.0
2026-04-14 17:22:47.457291,251680,1609504861167528,2461137626,-1.179008,-0.189344,-0.0488,-14.0525,14.542501,-16.38,21.920002,27.680002,9.496,concentric,3,3.0,94052.0,273911.0,167526.0,265513.0,180937.0
2026-04-14 17:22:47.459733,251681,1609504861176501,2461146341,-1.147776,-0.089792,-0.113216,-6.5625,13.7025,-12.74875,22.296001,27.160002,8.392,concentric,3,3.0,94052.0,273911.0,167526.0,265513.0,180937.0
2026-04-14 17:22:47.473861,251682,1609504861191069,2461161250,-1.147776,-0.089792,-0.113216,8.8025,14.49,-8.60125,22.296001,27.160002,8.392,concentric,3,3.0,94052.0,273911.0,167526.0,265513.0,180937.0
2026-04-14 17:22:47.477628,251683,1609504861199982,2461170093,-1.208288,0.076128,0.0,15.4,15.51375,-8.2775,22.768002,27.152,9.336,concentric,3,3.0,94052.0,273911.0,167526.0,265513.0,180937.0
2026-04-14 17:22:47.487772,251684,1609504861208886,2461178755,-1.208288,0.076128,0.0,9.09125,17.22875,-10.36,22.768002,27.152,9.336,concentric,3,3.0,94052.0,273911.0,167526.0,265513.0,180937.0
2026-04-14 17:22:47.503998,251685,1609504861223370,2461193665,-1.098976,-0.093696,0.105408,-5.97625,17.42125,-14.315001,22.640001,27.400002,9.200001,concentric,3,3.0,94052.0,273911.0,167526.0,265513.0,180937.0
2026-04-14 17:22:47.511558,251686,1609504861232289,2461202368,-1.098976,-0.093696,0.105408,-16.77375,18.7075,-17.19375,22.640001,27.400002,9.200001,concentric,3,3.0,94052.0,273911.0,167526.0,265513.0,180937.0
2026-04-14 17:22:47.523618,251687,1609504861246762,2461215193,-1.235616,-0.158112,-0.085888,-14.105001,20.79,-16.87875,22.304,27.680002,9.64,concentric,3,3.0,94052.0,273911.0,167526.0,265513.0,180937.0
2026-04-14 17:22:47.607708,251698,1609504861256173,2461226583,-1.186816,-0.031232,0.031232,-4.97875,22.21625,-16.4675,22.824001,27.312002,9.280001,concentric,3,3.0,98790.0,276774.0,173191.0,268501.0,186566.0
2026-04-14 17:22:47.610103,251699,1609504861265276,2461235297,-1.186816,-0.031232,0.031232,5.64375,22.61,-14.6125,22.824001,27.312002,9.280001,concentric,3,3.0,98790.0,276774.0,173191.0,268501.0,186566.0
2026-04-14 17:22:47.612785,251700,1609504861279837,2461248191,-1.167296,-0.007808,-0.02928,10.07125,21.39375,-14.95375,22.848001,26.952002,9.048,concentric,3,3.0,98790.0,276774.0,173191.0,268501.0,186566.0
2026-04-14 17:22:47.614870,251701,1609504861288970,2461258904,-1.167296,-0.007808,-0.02928,5.1275,20.1425,-17.56125,22.848001,26.952002,9.048,concentric,3,3.0,98790.0,276774.0,173191.0,268501.0,186566.0
2026-04-14 17:22:47.617687,251702,1609504861303459,2461273762,-1.192672,-0.07808,-0.122976,-4.89125,19.60875,-19.64375,22.656,27.432001,8.488001,concentric,3,3.0,98790.0,276774.0,173191.0,268501.0,186566.0
2026-04-14 17:22:47.620617,251703,1609504861312400,2461282495,-1.192672,-0.07808,-0.122976,-12.0225,21.0875,-20.83375,22.656,27.432001,8.488001,concentric,3,3.0,98790.0,276774.0,173191.0,268501.0,186566.0
2026-04-14 17:22:47.622794,251704,1609504861326863,2461295312,-1.130208,-0.171776,0.0,-13.475,24.54375,-22.0675,22.928001,27.328001,9.400001,concentric,3,3.0,98790.0,276774.0,173191.0,268501.0,186566.0
2026-04-14 17:22:47.625219,251705,1609504861336117,2461306142,-1.194624,-0.060512,-0.02928,-11.24375,27.7025,-21.315,22.928001,27.328001,9.368,concentric,3,3.0,98790.0,276774.0,173191.0,268501.0,186566.0
2026-04-14 17:22:47.627796,251706,1609504861345068,2461314890,-1.194624,-0.060512,-0.02928,-5.83625,29.89875,-20.195,22.336,27.712002,9.368,concentric,3,3.0,98790.0,276774.0,173191.0,268501.0,186566.0
2026-04-14 17:22:47.657486,251717,1609504861360168,2461329905,-1.149728,0.003904,-0.01952,0.39375,30.52,-20.2825,22.072,27.28,8.816,concentric,3,3.0,103750.0,280202.0,179044.0,273166.0,192693.0
2026-04-14 17:22:47.660180,251718,1609504861369126,2461338654,-1.149728,0.003904,-0.01952,-1.05875,29.295,-21.76125,22.072,27.28,8.816,concentric,3,3.0,103750.0,280202.0,179044.0,273166.0,192693.0
2026-04-14 17:22:47.662679,251719,1609504861378043,2461347438,-1.186816,-0.109312,-0.046848,-10.00125,27.90375,-23.5025,21.736002,27.536001,8.336,concentric,3,3.0,103750.0,280202.0,179044.0,273166.0,192693.0
2026-04-14 17:22:47.670234,251720,1609504861392549,2461362408,-1.186816,-0.109312,-0.046848,-21.06125,27.4225,-28.245,21.736002,27.536001,8.336,concentric,3,3.0,103750.0,280202.0,179044.0,273166.0,192693.0
2026-04-14 17:22:47.678909,251721,1609504861401462,2461371087,-1.235616,-0.10736,-0.152256,-22.741251,26.18,-32.26125,22.416,27.104002,8.152,concentric,3,3.0,103750.0,280202.0,179044.0,273166.0,192693.0
2026-04-14 17:22:47.694909,251722,1609504861415988,2461385962,-1.235616,-0.10736,-0.167872,-8.95125,25.52375,-32.69,22.416,27.104002,8.152,concentric,3,3.0,103750.0,280202.0,179044.0,273166.0,192693.0
2026-04-14 17:22:47.704050,251723,1609504861424936,2461394679,-1.198528,-0.03904,-0.167872,-0.3675,24.57875,-35.945,22.192001,27.064001,10.088,concentric,3,3.0,103750.0,280202.0,179044.0,273166.0,192693.0
2026-04-14 17:22:47.719049,251724,1609504861439411,2461409555,-1.245376,-0.072224,-0.0976,0.95375,24.5175,-36.4,22.544,26.736002,7.296001,concentric,3,3.0,103750.0,280202.0,179044.0,273166.0,192693.0
2026-04-14 17:22:47.729310,251725,1609504861448325,2461418244,-1.245376,-0.072224,-0.0976,-6.48375,26.25,-38.12375,22.544,26.736002,7.296001,concentric,3,3.0,103750.0,280202.0,179044.0,273166.0,192693.0
2026-04-14 17:22:47.790257,251736,1609504861457258,2461426978,-1.247328,-0.179584,-0.054656,-13.29125,28.83125,-38.1325,21.896002,26.936,7.856,concentric,3,3.0,106611.0,286334.0,181183.0,278412.0,195280.0
2026-04-14 17:22:47.792810,251737,1609504861471812,2461441859,-1.247328,-0.179584,-0.054656,-14.1225,30.17,-35.39375,21.896002,26.936,7.856,concentric,3,3.0,106611.0,286334.0,181183.0,278412.0,195280.0
2026-04-14 17:22:47.794843,251738,1609504861480777,2461450576,-1.225856,-0.050752,-0.046848,-7.00875,30.96625,-33.03125,20.92,26.840002,8.368,concentric,3,3.0,106611.0,286334.0,181183.0,278412.0,195280.0
2026-04-14 17:22:47.797597,251739,1609504861495278,2461465466,-1.225856,-0.050752,-0.046848,6.37,30.98375,-32.5675,20.92,26.840002,8.368,concentric,3,3.0,106611.0,286334.0,181183.0,278412.0,195280.0
2026-04-14 17:22:47.800217,251740,1609504861504218,2461474132,-1.23952,-0.035136,-0.244,5.11875,29.58375,-36.4175,20.416,26.656002,9.504001,concentric,3,3.0,106611.0,286334.0,181183.0,278412.0,195280.0
2026-04-14 17:22:47.802698,251741,1609504861518721,2461489013,-1.18096,-0.154208,0.05856,1.32125,29.49625,-35.4375,20.0,26.416,8.192,concentric,3,3.0,106611.0,286334.0,181183.0,278412.0,195280.0
2026-04-14 17:22:47.804915,251742,1609504861527747,2461497714,-1.18096,-0.154208,0.05856,-3.29875,30.397501,-35.37625,20.0,26.416,8.192,concentric,3,3.0,106611.0,286334.0,181183.0,278412.0,195280.0
2026-04-14 17:22:47.814763,251743,1609504861536712,2461506400,-1.18096,-0.154208,0.05856,-7.30625,33.11875,-31.255001,20.0,26.416,8.192,concentric,3,3.0,106611.0,286334.0,181183.0,278412.0,195280.0
2026-04-14 17:22:47.835149,251744,1609504861551196,2461521272,-1.16144,-0.119072,0.027328,-5.18875,38.482502,-24.675,20.560001,26.248001,7.2,concentric,3,3.0,106611.0,286334.0,181183.0,278412.0,195280.0
2026-04-14 17:22:47.859940,251755,1609504861560660,2461530239,-1.305888,-0.083936,-0.220576,-5.2675,43.26,-22.365,20.728,26.672,9.0,concentric,3,3.0,111213.0,287819.0,187542.0,279472.0,201443.0
2026-04-14 17:22:47.862439,251756,1609504861575370,2461545244,-1.305888,-0.083936,-0.220576,-8.645,46.62875,-23.49375,20.728,26.672,9.0,concentric,3,3.0,111213.0,287819.0,187542.0,279472.0,201443.0
2026-04-14 17:22:47.864847,251757,1609504861584340,2461553985,-1.196576,-0.085888,-0.17568,-12.04875,48.0725,-27.86,20.6,27.184002,9.160001,concentric,3,3.0,111213.0,287819.0,187542.0,279472.0,201443.0
2026-04-14 17:22:47.871245,251758,1609504861593297,2461562681,-1.196576,-0.085888,-0.17568,-9.21375,43.98625,-32.34875,20.6,27.184002,9.160001,concentric,3,3.0,111213.0,287819.0,187542.0,279472.0,201443.0
2026-04-14 17:22:47.886410,251759,1609504861607790,2461577549,-1.270752,-0.044896,-0.316224,-0.875,37.59,-31.99,20.384,28.088001,9.616,concentric,3,3.0,111213.0,287819.0,187542.0,279472.0,201443.0
2026-04-14 17:22:47.893739,251760,1609504861616698,2461586196,-1.270752,-0.044896,-0.316224,0.35,31.272501,-32.27,20.384,28.088001,9.616,concentric,3,3.0,111213.0,287819.0,187542.0,279472.0,201443.0
2026-04-14 17:22:47.908790,251761,1609504861631170,2461601085,-1.167296,-0.162016,-0.076128,-3.71,26.6175,-32.27875,19.720001,28.856,10.792001,concentric,3,3.0,111213.0,287819.0,187542.0,279472.0,201443.0
2026-04-14 17:22:47.938657,251762,1609504861640085,2461609766,-1.270752,-0.08784,-0.279136,-3.605,24.185,-33.38125,18.944,29.704,10.632001,concentric,3,3.0,111213.0,287819.0,187542.0,279472.0,201443.0
2026-04-14 17:22:47.941224,251763,1609504861654540,2461624648,-1.270752,-0.08784,-0.279136,5.87125,24.2025,-32.90875,18.944,29.704,10.632001,concentric,3,3.0,111213.0,287819.0,187542.0,279472.0,201443.0
2026-04-14 17:22:47.993722,251774,1609504861663532,2461633377,-1.155584,-0.021472,0.025376,8.96875,26.04875,-35.638752,19.52,30.36,10.688001,concentric,3,3.0,113203.0,290417.0,190111.0,281031.0,203964.0
2026-04-14 17:22:47.996272,251775,1609504861672493,2461642109,-1.155584,-0.021472,0.025376,4.3925,29.04125,-37.94,19.52,30.36,10.688001,concentric,3,3.0,113203.0,290417.0,190111.0,281031.0,203964.0
2026-04-14 17:22:47.998708,251776,1609504861687079,2461656977,-1.223904,-0.074176,-0.208864,2.51125,31.9025,-40.27625,19.272001,31.2,10.304001,concentric,3,3.0,113203.0,290417.0,190111.0,281031.0,203964.0
2026-04-14 17:22:48.001136,251777,1609504861695998,2461665658,-1.223904,-0.074176,-0.208864,1.19875,32.29625,-40.775,19.272001,31.2,10.304001,concentric,3,3.0,113203.0,290417.0,190111.0,281031.0,203964.0
2026-04-14 17:22:48.003734,251778,1609504861710518,2461680552,-1.069696,-0.218624,-0.150304,2.68625,31.255001,-38.815,19.344002,31.456001,9.88,concentric,3,3.0,113203.0,290417.0,190111.0,281031.0,203964.0
2026-04-14 17:22:48.006266,251779,1609504861719457,2461689224,-1.20048,-0.11712,-0.261568,4.4975,28.28,-37.9925,19.168001,31.952002,9.152,concentric,3,3.0,113203.0,290417.0,190111.0,281031.0,203964.0
2026-04-14 17:22:48.013137,251780,1609504861734058,2461704181,-1.20048,-0.11712,-0.261568,8.60125,22.25125,-37.61625,19.168001,31.952002,9.152,concentric,3,3.0,113203.0,290417.0,190111.0,281031.0,203964.0
2026-04-14 17:22:48.020991,251781,1609504861742982,2461712866,-1.169248,-0.00976,-0.316224,23.45875,18.01625,-36.32125,19.184,32.088,8.752001,concentric,3,3.0,113203.0,290417.0,190111.0,281031.0,203964.0
2026-04-14 17:22:48.031127,251782,1609504861751922,2461721554,-1.169248,-0.00976,-0.316224,26.59125,12.55625,-39.47125,19.184,32.088,8.752001,concentric,3,3.0,113203.0,290417.0,190111.0,281031.0,203964.0
2026-04-14 17:22:48.062214,251793,1609504861766621,2461736585,-1.104832,-0.13664,-0.220576,16.66,10.85,-39.3225,18.272001,31.928001,9.208,concentric,3,3.0,116215.0,292429.0,193915.0,283990.0,208006.0
2026-04-14 17:22:48.062334,251794,1609504861775660,2461745307,-1.104832,-0.13664,-0.220576,6.41375,16.42375,-42.35875,18.272001,31.928001,9.208,concentric,3,3.0,116215.0,292429.0,193915.0,283990.0,208006.0
2026-04-14 17:22:48.067626,251795,1609504861790247,2461760269,-1.067744,-0.298656,-0.130784,9.47625,18.75125,-44.835,18.104,32.232002,9.872001,concentric,3,3.0,116215.0,292429.0,193915.0,283990.0,208006.0
2026-04-14 17:22:48.078862,251796,1609504861799174,2461768927,-1.013088,-0.124928,-0.257664,25.61125,22.9075,-35.00875,18.104,32.232002,9.192,concentric,3,3.0,116215.0,292429.0,193915.0,283990.0,208006.0
2026-04-14 17:22:48.092697,251797,1609504861813650,2461783788,-1.013088,-0.124928,-0.257664,35.49875,24.5175,-31.605,17.936,32.248,9.192,concentric,3,3.0,116215.0,292429.0,193915.0,283990.0,208006.0
