pc_time,serial_num,sensor_ts,host_ts,ax,ay,az,gx,gy,gz,mx,my,mz,phase,rpe,weight_kg,ppg_a,ppg_b,ppg_c,ppg_d,ppg_e
2026-04-14 17:22:29.524652,248303,1609504843247206,2443217477,-1.052128,-0.119072,-0.294752,13.43125,39.52375,-27.3875,19.456001,29.664001,12.608001,concentric,3,3.0,122263.0,301857.0,194367.0,285402.0,210376.0
2026-04-14 17:22:29.607959,248314,1609504843256138,2443226143,-1.052128,-0.119072,-0.294752,9.292501,36.14625,-31.85875,19.456001,29.664001,12.608001,eccentric,3,3.0,121446.0,309596.0,193450.0,290414.0,209432.0
2026-04-14 17:22:29.610051,248315,1609504843270665,2443239056,-1.007232,-0.1952,-0.275232,13.02,29.70625,-34.7725,19.736,29.152002,11.72,eccentric,3,3.0,121446.0,309596.0,193450.0,290414.0,209432.0
2026-04-14 17:22:29.623185,248316,1609504843279975,2443249805,-1.007232,-0.1952,-0.275232,16.31,23.82625,-36.96,19.736,29.152002,11.72,eccentric,3,3.0,121446.0,309596.0,193450.0,290414.0,209432.0
2026-04-14 17:22:29.625221,248317,1609504843288912,2443258471,-1.057984,-0.244,-0.228384,20.06375,21.21875,-35.035,18.736,29.544,12.744,eccentric,3,3.0,121446.0,309596.0,193450.0,290414.0,209432.0
2026-04-14 17:22:29.626410,248318,1609504843303398,2443273327,-0.972096,-0.267424,-0.210816,14.945,20.8425,-29.91625,18.264,29.088001,11.896001,eccentric,3,3.0,121446.0,309596.0,193450.0,290414.0,209432.0
2026-04-14 17:22:29.627776,248319,1609504843312293,2443281982,-0.972096,-0.267424,-0.210816,6.195,22.741251,-25.99625,18.264,29.088001,11.896001,eccentric,3,3.0,121446.0,309596.0,193450.0,290414.0,209432.0
2026-04-14 17:22:29.628217,248320,1609504843326820,2443296944,-1.038464,-0.105408,-0.310368,7.95375,24.64875,-23.205,17.704,29.584002,13.120001,eccentric,3,3.0,121446.0,309596.0,193450.0,290414.0,209432.0
2026-04-14 17:22:29.628288,248321,1609504843335739,2443305631,-1.038464,-0.105408,-0.310368,10.4475,24.43,-25.0075,17.704,29.584002,13.120001,eccentric,3,3.0,121446.0,309596.0,193450.0,290414.0,209432.0
2026-04-14 17:22:29.628356,248322,1609504843344674,2443314309,-0.894016,-0.275232,-0.171776,4.05125,23.1875,-28.91875,17.176,29.928001,12.304001,eccentric,3,3.0,121446.0,309596.0,193450.0,290414.0,209432.0
2026-04-14 17:22:29.663547,248333,1609504843359258,2443329282,-0.894016,-0.275232,-0.171776,1.5225,22.68,-29.75875,17.176,29.928001,12.304001,eccentric,3,3.0,121525.0,313264.0,193934.0,293358.0,209919.0
2026-04-14 17:22:29.666155,248334,1609504843368250,2443338086,-0.866688,-0.230336,-0.247904,-1.7325,23.65125,-29.303751,18.624,29.288002,10.744,eccentric,3,3.0,121525.0,313264.0,193934.0,293358.0,209919.0
2026-04-14 17:22:29.668579,248335,1609504843382758,2443352984,-0.90768,-0.265472,-0.277184,0.035,27.16875,-23.63375,18.504002,29.016,11.64,eccentric,3,3.0,121525.0,313264.0,193934.0,293358.0,209919.0
2026-04-14 17:22:29.671009,248336,1609504843391762,2443361681,-0.90768,-0.265472,-0.277184,-2.05625,29.18125,-24.0625,18.504002,29.016,11.64,eccentric,3,3.0,121525.0,313264.0,193934.0,293358.0,209919.0
2026-04-14 17:22:29.682238,248337,1609504843406248,2443374605,-0.788608,-0.288896,-0.244,-4.45375,26.57375,-25.235,17.992,29.720001,11.768001,eccentric,3,3.0,121525.0,313264.0,193934.0,293358.0,209919.0
2026-04-14 17:22:29.697789,248338,1609504843415410,2443385354,-0.788608,-0.288896,-0.244,1.12875,22.225,-26.915,17.992,29.720001,11.768001,eccentric,3,3.0,121525.0,313264.0,193934.0,293358.0,209919.0
2026-04-14 17:22:29.702198,248339,1609504843424337,2443394030,-0.75152,-0.265472,-0.134688,-1.74125,18.445,-27.965,17.496,30.344002,11.336,eccentric,3,3.0,121525.0,313264.0,193934.0,293358.0,209919.0
2026-04-14 17:22:29.717221,248340,1609504843438802,2443408894,-0.75152,-0.265472,-0.134688,-8.7675,17.84125,-27.25625,17.496,30.344002,11.336,eccentric,3,3.0,121525.0,313264.0,193934.0,293358.0,209919.0
2026-04-14 17:22:29.724744,248341,1609504843447726,2443417635,-0.825696,-0.314272,-0.335744,-16.0475,18.1125,-28.0525,16.688002,29.984001,10.224001,eccentric,3,3.0,121525.0,313264.0,193934.0,293358.0,209919.0
2026-04-14 17:22:29.762226,248352,1609504843462419,2443432592,-0.825696,-0.314272,-0.460672,-14.28,19.57375,-27.57125,16.688002,29.984001,10.224001,eccentric,3,3.0,122413.0,315427.0,193669.0,294831.0,209865.0
2026-04-14 17:22:29.764527,248353,1609504843471444,2443441301,-0.784704,-0.333792,-0.464576,-9.98375,17.99,-28.32375,16.536001,30.088001,10.088,eccentric,3,3.0,122413.0,315427.0,193669.0,294831.0,209865.0
2026-04-14 17:22:29.767257,248354,1609504843480480,2443450075,-0.784704,-0.333792,-0.464576,-2.87875,14.18375,-25.66375,16.536001,30.088001,10.088,eccentric,3,3.0,122413.0,315427.0,193669.0,294831.0,209865.0
2026-04-14 17:22:29.772258,248355,1609504843495046,2443465029,-0.706624,-0.314272,-0.349408,-3.87625,12.1275,-29.4525,17.096,30.128002,10.088,eccentric,3,3.0,122413.0,315427.0,193669.0,294831.0,209865.0
2026-04-14 17:22:29.780994,248356,1609504843503971,2443473718,-0.659776,-0.2928,-0.101504,-10.22875,12.95875,-31.7275,17.464,30.816002,9.416,eccentric,3,3.0,122413.0,315427.0,193669.0,294831.0,209865.0
2026-04-14 17:22:29.795888,248357,1609504843518429,2443488583,-0.659776,-0.2928,-0.101504,-13.667501,16.14375,-33.215,17.464,30.816002,9.416,eccentric,3,3.0,122413.0,315427.0,193669.0,294831.0,209865.0
2026-04-14 17:22:29.807210,248358,1609504843527356,2443497289,-0.66368,-0.398208,-0.181536,-17.5,19.11,-35.18375,16.144001,30.856,10.048,eccentric,3,3.0,122413.0,315427.0,193669.0,294831.0,209865.0
2026-04-14 17:22:29.818571,248359,1609504843541850,2443512205,-0.66368,-0.398208,-0.181536,-14.7,21.1225,-34.405,16.144001,30.856,10.048,eccentric,3,3.0,122413.0,315427.0,193669.0,294831.0,209865.0
2026-04-14 17:22:29.851460,248360,1609504843550758,2443520939,-0.696864,-0.304512,-0.357216,-8.015,21.37625,-34.30875,15.984001,31.04,11.336,eccentric,3,3.0,122413.0,315427.0,193669.0,294831.0,209865.0
2026-04-14 17:22:29.881443,248371,1609504843560132,2443529769,-0.696864,-0.304512,-0.357216,-4.4975,19.53,-32.61125,15.984001,31.04,11.336,eccentric,3,3.0,120552.0,314749.0,190702.0,293791.0,206315.0
2026-04-14 17:22:29.883434,248372,1609504843574669,2443544664,-0.710528,-0.236192,-0.232288,-5.25875,19.215,-33.425,15.384001,31.400002,10.496,eccentric,3,3.0,120552.0,314749.0,190702.0,293791.0,206315.0
2026-04-14 17:22:29.886003,248373,1609504843583718,2443553512,-0.757376,-0.306464,-0.32208,-6.22125,20.92125,-34.4225,15.384001,31.400002,8.488001,eccentric,3,3.0,120552.0,314749.0,190702.0,293791.0,206315.0
2026-04-14 17:22:29.888475,248374,1609504843598218,2443568451,-0.757376,-0.306464,-0.32208,-10.33375,20.50125,-35.420002,15.032001,31.744001,8.488001,eccentric,3,3.0,120552.0,314749.0,190702.0,293791.0,206315.0
2026-04-14 17:22:29.891334,248375,1609504843607165,2443577130,-0.597312,-0.335744,-0.130784,-6.46625,20.09,-33.4775,14.864,31.336002,10.112,eccentric,3,3.0,120552.0,314749.0,190702.0,293791.0,206315.0
2026-04-14 17:22:29.898458,248376,1609504843621637,2443590052,-0.597312,-0.335744,-0.130784,-7.07,19.74875,-32.71625,14.864,31.336002,10.112,eccentric,3,3.0,120552.0,314749.0,190702.0,293791.0,206315.0
2026-04-14 17:22:29.931421,248377,1609504843630977,2443600805,-0.628544,-0.242048,-0.21472,-9.19625,17.7975,-30.4325,15.232,31.552002,9.8,eccentric,3,3.0,120552.0,314749.0,190702.0,293791.0,206315.0
2026-04-14 17:22:29.956437,248378,1609504843639900,2443609475,-0.628544,-0.242048,-0.21472,-8.33,15.8025,-29.98625,15.232,31.552002,9.8,eccentric,3,3.0,120552.0,314749.0,190702.0,293791.0,206315.0
2026-04-14 17:22:29.973538,248379,1609504843654387,2443624318,-0.694912,-0.247904,-0.327936,-14.175,15.015,-29.65375,14.312,31.680002,8.8,eccentric,3,3.0,120552.0,314749.0,190702.0,293791.0,206315.0
2026-04-14 17:22:30.001340,248390,1609504843663439,2443633041,-0.694912,-0.247904,-0.327936,-17.01,12.67875,-28.7175,14.312,31.680002,8.8,eccentric,3,3.0,123677.0,313999.0,195715.0,293427.0,210931.0
2026-04-14 17:22:30.003845,248391,1609504843677952,2443647984,-0.718336,-0.2928,-0.30256,-12.145,6.8425,-25.8125,14.928,31.752,10.208,eccentric,3,3.0,123677.0,313999.0,195715.0,293427.0,210931.0
2026-04-14 17:22:30.006413,248392,1609504843687054,2443656669,-0.679296,-0.284992,-0.238144,-5.88,0.7,-21.23625,15.120001,31.912,8.408,eccentric,3,3.0,123677.0,313999.0,195715.0,293427.0,210931.0
2026-04-14 17:22:30.008895,248393,1609504843695953,2443665341,-0.679296,-0.284992,-0.238144,-4.47125,-2.6075,-15.7325,15.120001,31.912,8.408,eccentric,3,3.0,123677.0,313999.0,195715.0,293427.0,210931.0
2026-04-14 17:22:30.010926,248394,1609504843710448,2443680280,-0.6832,-0.238144,-0.310368,-9.19625,-3.50875,-11.41875,15.080001,32.192,8.656,eccentric,3,3.0,123677.0,313999.0,195715.0,293427.0,210931.0
2026-04-14 17:22:30.013957,248395,1609504843719508,2443689017,-0.6832,-0.238144,-0.310368,-14.56,-4.41,-10.07125,15.080001,32.192,8.656,eccentric,3,3.0,123677.0,313999.0,195715.0,293427.0,210931.0
2026-04-14 17:22:30.016405,248396,1609504843734023,2443703932,-0.743712,-0.187392,-0.181536,-16.205,-7.35875,-8.02375,14.968,32.32,8.072001,eccentric,3,3.0,123677.0,313999.0,195715.0,293427.0,210931.0
2026-04-14 17:22:30.020153,248397,1609504843742980,2443712656,-0.743712,-0.187392,-0.181536,-15.88125,-11.97,-4.795,14.968,32.32,8.072001,eccentric,3,3.0,123677.0,313999.0,195715.0,293427.0,210931.0
2026-04-14 17:22:30.036406,248398,1609504843757458,2443727555,-0.735904,-0.286944,-0.327936,-15.846251,-16.14375,1.21625,14.864,32.104,8.472,eccentric,3,3.0,123677.0,313999.0,195715.0,293427.0,210931.0
2026-04-14 17:22:30.063555,248409,1609504843766427,2443736390,-0.776896,-0.169824,-0.171776,-14.00875,-18.48,10.5,15.224001,32.288002,7.496,eccentric,3,3.0,122411.0,312335.0,194729.0,291864.0,209653.0
2026-04-14 17:22:30.066193,248410,1609504843775431,2443745138,-0.776896,-0.169824,-0.171776,-18.4275,-18.4975,17.82375,15.224001,32.288002,7.496,eccentric,3,3.0,122411.0,312335.0,194729.0,291864.0,209653.0
2026-04-14 17:22:30.068599,248411,1609504843789941,2443760150,-0.730048,-0.173728,-0.269376,-21.525,-18.06,22.65375,15.568001,32.4,8.56,eccentric,3,3.0,122411.0,312335.0,194729.0,291864.0,209653.0
2026-04-14 17:22:30.076195,248412,1609504843798848,2443768834,-0.730048,-0.173728,-0.269376,-23.24,-19.285,22.6275,15.568001,32.4,8.56,eccentric,3,3.0,122411.0,312335.0,194729.0,291864.0,209653.0
2026-04-14 17:22:30.089669,248413,1609504843813336,2443781684,-0.767136,-0.212768,-0.199104,-21.09625,-23.1175,24.053751,15.528001,32.856003,9.120001,eccentric,3,3.0,122411.0,312335.0,194729.0,291864.0,209653.0
2026-04-14 17:22:30.101203,248414,1609504843822549,2443792464,-0.767136,-0.212768,-0.199104,-21.28,-27.93,25.8825,15.528001,32.856003,9.120001,eccentric,3,3.0,122411.0,312335.0,194729.0,291864.0,209653.0
2026-04-14 17:22:30.108589,248415,1609504843831475,2443801149,-0.806176,-0.251808,-0.101504,-23.765,-30.817501,33.4075,15.52,32.408,8.744,eccentric,3,3.0,122411.0,312335.0,194729.0,291864.0,209653.0
2026-04-14 17:22:30.123608,248416,1609504843845998,2443816023,-0.9272,-0.07808,-0.406016,-25.06875,-28.9625,42.63,15.992001,32.232002,8.096001,eccentric,3,3.0,122411.0,312335.0,194729.0,291864.0,209653.0
2026-04-14 17:22:30.132298,248417,1609504843854922,2443824696,-0.9272,-0.07808,-0.406016,-26.83625,-28.65625,47.97625,15.992001,32.232002,8.096001,eccentric,3,3.0,122411.0,312335.0,194729.0,291864.0,209653.0
2026-04-14 17:22:30.164379,248428,1609504843870128,2443839736,-0.853024,-0.18544,-0.249856,-25.82125,-32.55,46.48,17.032001,32.528,7.808001,eccentric,3,3.0,120206.0,309213.0,191345.0,288405.0,207266.0
2026-04-14 17:22:30.164620,248429,1609504843879057,2443848434,-0.853024,-0.18544,-0.249856,-22.79375,-39.445,44.17875,17.032001,32.528,7.808001,eccentric,3,3.0,120206.0,309213.0,191345.0,288405.0,207266.0
2026-04-14 17:22:30.169365,248430,1609504843887955,2443857126,-0.884256,-0.259616,-0.076128,-23.05625,-45.91125,45.91125,17.328001,31.912,8.136001,eccentric,3,3.0,120206.0,309213.0,191345.0,288405.0,207266.0
2026-04-14 17:22:30.180973,248431,1609504843902470,2443871989,-0.884256,-0.259616,-0.076128,-21.60375,-46.97875,53.725,17.328001,31.912,8.136001,eccentric,3,3.0,120206.0,309213.0,191345.0,288405.0,207266.0
2026-04-14 17:22:30.187223,248432,1609504843911413,2443880721,-0.890112,-0.10736,-0.212768,-18.375,-45.78875,59.22,18.144001,32.16,8.456,eccentric,3,3.0,120206.0,309213.0,191345.0,288405.0,207266.0
2026-04-14 17:22:30.203586,248433,1609504843925909,2443895651,-0.954528,-0.193248,-0.363072,-17.9725,-46.24375,60.9175,18.144001,32.16,8.664001,eccentric,3,3.0,120206.0,309213.0,191345.0,288405.0,207266.0
2026-04-14 17:22:30.212215,248434,1609504843934843,2443904336,-0.954528,-0.193248,-0.363072,-17.675,-46.34,59.59625,18.328001,31.888002,8.664001,eccentric,3,3.0,120206.0,309213.0,191345.0,288405.0,207266.0
2026-04-14 17:22:30.227391,248435,1609504843949295,2443919189,-1.016992,-0.121024,-0.284992,-16.37125,-48.326252,59.010002,19.176,31.256002,8.576,eccentric,3,3.0,120206.0,309213.0,191345.0,288405.0,207266.0
2026-04-14 17:22:30.234871,248436,1609504843958221,2443927900,-1.016992,-0.121024,-0.284992,-13.92125,-49.857502,59.07125,19.176,31.256002,8.576,eccentric,3,3.0,120206.0,309213.0,191345.0,288405.0,207266.0
2026-04-14 17:22:30.263359,248447,1609504843967300,2443936644,-0.962336,-0.23424,-0.16592,-20.34375,-49.81375,59.3775,19.464,31.104002,8.88,eccentric,3,3.0,118671.0,307085.0,189088.0,286297.0,205445.0
2026-04-14 17:22:30.265909,248448,1609504843981851,2443951532,-0.962336,-0.23424,-0.16592,-23.87875,-46.138752,64.65375,19.464,31.104002,8.88,eccentric,3,3.0,118671.0,307085.0,189088.0,286297.0,205445.0
2026-04-14 17:22:30.270203,248449,1609504843990781,2443960296,-1.0248,-0.101504,-0.212768,-21.4025,-41.72875,67.585,19.584002,30.976002,9.688001,eccentric,3,3.0,118671.0,307085.0,189088.0,286297.0,205445.0
2026-04-14 17:22:30.297643,248450,1609504844005267,2443975182,-1.0248,-0.101504,-0.212768,-16.68625,-40.81875,67.34875,19.584002,30.976002,9.688001,eccentric,3,3.0,118671.0,307085.0,189088.0,286297.0,205445.0
2026-04-14 17:22:30.299704,248451,1609504844014178,2443983847,-1.110688,-0.111264,-0.491904,-13.895,-44.388752,63.13125,20.800001,30.992,8.168,eccentric,3,3.0,118671.0,307085.0,189088.0,286297.0,205445.0
2026-04-14 17:22:30.327398,248452,1609504844028667,2443998771,-1.085312,-0.163968,-0.238144,-13.02875,-48.0375,61.495,20.344002,30.600002,10.456,eccentric,3,3.0,118671.0,307085.0,189088.0,286297.0,205445.0
2026-04-14 17:22:30.337329,248453,1609504844037550,2444007416,-1.085312,-0.163968,-0.238144,-15.95125,-47.52125,61.27625,20.344002,30.600002,10.456,eccentric,3,3.0,118671.0,307085.0,189088.0,286297.0,205445.0
2026-04-14 17:22:30.340158,248454,1609504844046456,2444016111,-1.085312,-0.142496,-0.388448,-21.70875,-42.665,61.87125,20.344002,30.600002,10.456,eccentric,3,3.0,118671.0,307085.0,189088.0,286297.0,205445.0
2026-04-14 17:22:30.368268,248465,1609504844060925,2444030955,-1.124352,-0.142496,-0.388448,-23.4675,-37.73875,61.416252,20.872002,30.392002,11.144,eccentric,3,3.0,118866.0,304818.0,189066.0,284025.0,205296.0
2026-04-14 17:22:30.369513,248466,1609504844069922,2444039723,-1.110688,-0.081984,-0.187392,-20.055,-36.25125,61.95875,21.112001,29.568,11.192,eccentric,3,3.0,118866.0,304818.0,189066.0,284025.0,205296.0
2026-04-14 17:22:30.372244,248467,1609504844084427,2444054664,-1.110688,-0.081984,-0.187392,-17.50875,-38.08,59.7975,21.112001,29.568,11.192,eccentric,3,3.0,118866.0,304818.0,189066.0,284025.0,205296.0
2026-04-14 17:22:30.374679,248468,1609504844093479,2444063350,-1.153632,-0.001952,-0.144448,-14.0175,-42.07875,56.76125,21.648,29.448002,12.272,eccentric,3,3.0,118866.0,304818.0,189066.0,284025.0,205296.0
2026-04-14 17:22:30.386047,248469,1609504844107945,2444078162,-1.09312,-0.167872,-0.28304,-10.12375,-46.48875,53.94375,22.192001,28.592001,11.824,eccentric,3,3.0,118866.0,304818.0,189066.0,284025.0,205296.0
2026-04-14 17:22:30.394770,248470,1609504844116854,2444086867,-1.09312,-0.167872,-0.28304,-10.77125,-48.97375,49.56875,22.192001,28.592001,11.824,eccentric,3,3.0,118866.0,304818.0,189066.0,284025.0,205296.0
2026-04-14 17:22:30.403441,248471,1609504844125760,2444095545,-1.09312,-0.167872,-0.28304,-12.53,-47.25,49.56875,22.192001,28.592001,11.824,eccentric,3,3.0,118866.0,304818.0,189066.0,284025.0,205296.0
2026-04-14 17:22:30.419769,248472,1609504844140215,2444110419,-1.21024,-0.109312,-0.206912,-13.08125,-44.7125,54.67875,22.000002,28.264002,11.688001,eccentric,3,3.0,118866.0,304818.0,189066.0,284025.0,205296.0
2026-04-14 17:22:30.426118,248473,1609504844149122,2444119121,-1.30784,0.02928,-0.230336,-11.97,-40.451252,58.2925,22.080002,27.112001,10.976001,eccentric,3,3.0,118866.0,304818.0,189066.0,284025.0,205296.0
2026-04-14 17:22:30.462245,248484,1609504844163727,2444134021,-1.30784,0.02928,-0.230336,-11.41,-37.7125,59.64,22.080002,27.112001,10.976001,eccentric,3,3.0,119461.0,300814.0,189931.0,280527.0,206805.0
2026-04-14 17:22:30.489821,248485,1609504844172717,2444142777,-1.167296,0.005856,-0.460672,-12.64375,-38.29,51.89625,21.320002,26.848001,12.896001,eccentric,3,3.0,119461.0,300814.0,189931.0,280527.0,206805.0
2026-04-14 17:22:30.492370,248486,1609504844187242,2444155665,-1.167296,-0.089792,-0.183488,-7.58625,-42.46375,45.66625,21.320002,26.848001,12.896001,eccentric,3,3.0,119461.0,300814.0,189931.0,280527.0,206805.0
2026-04-14 17:22:30.494868,248487,1609504844196507,2444166507,-1.169248,-0.089792,-0.183488,2.23125,-47.04875,43.6975,21.720001,26.184002,12.936001,eccentric,3,3.0,119461.0,300814.0,189931.0,280527.0,206805.0
2026-04-14 17:22:30.499733,248488,1609504844205418,2444175164,-1.169248,-0.089792,-0.183488,-6.78125,-44.58125,39.76,21.720001,26.184002,12.936001,eccentric,3,3.0,119461.0,300814.0,189931.0,280527.0,206805.0
2026-04-14 17:22:30.502384,248489,1609504844219876,2444190103,-1.159488,-0.007808,0.06832,-13.36125,-37.905,45.19375,21.776001,25.696001,12.416,eccentric,3,3.0,119461.0,300814.0,189931.0,280527.0,206805.0
2026-04-14 17:22:30.507418,248490,1609504844228792,2444198807,-1.192672,-0.03904,-0.171776,-8.82875,-30.7825,50.015,22.112001,24.784,12.232,eccentric,3,3.0,119461.0,300814.0,189931.0,280527.0,206805.0
2026-04-14 17:22:30.518610,248491,1609504844243310,2444211704,-1.192672,-0.03904,-0.171776,-12.9675,-27.29125,46.73375,22.112001,24.784,12.232,eccentric,3,3.0,119461.0,300814.0,189931.0,280527.0,206805.0
2026-04-14 17:22:30.529855,248492,1609504844252502,2444222436,-1.270752,0.072224,-0.306464,-13.2825,-28.56,45.94625,22.416,24.216002,11.752001,eccentric,3,3.0,119461.0,300814.0,189931.0,280527.0,206805.0
2026-04-14 17:22:30.566184,248503,1609504844267151,2444235653,-1.270752,0.072224,-0.306464,-2.07375,-31.0625,44.31,22.416,24.216002,11.752001,eccentric,3,3.0,119845.0,296776.0,190743.0,277561.0,207335.0
2026-04-14 17:22:30.568841,248504,1609504844276459,2444246434,-1.149728,0.101504,-0.001952,2.72125,-32.85625,40.92375,22.304,24.032001,12.976001,eccentric,3,3.0,119845.0,296776.0,190743.0,277561.0,207335.0
2026-04-14 17:22:30.570995,248505,1609504844285374,2444255169,-1.149728,0.101504,-0.001952,-4.2175,-30.94875,36.225,22.304,24.032001,12.976001,eccentric,3,3.0,119845.0,296776.0,190743.0,277561.0,207335.0
2026-04-14 17:22:30.576879,248506,1609504844299880,2444270158,-1.179008,0.00976,0.095648,-9.765,-28.65625,34.37875,23.824001,23.864,10.312,eccentric,3,3.0,119845.0,296776.0,190743.0,277561.0,207335.0
2026-04-14 17:22:30.587165,248507,1609504844308780,2444278831,-1.257088,-0.003904,-0.244,-4.8825,-28.0875,33.90625,23.984001,23.728,10.360001,eccentric,3,3.0,119845.0,296776.0,190743.0,277561.0,207335.0
2026-04-14 17:22:30.605047,248508,1609504844323261,2444291689,-1.257088,-0.003904,-0.244,-1.40875,-27.22125,30.380001,23.984001,23.728,10.360001,eccentric,3,3.0,119845.0,296776.0,190743.0,277561.0,207335.0
2026-04-14 17:22:30.611405,248509,1609504844332512,2444302442,-1.206336,0.023424,-0.021472,0.60375,-28.02625,31.82375,23.432001,23.776001,9.752001,eccentric,3,3.0,119845.0,296776.0,190743.0,277561.0,207335.0
2026-04-14 17:22:30.618586,248510,1609504844341428,2444311126,-1.206336,0.023424,-0.021472,6.90375,-29.960001,36.9075,23.432001,23.776001,9.752001,eccentric,3,3.0,119845.0,296776.0,190743.0,277561.0,207335.0
2026-04-14 17:22:30.634179,248511,1609504844355906,2444326052,-1.233664,0.070272,-0.103456,8.00625,-29.33875,37.70375,23.064001,24.096,11.6,eccentric,3,3.0,119845.0,296776.0,190743.0,277561.0,207335.0
2026-04-14 17:22:30.717253,248522,1609504844364919,2444334799,-1.233664,0.070272,-0.103456,2.87875,-26.69625,36.5575,23.064001,24.096,11.6,concentric,3,3.0,117035.0,292351.0,188218.0,274869.0,204512.0
2026-04-14 17:22:30.720168,248523,1609504844379437,2444349738,-1.214144,0.12688,0.05856,-0.30625,-25.7075,35.48125,24.304,23.776001,10.56,concentric,3,3.0,117035.0,292351.0,188218.0,274869.0,204512.0
2026-04-14 17:22:30.722697,248524,1609504844388342,2444358403,-1.214144,0.12688,-0.081984,-0.7875,-26.18875,31.78875,24.304,23.776001,10.56,concentric,3,3.0,117035.0,292351.0,188218.0,274869.0,204512.0
2026-04-14 17:22:30.724767,248525,1609504844402811,2444371215,-1.130208,-0.02928,-0.081984,-1.81125,-23.82625,26.6525,24.696001,23.496,9.976001,concentric,3,3.0,117035.0,292351.0,188218.0,274869.0,204512.0
2026-04-14 17:22:30.727655,248526,1609504844412032,2444381930,-1.130208,0.050752,0.03904,-3.42125,-24.45625,23.4325,24.528002,23.976002,11.912001,concentric,3,3.0,117035.0,292351.0,188218.0,274869.0,204512.0
2026-04-14 17:22:30.730157,248527,1609504844421011,2444390666,-1.130208,0.050752,0.03904,6.86,-24.36875,25.235,24.528002,23.976002,11.912001,concentric,3,3.0,117035.0,292351.0,188218.0,274869.0,204512.0
2026-04-14 17:22:30.746311,248528,1609504844435518,2444405616,-1.204384,0.121024,-0.177632,12.4075,-24.15875,20.9825,24.080002,24.088001,11.792001,concentric,3,3.0,117035.0,292351.0,188218.0,274869.0,204512.0
2026-04-14 17:22:30.748289,248529,1609504844444579,2444414362,-1.204384,0.121024,-0.177632,12.1275,-24.98125,16.37125,24.080002,24.088001,11.792001,concentric,3,3.0,117035.0,292351.0,188218.0,274869.0,204512.0
2026-04-14 17:22:30.751365,248530,1609504844459112,2444429244,-1.167296,-0.003904,-0.13664,8.60125,-25.235,12.78375,23.672,24.104002,12.048,concentric,3,3.0,117035.0,292351.0,188218.0,274869.0,204512.0
2026-04-14 17:22:30.778677,248541,1609504844468141,2444437993,-1.167296,-0.003904,-0.13664,0.62125,-24.15875,7.18375,23.672,24.104002,12.048,concentric,3,3.0,111889.0,285322.0,182042.0,271645.0,198042.0
2026-04-14 17:22:30.780811,248542,1609504844477107,2444446719,-1.245376,0.064416,-0.115168,-3.64875,-24.03625,4.4625,24.576,23.752,10.576,concentric,3,3.0,111889.0,285322.0,182042.0,271645.0,198042.0
2026-04-14 17:22:30.783859,248543,1609504844491581,2444461609,-1.143872,-0.00976,0.062464,4.40125,-20.23875,3.68375,24.864,24.176,11.240001,concentric,3,3.0,111889.0,285322.0,182042.0,271645.0,198042.0
2026-04-14 17:22:30.786322,248544,1609504844500519,2444470339,-1.143872,-0.00976,0.062464,4.1825,-19.460001,-0.67375,24.864,24.176,11.240001,concentric,3,3.0,111889.0,285322.0,182042.0,271645.0,198042.0
2026-04-14 17:22:30.792566,248545,1609504844515033,2444485279,-1.130208,-0.015616,0.064416,0.98875,-18.55,0.28,24.872002,23.880001,11.384001,concentric,3,3.0,111889.0,285322.0,182042.0,271645.0,198042.0
2026-04-14 17:22:30.801346,248546,1609504844523977,2444493963,-1.130208,-0.015616,0.064416,1.53125,-16.8,-0.65625,24.872002,23.880001,11.384001,concentric,3,3.0,111889.0,285322.0,182042.0,271645.0,198042.0
2026-04-14 17:22:30.814675,248547,1609504844538455,2444506805,-1.136064,0.040992,0.089792,4.64625,-16.6425,-4.68125,23.704,24.184002,11.424001,concentric,3,3.0,111889.0,285322.0,182042.0,271645.0,198042.0
2026-04-14 17:22:30.826413,248548,1609504844547603,2444517538,-1.136064,0.040992,0.089792,10.325,-16.6425,-5.845,23.704,24.184002,11.424001,concentric,3,3.0,111889.0,285322.0,182042.0,271645.0,198042.0
2026-04-14 17:22:30.834691,248549,1609504844556518,2444526206,-1.235616,0.095648,-0.003904,9.89625,-16.7825,-9.135,24.12,24.512001,11.832001,concentric,3,3.0,111889.0,285322.0,182042.0,271645.0,198042.0
2026-04-14 17:22:30.864658,248560,1609504844571124,2444539465,-1.260992,-0.021472,-0.081984,4.2175,-16.63375,-12.8625,23.112001,24.2,13.128,concentric,3,3.0,95076.0,268607.0,163278.0,258346.0,177615.0
2026-04-14 17:22:30.867150,248561,1609504844580335,2444550287,-1.260992,-0.021472,-0.081984,-3.14125,-16.5025,-17.07125,23.112001,24.2,13.128,concentric,3,3.0,95076.0,268607.0,163278.0,258346.0,177615.0
2026-04-14 17:22:30.872610,248562,1609504844594841,2444563204,-1.182912,-0.16592,-0.21472,-10.0975,-15.88125,-17.89375,23.272001,25.056002,12.976001,concentric,3,3.0,95076.0,268607.0,163278.0,258346.0,177615.0
2026-04-14 17:22:30.881271,248563,1609504844604188,2444573939,-1.182912,-0.16592,-0.21472,-12.15375,-15.4,-13.99125,23.272001,25.056002,12.976001,concentric,3,3.0,95076.0,268607.0,163278.0,258346.0,177615.0
2026-04-14 17:22:30.891422,248564,1609504844613117,2444582613,-1.19072,-0.091744,0.076128,-5.705,-15.96,-7.60375,23.288002,25.248001,13.176001,concentric,3,3.0,95076.0,268607.0,163278.0,258346.0,177615.0
2026-04-14 17:22:30.905156,248565,1609504844627571,2444597544,-1.19072,-0.091744,0.076128,2.38,-15.9775,-0.27125,23.288002,25.248001,13.176001,concentric,3,3.0,95076.0,268607.0,163278.0,258346.0,177615.0
2026-04-14 17:22:30.919710,248566,1609504844636488,2444606220,-1.208288,0.003904,0.00976,7.20125,-14.4725,3.15,23.640001,24.464,12.032001,concentric,3,3.0,95076.0,268607.0,163278.0,258346.0,177615.0
2026-04-14 17:22:30.928288,248567,1609504844651047,2444621031,-1.089216,0.00976,0.121024,7.20125,-13.195,3.50875,23.904001,24.76,12.144001,concentric,3,3.0,95076.0,268607.0,163278.0,258346.0,177615.0
2026-04-14 17:22:30.938754,248568,1609504844659971,2444629711,-1.089216,0.00976,0.121024,2.94875,-11.8125,2.44125,23.904001,24.76,12.144001,concentric,3,3.0,95076.0,268607.0,163278.0,258346.0,177615.0
2026-04-14 17:22:30.965982,248579,1609504844674569,2444644671,-1.208288,-0.02928,-0.033184,-1.82875,-10.4475,0.1925,22.496,25.016,13.248001,concentric,3,3.0,83631.0,259454.0,149698.0,250290.0,163494.0
2026-04-14 17:22:30.968427,248580,1609504844683510,2444653467,-1.208288,-0.02928,-0.033184,-6.22125,-9.33625,-1.74125,22.496,25.016,13.248001,concentric,3,3.0,83631.0,259454.0,149698.0,250290.0,163494.0
2026-04-14 17:22:30.971024,248581,1609504844692469,2444662178,-1.081408,-0.0976,-0.02928,-9.3625,-8.89,-1.12,22.632002,25.528002,14.040001,concentric,3,3.0,83631.0,259454.0,149698.0,250290.0,163494.0
2026-04-14 17:22:30.985171,248582,1609504844707060,2444677073,-1.081408,-0.0976,-0.02928,-9.94,-10.12375,-1.995,22.632002,25.528002,14.040001,concentric,3,3.0,83631.0,259454.0,149698.0,250290.0,163494.0
2026-04-14 17:22:30.994770,248583,1609504844716031,2444685740,-1.130208,-0.007808,0.134688,-3.70125,-11.61125,-2.0125,23.288002,24.944,12.328001,concentric,3,3.0,83631.0,259454.0,149698.0,250290.0,163494.0
2026-04-14 17:22:31.007997,248584,1609504844730507,2444700657,-1.130208,-0.007808,0.025376,3.43,-12.59125,-1.5225,23.288002,24.944,12.328001,concentric,3,3.0,83631.0,259454.0,149698.0,250290.0,163494.0
2026-04-14 17:22:31.032159,248585,1609504844739435,2444709313,-1.089216,-0.00976,0.025376,4.73375,-12.775,-4.36625,22.456001,24.856,12.616,concentric,3,3.0,83631.0,259454.0,149698.0,250290.0,163494.0
2026-04-14 17:22:31.057373,248586,1609504844748340,2444717974,-1.089216,-0.00976,0.025376,0.8575,-13.3525,-7.5075,22.456001,24.856,12.616,concentric,3,3.0,83631.0,259454.0,149698.0,250290.0,163494.0
2026-04-14 17:22:31.069833,248587,1609504844762786,2444732821,-1.139968,0.001952,0.066368,-2.765,-13.125,-9.05625,23.008001,25.04,12.576,concentric,3,3.0,83631.0,259454.0,149698.0,250290.0,163494.0
2026-04-14 17:22:31.097396,248598,1609504844771775,2444741581,-1.081408,-0.035136,0.160064,-4.62875,-12.92375,-10.29875,22.576,25.392002,13.104001,concentric,3,3.0,75687.0,253301.0,139896.0,244559.0,153096.0
2026-04-14 17:22:31.099851,248599,1609504844786261,2444756528,-1.081408,-0.035136,0.160064,-6.37,-12.17125,-10.35125,22.576,25.392002,13.104001,concentric,3,3.0,75687.0,253301.0,139896.0,244559.0,153096.0
2026-04-14 17:22:31.103742,248600,1609504844795191,2444765205,-1.194624,0.003904,-0.050752,-5.55625,-10.4475,-8.505,22.800001,25.408,13.592001,concentric,3,3.0,75687.0,253301.0,139896.0,244559.0,153096.0
2026-04-14 17:22:31.127287,248601,1609504844809674,2444778087,-1.194624,0.003904,-0.050752,-3.14125,-8.82875,-7.93625,22.800001,25.408,13.592001,concentric,3,3.0,75687.0,253301.0,139896.0,244559.0,153096.0
2026-04-14 17:22:31.139777,248602,1609504844819036,2444788863,-1.116544,-0.037088,-0.050752,-7.035,-8.53125,-9.19625,21.952002,25.552002,11.792001,concentric,3,3.0,75687.0,253301.0,139896.0,244559.0,153096.0
2026-04-14 17:22:31.142286,248603,1609504844827976,2444797571,-1.116544,-0.037088,-0.050752,-12.71375,-9.68625,-8.9775,21.952002,25.552002,11.792001,concentric,3,3.0,75687.0,253301.0,139896.0,244559.0,153096.0
2026-04-14 17:22:31.144793,248604,1609504844842455,2444812490,-1.079456,-0.099552,0.081984,-15.505,-10.71,-6.97375,21.744001,25.880001,13.68,concentric,3,3.0,75687.0,253301.0,139896.0,244559.0,153096.0
2026-04-14 17:22:31.147190,248605,1609504844851343,2444821168,-1.079456,-0.083936,0.128832,-14.0525,-9.765,-4.4625,21.744001,25.880001,13.68,concentric,3,3.0,75687.0,253301.0,139896.0,244559.0,153096.0
2026-04-14 17:22:31.174875,248616,1609504844865888,2444836081,-1.075552,-0.08784,0.128832,-8.855001,-8.75875,-2.6775,21.68,25.992,14.264001,concentric,3,3.0,75734.0,252238.0,140106.0,243988.0,153214.0
2026-04-14 17:22:31.177319,248617,1609504844875267,2444844859,-1.087264,0.005856,0.074176,-0.18375,-6.1775,0.525,21.504002,25.544,14.096001,concentric,3,3.0,75734.0,252238.0,140106.0,243988.0,153214.0
2026-04-14 17:22:31.179875,248618,1609504844884212,2444853606,-1.087264,0.005856,0.074176,3.26375,-4.0425,0.53375,21.504002,25.544,14.096001,concentric,3,3.0,75734.0,252238.0,140106.0,243988.0,153214.0
2026-04-14 17:22:31.182360,248619,1609504844898785,2444868537,-1.13216,0.042944,-0.080032,-0.62125,-4.12125,-1.2075,21.28,25.872002,14.488001,concentric,3,3.0,75734.0,252238.0,140106.0,243988.0,153214.0
2026-04-14 17:22:31.184864,248620,1609504844907694,2444877263,-1.13216,0.042944,-0.080032,-8.28625,-4.655,-5.08375,21.28,25.872002,14.488001,concentric,3,3.0,75734.0,252238.0,140106.0,243988.0,153214.0
2026-04-14 17:22:31.202292,248621,1609504844922259,2444892297,-1.126304,-0.031232,0.121024,-14.2975,-5.915,-8.18125,20.904001,26.352001,14.608001,concentric,3,3.0,75734.0,252238.0,140106.0,243988.0,153214.0
2026-04-14 17:22:31.208479,248622,1609504844931168,2444900980,-1.126304,-0.031232,0.121024,-14.49875,-7.27125,-8.11125,20.904001,26.352001,14.608001,concentric,3,3.0,75734.0,252238.0,140106.0,243988.0,153214.0
2026-04-14 17:22:31.224729,248623,1609504844945669,2444915844,-1.089216,-0.08784,-0.00976,-8.82,-6.36125,-6.93,22.12,25.896002,11.960001,concentric,3,3.0,75734.0,252238.0,140106.0,243988.0,153214.0
2026-04-14 17:22:31.232067,248624,1609504844954744,2444924508,-1.048224,0.017568,0.181536,-1.6625,-5.71375,-5.5475,22.128,25.640001,12.624001,concentric,3,3.0,75734.0,252238.0,140106.0,243988.0,153214.0
2026-04-14 17:22:31.240009,248625,1609504844963777,2444933235,-1.048224,0.017568,0.181536,1.8725,-4.29625,-4.50625,22.128,25.640001,12.624001,concentric,3,3.0,75734.0,252238.0,140106.0,243988.0,153214.0
2026-04-14 17:22:31.270197,248636,1609504844978414,2444948214,-1.13216,0.001952,-0.076128,-1.56625,-2.49375,-4.99625,22.128,26.080002,12.728001,concentric,3,3.0,74462.0,250407.0,139255.0,242946.0,152227.0
2026-04-14 17:22:31.272136,248637,1609504844987447,2444956906,-1.13216,0.001952,-0.076128,-8.54,-1.9775,-4.27,22.128,26.080002,12.728001,concentric,3,3.0,74462.0,250407.0,139255.0,242946.0,152227.0
2026-04-14 17:22:31.280199,248638,1609504845001935,2444971802,-1.136064,-0.046848,-0.10736,-12.55625,-2.0475,-3.85875,21.352001,26.024002,13.984,concentric,3,3.0,74462.0,250407.0,139255.0,242946.0,152227.0
2026-04-14 17:22:31.291142,248639,1609504845010903,2444980554,-1.136064,-0.046848,-0.10736,-10.05375,-2.26625,-4.13,21.352001,26.024002,13.984,concentric,3,3.0,74462.0,250407.0,139255.0,242946.0,152227.0
2026-04-14 17:22:31.302529,248640,1609504845025408,2444995460,-1.11264,-0.025376,-0.103456,-1.54,-1.58375,-3.85875,22.264002,26.032001,14.528001,concentric,3,3.0,74462.0,250407.0,139255.0,242946.0,152227.0
2026-04-14 17:22:31.312489,248641,1609504845034348,2445004139,-1.128256,0.050752,-0.062464,4.3225,-0.81375,-3.64,21.712002,25.912,11.592001,concentric,3,3.0,74462.0,250407.0,139255.0,242946.0,152227.0
2026-04-14 17:22:31.320953,248642,1609504845043281,2445012861,-1.128256,0.050752,-0.062464,3.43,-0.63875,-4.095,21.712002,25.912,11.592001,concentric,3,3.0,74462.0,250407.0,139255.0,242946.0,152227.0
2026-04-14 17:22:31.338910,248643,1609504845057752,2445027779,-1.052128,-0.015616,0.01952,-2.93125,-0.1225,-6.1075,21.792002,25.728,12.68,concentric,3,3.0,74462.0,250407.0,139255.0,242946.0,152227.0
2026-04-14 17:22:31.370175,248654,1609504845066736,2445036630,-1.052128,-0.015616,0.01952,-9.26625,-0.175,-7.735,21.792002,25.728,12.68,concentric,3,3.0,77048.0,252730.0,142417.0,245181.0,155521.0
2026-04-14 17:22:31.372671,248655,1609504845081657,2445051725,-1.077504,-0.050752,0.122976,-12.50375,-0.1225,-8.88125,22.04,25.848001,12.464001,concentric,3,3.0,77048.0,252730.0,142417.0,245181.0,155521.0
2026-04-14 17:22:31.375168,248656,1609504845090581,2445060477,-1.077504,-0.050752,0.122976,-7.74375,0.51625,-7.72625,22.04,25.848001,12.464001,concentric,3,3.0,77048.0,252730.0,142417.0,245181.0,155521.0
2026-04-14 17:22:31.399495,248657,1609504845099501,2445069175,-1.071648,-0.001952,0.1464,1.96,1.02375,-6.3175,22.192001,25.848001,12.648001,concentric,3,3.0,77048.0,252730.0,142417.0,245181.0,155521.0
2026-04-14 17:22:31.422214,248658,1609504845113971,2445084022,-1.16144,0.052704,-0.066368,8.54875,1.715,-5.46,22.080002,25.832,12.208,concentric,3,3.0,77048.0,252730.0,142417.0,245181.0,155521.0
2026-04-14 17:22:31.424676,248659,1609504845122958,2445092734,-1.16144,0.052704,-0.066368,6.99125,2.765,-5.50375,22.080002,25.832,12.208,concentric,3,3.0,77048.0,252730.0,142417.0,245181.0,155521.0
2026-04-14 17:22:31.426992,248660,1609504845137446,2445107622,-1.0736,-0.056608,-0.046848,-2.625,2.87875,-5.7925,21.920002,25.984001,12.608001,concentric,3,3.0,77048.0,252730.0,142417.0,245181.0,155521.0
2026-04-14 17:22:31.429718,248661,1609504845146351,2445116286,-1.0736,-0.056608,-0.046848,-10.36,2.5375,-6.88625,21.920002,25.984001,12.608001,concentric,3,3.0,77048.0,252730.0,142417.0,245181.0,155521.0
2026-04-14 17:22:31.443556,248662,1609504845160884,2445131162,-1.106784,-0.0976,0.105408,-12.11875,2.75625,-7.72625,21.832,25.768002,13.288001,concentric,3,3.0,77048.0,252730.0,142417.0,245181.0,155521.0
2026-04-14 17:22:31.471113,248673,1609504845170108,2445139866,-1.106784,-0.0976,0.105408,-8.2075,3.15875,-6.15125,21.832,25.768002,13.288001,concentric,3,3.0,80437.0,255972.0,146533.0,248292.0,159858.0
2026-04-14 17:22:31.475411,248674,1609504845179116,2445148674,-1.067744,-0.0488,0.070272,-0.4725,3.94625,-3.26375,21.264002,26.296001,13.656001,concentric,3,3.0,80437.0,255972.0,146533.0,248292.0,159858.0
2026-04-14 17:22:31.475872,248675,1609504845193644,2445163662,-1.067744,-0.007808,-0.115168,4.38375,5.425,-3.01,21.264002,26.296001,13.656001,concentric,3,3.0,80437.0,255972.0,146533.0,248292.0,159858.0
2026-04-14 17:22:31.484458,248676,1609504845202616,2445172346,-1.167296,-0.007808,-0.115168,3.07125,5.95,-3.31625,21.480001,26.760002,12.896001,concentric,3,3.0,80437.0,255972.0,146533.0,248292.0,159858.0
2026-04-14 17:22:31.493467,248677,1609504845217102,2445187240,-1.167296,-0.02928,0.001952,-2.23125,6.93875,-3.5175,22.088001,26.016,12.488001,concentric,3,3.0,80437.0,255972.0,146533.0,248292.0,159858.0
2026-04-14 17:22:31.503427,248678,1609504845226121,2445195948,-1.167296,-0.02928,0.001952,-7.5425,7.9625,-5.24125,22.088001,26.016,12.488001,concentric,3,3.0,80437.0,255972.0,146533.0,248292.0,159858.0
2026-04-14 17:22:31.512275,248679,1609504845235140,2445204658,-1.163392,-0.128832,-0.162016,-8.575,8.995,-7.56,22.552002,26.168001,10.84,concentric,3,3.0,80437.0,255972.0,146533.0,248292.0,159858.0
2026-04-14 17:22:31.527360,248680,1609504845249638,2445219531,-1.163392,-0.128832,-0.162016,-8.225,9.24875,-7.44625,22.552002,26.168001,10.84,concentric,3,3.0,80437.0,255972.0,146533.0,248292.0,159858.0
2026-04-14 17:22:31.538462,248681,1609504845258578,2445228204,-1.085312,-0.128832,0.02928,-5.635,10.6575,-6.195,22.36,25.664001,12.336,concentric,3,3.0,80437.0,255972.0,146533.0,248292.0,159858.0
2026-04-14 17:22:31.577234,248693,1609504845273218,2445243323,-1.085312,-0.128832,0.02928,-1.05875,11.9,-5.075,22.36,25.664001,12.336,concentric,3,3.0,88126.0,262231.0,156137.0,254549.0,170085.0
2026-04-14 17:22:31.577370,248694,1609504845282209,2445252057,-1.098976,-0.0488,-0.007808,2.80875,13.30875,-3.84125,22.568,25.936,12.376,concentric,3,3.0,88126.0,262231.0,156137.0,254549.0,170085.0
2026-04-14 17:22:31.579362,248695,1609504845296718,2445266982,-1.196576,-0.027328,-0.109312,1.365,14.875,-5.31125,22.656,26.216002,11.616,concentric,3,3.0,88126.0,262231.0,156137.0,254549.0,170085.0
2026-04-14 17:22:31.582050,248696,1609504845305683,2445275634,-1.196576,-0.027328,-0.109312,-3.54375,15.645,-6.93875,22.656,26.216002,11.616,concentric,3,3.0,88126.0,262231.0,156137.0,254549.0,170085.0
2026-04-14 17:22:31.592241,248697,1609504845314629,2445284334,-1.196576,-0.089792,-0.0976,-10.4825,16.44125,-8.3825,22.656,26.216002,12.144001,concentric,3,3.0,88126.0,262231.0,156137.0,254549.0,170085.0
2026-04-14 17:22:31.608554,248698,1609504845329111,2445299202,-1.192672,-0.089792,-0.0976,-17.7975,16.98375,-10.2025,21.736002,25.992,12.144001,concentric,3,3.0,88126.0,262231.0,156137.0,254549.0,170085.0
2026-04-14 17:22:31.616082,248699,1609504845338039,2445307887,-1.167296,-0.06832,0.0488,-18.3925,17.43875,-10.35125,22.672,26.256,11.536,concentric,3,3.0,88126.0,262231.0,156137.0,254549.0,170085.0
2026-04-14 17:22:31.630943,248700,1609504845352527,2445322859,-1.167296,-0.06832,0.0488,-12.48625,16.70375,-10.5875,22.672,26.256,11.536,concentric,3,3.0,88126.0,262231.0,156137.0,254549.0,170085.0
2026-04-14 17:22:31.638884,248701,1609504845361425,2445331527,-1.165344,-0.021472,0.070272,-4.94375,16.835001,-13.1075,23.032001,26.128002,11.872001,concentric,3,3.0,88126.0,262231.0,156137.0,254549.0,170085.0
2026-04-14 17:22:31.671601,248712,1609504845375990,2445344437,-1.19072,-0.060512,-0.134688,0.06125,17.26375,-17.0975,22.832,26.408,11.088,concentric,3,3.0,96950.0,269244.0,166323.0,261026.0,180695.0
2026-04-14 17:22:31.673244,248713,1609504845385349,2445355261,-1.19072,-0.060512,-0.134688,-1.4875,17.73625,-20.93875,22.832,26.408,11.088,concentric,3,3.0,96950.0,269244.0,166323.0,261026.0,180695.0
2026-04-14 17:22:31.675812,248714,1609504845394339,2445364028,-1.19072,-0.060512,-0.134688,-6.97375,18.13,-22.1725,22.832,26.408,11.088,concentric,3,3.0,96950.0,269244.0,166323.0,261026.0,180695.0
2026-04-14 17:22:31.686299,248715,1609504845408841,2445378924,-1.091168,-0.111264,0.080032,-11.66375,19.11,-22.715,22.240002,26.544,11.616,concentric,3,3.0,96950.0,269244.0,166323.0,261026.0,180695.0
2026-04-14 17:22:31.697689,248716,1609504845417823,2445387601,-1.196576,-0.089792,0.003904,-14.6825,19.3025,-23.98375,21.920002,26.536001,11.984,concentric,3,3.0,96950.0,269244.0,166323.0,261026.0,180695.0
2026-04-14 17:22:31.711371,248717,1609504845432290,2445402491,-1.196576,-0.089792,0.003904,-11.89125,19.85375,-24.01875,21.920002,26.536001,11.984,concentric,3,3.0,96950.0,269244.0,166323.0,261026.0,180695.0
2026-04-14 17:22:31.718573,248718,1609504845441221,2445411187,-1.147776,-0.132736,-0.169824,-6.475,21.6125,-24.19375,22.896002,26.744001,10.624001,concentric,3,3.0,96950.0,269244.0,166323.0,261026.0,180695.0
2026-04-14 17:22:31.728946,248719,1609504845450133,2445419884,-1.147776,-0.132736,-0.169824,-3.115,22.72375,-25.235,22.896002,26.744001,10.624001,concentric,3,3.0,96950.0,269244.0,166323.0,261026.0,180695.0
2026-04-14 17:22:31.742684,248720,1609504845464620,2445434797,-1.085312,-0.074176,-0.050752,-1.28625,23.1175,-25.5325,22.648,26.480001,10.568001,concentric,3,3.0,96950.0,269244.0,166323.0,261026.0,180695.0
2026-04-14 17:22:31.850337,248731,1609504845473721,2445443597,-1.085312,-0.074176,-0.050752,-5.3725,24.395,-27.86,22.648,26.480001,10.568001,concentric,3,3.0,103010.0,274607.0,173363.0,266144.0,188163.0
2026-04-14 17:22:31.852035,248732,1609504845488228,2445458512,-1.192672,-0.138592,-0.15616,-15.74125,25.05125,-30.89625,22.512001,26.768002,10.120001,concentric,3,3.0,103010.0,274607.0,173363.0,266144.0,188163.0
2026-04-14 17:22:31.856308,248733,1609504845497141,2445467207,-1.21024,-0.277184,-0.244,-20.23875,25.5325,-32.52375,22.336,26.840002,10.896001,concentric,3,3.0,103010.0,274607.0,173363.0,266144.0,188163.0
2026-04-14 17:22:31.856880,248734,1609504845511644,2445480096,-1.21024,-0.277184,-0.244,-14.16625,25.61125,-32.935,22.336,26.840002,10.896001,concentric,3,3.0,103010.0,274607.0,173363.0,266144.0,188163.0
2026-04-14 17:22:31.859413,248735,1609504845520908,2445490838,-1.257088,-0.12688,-0.1464,-5.88875,24.91125,-33.5475,22.496,26.808,10.040001,concentric,3,3.0,103010.0,274607.0,173363.0,266144.0,188163.0
2026-04-14 17:22:31.863719,248736,1609504845529819,2445499495,-1.257088,-0.12688,-0.1464,7.48125,24.43875,-31.10625,22.496,26.808,10.040001,concentric,3,3.0,103010.0,274607.0,173363.0,266144.0,188163.0
2026-04-14 17:22:31.866179,248737,1609504845544312,2445514442,-1.266848,-0.005856,-0.0488,8.26875,23.8875,-31.87625,22.144001,26.792002,9.736,concentric,3,3.0,103010.0,274607.0,173363.0,266144.0,188163.0
2026-04-14 17:22:31.868119,248738,1609504845553238,2445523119,-1.266848,-0.005856,-0.0488,-0.83125,25.50625,-35.315,22.144001,26.792002,9.736,concentric,3,3.0,103010.0,274607.0,173363.0,266144.0,188163.0
2026-04-14 17:22:31.870908,248739,1609504845567767,2445538020,-1.216096,-0.11712,-0.01952,-13.62375,28.67375,-41.18625,21.984001,26.592001,9.456,concentric,3,3.0,103010.0,274607.0,173363.0,266144.0,188163.0
2026-04-14 17:22:31.897751,248750,1609504845576732,2445546764,-1.173152,-0.208864,-0.085888,-18.025,31.96375,-45.815,21.864,26.688002,11.320001,concentric,3,3.0,109442.0,281352.0,180316.0,272169.0,195554.0
2026-04-14 17:22:31.900209,248751,1609504845591295,2445559668,-1.173152,-0.208864,-0.085888,-10.64,33.85375,-46.025,21.864,26.688002,11.320001,concentric,3,3.0,109442.0,281352.0,180316.0,272169.0,195554.0
2026-04-14 17:22:31.902707,248752,1609504845600507,2445570580,-1.19072,-0.169824,-0.226432,-0.74375,33.495,-46.78625,20.952002,26.920002,10.648001,concentric,3,3.0,109442.0,281352.0,180316.0,272169.0,195554.0
2026-04-14 17:22:31.904771,248753,1609504845609513,2445579297,-1.19072,-0.169824,-0.226432,6.92125,30.14375,-47.0225,20.952002,26.920002,10.648001,concentric,3,3.0,109442.0,281352.0,180316.0,272169.0,195554.0
2026-04-14 17:22:31.907711,248754,1609504845624039,2445594175,-1.264896,-0.066368,-0.121024,10.21125,25.92625,-45.57875,20.816002,26.952002,11.272,concentric,3,3.0,109442.0,281352.0,180316.0,272169.0,195554.0
2026-04-14 17:22:31.909790,248755,1609504845633063,2445602913,-1.264896,-0.066368,-0.121024,9.6775,23.7125,-45.263752,20.816002,26.952002,11.272,concentric,3,3.0,109442.0,281352.0,180316.0,272169.0,195554.0
2026-04-14 17:22:31.925241,248756,1609504845647534,2445617801,-1.231712,-0.144448,-0.081984,3.01875,24.4825,-45.54375,20.208,27.152,11.056001,concentric,3,3.0,109442.0,281352.0,180316.0,272169.0,195554.0
2026-04-14 17:22:31.935265,248757,1609504845656465,2445626558,-1.231712,-0.206912,-0.220576,-6.72,27.6325,-47.215,20.208,27.152,11.056001,concentric,3,3.0,109442.0,281352.0,180316.0,272169.0,195554.0
2026-04-14 17:22:31.944352,248758,1609504845665430,2445635244,-1.18096,-0.218624,-0.220576,-3.31625,33.075,-45.85,20.6,26.44,9.72,concentric,3,3.0,109442.0,281352.0,180316.0,272169.0,195554.0
2026-04-14 17:22:31.974683,248769,1609504845680069,2445650255,-1.173152,-0.111264,-0.203008,4.08625,36.67125,-45.2375,20.072,26.344002,10.632001,concentric,3,3.0,113928.0,287597.0,185244.0,276100.0,200706.0
2026-04-14 17:22:31.977642,248770,1609504845688999,2445658942,-1.173152,-0.111264,-0.203008,12.38125,36.9775,-43.7675,20.072,26.344002,10.632001,concentric,3,3.0,113928.0,287597.0,185244.0,276100.0,200706.0
2026-04-14 17:22:31.982265,248771,1609504845703508,2445673836,-1.284416,-0.119072,-0.169824,14.28875,33.7925,-44.24,18.424002,27.336,13.504001,concentric,3,3.0,113928.0,287597.0,185244.0,276100.0,200706.0
2026-04-14 17:22:31.991400,248772,1609504845712435,2445682552,-1.284416,-0.119072,-0.169824,10.43875,29.04125,-46.36625,18.424002,27.336,13.504001,concentric,3,3.0,113928.0,287597.0,185244.0,276100.0,200706.0
2026-04-14 17:22:32.002751,248773,1609504845726910,2445695458,-1.27856,-0.128832,-0.232288,9.275,25.2525,-46.05125,19.568,26.688002,11.848001,concentric,3,3.0,113928.0,287597.0,185244.0,276100.0,200706.0
2026-04-14 17:22:32.013976,248774,1609504845736290,2445706217,-1.27856,-0.128832,-0.232288,9.555,25.59375,-44.170002,19.568,26.688002,11.848001,concentric,3,3.0,113928.0,287597.0,185244.0,276100.0,200706.0
2026-04-14 17:22:32.022696,248775,1609504845745239,2445714909,-1.163392,-0.216672,-0.052704,6.88625,29.6975,-43.54,19.368,27.496002,13.512001,concentric,3,3.0,113928.0,287597.0,185244.0,276100.0,200706.0
2026-04-14 17:22:32.038614,248776,1609504845759683,2445729775,-1.196576,-0.150304,-0.042944,4.54125,35.2625,-44.52875,19.384,27.920002,12.464001,concentric,3,3.0,113928.0,287597.0,185244.0,276100.0,200706.0
2026-04-14 17:22:32.044690,248777,1609504845768631,2445738480,-1.196576,-0.150304,-0.042944,10.57875,38.7275,-43.40875,19.384,27.920002,12.464001,concentric,3,3.0,113928.0,287597.0,185244.0,276100.0,200706.0
2026-04-14 17:22:32.077680,248788,1609504845783288,2445753416,-1.212192,-0.148352,-0.074176,18.43625,40.83625,-40.17125,18.072,28.776001,13.68,concentric,3,3.0,117460.0,295142.0,188599.0,279803.0,204447.0
2026-04-14 17:22:32.079738,248789,1609504845792221,2445762124,-1.212192,-0.148352,-0.074176,13.29125,41.23,-38.5525,18.072,28.776001,13.68,concentric,3,3.0,117460.0,295142.0,188599.0,279803.0,204447.0
2026-04-14 17:22:32.082162,248790,1609504845801189,2445770842,-1.294176,-0.119072,-0.21472,6.23875,39.61125,-38.08875,18.44,29.376001,14.072001,concentric,3,3.0,117460.0,295142.0,188599.0,279803.0,204447.0
2026-04-14 17:22:32.093890,248791,1609504845815707,2445785735,-1.294176,-0.119072,-0.21472,10.5875,37.03,-37.12625,18.44,29.376001,14.072001,concentric,3,3.0,117460.0,295142.0,188599.0,279803.0,204447.0
2026-04-14 17:22:32.103984,248792,1609504845824615,2445794406,-1.192672,-0.265472,-0.40016,10.78875,34.81625,-40.775,18.888,29.912,12.784,concentric,3,3.0,117460.0,295142.0,188599.0,279803.0,204447.0
