pc_time,serial_num,sensor_ts,host_ts,ax,ay,az,gx,gy,gz,mx,my,mz,phase,rpe,weight_kg,ppg_a,ppg_b,ppg_c,ppg_d,ppg_e
2026-04-14 17:22:41.397514,250525,1609504855020936,2454990995,-1.284416,-0.154208,-0.277184,-12.18,-33.3025,22.4,20.080002,26.880001,9.68,concentric,3,3.0,111320.0,289068.0,183749.0,275560.0,199135.0
2026-04-14 17:22:41.400232,250526,1609504855029873,2454999692,-1.284416,-0.154208,-0.277184,-16.49375,-32.19125,20.46625,20.080002,26.880001,9.68,concentric,3,3.0,111320.0,289068.0,183749.0,275560.0,199135.0
2026-04-14 17:22:41.402715,250527,1609504855038790,2455008428,-1.286368,-0.013664,-0.10736,-5.55625,-32.54125,25.2875,20.480001,26.744001,9.072001,concentric,3,3.0,111320.0,289068.0,183749.0,275560.0,199135.0
2026-04-14 17:22:41.405253,250528,1609504855053324,2455023284,-1.286368,-0.013664,-0.10736,4.15625,-32.515,24.0625,20.480001,26.744001,9.072001,concentric,3,3.0,111320.0,289068.0,183749.0,275560.0,199135.0
2026-04-14 17:22:41.407744,250529,1609504855062272,2455031966,-1.1712,-0.00976,0.044896,9.6075,-34.16,24.43875,20.672,27.144001,9.512,concentric,3,3.0,111320.0,289068.0,183749.0,275560.0,199135.0
2026-04-14 17:22:41.410273,250530,1609504855077005,2455047225,-1.241472,-0.052704,0.081984,6.4925,-34.69375,23.975,21.064001,26.968,9.376,concentric,3,3.0,111320.0,289068.0,183749.0,275560.0,199135.0
2026-04-14 17:22:41.413949,250531,1609504855085896,2455055881,-1.241472,-0.052704,0.081984,-0.53375,-33.25875,23.73875,21.064001,26.968,9.376,concentric,3,3.0,111320.0,289068.0,183749.0,275560.0,199135.0
2026-04-14 17:22:41.414588,250532,1609504855100492,2455070822,-1.22976,-0.031232,-0.095648,-4.165,-29.19875,21.23625,21.168001,26.904001,9.064,concentric,3,3.0,111320.0,289068.0,183749.0,275560.0,199135.0
2026-04-14 17:22:41.417160,250533,1609504855109427,2455079540,-1.22976,-0.031232,-0.095648,-1.295,-26.5125,20.5275,21.168001,26.904001,9.064,concentric,3,3.0,111320.0,289068.0,183749.0,275560.0,199135.0
2026-04-14 17:22:41.421624,250534,1609504855118754,2455088277,-1.24928,0.017568,0.013664,6.16875,-24.99875,21.25375,21.088001,27.512001,9.88,concentric,3,3.0,111320.0,289068.0,183749.0,275560.0,199135.0
2026-04-14 17:22:41.447621,250545,1609504855133314,2455103629,-1.24928,0.017568,0.013664,5.32,-24.91125,17.10625,21.088001,27.512001,9.88,concentric,3,3.0,105198.0,282522.0,177094.0,270530.0,191599.0
2026-04-14 17:22:41.450198,250546,1609504855142300,2455112349,-1.216096,-0.050752,0.007808,3.45625,-25.76,14.62125,20.68,27.776001,10.136001,concentric,3,3.0,105198.0,282522.0,177094.0,270530.0,191599.0
2026-04-14 17:22:41.452701,250547,1609504855156828,2455125239,-1.216096,-0.05856,0.011712,4.3925,-25.34,14.4725,20.68,27.776001,10.136001,concentric,3,3.0,105198.0,282522.0,177094.0,270530.0,191599.0
2026-04-14 17:22:41.455197,250548,1609504855166146,2455136065,-1.257088,-0.05856,0.011712,2.3975,-24.57,13.27375,21.032001,28.224,8.464001,concentric,3,3.0,105198.0,282522.0,177094.0,270530.0,191599.0
2026-04-14 17:22:41.457520,250549,1609504855175095,2455144833,-1.257088,-0.05856,0.011712,6.99125,-23.66,15.6625,21.032001,28.224,8.464001,concentric,3,3.0,105198.0,282522.0,177094.0,270530.0,191599.0
2026-04-14 17:22:41.469040,250550,1609504855189548,2455159765,-1.223904,-0.132736,-0.152256,10.78,-22.19,15.015,21.52,27.696001,10.392,concentric,3,3.0,105198.0,282522.0,177094.0,270530.0,191599.0
2026-04-14 17:22:41.476515,250551,1609504855198516,2455168609,-1.235616,-0.066368,0.062464,7.1925,-22.4525,14.0875,22.392,27.352001,6.488,concentric,3,3.0,105198.0,282522.0,177094.0,270530.0,191599.0
2026-04-14 17:22:41.489747,250552,1609504855213019,2455181425,-1.235616,-0.066368,0.062464,8.96875,-21.428751,19.48625,22.392,27.352001,6.488,concentric,3,3.0,105198.0,282522.0,177094.0,270530.0,191599.0
2026-04-14 17:22:41.525190,250563,1609504855222339,2455192239,-1.1712,-0.07808,0.080032,11.235,-19.53,19.57375,22.400002,27.376001,9.648001,concentric,3,3.0,100159.0,278375.0,171370.0,269258.0,185292.0
2026-04-14 17:22:41.527673,250564,1609504855231715,2455201025,-1.1712,-0.07808,0.080032,12.915,-18.17375,18.68125,22.400002,27.376001,9.648001,concentric,3,3.0,100159.0,278375.0,171370.0,269258.0,185292.0
2026-04-14 17:22:41.529749,250565,1609504855246349,2455215930,-1.233664,-0.033184,-0.101504,12.915,-16.5025,19.705,22.064001,27.28,9.952001,concentric,3,3.0,100159.0,278375.0,171370.0,269258.0,185292.0
2026-04-14 17:22:41.532380,250566,1609504855255273,2455224643,-1.233664,-0.033184,-0.101504,12.45125,-14.07875,18.305,22.064001,27.28,9.952001,concentric,3,3.0,100159.0,278375.0,171370.0,269258.0,185292.0
2026-04-14 17:22:41.548576,250567,1609504855269755,2455239520,-1.22976,0.003904,-0.080032,13.2475,-12.83625,15.96875,22.368002,27.504002,9.352,concentric,3,3.0,100159.0,278375.0,171370.0,269258.0,185292.0
2026-04-14 17:22:41.556567,250568,1609504855278670,2455248240,-1.233664,-0.023424,0.00976,9.87,-13.79,12.145,22.056002,27.712002,10.984,concentric,3,3.0,100159.0,278375.0,171370.0,269258.0,185292.0
2026-04-14 17:22:41.566554,250569,1609504855287623,2455256921,-1.233664,-0.023424,0.00976,7.28875,-15.54,7.91,22.056002,27.712002,10.984,concentric,3,3.0,100159.0,278375.0,171370.0,269258.0,185292.0
2026-04-14 17:22:41.580253,250570,1609504855302086,2455271830,-1.221952,-0.085888,-0.050752,10.92,-17.59625,4.4275,23.04,26.936,10.304001,concentric,3,3.0,100159.0,278375.0,171370.0,269258.0,185292.0
2026-04-14 17:22:41.595255,250571,1609504855311017,2455280503,-1.221952,-0.085888,-0.050752,17.605,-19.495,2.2225,23.04,26.936,10.304001,concentric,3,3.0,100159.0,278375.0,171370.0,269258.0,185292.0
2026-04-14 17:22:41.626083,250582,1609504855325737,2455295613,-1.153632,-0.101504,0.05856,21.805,-20.44875,1.855,22.544,27.04,9.664001,concentric,3,3.0,92636.0,271228.0,162679.0,263397.0,176155.0
2026-04-14 17:22:41.628879,250583,1609504855334724,2455304367,-1.153632,-0.101504,0.05856,24.08,-20.09,4.62,22.544,27.04,9.664001,concentric,3,3.0,92636.0,271228.0,162679.0,263397.0,176155.0
2026-04-14 17:22:41.631041,250584,1609504855349182,2455319276,-1.173152,-0.046848,0.15616,22.12,-17.1675,8.68875,20.856,27.728,12.280001,concentric,3,3.0,92636.0,271228.0,162679.0,263397.0,176155.0
2026-04-14 17:22:41.637600,250585,1609504855358096,2455327948,-1.173152,-0.095648,0.056608,16.40625,-12.8275,10.26375,20.856,27.728,10.232,concentric,3,3.0,92636.0,271228.0,162679.0,263397.0,176155.0
2026-04-14 17:22:41.644863,250586,1609504855367104,2455336620,-1.145824,-0.095648,0.056608,10.955,-9.16125,11.33125,21.6,27.208002,9.6,concentric,3,3.0,92636.0,271228.0,162679.0,263397.0,176155.0
2026-04-14 17:22:41.660113,250587,1609504855381603,2455351538,-1.184864,-0.062464,0.023424,8.44375,-7.00875,12.85375,22.984001,26.672,10.584001,concentric,3,3.0,92636.0,271228.0,162679.0,263397.0,176155.0
2026-04-14 17:22:41.697292,250588,1609504855390594,2455360266,-1.184864,-0.062464,0.023424,8.2075,-6.16,11.6025,22.984001,26.672,10.584001,concentric,3,3.0,92636.0,271228.0,162679.0,263397.0,176155.0
2026-04-14 17:22:41.701558,250589,1609504855405097,2455375124,-1.208288,-0.046848,-0.093696,12.39875,-6.1425,10.535,22.736002,26.272001,11.096001,concentric,3,3.0,92636.0,271228.0,162679.0,263397.0,176155.0
2026-04-14 17:22:41.701978,250590,1609504855414047,2455383790,-1.208288,-0.046848,-0.093696,17.2375,-6.4925,10.43875,22.736002,26.272001,11.096001,concentric,3,3.0,92636.0,271228.0,162679.0,263397.0,176155.0
2026-04-14 17:22:41.747719,250601,1609504855428695,2455398876,-1.126304,-0.031232,0.111264,16.23125,-8.0325,9.2225,22.320002,26.856,11.976001,concentric,3,3.0,86668.0,267548.0,155526.0,260141.0,168933.0
2026-04-14 17:22:41.750245,250602,1609504855437617,2455407562,-1.126304,-0.031232,0.111264,14.11375,-8.84625,8.3475,22.320002,26.856,11.976001,concentric,3,3.0,86668.0,267548.0,155526.0,260141.0,168933.0
2026-04-14 17:22:41.752744,250603,1609504855446533,2455416224,-1.126304,-0.070272,-0.07808,11.27875,-9.05625,6.8425,22.176,26.720001,11.72,concentric,3,3.0,86668.0,267548.0,155526.0,260141.0,168933.0
2026-04-14 17:22:41.754810,250604,1609504855461146,2455431174,-1.118496,-0.085888,-0.083936,8.4875,-8.98625,4.06875,21.824001,26.432001,12.184001,concentric,3,3.0,86668.0,267548.0,155526.0,260141.0,168933.0
2026-04-14 17:22:41.757471,250605,1609504855470072,2455439880,-1.118496,-0.085888,-0.083936,8.14625,-8.21625,2.59,21.824001,26.432001,12.184001,concentric,3,3.0,86668.0,267548.0,155526.0,260141.0,168933.0
2026-04-14 17:22:41.762720,250606,1609504855484564,2455454822,-1.104832,-0.07808,0.101504,8.28625,-7.735,1.61875,22.080002,26.160002,12.248,concentric,3,3.0,86668.0,267548.0,155526.0,260141.0,168933.0
2026-04-14 17:22:41.771571,250607,1609504855493563,2455463542,-1.104832,-0.07808,0.101504,9.91375,-6.86875,1.4,22.080002,26.160002,12.248,concentric,3,3.0,86668.0,267548.0,155526.0,260141.0,168933.0
2026-04-14 17:22:41.789097,250608,1609504855508017,2455476371,-1.15168,-0.101504,-0.12688,12.573751,-6.58,1.89,22.528002,25.984001,12.312,concentric,3,3.0,86668.0,267548.0,155526.0,260141.0,168933.0
2026-04-14 17:22:41.797106,250609,1609504855517161,2455487048,-1.15168,-0.101504,-0.12688,13.9825,-5.53875,4.13,22.528002,25.984001,12.312,concentric,3,3.0,86668.0,267548.0,155526.0,260141.0,168933.0
2026-04-14 17:22:41.827669,250620,1609504855526584,2455495800,-1.143872,-0.046848,-0.091744,13.62375,-4.26125,6.18625,22.000002,26.568,11.312,concentric,3,3.0,84311.0,265458.0,152647.0,258061.0,166044.0
2026-04-14 17:22:41.829771,250621,1609504855541168,2455510778,-1.065792,-0.044896,-0.01952,12.425,-3.3075,5.87125,21.248001,26.184002,12.032001,concentric,3,3.0,84311.0,265458.0,152647.0,258061.0,166044.0
2026-04-14 17:22:41.832312,250622,1609504855550116,2455519477,-1.065792,-0.044896,-0.01952,8.89,-2.905,4.0075,21.248001,26.184002,12.032001,concentric,3,3.0,84311.0,265458.0,152647.0,258061.0,166044.0
2026-04-14 17:22:41.842730,250623,1609504855564624,2455534383,-1.147776,-0.031232,-0.121024,5.53875,-2.54625,2.4675,21.920002,25.888,12.616,concentric,3,3.0,84311.0,265458.0,152647.0,258061.0,166044.0
2026-04-14 17:22:41.851541,250624,1609504855573667,2455543057,-1.147776,-0.031232,-0.121024,3.3075,-2.555,0.77,21.920002,25.888,12.616,concentric,3,3.0,84311.0,265458.0,152647.0,258061.0,166044.0
2026-04-14 17:22:41.861564,250625,1609504855582637,2455551736,-1.09312,-0.05856,-0.062464,4.1825,-2.42375,-1.51375,22.560001,25.648,11.864,concentric,3,3.0,84311.0,265458.0,152647.0,258061.0,166044.0
2026-04-14 17:22:41.874033,250626,1609504855597154,2455566636,-1.09312,-0.05856,-0.062464,5.7225,-2.6775,-3.465,22.560001,25.648,11.864,concentric,3,3.0,84311.0,265458.0,152647.0,258061.0,166044.0
2026-04-14 17:22:41.883567,250627,1609504855606068,2455575316,-1.057984,-0.044896,0.035136,7.6475,-1.645,-5.3725,22.712002,25.720001,11.72,concentric,3,3.0,84311.0,265458.0,152647.0,258061.0,166044.0
2026-04-14 17:22:41.900082,250628,1609504855620556,2455590246,-1.159488,-0.017568,0.025376,7.9275,-1.61875,-6.7725,21.888,25.688002,10.712001,concentric,3,3.0,84311.0,265458.0,152647.0,258061.0,166044.0
2026-04-14 17:22:41.932651,250640,1609504855629624,2455598970,-1.159488,-0.017568,0.025376,5.985,-2.77375,-6.8075,21.888,25.688002,10.712001,concentric,3,3.0,81952.0,262846.0,149733.0,255642.0,162980.0
2026-04-14 17:22:41.934756,250641,1609504855638614,2455607766,-1.159488,-0.017568,0.025376,3.255,-3.92,-6.78125,21.888,25.688002,10.712001,concentric,3,3.0,81952.0,262846.0,149733.0,255642.0,162980.0
2026-04-14 17:22:41.937758,250642,1609504855653149,2455622748,-1.085312,-0.052704,0.163968,0.63875,-3.64875,-6.615,21.672,26.12,11.368001,concentric,3,3.0,81952.0,262846.0,149733.0,255642.0,162980.0
2026-04-14 17:22:41.940236,250643,1609504855662098,2455631463,-1.169248,-0.050752,-0.072224,-0.90125,-3.03625,-5.20625,22.656,25.768002,12.088,concentric,3,3.0,81952.0,262846.0,149733.0,255642.0,162980.0
2026-04-14 17:22:41.955092,250644,1609504855676573,2455646339,-1.169248,-0.050752,-0.072224,0.3675,-1.16375,-4.2525,22.656,25.768002,12.088,concentric,3,3.0,81952.0,262846.0,149733.0,255642.0,162980.0
2026-04-14 17:22:41.962567,250645,1609504855685500,2455655039,-1.108736,-0.062464,-0.017568,2.73,0.1925,-4.36625,22.304,25.608002,12.248,concentric,3,3.0,81952.0,262846.0,149733.0,255642.0,162980.0
2026-04-14 17:22:41.978542,250646,1609504855700041,2455669955,-1.108736,-0.062464,-0.095648,3.5175,0.175,-5.06625,22.304,25.608002,12.248,concentric,3,3.0,81952.0,262846.0,149733.0,255642.0,162980.0
2026-04-14 17:22:42.016161,250647,1609504855708933,2455678666,-1.18096,-0.054656,-0.095648,2.59,-1.2775,-4.15625,22.264002,25.800001,14.976001,concentric,3,3.0,81952.0,262846.0,149733.0,255642.0,162980.0
2026-04-14 17:22:42.019017,250648,1609504855717882,2455687313,-1.18096,-0.054656,-0.095648,0.77875,-2.52,-3.78875,22.264002,25.800001,14.976001,concentric,3,3.0,81952.0,262846.0,149733.0,255642.0,162980.0
2026-04-14 17:22:42.091422,250659,1609504855732427,2455702470,-1.145824,-0.037088,0.130784,-1.26,-1.86375,-3.815,20.784,26.088001,13.664001,concentric,3,3.0,81872.0,262188.0,149793.0,255119.0,163048.0
2026-04-14 17:22:42.093840,250660,1609504855741342,2455711216,-1.13216,-0.031232,0.158112,-2.09125,-0.42,-3.87625,21.256,25.992,13.104001,concentric,3,3.0,81872.0,262188.0,149793.0,255119.0,163048.0
2026-04-14 17:22:42.096230,250661,1609504855755980,2455726103,-1.13216,-0.031232,0.158112,-2.00375,1.12,-3.54375,21.256,25.992,13.104001,concentric,3,3.0,81872.0,262188.0,149793.0,255119.0,163048.0
2026-04-14 17:22:42.098459,250662,1609504855765037,2455734832,-1.202432,-0.015616,-0.02928,-2.1875,2.485,-4.025,21.696001,25.832,13.000001,concentric,3,3.0,81872.0,262188.0,149793.0,255119.0,163048.0
2026-04-14 17:22:42.101068,250663,1609504855779504,2455749687,-1.202432,-0.015616,-0.02928,-2.7475,3.115,-4.85625,21.696001,25.832,13.000001,concentric,3,3.0,81872.0,262188.0,149793.0,255119.0,163048.0
2026-04-14 17:22:42.103985,250664,1609504855788627,2455758413,-1.167296,-0.085888,-0.140544,-3.36875,2.94875,-5.48625,21.544,25.672,11.672001,concentric,3,3.0,81872.0,262188.0,149793.0,255119.0,163048.0
2026-04-14 17:22:42.106474,250665,1609504855797541,2455767168,-1.167296,-0.085888,-0.140544,-3.4825,2.7125,-6.23875,21.544,25.672,11.672001,concentric,3,3.0,81872.0,262188.0,149793.0,255119.0,163048.0
2026-04-14 17:22:42.108969,250666,1609504855812080,2455782075,-1.134112,-0.05856,0.08784,-1.785,2.51125,-5.94125,21.696001,26.2,13.008,concentric,3,3.0,81872.0,262188.0,149793.0,255119.0,163048.0
2026-04-14 17:22:42.111441,250667,1609504855821055,2455790796,-1.134112,-0.001952,0.132736,1.77625,2.905,-5.31125,21.696001,26.2,13.008,concentric,3,3.0,81872.0,262188.0,149793.0,255119.0,163048.0
2026-04-14 17:22:42.141423,250678,1609504855835758,2455805723,-1.149728,-0.001952,0.132736,3.52625,3.955,-6.02,22.096,26.04,9.96,concentric,3,3.0,82392.0,262051.0,150719.0,255288.0,163900.0
2026-04-14 17:22:42.143668,250679,1609504855844784,2455814459,-1.159488,-0.06832,-0.11712,0.945,4.6375,-7.49875,22.736002,25.832,11.672001,concentric,3,3.0,82392.0,262051.0,150719.0,255288.0,163900.0
2026-04-14 17:22:42.146435,250680,1609504855853743,2455823233,-1.159488,-0.06832,-0.11712,-4.64625,5.25875,-8.46125,22.736002,25.832,11.672001,concentric,3,3.0,82392.0,262051.0,150719.0,255288.0,163900.0
2026-04-14 17:22:42.148577,250681,1609504855868321,2455838130,-1.120448,-0.203008,-0.025376,-9.948751,4.3225,-8.53125,22.696001,25.792002,11.784,concentric,3,3.0,82392.0,262051.0,150719.0,255288.0,163900.0
2026-04-14 17:22:42.155248,250682,1609504855877254,2455846822,-1.120448,-0.203008,-0.025376,-8.6275,4.20875,-6.34375,22.696001,25.792002,11.784,concentric,3,3.0,82392.0,262051.0,150719.0,255288.0,163900.0
2026-04-14 17:22:42.171793,250683,1609504855891712,2455861706,-1.188768,-0.099552,0.013664,2.0475,4.90875,-1.88125,22.544,25.944002,12.000001,concentric,3,3.0,82392.0,262051.0,150719.0,255288.0,163900.0
2026-04-14 17:22:42.177152,250684,1609504855900725,2455870429,-1.188768,-0.099552,0.013664,14.20125,6.685,1.26,22.544,25.944002,12.000001,concentric,3,3.0,82392.0,262051.0,150719.0,255288.0,163900.0
2026-04-14 17:22:42.193809,250685,1609504855915244,2455885289,-1.225856,0.060512,-0.109312,17.82375,8.96875,2.135,22.984001,25.704,12.048,concentric,3,3.0,82392.0,262051.0,150719.0,255288.0,163900.0
2026-04-14 17:22:42.202683,250686,1609504855924195,2455894002,-1.11264,-0.091744,0.0488,11.042501,9.42375,-1.3475,23.096,25.728,11.72,concentric,3,3.0,82392.0,262051.0,150719.0,255288.0,163900.0
2026-04-14 17:22:42.232590,250697,1609504855933228,2455902735,-1.11264,-0.091744,0.0488,-5.88,8.93375,-6.965,23.096,25.728,11.72,concentric,3,3.0,89844.0,268400.0,160276.0,261984.0,173900.0
2026-04-14 17:22:42.235258,250698,1609504855947723,2455917730,-1.212192,-0.1952,0.02928,-18.29625,9.9925,-8.07625,21.408,26.080002,12.504001,concentric,3,3.0,89844.0,268400.0,160276.0,261984.0,173900.0
2026-04-14 17:22:42.237750,250699,1609504855956641,2455926506,-1.212192,-0.1952,0.02928,-15.82,11.12125,-2.9925,21.408,26.080002,12.504001,concentric,3,3.0,89844.0,268400.0,160276.0,261984.0,173900.0
2026-04-14 17:22:42.250250,250700,1609504855971251,2455941356,-1.262944,-0.179584,-0.142496,-4.31375,11.59375,2.72125,21.936,25.472002,12.64,concentric,3,3.0,89844.0,268400.0,160276.0,261984.0,173900.0
2026-04-14 17:22:42.258674,250701,1609504855980178,2455950055,-1.262944,-0.179584,-0.142496,8.925,10.22,5.8975,21.936,25.472002,12.64,concentric,3,3.0,89844.0,268400.0,160276.0,261984.0,173900.0
2026-04-14 17:22:42.273815,250702,1609504855994684,2455964928,-1.251232,0.050752,0.066368,17.8325,8.02375,6.4575,23.064001,25.088001,12.696001,concentric,3,3.0,89844.0,268400.0,160276.0,261984.0,173900.0
2026-04-14 17:22:42.282245,250703,1609504856003698,2455973626,-1.167296,0.052704,-0.013664,16.87875,7.595,2.7475,22.536001,25.088001,13.528001,concentric,3,3.0,89844.0,268400.0,160276.0,261984.0,173900.0
2026-04-14 17:22:42.290137,250704,1609504856012689,2455982372,-1.167296,0.052704,-0.013664,4.68125,8.70625,-3.885,22.536001,25.088001,13.528001,concentric,3,3.0,89844.0,268400.0,160276.0,261984.0,173900.0
2026-04-14 17:22:42.333497,250715,1609504856027544,2455997326,-1.274656,-0.259616,-0.054656,-15.58375,7.84875,-9.52875,23.152,25.320002,11.176001,concentric,3,3.0,104113.0,280261.0,177058.0,274228.0,191366.0
2026-04-14 17:22:42.336230,250716,1609504856036617,2456006063,-1.274656,-0.259616,-0.054656,-28.13125,7.67375,-11.24375,23.152,25.320002,11.176001,concentric,3,3.0,104113.0,280261.0,177058.0,274228.0,191366.0
2026-04-14 17:22:42.338906,250717,1609504856051145,2456021029,-1.165344,-0.193248,-0.109312,-17.66625,10.4825,-9.21375,22.456001,25.216002,12.368001,concentric,3,3.0,104113.0,280261.0,177058.0,274228.0,191366.0
2026-04-14 17:22:42.341492,250718,1609504856060100,2456029736,-1.165344,-0.193248,-0.109312,7.2625,12.39875,-7.65625,22.456001,25.216002,12.368001,concentric,3,3.0,104113.0,280261.0,177058.0,274228.0,191366.0
2026-04-14 17:22:42.347307,250719,1609504856068999,2456038409,-1.231712,0.062464,-0.095648,19.95875,9.45,-6.615,22.224,25.304,12.056001,concentric,3,3.0,104113.0,280261.0,177058.0,274228.0,191366.0
2026-04-14 17:22:42.363259,250720,1609504856083491,2456053314,-1.216096,-0.07808,-0.035136,8.74125,5.6175,-7.48125,23.008001,25.392002,10.856001,concentric,3,3.0,104113.0,280261.0,177058.0,274228.0,191366.0
2026-04-14 17:22:42.369773,250721,1609504856092435,2456061998,-1.216096,-0.07808,-0.035136,-8.68,3.4125,-13.230001,23.008001,25.392002,10.856001,concentric,3,3.0,104113.0,280261.0,177058.0,274228.0,191366.0
2026-04-14 17:22:42.386107,250722,1609504856106917,2456076885,-1.196576,-0.154208,-0.142496,-19.7575,6.1075,-16.52,22.944,24.944,10.84,concentric,3,3.0,104113.0,280261.0,177058.0,274228.0,191366.0
2026-04-14 17:22:42.393580,250723,1609504856115861,2456085572,-1.196576,-0.154208,-0.142496,-17.36,11.73375,-15.846251,22.944,24.944,10.84,concentric,3,3.0,104113.0,280261.0,177058.0,274228.0,191366.0
2026-04-14 17:22:42.480790,250734,1609504856130836,2456100595,-1.243424,-0.02928,-0.162016,-7.595,16.07375,-13.79,21.6,25.088001,11.848001,concentric,3,3.0,110188.0,284886.0,184032.0,277493.0,198287.0
2026-04-14 17:22:42.483576,250735,1609504856139799,2456109265,-1.243424,-0.02928,-0.162016,-2.02125,17.52625,-12.425,21.6,25.088001,11.848001,concentric,3,3.0,110188.0,284886.0,184032.0,277493.0,198287.0
2026-04-14 17:22:42.486009,250736,1609504856148689,2456117939,-1.264896,0.021472,-0.056608,-3.12375,17.3425,-14.3675,21.512001,25.024002,11.64,concentric,3,3.0,110188.0,284886.0,184032.0,277493.0,198287.0
2026-04-14 17:22:42.488491,250737,1609504856163312,2456132843,-1.264896,0.023424,-0.105408,-5.3725,16.21375,-18.0075,21.512001,25.024002,11.64,concentric,3,3.0,110188.0,284886.0,184032.0,277493.0,198287.0
2026-04-14 17:22:42.491154,250738,1609504856172285,2456141510,-1.243424,0.023424,-0.105408,-8.74125,15.9775,-20.62375,22.12,24.568,10.648001,concentric,3,3.0,110188.0,284886.0,184032.0,277493.0,198287.0
2026-04-14 17:22:42.493551,250739,1609504856186727,2456156502,-1.167296,-0.052704,0.023424,-12.495,16.52875,-21.48125,21.944,24.552002,11.032001,concentric,3,3.0,110188.0,284886.0,184032.0,277493.0,198287.0
2026-04-14 17:22:42.496105,250740,1609504856195772,2456165189,-1.167296,-0.052704,0.023424,-16.3625,16.8875,-22.35625,21.944,24.552002,11.032001,concentric,3,3.0,110188.0,284886.0,184032.0,277493.0,198287.0
2026-04-14 17:22:42.498430,250741,1609504856204736,2456173931,-1.145824,-0.040992,-0.119072,-20.08125,17.4125,-23.02125,21.624,24.888,8.848001,concentric,3,3.0,110188.0,284886.0,184032.0,277493.0,198287.0
2026-04-14 17:22:42.501125,250742,1609504856219255,2456188853,-1.145824,-0.040992,-0.119072,-14.14875,17.75375,-23.555,21.624,24.888,8.848001,concentric,3,3.0,110188.0,284886.0,184032.0,277493.0,198287.0
2026-04-14 17:22:42.530971,250753,1609504856228730,2456197548,-1.253184,0.08784,0.003904,-7.23625,17.5525,-25.29625,21.528002,23.856,9.984,concentric,3,3.0,113368.0,291046.0,186975.0,278883.0,201778.0
2026-04-14 17:22:42.536072,250754,1609504856243723,2456212480,-1.253184,0.050752,-0.001952,-5.3375,17.59625,-26.59125,21.528002,23.856,9.984,concentric,3,3.0,113368.0,291046.0,186975.0,278883.0,201778.0
2026-04-14 17:22:42.540816,250755,1609504856253052,2456223257,-1.235616,0.050752,-0.001952,-9.02125,18.366251,-32.69,22.224,24.000002,9.296001,concentric,3,3.0,113368.0,291046.0,186975.0,278883.0,201778.0
2026-04-14 17:22:42.543661,250756,1609504856262048,2456231933,-1.235616,0.050752,-0.001952,-12.5125,20.29125,-37.6425,22.224,24.000002,9.296001,concentric,3,3.0,113368.0,291046.0,186975.0,278883.0,201778.0
2026-04-14 17:22:42.556161,250757,1609504856276533,2456246829,-1.206336,-0.06832,-0.232288,-13.877501,22.05,-40.95,21.632002,23.944,8.464001,concentric,3,3.0,113368.0,291046.0,186975.0,278883.0,201778.0
2026-04-14 17:22:42.562593,250758,1609504856285459,2456255563,-1.241472,0.021472,-0.167872,-9.00375,22.1025,-42.27125,20.816002,23.712002,13.296001,concentric,3,3.0,113368.0,291046.0,186975.0,278883.0,201778.0
2026-04-14 17:22:42.576545,250759,1609504856299947,2456268391,-1.241472,0.021472,-0.167872,-1.21625,20.90375,-42.2625,20.816002,23.712002,13.296001,concentric,3,3.0,113368.0,291046.0,186975.0,278883.0,201778.0
2026-04-14 17:22:42.587750,250760,1609504856309184,2456279135,-1.134112,-0.01952,-0.085888,-4.6375,20.6675,-43.9075,20.072,24.488,11.392,concentric,3,3.0,113368.0,291046.0,186975.0,278883.0,201778.0
2026-04-14 17:22:42.597768,250761,1609504856318106,2456287811,-1.134112,-0.01952,-0.085888,-13.18625,21.55125,-47.99375,20.072,24.488,11.392,concentric,3,3.0,113368.0,291046.0,186975.0,278883.0,201778.0
2026-04-14 17:22:42.659681,250772,1609504856332801,2456302785,-1.106784,-0.017568,0.050752,-14.72625,23.6075,-51.170002,19.720001,24.160002,11.400001,concentric,3,3.0,114888.0,294850.0,188021.0,281953.0,203298.0
2026-04-14 17:22:42.662689,250773,1609504856341715,2456311490,-1.106784,-0.017568,0.050752,-14.44625,26.11875,-55.36125,19.720001,24.160002,11.400001,concentric,3,3.0,114888.0,294850.0,188021.0,281953.0,203298.0
2026-04-14 17:22:42.664822,250774,1609504856356253,2456326417,-1.218048,-0.072224,-0.081984,-11.10375,28.805,-58.31875,18.728,25.208002,13.048,concentric,3,3.0,114888.0,294850.0,188021.0,281953.0,203298.0
2026-04-14 17:22:42.667658,250775,1609504856365193,2456335079,-1.198528,-0.035136,-0.18544,-5.08375,29.67125,-59.01875,19.12,25.912,14.696001,concentric,3,3.0,114888.0,294850.0,188021.0,281953.0,203298.0
2026-04-14 17:22:42.670244,250776,1609504856379667,2456349961,-1.198528,-0.035136,-0.18544,1.53125,29.225,-59.1325,19.12,25.912,14.696001,concentric,3,3.0,114888.0,294850.0,188021.0,281953.0,203298.0
2026-04-14 17:22:42.672825,250777,1609504856388616,2456358677,-1.108736,-0.013664,-0.072224,5.45125,28.25375,-57.67125,18.936,26.824001,14.192,concentric,3,3.0,114888.0,294850.0,188021.0,281953.0,203298.0
2026-04-14 17:22:42.675229,250778,1609504856397536,2456367356,-1.108736,-0.013664,-0.072224,0.34125,28.945,-57.72375,18.936,26.824001,14.192,concentric,3,3.0,114888.0,294850.0,188021.0,281953.0,203298.0
2026-04-14 17:22:42.691187,250779,1609504856412029,2456382288,-1.18096,-0.070272,-0.03904,-5.7925,32.01625,-59.3775,19.016,28.136002,13.120001,concentric,3,3.0,114888.0,294850.0,188021.0,281953.0,203298.0
2026-04-14 17:22:42.701581,250780,1609504856420965,2456390958,-1.18096,-0.070272,-0.03904,-9.3975,35.385,-61.39,19.016,28.136002,13.120001,concentric,3,3.0,114888.0,294850.0,188021.0,281953.0,203298.0
2026-04-14 17:22:42.733998,250791,1609504856435508,2456404255,-1.14192,-0.179584,-0.261568,-8.72375,37.89625,-60.97,19.136002,28.568,12.6,concentric,3,3.0,118681.0,298863.0,191585.0,284537.0,207331.0
2026-04-14 17:22:42.734239,250792,1609504856444861,2456415070,-1.14192,-0.023424,-0.033184,0.875,37.0125,-58.19625,19.136002,28.568,12.6,concentric,3,3.0,118681.0,298863.0,191585.0,284537.0,207331.0
2026-04-14 17:22:42.739524,250793,1609504856453841,2456423778,-1.143872,-0.021472,-0.033184,10.15,34.5275,-54.6525,19.824001,29.424002,12.336,concentric,3,3.0,118681.0,298863.0,191585.0,284537.0,207331.0
2026-04-14 17:22:42.747449,250794,1609504856468320,2456438648,-1.216096,-0.070272,-0.271328,10.78,30.72125,-54.57375,19.512001,29.992,11.84,concentric,3,3.0,118681.0,298863.0,191585.0,284537.0,207331.0
2026-04-14 17:22:42.757725,250795,1609504856477251,2456447320,-1.216096,-0.070272,-0.271328,8.8725,27.64125,-54.71375,19.512001,29.992,11.84,concentric,3,3.0,118681.0,298863.0,191585.0,284537.0,207331.0
2026-04-14 17:22:42.791587,250796,1609504856491721,2456460212,-1.136064,-0.121024,0.056608,10.64875,26.46875,-54.81875,19.160002,30.408,11.672001,concentric,3,3.0,118681.0,298863.0,191585.0,284537.0,207331.0
2026-04-14 17:22:42.819979,250797,1609504856501015,2456471042,-1.136064,-0.121024,0.056608,11.7425,28.56875,-53.78625,19.160002,30.408,11.672001,concentric,3,3.0,118681.0,298863.0,191585.0,284537.0,207331.0
2026-04-14 17:22:42.821056,250798,1609504856515464,2456483860,-1.13216,-0.091744,0.052704,10.6225,33.075,-51.345,16.912,31.2,12.8,concentric,3,3.0,118681.0,298863.0,191585.0,284537.0,207331.0
2026-04-14 17:22:42.823467,250799,1609504856524678,2456494597,-1.13216,-0.091744,0.052704,12.9325,39.1475,-46.08625,16.912,31.2,12.8,concentric,3,3.0,118681.0,298863.0,191585.0,284537.0,207331.0
2026-04-14 17:22:42.856084,250810,1609504856533704,2456503346,-1.091168,-0.199104,-0.150304,13.9825,42.72625,-41.90375,17.152,31.128002,10.808001,concentric,3,3.0,122315.0,303181.0,195808.0,286562.0,211810.0
2026-04-14 17:22:42.858961,250811,1609504856548363,2456518215,-1.198528,-0.119072,-0.179584,2.6425,45.24625,-38.5875,17.704,30.976002,11.544001,concentric,3,3.0,122315.0,303181.0,195808.0,286562.0,211810.0
2026-04-14 17:22:42.861406,250812,1609504856557393,2456526956,-1.198528,-0.119072,-0.179584,5.03125,43.67125,-32.7425,17.704,30.976002,11.544001,concentric,3,3.0,122315.0,303181.0,195808.0,286562.0,211810.0
2026-04-14 17:22:42.863399,250813,1609504856571908,2456541836,-1.212192,-0.007808,-0.269376,18.97875,40.38125,-34.4925,17.448,31.136002,11.040001,concentric,3,3.0,122315.0,303181.0,195808.0,286562.0,211810.0
2026-04-14 17:22:42.866099,250814,1609504856580845,2456550593,-1.212192,-0.007808,-0.269376,17.08875,32.9525,-35.385,17.448,31.136002,11.040001,concentric,3,3.0,122315.0,303181.0,195808.0,286562.0,211810.0
2026-04-14 17:22:42.868844,250815,1609504856589765,2456559312,-1.147776,-0.228384,-0.271328,20.79875,23.905,-39.6375,16.808,30.960001,11.208,concentric,3,3.0,122315.0,303181.0,195808.0,286562.0,211810.0
2026-04-14 17:22:42.882260,250816,1609504856604286,2456574203,-1.147776,-0.228384,-0.271328,19.87125,17.6575,-39.54125,16.808,30.960001,11.208,eccentric,3,3.0,122315.0,303181.0,195808.0,286562.0,211810.0
2026-04-14 17:22:42.892449,250817,1609504856613253,2456582885,-1.028704,-0.242048,0.023424,18.4275,17.77125,-34.44875,16.608002,31.008001,10.432,eccentric,3,3.0,122315.0,303181.0,195808.0,286562.0,211810.0
2026-04-14 17:22:42.906393,250818,1609504856627746,2456597799,-0.968192,-0.066368,-0.226432,13.93,18.795,-28.09625,17.064001,30.744001,10.152,eccentric,3,3.0,122315.0,303181.0,195808.0,286562.0,211810.0
2026-04-14 17:22:42.933726,250829,1609504856636754,2456606598,-0.968192,-0.066368,-0.226432,15.21625,18.9875,-26.4075,17.064001,30.744001,10.152,eccentric,3,3.0,121322.0,304430.0,195080.0,286691.0,211457.0
2026-04-14 17:22:42.936953,250830,1609504856651284,2456621569,-1.071648,-0.208864,-0.269376,21.18375,16.21375,-28.1575,16.672,30.608002,10.088,eccentric,3,3.0,121322.0,304430.0,195080.0,286691.0,211457.0
2026-04-14 17:22:42.939353,250831,1609504856660331,2456630249,-1.071648,-0.208864,-0.269376,18.83875,13.4575,-30.695,16.672,30.608002,10.088,eccentric,3,3.0,121322.0,304430.0,195080.0,286691.0,211457.0
2026-04-14 17:22:42.946122,250832,1609504856669395,2456638928,-1.071648,-0.140544,-0.062464,18.50625,15.23375,-31.692501,16.616001,30.792002,10.056001,eccentric,3,3.0,121322.0,304430.0,195080.0,286691.0,211457.0
2026-04-14 17:22:42.962324,250833,1609504856683879,2456653830,-1.071648,-0.140544,-0.062464,19.95,17.29875,-23.616251,16.616001,30.792002,10.056001,eccentric,3,3.0,121322.0,304430.0,195080.0,286691.0,211457.0
2026-04-14 17:22:42.971272,250834,1609504856692804,2456662504,-0.91744,-0.249856,-0.181536,16.2575,21.28,-19.460001,15.624001,31.368002,11.104,eccentric,3,3.0,121322.0,304430.0,195080.0,286691.0,211457.0
2026-04-14 17:22:42.986134,250835,1609504856707285,2456677344,-0.831552,-0.119072,-0.0488,4.4625,20.93875,-23.616251,15.208001,30.936,10.440001,eccentric,3,3.0,121322.0,304430.0,195080.0,286691.0,211457.0
2026-04-14 17:22:42.993714,250836,1609504856716222,2456686065,-0.831552,-0.119072,-0.0488,13.58,19.18,-21.49,15.208001,30.936,10.440001,eccentric,3,3.0,121322.0,304430.0,195080.0,286691.0,211457.0
2026-04-14 17:22:43.033668,250847,1609504856730718,2456700947,-0.79056,-0.222528,0.001952,13.2125,18.13875,-27.2125,15.488001,30.776001,10.040001,eccentric,3,3.0,116694.0,309593.0,188608.0,290532.0,205282.0
2026-04-14 17:22:43.036254,250848,1609504856739955,2456709671,-0.79056,-0.222528,0.001952,7.39375,15.9425,-27.475,15.488001,30.776001,10.040001,eccentric,3,3.0,116694.0,309593.0,188608.0,290532.0,205282.0
2026-04-14 17:22:43.038671,250849,1609504856748916,2456718378,-0.788608,-0.251808,-0.327936,7.72625,17.08,-24.5875,15.328001,30.904001,12.368001,eccentric,3,3.0,116694.0,309593.0,188608.0,290532.0,205282.0
2026-04-14 17:22:43.041252,250850,1609504856763404,2456733256,-0.788608,-0.251808,-0.327936,7.83125,16.485,-24.57,15.328001,30.904001,12.368001,eccentric,3,3.0,116694.0,309593.0,188608.0,290532.0,205282.0
2026-04-14 17:22:43.053694,250851,1609504856772344,2456741965,-0.79056,-0.210816,-0.333792,9.37125,13.76375,-27.965,14.888001,30.656002,10.424001,eccentric,3,3.0,116694.0,309593.0,188608.0,290532.0,205282.0
2026-04-14 17:22:43.064798,250852,1609504856786839,2456756882,-0.79056,-0.210816,-0.179584,9.58125,8.225,-33.78375,14.888001,30.656002,10.424001,eccentric,3,3.0,116694.0,309593.0,188608.0,290532.0,205282.0
2026-04-14 17:22:43.073661,250853,1609504856795766,2456765566,-0.651968,-0.267424,-0.179584,12.285,6.7725,-36.8725,14.76,30.792002,11.168,eccentric,3,3.0,116694.0,309593.0,188608.0,290532.0,205282.0
2026-04-14 17:22:43.082431,250854,1609504856804726,2456774261,-0.651968,-0.267424,-0.179584,9.00375,11.375,-37.30125,14.76,30.792002,11.168,eccentric,3,3.0,116694.0,309593.0,188608.0,290532.0,205282.0
2026-04-14 17:22:43.097476,250855,1609504856819191,2456789127,-0.564128,-0.269376,-0.080032,2.52,18.235,-34.64125,13.592001,31.384,9.92,eccentric,3,3.0,116694.0,309593.0,188608.0,290532.0,205282.0
2026-04-14 17:22:43.104941,250856,1609504856828145,2456797839,-0.560224,-0.216672,-0.130784,-0.23625,22.07625,-34.4575,14.232,31.272001,8.104,eccentric,3,3.0,116694.0,309593.0,188608.0,290532.0,205282.0
2026-04-14 17:22:43.133552,250867,1609504856842831,2456812797,-0.560224,-0.216672,-0.130784,1.70625,23.42375,-33.95875,14.232,31.272001,8.104,eccentric,3,3.0,111668.0,314243.0,181818.0,293957.0,198592.0
2026-04-14 17:22:43.159003,250868,1609504856851760,2456821511,-0.607072,-0.261568,-0.134688,-2.3975,22.32125,-36.4175,13.144001,31.472002,10.816001,eccentric,3,3.0,111668.0,314243.0,181818.0,293957.0,198592.0
2026-04-14 17:22:43.184006,250869,1609504856866257,2456836490,-0.607072,-0.261568,-0.134688,-5.6,19.27625,-36.18125,13.144001,31.472002,10.816001,eccentric,3,3.0,111668.0,314243.0,181818.0,293957.0,198592.0
2026-04-14 17:22:43.186556,250870,1609504856875177,2456845212,-0.597312,-0.179584,-0.050752,1.7675,18.20875,-33.915,13.080001,31.896002,13.232,eccentric,3,3.0,111668.0,314243.0,181818.0,293957.0,198592.0
2026-04-14 17:22:43.188569,250871,1609504856884082,2456853896,-0.597312,-0.179584,-0.050752,-1.61,19.32875,-33.97625,13.080001,31.896002,13.232,eccentric,3,3.0,111668.0,314243.0,181818.0,293957.0,198592.0
2026-04-14 17:22:43.191550,250872,1609504856898567,2456868795,-0.552416,-0.210816,-0.007808,-2.485,20.7025,-31.885,11.84,31.912,11.856001,eccentric,3,3.0,111668.0,314243.0,181818.0,293957.0,198592.0
2026-04-14 17:22:43.193988,250873,1609504856907553,2456877465,-0.552416,-0.210816,-0.007808,-5.90625,20.5625,-32.87375,11.84,31.912,11.856001,eccentric,3,3.0,111668.0,314243.0,181818.0,293957.0,198592.0
2026-04-14 17:22:43.201587,250874,1609504856922132,2456892344,-0.642208,-0.193248,-0.20496,-10.08875,16.93125,-33.48625,11.608001,31.984001,10.192,eccentric,3,3.0,111668.0,314243.0,181818.0,293957.0,198592.0
2026-04-14 17:22:43.233424,250885,1609504856931072,2456901041,-0.568032,-0.314272,-0.16592,-13.2475,14.11375,-32.76875,13.120001,31.896002,9.312,eccentric,3,3.0,113999.0,314084.0,185157.0,293422.0,201604.0
2026-04-14 17:22:43.236115,250886,1609504856945535,2456913959,-0.568032,-0.314272,-0.16592,-14.7175,13.51,-29.303751,13.120001,31.896002,9.312,eccentric,3,3.0,113999.0,314084.0,185157.0,293422.0,201604.0
2026-04-14 17:22:43.238934,250887,1609504856954956,2456924754,-0.691008,-0.183488,-0.05856,-13.51,14.0,-22.00625,12.040001,32.304,9.6,eccentric,3,3.0,113999.0,314084.0,185157.0,293422.0,201604.0
2026-04-14 17:22:43.242460,250888,1609504856963907,2456933482,-0.691008,-0.183488,-0.05856,-8.19,14.0875,-17.8325,12.040001,32.304,9.6,eccentric,3,3.0,113999.0,314084.0,185157.0,293422.0,201604.0
2026-04-14 17:22:43.260252,250889,1609504856978403,2456948381,-0.706624,-0.113216,-0.0488,-6.65,9.17875,-16.6775,12.392,32.552002,10.120001,eccentric,3,3.0,113999.0,314084.0,185157.0,293422.0,201604.0
2026-04-14 17:22:43.291565,250890,1609504856987321,2456957084,-0.706624,-0.113216,-0.0488,-6.8775,2.2925,-15.61,12.392,32.552002,10.120001,eccentric,3,3.0,113999.0,314084.0,185157.0,293422.0,201604.0
2026-04-14 17:22:43.294005,250891,1609504857001785,2456971955,-0.70272,-0.27328,0.007808,-13.55375,-1.47875,-13.055,12.192,32.576,9.088,eccentric,3,3.0,113999.0,314084.0,185157.0,293422.0,201604.0
2026-04-14 17:22:43.296492,250892,1609504857010709,2456980628,-0.650016,-0.294752,-0.128832,-16.56375,-2.80875,-6.11625,12.416,31.928001,7.968,eccentric,3,3.0,113999.0,314084.0,185157.0,293422.0,201604.0
2026-04-14 17:22:43.300670,250893,1609504857019662,2456989301,-0.650016,-0.294752,-0.128832,-15.11125,-1.6625,1.63625,12.416,31.928001,7.968,eccentric,3,3.0,113999.0,314084.0,185157.0,293422.0,201604.0
2026-04-14 17:22:43.335128,250904,1609504857034688,2457004260,-0.691008,-0.1464,-0.0976,-19.565,-2.59875,5.705,13.464001,32.248,8.832001,eccentric,3,3.0,116860.0,310789.0,189237.0,290750.0,205764.0
2026-04-14 17:22:43.337563,250905,1609504857043707,2457013040,-0.691008,-0.1464,-0.0976,-16.07375,-4.01625,11.165,13.464001,32.248,8.832001,eccentric,3,3.0,116860.0,310789.0,189237.0,290750.0,205764.0
2026-04-14 17:22:43.340105,250906,1609504857058245,2457027994,-0.80032,-0.160064,-0.027328,-16.21375,-7.42875,11.9,12.776001,32.448,9.984,eccentric,3,3.0,116860.0,310789.0,189237.0,290750.0,205764.0
2026-04-14 17:22:43.344703,250907,1609504857067182,2457036678,-0.80032,-0.160064,-0.027328,-22.32125,-12.04,14.1225,12.776001,32.448,9.984,eccentric,3,3.0,116860.0,310789.0,189237.0,290750.0,205764.0
2026-04-14 17:22:43.361078,250908,1609504857081653,2457051562,-0.7808,-0.249856,0.013664,-22.3125,-12.53,18.7425,12.744,33.104,10.896001,eccentric,3,3.0,116860.0,310789.0,189237.0,290750.0,205764.0
2026-04-14 17:22:43.368520,250909,1609504857090550,2457060272,-0.776896,-0.259616,-0.091744,-27.4575,-11.45375,23.8875,14.088,32.432003,9.728001,eccentric,3,3.0,116860.0,310789.0,189237.0,290750.0,205764.0
2026-04-14 17:22:43.375690,250910,1609504857099491,2457069043,-0.776896,-0.259616,-0.091744,-31.473751,-10.17625,31.955,14.088,32.432003,9.728001,eccentric,3,3.0,116860.0,310789.0,189237.0,290750.0,205764.0
2026-04-14 17:22:43.392050,250911,1609504857113976,2457083921,-0.845216,-0.017568,-0.115168,-23.16125,-11.3925,37.275,14.528001,32.624,8.368,eccentric,3,3.0,116860.0,310789.0,189237.0,290750.0,205764.0
2026-04-14 17:22:43.402618,250912,1609504857122975,2457092605,-0.845216,-0.017568,-0.115168,-17.92,-16.1525,36.2425,14.528001,32.624,8.368,eccentric,3,3.0,116860.0,310789.0,189237.0,290750.0,205764.0
2026-04-14 17:22:43.434856,250923,1609504857137589,2457105995,-0.8784,-0.210816,-0.054656,-26.71375,-23.47625,32.36625,15.088,32.216003,8.152,eccentric,3,3.0,115428.0,307235.0,187613.0,287540.0,204019.0
2026-04-14 17:22:43.437640,250924,1609504857146852,2457116829,-0.8784,-0.210816,-0.054656,-27.51875,-29.79375,36.82875,15.088,32.216003,8.152,eccentric,3,3.0,115428.0,307235.0,187613.0,287540.0,204019.0
2026-04-14 17:22:43.439659,250925,1609504857155816,2457125566,-0.899872,-0.230336,-0.013664,-24.08875,-30.00375,44.12625,14.544001,33.08,8.984,eccentric,3,3.0,115428.0,307235.0,187613.0,287540.0,204019.0
2026-04-14 17:22:43.448374,250926,1609504857170364,2457140465,-1.011136,-0.011712,-0.343552,-27.553751,-28.00875,51.555,15.392001,32.776,9.152,eccentric,3,3.0,115428.0,307235.0,187613.0,287540.0,204019.0
2026-04-14 17:22:43.458592,250927,1609504857179298,2457149135,-1.011136,-0.011712,-0.343552,-26.85375,-28.74375,54.67875,15.392001,32.776,9.152,eccentric,3,3.0,115428.0,307235.0,187613.0,287540.0,204019.0
2026-04-14 17:22:43.474020,250928,1609504857193821,2457164052,-0.892064,-0.163968,-0.191296,-18.40125,-30.40625,54.853752,15.920001,32.504,8.464001,eccentric,3,3.0,115428.0,307235.0,187613.0,287540.0,204019.0
2026-04-14 17:22:43.480253,250929,1609504857202738,2457172721,-0.892064,-0.163968,-0.191296,-24.0275,-32.03375,49.81375,15.920001,32.504,8.464001,eccentric,3,3.0,115428.0,307235.0,187613.0,287540.0,204019.0
2026-04-14 17:22:43.493357,250930,1609504857217209,2457185633,-0.981856,-0.201056,-0.203008,-37.45,-34.13375,48.0025,16.584002,32.232002,7.928001,eccentric,3,3.0,115428.0,307235.0,187613.0,287540.0,204019.0
2026-04-14 17:22:43.545263,250931,1609504857226524,2457196382,-0.981856,-0.201056,-0.203008,-34.65,-33.5475,53.655,16.584002,32.232002,7.928001,eccentric,3,3.0,115428.0,307235.0,187613.0,287540.0,204019.0
2026-04-14 17:22:43.572224,250942,1609504857235993,2457205178,-0.981856,-0.148352,-0.314272,-26.97625,-31.4475,57.54,17.824001,31.648,7.960001,eccentric,3,3.0,116180.0,304039.0,188919.0,284876.0,205141.0
2026-04-14 17:22:43.579794,250943,1609504857250520,2457220091,-0.989664,-0.060512,-0.167872,-26.1275,-31.491251,56.93625,17.824001,32.120003,8.288,eccentric,3,3.0,116180.0,304039.0,188919.0,284876.0,205141.0
2026-04-14 17:22:43.580065,250944,1609504857259463,2457228773,-0.989664,-0.060512,-0.167872,-22.5575,-34.1425,54.285,18.176,32.120003,8.288,eccentric,3,3.0,116180.0,304039.0,188919.0,284876.0,205141.0
2026-04-14 17:22:43.582021,250945,1609504857273914,2457243719,-1.001376,-0.160064,-0.193248,-17.68375,-39.31375,50.3125,19.096,31.600002,8.296001,eccentric,3,3.0,116180.0,304039.0,188919.0,284876.0,205141.0
2026-04-14 17:22:43.585193,250946,1609504857283002,2457252456,-1.001376,-0.160064,-0.193248,-20.58875,-43.7675,46.89125,19.096,31.600002,8.296001,eccentric,3,3.0,116180.0,304039.0,188919.0,284876.0,205141.0
2026-04-14 17:22:43.587660,250947,1609504857291983,2457261184,-1.06384,-0.111264,-0.222528,-23.86125,-43.9425,47.075,19.264002,31.792002,8.136001,eccentric,3,3.0,116180.0,304039.0,188919.0,284876.0,205141.0
2026-04-14 17:22:43.590155,250948,1609504857306529,2457276103,-1.06384,-0.111264,-0.222528,-23.79125,-41.4225,47.8275,19.264002,31.792002,8.136001,eccentric,3,3.0,116180.0,304039.0,188919.0,284876.0,205141.0
2026-04-14 17:22:43.593915,250949,1609504857315406,2457284776,-1.077504,-0.128832,-0.261568,-21.42,-38.01875,47.34625,19.44,31.232002,9.112,eccentric,3,3.0,116180.0,304039.0,188919.0,284876.0,205141.0
2026-04-14 17:22:43.607805,250950,1609504857329951,2457299689,-1.077504,-0.128832,-0.261568,-22.1725,-37.205,44.31875,19.44,31.232002,9.112,eccentric,3,3.0,116180.0,304039.0,188919.0,284876.0,205141.0
2026-04-14 17:22:43.635126,250961,1609504857338946,2457308426,-1.188768,-0.080032,-0.27328,-20.5975,-39.26125,40.775,19.704,31.048002,8.96,eccentric,3,3.0,116358.0,299171.0,188779.0,281063.0,204780.0
2026-04-14 17:22:43.637757,250962,1609504857347920,2457317129,-1.188768,-0.080032,-0.27328,-15.417501,-43.12875,37.905,19.704,31.048002,8.96,eccentric,3,3.0,116358.0,299171.0,188779.0,281063.0,204780.0
2026-04-14 17:22:43.640263,250963,1609504857362509,2457332079,-1.11264,-0.128832,-0.15616,-12.10125,-43.37375,37.1525,19.888,30.28,10.040001,eccentric,3,3.0,116358.0,299171.0,188779.0,281063.0,204780.0
2026-04-14 17:22:43.648443,250964,1609504857371554,2457340774,-1.206336,-0.16592,-0.294752,-18.795,-39.59375,35.1925,19.944,30.312002,11.712001,eccentric,3,3.0,116358.0,299171.0,188779.0,281063.0,204780.0
2026-04-14 17:22:43.664005,250965,1609504857386067,2457355669,-1.206336,-0.16592,-0.294752,-23.6775,-34.16,35.34125,19.944,30.312002,11.712001,eccentric,3,3.0,116358.0,299171.0,188779.0,281063.0,204780.0
2026-04-14 17:22:43.674682,250966,1609504857395011,2457364374,-1.225856,-0.138592,-0.388448,-23.6775,-31.66625,33.9675,19.960001,29.792002,10.096001,eccentric,3,3.0,116358.0,299171.0,188779.0,281063.0,204780.0
2026-04-14 17:22:43.688867,250967,1609504857409553,2457379341,-1.225856,-0.138592,-0.388448,-17.43875,-30.40625,32.54125,19.960001,29.792002,10.096001,eccentric,3,3.0,116358.0,299171.0,188779.0,281063.0,204780.0
2026-04-14 17:22:43.696415,250968,1609504857418466,2457388058,-1.284416,-0.027328,-0.372832,-4.48875,-31.3075,30.28375,19.856,29.072,10.472,eccentric,3,3.0,116358.0,299171.0,188779.0,281063.0,204780.0
2026-04-14 17:22:43.708864,250969,1609504857427408,2457396739,-1.284416,-0.027328,-0.372832,-1.0675,-36.58375,25.1125,19.856,29.072,10.472,eccentric,3,3.0,116358.0,299171.0,188779.0,281063.0,204780.0
