pc_time,serial_num,sensor_ts,host_ts,ax,ay,az,gx,gy,gz,mx,my,mz,phase,rpe,weight_kg,ppg_a,ppg_b,ppg_c,ppg_d,ppg_e,ppg_f,ppg_g,ppg_h,ppg_i,ppg_j
2026-05-06 16:34:54.381432,914766,1609507557769094,5157681749,0.632448,0.335744,0.521184,-0.0875,1.05875,0.1575,-44.512,2.296,-64.336006,concentric,4,5.0,32623.0,35079.0,89952.0,89332.0,30284.0,44111.0,39683.0,51031.0,20504.0,15195.0
2026-05-06 16:34:54.383898,914767,1609507557778031,5157690443,0.632448,0.335744,0.521184,1.015,1.015,-1.11125,-44.512,2.296,-64.336006,concentric,4,5.0,32623.0,35079.0,89952.0,89332.0,30284.0,44111.0,39683.0,51031.0,20504.0,15195.0
2026-05-06 16:34:54.390304,914768,1609507557786963,5157699208,0.630496,0.33184,0.548512,5.7225,0.805,-1.7325,-44.752003,2.824,-64.368004,concentric,4,5.0,32623.0,35079.0,89952.0,89332.0,30284.0,44111.0,39683.0,51031.0,20504.0,15195.0
2026-05-06 16:34:54.455085,914779,1609507557801461,5157714338,0.597312,0.394304,0.558272,8.33,0.245,-2.09125,-44.496002,2.816,-64.840004,concentric,4,5.0,32571.0,35027.0,89592.0,89268.0,30219.0,43994.0,39460.0,50952.0,20464.0,15153.0
2026-05-06 16:34:54.455421,914780,1609507557810519,5157723137,0.597312,0.394304,0.558272,8.89875,-0.5075,-1.84625,-44.496002,2.816,-64.840004,concentric,4,5.0,32571.0,35027.0,89592.0,89268.0,30219.0,43994.0,39460.0,50952.0,20464.0,15153.0
2026-05-06 16:34:54.457633,914781,1609507557825018,5157736031,0.618784,0.366976,0.554368,5.15375,-0.97125,-3.75375,-44.760002,2.568,-64.688,concentric,4,5.0,32571.0,35027.0,89592.0,89268.0,30219.0,43994.0,39460.0,50952.0,20464.0,15153.0
2026-05-06 16:34:54.487780,914782,1609507557834215,5157746894,0.618784,0.366976,0.554368,1.46125,-0.21,-7.00875,-44.760002,2.568,-64.688,concentric,4,5.0,32571.0,35027.0,89592.0,89268.0,30219.0,43994.0,39460.0,50952.0,20464.0,15153.0
2026-05-06 16:34:54.490351,914783,1609507557843482,5157755619,0.61488,0.363072,0.525088,2.5375,2.0125,-7.63875,-44.752003,2.248,-65.72,concentric,4,5.0,32571.0,35027.0,89592.0,89268.0,30219.0,43994.0,39460.0,50952.0,20464.0,15153.0
2026-05-06 16:34:54.492854,914784,1609507557858016,5157770522,0.61488,0.363072,0.525088,5.66125,2.5375,-7.20125,-44.752003,2.248,-65.72,concentric,4,5.0,32571.0,35027.0,89592.0,89268.0,30219.0,43994.0,39460.0,50952.0,20464.0,15153.0
2026-05-06 16:34:54.495403,914785,1609507557866997,5157779305,0.616832,0.394304,0.562176,5.17125,3.2375,-7.1225,-44.968002,-1.352,-62.048004,concentric,4,5.0,32571.0,35027.0,89592.0,89268.0,30219.0,43994.0,39460.0,50952.0,20464.0,15153.0
2026-05-06 16:34:54.497924,914786,1609507557881508,5157794196,0.616832,0.372832,0.493856,-1.23375,3.2375,-7.13125,-44.968002,-1.352,-62.048004,concentric,4,5.0,32571.0,35027.0,89592.0,89268.0,30219.0,43994.0,39460.0,50952.0,20464.0,15153.0
2026-05-06 16:34:54.500425,914787,1609507557890435,5157802905,0.609024,0.372832,0.493856,-6.93875,3.63125,-7.37625,-44.600002,2.168,-65.784004,concentric,4,5.0,32571.0,35027.0,89592.0,89268.0,30219.0,43994.0,39460.0,50952.0,20464.0,15153.0
2026-05-06 16:34:54.531462,914798,1609507557905333,5157817876,0.638304,0.388448,0.482144,-6.7025,4.06875,-4.9525,-44.816,0.728,-63.312004,concentric,4,5.0,32630.0,35057.0,89475.0,89363.0,30259.0,44053.0,39403.0,50999.0,20499.0,15147.0
2026-05-06 16:34:54.534087,914799,1609507557914354,5157826654,0.638304,0.388448,0.482144,-3.0275,3.4825,-4.2,-44.816,0.728,-63.312004,concentric,4,5.0,32630.0,35057.0,89475.0,89363.0,30259.0,44053.0,39403.0,50999.0,20499.0,15147.0
2026-05-06 16:34:54.536667,914800,1609507557923409,5157835472,0.622688,0.382592,0.51728,1.00625,2.79125,-3.6575,-44.824,2.24,-64.04,concentric,4,5.0,32630.0,35057.0,89475.0,89363.0,30259.0,44053.0,39403.0,50999.0,20499.0,15147.0
2026-05-06 16:34:54.542720,914801,1609507557937952,5157850500,0.622688,0.382592,0.51728,4.0425,1.1725,-3.31625,-44.824,2.24,-64.04,concentric,4,5.0,32630.0,35057.0,89475.0,89363.0,30259.0,44053.0,39403.0,50999.0,20499.0,15147.0
2026-05-06 16:34:54.551657,914802,1609507557946884,5157859201,0.630496,0.404064,0.52704,5.45125,0.035,-3.22,-44.504,0.544,-63.008003,concentric,4,5.0,32630.0,35057.0,89475.0,89363.0,30259.0,44053.0,39403.0,50999.0,20499.0,15147.0
2026-05-06 16:34:54.565498,914803,1609507557961435,5157874176,0.630496,0.404064,0.52704,4.0425,-1.21625,-1.98625,-44.504,0.544,-63.008003,concentric,4,5.0,32630.0,35057.0,89475.0,89363.0,30259.0,44053.0,39403.0,50999.0,20499.0,15147.0
2026-05-06 16:34:54.597858,914804,1609507557970357,5157882893,0.648064,0.378688,0.52704,0.07875,-1.4175,-2.79125,-44.712,2.04,-63.960003,concentric,4,5.0,32630.0,35057.0,89475.0,89363.0,30259.0,44053.0,39403.0,50999.0,20499.0,15147.0
2026-05-06 16:34:54.622941,914805,1609507557979264,5157891610,0.648064,0.378688,0.52704,-2.345,-1.0325,-4.54125,-44.712,2.04,-63.960003,concentric,4,5.0,32630.0,35057.0,89475.0,89363.0,30259.0,44053.0,39403.0,50999.0,20499.0,15147.0
2026-05-06 16:34:54.645493,914806,1609507557993838,5157906512,0.62464,0.40016,0.542656,0.63,-1.4875,-3.745,-44.504,1.888,-64.248,concentric,4,5.0,32630.0,35057.0,89475.0,89363.0,30259.0,44053.0,39403.0,50999.0,20499.0,15147.0
2026-05-06 16:34:54.677498,914817,1609507558002791,5157915584,0.646112,0.404064,0.532896,4.05125,-1.89875,-3.255,-44.504,2.224,-64.80801,concentric,4,5.0,32577.0,35027.0,89548.0,89385.0,30230.0,44053.0,39489.0,51042.0,20469.0,15161.0
2026-05-06 16:34:54.680293,914818,1609507558017334,5157928449,0.646112,0.404064,0.532896,5.215,-1.63625,-5.11,-44.632004,2.224,-64.80801,concentric,4,5.0,32577.0,35027.0,89548.0,89385.0,30230.0,44053.0,39489.0,51042.0,20469.0,15161.0
2026-05-06 16:34:54.682789,914819,1609507558026706,5157939211,0.640256,0.37088,0.528992,5.95,-1.68,-5.9325,-44.600002,2.44,-64.07201,concentric,4,5.0,32577.0,35027.0,89548.0,89385.0,30230.0,44053.0,39489.0,51042.0,20469.0,15161.0
2026-05-06 16:34:54.685118,914820,1609507558041268,5157952167,0.640256,0.37088,0.528992,6.2475,-0.91,-6.08125,-44.600002,2.44,-64.07201,concentric,4,5.0,32577.0,35027.0,89548.0,89385.0,30230.0,44053.0,39489.0,51042.0,20469.0,15161.0
2026-05-06 16:34:54.687787,914821,1609507558050639,5157962964,0.642208,0.384544,0.52704,6.20375,-0.595,-4.795,-44.736004,1.728,-63.984,concentric,4,5.0,32577.0,35027.0,89548.0,89385.0,30230.0,44053.0,39489.0,51042.0,20469.0,15161.0
2026-05-06 16:34:54.690353,914822,1609507558059679,5157971736,0.642208,0.384544,0.52704,5.635,-0.1225,-5.87125,-44.736004,1.728,-63.984,concentric,4,5.0,32577.0,35027.0,89548.0,89385.0,30230.0,44053.0,39489.0,51042.0,20469.0,15161.0
2026-05-06 16:34:54.695345,914823,1609507558074409,5157986661,0.628544,0.398208,0.513376,5.18875,0.9625,-5.90625,-44.600002,1.76,-64.352005,concentric,4,5.0,32577.0,35027.0,89548.0,89385.0,30230.0,44053.0,39489.0,51042.0,20469.0,15161.0
2026-05-06 16:34:54.697793,914824,1609507558083538,5157995507,0.628544,0.376736,0.482144,6.72875,0.735,-6.58,-44.664,2.504,-61.624004,concentric,4,5.0,32577.0,35027.0,89548.0,89385.0,30230.0,44053.0,39489.0,51042.0,20469.0,15161.0
2026-05-06 16:34:54.700362,914825,1609507558092494,5158004254,0.628544,0.376736,0.482144,5.46875,0.67375,-7.5775,-44.664,2.504,-61.624004,concentric,4,5.0,32577.0,35027.0,89548.0,89385.0,30230.0,44053.0,39489.0,51042.0,20469.0,15161.0
2026-05-06 16:34:54.734212,914836,1609507558107593,5158019236,0.6344,0.37088,0.530944,5.76625,1.05,-6.36125,-45.08,0.96,-62.976,concentric,4,5.0,32612.0,35042.0,89604.0,89209.0,30269.0,44102.0,39516.0,50954.0,20504.0,15170.0
2026-05-06 16:34:54.736724,914837,1609507558116665,5158028088,0.6344,0.37088,0.530944,8.14625,1.1375,-5.1275,-45.08,0.96,-62.976,concentric,4,5.0,32612.0,35042.0,89604.0,89209.0,30269.0,44102.0,39516.0,50954.0,20504.0,15170.0
2026-05-06 16:34:54.739253,914838,1609507558131188,5158043048,0.632448,0.407968,0.571936,9.205,1.68875,-3.745,-44.976,0.168,-63.016003,concentric,4,5.0,32612.0,35042.0,89604.0,89209.0,30269.0,44102.0,39516.0,50954.0,20504.0,15170.0
2026-05-06 16:34:54.745465,914839,1609507558140134,5158051775,0.632448,0.407968,0.571936,6.755,2.17,-3.395,-44.976,0.168,-63.016003,concentric,4,5.0,32612.0,35042.0,89604.0,89209.0,30269.0,44102.0,39516.0,50954.0,20504.0,15170.0
2026-05-06 16:34:54.754214,914840,1609507558149111,5158060504,0.616832,0.368928,0.521184,1.5225,3.26375,-5.215,-44.984,1.624,-63.928,concentric,4,5.0,32612.0,35042.0,89604.0,89209.0,30269.0,44102.0,39516.0,50954.0,20504.0,15170.0
2026-05-06 16:34:54.767732,914841,1609507558163637,5158075579,0.616832,0.329888,0.530944,-2.765,3.94625,-4.8825,-44.984,1.624,-63.928,concentric,4,5.0,32612.0,35042.0,89604.0,89209.0,30269.0,44102.0,39516.0,50954.0,20504.0,15170.0
2026-05-06 16:34:54.776637,914842,1609507558172734,5158084292,0.622688,0.329888,0.530944,-4.7075,5.59125,-2.695,-44.856003,2.088,-63.040005,concentric,4,5.0,32612.0,35042.0,89604.0,89209.0,30269.0,44102.0,39516.0,50954.0,20504.0,15170.0
2026-05-06 16:34:54.802843,914843,1609507558187226,5158099181,0.616832,0.279136,0.5368,-3.61375,8.26875,0.035,-45.04,0.944,-62.712,concentric,4,5.0,32612.0,35042.0,89604.0,89209.0,30269.0,44102.0,39516.0,50954.0,20504.0,15170.0
2026-05-06 16:34:54.805381,914844,1609507558196187,5158107891,0.616832,0.279136,0.5368,-2.16125,10.99,3.68375,-45.04,0.944,-62.712,concentric,4,5.0,32612.0,35042.0,89604.0,89209.0,30269.0,44102.0,39516.0,50954.0,20504.0,15170.0
2026-05-06 16:34:54.832963,914855,1609507558210918,5158123191,0.571936,0.333792,0.482144,-0.4375,13.545,8.37375,-44.68,2.888,-62.992004,concentric,4,5.0,32768.0,35135.0,89609.0,89206.0,30396.0,44183.0,39520.0,50923.0,20604.0,15230.0
2026-05-06 16:34:54.835367,914856,1609507558219930,5158131964,0.571936,0.333792,0.482144,0.83125,15.35625,11.19125,-44.68,2.888,-62.992004,concentric,4,5.0,32768.0,35135.0,89609.0,89206.0,30396.0,44183.0,39520.0,50923.0,20604.0,15230.0
2026-05-06 16:34:54.837891,914857,1609507558228867,5158140740,0.550464,0.407968,0.396256,4.6375,16.03,12.32,-44.824,-1.2,-61.848003,concentric,4,5.0,32768.0,35135.0,89609.0,89206.0,30396.0,44183.0,39520.0,50923.0,20604.0,15230.0
2026-05-06 16:34:54.853939,914858,1609507558243542,5158155754,0.550464,0.407968,0.396256,9.8875,15.28625,10.66625,-44.824,-1.2,-61.848003,concentric,4,5.0,32768.0,35135.0,89609.0,89206.0,30396.0,44183.0,39520.0,50923.0,20604.0,15230.0
2026-05-06 16:34:54.857747,914859,1609507558252617,5158164487,0.544608,0.355264,0.4392,12.1275,13.71125,7.34125,-44.496002,3.312,-62.880005,concentric,4,5.0,32768.0,35135.0,89609.0,89206.0,30396.0,44183.0,39520.0,50923.0,20604.0,15230.0
2026-05-06 16:34:54.871547,914860,1609507558267094,5158179398,0.532896,0.355264,0.474336,11.52375,11.27,5.32,-44.912003,2.12,-61.584003,concentric,4,5.0,32768.0,35135.0,89609.0,89206.0,30396.0,44183.0,39520.0,50923.0,20604.0,15230.0
2026-05-06 16:34:54.880299,914861,1609507558276075,5158188118,0.532896,0.355264,0.474336,11.78625,8.645,4.10375,-44.912003,2.12,-61.584003,concentric,4,5.0,32768.0,35135.0,89609.0,89206.0,30396.0,44183.0,39520.0,50923.0,20604.0,15230.0
2026-05-06 16:34:54.889081,914862,1609507558285009,5158196848,0.521184,0.437248,0.466528,11.57625,7.09625,4.20875,-44.912003,1.944,-62.936005,concentric,4,5.0,32768.0,35135.0,89609.0,89206.0,30396.0,44183.0,39520.0,50923.0,20604.0,15230.0
2026-05-06 16:34:54.912804,914863,1609507558299606,5158211783,0.521184,0.437248,0.466528,10.745,6.27375,3.1325,-44.888,1.944,-62.936005,concentric,4,5.0,32768.0,35135.0,89609.0,89206.0,30396.0,44183.0,39520.0,50923.0,20604.0,15230.0
2026-05-06 16:34:54.965301,914874,1609507558308800,5158220681,0.521184,0.392352,0.435296,8.68875,5.4775,-1.2075,-44.576,3.56,-62.352,concentric,4,5.0,32728.0,35091.0,89618.0,88977.0,30367.0,44123.0,39502.0,50793.0,20563.0,15197.0
2026-05-06 16:34:54.990299,914875,1609507558323675,5158235687,0.521184,0.392352,0.435296,7.07875,4.29625,-3.85875,-44.576,3.56,-62.352,concentric,4,5.0,32728.0,35091.0,89618.0,88977.0,30367.0,44123.0,39502.0,50793.0,20563.0,15197.0
2026-05-06 16:34:55.000415,914876,1609507558332813,5158244452,0.503616,0.413824,0.425536,5.8275,2.2225,-4.78625,-44.600002,3.264,-62.208004,concentric,4,5.0,32728.0,35091.0,89618.0,88977.0,30367.0,44123.0,39502.0,50793.0,20563.0,15197.0
2026-05-06 16:34:55.002858,914877,1609507558342082,5158253185,0.503616,0.413824,0.425536,6.32625,0.58625,-5.88,-44.600002,3.264,-62.208004,concentric,4,5.0,32728.0,35091.0,89618.0,88977.0,30367.0,44123.0,39502.0,50793.0,20563.0,15197.0
2026-05-06 16:34:55.005530,914878,1609507558356910,5158268150,0.503616,0.41968,0.47824,6.44875,-0.77875,-7.53375,-44.824,3.0,-62.168003,concentric,4,5.0,32728.0,35091.0,89618.0,88977.0,30367.0,44123.0,39502.0,50793.0,20563.0,15197.0
2026-05-06 16:34:55.007981,914879,1609507558365821,5158276884,0.505568,0.384544,0.476288,5.13625,-0.97125,-9.1,-44.936,2.976,-62.504,concentric,4,5.0,32728.0,35091.0,89618.0,88977.0,30367.0,44123.0,39502.0,50793.0,20563.0,15197.0
2026-05-06 16:34:55.010488,914880,1609507558380610,5158291866,0.505568,0.384544,0.476288,3.2725,-1.365,-9.905,-44.936,2.976,-62.504,concentric,4,5.0,32728.0,35091.0,89618.0,88977.0,30367.0,44123.0,39502.0,50793.0,20563.0,15197.0
2026-05-06 16:34:55.012915,914881,1609507558390026,5158302658,0.493856,0.411872,0.462624,0.56875,-0.8225,-10.00125,-44.808002,3.208,-62.216003,concentric,4,5.0,32728.0,35091.0,89618.0,88977.0,30367.0,44123.0,39502.0,50793.0,20563.0,15197.0
2026-05-06 16:34:55.018173,914882,1609507558398943,5158311362,0.493856,0.411872,0.462624,-1.0675,-0.3325,-7.79625,-44.808002,3.208,-62.216003,concentric,4,5.0,32728.0,35091.0,89618.0,88977.0,30367.0,44123.0,39502.0,50793.0,20563.0,15197.0
2026-05-06 16:34:55.045065,914893,1609507558413642,5158324460,0.513376,0.41968,0.528992,-3.40375,0.62125,-7.0,-44.568,2.864,-62.248,concentric,4,5.0,32752.0,35200.0,89871.0,88954.0,30413.0,44250.0,39621.0,50783.0,20581.0,15252.0
2026-05-06 16:34:55.047538,914894,1609507558423078,5158335297,0.513376,0.41968,0.528992,-3.5525,1.63625,-7.385,-44.568,2.864,-62.248,concentric,4,5.0,32752.0,35200.0,89871.0,88954.0,30413.0,44250.0,39621.0,50783.0,20581.0,15252.0
2026-05-06 16:34:55.050321,914895,1609507558432163,5158344036,0.501664,0.427488,0.491904,-5.46,2.45,-8.14625,-45.016003,1.76,-60.848003,concentric,4,5.0,32752.0,35200.0,89871.0,88954.0,30413.0,44250.0,39621.0,50783.0,20581.0,15252.0
2026-05-06 16:34:55.052631,914896,1609507558446777,5158359009,0.544608,0.366976,0.45872,-9.44125,3.47375,-9.70375,-45.448,1.432,-61.328003,concentric,4,5.0,32752.0,35200.0,89871.0,88954.0,30413.0,44250.0,39621.0,50783.0,20581.0,15252.0
2026-05-06 16:34:55.059076,914897,1609507558455713,5158367785,0.544608,0.366976,0.45872,-12.53,5.57375,-10.43,-45.448,1.432,-61.328003,concentric,4,5.0,32752.0,35200.0,89871.0,88954.0,30413.0,44250.0,39621.0,50783.0,20581.0,15252.0
2026-05-06 16:34:55.092672,914898,1609507558470275,5158382756,0.65392,0.265472,0.544608,-14.14875,9.03,-8.30375,-44.784,2.936,-61.888004,concentric,4,5.0,32752.0,35200.0,89871.0,88954.0,30413.0,44250.0,39621.0,50783.0,20581.0,15252.0
2026-05-06 16:34:55.095259,914899,1609507558479230,5158391440,0.65392,0.265472,0.544608,-14.8575,14.175,-3.50875,-44.784,2.936,-61.888004,concentric,4,5.0,32752.0,35200.0,89871.0,88954.0,30413.0,44250.0,39621.0,50783.0,20581.0,15252.0
2026-05-06 16:34:55.097993,914900,1609507558493778,5158406435,0.56608,0.378688,0.60512,-12.25875,19.13625,5.3375,-45.352,3.248,-61.288002,concentric,4,5.0,32752.0,35200.0,89871.0,88954.0,30413.0,44250.0,39621.0,50783.0,20581.0,15252.0
2026-05-06 16:34:55.127996,914901,1609507558502732,5158415149,0.56608,0.378688,0.60512,-8.77625,21.91,12.6875,-45.352,3.248,-61.288002,concentric,4,5.0,32752.0,35200.0,89871.0,88954.0,30413.0,44250.0,39621.0,50783.0,20581.0,15252.0
2026-05-06 16:34:55.155198,914912,1609507558511874,5158423907,0.538752,0.515328,0.489952,-8.96,22.3825,12.83625,-45.120003,3.336,-61.112003,concentric,4,5.0,32865.0,35225.0,90270.0,89604.0,30521.0,44312.0,39868.0,51129.0,20633.0,15275.0
2026-05-06 16:34:55.157841,914913,1609507558526445,5158438828,0.538752,0.3904,0.435296,-12.25,22.960001,7.8925,-45.120003,3.336,-61.112003,concentric,4,5.0,32865.0,35225.0,90270.0,89604.0,30521.0,44312.0,39868.0,51129.0,20633.0,15275.0
2026-05-06 16:34:55.160445,914914,1609507558535371,5158447601,0.571936,0.3904,0.435296,-10.12375,21.35,1.53125,-45.320004,3.464,-61.128002,concentric,4,5.0,32865.0,35225.0,90270.0,89604.0,30521.0,44312.0,39868.0,51129.0,20633.0,15275.0
2026-05-06 16:34:55.162887,914915,1609507558550043,5158462591,0.560224,0.366976,0.50752,-2.5375,18.41,-0.23625,-45.336002,-0.064,-58.4,concentric,4,5.0,32865.0,35225.0,90270.0,89604.0,30521.0,44312.0,39868.0,51129.0,20633.0,15275.0
2026-05-06 16:34:55.165421,914916,1609507558559171,5158471356,0.560224,0.366976,0.50752,1.16375,15.2425,1.67125,-45.336002,-0.064,-58.4,concentric,4,5.0,32865.0,35225.0,90270.0,89604.0,30521.0,44312.0,39868.0,51129.0,20633.0,15275.0
2026-05-06 16:34:55.174171,914917,1609507558568124,5158480168,0.511424,0.462624,0.5368,-1.51375,11.89125,2.1175,-45.304,1.752,-57.888004,concentric,4,5.0,32865.0,35225.0,90270.0,89604.0,30521.0,44312.0,39868.0,51129.0,20633.0,15275.0
2026-05-06 16:34:55.188013,914918,1609507558582670,5158495129,0.511424,0.462624,0.5368,-5.74875,8.26,1.53125,-45.304,1.752,-57.888004,concentric,4,5.0,32865.0,35225.0,90270.0,89604.0,30521.0,44312.0,39868.0,51129.0,20633.0,15275.0
2026-05-06 16:34:55.196725,914919,1609507558591608,5158503859,0.5368,0.46848,0.443104,-9.59875,5.355,-2.52875,-45.440002,3.536,-60.08,concentric,4,5.0,32865.0,35225.0,90270.0,89604.0,30521.0,44312.0,39868.0,51129.0,20633.0,15275.0
2026-05-06 16:34:55.257810,914930,1609507558606093,5158519139,0.5368,0.46848,0.443104,-7.525,3.21125,-6.2825,-45.440002,3.536,-60.08,concentric,4,5.0,32952.0,35404.0,91026.0,89694.0,30616.0,44524.0,40262.0,51221.0,20710.0,15371.0
2026-05-06 16:34:55.260310,914931,1609507558615167,5158527911,0.56608,0.345504,0.568032,-0.67375,1.32125,-6.92125,-45.472004,3.632,-60.456,concentric,4,5.0,32952.0,35404.0,91026.0,89694.0,30616.0,44524.0,40262.0,51221.0,20710.0,15371.0
2026-05-06 16:34:55.262868,914932,1609507558629901,5158540772,0.538752,0.452864,0.601216,0.67375,-0.42875,-5.8975,-45.408,4.016,-60.024002,concentric,4,5.0,32952.0,35404.0,91026.0,89694.0,30616.0,44524.0,40262.0,51221.0,20710.0,15371.0
2026-05-06 16:34:55.265303,914933,1609507558639248,5158551588,0.538752,0.452864,0.601216,-3.94625,-1.225,-3.605,-45.408,4.016,-60.024002,concentric,4,5.0,32952.0,35404.0,91026.0,89694.0,30616.0,44524.0,40262.0,51221.0,20710.0,15371.0
2026-05-06 16:34:55.267900,914934,1609507558648225,5158560347,0.558272,0.5368,0.493856,-7.9975,-1.9075,-4.8825,-45.68,3.744,-60.304005,concentric,4,5.0,32952.0,35404.0,91026.0,89694.0,30616.0,44524.0,40262.0,51221.0,20710.0,15371.0
2026-05-06 16:34:55.270221,914935,1609507558662819,5158575294,0.558272,0.5368,0.493856,-11.4275,-2.9225,-11.08625,-45.68,3.744,-60.304005,concentric,4,5.0,32952.0,35404.0,91026.0,89694.0,30616.0,44524.0,40262.0,51221.0,20710.0,15371.0
2026-05-06 16:34:55.276618,914936,1609507558671863,5158584033,0.573888,0.333792,0.548512,-13.230001,-2.98375,-18.15625,-46.088,3.592,-60.088,concentric,4,5.0,32952.0,35404.0,91026.0,89694.0,30616.0,44524.0,40262.0,51221.0,20710.0,15371.0
2026-05-06 16:34:55.291705,914937,1609507558686355,5158598952,0.573888,0.333792,0.548512,-9.485,-3.70125,-19.01375,-46.088,3.592,-60.088,concentric,4,5.0,32952.0,35404.0,91026.0,89694.0,30616.0,44524.0,40262.0,51221.0,20710.0,15371.0
2026-05-06 16:34:55.300493,914938,1609507558695268,5158607702,0.560224,0.394304,0.628544,-4.7425,-4.13,-14.035,-46.264004,1.76,-58.504,concentric,4,5.0,32952.0,35404.0,91026.0,89694.0,30616.0,44524.0,40262.0,51221.0,20710.0,15371.0
2026-05-06 16:34:55.335162,914939,1609507558704353,5158616464,0.560224,0.394304,0.628544,-6.685,-4.76875,-9.31875,-46.264004,1.76,-58.504,concentric,4,5.0,32952.0,35404.0,91026.0,89694.0,30616.0,44524.0,40262.0,51221.0,20710.0,15371.0
2026-05-06 16:34:55.398688,914950,1609507558718968,5158631475,0.583648,0.509472,0.5856,-14.46375,-4.22625,-10.85875,-45.760002,2.984,-60.360004,concentric,4,5.0,33217.0,35721.0,91801.0,90008.0,30859.0,44863.0,40655.0,51387.0,20842.0,15510.0
2026-05-06 16:34:55.401203,914951,1609507558727885,5158640226,0.583648,0.450912,0.515328,-23.616251,-3.7625,-15.72375,-45.760002,2.984,-60.360004,concentric,4,5.0,33217.0,35721.0,91801.0,90008.0,30859.0,44863.0,40655.0,51387.0,20842.0,15510.0
2026-05-06 16:34:55.403782,914952,1609507558742511,5158655130,0.6344,0.450912,0.515328,-25.725,-4.13875,-20.60625,-46.288002,2.952,-59.320004,concentric,4,5.0,33217.0,35721.0,91801.0,90008.0,30859.0,44863.0,40655.0,51387.0,20842.0,15510.0
2026-05-06 16:34:55.406568,914953,1609507558751683,5158663876,0.679296,0.363072,0.651968,-19.32875,-6.48375,-20.25625,-46.672,2.552,-60.168003,concentric,4,5.0,33217.0,35721.0,91801.0,90008.0,30859.0,44863.0,40655.0,51387.0,20842.0,15510.0
2026-05-06 16:34:55.412880,914954,1609507558760608,5158672597,0.679296,0.363072,0.651968,-17.7625,-10.36,-18.76,-46.672,2.552,-60.168003,concentric,4,5.0,33217.0,35721.0,91801.0,90008.0,30859.0,44863.0,40655.0,51387.0,20842.0,15510.0
2026-05-06 16:34:55.415361,914955,1609507558775207,5158687532,0.622688,0.394304,0.622688,-23.73875,-12.32875,-15.6975,-47.088,3.288,-60.608,concentric,4,5.0,33217.0,35721.0,91801.0,90008.0,30859.0,44863.0,40655.0,51387.0,20842.0,15510.0
2026-05-06 16:34:55.417958,914956,1609507558784226,5158696260,0.622688,0.394304,0.622688,-24.7275,-13.95625,-8.505,-47.088,3.288,-60.608,concentric,4,5.0,33217.0,35721.0,91801.0,90008.0,30859.0,44863.0,40655.0,51387.0,20842.0,15510.0
2026-05-06 16:34:55.421876,914957,1609507558798789,5158711231,0.698816,0.431392,0.564128,-20.44875,-14.69125,-5.97625,-46.824,1.064,-59.624004,concentric,4,5.0,33217.0,35721.0,91801.0,90008.0,30859.0,44863.0,40655.0,51387.0,20842.0,15510.0
2026-05-06 16:34:55.447811,914968,1609507558807752,5158720374,0.698816,0.431392,0.564128,-15.435,-15.07625,-7.14875,-46.824,1.064,-59.624004,concentric,4,5.0,33356.0,35859.0,92457.0,90257.0,30982.0,44992.0,40984.0,51530.0,20907.0,15565.0
2026-05-06 16:34:55.452802,914969,1609507558822329,5158733298,0.650016,0.259616,0.64416,-10.40375,-14.25375,-5.88875,-46.784,3.384,-61.192,concentric,4,5.0,33356.0,35859.0,92457.0,90257.0,30982.0,44992.0,40984.0,51530.0,20907.0,15565.0
2026-05-06 16:34:55.455413,914970,1609507558831846,5158744179,0.655872,0.450912,0.66368,-1.56625,-14.84,1.39125,-47.424004,0.192,-58.688004,concentric,4,5.0,33356.0,35859.0,92457.0,90257.0,30982.0,44992.0,40984.0,51530.0,20907.0,15565.0
2026-05-06 16:34:55.457947,914971,1609507558840799,5158752897,0.655872,0.450912,0.66368,2.47625,-15.21625,6.93,-47.424004,0.192,-58.688004,concentric,4,5.0,33356.0,35859.0,92457.0,90257.0,30982.0,44992.0,40984.0,51530.0,20907.0,15565.0
2026-05-06 16:34:55.460459,914972,1609507558855335,5158767835,0.687104,0.349408,0.636352,-2.03875,-15.0675,5.01375,-47.424004,0.344,-58.600002,concentric,4,5.0,33356.0,35859.0,92457.0,90257.0,30982.0,44992.0,40984.0,51530.0,20907.0,15565.0
2026-05-06 16:34:55.469069,914973,1609507558864500,5158776630,0.687104,0.349408,0.636352,-8.4525,-13.230001,0.455,-47.424004,0.344,-58.600002,concentric,4,5.0,33356.0,35859.0,92457.0,90257.0,30982.0,44992.0,40984.0,51530.0,20907.0,15565.0
2026-05-06 16:34:55.505646,914974,1609507558878972,5158791578,0.655872,0.337696,0.599264,-6.34375,-12.11875,1.81125,-46.896004,3.52,-61.040005,concentric,4,5.0,33356.0,35859.0,92457.0,90257.0,30982.0,44992.0,40984.0,51530.0,20907.0,15565.0
2026-05-06 16:34:55.506031,914975,1609507558887953,5158800284,0.655872,0.337696,0.599264,-0.48125,-11.12125,4.06,-46.896004,3.52,-61.040005,concentric,4,5.0,33356.0,35859.0,92457.0,90257.0,30982.0,44992.0,40984.0,51530.0,20907.0,15565.0
2026-05-06 16:34:55.507784,914976,1609507558896889,5158808995,0.6344,0.445056,0.636352,7.3325,-10.89375,4.6375,-47.664,3.712,-61.624004,concentric,4,5.0,33356.0,35859.0,92457.0,90257.0,30982.0,44992.0,40984.0,51530.0,20907.0,15565.0
2026-05-06 16:34:55.543852,914987,1609507558911455,5158824013,0.669536,0.376736,0.630496,10.15,-11.06,0.83125,-47.616,1.896,-59.856003,concentric,4,5.0,33547.0,36039.0,92971.0,90571.0,31166.0,45201.0,41286.0,51710.0,21012.0,15662.0
2026-05-06 16:34:55.546632,914988,1609507558920629,5158832886,0.669536,0.376736,0.630496,7.6125,-10.50875,-3.885,-47.616,1.896,-59.856003,concentric,4,5.0,33547.0,36039.0,92971.0,90571.0,31166.0,45201.0,41286.0,51710.0,21012.0,15662.0
2026-05-06 16:34:55.549093,914989,1609507558935225,5158847831,0.667584,0.38064,0.583648,6.3875,-8.98625,-5.39875,-47.368004,1.944,-60.232002,concentric,4,5.0,33547.0,36039.0,92971.0,90571.0,31166.0,45201.0,41286.0,51710.0,21012.0,15662.0
2026-05-06 16:34:55.551593,914990,1609507558944182,5158856661,0.667584,0.38064,0.583648,11.47125,-8.05,-3.78,-47.368004,1.944,-60.232002,concentric,4,5.0,33547.0,36039.0,92971.0,90571.0,31166.0,45201.0,41286.0,51710.0,21012.0,15662.0
2026-05-06 16:34:55.557994,914991,1609507558953176,5158865372,0.669536,0.435296,0.587552,12.53875,-7.49875,-3.5525,-47.984,1.808,-60.168003,concentric,4,5.0,33547.0,36039.0,92971.0,90571.0,31166.0,45201.0,41286.0,51710.0,21012.0,15662.0
2026-05-06 16:34:55.579244,914992,1609507558967690,5158880329,0.669536,0.435296,0.587552,9.47625,-6.93,-5.0575,-47.984,1.808,-60.168003,concentric,4,5.0,33547.0,36039.0,92971.0,90571.0,31166.0,45201.0,41286.0,51710.0,21012.0,15662.0
2026-05-06 16:34:55.581743,914993,1609507558976602,5158889039,0.6344,0.499712,0.60512,8.84625,-5.9325,-6.27375,-47.4,3.736,-61.360004,concentric,4,5.0,33547.0,36039.0,92971.0,90571.0,31166.0,45201.0,41286.0,51710.0,21012.0,15662.0
2026-05-06 16:34:55.595536,914994,1609507558991106,5158901901,0.72224,0.378688,0.591456,11.1125,-6.02,-6.0725,-48.272003,3.904,-60.048004,concentric,4,5.0,33547.0,36039.0,92971.0,90571.0,31166.0,45201.0,41286.0,51710.0,21012.0,15662.0
2026-05-06 16:34:55.609064,914995,1609507559000333,5158912689,0.72224,0.378688,0.591456,9.415,-5.57375,-8.11125,-48.272003,3.904,-60.048004,concentric,4,5.0,33547.0,36039.0,92971.0,90571.0,31166.0,45201.0,41286.0,51710.0,21012.0,15662.0
2026-05-06 16:34:55.637976,915006,1609507559015087,5158925861,0.698816,0.423584,0.569984,6.0025,-5.075,-7.11375,-48.048004,3.92,-60.976,concentric,4,5.0,33600.0,36042.0,92857.0,90649.0,31244.0,45223.0,41209.0,51777.0,21050.0,15684.0
2026-05-06 16:34:55.640412,915007,1609507559024396,5158936916,0.698816,0.423584,0.569984,4.94375,-4.795,-2.91375,-48.048004,3.92,-60.976,concentric,4,5.0,33600.0,36042.0,92857.0,90649.0,31244.0,45223.0,41209.0,51777.0,21050.0,15684.0
2026-05-06 16:34:55.642923,915008,1609507559033395,5158945711,0.6832,0.542656,0.61488,8.75,-3.99,0.84,-48.08,3.576,-61.192,concentric,4,5.0,33600.0,36042.0,92857.0,90649.0,31244.0,45223.0,41209.0,51777.0,21050.0,15684.0
2026-05-06 16:34:55.656707,915009,1609507559047975,5158960633,0.6832,0.542656,0.61488,11.55875,-2.8,0.44625,-48.08,3.576,-61.192,concentric,4,5.0,33600.0,36042.0,92857.0,90649.0,31244.0,45223.0,41209.0,51777.0,21050.0,15684.0
2026-05-06 16:34:55.664261,915010,1609507559056898,5158969373,0.732,0.44896,0.61488,8.2425,-2.10875,-3.4825,-48.248,3.888,-61.168003,concentric,4,5.0,33600.0,36042.0,92857.0,90649.0,31244.0,45223.0,41209.0,51777.0,21050.0,15684.0
2026-05-06 16:34:55.700051,915011,1609507559071462,5158982249,0.710528,0.456768,0.6344,0.0525,-0.42875,-5.67,-47.728,3.936,-60.624004,concentric,4,5.0,33600.0,36042.0,92857.0,90649.0,31244.0,45223.0,41209.0,51777.0,21050.0,15684.0
2026-05-06 16:34:55.736530,915012,1609507559080682,5158993048,0.710528,0.456768,0.6344,-5.635,1.61875,-4.78625,-47.728,3.936,-60.624004,concentric,4,5.0,33600.0,36042.0,92857.0,90649.0,31244.0,45223.0,41209.0,51777.0,21050.0,15684.0
2026-05-06 16:34:55.739151,915013,1609507559089628,5159001730,0.710528,0.456768,0.6344,-4.83,3.78875,-1.925,-47.728,3.936,-60.624004,concentric,4,5.0,33600.0,36042.0,92857.0,90649.0,31244.0,45223.0,41209.0,51777.0,21050.0,15684.0
2026-05-06 16:34:55.766454,915014,1609507559104154,5159016671,0.759328,0.427488,0.630496,-4.5675,6.25625,-2.73,-48.08,4.224,-61.664,concentric,4,5.0,33600.0,36042.0,92857.0,90649.0,31244.0,45223.0,41209.0,51777.0,21050.0,15684.0
2026-05-06 16:34:55.797812,915025,1609507559113591,5159025469,0.794464,0.40992,0.669536,-3.89375,10.5875,-1.00625,-48.160004,4.272,-60.528004,concentric,4,5.0,33554.0,35982.0,92792.0,90841.0,31188.0,45167.0,41181.0,51877.0,21018.0,15645.0
2026-05-06 16:34:55.800041,915026,1609507559128177,5159040410,0.794464,0.40992,0.669536,-2.61625,14.6125,1.47875,-48.160004,4.272,-60.528004,concentric,4,5.0,33554.0,35982.0,92792.0,90841.0,31188.0,45167.0,41181.0,51877.0,21018.0,15645.0
2026-05-06 16:34:55.802782,915027,1609507559137089,5159049112,0.757376,0.417728,0.659776,-4.59375,17.7975,2.30125,-48.128002,4.152,-60.328003,concentric,4,5.0,33554.0,35982.0,92792.0,90841.0,31188.0,45167.0,41181.0,51877.0,21018.0,15645.0
2026-05-06 16:34:55.805329,915028,1609507559146013,5159057888,0.757376,0.417728,0.659776,-5.88875,19.8625,7.23625,-48.128002,4.152,-60.328003,concentric,4,5.0,33554.0,35982.0,92792.0,90841.0,31188.0,45167.0,41181.0,51877.0,21018.0,15645.0
2026-05-06 16:34:55.810341,915029,1609507559160502,5159072831,0.745664,0.564128,0.66368,-9.26625,20.86,9.28375,-47.976,4.888,-59.792004,concentric,4,5.0,33554.0,35982.0,92792.0,90841.0,31188.0,45167.0,41181.0,51877.0,21018.0,15645.0
2026-05-06 16:34:55.812773,915030,1609507559169466,5159081568,0.745664,0.564128,0.66368,-12.46875,20.44875,5.59125,-47.976,4.888,-59.792004,concentric,4,5.0,33554.0,35982.0,92792.0,90841.0,31188.0,45167.0,41181.0,51877.0,21018.0,15645.0
2026-05-06 16:34:55.815368,915031,1609507559184149,5159096561,0.728096,0.503616,0.591456,-8.2425,18.0425,-1.2775,-48.312004,3.936,-59.728004,concentric,4,5.0,33554.0,35982.0,92792.0,90841.0,31188.0,45167.0,41181.0,51877.0,21018.0,15645.0
2026-05-06 16:34:55.817810,915032,1609507559193203,5159105319,0.739808,0.482144,0.689056,0.525,14.14875,-5.53875,-48.424004,0.648,-57.608,concentric,4,5.0,33554.0,35982.0,92792.0,90841.0,31188.0,45167.0,41181.0,51877.0,21018.0,15645.0
2026-05-06 16:34:55.820313,915033,1609507559202263,5159114076,0.739808,0.482144,0.689056,6.37875,9.65125,-4.7425,-48.424004,0.648,-57.608,concentric,4,5.0,33554.0,35982.0,92792.0,90841.0,31188.0,45167.0,41181.0,51877.0,21018.0,15645.0
2026-05-06 16:34:55.852901,915044,1609507559216972,5159129161,0.745664,0.503616,0.696864,1.61,5.80125,-3.61375,-48.216003,2.528,-58.568005,concentric,4,5.0,33449.0,35824.0,92505.0,90819.0,31075.0,44975.0,41010.0,51810.0,20972.0,15568.0
2026-05-06 16:34:55.855456,915045,1609507559226045,5159138029,0.745664,0.503616,0.696864,-5.6,3.49125,-3.91125,-48.216003,2.528,-58.568005,concentric,4,5.0,33449.0,35824.0,92505.0,90819.0,31075.0,44975.0,41010.0,51810.0,20972.0,15568.0
2026-05-06 16:34:55.857977,915046,1609507559240602,5159152988,0.726144,0.489952,0.657824,-5.62625,2.02125,-4.05125,-47.960003,2.344,-58.648003,concentric,4,5.0,33449.0,35824.0,92505.0,90819.0,31075.0,44975.0,41010.0,51810.0,20972.0,15568.0
2026-05-06 16:34:55.860456,915047,1609507559249613,5159161808,0.726144,0.489952,0.657824,-2.7125,-0.4025,-4.62875,-47.960003,2.344,-58.648003,concentric,4,5.0,33449.0,35824.0,92505.0,90819.0,31075.0,44975.0,41010.0,51810.0,20972.0,15568.0
2026-05-06 16:34:55.869020,915048,1609507559264226,5159176763,0.6832,0.589504,0.667584,0.32375,-1.86375,-3.17625,-48.256,2.344,-58.616,eccentric,4,5.0,33449.0,35824.0,92505.0,90819.0,31075.0,44975.0,41010.0,51810.0,20972.0,15568.0
2026-05-06 16:34:55.877831,915049,1609507559273311,5159185472,0.749568,0.511424,0.728096,1.1725,-2.89625,-4.15625,-48.272003,2.464,-59.736004,eccentric,4,5.0,33449.0,35824.0,92505.0,90819.0,31075.0,44975.0,41010.0,51810.0,20972.0,15568.0
2026-05-06 16:34:55.888046,915050,1609507559282448,5159194177,0.749568,0.511424,0.728096,-3.03625,-2.66,-8.5925,-48.272003,2.464,-59.736004,eccentric,4,5.0,33449.0,35824.0,92505.0,90819.0,31075.0,44975.0,41010.0,51810.0,20972.0,15568.0
2026-05-06 16:34:55.902970,915051,1609507559296947,5159209305,0.772992,0.404064,0.743712,-6.3175,-0.2275,-9.2575,-48.312004,3.68,-59.792004,eccentric,4,5.0,33449.0,35824.0,92505.0,90819.0,31075.0,44975.0,41010.0,51810.0,20972.0,15568.0
2026-05-06 16:34:55.911649,915052,1609507559305909,5159218037,0.772992,0.404064,0.743712,-7.3325,2.3275,-5.95875,-48.312004,3.68,-59.792004,eccentric,4,5.0,33449.0,35824.0,92505.0,90819.0,31075.0,44975.0,41010.0,51810.0,20972.0,15568.0
2026-05-06 16:34:55.940771,915063,1609507559320453,5159233238,0.76128,0.505568,0.694912,-4.3225,4.89125,0.875,-48.272003,4.456,-59.016003,eccentric,4,5.0,33311.0,35747.0,92385.0,90910.0,30939.0,44862.0,40946.0,51879.0,20880.0,15533.0
2026-05-06 16:34:55.943002,915064,1609507559329429,5159241971,0.76128,0.505568,0.694912,-2.44125,6.09875,3.71,-48.272003,4.456,-59.016003,eccentric,4,5.0,33311.0,35747.0,92385.0,90910.0,30939.0,44862.0,40946.0,51879.0,20880.0,15533.0
2026-05-06 16:34:55.945464,915065,1609507559338397,5159250818,0.763232,0.501664,0.691008,-2.5025,6.0725,2.16125,-48.04,4.096,-59.520004,eccentric,4,5.0,33311.0,35747.0,92385.0,90910.0,30939.0,44862.0,40946.0,51879.0,20880.0,15533.0
2026-05-06 16:34:55.956600,915066,1609507559352922,5159263719,0.77104,0.488,0.714432,-3.77125,4.9525,0.1575,-48.04,2.048,-60.552002,eccentric,4,5.0,33311.0,35747.0,92385.0,90910.0,30939.0,44862.0,40946.0,51879.0,20880.0,15533.0
2026-05-06 16:34:55.970465,915067,1609507559362494,5159274551,0.77104,0.488,0.714432,-3.465,3.9725,-0.4725,-48.280003,3.792,-60.552002,eccentric,4,5.0,33311.0,35747.0,92385.0,90910.0,30939.0,44862.0,40946.0,51879.0,20880.0,15533.0
2026-05-06 16:34:55.986297,915068,1609507559377021,5159289485,0.765184,0.443104,0.69296,-3.6575,2.49375,-1.35625,-47.944004,4.4,-59.72,eccentric,4,5.0,33311.0,35747.0,92385.0,90910.0,30939.0,44862.0,40946.0,51879.0,20880.0,15533.0
2026-05-06 16:34:55.991537,915069,1609507559385957,5159298214,0.765184,0.443104,0.69296,-2.94,0.79625,-1.56625,-47.944004,4.4,-59.72,eccentric,4,5.0,33311.0,35747.0,92385.0,90910.0,30939.0,44862.0,40946.0,51879.0,20880.0,15533.0
2026-05-06 16:34:55.997820,915070,1609507559394955,5159306983,0.763232,0.454816,0.691008,-2.00375,-1.2425,-1.30375,-47.664,4.048,-59.464005,eccentric,4,5.0,33311.0,35747.0,92385.0,90910.0,30939.0,44862.0,40946.0,51879.0,20880.0,15533.0
2026-05-06 16:34:56.031682,915071,1609507559409430,5159321908,0.763232,0.454816,0.691008,-2.70375,-3.2725,-1.14625,-47.664,4.048,-59.464005,eccentric,4,5.0,33311.0,35747.0,92385.0,90910.0,30939.0,44862.0,40946.0,51879.0,20880.0,15533.0
2026-05-06 16:34:56.121791,915082,1609507559418523,5159330667,0.735904,0.501664,0.710528,-0.49,-5.11875,-0.945,-47.640003,3.992,-59.872,eccentric,4,5.0,33179.0,35633.0,92290.0,90920.0,30799.0,44776.0,40897.0,51891.0,20797.0,15459.0
2026-05-06 16:34:56.124154,915083,1609507559432978,5159343743,0.735904,0.501664,0.706624,0.805,-6.0725,-1.8725,-47.640003,3.992,-59.872,eccentric,4,5.0,33179.0,35633.0,92290.0,90920.0,30799.0,44776.0,40897.0,51891.0,20797.0,15459.0
2026-05-06 16:34:56.126701,915084,1609507559442278,5159354554,0.739808,0.450912,0.706624,0.39375,-5.67875,-4.06875,-47.656002,3.576,-63.256004,eccentric,4,5.0,33179.0,35633.0,92290.0,90920.0,30799.0,44776.0,40897.0,51891.0,20797.0,15459.0
2026-05-06 16:34:56.129210,915085,1609507559451267,5159363281,0.739808,0.450912,0.706624,0.18375,-4.97,-6.1425,-47.656002,3.576,-63.256004,eccentric,4,5.0,33179.0,35633.0,92290.0,90920.0,30799.0,44776.0,40897.0,51891.0,20797.0,15459.0
2026-05-06 16:34:56.131725,915086,1609507559465936,5159378212,0.749568,0.421632,0.671488,0.93625,-3.815,-4.69875,-47.512,3.704,-60.072002,eccentric,4,5.0,33179.0,35633.0,92290.0,90920.0,30799.0,44776.0,40897.0,51891.0,20797.0,15459.0
2026-05-06 16:34:56.134189,915087,1609507559474862,5159386940,0.708576,0.452864,0.675392,0.595,-3.3425,-2.26625,-47.416,3.696,-59.088,eccentric,4,5.0,33179.0,35633.0,92290.0,90920.0,30799.0,44776.0,40897.0,51891.0,20797.0,15459.0
2026-05-06 16:34:56.136976,915088,1609507559489375,5159401801,0.708576,0.452864,0.675392,-2.24875,-2.835,-0.90125,-47.416,3.696,-59.088,eccentric,4,5.0,33179.0,35633.0,92290.0,90920.0,30799.0,44776.0,40897.0,51891.0,20797.0,15459.0
2026-05-06 16:34:56.139192,915089,1609507559498339,5159410523,0.669536,0.47824,0.659776,-2.82625,-2.68625,-0.8575,-47.24,3.24,-60.432003,eccentric,4,5.0,33179.0,35633.0,92290.0,90920.0,30799.0,44776.0,40897.0,51891.0,20797.0,15459.0
2026-05-06 16:34:56.169465,915101,1609507559512892,5159425454,0.669536,0.47824,0.659776,-0.30625,-1.3475,-0.805,-47.24,3.24,-60.432003,eccentric,4,5.0,33306.0,35698.0,92115.0,90531.0,30943.0,44848.0,40821.0,51683.0,20875.0,15517.0
2026-05-06 16:34:56.171299,915102,1609507559521866,5159434217,0.69296,0.40016,0.638304,3.4475,-0.3675,-1.6975,-47.112003,3.296,-60.960003,eccentric,4,5.0,33306.0,35698.0,92115.0,90531.0,30943.0,44848.0,40821.0,51683.0,20875.0,15517.0
2026-05-06 16:34:56.174050,915103,1609507559530850,5159442966,0.69296,0.40016,0.638304,2.9925,1.81125,-1.84625,-47.112003,3.296,-60.960003,eccentric,4,5.0,33306.0,35698.0,92115.0,90531.0,30943.0,44848.0,40821.0,51683.0,20875.0,15517.0
2026-05-06 16:34:56.176589,915104,1609507559545621,5159458052,0.685152,0.347456,0.648064,-0.035,3.98125,2.44125,-46.792004,3.2,-60.200005,eccentric,4,5.0,33306.0,35698.0,92115.0,90531.0,30943.0,44848.0,40821.0,51683.0,20875.0,15517.0
2026-05-06 16:34:56.179038,915105,1609507559554678,5159466819,0.64416,0.421632,0.632448,-2.93125,5.34625,6.09,-46.792004,3.832,-58.4,eccentric,4,5.0,33306.0,35698.0,92115.0,90531.0,30943.0,44848.0,40821.0,51683.0,20875.0,15517.0
2026-05-06 16:34:56.181575,915106,1609507559569188,5159481850,0.64416,0.421632,0.632448,-5.90625,6.44875,8.25125,-46.904003,3.832,-58.4,eccentric,4,5.0,33306.0,35698.0,92115.0,90531.0,30943.0,44848.0,40821.0,51683.0,20875.0,15517.0
2026-05-06 16:34:56.184088,915107,1609507559578193,5159490595,0.655872,0.347456,0.552416,-5.83625,7.35875,8.32125,-46.280003,2.16,-59.280003,eccentric,4,5.0,33306.0,35698.0,92115.0,90531.0,30943.0,44848.0,40821.0,51683.0,20875.0,15517.0
2026-05-06 16:34:56.192909,915108,1609507559587129,5159499308,0.655872,0.347456,0.552416,-3.61375,8.0675,7.525,-46.280003,2.16,-59.280003,eccentric,4,5.0,33306.0,35698.0,92115.0,90531.0,30943.0,44848.0,40821.0,51683.0,20875.0,15517.0
2026-05-06 16:34:56.206678,915109,1609507559601715,5159514253,0.60512,0.343552,0.618784,1.3475,8.1025,8.855001,-46.120003,3.8,-60.360004,eccentric,4,5.0,33306.0,35698.0,92115.0,90531.0,30943.0,44848.0,40821.0,51683.0,20875.0,15517.0
2026-05-06 16:34:56.220360,915110,1609507559610645,5159522961,0.60512,0.343552,0.618784,5.18875,6.86,10.8675,-46.120003,3.8,-60.360004,eccentric,4,5.0,33306.0,35698.0,92115.0,90531.0,30943.0,44848.0,40821.0,51683.0,20875.0,15517.0
2026-05-06 16:34:56.251303,915121,1609507559625248,5159537977,0.60512,0.353312,0.544608,2.73,5.46,11.59375,-46.024002,3.472,-60.552002,eccentric,4,5.0,33301.0,35620.0,91845.0,90278.0,30887.0,44703.0,40653.0,51530.0,20880.0,15469.0
2026-05-06 16:34:56.251613,915122,1609507559634360,5159546772,0.60512,0.353312,0.544608,-1.93375,3.9025,10.99875,-46.024002,3.472,-60.552002,eccentric,4,5.0,33301.0,35620.0,91845.0,90278.0,30887.0,44703.0,40653.0,51530.0,20880.0,15469.0
2026-05-06 16:34:56.252597,915123,1609507559648947,5159559815,0.568032,0.38064,0.540704,-1.715,2.17,10.70125,-45.800003,4.144,-60.520004,eccentric,4,5.0,33301.0,35620.0,91845.0,90278.0,30887.0,44703.0,40653.0,51530.0,20880.0,15469.0
2026-05-06 16:34:56.266535,915124,1609507559658321,5159570604,0.558272,0.42944,0.54656,-0.63875,0.25375,8.3475,-45.904003,4.072,-60.656002,eccentric,4,5.0,33301.0,35620.0,91845.0,90278.0,30887.0,44703.0,40653.0,51530.0,20880.0,15469.0
2026-05-06 16:34:56.272608,915125,1609507559667232,5159579316,0.558272,0.42944,0.54656,0.98875,-1.11125,5.76625,-45.904003,4.072,-60.656002,eccentric,4,5.0,33301.0,35620.0,91845.0,90278.0,30887.0,44703.0,40653.0,51530.0,20880.0,15469.0
2026-05-06 16:34:56.286440,915126,1609507559681853,5159594289,0.558272,0.40992,0.5368,1.8725,-3.1325,0.56,-45.68,3.768,-59.768,eccentric,4,5.0,33301.0,35620.0,91845.0,90278.0,30887.0,44703.0,40653.0,51530.0,20880.0,15469.0
2026-05-06 16:34:56.295346,915127,1609507559690781,5159603000,0.558272,0.40992,0.5368,-1.1025,-4.17375,-3.395,-45.68,3.768,-59.768,eccentric,4,5.0,33301.0,35620.0,91845.0,90278.0,30887.0,44703.0,40653.0,51530.0,20880.0,15469.0
2026-05-06 16:34:56.319122,915128,1609507559705344,5159617924,0.568032,0.404064,0.589504,-4.4625,-5.285,-5.565,-45.2,3.504,-60.976,eccentric,4,5.0,33301.0,35620.0,91845.0,90278.0,30887.0,44703.0,40653.0,51530.0,20880.0,15469.0
2026-05-06 16:34:56.346711,915139,1609507559714295,5159626619,0.568032,0.404064,0.589504,-10.99875,-4.7425,-9.66,-45.2,3.504,-60.976,eccentric,4,5.0,33214.0,35573.0,91602.0,90139.0,30802.0,44675.0,40535.0,51461.0,20826.0,15457.0
2026-05-06 16:34:56.349211,915140,1609507559724025,5159635395,0.552416,0.386496,0.534848,-13.51,-3.5875,-11.1125,-45.312,3.28,-62.024002,eccentric,4,5.0,33214.0,35573.0,91602.0,90139.0,30802.0,44675.0,40535.0,51461.0,20826.0,15457.0
2026-05-06 16:34:56.354528,915141,1609507559738648,5159650374,0.57584,0.363072,0.495808,-12.5475,-2.45,-12.39875,-45.504,1.816,-60.160004,eccentric,4,5.0,33214.0,35573.0,91602.0,90139.0,30802.0,44675.0,40535.0,51461.0,20826.0,15457.0
2026-05-06 16:34:56.354780,915142,1609507559747563,5159659139,0.57584,0.363072,0.495808,-10.815,-0.84875,-11.41875,-45.504,1.816,-60.160004,eccentric,4,5.0,33214.0,35573.0,91602.0,90139.0,30802.0,44675.0,40535.0,51461.0,20826.0,15457.0
2026-05-06 16:34:56.367838,915143,1609507559762058,5159674117,0.552416,0.394304,0.560224,-7.9275,-0.39375,-9.56375,-45.800003,1.672,-60.472004,eccentric,4,5.0,33214.0,35573.0,91602.0,90139.0,30802.0,44675.0,40535.0,51461.0,20826.0,15457.0
2026-05-06 16:34:56.376555,915144,1609507559771000,5159682863,0.552416,0.394304,0.560224,-6.97375,-1.4875,-10.33375,-45.800003,1.672,-60.472004,eccentric,4,5.0,33214.0,35573.0,91602.0,90139.0,30802.0,44675.0,40535.0,51461.0,20826.0,15457.0
2026-05-06 16:34:56.407809,915145,1609507559779936,5159691602,0.532896,0.392352,0.528992,-9.42375,-2.79125,-11.05125,-45.272003,2.504,-61.488003,eccentric,4,5.0,33214.0,35573.0,91602.0,90139.0,30802.0,44675.0,40535.0,51461.0,20826.0,15457.0
2026-05-06 16:34:56.410483,915146,1609507559794401,5159706546,0.532896,0.392352,0.528992,-12.60875,-4.45375,-12.29375,-45.272003,2.504,-61.488003,eccentric,4,5.0,33214.0,35573.0,91602.0,90139.0,30802.0,44675.0,40535.0,51461.0,20826.0,15457.0
2026-05-06 16:34:56.435388,915147,1609507559803316,5159715244,0.54656,0.279136,0.493856,-14.0175,-5.4075,-11.795,-45.272003,3.192,-62.736004,eccentric,4,5.0,33214.0,35573.0,91602.0,90139.0,30802.0,44675.0,40535.0,51461.0,20826.0,15457.0
2026-05-06 16:34:56.512936,915158,1609507559817913,5159728761,0.569984,0.216672,0.569984,-14.20125,-5.17125,-9.135,-45.24,3.04,-61.888004,eccentric,4,5.0,33039.0,35501.0,91575.0,89810.0,30697.0,44607.0,40515.0,51320.0,20724.0,15403.0
2026-05-06 16:34:56.515213,915159,1609507559827263,5159739579,0.569984,0.216672,0.569984,-10.5,-4.27,-2.40625,-45.24,3.04,-61.888004,eccentric,4,5.0,33039.0,35501.0,91575.0,89810.0,30697.0,44607.0,40515.0,51320.0,20724.0,15403.0
2026-05-06 16:34:56.518039,915160,1609507559836281,5159748321,0.569984,0.339648,0.538752,-6.51875,-3.08875,5.39875,-45.24,3.04,-61.888004,eccentric,4,5.0,33039.0,35501.0,91575.0,89810.0,30697.0,44607.0,40515.0,51320.0,20724.0,15403.0
2026-05-06 16:34:56.520252,915161,1609507559850789,5159763213,0.503616,0.339648,0.538752,-6.0025,-1.575,10.33375,-45.312,3.264,-61.888004,eccentric,4,5.0,33039.0,35501.0,91575.0,89810.0,30697.0,44607.0,40515.0,51320.0,20724.0,15403.0
2026-05-06 16:34:56.522836,915162,1609507559859796,5159771915,0.501664,0.314272,0.415776,-7.91875,-1.435,10.36,-44.952003,3.648,-62.376003,eccentric,4,5.0,33039.0,35501.0,91575.0,89810.0,30697.0,44607.0,40515.0,51320.0,20724.0,15403.0
2026-05-06 16:34:56.525460,915163,1609507559874322,5159786839,0.501664,0.314272,0.415776,-8.7675,-2.1,9.19625,-44.952003,3.648,-62.376003,eccentric,4,5.0,33039.0,35501.0,91575.0,89810.0,30697.0,44607.0,40515.0,51320.0,20724.0,15403.0
2026-05-06 16:34:56.527973,915164,1609507559883294,5159795563,0.523136,0.197152,0.466528,-5.8625,-2.9225,9.695,-44.840004,3.704,-62.056004,eccentric,4,5.0,33039.0,35501.0,91575.0,89810.0,30697.0,44607.0,40515.0,51320.0,20724.0,15403.0
2026-05-06 16:34:56.532329,915165,1609507559897936,5159810532,0.482144,0.21472,0.450912,-3.71,-3.22875,12.8625,-44.232002,2.144,-61.176003,eccentric,4,5.0,33039.0,35501.0,91575.0,89810.0,30697.0,44607.0,40515.0,51320.0,20724.0,15403.0
2026-05-06 16:34:56.532824,915166,1609507559906885,5159819259,0.482144,0.21472,0.450912,-1.75875,-3.49125,18.61125,-44.232002,2.144,-61.176003,eccentric,4,5.0,33039.0,35501.0,91575.0,89810.0,30697.0,44607.0,40515.0,51320.0,20724.0,15403.0
2026-05-06 16:34:56.560252,915177,1609507559916628,5159828129,0.482144,0.21472,0.450912,-1.28625,-4.22625,23.30125,-44.232002,2.144,-61.176003,eccentric,4,5.0,33091.0,35480.0,91329.0,89727.0,30695.0,44604.0,40393.0,51269.0,20747.0,15430.0
2026-05-06 16:34:56.562821,915178,1609507559931253,5159843087,0.482144,0.353312,0.396256,-4.20875,-4.76875,24.395,-44.608,2.528,-63.56,eccentric,4,5.0,33091.0,35480.0,91329.0,89727.0,30695.0,44604.0,40393.0,51269.0,20747.0,15430.0
2026-05-06 16:34:56.565356,915179,1609507559940315,5159851795,0.491904,0.296704,0.402112,-3.57875,-5.52125,22.75,-44.296,4.192,-62.864002,eccentric,4,5.0,33091.0,35480.0,91329.0,89727.0,30695.0,44604.0,40393.0,51269.0,20747.0,15430.0
2026-05-06 16:34:56.567821,915180,1609507559955018,5159866723,0.491904,0.296704,0.402112,-1.4,-7.39375,16.5025,-44.296,4.192,-62.864002,eccentric,4,5.0,33091.0,35480.0,91329.0,89727.0,30695.0,44604.0,40393.0,51269.0,20747.0,15430.0
2026-05-06 16:34:56.570362,915181,1609507559964153,5159875462,0.50752,0.226432,0.44896,1.88125,-9.17875,14.4725,-44.072002,4.312,-63.112003,eccentric,4,5.0,33091.0,35480.0,91329.0,89727.0,30695.0,44604.0,40393.0,51269.0,20747.0,15430.0
2026-05-06 16:34:56.576452,915182,1609507559973063,5159884190,0.50752,0.226432,0.44896,5.005,-10.325,15.0325,-44.072002,4.312,-63.112003,eccentric,4,5.0,33091.0,35480.0,91329.0,89727.0,30695.0,44604.0,40393.0,51269.0,20747.0,15430.0
2026-05-06 16:34:56.590473,915183,1609507559987916,5159899187,0.47824,0.339648,0.466528,4.1475,-11.025,16.397501,-43.68,4.048,-62.176003,eccentric,4,5.0,33091.0,35480.0,91329.0,89727.0,30695.0,44604.0,40393.0,51269.0,20747.0,15430.0
2026-05-06 16:34:56.604211,915184,1609507559996875,5159907925,0.47824,0.339648,0.466528,0.65625,-10.52625,16.24,-43.68,4.048,-62.176003,eccentric,4,5.0,33091.0,35480.0,91329.0,89727.0,30695.0,44604.0,40393.0,51269.0,20747.0,15430.0
2026-05-06 16:34:56.612981,915185,1609507560006121,5159918731,0.51728,0.347456,0.464576,-3.92875,-9.135,12.0225,-43.912003,3.664,-63.680004,eccentric,4,5.0,33091.0,35480.0,91329.0,89727.0,30695.0,44604.0,40393.0,51269.0,20747.0,15430.0
2026-05-06 16:34:56.644056,915196,1609507560020842,5159932184,0.501664,0.327936,0.437248,-4.62,-8.33875,7.69125,-43.728,5.264,-63.384003,eccentric,4,5.0,33029.0,35447.0,91140.0,89593.0,30671.0,44546.0,40317.0,51232.0,20745.0,15413.0
2026-05-06 16:34:56.646523,915197,1609507560029849,5159940959,0.501664,0.327936,0.437248,-0.18375,-7.62125,5.67,-43.728,5.264,-63.384003,eccentric,4,5.0,33029.0,35447.0,91140.0,89593.0,30671.0,44546.0,40317.0,51232.0,20745.0,15413.0
2026-05-06 16:34:56.649098,915198,1609507560044777,5159955962,0.550464,0.324032,0.47824,3.36,-7.63,2.59,-43.488003,1.072,-61.632004,eccentric,4,5.0,33029.0,35447.0,91140.0,89593.0,30671.0,44546.0,40317.0,51232.0,20745.0,15413.0
2026-05-06 16:34:56.662856,915199,1609507560054250,5159966764,0.550464,0.324032,0.47824,3.17625,-7.56875,1.12875,-43.488003,1.072,-61.632004,eccentric,4,5.0,33029.0,35447.0,91140.0,89593.0,30671.0,44546.0,40317.0,51232.0,20745.0,15413.0
2026-05-06 16:34:56.669055,915200,1609507560063193,5159975459,0.554368,0.333792,0.525088,1.8375,-6.0025,0.805,-43.136,4.968,-62.224003,eccentric,4,5.0,33029.0,35447.0,91140.0,89593.0,30671.0,44546.0,40317.0,51232.0,20745.0,15413.0
2026-05-06 16:34:56.682853,915201,1609507560077758,5159990509,0.554368,0.333792,0.509472,0.07875,-4.3575,-0.46375,-43.136,4.968,-62.224003,eccentric,4,5.0,33029.0,35447.0,91140.0,89593.0,30671.0,44546.0,40317.0,51232.0,20745.0,15413.0
2026-05-06 16:34:56.691733,915202,1609507560086819,5159999232,0.568032,0.343552,0.501664,-0.8225,-2.5375,-1.4875,-43.736004,3.896,-64.32,eccentric,4,5.0,33029.0,35447.0,91140.0,89593.0,30671.0,44546.0,40317.0,51232.0,20745.0,15413.0
2026-05-06 16:34:56.707961,915203,1609507560101319,5160012106,0.59536,0.345504,0.511424,-1.7675,-1.35625,-3.7625,-43.480003,4.88,-63.344,eccentric,4,5.0,33029.0,35447.0,91140.0,89593.0,30671.0,44546.0,40317.0,51232.0,20745.0,15413.0
2026-05-06 16:34:56.720493,915204,1609507560110505,5160022910,0.59536,0.345504,0.511424,-1.8025,-0.20125,-3.91125,-43.480003,4.88,-63.344,eccentric,4,5.0,33029.0,35447.0,91140.0,89593.0,30671.0,44546.0,40317.0,51232.0,20745.0,15413.0
2026-05-06 16:34:56.746622,915215,1609507560119781,5160031712,0.603168,0.318176,0.511424,-2.10875,0.35875,-5.80125,-43.272003,5.024,-61.056004,eccentric,4,5.0,32979.0,35458.0,91197.0,89839.0,30641.0,44581.0,40339.0,51375.0,20734.0,15420.0
2026-05-06 16:34:56.749090,915216,1609507560134625,5160046803,0.603168,0.318176,0.511424,-3.2375,0.1925,-6.545,-43.272003,5.024,-61.056004,eccentric,4,5.0,32979.0,35458.0,91197.0,89839.0,30641.0,44581.0,40339.0,51375.0,20734.0,15420.0
2026-05-06 16:34:56.751667,915217,1609507560143635,5160055527,0.630496,0.333792,0.528992,-1.82875,0.58625,-5.10125,-43.544003,4.504,-63.256004,eccentric,4,5.0,32979.0,35458.0,91197.0,89839.0,30641.0,44581.0,40339.0,51375.0,20734.0,15420.0
2026-05-06 16:34:56.765417,915218,1609507560158170,5160070550,0.630496,0.333792,0.528992,-1.5575,-0.04375,-5.81875,-43.544003,4.504,-63.256004,eccentric,4,5.0,32979.0,35458.0,91197.0,89839.0,30641.0,44581.0,40339.0,51375.0,20734.0,15420.0
2026-05-06 16:34:56.771711,915219,1609507560167094,5160079241,0.607072,0.347456,0.538752,-0.4375,0.07,-5.425,-43.952003,3.272,-62.648003,eccentric,4,5.0,32979.0,35458.0,91197.0,89839.0,30641.0,44581.0,40339.0,51375.0,20734.0,15420.0
2026-05-06 16:34:56.806623,915220,1609507560176055,5160088022,0.607072,0.347456,0.538752,0.42875,-0.2275,-5.8625,-43.952003,3.272,-62.648003,eccentric,4,5.0,32979.0,35458.0,91197.0,89839.0,30641.0,44581.0,40339.0,51375.0,20734.0,15420.0
2026-05-06 16:34:56.831591,915221,1609507560190573,5160102933,0.64416,0.36112,0.538752,-3.01875,-1.2775,-7.51625,-43.528004,4.144,-63.464005,eccentric,4,5.0,32979.0,35458.0,91197.0,89839.0,30641.0,44581.0,40339.0,51375.0,20734.0,15420.0
2026-05-06 16:34:56.839032,915222,1609507560199478,5160111639,0.687104,0.269376,0.548512,-7.04375,-2.0125,-8.26,-43.528004,5.048,-63.584003,eccentric,4,5.0,32979.0,35458.0,91197.0,89839.0,30641.0,44581.0,40339.0,51375.0,20734.0,15420.0
2026-05-06 16:34:56.841527,915223,1609507560213964,5160126571,0.687104,0.269376,0.548512,-7.28,-2.56375,-8.68875,-43.688004,5.048,-63.584003,eccentric,4,5.0,32979.0,35458.0,91197.0,89839.0,30641.0,44581.0,40339.0,51375.0,20734.0,15420.0
2026-05-06 16:34:56.871693,915234,1609507560223083,5160135438,0.630496,0.347456,0.554368,-4.17375,-2.61625,-4.9175,-43.4,4.424,-63.584003,eccentric,4,5.0,33077.0,35537.0,91444.0,90059.0,30774.0,44705.0,40475.0,51508.0,20789.0,15460.0
2026-05-06 16:34:56.874183,915235,1609507560237735,5160150366,0.630496,0.347456,0.554368,-0.84,-2.49375,-1.8025,-43.4,4.424,-63.584003,eccentric,4,5.0,33077.0,35537.0,91444.0,90059.0,30774.0,44705.0,40475.0,51508.0,20789.0,15460.0
2026-05-06 16:34:56.876732,915236,1609507560246667,5160159153,0.65392,0.392352,0.552416,-2.0475,-2.3275,-2.14375,-43.640003,4.712,-63.592003,eccentric,4,5.0,33077.0,35537.0,91444.0,90059.0,30774.0,44705.0,40475.0,51508.0,20789.0,15460.0
2026-05-06 16:34:56.879218,915237,1609507560255738,5160167997,0.65392,0.392352,0.552416,-3.31625,-1.0675,-4.2175,-43.640003,4.712,-63.592003,eccentric,4,5.0,33077.0,35537.0,91444.0,90059.0,30774.0,44705.0,40475.0,51508.0,20789.0,15460.0
2026-05-06 16:34:56.881691,915238,1609507560270338,5160182965,0.677344,0.294752,0.571936,-5.9325,-1.155,-6.9825,-43.592003,3.208,-62.384003,eccentric,4,5.0,33077.0,35537.0,91444.0,90059.0,30774.0,44705.0,40475.0,51508.0,20789.0,15460.0
2026-05-06 16:34:56.884208,915239,1609507560279275,5160191692,0.677344,0.294752,0.603168,-5.845,-0.63,-6.08125,-43.592003,3.208,-62.384003,eccentric,4,5.0,33077.0,35537.0,91444.0,90059.0,30774.0,44705.0,40475.0,51508.0,20789.0,15460.0
2026-05-06 16:34:56.908125,915240,1609507560293800,5160204578,0.67344,0.324032,0.599264,-3.38625,-0.18375,-4.33125,-43.608,3.056,-62.336002,eccentric,4,5.0,33077.0,35537.0,91444.0,90059.0,30774.0,44705.0,40475.0,51508.0,20789.0,15460.0
2026-05-06 16:34:56.911559,915241,1609507560302995,5160215407,0.630496,0.376736,0.5368,-3.1675,0.79625,-4.34875,-43.736004,4.856,-63.376003,eccentric,4,5.0,33077.0,35537.0,91444.0,90059.0,30774.0,44705.0,40475.0,51508.0,20789.0,15460.0
2026-05-06 16:34:56.917756,915242,1609507560311903,5160224143,0.630496,0.376736,0.5368,-3.63125,2.6075,-4.4625,-43.736004,4.856,-63.376003,eccentric,4,5.0,33077.0,35537.0,91444.0,90059.0,30774.0,44705.0,40475.0,51508.0,20789.0,15460.0
2026-05-06 16:34:56.950326,915253,1609507560326504,5160237294,0.622688,0.327936,0.544608,-5.6525,3.42125,-6.5625,-43.472004,4.416,-63.488003,eccentric,4,5.0,33132.0,35612.0,91428.0,89990.0,30847.0,44794.0,40491.0,51455.0,20844.0,15520.0
2026-05-06 16:34:56.952669,915254,1609507560335991,5160248157,0.622688,0.327936,0.544608,-6.71125,3.64,-9.30125,-43.472004,4.416,-63.488003,eccentric,4,5.0,33132.0,35612.0,91428.0,89990.0,30847.0,44794.0,40491.0,51455.0,20844.0,15520.0
2026-05-06 16:34:56.955399,915255,1609507560350500,5160263166,0.622688,0.35136,0.523136,-3.255,3.84125,-8.23375,-43.792004,4.136,-62.992004,eccentric,4,5.0,33132.0,35612.0,91428.0,89990.0,30847.0,44794.0,40491.0,51455.0,20844.0,15520.0
2026-05-06 16:34:56.969101,915256,1609507560359474,5160271865,0.622688,0.35136,0.523136,-1.4875,2.98375,-8.785,-43.792004,4.136,-62.992004,eccentric,4,5.0,33132.0,35612.0,91428.0,89990.0,30847.0,44794.0,40491.0,51455.0,20844.0,15520.0
2026-05-06 16:34:56.971506,915257,1609507560368616,5160280579,0.6344,0.306464,0.542656,-3.22,2.84375,-9.765,-43.864002,4.64,-63.280003,eccentric,4,5.0,33132.0,35612.0,91428.0,89990.0,30847.0,44794.0,40491.0,51455.0,20844.0,15520.0
2026-05-06 16:34:57.008445,915258,1609507560383171,5160295519,0.610976,0.349408,0.564128,-4.725,2.72125,-8.8375,-43.672,4.264,-63.456,eccentric,4,5.0,33132.0,35612.0,91428.0,89990.0,30847.0,44794.0,40491.0,51455.0,20844.0,15520.0
2026-05-06 16:34:57.008601,915259,1609507560392079,5160304223,0.610976,0.349408,0.564128,-4.75125,1.86375,-6.825,-43.672,4.264,-63.456,eccentric,4,5.0,33132.0,35612.0,91428.0,89990.0,30847.0,44794.0,40491.0,51455.0,20844.0,15520.0
2026-05-06 16:34:57.012037,915260,1609507560406580,5160319126,0.60512,0.376736,0.493856,-3.77125,1.51375,-7.13125,-43.72,4.216,-63.056004,eccentric,4,5.0,33132.0,35612.0,91428.0,89990.0,30847.0,44794.0,40491.0,51455.0,20844.0,15520.0
2026-05-06 16:34:57.049196,915261,1609507560415527,5160327884,0.60512,0.376736,0.493856,-3.35125,0.8225,-8.8025,-43.72,4.216,-63.056004,eccentric,4,5.0,33132.0,35612.0,91428.0,89990.0,30847.0,44794.0,40491.0,51455.0,20844.0,15520.0
2026-05-06 16:38:47.372802,958609,1609507790758766,5390671511,0.657824,0.337696,0.560224,-1.98625,4.1825,-9.87,-44.792004,-1.064,-68.54401,concentric,4,5.0,29544.0,34251.0,88345.0,83202.0,26679.0,42509.0,38795.0,46820.0,18116.0,14626.0
2026-05-06 16:38:47.381609,958610,1609507790767659,5390680243,0.657824,0.337696,0.560224,-1.5225,4.75125,-9.45,-44.792004,-1.064,-68.54401,concentric,4,5.0,29544.0,34251.0,88345.0,83202.0,26679.0,42509.0,38795.0,46820.0,18116.0,14626.0
2026-05-06 16:38:47.395501,958611,1609507790782138,5390693189,0.659776,0.355264,0.530944,-4.34,4.6375,-9.948751,-45.000004,-0.728,-68.664,concentric,4,5.0,29544.0,34251.0,88345.0,83202.0,26679.0,42509.0,38795.0,46820.0,18116.0,14626.0
2026-05-06 16:38:47.409172,958612,1609507790791659,5390703979,0.642208,0.349408,0.51728,-7.0525,4.20875,-10.59625,-45.216003,-2.728,-66.76,concentric,4,5.0,29544.0,34251.0,88345.0,83202.0,26679.0,42509.0,38795.0,46820.0,18116.0,14626.0
2026-05-06 16:38:47.467773,958623,1609507790800588,5390712715,0.642208,0.349408,0.51728,-6.81625,4.54125,-11.17375,-45.216003,-2.728,-66.76,concentric,4,5.0,29510.0,34219.0,88277.0,83222.0,26625.0,42488.0,38784.0,46862.0,18095.0,14601.0
2026-05-06 16:38:47.470491,958624,1609507790815173,5390727707,0.650016,0.296704,0.519232,-4.12125,4.1825,-12.46,-45.088,-2.832,-67.048004,concentric,4,5.0,29510.0,34219.0,88277.0,83222.0,26625.0,42488.0,38784.0,46862.0,18095.0,14601.0
2026-05-06 16:38:47.472973,958625,1609507790824134,5390736404,0.650016,0.296704,0.519232,-1.4875,4.62,-12.705,-45.088,-2.832,-67.048004,concentric,4,5.0,29510.0,34219.0,88277.0,83222.0,26625.0,42488.0,38784.0,46862.0,18095.0,14601.0
2026-05-06 16:38:47.475442,958626,1609507790838655,5390751355,0.642208,0.324032,0.486048,0.6125,4.4275,-11.6725,-45.104004,-1.04,-68.328,concentric,4,5.0,29510.0,34219.0,88277.0,83222.0,26625.0,42488.0,38784.0,46862.0,18095.0,14601.0
2026-05-06 16:38:47.477930,958627,1609507790847693,5390760133,0.642208,0.324032,0.486048,2.8,4.68125,-10.31625,-45.104004,-1.04,-68.328,concentric,4,5.0,29510.0,34219.0,88277.0,83222.0,26625.0,42488.0,38784.0,46862.0,18095.0,14601.0
2026-05-06 16:38:47.480497,958628,1609507790856600,5390768864,0.6344,0.366976,0.528992,5.215,3.64875,-10.40375,-45.376003,-2.864,-67.936005,concentric,4,5.0,29510.0,34219.0,88277.0,83222.0,26625.0,42488.0,38784.0,46862.0,18095.0,14601.0
2026-05-06 16:38:47.486601,958629,1609507790871147,5390783782,0.650016,0.32208,0.523136,5.985,2.93125,-11.78625,-45.416,-1.208,-67.424,concentric,4,5.0,29510.0,34219.0,88277.0,83222.0,26625.0,42488.0,38784.0,46862.0,18095.0,14601.0
2026-05-06 16:38:47.492944,958630,1609507790880187,5390792527,0.650016,0.32208,0.523136,4.15625,2.47625,-13.7375,-45.416,-1.208,-67.424,concentric,4,5.0,29510.0,34219.0,88277.0,83222.0,26625.0,42488.0,38784.0,46862.0,18095.0,14601.0
2026-05-06 16:38:47.506802,958631,1609507790894701,5390805467,0.62464,0.345504,0.550464,6.8425,2.6775,-12.39,-45.336002,-2.856,-66.592,concentric,4,5.0,29510.0,34219.0,88277.0,83222.0,26625.0,42488.0,38784.0,46862.0,18095.0,14601.0
2026-05-06 16:38:47.540623,958642,1609507790904436,5390816318,0.62464,0.345504,0.550464,12.8625,2.65125,-9.58125,-45.336002,-2.856,-66.592,concentric,4,5.0,29513.0,34221.0,88237.0,83197.0,26634.0,42526.0,38788.0,46855.0,18085.0,14617.0
2026-05-06 16:38:47.543090,958643,1609507790913516,5390825083,0.646112,0.376736,0.554368,13.48375,2.94875,-7.7,-45.376003,-1.544,-67.96001,concentric,4,5.0,29513.0,34221.0,88237.0,83197.0,26634.0,42526.0,38788.0,46855.0,18085.0,14617.0
2026-05-06 16:38:47.545686,958644,1609507790928115,5390840101,0.646112,0.376736,0.554368,8.085,2.40625,-6.83375,-45.376003,-1.544,-67.96001,concentric,4,5.0,29513.0,34221.0,88237.0,83197.0,26634.0,42526.0,38788.0,46855.0,18085.0,14617.0
2026-05-06 16:38:47.551730,958645,1609507790937049,5390848824,0.620736,0.396256,0.484096,4.2175,2.49375,-6.44,-45.480003,-1.84,-67.944,concentric,4,5.0,29513.0,34221.0,88237.0,83197.0,26634.0,42526.0,38788.0,46855.0,18085.0,14617.0
2026-05-06 16:38:47.565614,958646,1609507790951706,5390863869,0.640256,0.374784,0.491904,5.11,1.70625,-5.11875,-45.440002,-0.816,-67.976006,concentric,4,5.0,29513.0,34221.0,88237.0,83197.0,26634.0,42526.0,38788.0,46855.0,18085.0,14617.0
2026-05-06 16:38:47.590551,958647,1609507790960634,5390872607,0.640256,0.374784,0.491904,6.25625,0.91875,-4.13875,-45.440002,-0.816,-67.976006,concentric,4,5.0,29513.0,34221.0,88237.0,83197.0,26634.0,42526.0,38788.0,46855.0,18085.0,14617.0
2026-05-06 16:38:47.616019,958648,1609507790969603,5390881360,0.640256,0.374784,0.491904,7.6475,0.44625,-2.35375,-45.440002,-0.816,-67.976006,concentric,4,5.0,29513.0,34221.0,88237.0,83197.0,26634.0,42526.0,38788.0,46855.0,18085.0,14617.0
2026-05-06 16:38:47.628297,958649,1609507790984102,5390896272,0.640256,0.406016,0.49776,7.35875,-0.27125,-0.46375,-45.184002,-1.392,-67.776,concentric,4,5.0,29513.0,34221.0,88237.0,83197.0,26634.0,42526.0,38788.0,46855.0,18085.0,14617.0
2026-05-06 16:38:47.632905,958650,1609507790993054,5390904986,0.636352,0.402112,0.538752,5.94125,-0.74375,-0.72625,-45.072002,-1.208,-68.208,concentric,4,5.0,29513.0,34221.0,88237.0,83197.0,26634.0,42526.0,38788.0,46855.0,18085.0,14617.0
2026-05-06 16:38:47.660351,958661,1609507791007704,5390920359,0.636352,0.402112,0.538752,3.89375,-1.225,-1.33875,-45.072002,-1.208,-68.208,concentric,4,5.0,29501.0,34250.0,88202.0,83283.0,26641.0,42577.0,38735.0,46848.0,18084.0,14639.0
2026-05-06 16:38:47.662665,958662,1609507791016695,5390929055,0.618784,0.404064,0.476288,2.12625,-1.19875,-1.1375,-45.592003,-1.304,-67.688,concentric,4,5.0,29501.0,34250.0,88202.0,83283.0,26641.0,42577.0,38735.0,46848.0,18084.0,14639.0
2026-05-06 16:38:47.665863,958663,1609507791031395,5390944037,0.618784,0.404064,0.476288,1.09375,-0.90125,-1.435,-45.592003,-1.304,-67.688,concentric,4,5.0,29501.0,34250.0,88202.0,83283.0,26641.0,42577.0,38735.0,46848.0,18084.0,14639.0
2026-05-06 16:38:47.667922,958664,1609507791040451,5390952750,0.620736,0.363072,0.503616,0.02625,-0.28875,-1.435,-45.544003,-2.768,-64.920006,concentric,4,5.0,29501.0,34250.0,88202.0,83283.0,26641.0,42577.0,38735.0,46848.0,18084.0,14639.0
2026-05-06 16:38:47.670784,958665,1609507791049421,5390961508,0.620736,0.363072,0.503616,-0.4375,0.0875,-0.0875,-45.544003,-2.768,-64.920006,concentric,4,5.0,29501.0,34250.0,88202.0,83283.0,26641.0,42577.0,38735.0,46848.0,18084.0,14639.0
2026-05-06 16:38:47.678177,958666,1609507791063960,5390976432,0.646112,0.32208,0.495808,-2.30125,-0.0875,0.945,-45.408,-3.656,-65.008,concentric,4,5.0,29501.0,34250.0,88202.0,83283.0,26641.0,42577.0,38735.0,46848.0,18084.0,14639.0
2026-05-06 16:38:47.687062,958667,1609507791072937,5390985137,0.626592,0.347456,0.509472,-3.71,-0.7525,3.08875,-45.320004,-4.824,-66.728004,concentric,4,5.0,29501.0,34250.0,88202.0,83283.0,26641.0,42577.0,38735.0,46848.0,18084.0,14639.0
2026-05-06 16:38:47.700522,958668,1609507791087423,5390999994,0.626592,0.347456,0.509472,-4.41875,-1.16375,3.94625,-45.320004,-4.824,-66.728004,concentric,4,5.0,29501.0,34250.0,88202.0,83283.0,26641.0,42577.0,38735.0,46848.0,18084.0,14639.0
2026-05-06 16:38:47.714622,958669,1609507791096362,5391008765,0.593408,0.329888,0.46848,-4.0775,-1.5575,3.35125,-45.392002,-1.112,-67.80801,concentric,4,5.0,29501.0,34250.0,88202.0,83283.0,26641.0,42577.0,38735.0,46848.0,18084.0,14639.0
2026-05-06 16:38:47.741653,958680,1609507791110895,5391021693,0.593408,0.329888,0.46848,-1.155,-1.0675,4.025,-45.392002,-1.112,-67.80801,concentric,4,5.0,29492.0,34279.0,88229.0,83405.0,26626.0,42605.0,38755.0,46919.0,18090.0,14644.0
2026-05-06 16:38:47.744119,958681,1609507791120242,5391032552,0.626592,0.251808,0.46848,1.51375,-1.2425,3.5175,-44.992,-0.944,-67.896,concentric,4,5.0,29492.0,34279.0,88229.0,83405.0,26626.0,42605.0,38755.0,46919.0,18090.0,14644.0
2026-05-06 16:38:47.746606,958682,1609507791129227,5391041258,0.626592,0.251808,0.46848,1.61,-1.2775,4.0425,-44.992,-0.944,-67.896,concentric,4,5.0,29492.0,34279.0,88229.0,83405.0,26626.0,42605.0,38755.0,46919.0,18090.0,14644.0
2026-05-06 16:38:47.760783,958683,1609507791143849,5391056300,0.597312,0.25376,0.472384,2.42375,-1.7325,5.66125,-45.328003,-0.504,-66.888,concentric,4,5.0,29492.0,34279.0,88229.0,83405.0,26626.0,42605.0,38755.0,46919.0,18090.0,14644.0
2026-05-06 16:38:47.766612,958684,1609507791152773,5391065009,0.550464,0.329888,0.46848,3.35125,-2.0125,6.71125,-45.328003,-0.504,-66.888,concentric,4,5.0,29492.0,34279.0,88229.0,83405.0,26626.0,42605.0,38755.0,46919.0,18090.0,14644.0
2026-05-06 16:38:47.782812,958685,1609507791167269,5391079965,0.552416,0.329888,0.46848,4.8125,-2.1175,7.27125,-45.344,-0.64,-67.416,concentric,4,5.0,29492.0,34279.0,88229.0,83405.0,26626.0,42605.0,38755.0,46919.0,18090.0,14644.0
2026-05-06 16:38:47.796538,958686,1609507791176197,5391088788,0.558272,0.2928,0.501664,5.20625,-2.065,4.38375,-45.440002,-0.464,-67.504005,concentric,4,5.0,29492.0,34279.0,88229.0,83405.0,26626.0,42605.0,38755.0,46919.0,18090.0,14644.0
2026-05-06 16:38:47.797832,958687,1609507791185273,5391097532,0.558272,0.2928,0.501664,1.9075,-0.35875,0.86625,-45.440002,-0.464,-67.504005,concentric,4,5.0,29492.0,34279.0,88229.0,83405.0,26626.0,42605.0,38755.0,46919.0,18090.0,14644.0
2026-05-06 16:38:47.831756,958688,1609507791199752,5391112422,0.56608,0.244,0.474336,1.07625,1.32125,-0.63,-45.248,-0.448,-67.264,concentric,4,5.0,29492.0,34279.0,88229.0,83405.0,26626.0,42605.0,38755.0,46919.0,18090.0,14644.0
2026-05-06 16:38:47.861719,958700,1609507791208854,5391121562,0.56608,0.244,0.474336,1.0325,2.98375,-0.8925,-45.248,-0.448,-67.264,concentric,4,5.0,29515.0,34349.0,87989.0,83016.0,26647.0,42629.0,38634.0,46725.0,18100.0,14678.0
2026-05-06 16:38:47.864277,958701,1609507791223409,5391134490,0.515328,0.281088,0.392352,4.97,2.8525,1.56625,-45.496002,0.136,-67.592,concentric,4,5.0,29515.0,34349.0,87989.0,83016.0,26647.0,42629.0,38634.0,46725.0,18100.0,14678.0
2026-05-06 16:38:47.866714,958702,1609507791232684,5391145283,0.515328,0.281088,0.392352,8.61875,1.435,1.6275,-45.496002,0.136,-67.592,concentric,4,5.0,29515.0,34349.0,87989.0,83016.0,26647.0,42629.0,38634.0,46725.0,18100.0,14678.0
2026-05-06 16:38:47.869330,958703,1609507791241692,5391154022,0.513376,0.33184,0.423584,10.22,0.0,1.1725,-45.888,-2.968,-66.136,concentric,4,5.0,29515.0,34349.0,87989.0,83016.0,26647.0,42629.0,38634.0,46725.0,18100.0,14678.0
2026-05-06 16:38:47.871815,958704,1609507791256327,5391169029,0.51728,0.372832,0.456768,11.13875,-1.1725,1.00625,-45.640003,-3.648,-64.912,concentric,4,5.0,29515.0,34349.0,87989.0,83016.0,26647.0,42629.0,38634.0,46725.0,18100.0,14678.0
2026-05-06 16:38:47.882882,958705,1609507791265310,5391177801,0.51728,0.372832,0.456768,9.3975,-2.93125,-2.1525,-45.640003,-3.648,-64.912,concentric,4,5.0,29515.0,34349.0,87989.0,83016.0,26647.0,42629.0,38634.0,46725.0,18100.0,14678.0
2026-05-06 16:38:47.891835,958706,1609507791279865,5391190722,0.530944,0.337696,0.474336,4.47125,-2.94,-6.29125,-45.640003,0.408,-67.504005,concentric,4,5.0,29515.0,34349.0,87989.0,83016.0,26647.0,42629.0,38634.0,46725.0,18100.0,14678.0
2026-05-06 16:38:47.905678,958707,1609507791289163,5391201552,0.530944,0.337696,0.474336,3.28125,-3.3425,-8.86375,-45.640003,0.408,-67.504005,concentric,4,5.0,29515.0,34349.0,87989.0,83016.0,26647.0,42629.0,38634.0,46725.0,18100.0,14678.0
2026-05-06 16:38:47.911867,958708,1609507791298074,5391210276,0.534848,0.4392,0.470432,5.7575,-3.71875,-7.70875,-45.768,-0.624,-67.216,concentric,4,5.0,29515.0,34349.0,87989.0,83016.0,26647.0,42629.0,38634.0,46725.0,18100.0,14678.0
2026-05-06 16:38:48.001711,958719,1609507791312646,5391225273,0.534848,0.4392,0.470432,7.79625,-5.08375,-8.58375,-45.768,-0.624,-67.216,concentric,4,5.0,29541.0,34370.0,88001.0,83081.0,26691.0,42701.0,38641.0,46756.0,18121.0,14679.0
2026-05-06 16:38:48.004327,958720,1609507791321839,5391234203,0.57584,0.37088,0.413824,3.3075,-6.79875,-12.80125,-45.816,-1.376,-68.16,concentric,4,5.0,29541.0,34370.0,88001.0,83081.0,26691.0,42701.0,38641.0,46756.0,18121.0,14679.0
2026-05-06 16:38:48.006843,958721,1609507791336422,5391249123,0.583648,0.36112,0.425536,0.035,-7.49,-12.845,-45.976,-0.08,-67.69601,concentric,4,5.0,29541.0,34370.0,88001.0,83081.0,26691.0,42701.0,38641.0,46756.0,18121.0,14679.0
2026-05-06 16:38:48.010002,958722,1609507791345356,5391257870,0.583648,0.36112,0.425536,-0.315,-10.4125,-11.50625,-45.976,-0.08,-67.69601,concentric,4,5.0,29541.0,34370.0,88001.0,83081.0,26691.0,42701.0,38641.0,46756.0,18121.0,14679.0
2026-05-06 16:38:48.012158,958723,1609507791359882,5391270780,0.550464,0.4392,0.493856,-1.21625,-13.30875,-11.19125,-45.936,-2.12,-66.54401,concentric,4,5.0,29541.0,34370.0,88001.0,83081.0,26691.0,42701.0,38641.0,46756.0,18121.0,14679.0
2026-05-06 16:38:48.014662,958724,1609507791369210,5391281552,0.550464,0.4392,0.493856,1.00625,-14.805,-8.61875,-45.936,-2.12,-66.54401,concentric,4,5.0,29541.0,34370.0,88001.0,83081.0,26691.0,42701.0,38641.0,46756.0,18121.0,14679.0
2026-05-06 16:38:48.019975,958725,1609507791378136,5391290363,0.626592,0.384544,0.423584,2.47625,-16.065,-7.79625,-46.008003,-0.408,-67.8,concentric,4,5.0,29541.0,34370.0,88001.0,83081.0,26691.0,42701.0,38641.0,46756.0,18121.0,14679.0
2026-05-06 16:38:48.020386,958726,1609507791392615,5391305335,0.626592,0.384544,0.423584,0.035,-15.417501,-6.965,-46.008003,-0.408,-67.8,concentric,4,5.0,29541.0,34370.0,88001.0,83081.0,26691.0,42701.0,38641.0,46756.0,18121.0,14679.0
2026-05-06 16:38:48.021668,958727,1609507791401533,5391314115,0.61488,0.359168,0.462624,-1.44375,-15.1025,-3.3425,-46.056004,-0.6,-67.96001,concentric,4,5.0,29541.0,34370.0,88001.0,83081.0,26691.0,42701.0,38641.0,46756.0,18121.0,14679.0
2026-05-06 16:38:48.049085,958738,1609507791416178,5391327132,0.581696,0.407968,0.509472,-1.26,-14.3675,2.38,-45.992,-0.048,-67.64001,concentric,4,5.0,29589.0,34435.0,88386.0,83045.0,26751.0,42774.0,38890.0,46766.0,18161.0,14704.0
2026-05-06 16:38:48.051703,958739,1609507791425669,5391337972,0.581696,0.407968,0.509472,-3.5875,-14.56875,3.12375,-45.992,-0.048,-67.64001,concentric,4,5.0,29589.0,34435.0,88386.0,83045.0,26751.0,42774.0,38890.0,46766.0,18161.0,14704.0
2026-05-06 16:38:48.054519,958740,1609507791434651,5391346644,0.581696,0.407968,0.523136,-6.50125,-13.16,3.03625,-45.992,-0.048,-67.64001,concentric,4,5.0,29589.0,34435.0,88386.0,83045.0,26751.0,42774.0,38890.0,46766.0,18161.0,14704.0
2026-05-06 16:38:48.085568,958741,1609507791449158,5391361567,0.64416,0.359168,0.523136,-10.395,-11.22625,3.05375,-46.120003,0.248,-68.608,concentric,4,5.0,29589.0,34435.0,88386.0,83045.0,26751.0,42774.0,38890.0,46766.0,18161.0,14704.0
2026-05-06 16:38:48.088035,958742,1609507791458108,5391370439,0.66368,0.28304,0.452864,-10.7625,-9.073751,3.885,-45.840004,0.664,-68.152,concentric,4,5.0,29589.0,34435.0,88386.0,83045.0,26751.0,42774.0,38890.0,46766.0,18161.0,14704.0
2026-05-06 16:38:48.090964,958743,1609507791472613,5391385333,0.66368,0.28304,0.452864,-9.42375,-6.57125,8.37375,-45.840004,0.664,-68.152,concentric,4,5.0,29589.0,34435.0,88386.0,83045.0,26751.0,42774.0,38890.0,46766.0,18161.0,14704.0
2026-05-06 16:38:48.100456,958744,1609507791481610,5391394025,0.642208,0.3904,0.530944,-8.04125,-3.99,12.0925,-46.384003,0.576,-68.056,concentric,4,5.0,29589.0,34435.0,88386.0,83045.0,26751.0,42774.0,38890.0,46766.0,18161.0,14704.0
2026-05-06 16:38:48.103106,958745,1609507791490575,5391402726,0.642208,0.3904,0.530944,-10.28125,-2.5375,11.10375,-46.384003,0.576,-68.056,concentric,4,5.0,29589.0,34435.0,88386.0,83045.0,26751.0,42774.0,38890.0,46766.0,18161.0,14704.0
2026-05-06 16:38:48.146738,958756,1609507791505195,5391417713,0.603168,0.486048,0.493856,-13.22125,0.42875,7.0,-46.376003,-1.168,-67.07201,concentric,4,5.0,29578.0,34423.0,88632.0,83445.0,26749.0,42762.0,38981.0,46967.0,18151.0,14715.0
2026-05-06 16:38:48.149055,958757,1609507791514312,5391426525,0.603168,0.486048,0.493856,-8.65375,2.415,1.785,-46.376003,-1.168,-67.07201,concentric,4,5.0,29578.0,34423.0,88632.0,83445.0,26749.0,42762.0,38981.0,46967.0,18151.0,14715.0
2026-05-06 16:38:48.151947,958758,1609507791528872,5391441537,0.69296,0.33184,0.480192,-9.75625,2.6775,-6.685,-46.736004,-0.984,-66.656006,concentric,4,5.0,29578.0,34423.0,88632.0,83445.0,26749.0,42762.0,38981.0,46967.0,18151.0,14715.0
2026-05-06 16:38:48.154514,958759,1609507791537769,5391450282,0.700768,0.347456,0.493856,-14.035,3.0275,-9.292501,-46.744003,-1.24,-66.8,concentric,4,5.0,29578.0,34423.0,88632.0,83445.0,26749.0,42762.0,38981.0,46967.0,18151.0,14715.0
2026-05-06 16:38:48.167867,958760,1609507791552338,5391463161,0.700768,0.347456,0.493856,-11.34,1.4,-7.34125,-46.744003,-1.24,-66.8,concentric,4,5.0,29578.0,34423.0,88632.0,83445.0,26749.0,42762.0,38981.0,46967.0,18151.0,14715.0
2026-05-06 16:38:48.177074,958761,1609507791561612,5391473973,0.681248,0.466528,0.532896,-7.945,0.1575,-6.5975,-46.968002,0.392,-67.912,concentric,4,5.0,29578.0,34423.0,88632.0,83445.0,26749.0,42762.0,38981.0,46967.0,18151.0,14715.0
2026-05-06 16:38:48.185437,958762,1609507791570562,5391482692,0.681248,0.466528,0.532896,-11.3225,1.435,-9.87875,-46.968002,0.392,-67.912,concentric,4,5.0,29578.0,34423.0,88632.0,83445.0,26749.0,42762.0,38981.0,46967.0,18151.0,14715.0
2026-05-06 16:38:48.208989,958763,1609507791585075,5391497595,0.735904,0.372832,0.571936,-13.1425,4.445,-12.792501,-46.960003,0.152,-67.872,concentric,4,5.0,29578.0,34423.0,88632.0,83445.0,26749.0,42762.0,38981.0,46967.0,18151.0,14715.0
2026-05-06 16:38:48.211316,958764,1609507791594030,5391506330,0.735904,0.372832,0.571936,-14.02625,6.3175,-16.6775,-46.960003,0.152,-67.872,concentric,4,5.0,29578.0,34423.0,88632.0,83445.0,26749.0,42762.0,38981.0,46967.0,18151.0,14715.0
2026-05-06 16:38:48.245809,958775,1609507791609063,5391521318,0.747616,0.38064,0.569984,-11.8475,7.35,-16.9225,-46.968002,0.616,-67.736,concentric,4,5.0,29457.0,34326.0,88599.0,83631.0,26646.0,42629.0,39000.0,47075.0,18081.0,14671.0
2026-05-06 16:38:48.247955,958776,1609507791618074,5391530112,0.730048,0.425536,0.601216,-6.23,7.77,-15.42625,-47.544003,-0.048,-68.48801,concentric,4,5.0,29457.0,34326.0,88599.0,83631.0,26646.0,42629.0,39000.0,47075.0,18081.0,14671.0
2026-05-06 16:38:48.250314,958777,1609507791627369,5391538905,0.730048,0.425536,0.601216,-5.88875,8.7325,-16.415,-47.544003,-0.048,-68.48801,concentric,4,5.0,29457.0,34326.0,88599.0,83631.0,26646.0,42629.0,39000.0,47075.0,18081.0,14671.0
2026-05-06 16:38:48.257030,958778,1609507791641874,5391553830,0.735904,0.363072,0.609024,-8.417501,11.97,-16.835001,-47.576004,-0.032,-66.504005,concentric,4,5.0,29457.0,34326.0,88599.0,83631.0,26646.0,42629.0,39000.0,47075.0,18081.0,14671.0
2026-05-06 16:38:48.265981,958779,1609507791650823,5391562540,0.735904,0.363072,0.609024,-8.8025,15.02375,-15.54875,-47.576004,-0.032,-66.504005,concentric,4,5.0,29457.0,34326.0,88599.0,83631.0,26646.0,42629.0,39000.0,47075.0,18081.0,14671.0
2026-05-06 16:38:48.279651,958780,1609507791665486,5391577526,0.772992,0.337696,0.56608,-9.37125,17.3075,-14.07875,-48.008003,-1.848,-65.856,concentric,4,5.0,29457.0,34326.0,88599.0,83631.0,26646.0,42629.0,39000.0,47075.0,18081.0,14671.0
2026-05-06 16:38:48.288422,958781,1609507791674545,5391586229,0.772992,0.337696,0.56608,-8.785,17.98125,-11.20875,-48.008003,-1.848,-65.856,concentric,4,5.0,29457.0,34326.0,88599.0,83631.0,26646.0,42629.0,39000.0,47075.0,18081.0,14671.0
2026-05-06 16:38:48.297131,958782,1609507791683459,5391594988,0.724192,0.392352,0.538752,-7.4375,16.77375,-9.02125,-48.064003,-0.528,-66.896,concentric,4,5.0,29457.0,34326.0,88599.0,83631.0,26646.0,42629.0,39000.0,47075.0,18081.0,14671.0
2026-05-06 16:38:48.337378,958783,1609507791698127,5391610039,0.732,0.343552,0.616832,-6.15125,15.39125,-6.545,-48.2,0.0,-67.096,concentric,4,5.0,29457.0,34326.0,88599.0,83631.0,26646.0,42629.0,39000.0,47075.0,18081.0,14671.0
2026-05-06 16:38:48.393173,958794,1609507791707617,5391618734,0.732,0.343552,0.616832,-7.2975,13.60625,-5.90625,-48.2,0.0,-67.096,concentric,4,5.0,29753.0,34444.0,88629.0,84505.0,26850.0,42683.0,38937.0,47500.0,18234.0,14711.0
2026-05-06 16:38:48.395611,958795,1609507791717069,5391629554,0.747616,0.275232,0.573888,-8.33875,12.46,-3.98125,-48.2,0.0,-65.992004,concentric,4,5.0,29753.0,34444.0,88629.0,84505.0,26850.0,42683.0,38937.0,47500.0,18234.0,14711.0
2026-05-06 16:38:48.398088,958796,1609507791731576,5391642414,0.733952,0.275232,0.573888,-3.80625,11.64625,-0.105,-48.216003,0.376,-65.992004,concentric,4,5.0,29753.0,34444.0,88629.0,84505.0,26850.0,42683.0,38937.0,47500.0,18234.0,14711.0
2026-05-06 16:38:48.400499,958797,1609507791740836,5391653192,0.689056,0.402112,0.540704,2.5025,9.5025,4.13875,-48.384003,0.112,-65.8,concentric,4,5.0,29753.0,34444.0,88629.0,84505.0,26850.0,42683.0,38937.0,47500.0,18234.0,14711.0
2026-05-06 16:38:48.403364,958798,1609507791755316,5391666251,0.689056,0.402112,0.540704,6.51875,6.34375,4.61125,-48.384003,0.112,-65.8,concentric,4,5.0,29753.0,34444.0,88629.0,84505.0,26850.0,42683.0,38937.0,47500.0,18234.0,14711.0
2026-05-06 16:38:48.405947,958799,1609507791764682,5391677086,0.675392,0.450912,0.54656,8.0675,2.2225,2.91375,-48.424004,-0.192,-66.4,concentric,4,5.0,29753.0,34444.0,88629.0,84505.0,26850.0,42683.0,38937.0,47500.0,18234.0,14711.0
2026-05-06 16:38:48.408098,958800,1609507791773765,5391685819,0.675392,0.450912,0.54656,7.88375,-2.02125,-2.7825,-48.424004,-0.192,-66.4,concentric,4,5.0,29753.0,34444.0,88629.0,84505.0,26850.0,42683.0,38937.0,47500.0,18234.0,14711.0
2026-05-06 16:38:48.410937,958801,1609507791788306,5391700968,0.704672,0.337696,0.60512,8.2075,-5.71375,-5.34625,-48.672,-3.456,-63.800003,concentric,4,5.0,29753.0,34444.0,88629.0,84505.0,26850.0,42683.0,38937.0,47500.0,18234.0,14711.0
2026-05-06 16:38:48.415975,958802,1609507791797356,5391709730,0.704672,0.384544,0.597312,12.39875,-7.77875,-3.2025,-48.672,-3.456,-63.800003,concentric,4,5.0,29753.0,34444.0,88629.0,84505.0,26850.0,42683.0,38937.0,47500.0,18234.0,14711.0
2026-05-06 16:38:48.445761,958813,1609507791812013,5391723108,0.704672,0.378688,0.597312,13.99125,-9.02125,-1.14625,-48.728,-1.224,-63.096004,concentric,4,5.0,29635.0,34249.0,88429.0,84640.0,26715.0,42472.0,38778.0,47556.0,18165.0,14634.0
2026-05-06 16:38:48.448234,958814,1609507791821346,5391733959,0.679296,0.503616,0.655872,8.4,-7.27125,-1.12875,-48.544003,-1.152,-64.632,concentric,4,5.0,29635.0,34249.0,88429.0,84640.0,26715.0,42472.0,38778.0,47556.0,18165.0,14634.0
2026-05-06 16:38:48.450466,958815,1609507791830402,5391742733,0.679296,0.503616,0.655872,5.9675,-6.405,-1.84625,-48.544003,-1.152,-64.632,concentric,4,5.0,29635.0,34249.0,88429.0,84640.0,26715.0,42472.0,38778.0,47556.0,18165.0,14634.0
2026-05-06 16:38:48.459501,958816,1609507791845029,5391757672,0.728096,0.445056,0.523136,3.5525,-6.41375,-6.95625,-48.760002,-1.384,-65.76,concentric,4,5.0,29635.0,34249.0,88429.0,84640.0,26715.0,42472.0,38778.0,47556.0,18165.0,14634.0
2026-05-06 16:38:48.467964,958817,1609507791853942,5391766371,0.728096,0.445056,0.523136,1.54875,-6.2125,-13.16875,-48.760002,-1.384,-65.76,concentric,4,5.0,29635.0,34249.0,88429.0,84640.0,26715.0,42472.0,38778.0,47556.0,18165.0,14634.0
2026-05-06 16:38:48.482189,958818,1609507791868482,5391779262,0.720288,0.47824,0.607072,5.53,-6.3525,-13.72,-49.072002,-0.08,-66.128006,concentric,4,5.0,29635.0,34249.0,88429.0,84640.0,26715.0,42472.0,38778.0,47556.0,18165.0,14634.0
2026-05-06 16:38:48.490952,958819,1609507791877848,5391790117,0.720288,0.47824,0.620736,7.3325,-5.95875,-13.92125,-49.072002,-0.08,-66.128006,concentric,4,5.0,29635.0,34249.0,88429.0,84640.0,26715.0,42472.0,38778.0,47556.0,18165.0,14634.0
2026-05-06 16:38:48.504241,958820,1609507791886820,5391798987,0.755424,0.521184,0.620736,-0.665,-3.15875,-18.55875,-48.88,-0.136,-66.776,concentric,4,5.0,29635.0,34249.0,88429.0,84640.0,26715.0,42472.0,38778.0,47556.0,18165.0,14634.0
2026-05-06 16:38:48.519490,958821,1609507791901339,5391813910,0.796416,0.544608,0.618784,-2.45875,0.2625,-21.428751,-49.088,-3.48,-63.632004,concentric,4,5.0,29635.0,34249.0,88429.0,84640.0,26715.0,42472.0,38778.0,47556.0,18165.0,14634.0
2026-05-06 16:38:48.546911,958832,1609507791910756,5391822671,0.796416,0.544608,0.618784,2.09125,1.88125,-23.905,-49.088,-3.48,-63.632004,concentric,4,5.0,29427.0,34116.0,88240.0,84455.0,26553.0,42384.0,38779.0,47483.0,18071.0,14588.0
2026-05-06 16:38:48.549180,958833,1609507791925441,5391837729,0.872544,0.411872,0.651968,-0.23625,2.91375,-27.125,-49.528004,-4.168,-62.448,concentric,4,5.0,29427.0,34116.0,88240.0,84455.0,26553.0,42384.0,38779.0,47483.0,18071.0,14588.0
2026-05-06 16:38:48.551681,958834,1609507791934388,5391846460,0.872544,0.411872,0.651968,-2.5725,3.3075,-25.06,-49.528004,-4.168,-62.448,concentric,4,5.0,29427.0,34116.0,88240.0,84455.0,26553.0,42384.0,38779.0,47483.0,18071.0,14588.0
2026-05-06 16:38:48.558457,958835,1609507791943381,5391855182,0.825696,0.591456,0.720288,-1.81125,3.21125,-20.72,-49.632004,-4.952,-63.24,concentric,4,5.0,29427.0,34116.0,88240.0,84455.0,26553.0,42384.0,38779.0,47483.0,18071.0,14588.0
2026-05-06 16:38:48.572194,958836,1609507791957875,5391870144,0.825696,0.591456,0.720288,2.52875,4.31375,-15.9425,-49.632004,-4.952,-63.24,concentric,4,5.0,29427.0,34116.0,88240.0,84455.0,26553.0,42384.0,38779.0,47483.0,18071.0,14588.0
2026-05-06 16:38:48.580987,958837,1609507791966822,5391878885,0.909632,0.523136,0.718336,-1.00625,5.8275,-19.08375,-49.368004,-1.272,-65.784004,concentric,4,5.0,29427.0,34116.0,88240.0,84455.0,26553.0,42384.0,38779.0,47483.0,18071.0,14588.0
2026-05-06 16:38:48.614499,958838,1609507791981337,5391893780,0.921344,0.474336,0.679296,-8.1025,5.985,-20.46625,-49.056004,-1.64,-65.48801,eccentric,4,5.0,29427.0,34116.0,88240.0,84455.0,26553.0,42384.0,38779.0,47483.0,18071.0,14588.0
2026-05-06 16:38:48.619513,958839,1609507791990304,5391902512,0.921344,0.474336,0.679296,-6.9125,2.5725,-17.7275,-49.056004,-1.64,-65.48801,eccentric,4,5.0,29427.0,34116.0,88240.0,84455.0,26553.0,42384.0,38779.0,47483.0,18071.0,14588.0
2026-05-06 16:38:48.621917,958840,1609507792004775,5391917520,0.901824,0.573888,0.698816,-2.7475,-3.5525,-13.448751,-49.224003,-1.832,-65.768005,eccentric,4,5.0,29427.0,34116.0,88240.0,84455.0,26553.0,42384.0,38779.0,47483.0,18071.0,14588.0
2026-05-06 16:38:48.649271,958851,1609507792013824,5391926449,0.901824,0.573888,0.698816,-7.175,-9.292501,-13.195,-49.224003,-1.832,-65.768005,eccentric,4,5.0,29279.0,33998.0,88200.0,84350.0,26444.0,42276.0,38765.0,47453.0,17975.0,14538.0
2026-05-06 16:38:48.651649,958852,1609507792022794,5391935291,0.84912,0.47824,0.704672,-12.95875,-11.41,-14.525,-49.488003,-4.072,-64.864006,eccentric,4,5.0,29279.0,33998.0,88200.0,84350.0,26444.0,42276.0,38765.0,47453.0,17975.0,14538.0
2026-05-06 16:38:48.654573,958853,1609507792037445,5391948201,0.84912,0.47824,0.704672,-5.3025,-10.885,-10.35125,-49.488003,-4.072,-64.864006,eccentric,4,5.0,29279.0,33998.0,88200.0,84350.0,26444.0,42276.0,38765.0,47453.0,17975.0,14538.0
2026-05-06 16:38:48.663350,958854,1609507792046759,5391959000,0.864736,0.464576,0.747616,5.81875,-9.9575,-6.405,-49.168003,-4.112,-66.07201,eccentric,4,5.0,29279.0,33998.0,88200.0,84350.0,26444.0,42276.0,38765.0,47453.0,17975.0,14538.0
2026-05-06 16:38:48.702139,958855,1609507792061308,5391973945,0.845216,0.542656,0.698816,8.855001,-7.525,-2.45875,-49.120003,-2.144,-63.136,eccentric,4,5.0,29279.0,33998.0,88200.0,84350.0,26444.0,42276.0,38765.0,47453.0,17975.0,14538.0
2026-05-06 16:38:48.755892,958856,1609507792070448,5391982717,0.845216,0.542656,0.698816,7.14,-5.915,-0.5425,-49.120003,-2.144,-63.136,eccentric,4,5.0,29279.0,33998.0,88200.0,84350.0,26444.0,42276.0,38765.0,47453.0,17975.0,14538.0
2026-05-06 16:38:48.762151,958857,1609507792079358,5391991530,0.845216,0.52704,0.60512,4.10375,-5.6,-0.105,-49.120003,-2.144,-63.136,eccentric,4,5.0,29279.0,33998.0,88200.0,84350.0,26444.0,42276.0,38765.0,47453.0,17975.0,14538.0
2026-05-06 16:38:48.764601,958858,1609507792093851,5392006443,0.833504,0.515328,0.60512,-0.84,-6.72,-3.0275,-49.04,-2.568,-65.43201,eccentric,4,5.0,29279.0,33998.0,88200.0,84350.0,26444.0,42276.0,38765.0,47453.0,17975.0,14538.0
2026-05-06 16:38:48.766799,958859,1609507792102809,5392015156,0.827648,0.47824,0.642208,-2.0475,-8.82,-3.5,-48.800003,-1.976,-66.464005,eccentric,4,5.0,29279.0,33998.0,88200.0,84350.0,26444.0,42276.0,38765.0,47453.0,17975.0,14538.0
2026-05-06 16:38:48.793931,958870,1609507792117440,5392028217,0.827648,0.47824,0.642208,1.72375,-9.70375,-0.7175,-48.800003,-1.976,-66.464005,eccentric,4,5.0,29366.0,34043.0,88123.0,83789.0,26515.0,42302.0,38712.0,47122.0,18030.0,14537.0
2026-05-06 16:38:48.796672,958871,1609507792126680,5392039042,0.796416,0.505568,0.65392,7.63875,-9.09125,1.7325,-48.368004,-2.672,-66.144005,eccentric,4,5.0,29366.0,34043.0,88123.0,83789.0,26515.0,42302.0,38712.0,47122.0,18030.0,14537.0
2026-05-06 16:38:48.799374,958872,1609507792141177,5392051937,0.778848,0.482144,0.67344,9.05625,-8.75,1.16375,-48.680004,-2.4,-66.920006,eccentric,4,5.0,29366.0,34043.0,88123.0,83789.0,26515.0,42302.0,38712.0,47122.0,18030.0,14537.0
2026-05-06 16:38:48.802022,958873,1609507792150376,5392062699,0.778848,0.482144,0.67344,5.495,-6.74625,0.3325,-48.680004,-2.4,-66.920006,eccentric,4,5.0,29366.0,34043.0,88123.0,83789.0,26515.0,42302.0,38712.0,47122.0,18030.0,14537.0
2026-05-06 16:38:48.804504,958874,1609507792159307,5392071533,0.778848,0.482144,0.67344,0.84875,-5.32875,2.4325,-48.680004,-2.4,-66.920006,eccentric,4,5.0,29366.0,34043.0,88123.0,83789.0,26515.0,42302.0,38712.0,47122.0,18030.0,14537.0
2026-05-06 16:38:48.807010,958875,1609507792174176,5392087194,0.739808,0.530944,0.577792,-2.54625,-5.11875,1.11125,-48.576004,-3.136,-65.8,eccentric,4,5.0,29366.0,34043.0,88123.0,83789.0,26515.0,42302.0,38712.0,47122.0,18030.0,14537.0
2026-05-06 16:38:48.809568,958876,1609507792183573,5392095933,0.757376,0.447008,0.601216,-2.275,-4.85625,-0.42875,-48.04,-5.056,-65.920006,eccentric,4,5.0,29366.0,34043.0,88123.0,83789.0,26515.0,42302.0,38712.0,47122.0,18030.0,14537.0
2026-05-06 16:38:48.811707,958877,1609507792192563,5392104667,0.757376,0.447008,0.601216,2.2575,-4.795,-1.95125,-48.04,-5.056,-65.920006,eccentric,4,5.0,29366.0,34043.0,88123.0,83789.0,26515.0,42302.0,38712.0,47122.0,18030.0,14537.0
2026-05-06 16:38:48.825895,958878,1609507792207235,5392119588,0.74176,0.42944,0.597312,3.745,-3.5175,-1.26875,-48.304,-3.88,-65.992004,eccentric,4,5.0,29366.0,34043.0,88123.0,83789.0,26515.0,42302.0,38712.0,47122.0,18030.0,14537.0
2026-05-06 16:38:48.856696,958889,1609507792216292,5392128403,0.74176,0.42944,0.597312,2.05625,-1.35625,1.1375,-48.304,-3.88,-65.992004,eccentric,4,5.0,29468.0,34123.0,88006.0,83702.0,26614.0,42393.0,38640.0,47089.0,18092.0,14572.0
2026-05-06 16:38:48.859356,958890,1609507792231006,5392143372,0.704672,0.515328,0.5856,0.6125,0.4375,2.7125,-48.088,-2.424,-67.44,eccentric,4,5.0,29468.0,34123.0,88006.0,83702.0,26614.0,42393.0,38640.0,47089.0,18092.0,14572.0
2026-05-06 16:38:48.861833,958891,1609507792239939,5392152102,0.704672,0.515328,0.5856,-0.21,1.54875,1.82,-48.088,-2.424,-67.44,eccentric,4,5.0,29468.0,34123.0,88006.0,83702.0,26614.0,42393.0,38640.0,47089.0,18092.0,14572.0
2026-05-06 16:38:48.870493,958892,1609507792254448,5392167022,0.724192,0.423584,0.54656,-4.935,0.56875,-1.93375,-48.144,-4.832,-63.552002,eccentric,4,5.0,29468.0,34123.0,88006.0,83702.0,26614.0,42393.0,38640.0,47089.0,18092.0,14572.0
2026-05-06 16:38:48.876840,958893,1609507792263365,5392175761,0.685152,0.437248,0.540704,-7.1225,-0.9625,-2.695,-47.648003,-2.472,-67.096,eccentric,4,5.0,29468.0,34123.0,88006.0,83702.0,26614.0,42393.0,38640.0,47089.0,18092.0,14572.0
2026-05-06 16:38:48.885636,958894,1609507792272300,5392184540,0.685152,0.437248,0.540704,-5.215,-1.82,0.8575,-47.648003,-2.472,-67.096,eccentric,4,5.0,29468.0,34123.0,88006.0,83702.0,26614.0,42393.0,38640.0,47089.0,18092.0,14572.0
2026-05-06 16:38:48.919183,958895,1609507792286835,5392199546,0.694912,0.406016,0.56608,-2.73,-1.855,1.98625,-47.584003,-1.888,-67.656006,eccentric,4,5.0,29468.0,34123.0,88006.0,83702.0,26614.0,42393.0,38640.0,47089.0,18092.0,14572.0
2026-05-06 16:38:48.921751,958896,1609507792295772,5392208237,0.694912,0.406016,0.56608,-2.05625,-0.595,3.28125,-47.584003,-1.888,-67.656006,eccentric,4,5.0,29468.0,34123.0,88006.0,83702.0,26614.0,42393.0,38640.0,47089.0,18092.0,14572.0
2026-05-06 16:38:48.926714,958897,1609507792310256,5392221109,0.677344,0.396256,0.544608,-2.3625,0.9275,4.97,-47.568,-2.352,-67.776,eccentric,4,5.0,29468.0,34123.0,88006.0,83702.0,26614.0,42393.0,38640.0,47089.0,18092.0,14572.0
2026-05-06 16:38:48.958110,958908,1609507792320062,5392231933,0.677344,0.396256,0.544608,-0.97125,2.16125,8.30375,-47.568,-2.352,-67.776,eccentric,4,5.0,29432.0,34070.0,87933.0,83795.0,26567.0,42321.0,38606.0,47109.0,18070.0,14556.0
2026-05-06 16:38:48.960630,958909,1609507792329043,5392240774,0.665632,0.441152,0.552416,-0.2625,2.7125,8.33875,-47.256,-3.912,-64.864006,eccentric,4,5.0,29432.0,34070.0,87933.0,83795.0,26567.0,42321.0,38606.0,47109.0,18070.0,14556.0
2026-05-06 16:38:48.963061,958910,1609507792343671,5392255746,0.657824,0.376736,0.495808,-2.35375,1.68,5.2325,-47.344,-3.624,-66.448006,eccentric,4,5.0,29432.0,34070.0,87933.0,83795.0,26567.0,42321.0,38606.0,47109.0,18070.0,14556.0
2026-05-06 16:38:48.965645,958911,1609507792352758,5392264576,0.657824,0.376736,0.495808,-7.1225,0.21,2.7125,-47.344,-3.624,-66.448006,eccentric,4,5.0,29432.0,34070.0,87933.0,83795.0,26567.0,42321.0,38606.0,47109.0,18070.0,14556.0
2026-05-06 16:38:48.999280,958912,1609507792367455,5392279492,0.651968,0.372832,0.5368,-8.2425,-0.6825,3.115,-47.176003,-2.456,-68.0,eccentric,4,5.0,29432.0,34070.0,87933.0,83795.0,26567.0,42321.0,38606.0,47109.0,18070.0,14556.0
2026-05-06 16:38:49.001696,958913,1609507792376533,5392288219,0.651968,0.372832,0.5368,-4.85625,-1.2075,4.73375,-47.176003,-2.456,-68.0,eccentric,4,5.0,29432.0,34070.0,87933.0,83795.0,26567.0,42321.0,38606.0,47109.0,18070.0,14556.0
2026-05-06 16:38:49.004174,958914,1609507792385587,5392296952,0.610976,0.349408,0.532896,-5.60875,-1.46125,4.515,-46.656002,-1.696,-67.880005,eccentric,4,5.0,29432.0,34070.0,87933.0,83795.0,26567.0,42321.0,38606.0,47109.0,18070.0,14556.0
2026-05-06 16:38:49.012990,958915,1609507792400082,5392311865,0.610976,0.349408,0.532896,-4.90875,-0.79625,5.53875,-46.656002,-1.696,-67.880005,eccentric,4,5.0,29432.0,34070.0,87933.0,83795.0,26567.0,42321.0,38606.0,47109.0,18070.0,14556.0
2026-05-06 16:38:49.026526,958916,1609507792409001,5392320592,0.591456,0.376736,0.493856,-2.1175,-0.56,6.27375,-46.536003,-2.008,-67.032005,eccentric,4,5.0,29432.0,34070.0,87933.0,83795.0,26567.0,42321.0,38606.0,47109.0,18070.0,14556.0
2026-05-06 16:38:49.113385,958927,1609507792423666,5392335706,0.593408,0.37088,0.454816,0.90125,-0.72625,6.0375,-46.480003,-1.52,-66.112,eccentric,4,5.0,29426.0,34118.0,87922.0,83339.0,26555.0,42403.0,38573.0,46893.0,18056.0,14570.0
2026-05-06 16:38:49.116016,958928,1609507792432810,5392344593,0.593408,0.37088,0.454816,-2.205,-1.855,4.725,-46.480003,-1.52,-66.112,eccentric,4,5.0,29426.0,34118.0,87922.0,83339.0,26555.0,42403.0,38573.0,46893.0,18056.0,14570.0
2026-05-06 16:38:49.117908,958929,1609507792441745,5392353303,0.593408,0.37088,0.454816,-6.65,-2.555,3.5525,-46.480003,-1.52,-66.112,eccentric,4,5.0,29426.0,34118.0,87922.0,83339.0,26555.0,42403.0,38573.0,46893.0,18056.0,14570.0
2026-05-06 16:38:49.120380,958930,1609507792456227,5392368273,0.562176,0.339648,0.386496,-7.20125,-3.28125,3.87625,-46.064003,-1.872,-70.744,eccentric,4,5.0,29426.0,34118.0,87922.0,83339.0,26555.0,42403.0,38573.0,46893.0,18056.0,14570.0
2026-05-06 16:38:49.123269,958931,1609507792465154,5392376984,0.558272,0.325984,0.445056,-4.025,-3.73625,4.69,-45.968002,-1.416,-68.864006,eccentric,4,5.0,29426.0,34118.0,87922.0,83339.0,26555.0,42403.0,38573.0,46893.0,18056.0,14570.0
2026-05-06 16:38:49.125760,958932,1609507792479658,5392391908,0.558272,0.325984,0.445056,-0.525,-3.5875,5.67,-45.968002,-1.416,-68.864006,eccentric,4,5.0,29426.0,34118.0,87922.0,83339.0,26555.0,42403.0,38573.0,46893.0,18056.0,14570.0
2026-05-06 16:38:49.128332,958933,1609507792488591,5392400687,0.542656,0.343552,0.427488,-0.665,-2.7475,6.43125,-45.952003,-3.704,-67.36,eccentric,4,5.0,29426.0,34118.0,87922.0,83339.0,26555.0,42403.0,38573.0,46893.0,18056.0,14570.0
2026-05-06 16:38:49.130906,958934,1609507792503138,5392415738,0.528992,0.349408,0.425536,-0.77,-1.88125,6.27375,-46.152,-3.176,-66.296005,eccentric,4,5.0,29426.0,34118.0,87922.0,83339.0,26555.0,42403.0,38573.0,46893.0,18056.0,14570.0
2026-05-06 16:38:49.163447,958945,1609507792512445,5392424411,0.528992,0.349408,0.425536,-0.0875,-1.93375,5.39875,-46.152,-3.176,-66.296005,eccentric,4,5.0,29384.0,34080.0,87790.0,83141.0,26532.0,42322.0,38534.0,46790.0,18055.0,14554.0
2026-05-06 16:38:49.164183,958946,1609507792521498,5392433249,0.528992,0.349408,0.425536,-1.00625,-2.05625,4.4975,-46.152,-3.176,-66.296005,eccentric,4,5.0,29384.0,34080.0,87790.0,83141.0,26532.0,42322.0,38534.0,46790.0,18055.0,14554.0
2026-05-06 16:38:49.166717,958947,1609507792536186,5392448350,0.521184,0.314272,0.374784,-3.29,-2.135,4.66375,-45.888,-2.848,-68.856,eccentric,4,5.0,29384.0,34080.0,87790.0,83141.0,26532.0,42322.0,38534.0,46790.0,18055.0,14554.0
2026-05-06 16:38:49.169341,958948,1609507792545251,5392457065,0.486048,0.324032,0.335744,-4.87375,-2.0825,4.6725,-45.456,-3.072,-68.952,eccentric,4,5.0,29384.0,34080.0,87790.0,83141.0,26532.0,42322.0,38534.0,46790.0,18055.0,14554.0
2026-05-06 16:38:49.175611,958949,1609507792559816,5392472091,0.486048,0.324032,0.335744,-4.48,-1.33,6.6325,-45.456,-3.072,-68.952,eccentric,4,5.0,29384.0,34080.0,87790.0,83141.0,26532.0,42322.0,38534.0,46790.0,18055.0,14554.0
2026-05-06 16:38:49.186792,958950,1609507792568787,5392480834,0.509472,0.288896,0.374784,-2.14375,-1.225,7.07,-45.36,-3.072,-67.232,eccentric,4,5.0,29384.0,34080.0,87790.0,83141.0,26532.0,42322.0,38534.0,46790.0,18055.0,14554.0
2026-05-06 16:38:49.190273,958951,1609507792577728,5392489684,0.509472,0.288896,0.374784,-2.2225,-1.14625,6.7725,-45.36,-3.072,-67.232,eccentric,4,5.0,29384.0,34080.0,87790.0,83141.0,26532.0,42322.0,38534.0,46790.0,18055.0,14554.0
2026-05-06 16:38:49.224277,958952,1609507792592268,5392504625,0.493856,0.284992,0.357216,-2.49375,-0.84875,8.68,-45.048,-0.872,-68.80801,eccentric,4,5.0,29384.0,34080.0,87790.0,83141.0,26532.0,42322.0,38534.0,46790.0,18055.0,14554.0
2026-05-06 16:38:49.226714,958953,1609507792601204,5392513319,0.493856,0.284992,0.357216,-3.64,-1.3125,11.75125,-45.048,-0.872,-68.80801,eccentric,4,5.0,29384.0,34080.0,87790.0,83141.0,26532.0,42322.0,38534.0,46790.0,18055.0,14554.0
2026-05-06 16:38:49.256875,958964,1609507792616289,5392528493,0.484096,0.3416,0.333792,-6.1075,-1.995,13.99125,-45.192,-0.464,-69.472,eccentric,4,5.0,29431.0,34100.0,87717.0,82891.0,26574.0,42322.0,38495.0,46628.0,18064.0,14536.0
2026-05-06 16:38:49.259376,958965,1609507792625436,5392537251,0.486048,0.310368,0.3416,-7.175,-2.9575,14.0175,-45.256,-3.704,-66.784004,eccentric,4,5.0,29431.0,34100.0,87717.0,82891.0,26574.0,42322.0,38495.0,46628.0,18064.0,14536.0
2026-05-06 16:38:49.261849,958966,1609507792634377,5392545992,0.486048,0.310368,0.3416,-5.85375,-4.235,13.64125,-45.256,-3.704,-66.784004,eccentric,4,5.0,29431.0,34100.0,87717.0,82891.0,26574.0,42322.0,38495.0,46628.0,18064.0,14536.0
2026-05-06 16:38:49.264381,958967,1609507792648899,5392561014,0.52704,0.288896,0.355264,-4.27875,-5.74,14.3675,-45.064003,-2.384,-67.896,eccentric,4,5.0,29431.0,34100.0,87717.0,82891.0,26574.0,42322.0,38495.0,46628.0,18064.0,14536.0
2026-05-06 16:38:49.270653,958968,1609507792657889,5392569848,0.52704,0.288896,0.355264,-6.11625,-7.04375,14.245,-45.064003,-2.384,-67.896,eccentric,4,5.0,29431.0,34100.0,87717.0,82891.0,26574.0,42322.0,38495.0,46628.0,18064.0,14536.0
2026-05-06 16:38:49.304146,958969,1609507792672380,5392584814,0.513376,0.329888,0.35136,-7.81375,-8.56625,14.6475,-44.600002,-0.576,-68.43201,eccentric,4,5.0,29431.0,34100.0,87717.0,82891.0,26574.0,42322.0,38495.0,46628.0,18064.0,14536.0
2026-05-06 16:38:49.306801,958970,1609507792681337,5392593542,0.513376,0.329888,0.35136,-7.7525,-9.765,14.37625,-44.600002,-0.576,-68.43201,eccentric,4,5.0,29431.0,34100.0,87717.0,82891.0,26574.0,42322.0,38495.0,46628.0,18064.0,14536.0
2026-05-06 16:38:49.309309,958971,1609507792695800,5392608502,0.532896,0.388448,0.398208,-8.77625,-10.22875,12.43375,-44.488003,-0.416,-69.368004,eccentric,4,5.0,29431.0,34100.0,87717.0,82891.0,26574.0,42322.0,38495.0,46628.0,18064.0,14536.0
2026-05-06 16:38:49.318099,958972,1609507792704759,5392617296,0.550464,0.320128,0.398208,-12.775,-10.045,7.60375,-44.592003,-0.04,-70.69601,eccentric,4,5.0,29431.0,34100.0,87717.0,82891.0,26574.0,42322.0,38495.0,46628.0,18064.0,14536.0
2026-05-06 16:38:49.380471,958983,1609507792714353,5392626424,0.550464,0.320128,0.398208,-16.178751,-9.56375,3.17625,-44.592003,-0.04,-70.69601,eccentric,4,5.0,29428.0,34106.0,87677.0,83074.0,26590.0,42366.0,38437.0,46745.0,18097.0,14573.0
2026-05-06 16:38:49.382916,958984,1609507792729065,5392641407,0.607072,0.32208,0.427488,-16.17,-8.56625,0.91,-44.504,-0.112,-69.816,eccentric,4,5.0,29428.0,34106.0,87677.0,83074.0,26590.0,42366.0,38437.0,46745.0,18097.0,14573.0
2026-05-06 16:38:49.385780,958985,1609507792738041,5392650256,0.607072,0.32208,0.427488,-16.73875,-7.3325,-0.28875,-44.504,-0.112,-69.816,eccentric,4,5.0,29428.0,34106.0,87677.0,83074.0,26590.0,42366.0,38437.0,46745.0,18097.0,14573.0
2026-05-06 16:38:49.388214,958986,1609507792752532,5392665197,0.60512,0.339648,0.417728,-19.01375,-5.7575,-3.2725,-44.600002,0.584,-69.656006,eccentric,4,5.0,29428.0,34106.0,87677.0,83074.0,26590.0,42366.0,38437.0,46745.0,18097.0,14573.0
2026-05-06 16:38:49.390779,958987,1609507792761464,5392673891,0.60512,0.339648,0.417728,-16.9225,-2.96625,-4.59375,-44.600002,0.584,-69.656006,eccentric,4,5.0,29428.0,34106.0,87677.0,83074.0,26590.0,42366.0,38437.0,46745.0,18097.0,14573.0
2026-05-06 16:38:49.392982,958988,1609507792770432,5392682613,0.659776,0.353312,0.460672,-12.005,-0.91,-5.48625,-44.624,-3.808,-67.43201,eccentric,4,5.0,29428.0,34106.0,87677.0,83074.0,26590.0,42366.0,38437.0,46745.0,18097.0,14573.0
2026-05-06 16:38:49.399386,958989,1609507792784931,5392697540,0.677344,0.294752,0.499712,-12.7575,0.60375,-8.4875,-44.624,-3.808,-69.032005,eccentric,4,5.0,29428.0,34106.0,87677.0,83074.0,26590.0,42366.0,38437.0,46745.0,18097.0,14573.0
2026-05-06 16:38:49.430795,958990,1609507792793835,5392706247,0.677344,0.294752,0.499712,-15.16375,2.0825,-10.57875,-44.752003,-3.368,-69.032005,eccentric,4,5.0,29428.0,34106.0,87677.0,83074.0,26590.0,42366.0,38437.0,46745.0,18097.0,14573.0
2026-05-06 16:38:49.455972,958991,1609507792808358,5392719142,0.696864,0.345504,0.511424,-14.20125,3.64,-9.31875,-44.504,-0.184,-69.288,eccentric,4,5.0,29428.0,34106.0,87677.0,83074.0,26590.0,42366.0,38437.0,46745.0,18097.0,14573.0
2026-05-06 16:38:49.509703,959002,1609507792817698,5392729988,0.696864,0.345504,0.511424,-14.67375,4.165,-9.1175,-44.504,-0.184,-69.288,eccentric,4,5.0,29357.0,34045.0,87944.0,83501.0,26530.0,42320.0,38629.0,46987.0,18045.0,14550.0
2026-05-06 16:38:49.512190,959003,1609507792826816,5392738765,0.689056,0.335744,0.433344,-16.1,3.78,-9.54625,-44.800003,-2.096,-68.616005,eccentric,4,5.0,29357.0,34045.0,87944.0,83501.0,26530.0,42320.0,38629.0,46987.0,18045.0,14550.0
2026-05-06 16:38:49.514686,959004,1609507792841320,5392753679,0.689056,0.335744,0.433344,-15.14625,2.835,-11.83875,-44.800003,-2.096,-68.616005,eccentric,4,5.0,29357.0,34045.0,87944.0,83501.0,26530.0,42320.0,38629.0,46987.0,18045.0,14550.0
2026-05-06 16:38:49.516830,959005,1609507792850358,5392762434,0.69296,0.324032,0.519232,-10.99,1.9075,-11.97,-44.696003,-0.912,-69.768005,eccentric,4,5.0,29357.0,34045.0,87944.0,83501.0,26530.0,42320.0,38629.0,46987.0,18045.0,14550.0
2026-05-06 16:38:49.519723,959006,1609507792864838,5392777321,0.69296,0.324032,0.503616,-5.355,1.23375,-10.36,-44.696003,-0.912,-69.768005,eccentric,4,5.0,29357.0,34045.0,87944.0,83501.0,26530.0,42320.0,38629.0,46987.0,18045.0,14550.0
2026-05-06 16:38:49.521872,959007,1609507792873726,5392786034,0.698816,0.35136,0.50752,-3.38625,0.88375,-9.485,-44.792004,-0.68,-69.664,eccentric,4,5.0,29357.0,34045.0,87944.0,83501.0,26530.0,42320.0,38629.0,46987.0,18045.0,14550.0
2026-05-06 16:38:49.524686,959008,1609507792888474,5392801072,0.700768,0.31232,0.486048,-6.0725,0.28,-10.42125,-45.048,-2.496,-68.536,eccentric,4,5.0,29357.0,34045.0,87944.0,83501.0,26530.0,42320.0,38629.0,46987.0,18045.0,14550.0
2026-05-06 16:38:49.527206,959009,1609507792897439,5392809874,0.700768,0.31232,0.486048,-9.45,0.44625,-10.59625,-45.048,-2.496,-68.536,eccentric,4,5.0,29357.0,34045.0,87944.0,83501.0,26530.0,42320.0,38629.0,46987.0,18045.0,14550.0
2026-05-06 16:38:49.532242,959010,1609507792906612,5392818696,0.694912,0.349408,0.476288,-8.60125,0.69125,-7.9625,-44.736004,-3.136,-67.776,eccentric,4,5.0,29357.0,34045.0,87944.0,83501.0,26530.0,42320.0,38629.0,46987.0,18045.0,14550.0
2026-05-06 16:38:49.559524,959021,1609507792921428,5392833768,0.694912,0.349408,0.476288,-5.8275,0.5425,-7.0175,-44.736004,-3.136,-67.776,eccentric,4,5.0,29362.0,34034.0,87949.0,83430.0,26508.0,42313.0,38620.0,46951.0,18039.0,14563.0
2026-05-06 16:38:49.562127,959022,1609507792930418,5392842512,0.710528,0.308416,0.528992,-5.04,0.5425,-7.4025,-45.056004,-4.296,-67.344,eccentric,4,5.0,29362.0,34034.0,87949.0,83430.0,26508.0,42313.0,38620.0,46951.0,18039.0,14563.0
2026-05-06 16:38:49.566063,959023,1609507792944911,5392857449,0.710528,0.308416,0.528992,-4.62,1.5225,-6.02875,-45.056004,-4.296,-67.344,eccentric,4,5.0,29362.0,34034.0,87949.0,83430.0,26508.0,42313.0,38620.0,46951.0,18039.0,14563.0
2026-05-06 16:38:49.569363,959024,1609507792953850,5392866164,0.696864,0.359168,0.56608,-2.75625,1.96,-4.71625,-45.024002,-4.672,-67.840004,eccentric,4,5.0,29362.0,34034.0,87949.0,83430.0,26508.0,42313.0,38620.0,46951.0,18039.0,14563.0
2026-05-06 16:38:49.578380,959025,1609507792962817,5392874885,0.696864,0.359168,0.56608,-2.8875,2.2225,-5.22375,-45.024002,-4.672,-67.840004,eccentric,4,5.0,29362.0,34034.0,87949.0,83430.0,26508.0,42313.0,38620.0,46951.0,18039.0,14563.0
2026-05-06 16:38:49.592158,959026,1609507792977382,5392889923,0.659776,0.357216,0.46848,-5.355,1.9425,-7.53375,-44.848003,-1.672,-69.848,eccentric,4,5.0,29362.0,34034.0,87949.0,83430.0,26508.0,42313.0,38620.0,46951.0,18039.0,14563.0
2026-05-06 16:38:49.600583,959027,1609507792986455,5392898743,0.675392,0.300608,0.538752,-5.27625,1.54,-9.1875,-44.848003,-1.672,-67.8,eccentric,4,5.0,29362.0,34034.0,87949.0,83430.0,26508.0,42313.0,38620.0,46951.0,18039.0,14563.0
2026-05-06 16:38:49.634358,959028,1609507793001000,5392913645,0.677344,0.300608,0.538752,-3.92875,1.44375,-9.66875,-44.960003,-2.992,-69.36,eccentric,4,5.0,29362.0,34034.0,87949.0,83430.0,26508.0,42313.0,38620.0,46951.0,18039.0,14563.0
2026-05-06 16:38:49.637204,959029,1609507793009912,5392922350,0.665632,0.35136,0.542656,-2.0125,1.39125,-8.1725,-45.04,-1.752,-69.384,eccentric,4,5.0,29362.0,34034.0,87949.0,83430.0,26508.0,42313.0,38620.0,46951.0,18039.0,14563.0
2026-05-06 16:38:49.666771,959040,1609507793024494,5392935268,0.665632,0.35136,0.542656,-0.35875,1.155,-7.67375,-45.04,-1.752,-69.384,eccentric,4,5.0,29365.0,34041.0,87827.0,83404.0,26511.0,42308.0,38567.0,46897.0,18043.0,14532.0
2026-05-06 16:38:49.669605,959041,1609507793033865,5392946062,0.646112,0.353312,0.462624,-0.8575,1.02375,-7.91875,-45.064003,-1.96,-69.624,eccentric,4,5.0,29365.0,34041.0,87827.0,83404.0,26511.0,42308.0,38567.0,46897.0,18043.0,14532.0
2026-05-06 16:38:49.674594,959042,1609507793042911,5392954892,0.646112,0.353312,0.462624,-2.1175,0.77,-8.96875,-45.064003,-1.96,-69.624,eccentric,4,5.0,29365.0,34041.0,87827.0,83404.0,26511.0,42308.0,38567.0,46897.0,18043.0,14532.0
2026-05-06 16:38:49.677078,959043,1609507793057535,5392969838,0.675392,0.316224,0.472384,-2.695,-0.49875,-9.31875,-44.68,-3.96,-69.248,eccentric,4,5.0,29365.0,34041.0,87827.0,83404.0,26511.0,42308.0,38567.0,46897.0,18043.0,14532.0
2026-05-06 16:38:49.680812,959044,1609507793066523,5392978555,0.675392,0.316224,0.525088,-0.63,-1.12875,-7.53375,-44.68,-3.96,-69.248,eccentric,4,5.0,29365.0,34041.0,87827.0,83404.0,26511.0,42308.0,38567.0,46897.0,18043.0,14532.0
2026-05-06 16:38:49.694365,959045,1609507793081016,5392993484,0.64416,0.386496,0.525088,1.42625,-2.16125,-5.6875,-45.096,-1.56,-69.28001,eccentric,4,5.0,29365.0,34041.0,87827.0,83404.0,26511.0,42308.0,38567.0,46897.0,18043.0,14532.0
2026-05-06 16:38:49.703388,959046,1609507793089968,5393002215,0.646112,0.384544,0.519232,-1.12,-3.35125,-6.18625,-44.984,-1.824,-69.704,eccentric,4,5.0,29365.0,34041.0,87827.0,83404.0,26511.0,42308.0,38567.0,46897.0,18043.0,14532.0
2026-05-06 16:38:49.716797,959047,1609507793099042,5393010968,0.646112,0.384544,0.519232,-5.32875,-3.19375,-7.9275,-44.984,-1.824,-69.704,eccentric,4,5.0,29365.0,34041.0,87827.0,83404.0,26511.0,42308.0,38567.0,46897.0,18043.0,14532.0
2026-05-06 16:38:49.730971,959048,1609507793113646,5393025899,0.677344,0.35136,0.528992,-5.5125,-3.465,-8.225,-45.152,-1.856,-69.816,eccentric,4,5.0,29365.0,34041.0,87827.0,83404.0,26511.0,42308.0,38567.0,46897.0,18043.0,14532.0
2026-05-06 16:38:49.758622,959059,1609507793122734,5393034629,0.677344,0.35136,0.528992,-4.59375,-3.465,-8.1375,-45.152,-1.856,-69.816,eccentric,4,5.0,29490.0,34131.0,87941.0,83224.0,26681.0,42433.0,38645.0,46819.0,18149.0,14603.0
2026-05-06 16:38:49.760732,959060,1609507793137321,5393049649,0.669536,0.343552,0.50752,-3.29875,-3.66625,-7.21,-45.208004,-5.84,-67.624,eccentric,4,5.0,29490.0,34131.0,87941.0,83224.0,26681.0,42433.0,38645.0,46819.0,18149.0,14603.0
2026-05-06 16:38:49.762735,959061,1609507793146283,5393058354,0.669536,0.343552,0.50752,-2.96625,-3.54375,-6.51875,-45.208004,-5.84,-67.624,eccentric,4,5.0,29490.0,34131.0,87941.0,83224.0,26681.0,42433.0,38645.0,46819.0,18149.0,14603.0
2026-05-06 16:38:49.769471,959062,1609507793155319,5393067158,0.677344,0.355264,0.530944,-4.8125,-2.5025,-5.83625,-44.968002,-3.944,-68.184006,eccentric,4,5.0,29490.0,34131.0,87941.0,83224.0,26681.0,42433.0,38645.0,46819.0,18149.0,14603.0
2026-05-06 16:38:49.798327,959063,1609507793169951,5393082117,0.677344,0.374784,0.548512,-5.8975,-1.6625,-5.60875,-44.696003,-1.792,-69.736,eccentric,4,5.0,29490.0,34131.0,87941.0,83224.0,26681.0,42433.0,38645.0,46819.0,18149.0,14603.0
2026-05-06 16:38:49.823385,959064,1609507793178894,5393090861,0.677344,0.374784,0.548512,-5.90625,-0.56,-6.78125,-44.696003,-1.792,-69.736,eccentric,4,5.0,29490.0,34131.0,87941.0,83224.0,26681.0,42433.0,38645.0,46819.0,18149.0,14603.0
2026-05-06 16:38:49.838728,959065,1609507793193420,5393105792,0.679296,0.349408,0.486048,-5.59125,0.0175,-8.015,-45.264004,-2.28,-69.96001,eccentric,4,5.0,29490.0,34131.0,87941.0,83224.0,26681.0,42433.0,38645.0,46819.0,18149.0,14603.0
2026-05-06 16:38:49.839093,959066,1609507793202399,5393114512,0.679296,0.349408,0.486048,-5.7575,0.385,-10.2025,-45.264004,-2.28,-69.96001,eccentric,4,5.0,29490.0,34131.0,87941.0,83224.0,26681.0,42433.0,38645.0,46819.0,18149.0,14603.0
2026-05-06 16:38:49.865871,959077,1609507793217577,5393129602,0.669536,0.327936,0.50752,-5.45125,0.735,-10.3775,-44.968002,-2.64,-70.232,eccentric,4,5.0,29551.0,34216.0,88043.0,83334.0,26738.0,42534.0,38711.0,46891.0,18179.0,14636.0
2026-05-06 16:38:49.867941,959078,1609507793226597,5393138366,0.669536,0.327936,0.50752,-4.8125,0.595,-10.0275,-44.968002,-2.64,-70.232,eccentric,4,5.0,29551.0,34216.0,88043.0,83334.0,26738.0,42534.0,38711.0,46891.0,18179.0,14636.0
2026-05-06 16:38:49.870821,959079,1609507793235522,5393147171,0.669536,0.368928,0.525088,-3.24625,0.84875,-9.4675,-44.856003,-2.544,-70.184006,eccentric,4,5.0,29551.0,34216.0,88043.0,83334.0,26738.0,42534.0,38711.0,46891.0,18179.0,14636.0
2026-05-06 16:38:49.872957,959080,1609507793250142,5393162116,0.69296,0.335744,0.538752,-0.2275,1.18125,-8.89,-45.128002,-2.36,-71.456,eccentric,4,5.0,29551.0,34216.0,88043.0,83334.0,26738.0,42534.0,38711.0,46891.0,18179.0,14636.0
2026-05-06 16:38:49.875886,959081,1609507793259368,5393171023,0.69296,0.335744,0.538752,0.9625,1.225,-9.37125,-45.128002,-2.36,-71.456,eccentric,4,5.0,29551.0,34216.0,88043.0,83334.0,26738.0,42534.0,38711.0,46891.0,18179.0,14636.0
2026-05-06 16:38:49.882842,959082,1609507793268428,5393179802,0.69296,0.368928,0.50752,1.8375,1.21625,-8.8025,-45.128002,-2.36,-69.328,eccentric,4,5.0,29551.0,34216.0,88043.0,83334.0,26738.0,42534.0,38711.0,46891.0,18179.0,14636.0
2026-05-06 16:38:49.897155,959083,1609507793282931,5393194708,0.667584,0.368928,0.50752,2.2925,1.54,-6.79875,-45.216003,-2.488,-69.328,eccentric,4,5.0,29551.0,34216.0,88043.0,83334.0,26738.0,42534.0,38711.0,46891.0,18179.0,14636.0
2026-05-06 16:38:49.905910,959084,1609507793291877,5393203492,0.677344,0.355264,0.466528,2.135,1.155,-6.85125,-44.904003,-2.704,-69.832,eccentric,4,5.0,29551.0,34216.0,88043.0,83334.0,26738.0,42534.0,38711.0,46891.0,18179.0,14636.0
2026-05-06 16:38:49.919640,959085,1609507793306388,5393218422,0.677344,0.355264,0.466528,0.49875,1.0675,-7.8575,-44.904003,-2.704,-69.832,eccentric,4,5.0,29551.0,34216.0,88043.0,83334.0,26738.0,42534.0,38711.0,46891.0,18179.0,14636.0
2026-05-06 16:38:49.932609,959086,1609507793315311,5393227178,0.667584,0.36112,0.542656,4.795,0.34125,-6.92125,-45.008003,-2.248,-68.032005,eccentric,4,5.0,29551.0,34216.0,88043.0,83334.0,26738.0,42534.0,38711.0,46891.0,18179.0,14636.0
2026-05-06 16:38:49.962809,959097,1609507793330159,5393242235,0.657824,0.376736,0.548512,6.23,-0.32375,-7.1225,-44.912003,-2.296,-67.232,eccentric,4,5.0,29564.0,34178.0,88041.0,83322.0,26719.0,42500.0,38660.0,46883.0,18178.0,14619.0
2026-05-06 16:38:49.966026,959098,1609507793339223,5393251130,0.657824,0.376736,0.548512,2.80875,-0.6475,-6.85125,-44.912003,-2.296,-67.232,eccentric,4,5.0,29564.0,34178.0,88041.0,83322.0,26719.0,42500.0,38660.0,46883.0,18178.0,14619.0
2026-05-06 16:38:49.967859,959099,1609507793348244,5393259874,0.657824,0.376736,0.548512,-0.53375,-0.77875,-6.65875,-44.912003,-2.296,-67.232,eccentric,4,5.0,29564.0,34178.0,88041.0,83322.0,26719.0,42500.0,38660.0,46883.0,18178.0,14619.0
2026-05-06 16:38:49.976692,959100,1609507793362713,5393274840,0.628544,0.406016,0.489952,-1.2075,0.175,-7.56875,-45.160004,-4.216,-69.464005,eccentric,4,5.0,29564.0,34178.0,88041.0,83322.0,26719.0,42500.0,38660.0,46883.0,18178.0,14619.0
2026-05-06 16:38:50.013381,959101,1609507793371750,5393283565,0.65392,0.363072,0.491904,0.1925,0.21,-8.30375,-45.328003,-2.568,-69.8,eccentric,4,5.0,29564.0,34178.0,88041.0,83322.0,26719.0,42500.0,38660.0,46883.0,18178.0,14619.0
2026-05-06 16:38:50.016038,959102,1609507793386291,5393298473,0.65392,0.363072,0.491904,0.6125,0.16625,-10.35125,-45.328003,-2.568,-69.8,eccentric,4,5.0,29564.0,34178.0,88041.0,83322.0,26719.0,42500.0,38660.0,46883.0,18178.0,14619.0
2026-05-06 16:38:50.018383,959103,1609507793395185,5393307188,0.636352,0.382592,0.519232,1.1375,0.56,-9.66875,-44.952003,-2.84,-69.552,eccentric,4,5.0,29564.0,34178.0,88041.0,83322.0,26719.0,42500.0,38660.0,46883.0,18178.0,14619.0
2026-05-06 16:38:50.020918,959104,1609507793404144,5393315883,0.636352,0.382592,0.519232,0.035,0.7,-8.70625,-44.952003,-2.84,-69.552,eccentric,4,5.0,29564.0,34178.0,88041.0,83322.0,26719.0,42500.0,38660.0,46883.0,18178.0,14619.0
2026-05-06 16:38:50.061721,959116,1609507793419041,5393330861,0.638304,0.4392,0.495808,-2.9575,1.4525,-8.417501,-45.472004,-5.208,-67.112,eccentric,4,5.0,29553.0,34162.0,87874.0,83096.0,26714.0,42488.0,38597.0,46734.0,18159.0,14616.0
2026-05-06 16:38:50.064603,959117,1609507793428112,5393339668,0.638304,0.4392,0.495808,-6.4925,1.77625,-10.64875,-45.472004,-5.208,-67.112,eccentric,4,5.0,29553.0,34162.0,87874.0,83096.0,26714.0,42488.0,38597.0,46734.0,18159.0,14616.0
2026-05-06 16:38:50.066685,959118,1609507793442656,5393354580,0.669536,0.343552,0.571936,-8.575,2.4325,-12.76625,-45.152,-2.808,-69.712006,eccentric,4,5.0,29553.0,34162.0,87874.0,83096.0,26714.0,42488.0,38597.0,46734.0,18159.0,14616.0
2026-05-06 16:38:50.069714,959119,1609507793451657,5393363446,0.648064,0.392352,0.47824,-6.8775,2.49375,-10.5875,-45.368004,-3.128,-71.176,eccentric,4,5.0,29553.0,34162.0,87874.0,83096.0,26714.0,42488.0,38597.0,46734.0,18159.0,14616.0
2026-05-06 16:38:50.072875,959120,1609507793460593,5393372171,0.648064,0.392352,0.47824,-3.57,2.47625,-7.42875,-45.368004,-3.128,-71.176,eccentric,4,5.0,29553.0,34162.0,87874.0,83096.0,26714.0,42488.0,38597.0,46734.0,18159.0,14616.0
2026-05-06 16:38:50.089278,959121,1609507793475144,5393387129,0.609024,0.445056,0.515328,-4.2175,2.02125,-6.67625,-45.352,-2.968,-69.768005,eccentric,4,5.0,29553.0,34162.0,87874.0,83096.0,26714.0,42488.0,38597.0,46734.0,18159.0,14616.0
2026-05-06 16:38:50.100846,959122,1609507793484062,5393395851,0.609024,0.445056,0.515328,-9.89625,2.52,-8.435,-45.352,-2.968,-69.768005,eccentric,4,5.0,29553.0,34162.0,87874.0,83096.0,26714.0,42488.0,38597.0,46734.0,18159.0,14616.0
