pc_time,serial_num,sensor_ts,host_ts,ax,ay,az,gx,gy,gz,mx,my,mz,phase,rpe,weight_kg,ppg_a,ppg_b,ppg_c,ppg_d,ppg_e
2026-04-14 17:22:49.842725,252114,1609504863473395,2463443334,-1.114592,-0.001952,0.11712,-7.46375,4.2525,-5.22375,22.624,28.176,10.280001,none,4,3.0,52110.0,230616.0,112332.0,228167.0,124395.0
2026-04-14 17:22:49.853822,252115,1609504863487883,2463456221,-1.114592,-0.001952,0.11712,-4.585,6.1075,-5.36375,22.624,28.176,10.280001,none,4,3.0,52110.0,230616.0,112332.0,228167.0,124395.0
2026-04-14 17:22:49.853903,252116,1609504863496992,2463466945,-1.077504,-0.015616,-0.001952,-3.38625,7.25375,-6.3175,22.160002,28.104002,10.336,none,4,3.0,52110.0,230616.0,112332.0,228167.0,124395.0
2026-04-14 17:22:49.866097,252117,1609504863511452,2463479871,-1.067744,0.0,-0.015616,-5.95,7.5425,-8.3475,21.944,28.224,9.416,none,4,3.0,52110.0,230616.0,112332.0,228167.0,124395.0
2026-04-14 17:22:49.866336,252118,1609504863520736,2463490640,-1.067744,0.0,-0.015616,-9.1,7.81375,-10.745,21.944,28.224,9.416,none,4,3.0,52110.0,230616.0,112332.0,228167.0,124395.0
2026-04-14 17:22:49.866468,252119,1609504863529754,2463499318,-1.067744,0.0,-0.056608,-10.92875,7.49875,-13.685,21.944,28.224,9.416,none,4,3.0,52110.0,230616.0,112332.0,228167.0,124395.0
2026-04-14 17:22:49.866623,252120,1609504863544191,2463514169,-1.042368,-0.044896,-0.056608,-12.67875,6.195,-16.0125,21.984001,28.232002,8.144,none,4,3.0,52110.0,230616.0,112332.0,228167.0,124395.0
2026-04-14 17:22:49.866749,252121,1609504863553119,2463522858,-1.087264,-0.033184,0.0976,-13.06375,4.73375,-16.17,21.832,28.504002,10.288,none,4,3.0,52110.0,230616.0,112332.0,228167.0,124395.0
2026-04-14 17:22:49.888404,252132,1609504863567667,2463537915,-1.087264,-0.033184,0.0976,-10.64,3.955,-16.9225,21.832,28.504002,10.288,none,4,3.0,49302.0,227968.0,107562.0,224940.0,119493.0
2026-04-14 17:22:49.891006,252133,1609504863576990,2463546637,-1.009184,0.011712,0.199104,-9.3275,3.4125,-17.36,21.312,28.968002,10.776001,none,4,3.0,49302.0,227968.0,107562.0,224940.0,119493.0
2026-04-14 17:22:49.893382,252134,1609504863585935,2463555369,-1.009184,0.011712,0.199104,-9.555,5.03125,-17.43875,21.312,28.968002,10.776001,none,4,3.0,49302.0,227968.0,107562.0,224940.0,119493.0
2026-04-14 17:22:49.895821,252135,1609504863600426,2463570362,-1.097024,0.042944,-0.062464,-14.2275,7.07,-19.32,21.056002,29.336,10.240001,none,4,3.0,49302.0,227968.0,107562.0,224940.0,119493.0
2026-04-14 17:22:49.898569,252136,1609504863609385,2463579072,-1.097024,0.042944,-0.062464,-24.465,6.95625,-21.6825,21.056002,29.336,10.240001,none,4,3.0,49302.0,227968.0,107562.0,224940.0,119493.0
2026-04-14 17:22:49.901023,252137,1609504863623959,2463594026,-1.114592,0.005856,-0.081984,-34.04625,6.95625,-23.275,21.024,29.208002,9.6,none,4,3.0,49302.0,227968.0,107562.0,224940.0,119493.0
2026-04-14 17:22:49.909794,252138,1609504863632979,2463602744,-1.048224,-0.07808,0.005856,-36.575,5.87125,-24.3775,21.584002,29.464,8.912001,none,4,3.0,49302.0,227968.0,107562.0,224940.0,119493.0
2026-04-14 17:22:49.926053,252139,1609504863647448,2463617612,-1.048224,-0.07808,0.005856,-28.11375,4.2,-24.9375,21.584002,29.464,8.912001,none,4,3.0,49302.0,227968.0,107562.0,224940.0,119493.0
2026-04-14 17:22:49.936111,252140,1609504863656354,2463626279,-1.106784,-0.01952,-0.095648,-14.48125,4.24375,-24.8675,22.224,29.392002,7.816001,none,4,3.0,49302.0,227968.0,107562.0,224940.0,119493.0
2026-04-14 17:22:49.944838,252141,1609504863665265,2463634976,-1.106784,-0.01952,-0.095648,-3.2025,4.55,-25.655,22.224,29.392002,7.816001,none,4,3.0,49302.0,227968.0,107562.0,224940.0,119493.0
2026-04-14 17:22:49.972474,252152,1609504863679855,2463649957,-1.052128,0.003904,-0.037088,2.7475,5.0575,-26.29375,21.704,29.496002,8.816,none,4,3.0,57844.0,240517.0,120668.0,235662.0,132968.0
2026-04-14 17:22:49.977457,252153,1609504863688776,2463658782,-1.052128,0.003904,-0.037088,1.505,5.775,-27.1425,21.704,29.496002,8.816,none,4,3.0,57844.0,240517.0,120668.0,235662.0,132968.0
2026-04-14 17:22:49.982349,252154,1609504863703372,2463673660,-1.05408,-0.017568,-0.052704,-3.8675,6.3525,-29.44375,20.880001,29.880001,8.736,none,4,3.0,57844.0,240517.0,120668.0,235662.0,132968.0
2026-04-14 17:22:49.991076,252155,1609504863712306,2463682366,-1.071648,0.021472,-0.109312,-6.9825,8.417501,-30.82625,20.6,30.208002,9.6,none,4,3.0,57844.0,240517.0,120668.0,235662.0,132968.0
2026-04-14 17:22:50.002473,252156,1609504863726821,2463695214,-1.071648,0.021472,-0.109312,-13.41375,11.83875,-35.455,20.6,30.208002,9.6,none,4,3.0,57844.0,240517.0,120668.0,235662.0,132968.0
2026-04-14 17:22:50.013694,252157,1609504863736018,2463705961,-1.06384,-0.070272,-0.091744,-19.7925,10.955,-39.935,20.768002,30.352001,7.968,none,4,3.0,57844.0,240517.0,120668.0,235662.0,132968.0
2026-04-14 17:22:50.022343,252158,1609504863744947,2463714669,-1.06384,-0.070272,-0.091744,-23.31875,10.36,-39.83875,20.768002,30.352001,7.968,none,4,3.0,57844.0,240517.0,120668.0,235662.0,132968.0
2026-04-14 17:22:50.038711,252159,1609504863759383,2463729540,-0.962336,-0.113216,0.08784,-21.79625,8.96,-39.38375,20.648,30.616001,8.832001,none,4,3.0,57844.0,240517.0,120668.0,235662.0,132968.0
2026-04-14 17:22:50.071256,252170,1609504863768288,2463738233,-0.962336,-0.113216,0.08784,-14.035,8.645,-36.18125,20.648,30.616001,8.832001,none,4,3.0,61794.0,247356.0,125994.0,241358.0,138132.0
2026-04-14 17:22:50.073760,252171,1609504863782800,2463753145,-1.050176,-0.015616,0.10736,-6.04625,10.6225,-33.95875,20.616001,30.576002,6.632,none,4,3.0,61794.0,247356.0,125994.0,241358.0,138132.0
2026-04-14 17:22:50.076246,252172,1609504863791840,2463761855,-1.007232,-0.046848,0.007808,-4.27875,11.85625,-35.805,20.616001,32.624,9.136001,none,4,3.0,61794.0,247356.0,125994.0,241358.0,138132.0
2026-04-14 17:22:50.078503,252173,1609504863800799,2463770550,-1.007232,-0.046848,0.007808,-8.575,11.8825,-34.326252,20.624,31.064001,9.136001,none,4,3.0,61794.0,247356.0,125994.0,241358.0,138132.0
2026-04-14 17:22:50.094897,252174,1609504863815324,2463785424,-1.095072,-0.072224,0.023424,-15.39125,10.823751,-33.59125,20.224,30.944002,6.672,none,4,3.0,61794.0,247356.0,125994.0,241358.0,138132.0
2026-04-14 17:22:50.101567,252175,1609504863824283,2463794115,-1.095072,-0.072224,0.023424,-19.01375,9.59875,-31.52625,20.224,30.944002,6.672,none,4,3.0,61794.0,247356.0,125994.0,241358.0,138132.0
2026-04-14 17:22:50.118837,252176,1609504863838917,2463809013,-1.030656,-0.122976,0.021472,-15.60125,10.3775,-28.647501,20.232,31.288002,6.904,none,4,3.0,61794.0,247356.0,125994.0,241358.0,138132.0
2026-04-14 17:22:50.144107,252177,1609504863847827,2463817696,-1.030656,-0.122976,0.021472,-10.22875,12.55625,-27.65,20.232,31.288002,6.904,none,4,3.0,61794.0,247356.0,125994.0,241358.0,138132.0
2026-04-14 17:22:50.146610,252178,1609504863862346,2463832579,-1.1224,-0.050752,-0.060512,-5.565,14.4025,-26.87125,20.248001,31.328001,7.464,none,4,3.0,61794.0,247356.0,125994.0,241358.0,138132.0
2026-04-14 17:22:50.203545,252189,1609504863871774,2463841340,-1.1224,-0.050752,-0.060512,-3.38625,15.435,-24.00125,20.248001,31.328001,7.464,none,4,3.0,56016.0,239352.0,117877.0,235051.0,129980.0
2026-04-14 17:22:50.206562,252190,1609504863880858,2463850136,-1.128256,-0.007808,0.027328,-5.39,15.46125,-22.28625,19.424002,31.800001,9.608001,none,4,3.0,56016.0,239352.0,117877.0,235051.0,129980.0
2026-04-14 17:22:50.210780,252191,1609504863895360,2463865061,-1.079456,-0.081984,-0.003904,-9.065,15.365,-22.925,19.272001,31.672,7.408001,none,4,3.0,56016.0,239352.0,117877.0,235051.0,129980.0
2026-04-14 17:22:50.210979,252192,1609504863904301,2463873733,-1.079456,-0.081984,-0.003904,-13.055,14.74375,-22.5925,19.272001,31.672,7.408001,none,4,3.0,56016.0,239352.0,117877.0,235051.0,129980.0
2026-04-14 17:22:50.215746,252193,1609504863918844,2463888667,-1.110688,-0.046848,0.105408,-14.2275,13.55375,-19.241251,19.488,32.088,7.24,none,4,3.0,56016.0,239352.0,117877.0,235051.0,129980.0
2026-04-14 17:22:50.216603,252194,1609504863927743,2463897371,-1.110688,-0.046848,0.105408,-14.805,13.5975,-17.3775,19.488,32.088,7.24,none,4,3.0,56016.0,239352.0,117877.0,235051.0,129980.0
2026-04-14 17:22:50.218402,252195,1609504863936680,2463906042,-1.13216,-0.044896,0.08784,-13.15125,13.29125,-18.54125,19.088001,31.896002,6.912,none,4,3.0,56016.0,239352.0,117877.0,235051.0,129980.0
2026-04-14 17:22:50.228913,252196,1609504863951175,2463920997,-1.13216,-0.044896,0.08784,-9.02125,13.4225,-17.2025,19.088001,31.896002,6.912,none,4,3.0,56016.0,239352.0,117877.0,235051.0,129980.0
2026-04-14 17:22:50.238946,252197,1609504863960082,2463929699,-1.147776,-0.040992,-0.035136,-5.71375,13.79,-15.39125,20.208,31.688002,5.672,none,4,3.0,56016.0,239352.0,117877.0,235051.0,129980.0
2026-04-14 17:22:50.271023,252208,1609504863974703,2463943089,-1.120448,-0.040992,-0.05856,-5.73125,13.7375,-14.84875,19.672,31.544,5.136,none,4,3.0,50649.0,230949.0,109760.0,227434.0,121781.0
2026-04-14 17:22:50.273569,252209,1609504863984042,2463953853,-1.120448,-0.040992,-0.05856,-7.35,13.4575,-14.72625,19.672,31.544,5.136,none,4,3.0,50649.0,230949.0,109760.0,227434.0,121781.0
2026-04-14 17:22:50.279095,252210,1609504863998567,2463968792,-1.114592,-0.037088,0.044896,-9.485,14.11375,-14.5775,18.464,32.256,7.152,none,4,3.0,50649.0,230949.0,109760.0,227434.0,121781.0
2026-04-14 17:22:50.286130,252211,1609504864007482,2463977541,-1.114592,-0.037088,0.044896,-13.2125,14.04375,-14.5075,18.464,32.256,7.152,none,4,3.0,50649.0,230949.0,109760.0,227434.0,121781.0
2026-04-14 17:22:50.293843,252212,1609504864016476,2463986220,-1.10288,-0.040992,0.06832,-16.178751,14.0875,-14.34125,19.952002,31.968002,5.144,none,4,3.0,50649.0,230949.0,109760.0,227434.0,121781.0
2026-04-14 17:22:50.327656,252213,1609504864030939,2464001095,-1.10288,-0.040992,0.06832,-17.01875,13.93875,-14.0525,19.952002,31.968002,5.144,none,4,3.0,50649.0,230949.0,109760.0,227434.0,121781.0
2026-04-14 17:22:50.337770,252214,1609504864039854,2464009787,-1.13216,-0.056608,0.074176,-18.515,13.448751,-13.99125,19.968,32.024002,4.592,none,4,3.0,50649.0,230949.0,109760.0,227434.0,121781.0
2026-04-14 17:22:50.340263,252215,1609504864054328,2464024629,-1.136064,-0.033184,0.070272,-17.78,11.99625,-13.06375,20.080002,32.168003,6.72,none,4,3.0,50649.0,230949.0,109760.0,227434.0,121781.0
2026-04-14 17:22:50.342762,252216,1609504864063304,2464033396,-1.136064,-0.033184,0.070272,-15.16375,10.92,-11.61125,20.080002,32.168003,6.72,none,4,3.0,50649.0,230949.0,109760.0,227434.0,121781.0
2026-04-14 17:22:50.372821,252227,1609504864077902,2464046293,-1.040416,-0.07808,0.085888,-12.60875,10.36,-10.80625,19.368,32.176003,5.72,none,4,3.0,47924.0,226463.0,105504.0,223247.0,117344.0
2026-04-14 17:22:50.375313,252228,1609504864087198,2464057102,-1.040416,-0.07808,0.085888,-12.88875,10.07125,-10.3425,19.368,32.176003,5.72,none,4,3.0,47924.0,226463.0,105504.0,223247.0,117344.0
2026-04-14 17:22:50.377762,252229,1609504864096145,2464065833,-1.110688,-0.03904,0.109312,-14.48125,9.87875,-8.65375,19.128,32.448,5.528,none,4,3.0,47924.0,226463.0,105504.0,223247.0,117344.0
2026-04-14 17:22:50.389062,252230,1609504864110671,2464080819,-1.110688,-0.03904,0.109312,-14.84,10.2725,-6.50125,19.128,32.448,5.528,none,4,3.0,47924.0,226463.0,105504.0,223247.0,117344.0
2026-04-14 17:22:50.399826,252231,1609504864119607,2464089515,-1.09312,-0.101504,-0.109312,-14.72625,10.63125,-5.3725,20.0,32.344,3.784,none,4,3.0,47924.0,226463.0,105504.0,223247.0,117344.0
2026-04-14 17:22:50.412304,252232,1609504864134119,2464104405,-1.05408,-0.144448,0.046848,-14.07,11.08625,-3.5875,20.36,32.304,5.664,none,4,3.0,47924.0,226463.0,105504.0,223247.0,117344.0
2026-04-14 17:22:50.422647,252233,1609504864143080,2464113090,-1.05408,-0.144448,0.046848,-14.18375,10.2375,-1.8375,20.36,32.304,5.664,none,4,3.0,47924.0,226463.0,105504.0,223247.0,117344.0
2026-04-14 17:22:50.431091,252234,1609504864152019,2464121762,-1.05408,-0.144448,0.046848,-16.23125,8.53125,-0.7875,20.36,32.304,5.664,none,4,3.0,47924.0,226463.0,105504.0,223247.0,117344.0
2026-04-14 17:22:50.443707,252235,1609504864166501,2464136708,-1.106784,-0.099552,-0.103456,-13.27375,6.93875,2.07375,20.36,31.984001,4.952,none,4,3.0,47924.0,226463.0,105504.0,223247.0,117344.0
2026-04-14 17:22:50.472793,252246,1609504864175519,2464145516,-1.143872,-0.042944,0.056608,-7.67375,6.53625,4.13,20.016,32.056,2.36,none,4,3.0,44819.0,219810.0,100492.0,217670.0,111937.0
2026-04-14 17:22:50.475283,252247,1609504864190068,2464158420,-1.143872,-0.042944,0.056608,-5.8625,6.195,4.2,20.016,32.056,2.36,none,4,3.0,44819.0,219810.0,100492.0,217670.0,111937.0
2026-04-14 17:22:50.477799,252248,1609504864199253,2464169172,-1.079456,-0.095648,0.080032,-9.345,5.5125,4.38375,18.952002,32.536003,4.752,none,4,3.0,44819.0,219810.0,100492.0,217670.0,111937.0
2026-04-14 17:22:50.513994,252249,1609504864208165,2464177841,-1.079456,-0.095648,0.080032,-12.985,5.11875,5.41625,18.952002,32.536003,4.752,none,4,3.0,44819.0,219810.0,100492.0,217670.0,111937.0
2026-04-14 17:22:50.516032,252250,1609504864222623,2464192707,-1.1712,-0.085888,-0.06832,-11.83875,5.075,5.88,20.248001,32.4,3.528,none,4,3.0,44819.0,219810.0,100492.0,217670.0,111937.0
2026-04-14 17:22:50.518301,252251,1609504864231537,2464201362,-1.1712,-0.085888,-0.06832,-6.20375,5.355,6.2125,20.248001,32.4,3.528,none,4,3.0,44819.0,219810.0,100492.0,217670.0,111937.0
2026-04-14 17:22:50.543726,252252,1609504864246096,2464216360,-1.042368,-0.099552,-0.00976,-1.81125,6.3175,7.06125,20.6,32.032,3.448,none,4,3.0,44819.0,219810.0,100492.0,217670.0,111937.0
2026-04-14 17:22:50.561170,252253,1609504864255110,2464225030,-1.04432,-0.040992,0.074176,-2.1525,6.265,7.385,20.576,32.32,4.296,none,4,3.0,44819.0,219810.0,100492.0,217670.0,111937.0
2026-04-14 17:22:50.593189,252264,1609504864269562,2464240398,-1.04432,-0.040992,0.074176,-6.7025,4.87375,6.95625,20.576,32.32,4.296,none,4,3.0,40916.0,209642.0,93704.0,208623.0,104565.0
2026-04-14 17:22:50.593310,252265,1609504864278538,2464247047,-1.057984,-0.052704,0.089792,-10.85875,3.99875,7.4725,19.896002,32.272003,4.104,none,4,3.0,40916.0,209642.0,93704.0,208623.0,104565.0
2026-04-14 17:22:50.593360,252266,1609504864287887,2464257805,-1.057984,-0.052704,0.089792,-14.2625,2.89625,8.0325,19.896002,32.272003,4.104,none,4,3.0,40916.0,209642.0,93704.0,208623.0,104565.0
2026-04-14 17:22:50.596087,252267,1609504864302418,2464272744,-1.065792,-0.122976,-0.122976,-14.35875,2.24875,8.8375,20.160002,32.272003,4.272,none,4,3.0,40916.0,209642.0,93704.0,208623.0,104565.0
2026-04-14 17:22:50.598404,252268,1609504864311370,2464281417,-1.065792,-0.122976,-0.122976,-11.34875,2.16125,11.01625,20.160002,32.272003,4.272,none,4,3.0,40916.0,209642.0,93704.0,208623.0,104565.0
2026-04-14 17:22:50.607304,252269,1609504864325877,2464294346,-1.022848,-0.062464,0.12688,-6.02,2.8875,12.46,20.376001,32.072002,3.688,none,4,3.0,40916.0,209642.0,93704.0,208623.0,104565.0
2026-04-14 17:22:50.612385,252270,1609504864335189,2464305108,-1.026752,-0.060512,-0.033184,-1.3125,3.045,12.64375,20.376001,32.072002,0.568,none,4,3.0,40916.0,209642.0,93704.0,208623.0,104565.0
2026-04-14 17:22:50.622481,252271,1609504864344195,2464313800,-1.026752,-0.060512,-0.033184,-1.32125,3.12375,12.20625,21.184002,32.08,0.568,none,4,3.0,40916.0,209642.0,93704.0,208623.0,104565.0
2026-04-14 17:22:50.637400,252272,1609504864358669,2464328672,-1.011136,-0.046848,0.095648,-6.13375,2.66875,11.66375,21.44,31.752,2.936,none,4,3.0,40916.0,209642.0,93704.0,208623.0,104565.0
2026-04-14 17:22:50.644876,252273,1609504864367609,2464337425,-1.011136,-0.046848,0.095648,-12.83625,1.67125,10.7275,21.44,31.752,2.936,none,4,3.0,40916.0,209642.0,93704.0,208623.0,104565.0
2026-04-14 17:22:50.674885,252284,1609504864382304,2464352419,-1.116544,-0.062464,-0.02928,-18.795,0.4025,10.6575,21.256,31.656002,2.016,none,4,3.0,37381.0,198772.0,86901.0,197706.0,97156.0
2026-04-14 17:22:50.677282,252285,1609504864391226,2464361111,-1.116544,-0.062464,-0.02928,-19.9675,-0.2625,11.12125,21.256,31.656002,2.016,none,4,3.0,37381.0,198772.0,86901.0,197706.0,97156.0
2026-04-14 17:22:50.683543,252286,1609504864405747,2464376024,-1.139968,-0.099552,-0.193248,-17.36,-0.93625,11.31375,21.632002,31.576002,2.352,none,4,3.0,37381.0,198772.0,86901.0,197706.0,97156.0
2026-04-14 17:22:50.692186,252287,1609504864414727,2464384710,-1.139968,-0.099552,-0.193248,-12.6,-1.61,11.75125,21.632002,31.576002,2.352,none,4,3.0,37381.0,198772.0,86901.0,197706.0,97156.0
2026-04-14 17:22:50.702350,252288,1609504864423675,2464393406,-1.052128,-0.08784,-0.085888,-8.05875,-2.37125,12.8275,21.952002,31.656002,3.784,none,4,3.0,37381.0,198772.0,86901.0,197706.0,97156.0
2026-04-14 17:22:50.717464,252289,1609504864438141,2464408298,-1.10288,-0.035136,0.046848,-6.265,-2.37125,13.1075,21.968,31.584002,2.144,none,4,3.0,37381.0,198772.0,86901.0,197706.0,97156.0
2026-04-14 17:22:50.726214,252290,1609504864447045,2464416962,-1.10288,-0.035136,0.046848,-7.0525,-1.65375,12.9675,21.968,31.584002,2.144,none,4,3.0,37381.0,198772.0,86901.0,197706.0,97156.0
2026-04-14 17:22:50.741456,252291,1609504864461582,2464431897,-1.081408,-0.109312,-0.160064,-9.66875,-1.5225,12.38125,21.408,31.840002,3.12,none,4,3.0,37381.0,198772.0,86901.0,197706.0,97156.0
2026-04-14 17:22:50.748576,252292,1609504864470514,2464440560,-1.081408,-0.109312,-0.160064,-10.57,-1.16375,12.495,21.408,31.840002,3.12,none,4,3.0,37381.0,198772.0,86901.0,197706.0,97156.0
2026-04-14 17:22:50.779102,252303,1609504864485132,2464453520,-1.032608,-0.103456,0.0,-9.2575,-1.4875,12.66125,21.544,31.736002,2.128,none,4,3.0,35076.0,192247.0,82263.0,191693.0,92105.0
2026-04-14 17:22:50.781121,252304,1609504864494564,2464464380,-1.032608,-0.103456,0.0,-6.1775,-2.5375,12.46,21.544,31.736002,2.128,none,4,3.0,35076.0,192247.0,82263.0,191693.0,92105.0
2026-04-14 17:22:50.785190,252305,1609504864503572,2464473066,-1.085312,-0.052704,0.06832,-2.94,-3.36,12.52125,21.872002,31.096,1.144,none,4,3.0,35076.0,192247.0,82263.0,191693.0,92105.0
2026-04-14 17:22:50.797592,252306,1609504864518056,2464487940,-1.081408,-0.060512,-0.046848,-1.53125,-3.185,12.43375,22.128,31.424002,2.176,none,4,3.0,35076.0,192247.0,82263.0,191693.0,92105.0
2026-04-14 17:22:50.804001,252307,1609504864526958,2464496668,-1.081408,-0.060512,-0.046848,-1.98625,-3.64,11.78625,22.128,31.424002,2.176,none,4,3.0,35076.0,192247.0,82263.0,191693.0,92105.0
2026-04-14 17:22:50.820336,252308,1609504864541446,2464511686,-1.069696,-0.044896,0.070272,-4.13875,-3.9025,11.0775,22.536001,31.016,1.904,none,4,3.0,35076.0,192247.0,82263.0,191693.0,92105.0
2026-04-14 17:22:50.830360,252309,1609504864550358,2464520372,-1.069696,-0.044896,0.070272,-5.775,-3.47375,10.75375,22.536001,31.016,1.904,none,4,3.0,35076.0,192247.0,82263.0,191693.0,92105.0
2026-04-14 17:22:50.837576,252310,1609504864559301,2464529033,-1.106784,-0.08784,-0.083936,-4.55,-3.01,10.50875,21.752,31.328001,2.792,none,4,3.0,35076.0,192247.0,82263.0,191693.0,92105.0
2026-04-14 17:22:50.917163,252321,1609504864573834,2464544289,-1.106784,-0.08784,-0.083936,-3.465,-2.82625,10.8675,21.752,31.328001,2.792,none,4,3.0,33907.0,189758.0,79864.0,189678.0,89438.0
2026-04-14 17:22:50.920290,252322,1609504864582893,2464553015,-1.104832,-0.105408,-0.021472,-3.64875,-3.605,11.03375,21.480001,30.824001,2.048,none,4,3.0,33907.0,189758.0,79864.0,189678.0,89438.0
2026-04-14 17:22:50.927792,252323,1609504864597370,2464565860,-1.157536,-0.033184,-0.040992,-2.0825,-5.3025,11.06,21.456001,31.000002,2.744,none,4,3.0,33907.0,189758.0,79864.0,189678.0,89438.0
2026-04-14 17:22:50.930287,252324,1609504864606687,2464576602,-1.157536,-0.033184,-0.040992,2.05625,-6.60625,11.13875,21.456001,31.000002,2.744,none,4,3.0,33907.0,189758.0,79864.0,189678.0,89438.0
2026-04-14 17:22:50.932187,252325,1609504864615663,2464585273,-1.157536,-0.033184,-0.040992,2.44125,-7.1225,9.72125,21.456001,31.000002,2.744,none,4,3.0,33907.0,189758.0,79864.0,189678.0,89438.0
2026-04-14 17:22:50.935297,252326,1609504864630245,2464600238,-1.06384,-0.0488,0.0,-0.3325,-7.95375,8.75875,22.152,30.952002,2.832,none,4,3.0,33907.0,189758.0,79864.0,189678.0,89438.0
2026-04-14 17:22:50.937786,252327,1609504864639187,2464608958,-1.0736,-0.054656,0.08784,-3.745,-8.0675,8.6625,21.832,30.808,3.072,none,4,3.0,33907.0,189758.0,79864.0,189678.0,89438.0
2026-04-14 17:22:50.940293,252328,1609504864653679,2464623854,-1.0736,-0.054656,0.08784,-4.4975,-7.8225,7.81375,21.832,30.808,3.072,none,4,3.0,33907.0,189758.0,79864.0,189678.0,89438.0
2026-04-14 17:22:50.942773,252329,1609504864662608,2464632543,-1.057984,-0.128832,-0.076128,-2.4675,-6.72875,6.74625,21.808,31.080002,3.136,none,4,3.0,33907.0,189758.0,79864.0,189678.0,89438.0
2026-04-14 17:22:50.996463,252340,1609504864677732,2464647510,-1.059936,-0.103456,-0.01952,0.56875,-5.83625,6.57125,22.080002,30.960001,2.128,none,4,3.0,33870.0,190885.0,79664.0,190804.0,89181.0
2026-04-14 17:22:50.998482,252341,1609504864686783,2464656246,-1.059936,-0.103456,-0.01952,2.345,-5.6875,5.775,22.080002,30.960001,2.128,none,4,3.0,33870.0,190885.0,79664.0,190804.0,89181.0
2026-04-14 17:22:51.001219,252342,1609504864695739,2464664931,-1.059936,-0.103456,-0.01952,4.55,-6.02,4.69875,22.080002,30.960001,2.128,none,4,3.0,33870.0,190885.0,79664.0,190804.0,89181.0
2026-04-14 17:22:51.003950,252343,1609504864710252,2464679804,-1.079456,-0.062464,0.001952,6.11625,-6.69375,4.025,21.960001,31.04,2.952,none,4,3.0,33870.0,190885.0,79664.0,190804.0,89181.0
2026-04-14 17:22:51.006467,252344,1609504864719189,2464688536,-1.069696,-0.070272,-0.05856,4.10375,-7.6475,2.8875,22.104002,30.960001,4.36,none,4,3.0,33870.0,190885.0,79664.0,190804.0,89181.0
2026-04-14 17:22:51.012751,252345,1609504864733676,2464703432,-1.069696,-0.070272,-0.05856,0.41125,-8.785,2.33625,22.104002,30.960001,4.36,none,4,3.0,33870.0,190885.0,79664.0,190804.0,89181.0
2026-04-14 17:22:51.020261,252346,1609504864742598,2464712142,-1.165344,-0.085888,-0.16592,-3.56125,-9.45875,1.645,22.824001,30.824001,3.488,none,4,3.0,33870.0,190885.0,79664.0,190804.0,89181.0
2026-04-14 17:22:51.030369,252347,1609504864751525,2464720848,-1.165344,-0.085888,-0.16592,-5.50375,-9.1525,0.81375,22.824001,30.824001,3.488,none,4,3.0,33870.0,190885.0,79664.0,190804.0,89181.0
2026-04-14 17:22:51.045360,252348,1609504864765993,2464735816,-1.10288,-0.12688,-0.15616,-5.1975,-8.7325,0.665,22.184002,30.944002,2.904,none,4,3.0,33870.0,190885.0,79664.0,190804.0,89181.0
2026-04-14 17:22:51.076572,252359,1609504864774983,2464744510,-1.10288,-0.12688,-0.15616,-1.5925,-7.63,0.93625,22.184002,30.944002,2.904,none,4,3.0,33250.0,189573.0,78431.0,189947.0,87779.0
2026-04-14 17:22:51.078913,252360,1609504864789534,2464759439,-1.03456,-0.093696,0.011712,1.56625,-6.65875,0.90125,21.920002,30.728,2.92,none,4,3.0,33250.0,189573.0,78431.0,189947.0,87779.0
2026-04-14 17:22:51.080872,252361,1609504864798600,2464768184,-1.097024,-0.07808,-0.122976,2.59875,-5.355,-0.28875,21.656,31.064001,4.216,none,4,3.0,33250.0,189573.0,78431.0,189947.0,87779.0
2026-04-14 17:22:51.092277,252362,1609504864813096,2464783112,-1.097024,-0.07808,-0.122976,0.455,-4.57625,-0.6125,21.656,31.064001,4.216,none,4,3.0,33250.0,189573.0,78431.0,189947.0,87779.0
2026-04-14 17:22:51.099659,252363,1609504864822008,2464791784,-1.134112,-0.076128,-0.091744,-2.835,-4.7075,-1.44375,22.392,30.632002,2.592,none,4,3.0,33250.0,189573.0,78431.0,189947.0,87779.0
2026-04-14 17:22:51.109875,252364,1609504864830918,2464800475,-1.134112,-0.076128,-0.091744,-5.18,-5.6525,-2.37125,22.392,30.632002,2.592,none,4,3.0,33250.0,189573.0,78431.0,189947.0,87779.0
2026-04-14 17:22:51.122469,252365,1609504864845398,2464815369,-1.165344,-0.06832,-0.10736,-3.3775,-6.06375,-2.93125,22.664001,31.208002,3.632,none,4,3.0,33250.0,189573.0,78431.0,189947.0,87779.0
2026-04-14 17:22:51.132323,252366,1609504864854362,2464824069,-1.165344,-0.06832,-0.10736,0.23625,-6.64125,-3.92875,22.664001,31.208002,3.632,none,4,3.0,33250.0,189573.0,78431.0,189947.0,87779.0
2026-04-14 17:22:51.147641,252367,1609504864868828,2464838928,-1.139968,-0.064416,-0.074176,3.5875,-6.32625,-5.075,21.76,30.944002,3.944,none,4,3.0,33250.0,189573.0,78431.0,189947.0,87779.0
2026-04-14 17:22:51.177850,252378,1609504864878358,2464847845,-1.139968,-0.0488,-0.001952,6.36125,-6.0375,-5.76625,21.76,30.944002,3.944,none,4,3.0,32513.0,187716.0,76979.0,188342.0,86118.0
2026-04-14 17:22:51.178338,252379,1609504864892897,2464862724,-1.108736,-0.052704,-0.001952,6.16875,-6.20375,-6.39625,21.584002,30.632002,3.272,none,4,3.0,32513.0,187716.0,76979.0,188342.0,86118.0
2026-04-14 17:22:51.180820,252380,1609504864901842,2464871422,-1.05408,-0.091744,-0.076128,4.73375,-5.5125,-7.105,22.28,30.824001,3.28,none,4,3.0,32513.0,187716.0,76979.0,188342.0,86118.0
2026-04-14 17:22:51.187363,252381,1609504864910805,2464880119,-1.05408,-0.091744,-0.076128,2.6425,-4.445,-7.56875,22.28,30.824001,3.28,none,4,3.0,32513.0,187716.0,76979.0,188342.0,86118.0
2026-04-14 17:22:51.203605,252382,1609504864925306,2464895043,-1.13216,-0.115168,-0.140544,0.34125,-3.33375,-8.04125,22.016,30.776001,3.096,none,4,3.0,32513.0,187716.0,76979.0,188342.0,86118.0
2026-04-14 17:22:51.212428,252383,1609504864934238,2464903750,-1.13216,-0.115168,-0.140544,-0.56,-2.695,-8.37375,22.016,30.776001,3.096,none,4,3.0,32513.0,187716.0,76979.0,188342.0,86118.0
2026-04-14 17:22:51.267177,252384,1609504864948722,2464918612,-1.08336,-0.074176,0.0,3.31625,-2.68625,-8.46125,22.208,31.376001,4.064,none,4,3.0,32513.0,187716.0,76979.0,188342.0,86118.0
2026-04-14 17:22:51.267625,252385,1609504864957637,2464927251,-1.08336,-0.074176,0.0,8.785,-2.30125,-8.67125,22.208,31.376001,4.064,none,4,3.0,32513.0,187716.0,76979.0,188342.0,86118.0
2026-04-14 17:22:51.269781,252386,1609504864966574,2464935947,-1.089216,-0.074176,-0.152256,8.9775,-1.5575,-9.16125,20.488,31.080002,5.344,none,4,3.0,32513.0,187716.0,76979.0,188342.0,86118.0
2026-04-14 17:22:51.299945,252397,1609504864981186,2464950861,-1.167296,-0.052704,-0.154208,5.5825,-1.60125,-9.40625,20.072,31.12,4.816001,none,4,3.0,31784.0,186004.0,75514.0,186937.0,84369.0
2026-04-14 17:22:51.302473,252398,1609504864990101,2464959583,-1.167296,-0.052704,-0.154208,0.7875,-2.23125,-10.71875,20.072,31.12,4.816001,none,4,3.0,31784.0,186004.0,75514.0,186937.0,84369.0
2026-04-14 17:22:51.305282,252399,1609504865004628,2464974491,-1.075552,-0.085888,0.050752,-1.6625,-2.17,-11.7775,20.960001,31.176,4.576,none,4,3.0,31784.0,186004.0,75514.0,186937.0,84369.0
2026-04-14 17:22:51.307816,252400,1609504865013693,2464983210,-1.075552,-0.085888,0.050752,-1.4,-2.24,-12.20625,20.960001,31.176,4.576,none,4,3.0,31784.0,186004.0,75514.0,186937.0,84369.0
2026-04-14 17:22:51.310252,252401,1609504865028213,2464998099,-1.04432,-0.111264,-0.007808,0.76125,-1.23375,-13.125,20.664001,31.272001,4.448,none,4,3.0,31784.0,186004.0,75514.0,186937.0,84369.0
2026-04-14 17:22:51.316545,252402,1609504865037171,2465006867,-1.04432,-0.111264,-0.007808,4.865,-0.1225,-13.64125,20.664001,31.272001,4.448,none,4,3.0,31784.0,186004.0,75514.0,186937.0,84369.0
2026-04-14 17:22:51.324064,252403,1609504865046202,2465015642,-1.098976,-0.080032,-0.150304,8.855001,0.91875,-14.0175,20.960001,31.472002,4.72,none,4,3.0,31784.0,186004.0,75514.0,186937.0,84369.0
2026-04-14 17:22:51.339062,252404,1609504865060703,2465030528,-1.020896,-0.076128,-0.00976,8.5225,1.77625,-14.39375,20.592001,31.736002,6.344,none,4,3.0,31784.0,186004.0,75514.0,186937.0,84369.0
2026-04-14 17:22:51.348667,252405,1609504865069639,2465039208,-1.020896,-0.076128,-0.00976,6.7375,1.82875,-14.65625,20.592001,31.736002,6.344,none,4,3.0,31784.0,186004.0,75514.0,186937.0,84369.0
2026-04-14 17:22:51.377630,252416,1609504865084165,2465054226,-1.128256,-0.070272,-0.203008,6.265,2.23125,-15.417501,20.176,31.232002,4.016,none,4,3.0,31469.0,185484.0,74919.0,186546.0,83639.0
2026-04-14 17:22:51.379737,252417,1609504865093114,2465063007,-1.128256,-0.070272,-0.203008,6.18625,3.01,-17.61375,20.176,31.232002,4.016,none,4,3.0,31469.0,185484.0,74919.0,186546.0,83639.0
2026-04-14 17:22:51.386400,252418,1609504865107683,2465077903,-1.114592,-0.07808,-0.148352,5.74875,2.7125,-18.64625,21.072,31.36,3.776,none,4,3.0,31469.0,185484.0,74919.0,186546.0,83639.0
2026-04-14 17:22:51.395141,252419,1609504865116682,2465086595,-1.114592,-0.07808,-0.148352,5.32875,2.135,-18.29625,21.072,31.36,3.776,none,4,3.0,31469.0,185484.0,74919.0,186546.0,83639.0
2026-04-14 17:22:51.405237,252420,1609504865125610,2465095272,-1.091168,-0.076128,0.001952,4.50625,2.5025,-17.96375,21.096,31.408,4.392,none,4,3.0,31469.0,185484.0,74919.0,186546.0,83639.0
2026-04-14 17:22:51.417773,252421,1609504865140089,2465110194,-1.091168,-0.083936,0.060512,4.96125,3.56125,-18.305,21.096,31.408,2.344,none,4,3.0,31469.0,185484.0,74919.0,186546.0,83639.0
2026-04-14 17:22:51.426234,252422,1609504865149019,2465118910,-1.087264,-0.083936,0.060512,6.41375,4.48875,-17.8675,20.704,31.800001,3.576,none,4,3.0,31469.0,185484.0,74919.0,186546.0,83639.0
2026-04-14 17:22:51.442812,252423,1609504865163579,2465133813,-1.038464,-0.150304,-0.074176,7.95375,5.78375,-16.93125,19.712002,31.952002,4.6,none,4,3.0,31469.0,185484.0,74919.0,186546.0,83639.0
2026-04-14 17:22:51.463360,252424,1609504865172488,2465142496,-1.038464,-0.150304,-0.074176,6.86875,5.9675,-15.86375,19.712002,31.952002,4.6,none,4,3.0,31469.0,185484.0,74919.0,186546.0,83639.0
2026-04-14 17:22:51.488903,252435,1609504865187028,2465155402,-1.1224,-0.138592,-0.212768,6.60625,5.92375,-14.98875,20.320002,31.752,4.152,none,4,3.0,31575.0,186707.0,74935.0,187306.0,83693.0
2026-04-14 17:22:51.491519,252436,1609504865196264,2465166216,-1.1224,-0.138592,-0.212768,10.6925,5.95,-13.97375,20.320002,31.752,4.152,none,4,3.0,31575.0,186707.0,74935.0,187306.0,83693.0
2026-04-14 17:22:51.493541,252437,1609504865205191,2465175032,-1.077504,-0.080032,0.0488,14.60375,5.285,-13.20375,19.456001,31.664001,5.192,none,4,3.0,31575.0,186707.0,74935.0,187306.0,83693.0
2026-04-14 17:22:51.498579,252438,1609504865219728,2465189973,-1.077504,-0.080032,0.0488,13.5275,4.9175,-12.4425,19.456001,31.664001,5.192,none,4,3.0,31575.0,186707.0,74935.0,187306.0,83693.0
2026-04-14 17:22:51.506561,252439,1609504865228670,2465198712,-1.15168,-0.089792,-0.103456,9.5025,5.7575,-11.97875,19.384,31.592001,2.968,none,4,3.0,31575.0,186707.0,74935.0,187306.0,83693.0
2026-04-14 17:22:51.520322,252440,1609504865243167,2465211515,-1.153632,-0.089792,0.03904,6.09875,7.0875,-12.2325,20.064001,31.616001,5.136,none,4,3.0,31575.0,186707.0,74935.0,187306.0,83693.0
2026-04-14 17:22:51.531065,252441,1609504865252310,2465222243,-1.153632,-0.089792,0.03904,6.30875,8.5225,-12.88875,20.064001,31.616001,5.136,none,4,3.0,31575.0,186707.0,74935.0,187306.0,83693.0
2026-04-14 17:22:51.541552,252442,1609504865261224,2465230947,-1.214144,-0.111264,-0.130784,7.28875,9.82625,-13.9475,20.064001,31.592001,6.928001,none,4,3.0,31575.0,186707.0,74935.0,187306.0,83693.0
2026-04-14 17:22:51.578394,252453,1609504865275679,2465245973,-1.214144,-0.111264,-0.130784,9.42375,9.94,-13.3875,19.304,31.592001,6.928001,none,4,3.0,32017.0,189348.0,75649.0,189536.0,84519.0
2026-04-14 17:22:51.581137,252454,1609504865284703,2465254719,-1.21024,-0.128832,-0.21472,9.975,9.72125,-12.8975,19.096,31.720001,5.032,none,4,3.0,32017.0,189348.0,75649.0,189536.0,84519.0
2026-04-14 17:22:51.583534,252455,1609504865299183,2465267552,-1.21024,-0.128832,-0.21472,11.305,8.7325,-11.61125,19.096,31.720001,5.032,none,4,3.0,32017.0,189348.0,75649.0,189536.0,84519.0
2026-04-14 17:22:51.608636,252456,1609504865308366,2465278325,-1.243424,-0.099552,-0.177632,11.40125,7.7875,-10.26375,20.352001,31.808,6.504,none,4,3.0,32017.0,189348.0,75649.0,189536.0,84519.0
2026-04-14 17:22:51.634613,252457,1609504865322862,2465291206,-1.216096,-0.130784,-0.007808,9.8875,8.09375,-9.948751,20.072,31.696001,4.656,none,4,3.0,32017.0,189348.0,75649.0,189536.0,84519.0
2026-04-14 17:22:51.635961,252458,1609504865331997,2465301958,-1.216096,-0.130784,-0.007808,7.88375,8.0325,-10.26375,20.072,31.696001,4.656,none,4,3.0,32017.0,189348.0,75649.0,189536.0,84519.0
2026-04-14 17:22:51.661017,252459,1609504865340897,2465310640,-1.216096,-0.130784,0.03904,6.125,8.61875,-8.715,20.072,31.696001,4.656,none,4,3.0,32017.0,189348.0,75649.0,189536.0,84519.0
2026-04-14 17:22:51.686552,252460,1609504865355350,2465325494,-1.188768,-0.171776,0.044896,6.27375,9.485,-7.7525,19.92,31.808,3.472,none,4,3.0,32017.0,189348.0,75649.0,189536.0,84519.0
2026-04-14 17:22:51.691502,252461,1609504865364287,2465334197,-1.24928,-0.1464,-0.148352,10.4125,10.386251,-6.41375,19.800001,31.704002,4.44,none,4,3.0,32017.0,189348.0,75649.0,189536.0,84519.0
2026-04-14 17:22:51.719096,252472,1609504865379299,2465349284,-1.24928,-0.1464,-0.148352,15.8375,11.865,-4.68125,19.800001,31.704002,4.44,none,4,3.0,32138.0,190649.0,75854.0,190885.0,84698.0
2026-04-14 17:22:51.721520,252473,1609504865388275,2465357965,-1.227808,-0.128832,-0.07808,17.08,12.59125,-4.7075,20.024,31.328001,4.984,none,4,3.0,32138.0,190649.0,75854.0,190885.0,84698.0
2026-04-14 17:22:51.726677,252474,1609504865397193,2465366642,-1.227808,-0.128832,-0.07808,12.04875,11.865,-4.50625,20.024,31.328001,4.984,none,4,3.0,32138.0,190649.0,75854.0,190885.0,84698.0
2026-04-14 17:22:51.726899,252475,1609504865411679,2465381495,-1.245376,-0.1464,-0.00976,2.73875,10.63125,-3.1675,20.032001,31.680002,4.0,none,4,3.0,32138.0,190649.0,75854.0,190885.0,84698.0
2026-04-14 17:22:51.728404,252476,1609504865420608,2465390225,-1.245376,-0.1464,-0.00976,-4.515,9.8525,-2.03875,20.032001,31.680002,4.0,none,4,3.0,32138.0,190649.0,75854.0,190885.0,84698.0
2026-04-14 17:22:51.731283,252477,1609504865435109,2465405132,-1.235616,-0.15616,-0.001952,-1.855,9.0475,-0.105,20.168001,31.512001,1.912,none,4,3.0,32138.0,190649.0,75854.0,190885.0,84698.0
2026-04-14 17:22:51.733540,252478,1609504865444162,2465413861,-1.157536,-0.132736,0.091744,4.47125,7.81375,1.44375,19.768002,31.480001,4.96,none,4,3.0,32138.0,190649.0,75854.0,190885.0,84698.0
2026-04-14 17:22:51.738727,252479,1609504865458682,2465428749,-1.157536,-0.132736,0.091744,7.735,6.8775,1.2425,19.768002,31.480001,4.96,none,4,3.0,32138.0,190649.0,75854.0,190885.0,84698.0
2026-04-14 17:22:51.745185,252480,1609504865467656,2465437490,-1.143872,-0.144448,0.0488,6.85125,6.23875,1.30375,19.136002,31.656002,5.12,none,4,3.0,32138.0,190649.0,75854.0,190885.0,84698.0
2026-04-14 17:22:51.753914,252481,1609504865476646,2465446181,-1.143872,-0.144448,0.0488,4.9175,5.985,0.8225,19.136002,31.656002,5.12,none,4,3.0,32138.0,190649.0,75854.0,190885.0,84698.0
2026-04-14 17:22:51.781137,252492,1609504865491281,2465461142,-1.179008,-0.15616,-0.037088,4.76875,5.50375,0.32375,18.960001,31.992,4.832,none,4,3.0,32469.0,193157.0,76409.0,193696.0,85368.0
2026-04-14 17:22:51.783934,252493,1609504865500204,2465469827,-1.179008,-0.15616,-0.037088,5.04,4.5325,0.8575,18.960001,31.992,4.832,none,4,3.0,32469.0,193157.0,76409.0,193696.0,85368.0
2026-04-14 17:22:51.795320,252494,1609504865514729,2465484746,-1.175104,-0.130784,-0.142496,5.81,3.12375,1.68875,19.184,31.632002,4.048,none,4,3.0,32469.0,193157.0,76409.0,193696.0,85368.0
2026-04-14 17:22:51.802347,252495,1609504865523651,2465493443,-1.186816,-0.140544,-0.10736,4.4275,1.68875,0.49,19.824001,31.208002,3.4,none,4,3.0,32469.0,193157.0,76409.0,193696.0,85368.0
2026-04-14 17:22:51.810064,252496,1609504865532726,2465502175,-1.186816,-0.140544,-0.10736,2.695,-0.63875,0.14,19.824001,31.208002,3.4,none,4,3.0,32469.0,193157.0,76409.0,193696.0,85368.0
2026-04-14 17:22:51.829247,252497,1609504865547235,2465517060,-1.139968,-0.124928,0.085888,2.02125,-1.96875,0.04375,19.264002,30.960001,3.4,none,4,3.0,32469.0,193157.0,76409.0,193696.0,85368.0
2026-04-14 17:22:51.833854,252498,1609504865556191,2465525754,-1.139968,-0.124928,0.085888,3.80625,-2.6775,-0.41125,19.264002,30.960001,3.4,none,4,3.0,32469.0,193157.0,76409.0,193696.0,85368.0
2026-04-14 17:22:51.850364,252499,1609504865570691,2465540643,-1.057984,-0.12688,0.001952,7.77875,-2.66,-0.1925,17.288,31.504002,5.256,none,4,3.0,32469.0,193157.0,76409.0,193696.0,85368.0
2026-04-14 17:22:51.882317,252510,1609504865580260,2465549844,-1.057984,-0.12688,0.001952,11.24375,-2.3975,0.23625,17.288,31.504002,5.256,none,4,3.0,32234.0,192083.0,76108.0,193438.0,85042.0
2026-04-14 17:22:51.885064,252511,1609504865589486,2465558565,-1.143872,-0.085888,-0.111264,9.5375,-2.31,0.4375,18.664001,30.480001,3.296,none,4,3.0,32234.0,192083.0,76108.0,193438.0,85042.0
2026-04-14 17:22:51.887648,252512,1609504865603953,2465573474,-1.087264,-0.152256,0.052704,1.82,-3.42125,0.315,18.584002,30.696001,1.76,none,4,3.0,32234.0,192083.0,76108.0,193438.0,85042.0
2026-04-14 17:22:51.889925,252513,1609504865612894,2465582168,-1.087264,-0.152256,0.052704,-5.92375,-4.8475,1.0325,18.584002,30.696001,1.76,none,4,3.0,32234.0,192083.0,76108.0,193438.0,85042.0
2026-04-14 17:22:51.906216,252514,1609504865627309,2465597090,-1.155584,-0.128832,-0.044896,-7.06125,-4.795,1.67125,18.08,30.184002,3.48,none,4,3.0,32234.0,192083.0,76108.0,193438.0,85042.0
2026-04-14 17:22:51.913758,252515,1609504865636240,2465605833,-1.155584,-0.128832,-0.044896,-3.6925,-3.77125,0.105,18.08,30.184002,3.48,none,4,3.0,32234.0,192083.0,76108.0,193438.0,85042.0
2026-04-14 17:22:51.929849,252516,1609504865650739,2465620668,-1.116544,-0.07808,0.015616,0.95375,-4.17375,0.41125,16.936,30.368002,4.888,none,4,3.0,32234.0,192083.0,76108.0,193438.0,85042.0
2026-04-14 17:22:51.939640,252517,1609504865659679,2465629366,-1.116544,-0.07808,0.015616,4.71625,-5.18,0.5425,16.936,30.368002,4.888,none,4,3.0,32234.0,192083.0,76108.0,193438.0,85042.0
2026-04-14 17:22:51.946111,252518,1609504865668623,2465638089,-1.042368,-0.070272,0.056608,3.9725,-6.8075,0.35,16.744001,29.952002,4.744,none,4,3.0,32234.0,192083.0,76108.0,193438.0,85042.0
2026-04-14 17:22:52.027181,252529,1609504865683358,2465653013,-1.042368,-0.070272,0.066368,0.63875,-7.42875,0.1925,16.744001,29.952002,4.744,none,4,3.0,31388.0,187350.0,74638.0,189533.0,83419.0
2026-04-14 17:22:52.029831,252530,1609504865692371,2465661735,-1.077504,-0.06832,0.066368,-4.19125,-6.57125,0.245,16.368,29.904001,0.664,none,4,3.0,31388.0,187350.0,74638.0,189533.0,83419.0
2026-04-14 17:22:52.032104,252531,1609504865706810,2465676569,-1.075552,-0.150304,-0.13664,-10.3425,-5.11875,0.4375,16.232,29.800001,5.704001,none,4,3.0,31388.0,187350.0,74638.0,189533.0,83419.0
2026-04-14 17:22:52.034924,252532,1609504865715760,2465685320,-1.075552,-0.150304,-0.13664,-12.8275,-4.83875,0.37625,16.232,29.800001,5.704001,none,4,3.0,31388.0,187350.0,74638.0,189533.0,83419.0
2026-04-14 17:22:52.037279,252533,1609504865730249,2465700245,-1.001376,-0.111264,-0.001952,-11.0075,-5.67,1.2775,16.176,29.400002,6.456,none,4,3.0,31388.0,187350.0,74638.0,189533.0,83419.0
2026-04-14 17:22:52.039865,252534,1609504865739270,2465708934,-1.001376,-0.111264,-0.001952,-6.93,-5.24125,2.1,16.176,29.400002,6.456,none,4,3.0,31388.0,187350.0,74638.0,189533.0,83419.0
2026-04-14 17:22:52.042365,252535,1609504865748278,2465717637,-1.0248,-0.054656,-0.142496,-1.4525,-6.79,3.56125,15.68,30.080002,7.672,none,4,3.0,31388.0,187350.0,74638.0,189533.0,83419.0
2026-04-14 17:22:52.044903,252536,1609504865762774,2465732575,-1.0248,-0.054656,-0.142496,1.3475,-7.09625,5.46,15.68,30.080002,7.672,none,4,3.0,31388.0,187350.0,74638.0,189533.0,83419.0
2026-04-14 17:22:52.048609,252537,1609504865771716,2465741284,-0.948672,-0.144448,-0.101504,-0.14875,-7.28875,3.31625,15.200001,30.152002,5.76,none,4,3.0,31388.0,187350.0,74638.0,189533.0,83419.0
2026-04-14 17:22:52.083639,252548,1609504865786444,2465756278,-0.95648,-0.142496,-0.15616,-1.84625,-9.28375,3.8675,16.584002,29.736002,5.776001,none,4,3.0,30284.0,181480.0,72992.0,185302.0,81313.0
2026-04-14 17:22:52.088715,252549,1609504865795385,2465764961,-0.95648,-0.142496,-0.15616,-5.215,-9.5375,3.98125,16.584002,29.736002,5.776001,none,4,3.0,30284.0,181480.0,72992.0,185302.0,81313.0
2026-04-14 17:22:52.091249,252550,1609504865804305,2465773679,-0.940864,-0.085888,-0.023424,-4.66375,-9.54625,5.43375,16.584002,29.736002,3.928,none,4,3.0,30284.0,181480.0,72992.0,185302.0,81313.0
2026-04-14 17:22:52.096134,252551,1609504865818793,2465788626,-0.948672,-0.085888,-0.023424,-0.53375,-8.47875,7.0175,16.888,29.736002,3.928,none,4,3.0,30284.0,181480.0,72992.0,185302.0,81313.0
2026-04-14 17:22:52.105304,252552,1609504865827729,2465797321,-0.942816,-0.081984,0.011712,1.5925,-8.9075,7.62125,16.984001,29.600002,6.576,none,4,3.0,30284.0,181480.0,72992.0,185302.0,81313.0
2026-04-14 17:22:52.120942,252553,1609504865842248,2465812198,-0.942816,-0.081984,0.011712,3.2725,-9.24875,6.92125,16.984001,29.600002,6.576,none,4,3.0,30284.0,181480.0,72992.0,185302.0,81313.0
2026-04-14 17:22:52.130153,252554,1609504865851204,2465820872,-0.931104,-0.0976,-0.050752,6.71125,-9.6775,4.19125,17.240002,30.04,6.912,none,4,3.0,30284.0,181480.0,72992.0,185302.0,81313.0
2026-04-14 17:22:52.145160,252555,1609504865865678,2465835795,-0.962336,-0.052704,0.0,10.15875,-9.56375,2.75625,16.152,29.856,8.096001,none,4,3.0,30284.0,181480.0,72992.0,185302.0,81313.0
2026-04-14 17:22:52.152644,252556,1609504865874590,2465844462,-0.962336,-0.052704,0.0,10.57875,-8.89875,2.52875,16.152,29.856,8.096001,none,4,3.0,30284.0,181480.0,72992.0,185302.0,81313.0
2026-04-14 17:22:52.187797,252567,1609504865889655,2465859742,-0.93696,-0.05856,0.037088,9.89625,-6.86875,2.205,17.6,29.416002,7.712,none,4,3.0,30233.0,181515.0,72988.0,185973.0,81179.0
2026-04-14 17:22:52.190303,252568,1609504865898614,2465868521,-0.93696,-0.05856,0.037088,11.165,-5.01375,0.5075,17.6,29.416002,7.712,none,4,3.0,30233.0,181515.0,72988.0,185973.0,81179.0
2026-04-14 17:22:52.192770,252569,1609504865907522,2465877229,-1.011136,-0.044896,-0.162016,11.5325,-4.75125,-1.4875,17.672,29.592001,8.008,none,4,3.0,30233.0,181515.0,72988.0,185973.0,81179.0
2026-04-14 17:22:52.200327,252570,1609504865922066,2465892151,-1.011136,-0.044896,-0.162016,9.59875,-5.29375,-2.3625,17.672,29.592001,8.008,none,4,3.0,30233.0,181515.0,72988.0,185973.0,81179.0
2026-04-14 17:22:52.209890,252571,1609504865931118,2465900877,-0.944768,-0.017568,0.064416,7.06125,-5.9675,-2.09125,17.976002,29.656002,8.496,none,4,3.0,30233.0,181515.0,72988.0,185973.0,81179.0
2026-04-14 17:22:52.224008,252572,1609504865945587,2465915762,-1.001376,-0.066368,-0.13664,5.8275,-5.87125,-3.885,17.160002,30.176,8.592,none,4,3.0,30233.0,181515.0,72988.0,185973.0,81179.0
2026-04-14 17:22:52.251529,252573,1609504865954508,2465924435,-1.001376,-0.066368,-0.13664,3.745,-3.115,-5.9675,17.160002,30.176,8.592,none,4,3.0,30233.0,181515.0,72988.0,185973.0,81179.0
2026-04-14 17:22:52.253573,252574,1609504865963448,2465933120,-1.001376,-0.066368,-0.13664,0.77875,0.23625,-6.48375,17.160002,30.176,8.592,none,4,3.0,30233.0,181515.0,72988.0,185973.0,81179.0
2026-04-14 17:22:52.256552,252575,1609504865977895,2465947975,-1.059936,-0.07808,-0.150304,-1.3475,-0.3325,-5.15375,16.496,30.840002,10.200001,none,4,3.0,30233.0,181515.0,72988.0,185973.0,81179.0
2026-04-14 17:22:52.288932,252586,1609504865986914,2465956723,-0.999424,-0.080032,-0.093696,-0.7175,-2.66875,-2.84375,16.296001,30.760002,10.224001,none,4,3.0,29586.0,180063.0,71746.0,184965.0,79703.0
2026-04-14 17:22:52.289833,252587,1609504866001471,2465971650,-0.999424,-0.080032,-0.093696,1.5925,-3.7975,-3.185,16.296001,30.760002,10.224001,none,4,3.0,29586.0,180063.0,71746.0,184965.0,79703.0
2026-04-14 17:22:52.292328,252588,1609504866010428,2465980329,-0.977952,-0.081984,-0.054656,4.05125,-4.3925,-2.84375,17.728,30.432001,8.776,none,4,3.0,29586.0,180063.0,71746.0,184965.0,79703.0
2026-04-14 17:22:52.299312,252589,1609504866019435,2465989034,-0.977952,-0.081984,-0.054656,6.57125,-4.10375,-2.0475,17.728,30.432001,8.776,none,4,3.0,29586.0,180063.0,71746.0,184965.0,79703.0
2026-04-14 17:22:52.311423,252590,1609504866033944,2466003964,-1.077504,-0.081984,-0.1952,6.88625,-3.66625,-0.48125,17.984001,30.432001,8.8,none,4,3.0,29586.0,180063.0,71746.0,184965.0,79703.0
2026-04-14 17:22:52.321378,252591,1609504866042885,2466012633,-1.077504,-0.081984,-0.1952,6.93,-2.9575,1.30375,17.984001,30.432001,8.8,none,4,3.0,29586.0,180063.0,71746.0,184965.0,79703.0
2026-04-14 17:22:52.346438,252592,1609504866057342,2466027510,-1.036512,-0.060512,0.011712,6.5625,-3.7275,2.1525,17.672,30.304,10.128,none,4,3.0,29586.0,180063.0,71746.0,184965.0,79703.0
2026-04-14 17:22:52.371516,252593,1609504866066241,2466036176,-0.970144,-0.060512,-0.054656,6.545,-6.335,2.45875,16.912,30.648,10.168,none,4,3.0,29586.0,180063.0,71746.0,184965.0,79703.0
2026-04-14 17:22:52.403956,252604,1609504866080726,2466051181,-0.970144,-0.060512,-0.054656,6.60625,-7.1925,2.37125,16.912,30.648,10.168,none,4,3.0,29227.0,178669.0,71111.0,183772.0,78932.0
2026-04-14 17:22:52.406473,252605,1609504866089656,2466059961,-0.972096,-0.031232,-0.070272,8.32125,-5.27625,2.63375,17.904001,30.536001,9.280001,none,4,3.0,29227.0,178669.0,71111.0,183772.0,78932.0
2026-04-14 17:22:52.408553,252606,1609504866104176,2466072845,-0.972096,-0.031232,-0.070272,9.2225,-4.43625,3.255,17.904001,30.536001,9.280001,none,4,3.0,29227.0,178669.0,71111.0,183772.0,78932.0
2026-04-14 17:22:52.410939,252607,1609504866113410,2466083636,-1.001376,-0.013664,-0.085888,6.895,-3.5175,2.51125,18.176,30.256,11.256001,none,4,3.0,29227.0,178669.0,71111.0,183772.0,78932.0
2026-04-14 17:22:52.413464,252608,1609504866122342,2466092316,-1.001376,-0.013664,-0.085888,5.67875,-2.45875,0.9975,18.176,30.256,11.256001,none,4,3.0,29227.0,178669.0,71111.0,183772.0,78932.0
2026-04-14 17:22:52.416176,252609,1609504866136869,2466105238,-0.958432,-0.001952,0.070272,7.385,-0.44625,-1.54,18.04,30.384,9.784,none,4,3.0,29227.0,178669.0,71111.0,183772.0,78932.0
2026-04-14 17:22:52.423551,252610,1609504866146038,2466115990,-0.958432,-0.001952,0.025376,7.46375,1.61,-4.2175,18.04,30.384,9.784,none,4,3.0,29227.0,178669.0,71111.0,183772.0,78932.0
2026-04-14 17:22:52.440309,252611,1609504866160608,2466130859,-0.890112,-0.035136,0.025376,6.58,1.74125,-6.01125,18.016,30.424002,11.592001,none,4,3.0,29227.0,178669.0,71111.0,183772.0,78932.0
2026-04-14 17:22:52.450307,252612,1609504866169538,2466139576,-0.983808,-0.00976,-0.119072,7.11375,2.03,-7.49875,17.984001,30.272001,9.512,none,4,3.0,29227.0,178669.0,71111.0,183772.0,78932.0
2026-04-14 17:22:52.456550,252613,1609504866178458,2466148309,-0.983808,-0.00976,-0.119072,9.37125,3.745,-9.17875,17.984001,30.272001,9.512,none,4,3.0,29227.0,178669.0,71111.0,183772.0,78932.0
2026-04-14 17:22:52.486035,252625,1609504866193126,2466163529,-1.018944,0.031232,-0.021472,11.025,5.915,-12.20625,17.856,30.664001,10.120001,none,4,3.0,29083.0,178169.0,70854.0,183293.0,78591.0
2026-04-14 17:22:52.489949,252626,1609504866202062,2466172210,-1.018944,0.031232,-0.021472,10.6575,7.9625,-14.21,17.856,30.664001,10.120001,none,4,3.0,29083.0,178169.0,70854.0,183293.0,78591.0
2026-04-14 17:22:52.495782,252627,1609504866216624,2466185031,-0.970144,0.023424,0.076128,7.06125,10.7275,-16.555,17.44,30.44,9.664001,none,4,3.0,29083.0,178169.0,70854.0,183293.0,78591.0
2026-04-14 17:22:52.503464,252628,1609504866225835,2466195798,-0.970144,0.023424,0.076128,0.8225,10.63125,-19.50375,17.44,30.44,9.664001,none,4,3.0,29083.0,178169.0,70854.0,183293.0,78591.0
2026-04-14 17:22:52.513741,252629,1609504866234750,2466204483,-0.96624,-0.06832,0.035136,-6.48375,7.97125,-19.1975,17.552,30.640001,10.072001,none,4,3.0,29083.0,178169.0,70854.0,183293.0,78591.0
2026-04-14 17:22:52.527412,252630,1609504866249221,2466219386,-0.981856,-0.1464,-0.01952,-12.10125,4.87375,-17.395,17.36,31.456001,9.616,none,4,3.0,29083.0,178169.0,70854.0,183293.0,78591.0
2026-04-14 17:22:52.537501,252631,1609504866258146,2466228062,-0.981856,-0.1464,-0.01952,-11.13875,5.25,-16.4675,17.36,31.456001,9.616,none,4,3.0,29083.0,178169.0,70854.0,183293.0,78591.0
2026-04-14 17:22:52.550000,252632,1609504866272621,2466242888,-1.153632,-0.093696,-0.093696,-3.255,5.74,-14.90125,16.608002,31.312002,9.776,none,4,3.0,29083.0,178169.0,70854.0,183293.0,78591.0
2026-04-14 17:22:52.584801,252643,1609504866281585,2466251609,-1.153632,-0.093696,-0.093696,8.4,5.83625,-11.83,16.608002,31.312002,9.776,none,4,3.0,28752.0,177716.0,70191.0,182837.0,77777.0
2026-04-14 17:22:52.591601,252644,1609504866296157,2466264540,-1.124352,-0.064416,0.023424,14.37625,3.91125,-7.67375,17.288,31.304,10.320001,none,4,3.0,28752.0,177716.0,70191.0,182837.0,77777.0
2026-04-14 17:22:52.593616,252645,1609504866305461,2466275381,-1.124352,-0.064416,0.023424,14.8225,-0.1925,-3.9025,17.288,31.304,10.320001,none,4,3.0,28752.0,177716.0,70191.0,182837.0,77777.0
2026-04-14 17:22:52.593707,252646,1609504866314432,2466284122,-1.06384,-0.124928,0.017568,11.75125,-3.43875,0.35,17.6,30.944002,7.976,none,4,3.0,28752.0,177716.0,70191.0,182837.0,77777.0
2026-04-14 17:22:52.607386,252647,1609504866328905,2466298987,-1.130208,-0.099552,0.06832,9.94,-5.73125,3.92,17.408,30.424002,12.968,none,4,3.0,28752.0,177716.0,70191.0,182837.0,77777.0
2026-04-14 17:22:52.616174,252648,1609504866337869,2466307682,-1.130208,-0.099552,0.06832,12.46875,-6.615,5.7925,17.408,30.424002,12.968,none,4,3.0,28752.0,177716.0,70191.0,182837.0,77777.0
2026-04-14 17:22:52.629999,252649,1609504866352359,2466322569,-1.165344,-0.081984,-0.074176,23.24875,-3.6575,3.7975,16.640001,30.848001,12.008,none,4,3.0,28752.0,177716.0,70191.0,182837.0,77777.0
2026-04-14 17:22:52.640016,252650,1609504866361328,2466331241,-1.165344,-0.081984,-0.074176,31.43875,-2.38,-0.60375,16.640001,30.848001,12.008,none,4,3.0,28752.0,177716.0,70191.0,182837.0,77777.0
2026-04-14 17:22:52.656247,252651,1609504866375821,2466346114,-1.260992,-0.05856,-0.033184,31.815,-3.70125,0.945,17.464,30.104002,11.016001,none,4,3.0,28752.0,177716.0,70191.0,182837.0,77777.0
2026-04-14 17:22:52.684795,252662,1609504866384809,2466354851,-1.260992,-0.05856,-0.033184,27.85125,-6.9825,3.31625,17.464,30.104002,11.016001,none,4,3.0,27991.0,175657.0,68632.0,181186.0,75936.0
2026-04-14 17:22:52.687137,252663,1609504866393886,2466363598,-1.280512,-0.046848,-0.1464,27.79,-10.89375,7.41125,17.896,30.080002,11.464001,none,4,3.0,27991.0,175657.0,68632.0,181186.0,75936.0
2026-04-14 17:22:52.690196,252664,1609504866408551,2466378494,-1.214144,-0.064416,-0.093696,31.8675,-10.605001,9.40625,17.384,29.976002,11.624001,none,4,3.0,27991.0,175657.0,68632.0,181186.0,75936.0
2026-04-14 17:22:52.714874,252665,1609504866417479,2466387296,-1.214144,-0.064416,-0.093696,34.5625,-9.16125,6.685,17.384,29.976002,11.624001,none,4,3.0,27991.0,175657.0,68632.0,181186.0,75936.0
2026-04-14 17:22:52.739962,252666,1609504866431945,2466402189,-1.202432,-0.154208,-0.15616,35.44625,-5.6,3.9725,17.624,29.52,12.632001,none,4,3.0,27991.0,175657.0,68632.0,181186.0,75936.0
2026-04-14 17:22:52.747759,252667,1609504866441238,2466410868,-1.202432,-0.154208,-0.15616,39.33125,-3.14125,-0.1225,17.624,29.52,12.632001,none,4,3.0,27991.0,175657.0,68632.0,181186.0,75936.0
2026-04-14 17:22:52.750010,252668,1609504866450168,2466419557,-1.1712,-0.062464,-0.01952,44.695,-0.8575,-0.35,17.312,29.472002,13.384001,none,4,3.0,27991.0,175657.0,68632.0,181186.0,75936.0
2026-04-14 17:22:52.752614,252669,1609504866464654,2466434480,-1.1712,-0.062464,-0.01952,46.40125,0.105,0.74375,17.312,29.472002,13.384001,none,4,3.0,27991.0,175657.0,68632.0,181186.0,75936.0
2026-04-14 17:22:52.755305,252670,1609504866473586,2466443160,-1.163392,-0.021472,-0.060512,44.6775,-1.33,1.88125,16.552,28.880001,14.088,none,4,3.0,27991.0,175657.0,68632.0,181186.0,75936.0
2026-04-14 17:22:52.784676,252681,1609504866488309,2466458213,-1.163392,-0.021472,-0.17568,39.90875,-3.5525,2.61625,16.552,28.880001,14.088,none,4,3.0,28026.0,175464.0,68647.0,181149.0,75995.0
2026-04-14 17:22:52.787659,252682,1609504866497288,2466466952,-1.098976,-0.128832,-0.17568,35.2625,-6.3525,4.83,16.632,29.080002,14.824,none,4,3.0,28026.0,175464.0,68647.0,181149.0,75995.0
2026-04-14 17:22:52.790184,252683,1609504866506211,2466475682,-1.098976,-0.128832,-0.17568,32.12125,-7.63875,7.6475,16.632,29.080002,14.824,none,4,3.0,28026.0,175464.0,68647.0,181149.0,75995.0
2026-04-14 17:22:52.798447,252684,1609504866520694,2466490621,-1.026752,-0.171776,-0.152256,32.62,-9.75625,11.13,16.784,28.800001,14.784,none,4,3.0,28026.0,175464.0,68647.0,181149.0,75995.0
2026-04-14 17:22:52.808998,252685,1609504866529604,2466499291,-0.935008,-0.160064,-0.037088,38.920002,-10.01875,14.6825,17.512001,27.760002,15.56,none,4,3.0,28026.0,175464.0,68647.0,181149.0,75995.0
2026-04-14 17:22:52.822820,252686,1609504866544109,2466514154,-0.935008,-0.160064,-0.037088,46.52375,-11.165,16.0475,17.512001,27.760002,15.56,none,4,3.0,28026.0,175464.0,68647.0,181149.0,75995.0
2026-04-14 17:22:52.830997,252687,1609504866553066,2466522827,-0.940864,-0.111264,-0.054656,49.13125,-10.29,18.0075,17.232,27.904001,16.008001,none,4,3.0,28026.0,175464.0,68647.0,181149.0,75995.0
2026-04-14 17:22:52.847514,252688,1609504866567525,2466537701,-0.940864,-0.111264,-0.054656,48.982502,-9.80875,20.37,17.232,27.904001,16.008001,none,4,3.0,28026.0,175464.0,68647.0,181149.0,75995.0
2026-04-14 17:22:52.855309,252689,1609504866576434,2466546372,-0.970144,-0.081984,0.130784,48.93,-10.4125,22.75875,17.264,26.704,15.6,none,4,3.0,28026.0,175464.0,68647.0,181149.0,75995.0
2026-04-14 17:22:52.911552,252700,1609504866591008,2466559447,-1.003328,-0.040992,0.040992,49.48125,-11.13875,24.57,18.576,26.488,15.704,none,4,3.0,28490.0,176494.0,69461.0,182020.0,77064.0
2026-04-14 17:22:52.913509,252701,1609504866600287,2466570278,-1.003328,-0.040992,0.040992,49.62125,-10.99875,26.10125,18.576,26.488,15.704,none,4,3.0,28490.0,176494.0,69461.0,182020.0,77064.0
2026-04-14 17:22:52.919062,252702,1609504866609200,2466578951,-1.003328,-0.0488,0.066368,49.06125,-10.49125,27.04625,18.576,26.488,17.752,none,4,3.0,28490.0,176494.0,69461.0,182020.0,77064.0
2026-04-14 17:22:52.921576,252703,1609504866623724,2466593826,-1.016992,-0.0488,0.066368,49.857502,-10.955,26.29375,17.992,25.624,17.12,none,4,3.0,28490.0,176494.0,69461.0,182020.0,77064.0
2026-04-14 17:22:52.923552,252704,1609504866632661,2466602507,-1.052128,-0.035136,-0.007808,54.005,-13.475,21.77875,17.968,25.272001,17.672,none,4,3.0,28490.0,176494.0,69461.0,182020.0,77064.0
2026-04-14 17:22:52.925992,252705,1609504866647167,2466617416,-1.052128,-0.035136,-0.007808,56.46375,-16.065,17.85875,17.968,25.272001,17.672,none,4,3.0,28490.0,176494.0,69461.0,182020.0,77064.0
2026-04-14 17:22:52.933452,252706,1609504866656159,2466626177,-1.011136,0.001952,0.199104,54.04,-17.21125,16.45875,17.704,24.552002,18.504002,none,4,3.0,28490.0,176494.0,69461.0,182020.0,77064.0
2026-04-14 17:22:52.943729,252707,1609504866665104,2466634852,-1.011136,0.001952,0.199104,51.17875,-17.5,15.1375,17.704,24.552002,18.504002,none,4,3.0,28490.0,176494.0,69461.0,182020.0,77064.0
2026-04-14 17:22:52.961792,252708,1609504866679565,2466649731,-1.075552,-0.06832,-0.042944,52.66625,-16.275,10.28125,17.592001,24.208002,17.568,none,4,3.0,28490.0,176494.0,69461.0,182020.0,77064.0
2026-04-14 17:22:52.987681,252719,1609504866688849,2466658426,-1.075552,-0.06832,-0.042944,55.60625,-16.00375,4.08625,17.592001,24.208002,17.568,none,4,3.0,28227.0,176054.0,69002.0,181497.0,76516.0
2026-04-14 17:22:52.989721,252720,1609504866703491,2466673491,-1.081408,-0.052704,-0.060512,58.98375,-17.491251,3.47375,17.944,23.152,16.408,none,4,3.0,28227.0,176054.0,69002.0,181497.0,76516.0
2026-04-14 17:22:52.992350,252721,1609504866712440,2466682227,-0.962336,-0.10736,0.06832,63.21875,-20.51,4.2,17.480001,22.736002,19.232,none,4,3.0,28227.0,176054.0,69002.0,181497.0,76516.0
2026-04-14 17:22:52.998589,252722,1609504866721409,2466690908,-0.962336,-0.10736,0.06832,64.88125,-25.305,3.24625,17.480001,22.736002,19.232,none,4,3.0,28227.0,176054.0,69002.0,181497.0,76516.0
2026-04-14 17:22:53.014849,252723,1609504866735895,2466705774,-0.954528,-0.11712,0.144448,63.7875,-26.705,2.45875,17.528002,21.928001,20.472,none,4,3.0,28227.0,176054.0,69002.0,181497.0,76516.0
2026-04-14 17:22:53.023937,252724,1609504866744925,2466714548,-0.954528,-0.11712,0.144448,61.03125,-28.6825,-0.18375,17.528002,21.928001,20.472,none,4,3.0,28227.0,176054.0,69002.0,181497.0,76516.0
2026-04-14 17:22:53.037361,252725,1609504866759461,2466729522,-1.001376,-0.08784,0.294752,56.42875,-31.00125,-5.25,16.296001,21.776001,21.392,none,4,3.0,28227.0,176054.0,69002.0,181497.0,76516.0
2026-04-14 17:22:53.046234,252726,1609504866768393,2466738195,-1.001376,-0.08784,0.294752,51.9925,-33.04875,-8.2775,16.296001,21.776001,21.392,none,4,3.0,28227.0,176054.0,69002.0,181497.0,76516.0
2026-04-14 17:22:53.083525,252727,1609504866782874,2466753062,-1.075552,-0.035136,0.023424,50.75,-32.9875,-9.073751,16.728,20.792002,20.160002,none,4,3.0,28227.0,176054.0,69002.0,181497.0,76516.0
2026-04-14 17:22:53.134076,252738,1609504866791944,2466761804,-0.96624,0.025376,0.144448,52.57875,-31.00125,-10.78875,15.320001,20.568,21.496,none,4,3.0,28596.0,179040.0,69580.0,183311.0,77230.0
2026-04-14 17:22:53.136582,252739,1609504866800909,2466770529,-0.96624,0.025376,0.144448,54.53,-28.385,-13.41375,15.320001,20.568,21.496,none,4,3.0,28596.0,179040.0,69580.0,183311.0,77230.0
2026-04-14 17:22:53.139056,252740,1609504866815494,2466785437,-1.046272,0.070272,0.085888,54.075,-25.05125,-16.52875,15.128,20.472,22.464,none,4,3.0,28596.0,179040.0,69580.0,183311.0,77230.0
2026-04-14 17:22:53.141366,252741,1609504866824452,2466794113,-1.046272,0.070272,0.085888,50.77625,-22.02375,-19.99375,15.128,20.472,22.464,none,4,3.0,28596.0,179040.0,69580.0,183311.0,77230.0
2026-04-14 17:22:53.144064,252742,1609504866838909,2466809057,-0.981856,0.007808,0.07808,45.14125,-20.5275,-23.51125,14.608001,19.976002,22.776001,none,4,3.0,28596.0,179040.0,69580.0,183311.0,77230.0
2026-04-14 17:22:53.149273,252743,1609504866847816,2466817752,-0.981856,0.007808,0.07808,40.145,-19.03125,-25.92625,14.608001,19.976002,22.776001,none,4,3.0,28596.0,179040.0,69580.0,183311.0,77230.0
2026-04-14 17:22:53.149645,252744,1609504866862329,2466832669,-1.079456,0.013664,-0.027328,36.33875,-18.27875,-28.48125,14.664001,19.92,23.016,none,4,3.0,28596.0,179040.0,69580.0,183311.0,77230.0
2026-04-14 17:22:53.151010,252745,1609504866871267,2466841356,-1.00528,-0.03904,-0.027328,34.90375,-17.07125,-31.68375,12.616,19.024,21.416,none,4,3.0,28596.0,179040.0,69580.0,183311.0,77230.0
2026-04-14 17:22:53.159628,252746,1609504866880200,2466850128,-1.00528,-0.03904,-0.027328,36.575,-13.8425,-33.3725,14.176001,19.024,21.416,none,4,3.0,28596.0,179040.0,69580.0,183311.0,77230.0
2026-04-14 17:22:53.188556,252757,1609504866895175,2466865148,-1.018944,-0.023424,0.113216,39.61125,-10.66625,-34.46625,14.376,18.608002,22.880001,none,4,3.0,28685.0,180952.0,69643.0,183862.0,77336.0
2026-04-14 17:22:53.191550,252758,1609504866904213,2466873854,-1.018944,-0.023424,0.113216,41.8425,-8.1375,-35.14,14.376,18.608002,22.880001,none,4,3.0,28685.0,180952.0,69643.0,183862.0,77336.0
2026-04-14 17:22:53.197606,252759,1609504866918746,2466888753,-1.120448,-0.00976,-0.064416,43.75,-6.09,-35.46375,14.328001,18.024,21.320002,none,4,3.0,28685.0,180952.0,69643.0,183862.0,77336.0
2026-04-14 17:22:53.207801,252760,1609504866927685,2466897421,-1.120448,-0.00976,-0.064416,45.0625,-3.75375,-35.63,14.328001,18.024,21.320002,none,4,3.0,28685.0,180952.0,69643.0,183862.0,77336.0
2026-04-14 17:22:53.213674,252761,1609504866936580,2466906127,-1.116544,-0.037088,-0.089792,44.4675,-1.19,-35.56,13.880001,17.688002,24.416,none,4,3.0,28685.0,180952.0,69643.0,183862.0,77336.0
2026-04-14 17:22:53.232841,252762,1609504866951080,2466921011,-1.116544,-0.037088,-0.056608,44.1525,2.42375,-35.420002,13.880001,17.688002,24.416,none,4,3.0,28685.0,180952.0,69643.0,183862.0,77336.0
2026-04-14 17:22:53.239133,252763,1609504866959977,2466929705,-1.124352,-0.105408,-0.056608,43.65375,5.62625,-36.05,13.320001,17.424002,22.832,none,4,3.0,28685.0,180952.0,69643.0,183862.0,77336.0
2026-04-14 17:22:53.254615,252764,1609504866974455,2466944578,-1.23952,-0.066368,-0.124928,44.6775,8.58375,-36.11125,13.024,16.76,23.968,none,4,3.0,28685.0,180952.0,69643.0,183862.0,77336.0
2026-04-14 17:22:53.262342,252765,1609504866983389,2466953273,-1.23952,-0.066368,-0.124928,49.6475,9.40625,-36.1725,13.024,16.76,23.968,none,4,3.0,28685.0,180952.0,69643.0,183862.0,77336.0
2026-04-14 17:22:53.290010,252776,1609504866997911,2466966308,-1.184864,-0.003904,0.099552,56.638752,9.9925,-35.88375,13.000001,16.648,25.416,none,4,3.0,28534.0,181289.0,69344.0,184232.0,77011.0
2026-04-14 17:22:53.292434,252777,1609504867007167,2466977022,-1.184864,-0.003904,0.099552,60.357502,10.40375,-35.315,13.000001,16.648,25.416,none,4,3.0,28534.0,181289.0,69344.0,184232.0,77011.0
2026-04-14 17:22:53.294984,252778,1609504867016104,2466985752,-1.13216,-0.052704,0.124928,59.84125,10.6925,-33.87125,12.808001,15.928,25.688002,none,4,3.0,28534.0,181289.0,69344.0,184232.0,77011.0
2026-04-14 17:22:53.310003,252779,1609504867030626,2467000653,-1.13216,-0.052704,0.124928,55.78125,12.635,-32.64625,12.808001,15.928,25.688002,none,4,3.0,28534.0,181289.0,69344.0,184232.0,77011.0
2026-04-14 17:22:53.318751,252780,1609504867039531,2467009307,-1.124352,-0.132736,0.005856,52.3775,14.55125,-31.50875,13.816001,15.112,25.056002,none,4,3.0,28534.0,181289.0,69344.0,184232.0,77011.0
2026-04-14 17:22:53.334954,252781,1609504867054017,2467024163,-1.085312,-0.115168,0.11712,52.2025,16.765,-30.7825,13.248001,14.960001,26.136002,none,4,3.0,28534.0,181289.0,69344.0,184232.0,77011.0
2026-04-14 17:22:53.342365,252782,1609504867062953,2467032864,-1.085312,-0.115168,0.11712,57.0325,19.11,-30.0475,13.248001,14.960001,26.136002,none,4,3.0,28534.0,181289.0,69344.0,184232.0,77011.0
2026-04-14 17:22:53.357470,252783,1609504867077417,2467047738,-1.104832,-0.052704,0.101504,63.65625,21.95375,-29.365,13.376,13.920001,24.936,none,4,3.0,28534.0,181289.0,69344.0,184232.0,77011.0
2026-04-14 17:22:53.388769,252794,1609504867086330,2467056566,-1.104832,-0.052704,0.101504,67.45375,23.45,-30.205,13.376,13.920001,24.936,none,4,3.0,28501.0,180483.0,69398.0,184739.0,77014.0
2026-04-14 17:22:53.391282,252795,1609504867095387,2467065467,-1.026752,-0.0488,0.037088,67.7075,23.275,-31.7625,13.400001,13.304001,26.336,none,4,3.0,28501.0,180483.0,69398.0,184739.0,77014.0
2026-04-14 17:22:53.393649,252796,1609504867109899,2467078313,-1.026752,-0.0488,0.037088,65.45875,22.67125,-33.3375,13.400001,13.304001,26.336,none,4,3.0,28501.0,180483.0,69398.0,184739.0,77014.0
2026-04-14 17:22:53.397272,252797,1609504867119119,2467089060,-0.981856,-0.037088,0.111264,62.92125,23.7475,-35.39375,13.112,12.896001,26.472002,none,4,3.0,28501.0,180483.0,69398.0,184739.0,77014.0
2026-04-14 17:22:53.413315,252798,1609504867133652,2467103926,-0.981856,-0.037088,0.10736,61.94125,26.2325,-39.85625,14.424001,12.256001,27.160002,none,4,3.0,28501.0,180483.0,69398.0,184739.0,77014.0
2026-04-14 17:22:53.419531,252799,1609504867142567,2467112645,-0.981856,-0.037088,0.10736,61.18,27.4575,-42.37625,14.424001,12.256001,27.160002,none,4,3.0,28501.0,180483.0,69398.0,184739.0,77014.0
2026-04-14 17:22:53.449857,252800,1609504867151504,2467121320,-0.981856,-0.037088,0.10736,59.2025,30.345,-44.52,14.424001,12.256001,27.160002,none,4,3.0,28501.0,180483.0,69398.0,184739.0,77014.0
2026-04-14 17:22:53.452334,252801,1609504867166005,2467136190,-1.007232,-0.023424,0.138592,58.73,28.56875,-45.1675,13.896001,11.848001,25.720001,none,4,3.0,28501.0,180483.0,69398.0,184739.0,77014.0
2026-04-14 17:22:53.454902,252802,1609504867174921,2467144850,-0.960384,-0.072224,0.115168,61.73125,28.9975,-43.05875,14.504001,10.92,25.36,none,4,3.0,28501.0,180483.0,69398.0,184739.0,77014.0
2026-04-14 17:22:53.553507,252813,1609504867189955,2467159776,-0.960384,-0.072224,0.115168,66.45625,31.57,-45.605,14.504001,10.92,25.36,none,4,3.0,28141.0,177643.0,68786.0,182697.0,76337.0
2026-04-14 17:22:53.556368,252814,1609504867198943,2467168428,-1.048224,-0.07808,-0.064416,70.90125,31.4825,-50.74125,13.52,10.192,26.416,none,4,3.0,28141.0,177643.0,68786.0,182697.0,76337.0
2026-04-14 17:22:53.559004,252815,1609504867213726,2467183357,-1.022848,-0.031232,0.189344,75.57375,31.395,-51.205,14.496,9.656,26.336,none,4,3.0,28141.0,177643.0,68786.0,182697.0,76337.0
2026-04-14 17:22:53.561551,252816,1609504867222662,2467192087,-1.022848,-0.031232,0.189344,79.4325,30.70375,-51.2225,14.496,9.656,26.336,none,4,3.0,28141.0,177643.0,68786.0,182697.0,76337.0
2026-04-14 17:22:53.563483,252817,1609504867231549,2467200742,-1.022848,-0.031232,0.189344,87.01875,29.19875,-50.8025,14.496,9.656,26.336,none,4,3.0,28141.0,177643.0,68786.0,182697.0,76337.0
2026-04-14 17:22:53.566243,252818,1609504867246050,2467215617,-1.1224,-0.093696,0.091744,102.305,26.48625,-48.62375,14.920001,8.448,26.304,none,4,3.0,28141.0,177643.0,68786.0,182697.0,76337.0
2026-04-14 17:22:53.569091,252819,1609504867254998,2467224300,-1.048224,-0.158112,0.144448,118.51,25.64625,-45.4475,14.936001,6.896,24.480001,none,4,3.0,28141.0,177643.0,68786.0,182697.0,76337.0
2026-04-14 17:22:53.571592,252820,1609504867269502,2467239251,-1.048224,-0.158112,0.144448,134.70625,23.9925,-44.9575,14.936001,6.896,24.480001,none,4,3.0,28141.0,177643.0,68786.0,182697.0,76337.0
2026-04-14 17:22:53.573555,252821,1609504867278431,2467247932,-1.040416,-0.070272,0.08784,151.05125,24.1675,-43.16375,15.088,5.12,25.536001,none,4,3.0,28141.0,177643.0,68786.0,182697.0,76337.0
2026-04-14 17:22:53.601586,252832,1609504867287333,2467256891,-1.040416,-0.070272,0.08784,158.31375,28.60375,-42.62125,15.088,5.12,25.536001,none,4,3.0,27577.0,176793.0,67589.0,182145.0,74999.0
2026-04-14 17:22:53.603549,252833,1609504867301886,2467271830,-1.282464,-0.089792,-0.21472,155.07625,31.24625,-43.3475,16.104,3.264,25.792002,none,4,3.0,27577.0,176793.0,67589.0,182145.0,74999.0
2026-04-14 17:22:53.606588,252834,1609504867310820,2467280624,-1.282464,-0.089792,-0.21472,151.33125,31.272501,-44.73,16.104,3.264,25.792002,none,4,3.0,27577.0,176793.0,67589.0,182145.0,74999.0
2026-04-14 17:22:53.609069,252835,1609504867325325,2467295543,-1.331264,-0.124928,-0.240096,150.87625,27.72,-45.0625,16.144001,1.76,25.688002,none,4,3.0,27577.0,176793.0,67589.0,182145.0,74999.0
2026-04-14 17:22:53.614806,252836,1609504867334364,2467304242,-1.29808,-0.109312,0.021472,155.7675,23.94,-45.1675,16.472,0.344,23.904001,none,4,3.0,27577.0,176793.0,67589.0,182145.0,74999.0
2026-04-14 17:22:53.628634,252837,1609504867348823,2467319084,-1.29808,-0.109312,0.021472,153.44,21.97125,-46.52375,16.472,0.344,23.904001,none,4,3.0,27577.0,176793.0,67589.0,182145.0,74999.0
2026-04-14 17:22:53.635205,252838,1609504867357732,2467327767,-1.300032,-0.056608,-0.128832,160.7025,18.5675,-44.345,15.688001,-1.328,25.304,none,4,3.0,27577.0,176793.0,67589.0,182145.0,74999.0
2026-04-14 17:22:53.646049,252839,1609504867366665,2467336451,-1.300032,-0.056608,-0.128832,151.31375,21.14,-43.98625,15.688001,-1.328,25.304,none,4,3.0,27577.0,176793.0,67589.0,182145.0,74999.0
2026-04-14 17:22:53.660283,252840,1609504867381137,2467351326,-1.309792,-0.113216,0.081984,159.55624,22.86375,-44.59,16.816,-3.336,24.128,none,4,3.0,27577.0,176793.0,67589.0,182145.0,74999.0
2026-04-14 17:22:53.691605,252851,1609504867390133,2467360072,-1.309792,-0.113216,0.081984,158.83,26.99375,-45.35125,16.816,-3.336,24.128,none,4,3.0,27915.0,182080.0,67905.0,186674.0,75516.0
2026-04-14 17:22:53.694104,252852,1609504867404757,2467375044,-1.296128,-0.20496,-0.02928,166.355,30.555,-43.49625,17.032001,-5.048,23.664001,none,4,3.0,27915.0,182080.0,67905.0,186674.0,75516.0
2026-04-14 17:22:53.696564,252853,1609504867413742,2467383743,-1.296128,-0.20496,-0.02928,172.74251,33.27625,-44.21375,17.032001,-5.048,23.664001,none,4,3.0,27915.0,182080.0,67905.0,186674.0,75516.0
2026-04-14 17:22:53.708526,252854,1609504867428249,2467396603,-1.196576,-0.035136,-0.152256,157.82375,34.22125,-42.1225,17.208,-6.472,23.720001,none,4,3.0,27915.0,182080.0,67905.0,186674.0,75516.0
2026-04-14 17:22:53.715978,252855,1609504867437401,2467407334,-1.061888,-0.089792,-0.15616,137.0775,29.8375,-38.87625,16.584002,-6.824,23.68,none,4,3.0,27915.0,182080.0,67905.0,186674.0,75516.0
2026-04-14 17:22:53.723962,252856,1609504867446398,2467416041,-1.061888,-0.089792,-0.15616,110.32,23.485,-34.44,16.584002,-6.824,23.68,none,4,3.0,27915.0,182080.0,67905.0,186674.0,75516.0
2026-04-14 17:22:53.738913,252857,1609504867460895,2467430923,-0.899872,-0.244,-0.00976,95.52375,17.8675,-31.5525,17.208,-8.104,23.36,none,4,3.0,27915.0,182080.0,67905.0,186674.0,75516.0
2026-04-14 17:22:53.747579,252858,1609504867469833,2467439605,-0.899872,-0.244,-0.00976,97.50125,15.4875,-25.96125,17.208,-8.104,23.36,none,4,3.0,27915.0,182080.0,67905.0,186674.0,75516.0
2026-04-14 17:22:53.764748,252859,1609504867484337,2467454483,-0.894016,-0.177632,0.105408,111.69375,18.1825,-20.57125,16.672,-9.656,21.584002,none,4,3.0,27915.0,182080.0,67905.0,186674.0,75516.0
2026-04-14 17:22:53.791178,252870,1609504867493388,2467463191,-0.894016,-0.177632,0.105408,126.332504,21.91,-13.5975,16.672,-9.656,21.584002,none,4,3.0,35648.0,199832.0,82553.0,198799.0,92360.0
2026-04-14 17:22:53.816007,252871,1609504867507929,2467478166,-0.952576,-0.17568,0.052704,131.3025,26.075,-12.0225,17.104,-10.352,21.848001,none,4,3.0,35648.0,199832.0,82553.0,198799.0,92360.0
2026-04-14 17:22:53.841531,252872,1609504867516892,2467486866,-0.999424,-0.228384,0.083936,124.53875,24.928751,-7.93625,16.984001,-11.536,22.232,none,4,3.0,35648.0,199832.0,82553.0,198799.0,92360.0
2026-04-14 17:22:53.848859,252873,1609504867525830,2467495537,-0.999424,-0.228384,0.083936,114.7125,23.9925,-1.02375,16.984001,-11.536,22.232,none,4,3.0,35648.0,199832.0,82553.0,198799.0,92360.0
2026-04-14 17:22:53.851575,252874,1609504867540300,2467510430,-0.964288,-0.286944,0.023424,114.94,21.70875,1.39125,17.288,-12.888001,21.44,none,4,3.0,35648.0,199832.0,82553.0,198799.0,92360.0
2026-04-14 17:22:53.853593,252875,1609504867549219,2467519102,-0.964288,-0.286944,0.023424,122.85875,20.4225,5.775,17.288,-12.888001,21.44,none,4,3.0,35648.0,199832.0,82553.0,198799.0,92360.0
2026-04-14 17:22:53.856577,252876,1609504867563698,2467533978,-0.944768,-0.216672,-0.040992,124.425,25.2875,7.2275,16.784,-13.984,20.392,none,4,3.0,35648.0,199832.0,82553.0,198799.0,92360.0
2026-04-14 17:22:53.858599,252877,1609504867572623,2467542658,-0.944768,-0.216672,-0.040992,121.16125,28.9275,3.71875,16.784,-13.984,20.392,none,4,3.0,35648.0,199832.0,82553.0,198799.0,92360.0
2026-04-14 17:22:53.866596,252878,1609504867587137,2467555506,-0.938912,-0.140544,0.181536,118.64125,27.772501,10.49125,16.696001,-15.408001,19.04,none,4,3.0,35648.0,199832.0,82553.0,198799.0,92360.0
2026-04-14 17:22:53.895984,252889,1609504867596420,2467566774,-0.864736,-0.20496,0.101504,112.2625,30.0125,12.88875,17.448,-16.16,16.952002,none,4,3.0,40424.0,211939.0,90994.0,208815.0,102371.0
2026-04-14 17:22:53.896324,252890,1609504867605423,2467575507,-0.864736,-0.20496,0.101504,100.152504,26.80125,14.65625,17.448,-16.16,16.952002,none,4,3.0,40424.0,211939.0,90994.0,208815.0,102371.0
2026-04-14 17:22:53.898601,252891,1609504867620022,2467588455,-0.843264,-0.160064,0.152256,88.69875,27.4925,18.43625,17.6,-17.064001,17.544,none,4,3.0,40424.0,211939.0,90994.0,208815.0,102371.0
2026-04-14 17:22:53.908627,252892,1609504867629323,2467599197,-0.843264,-0.160064,0.152256,82.8625,28.27125,15.715,17.6,-17.064001,17.544,none,4,3.0,40424.0,211939.0,90994.0,208815.0,102371.0
2026-04-14 17:22:53.914782,252893,1609504867638261,2467607902,-0.895968,-0.1952,0.179584,78.18125,26.5125,15.1725,18.512001,-17.496,16.992,none,4,3.0,40424.0,211939.0,90994.0,208815.0,102371.0
2026-04-14 17:22:53.931104,252894,1609504867652845,2467622817,-0.895968,-0.1952,0.179584,68.25875,23.47625,13.011251,18.512001,-17.496,16.992,none,4,3.0,40424.0,211939.0,90994.0,208815.0,102371.0
2026-04-14 17:22:53.939915,252895,1609504867661767,2467631491,-0.972096,-0.382592,0.427488,63.35875,18.96125,6.0725,18.272001,-18.056002,15.936001,none,4,3.0,40424.0,211939.0,90994.0,208815.0,102371.0
2026-04-14 17:22:53.955060,252896,1609504867676260,2467646349,-0.884256,-0.382592,0.767136,63.27125,12.985,-1.74125,18.272001,-18.736,14.312,none,4,3.0,40424.0,211939.0,90994.0,208815.0,102371.0
2026-04-14 17:22:53.964095,252897,1609504867685197,2467655043,-0.884256,-0.382592,0.767136,64.855,8.40875,-5.31125,18.272001,-18.736,14.312,none,4,3.0,40424.0,211939.0,90994.0,208815.0,102371.0
2026-04-14 17:22:53.998069,252908,1609504867699754,2467670074,-0.962336,-0.353312,0.447008,65.94875,5.62625,-7.98875,17.736,-19.160002,15.168001,none,4,3.0,40936.0,211991.0,91226.0,207829.0,102985.0
2026-04-14 17:22:54.000048,252909,1609504867708663,2467678770,-0.962336,-0.353312,0.447008,68.5125,5.29375,-11.8825,17.736,-19.160002,15.168001,none,4,3.0,40936.0,211991.0,91226.0,207829.0,102985.0
2026-04-14 17:22:54.002302,252910,1609504867717639,2467687462,-1.05408,-0.30256,0.259616,73.1325,4.08625,-16.625,18.240002,-19.096,16.696001,none,4,3.0,40936.0,211991.0,91226.0,207829.0,102985.0
2026-04-14 17:22:54.012678,252911,1609504867732124,2467702381,-1.05408,-0.30256,0.259616,77.32375,2.45,-20.01125,18.240002,-19.096,16.696001,none,4,3.0,40936.0,211991.0,91226.0,207829.0,102985.0
2026-04-14 17:22:54.018875,252912,1609504867741048,2467711101,-1.08336,-0.173728,0.324032,79.19625,-0.8925,-20.36125,18.488,-19.904001,14.008,none,4,3.0,40936.0,211991.0,91226.0,207829.0,102985.0
2026-04-14 17:22:54.032386,252913,1609504867755541,2467723923,-1.08336,-0.173728,0.324032,76.79875,-2.17875,-21.9275,18.488,-19.904001,14.008,none,4,3.0,40936.0,211991.0,91226.0,207829.0,102985.0
2026-04-14 17:22:54.044108,252914,1609504867764771,2467734658,-1.04432,-0.18544,0.245952,70.93625,-2.75625,-24.1675,18.344002,-20.072,12.984,none,4,3.0,40936.0,211991.0,91226.0,207829.0,102985.0
2026-04-14 17:22:54.059110,252915,1609504867779230,2467749550,-1.0248,-0.140544,0.261568,62.81625,-3.29875,-24.815,19.096,-20.576,12.264001,none,4,3.0,40936.0,211991.0,91226.0,207829.0,102985.0
2026-04-14 17:22:54.066080,252916,1609504867788117,2467758279,-1.0248,-0.140544,0.261568,57.61875,-4.06875,-24.815,19.096,-20.576,12.264001,none,4,3.0,40936.0,211991.0,91226.0,207829.0,102985.0
2026-04-14 17:22:54.095971,252927,1609504867797119,2467767033,-0.952576,-0.132736,0.122976,53.66375,-4.3575,-24.115,19.080002,-20.592001,12.096001,none,4,3.0,39577.0,207948.0,89612.0,204825.0,101204.0
2026-04-14 17:22:54.098589,252928,1609504867811614,2467781938,-0.952576,-0.132736,0.122976,47.013752,-3.19375,-22.2775,19.080002,-20.592001,12.096001,none,4,3.0,39577.0,207948.0,89612.0,204825.0,101204.0
2026-04-14 17:22:54.100937,252929,1609504867820579,2467790642,-0.972096,-0.08784,0.177632,38.7625,-0.28,-20.65875,19.752,-20.712002,12.152,none,4,3.0,39577.0,207948.0,89612.0,204825.0,101204.0
2026-04-14 17:22:54.112202,252930,1609504867835088,2467803499,-0.972096,-0.08784,0.177632,30.75625,3.73625,-18.095,19.752,-20.712002,12.152,none,4,3.0,39577.0,207948.0,89612.0,204825.0,101204.0
2026-04-14 17:22:54.124066,252931,1609504867844306,2467814236,-0.940864,-0.142496,0.044896,23.58125,7.9275,-15.2425,19.512001,-20.648,12.288,none,4,3.0,39577.0,207948.0,89612.0,204825.0,101204.0
2026-04-14 17:22:54.137870,252932,1609504867858773,2467829083,-0.821792,-0.140544,0.167872,16.555,11.41,-13.06375,19.816002,-20.856,13.136001,none,4,3.0,39577.0,207948.0,89612.0,204825.0,101204.0
2026-04-14 17:22:54.170392,252933,1609504867867711,2467837787,-0.821792,-0.140544,0.167872,15.02375,15.1375,-11.47125,19.816002,-20.856,13.136001,none,4,3.0,39577.0,207948.0,89612.0,204825.0,101204.0
2026-04-14 17:22:54.195224,252934,1609504867876698,2467846504,-0.821792,-0.140544,0.167872,16.93125,19.41625,-10.4825,19.816002,-20.856,13.136001,none,4,3.0,39577.0,207948.0,89612.0,204825.0,101204.0
2026-04-14 17:22:54.264804,252945,1609504867891653,2467861395,-0.933056,-0.080032,0.025376,18.803751,22.98625,-11.2175,20.344002,-20.624,7.520001,none,4,3.0,41483.0,209712.0,92995.0,206173.0,104756.0
2026-04-14 17:22:54.267821,252946,1609504867900632,2467870204,-0.8296,-0.140544,0.226432,16.8525,25.82125,-13.74625,20.392,-20.856,10.608001,none,4,3.0,41483.0,209712.0,92995.0,206173.0,104756.0
2026-04-14 17:22:54.271697,252947,1609504867915098,2467885045,-0.8296,-0.140544,0.226432,11.82125,26.241251,-12.46,20.392,-20.856,10.608001,none,4,3.0,41483.0,209712.0,92995.0,206173.0,104756.0
2026-04-14 17:22:54.272110,252948,1609504867924001,2467893734,-0.856928,-0.23424,0.128832,4.0075,27.57125,-7.83125,21.008001,-20.632002,10.464001,none,4,3.0,41483.0,209712.0,92995.0,206173.0,104756.0
2026-04-14 17:22:54.276759,252949,1609504867932964,2467902394,-0.856928,-0.23424,0.128832,-2.59,28.647501,-5.08375,21.008001,-20.632002,10.464001,none,4,3.0,41483.0,209712.0,92995.0,206173.0,104756.0
2026-04-14 17:22:54.277220,252950,1609504867947410,2467917286,-0.9272,-0.245952,0.142496,-5.76625,32.4975,-0.105,21.248001,-20.848001,9.928,none,4,3.0,41483.0,209712.0,92995.0,206173.0,104756.0
2026-04-14 17:22:54.279564,252951,1609504867956336,2467925985,-0.9272,-0.245952,0.142496,-1.93375,38.5175,-0.14875,21.248001,-20.848001,9.928,none,4,3.0,41483.0,209712.0,92995.0,206173.0,104756.0
2026-04-14 17:22:54.282702,252952,1609504867970811,2467940869,-0.989664,-0.191296,0.355264,2.38875,41.7025,0.79625,21.344002,-20.76,11.056001,none,4,3.0,41483.0,209712.0,92995.0,206173.0,104756.0
2026-04-14 17:22:54.284926,252953,1609504867979757,2467949574,-1.077504,-0.267424,0.290848,4.61125,42.84875,4.8475,21.592001,-20.672,8.344001,none,4,3.0,41483.0,209712.0,92995.0,206173.0,104756.0
2026-04-14 17:22:54.314747,252964,1609504867995020,2467964804,-1.077504,-0.267424,0.290848,7.56,43.18125,5.20625,21.592001,-20.672,8.344001,none,4,3.0,37649.0,203038.0,86276.0,200687.0,97355.0
2026-04-14 17:22:54.317820,252965,1609504868003975,2467973535,-1.22,-0.324032,0.144448,5.4425,39.83875,5.075,21.960001,-20.960001,8.744,none,4,3.0,37649.0,203038.0,86276.0,200687.0,97355.0
2026-04-14 17:22:54.320331,252966,1609504868012894,2467982238,-1.22,-0.324032,0.144448,9.23125,34.90375,10.40375,21.960001,-20.960001,8.744,none,4,3.0,37649.0,203038.0,86276.0,200687.0,97355.0
2026-04-14 17:22:54.322831,252967,1609504868027404,2467997216,-1.19072,-0.357216,0.363072,22.56625,30.66875,9.1525,21.792002,-21.28,8.768001,none,4,3.0,37649.0,203038.0,86276.0,200687.0,97355.0
2026-04-14 17:22:54.325338,252968,1609504868036342,2468005919,-1.19072,-0.357216,0.363072,37.1875,28.49,8.16375,21.792002,-21.28,8.768001,none,4,3.0,37649.0,203038.0,86276.0,200687.0,97355.0
2026-04-14 17:22:54.331103,252969,1609504868050921,2468020823,-1.097024,-0.222528,0.35136,51.94,27.69375,8.33,21.744001,-21.464,7.976,none,4,3.0,37649.0,203038.0,86276.0,200687.0,97355.0
2026-04-14 17:22:54.338583,252970,1609504868059818,2468029490,-0.972096,-0.11712,0.232288,58.70375,27.27375,10.99875,21.896002,-21.872002,6.832,none,4,3.0,37649.0,203038.0,86276.0,200687.0,97355.0
2026-04-14 17:22:54.346581,252971,1609504868068755,2468038279,-0.972096,-0.11712,0.232288,57.4525,26.985,12.29375,21.896002,-21.872002,6.832,none,4,3.0,37649.0,203038.0,86276.0,200687.0,97355.0
2026-04-14 17:22:54.361589,252972,1609504868083239,2468053153,-0.98576,-0.124928,0.046848,50.89,25.585001,10.7275,22.056002,-21.968,6.096,none,4,3.0,37649.0,203038.0,86276.0,200687.0,97355.0
2026-04-14 17:22:54.393933,252983,1609504868092170,2468061858,-0.98576,-0.124928,0.046848,44.37125,24.00125,9.58125,22.056002,-21.968,6.096,none,4,3.0,37920.0,201075.0,86611.0,198117.0,97953.0
2026-04-14 17:22:54.398954,252984,1609504868107143,2468076827,-1.020896,-0.072224,0.232288,40.43375,22.3475,8.0325,21.952002,-22.472,5.520001,none,4,3.0,37920.0,201075.0,86611.0,198117.0,97953.0
2026-04-14 17:22:54.401393,252985,1609504868116114,2468085547,-1.020896,-0.072224,0.232288,40.1625,20.71125,4.8125,21.952002,-22.472,5.520001,none,4,3.0,37920.0,201075.0,86611.0,198117.0,97953.0
2026-04-14 17:22:54.403502,252986,1609504868125063,2468094241,-1.100928,-0.021472,0.160064,39.5675,19.64375,1.435,21.936,-22.368002,5.424,none,4,3.0,37920.0,201075.0,86611.0,198117.0,97953.0
2026-04-14 17:22:54.417729,252987,1609504868139541,2468109161,-1.057984,-0.076128,0.06832,37.80875,18.27,-1.46125,21.648,-22.12,5.352,none,4,3.0,37920.0,201075.0,86611.0,198117.0,97953.0
2026-04-14 17:22:54.425349,252988,1609504868148519,2468117906,-1.057984,-0.076128,0.06832,33.4075,16.397501,-5.74,21.648,-22.12,5.352,none,4,3.0,37920.0,201075.0,86611.0,198117.0,97953.0
2026-04-14 17:22:54.442455,252989,1609504868163036,2468132816,-1.120448,-0.062464,0.148352,25.3225,14.90125,-7.7175,21.68,-22.800001,4.432,none,4,3.0,37920.0,201075.0,86611.0,198117.0,97953.0
2026-04-14 17:22:54.450336,252990,1609504868171934,2468141484,-1.120448,-0.062464,0.148352,15.61875,12.97625,-11.48875,21.68,-22.800001,4.432,none,4,3.0,37920.0,201075.0,86611.0,198117.0,97953.0
2026-04-14 17:22:54.466486,252991,1609504868186445,2468156343,-1.163392,-0.076128,-0.10736,9.065,10.0625,-11.82125,22.096,-22.256,4.872,none,4,3.0,37920.0,201075.0,86611.0,198117.0,97953.0
2026-04-14 17:22:54.496677,253002,1609504868195427,2468165095,-1.163392,-0.076128,-0.10736,2.65125,10.05375,-10.36,22.096,-22.256,4.872,none,4,3.0,35415.0,192540.0,82293.0,190572.0,92971.0
2026-04-14 17:22:54.501907,253003,1609504868204469,2468173889,-1.177056,-0.093696,-0.119072,-3.43,8.0675,-10.71,22.568,-21.912,4.48,none,3,3.0,35415.0,192540.0,82293.0,190572.0,92971.0
2026-04-14 17:22:54.503501,253004,1609504868219003,2468188829,-1.177056,-0.093696,0.072224,-6.53625,6.6325,-11.13,22.568,-21.912,4.48,none,3,3.0,35415.0,192540.0,82293.0,190572.0,92971.0
2026-04-14 17:22:54.505921,253005,1609504868227996,2468197528,-1.134112,-0.060512,0.072224,-9.135,5.6175,-10.6225,23.192001,-22.384,2.712,none,3,3.0,35415.0,192540.0,82293.0,190572.0,92971.0
2026-04-14 17:22:54.521562,253006,1609504868242533,2468212450,-1.169248,-0.081984,-0.177632,-11.75125,3.57875,-8.68,22.44,-21.784,5.496,none,3,3.0,35415.0,192540.0,82293.0,190572.0,92971.0
2026-04-14 17:22:54.553532,253007,1609504868251436,2468221136,-1.169248,-0.081984,-0.177632,-15.44375,2.89625,-7.9975,22.44,-21.784,5.496,none,3,3.0,35415.0,192540.0,82293.0,190572.0,92971.0
2026-04-14 17:22:54.556005,253008,1609504868265898,2468235995,-1.079456,-0.062464,0.001952,-21.18375,0.7525,-7.4375,22.2,-21.632002,5.696,none,3,3.0,35415.0,192540.0,82293.0,190572.0,92971.0
2026-04-14 17:22:54.559221,253009,1609504868274838,2468244653,-1.079456,-0.062464,0.001952,-26.075,-1.225,-2.14375,22.2,-21.632002,5.696,none,3,3.0,35415.0,192540.0,82293.0,190572.0,92971.0
2026-04-14 17:22:54.583952,253010,1609504868283758,2468253354,-1.159488,-0.089792,-0.138592,-27.2125,-1.89875,-3.63125,22.568,-21.480001,5.520001,none,3,3.0,35415.0,192540.0,82293.0,190572.0,92971.0
2026-04-14 17:22:54.659789,253021,1609504868298383,2468268512,-1.159488,-0.089792,-0.138592,-31.99,-1.88125,-7.49875,22.568,-21.480001,5.520001,none,3,3.0,34945.0,192709.0,81541.0,191298.0,91915.0
2026-04-14 17:22:54.661083,253022,1609504868307330,2468277194,-1.036512,-0.025376,0.060512,-34.615,-5.7225,-0.455,22.28,-21.008001,5.816001,none,3,3.0,34945.0,192709.0,81541.0,191298.0,91915.0
2026-04-14 17:22:54.663525,253023,1609504868321851,2468292066,-1.069696,-0.085888,0.103456,-38.7625,-0.455,-0.5775,22.28,-20.776001,7.544,none,3,3.0,34945.0,192709.0,81541.0,191298.0,91915.0
2026-04-14 17:22:54.671365,253024,1609504868330772,2468300722,-1.069696,-0.085888,0.103456,-38.5175,-3.57,-3.84125,22.28,-20.776001,7.544,none,3,3.0,34945.0,192709.0,81541.0,191298.0,91915.0
2026-04-14 17:22:54.671541,253025,1609504868345299,2468315590,-1.056032,-0.05856,0.03904,-40.565,-2.555,-1.89875,21.76,-21.224,7.872,none,3,3.0,34945.0,192709.0,81541.0,191298.0,91915.0
2026-04-14 17:22:54.671651,253026,1609504868354219,2468324302,-1.056032,-0.05856,0.03904,-47.985,-3.38625,0.56,21.76,-21.224,7.872,none,3,3.0,34945.0,192709.0,81541.0,191298.0,91915.0
2026-04-14 17:22:54.673661,253027,1609504868363132,2468332991,-1.095072,-0.081984,-0.01952,-50.47875,-5.88875,-0.385,21.624,-20.640001,7.344,none,3,3.0,34945.0,192709.0,81541.0,191298.0,91915.0
2026-04-14 17:22:54.676164,253028,1609504868377629,2468347888,-1.095072,-0.081984,-0.01952,-50.4,-5.80125,3.94625,21.624,-20.640001,7.344,none,3,3.0,34945.0,192709.0,81541.0,191298.0,91915.0
2026-04-14 17:22:54.678560,253029,1609504868386617,2468356601,-1.08336,-0.163968,-0.218624,-52.22875,-5.4075,4.69875,22.568,-20.728,7.704001,none,3,3.0,34945.0,192709.0,81541.0,191298.0,91915.0
2026-04-14 17:22:54.706297,253040,1609504868401170,2468369558,-1.067744,-0.121024,-0.222528,-53.357502,-6.7375,1.91625,22.000002,-20.512001,9.432,none,3,3.0,34971.0,196135.0,81642.0,195250.0,91539.0
2026-04-14 17:22:54.708675,253041,1609504868410562,2468380389,-1.067744,-0.121024,-0.222528,-54.43375,-10.6925,5.145,22.000002,-20.512001,9.432,none,3,3.0,34971.0,196135.0,81642.0,195250.0,91539.0
2026-04-14 17:22:54.711266,253042,1609504868419599,2468389143,-1.067744,-0.121024,-0.222528,-55.947502,-8.89875,2.5725,22.000002,-20.512001,9.432,none,3,3.0,34971.0,196135.0,81642.0,195250.0,91539.0
2026-04-14 17:22:54.713867,253043,1609504868434102,2468404041,-1.136064,-0.070272,-0.144448,-54.25875,-10.9025,5.50375,22.328001,-20.664001,11.160001,none,3,3.0,34971.0,196135.0,81642.0,195250.0,91539.0
2026-04-14 17:22:54.720077,253044,1609504868443119,2468412741,-1.165344,-0.062464,-0.216672,-54.64375,-10.605001,6.13375,22.136002,-20.128,8.352,none,3,3.0,34971.0,196135.0,81642.0,195250.0,91539.0
2026-04-14 17:22:54.737499,253045,1609504868457596,2468427632,-1.165344,-0.062464,-0.216672,-56.6125,-13.22125,7.6125,22.136002,-20.128,8.352,none,3,3.0,34971.0,196135.0,81642.0,195250.0,91539.0
2026-04-14 17:22:54.745025,253046,1609504868466507,2468436341,-1.110688,-0.074176,0.02928,-54.95,-14.44625,7.69125,22.400002,-20.320002,8.96,none,3,3.0,34971.0,196135.0,81642.0,195250.0,91539.0
2026-04-14 17:22:54.760657,253047,1609504868481004,2468451234,-1.110688,-0.128832,-0.10736,-59.35125,-16.8525,8.18125,22.400002,-20.320002,8.96,none,3,3.0,34971.0,196135.0,81642.0,195250.0,91539.0
2026-04-14 17:22:54.767381,253048,1609504868489935,2468459952,-1.208288,-0.128832,-0.10736,-64.67125,-17.675,13.0375,22.688002,-20.288,9.672001,none,3,3.0,34971.0,196135.0,81642.0,195250.0,91539.0
2026-04-14 17:22:54.826591,253059,1609504868498934,2468468746,-1.208288,-0.128832,-0.10736,-61.27625,-16.65125,8.35625,22.688002,-20.288,9.672001,none,3,3.0,33131.0,192070.0,78439.0,193177.0,87796.0
2026-04-14 17:22:54.828709,253060,1609504868513480,2468483645,-1.19072,-0.046848,-0.031232,-57.3125,-17.52625,9.52,22.392,-19.896002,10.320001,none,3,3.0,33131.0,192070.0,78439.0,193177.0,87796.0
2026-04-14 17:22:54.830998,253061,1609504868522390,2468492361,-1.114592,-0.134688,-0.056608,-62.23,-16.975,14.11375,22.208,-19.624,11.704,none,3,3.0,33131.0,192070.0,78439.0,193177.0,87796.0
2026-04-14 17:22:54.834105,253062,1609504868536788,2468505196,-1.114592,-0.134688,-0.056608,-65.03,-19.52125,12.495,22.208,-19.624,11.704,none,3,3.0,33131.0,192070.0,78439.0,193177.0,87796.0
2026-04-14 17:22:54.836597,253063,1609504868546049,2468515989,-1.0736,-0.124928,-0.080032,-62.23,-20.02875,14.00875,21.936,-19.504002,11.024,none,3,3.0,33131.0,192070.0,78439.0,193177.0,87796.0
2026-04-14 17:22:54.840382,253064,1609504868560575,2468530896,-1.0736,-0.124928,-0.080032,-61.67875,-19.18875,16.31,21.936,-19.504002,11.024,none,3,3.0,33131.0,192070.0,78439.0,193177.0,87796.0
2026-04-14 17:22:54.849764,253065,1609504868569512,2468539598,-1.157536,-0.066368,-0.105408,-64.015,-19.52125,17.63125,21.656,-19.336,11.72,none,3,3.0,33131.0,192070.0,78439.0,193177.0,87796.0
2026-04-14 17:22:54.856398,253066,1609504868578510,2468548341,-1.157536,-0.066368,-0.105408,-67.22625,-19.285,19.4075,21.656,-19.336,11.72,none,3,3.0,33131.0,192070.0,78439.0,193177.0,87796.0
2026-04-14 17:22:54.872715,253067,1609504868593012,2468563221,-1.110688,-0.06832,0.060512,-69.43125,-19.5475,20.755,21.232,-18.824001,12.112,none,3,3.0,33131.0,192070.0,78439.0,193177.0,87796.0
2026-04-14 17:22:54.945626,253078,1609504868602026,2468571965,-1.13216,-0.080032,-0.011712,-70.035,-18.55875,21.0,21.232,-18.824001,11.448001,none,3,3.0,32559.0,190093.0,77323.0,191916.0,86504.0
2026-04-14 17:22:54.960199,253079,1609504868616536,2468586880,-1.13216,-0.080032,-0.011712,-70.13125,-17.99,21.27125,20.272001,-18.248001,11.448001,none,3,3.0,32559.0,190093.0,77323.0,191916.0,86504.0
2026-04-14 17:22:54.962701,253080,1609504868625462,2468595602,-1.038464,-0.109312,-0.011712,-67.0075,-17.7275,21.49875,20.048,-18.088001,14.616001,none,3,3.0,32559.0,190093.0,77323.0,191916.0,86504.0
2026-04-14 17:22:54.964856,253081,1609504868634377,2468604281,-1.038464,-0.109312,-0.011712,-60.27,-17.03625,19.48625,20.048,-18.088001,14.616001,none,3,3.0,32559.0,190093.0,77323.0,191916.0,86504.0
2026-04-14 17:22:54.967724,253082,1609504868648846,2468619166,-1.15168,0.064416,-0.134688,-57.82875,-16.33625,17.43875,19.592001,-17.704,13.880001,none,3,3.0,32559.0,190093.0,77323.0,191916.0,86504.0
2026-04-14 17:22:54.970224,253083,1609504868657815,2468627910,-1.15168,0.064416,-0.134688,-70.1225,-17.22,19.5475,19.592001,-17.704,13.880001,none,3,3.0,32559.0,190093.0,77323.0,191916.0,86504.0
2026-04-14 17:22:54.972730,253084,1609504868672312,2468640746,-1.079456,-0.16592,-0.158112,-67.06875,-16.59,16.2925,20.400002,-17.976002,14.400001,none,3,3.0,32559.0,190093.0,77323.0,191916.0,86504.0
2026-04-14 17:22:54.974806,253085,1609504868681549,2468651504,-1.079456,-0.16592,-0.158112,-57.00625,-17.745,10.19375,20.400002,-17.976002,14.400001,none,3,3.0,32559.0,190093.0,77323.0,191916.0,86504.0
2026-04-14 17:22:55.002856,253096,1609504868696357,2468666729,-1.038464,-0.070272,-0.052704,-49.21875,-17.73625,12.78375,20.368,-17.568,14.784,none,3,3.0,31793.0,186198.0,76055.0,189340.0,84859.0
2026-04-14 17:22:55.005226,253097,1609504868705385,2468675509,-1.114592,-0.013664,0.060512,-47.3375,-16.9575,16.47625,20.008001,-17.2,15.472001,none,3,3.0,31793.0,186198.0,76055.0,189340.0,84859.0
2026-04-14 17:22:55.007845,253098,1609504868714318,2468684151,-1.114592,-0.013664,0.060512,-54.66125,-15.995,12.32,20.008001,-17.2,15.472001,none,3,3.0,31793.0,186198.0,76055.0,189340.0,84859.0
2026-04-14 17:22:55.010001,253099,1609504868728803,2468699074,-1.100928,-0.080032,0.037088,-58.9575,-16.40625,12.67875,19.720001,-17.088001,15.896001,none,3,3.0,31793.0,186198.0,76055.0,189340.0,84859.0
2026-04-14 17:22:55.017859,253100,1609504868737859,2468707782,-1.100928,-0.080032,0.037088,-60.85625,-15.54,9.1875,19.720001,-17.088001,15.896001,none,3,3.0,31793.0,186198.0,76055.0,189340.0,84859.0
2026-04-14 17:22:55.031346,253101,1609504868752366,2468722667,-1.114592,-0.060512,-0.081984,-58.7825,-16.8,10.03625,18.816,-16.848001,16.400002,none,3,3.0,31793.0,186198.0,76055.0,189340.0,84859.0
2026-04-14 17:22:55.039106,253102,1609504868761364,2468731372,-1.114592,-0.060512,-0.081984,-55.7025,-13.25625,11.75125,18.816,-16.848001,16.400002,none,3,3.0,31793.0,186198.0,76055.0,189340.0,84859.0
2026-04-14 17:22:55.047428,253103,1609504868770290,2468740102,-1.085312,-0.037088,0.062464,-54.215,-12.34625,9.292501,19.352001,-16.088001,17.464,none,3,3.0,31793.0,186198.0,76055.0,189340.0,84859.0
2026-04-14 17:22:55.063789,253104,1609504868784783,2468754972,-1.036512,-0.037088,0.011712,-53.26125,-11.47125,8.47,19.184,-16.072,17.104,none,3,3.0,31793.0,186198.0,76055.0,189340.0,84859.0
2026-04-14 17:22:55.072455,253105,1609504868793707,2468763639,-1.036512,-0.037088,0.011712,-54.04875,-12.27625,7.48125,19.184,-16.072,17.104,none,3,3.0,31793.0,186198.0,76055.0,189340.0,84859.0
2026-04-14 17:22:55.100030,253116,1609504868808341,2468778636,-1.018944,-0.066368,0.017568,-59.3425,-14.35875,6.3,19.072,-15.056001,18.696001,none,3,3.0,31601.0,185376.0,75717.0,188869.0,84485.0
2026-04-14 17:22:55.102364,253117,1609504868817277,2468787370,-1.018944,-0.066368,0.017568,-61.4425,-15.4525,6.13375,19.072,-15.056001,18.696001,none,3,3.0,31601.0,185376.0,75717.0,188869.0,84485.0
2026-04-14 17:22:55.108790,253118,1609504868831787,2468800251,-1.11264,-0.070272,-0.121024,-59.22,-15.26,4.3925,18.152,-14.616001,19.232,none,3,3.0,31601.0,185376.0,75717.0,188869.0,84485.0
2026-04-14 17:22:55.120949,253119,1609504868841125,2468811016,-1.11264,-0.070272,-0.121024,-57.6275,-14.81375,3.2725,18.152,-14.616001,19.232,none,3,3.0,31601.0,185376.0,75717.0,188869.0,84485.0
2026-04-14 17:22:55.128878,253120,1609504868850093,2468819702,-1.042368,-0.105408,0.11712,-56.56,-14.245,1.77625,18.024,-14.416,19.432001,none,3,3.0,31601.0,185376.0,75717.0,188869.0,84485.0
2026-04-14 17:22:55.143653,253121,1609504868864580,2468834563,-1.077504,-0.138592,-0.103456,-51.96625,-14.035,-0.1225,18.416,-13.832001,20.832,none,3,3.0,31601.0,185376.0,75717.0,188869.0,84485.0
2026-04-14 17:22:55.151207,253122,1609504868873505,2468843255,-1.077504,-0.138592,-0.103456,-46.40125,-14.30625,-0.8225,18.416,-13.832001,20.832,none,3,3.0,31601.0,185376.0,75717.0,188869.0,84485.0
2026-04-14 17:22:55.166179,253123,1609504868887964,2468858127,-1.098976,-0.07808,0.060512,-41.72875,-14.04375,-0.86625,18.616001,-13.8,19.112001,none,3,3.0,31601.0,185376.0,75717.0,188869.0,84485.0
2026-04-14 17:22:55.198769,253134,1609504868897354,2468866841,-1.098976,-0.07808,0.060512,-38.482502,-14.2625,-0.525,18.616001,-13.8,19.112001,none,3,3.0,31878.0,186980.0,76148.0,190048.0,85005.0
2026-04-14 17:22:55.201307,253135,1609504868906363,2468875620,-1.10288,-0.072224,0.052704,-36.37375,-13.97375,-1.7675,18.392,-13.568001,19.312,none,3,3.0,31878.0,186980.0,76148.0,190048.0,85005.0
2026-04-14 17:22:55.203800,253136,1609504868920919,2468890689,-1.10288,-0.072224,0.052704,-34.51,-15.26875,-2.835,18.392,-13.568001,19.312,none,3,3.0,31878.0,186980.0,76148.0,190048.0,85005.0
2026-04-14 17:22:55.207603,253137,1609504868929874,2468899413,-1.130208,-0.115168,-0.083936,-32.97,-15.61,-2.59875,18.240002,-13.6,19.792002,none,3,3.0,31878.0,186980.0,76148.0,190048.0,85005.0
2026-04-14 17:22:55.223731,253138,1609504868944366,2468914290,-1.040416,-0.142496,0.171776,-32.1825,-17.57875,-3.01,18.240002,-13.048,21.000002,none,3,3.0,31878.0,186980.0,76148.0,190048.0,85005.0
2026-04-14 17:22:55.233693,253139,1609504868953295,2468922999,-1.040416,-0.142496,0.171776,-28.49875,-18.06875,-4.5675,17.488,-13.048,21.000002,none,3,3.0,31878.0,186980.0,76148.0,190048.0,85005.0
2026-04-14 17:22:55.244966,253140,1609504868967776,2468937889,-1.056032,-0.12688,0.027328,-21.4025,-15.5225,-5.90625,17.936,-13.032001,20.048,none,3,3.0,31878.0,186980.0,76148.0,190048.0,85005.0
2026-04-14 17:22:55.255350,253141,1609504868976775,2468946569,-1.056032,-0.12688,0.027328,-13.877501,-12.18,-6.5975,17.936,-13.032001,20.048,none,3,3.0,31878.0,186980.0,76148.0,190048.0,85005.0
2026-04-14 17:22:55.291649,253142,1609504868985710,2468955276,-1.095072,-0.093696,-0.040992,-9.05625,-9.8875,-6.20375,16.912,-12.120001,21.848001,none,3,3.0,31878.0,186980.0,76148.0,190048.0,85005.0
2026-04-14 17:22:55.363685,253153,1609504869000649,2468970381,-1.095072,-0.093696,-0.040992,-8.9775,-9.9925,-5.5475,16.912,-12.120001,21.848001,none,3,3.0,31371.0,185839.0,75192.0,188795.0,83892.0
2026-04-14 17:22:55.366598,253154,1609504869009621,2468979074,-1.124352,-0.066368,0.080032,-11.61125,-10.21125,-5.5825,17.792002,-12.192,21.528002,none,3,3.0,31371.0,185839.0,75192.0,188795.0,83892.0
2026-04-14 17:22:55.368545,253155,1609504869024137,2468993957,-1.124352,-0.066368,0.02928,-14.2625,-11.41875,-7.56,17.792002,-12.192,21.528002,none,3,3.0,31371.0,185839.0,75192.0,188795.0,83892.0
2026-04-14 17:22:55.371042,253156,1609504869033041,2469002664,-1.198528,-0.093696,0.02928,-20.3,-11.64625,-10.84125,16.672,-12.056001,23.704,none,3,3.0,31371.0,185839.0,75192.0,188795.0,83892.0
2026-04-14 17:22:55.373636,253157,1609504869042051,2469011351,-1.198528,-0.093696,0.02928,-26.15375,-12.6175,-13.9125,16.672,-12.056001,23.704,none,3,3.0,31371.0,185839.0,75192.0,188795.0,83892.0
2026-04-14 17:22:55.376626,253158,1609504869056512,2469026270,-1.173152,-0.160064,0.07808,-28.69125,-14.04375,-14.0525,16.616001,-11.712001,21.912,none,3,3.0,31371.0,185839.0,75192.0,188795.0,83892.0
2026-04-14 17:22:55.379096,253159,1609504869065405,2469034933,-1.067744,-0.210816,-0.025376,-28.2625,-15.07625,-11.06875,16.504002,-11.376,22.064001,none,3,3.0,31371.0,185839.0,75192.0,188795.0,83892.0
2026-04-14 17:22:55.381197,253160,1609504869079886,2469049810,-1.067744,-0.210816,-0.025376,-28.16625,-13.0375,-7.93625,16.504002,-11.376,22.064001,none,3,3.0,31371.0,185839.0,75192.0,188795.0,83892.0
2026-04-14 17:22:55.384027,253161,1609504869088864,2469058560,-1.09312,-0.11712,0.072224,-32.55875,-12.1975,-4.375,16.192001,-11.176001,22.984001,none,3,3.0,31371.0,185839.0,75192.0,188795.0,83892.0
2026-04-14 17:22:55.415566,253172,1609504869103540,2469073554,-1.09312,-0.11712,0.072224,-37.345,-11.480001,-0.175,16.192001,-11.176001,22.984001,none,3,3.0,31948.0,188715.0,76037.0,189992.0,85053.0
2026-04-14 17:22:55.415743,253173,1609504869112578,2469082275,-1.009184,-0.089792,0.179584,-41.982502,-10.29875,0.28875,15.480001,-10.440001,23.320002,none,3,3.0,31948.0,188715.0,76037.0,189992.0,85053.0
2026-04-14 17:22:55.415820,253174,1609504869121644,2469091027,-1.009184,-0.089792,0.179584,-47.6525,-10.167501,2.96625,15.480001,-10.440001,23.320002,none,3,3.0,31948.0,188715.0,76037.0,189992.0,85053.0
2026-04-14 17:22:55.418396,253175,1609504869136195,2469105950,-0.940864,-0.138592,-0.025376,-53.01625,-8.26,1.645,15.400001,-9.576,23.688002,none,3,3.0,31948.0,188715.0,76037.0,189992.0,85053.0
2026-04-14 17:22:55.422378,253176,1609504869145143,2469114658,-0.940864,-0.076128,0.011712,-57.09375,-9.3275,-0.9975,15.400001,-9.576,23.688002,none,3,3.0,31948.0,188715.0,76037.0,189992.0,85053.0
2026-04-14 17:22:55.453220,253177,1609504869159586,2469129522,-1.013088,-0.07808,0.011712,-59.78,-10.01875,-1.75875,15.56,-8.976001,22.944,none,3,3.0,31948.0,188715.0,76037.0,189992.0,85053.0
2026-04-14 17:22:55.455351,253178,1609504869168504,2469138185,-0.94672,-0.138592,0.023424,-60.68125,-10.9375,-5.3375,16.656,-9.0,22.352001,none,3,3.0,31948.0,188715.0,76037.0,189992.0,85053.0
2026-04-14 17:22:55.462858,253179,1609504869182976,2469153059,-0.94672,-0.138592,0.023424,-62.0375,-12.32,-5.62625,16.656,-9.0,22.352001,none,3,3.0,31948.0,188715.0,76037.0,189992.0,85053.0
2026-04-14 17:22:55.470363,253180,1609504869191899,2469161765,-1.026752,-0.10736,0.083936,-60.7775,-12.005,-4.48,16.776001,-8.488001,22.912,none,3,3.0,31948.0,188715.0,76037.0,189992.0,85053.0
2026-04-14 17:22:55.499846,253191,1609504869201022,2469170479,-1.026752,-0.10736,0.083936,-57.93375,-12.10125,-6.6325,16.776001,-8.488001,22.912,none,3,3.0,32442.0,189778.0,76828.0,190215.0,86072.0
2026-04-14 17:22:55.502313,253192,1609504869215623,2469185413,-1.020896,-0.154208,0.005856,-55.335,-12.7225,-7.6825,16.336,-7.2,24.152,none,3,3.0,32442.0,189778.0,76828.0,190215.0,86072.0
2026-04-14 17:22:55.506071,253193,1609504869224584,2469194114,-1.020896,-0.154208,0.005856,-55.51875,-12.2325,-7.14,16.336,-7.2,24.152,none,3,3.0,32442.0,189778.0,76828.0,190215.0,86072.0
2026-04-14 17:22:55.517702,253194,1609504869239053,2469209012,-1.022848,-0.144448,0.275232,-56.6475,-11.515,-6.58,15.56,-6.744,25.640001,none,3,3.0,32442.0,189778.0,76828.0,190215.0,86072.0
2026-04-14 17:22:55.527705,253195,1609504869248028,2469217703,-1.011136,-0.22448,0.281088,-57.77625,-10.87625,-6.85125,15.752001,-5.848,26.344002,none,3,3.0,32442.0,189778.0,76828.0,190215.0,86072.0
2026-04-14 17:22:55.540316,253196,1609504869262525,2469232526,-1.011136,-0.22448,0.281088,-54.4075,-10.07125,-7.13125,15.752001,-5.848,26.344002,none,3,3.0,32442.0,189778.0,76828.0,190215.0,86072.0
2026-04-14 17:22:55.550268,253197,1609504869271472,2469241221,-1.108736,-0.222528,0.105408,-43.39125,-9.45875,-8.56625,16.024,-5.776001,23.28,none,3,3.0,32442.0,189778.0,76828.0,190215.0,86072.0
2026-04-14 17:22:55.558707,253198,1609504869280482,2469249902,-1.108736,-0.222528,0.105408,-32.2875,-8.14625,-5.04875,16.024,-5.776001,23.28,none,3,3.0,32442.0,189778.0,76828.0,190215.0,86072.0
2026-04-14 17:22:55.573591,253199,1609504869295017,2469264839,-1.081408,-0.18544,0.279136,-23.52875,-6.74625,-3.15875,16.36,-5.56,24.68,none,3,3.0,32442.0,189778.0,76828.0,190215.0,86072.0
2026-04-14 17:22:55.601194,253210,1609504869304066,2469273706,-1.081408,-0.18544,0.279136,-17.22875,-5.1275,-4.9175,16.36,-5.56,24.68,none,3,3.0,31131.0,186794.0,74352.0,187659.0,83335.0
2026-04-14 17:22:55.605694,253211,1609504869318598,2469288698,-1.120448,-0.228384,0.142496,-13.30875,-6.3,-8.26875,16.2,-5.536,23.720001,none,3,3.0,31131.0,186794.0,74352.0,187659.0,83335.0
2026-04-14 17:22:55.605861,253212,1609504869327493,2469297369,-1.022848,-0.226432,0.226432,-8.49625,-6.4925,-5.17125,16.128,-5.344,22.44,none,3,3.0,31131.0,186794.0,74352.0,187659.0,83335.0
2026-04-14 17:22:55.614837,253213,1609504869336458,2469306063,-1.022848,-0.226432,0.226432,-4.45375,-5.915,-4.94375,16.128,-5.344,22.44,none,3,3.0,31131.0,186794.0,74352.0,187659.0,83335.0
2026-04-14 17:22:55.628973,253214,1609504869350965,2469321002,-1.081408,-0.238144,0.197152,-4.15625,-6.04625,-8.42625,16.112001,-5.408001,23.464,none,3,3.0,31131.0,186794.0,74352.0,187659.0,83335.0
2026-04-14 17:22:55.654829,253215,1609504869359878,2469329679,-1.081408,-0.238144,0.197152,-6.50125,-6.2825,-9.292501,16.112001,-5.408001,23.464,none,3,3.0,31131.0,186794.0,74352.0,187659.0,83335.0
2026-04-14 17:22:55.662319,253216,1609504869374385,2469344583,-1.075552,-0.269376,0.122976,-11.12125,-7.8925,-9.7475,15.296001,-4.952,24.416,none,3,3.0,31131.0,186794.0,74352.0,187659.0,83335.0
2026-04-14 17:22:55.664745,253217,1609504869383299,2469353280,-1.075552,-0.269376,0.122976,-16.07375,-10.36875,-11.27875,15.296001,-4.952,24.416,none,3,3.0,31131.0,186794.0,74352.0,187659.0,83335.0
2026-04-14 17:22:55.696502,253218,1609504869397779,2469366142,-1.108736,-0.255712,0.105408,-17.5175,-10.87625,-12.775,15.072001,-4.464,24.832,none,3,3.0,31131.0,186794.0,74352.0,187659.0,83335.0
2026-04-14 17:22:55.721448,253229,1609504869406979,2469376924,-1.108736,-0.240096,0.177632,-15.12875,-11.22625,-12.97625,15.072001,-4.464,26.880001,none,3,3.0,31331.0,188119.0,74529.0,187906.0,83612.0
2026-04-14 17:22:55.723934,253230,1609504869415902,2469385571,-1.05408,-0.240096,0.177632,-11.76875,-12.0925,-12.03125,15.432001,-4.304,27.224,none,3,3.0,31331.0,188119.0,74529.0,187906.0,83612.0
2026-04-14 17:22:55.726444,253231,1609504869430503,2469400483,-1.087264,-0.18544,0.160064,-8.61875,-12.83625,-11.36625,14.400001,-4.024,24.792002,none,3,3.0,31331.0,188119.0,74529.0,187906.0,83612.0
2026-04-14 17:22:55.728962,253232,1609504869439442,2469409189,-1.087264,-0.18544,0.160064,-5.95875,-12.95,-11.1475,14.400001,-4.024,24.792002,none,3,3.0,31331.0,188119.0,74529.0,187906.0,83612.0
2026-04-14 17:22:55.730988,253233,1609504869454012,2469424096,-1.009184,-0.193248,0.212768,-4.73375,-12.4075,-10.815,14.656001,-4.016,24.208002,none,3,3.0,31331.0,188119.0,74529.0,187906.0,83612.0
2026-04-14 17:22:55.742767,253234,1609504869463069,2469432883,-1.009184,-0.193248,0.212768,-5.705,-11.9875,-11.7425,14.656001,-4.016,24.208002,none,3,3.0,31331.0,188119.0,74529.0,187906.0,83612.0
2026-04-14 17:22:55.756329,253235,1609504869477531,2469447754,-1.020896,-0.181536,0.236192,-7.76125,-11.59375,-12.6525,15.752001,-4.04,24.672,none,3,3.0,31331.0,188119.0,74529.0,187906.0,83612.0
2026-04-14 17:22:55.764955,253236,1609504869486487,2469456415,-1.020896,-0.181536,0.236192,-10.823751,-11.8825,-13.51875,15.752001,-4.04,24.672,none,3,3.0,31331.0,188119.0,74529.0,187906.0,83612.0
2026-04-14 17:22:55.772810,253237,1609504869495384,2469465114,-1.042368,-0.134688,0.306464,-11.62875,-12.60875,-13.895,14.960001,-3.72,26.6,none,3,3.0,31331.0,188119.0,74529.0,187906.0,83612.0
2026-04-14 17:22:55.801475,253248,1609504869509975,2469480141,-1.03456,-0.154208,0.160064,-11.5325,-13.09,-14.3325,13.504001,-3.584,26.136002,none,3,3.0,31385.0,187456.0,74514.0,186743.0,83727.0
2026-04-14 17:22:55.803609,253249,1609504869518907,2469488911,-1.03456,-0.154208,0.160064,-12.95,-14.1575,-14.9625,13.504001,-3.584,26.136002,none,3,3.0,31385.0,187456.0,74514.0,186743.0,83727.0
2026-04-14 17:22:55.811457,253250,1609504869533572,2469503815,-1.0248,-0.197152,0.208864,-17.5,-15.09375,-15.07625,13.200001,-3.248,25.352001,none,3,3.0,31385.0,187456.0,74514.0,186743.0,83727.0
2026-04-14 17:22:55.821572,253251,1609504869542515,2469512489,-1.0248,-0.197152,0.208864,-23.485,-15.86375,-14.945,13.200001,-3.248,25.352001,none,3,3.0,31385.0,187456.0,74514.0,186743.0,83727.0
2026-04-14 17:22:55.829900,253252,1609504869551457,2469521165,-0.997472,-0.222528,0.31232,-27.58,-16.5725,-14.60375,14.728001,-3.056,24.312,none,3,3.0,31385.0,187456.0,74514.0,186743.0,83727.0
2026-04-14 17:22:55.845325,253253,1609504869565989,2469536038,-0.997472,-0.222528,0.31232,-29.12,-16.51125,-13.18625,14.728001,-3.056,24.312,none,3,3.0,31385.0,187456.0,74514.0,186743.0,83727.0
2026-04-14 17:22:55.852525,253254,1609504869574933,2469544794,-1.071648,-0.222528,0.101504,-29.522501,-16.8875,-12.0225,14.792001,-2.696,24.576,none,3,3.0,31385.0,187456.0,74514.0,186743.0,83727.0
2026-04-14 17:22:55.867868,253255,1609504869589476,2469559692,-1.018944,-0.238144,0.111264,-28.69125,-16.7825,-10.36,14.408001,-1.976,24.448002,none,3,3.0,31385.0,187456.0,74514.0,186743.0,83727.0
2026-04-14 17:22:55.878767,253256,1609504869598381,2469568349,-1.018944,-0.238144,0.111264,-29.2775,-17.17625,-8.96,14.408001,-1.976,24.448002,none,3,3.0,31385.0,187456.0,74514.0,186743.0,83727.0
2026-04-14 17:22:55.905242,253267,1609504869612998,2469583325,-1.081408,-0.212768,0.085888,-30.30125,-18.31375,-7.77,13.464001,-1.832,26.072,none,3,3.0,31494.0,187633.0,74666.0,186843.0,83955.0
2026-04-14 17:22:55.907703,253268,1609504869622004,2469592016,-1.081408,-0.212768,0.085888,-30.625,-19.32,-6.64125,13.464001,-1.832,26.072,none,3,3.0,31494.0,187633.0,74666.0,186843.0,83955.0
2026-04-14 17:22:55.909827,253269,1609504869630935,2469600685,-1.013088,-0.236192,0.101504,-31.9375,-19.43375,-5.43375,13.128,-1.496,25.968,none,3,3.0,31494.0,187633.0,74666.0,186843.0,83955.0
2026-04-14 17:22:55.923686,253270,1609504869645447,2469615576,-1.013088,-0.236192,0.101504,-31.5175,-20.04625,-4.5675,13.128,-1.496,25.968,none,3,3.0,31494.0,187633.0,74666.0,186843.0,83955.0
2026-04-14 17:22:55.934077,253271,1609504869654531,2469624267,-1.038464,-0.173728,0.279136,-31.053751,-20.72,-3.64,13.688001,-1.048,25.256,none,3,3.0,31494.0,187633.0,74666.0,186843.0,83955.0
2026-04-14 17:22:55.947727,253272,1609504869668997,2469639156,-0.940864,-0.236192,0.171776,-32.36625,-20.78125,-3.57875,13.688001,-0.688,25.376001,none,3,3.0,31494.0,187633.0,74666.0,186843.0,83955.0
2026-04-14 17:22:55.957845,253273,1609504869677912,2469647818,-0.940864,-0.236192,0.171776,-33.85375,-21.035,-3.535,13.744,-0.688,25.376001,none,3,3.0,31494.0,187633.0,74666.0,186843.0,83955.0
2026-04-14 17:22:55.981056,253274,1609504869692418,2469662760,-0.974048,-0.201056,0.2928,-35.77875,-20.772501,-2.73,12.496,-0.368,26.688002,none,3,3.0,31494.0,187633.0,74666.0,186843.0,83955.0
2026-04-14 17:22:56.062468,253285,1609504869701692,2469672064,-0.974048,-0.201056,0.2928,-38.08875,-20.825,-2.52875,12.496,-0.368,26.688002,none,3,3.0,31308.0,186551.0,74484.0,186451.0,83697.0
2026-04-14 17:22:56.064816,253286,1609504869710672,2469680812,-0.964288,-0.22448,0.288896,-39.0425,-20.62375,-2.38,11.616,0.48,27.208002,none,3,3.0,31308.0,186551.0,74484.0,186451.0,83697.0
2026-04-14 17:22:56.094919,253287,1609504869725201,2469693667,-0.964288,-0.22448,0.288896,-39.29625,-21.69125,-2.3625,11.616,0.48,27.208002,none,3,3.0,31308.0,186551.0,74484.0,186451.0,83697.0
2026-04-14 17:22:56.097487,253288,1609504869734488,2469704461,-1.032608,-0.21472,0.124928,-38.96375,-22.89,-2.23125,11.072001,0.912,26.784,none,3,3.0,31308.0,186551.0,74484.0,186451.0,83697.0
2026-04-14 17:22:56.099994,253289,1609504869748947,2469717292,-1.032608,-0.261568,0.095648,-39.29625,-23.21375,-2.3975,11.072001,0.912,26.784,none,3,3.0,31308.0,186551.0,74484.0,186451.0,83697.0
2026-04-14 17:22:56.102527,253290,1609504869758078,2469728034,-1.036512,-0.259616,0.095648,-39.2525,-22.9775,-2.975,11.576,1.496,26.896002,none,3,3.0,31308.0,186551.0,74484.0,186451.0,83697.0
2026-04-14 17:22:56.105016,253291,1609504869766984,2469736691,-1.036512,-0.259616,0.095648,-40.06625,-22.75,-3.4475,11.576,1.496,26.896002,none,3,3.0,31308.0,186551.0,74484.0,186451.0,83697.0
2026-04-14 17:22:56.107347,253292,1609504869781425,2469751542,-0.96624,-0.277184,0.308416,-39.0425,-22.3825,-3.43875,11.376,2.008,27.04,none,3,3.0,31308.0,186551.0,74484.0,186451.0,83697.0
2026-04-14 17:22:56.109796,253293,1609504869790342,2469760313,-1.052128,-0.290848,0.042944,-36.085,-21.2275,-2.80875,11.104,1.784,24.904001,none,3,3.0,31308.0,186551.0,74484.0,186451.0,83697.0
2026-04-14 17:22:56.137509,253304,1609504869805360,2469775193,-1.052128,-0.290848,0.042944,-32.9525,-19.845,-3.03625,11.104,1.784,24.904001,none,3,3.0,30691.0,184928.0,73610.0,185961.0,82502.0
2026-04-14 17:22:56.142502,253305,1609504869814329,2469783850,-0.977952,-0.296704,0.187392,-30.7475,-19.13625,-2.7825,10.752001,1.84,26.192001,none,3,3.0,30691.0,184928.0,73610.0,185961.0,82502.0
2026-04-14 17:22:56.145030,253306,1609504869823244,2469792660,-0.977952,-0.296704,0.187392,-29.25125,-19.04,-1.8725,10.752001,1.84,26.192001,none,3,3.0,30691.0,184928.0,73610.0,185961.0,82502.0
2026-04-14 17:22:56.147607,253307,1609504869837831,2469807620,-1.009184,-0.316224,0.081984,-27.8425,-18.865,-2.03,11.216001,1.976,26.016,none,3,3.0,30691.0,184928.0,73610.0,185961.0,82502.0
2026-04-14 17:22:56.150028,253308,1609504869846762,2469816359,-1.009184,-0.316224,0.081984,-26.43375,-18.57625,-2.21375,11.216001,1.976,26.016,none,3,3.0,30691.0,184928.0,73610.0,185961.0,82502.0
2026-04-14 17:22:56.152509,253309,1609504869861260,2469831248,-1.04432,-0.337696,0.046848,-25.12125,-17.99,-2.23125,11.192,3.048,26.528002,none,3,3.0,30691.0,184928.0,73610.0,185961.0,82502.0
2026-04-14 17:22:56.156537,253310,1609504869870231,2469839941,-1.06384,-0.314272,0.218624,-23.625,-16.975,-2.23125,11.192,2.712,27.856,none,3,3.0,30691.0,184928.0,73610.0,185961.0,82502.0
2026-04-14 17:22:56.162110,253311,1609504869884732,2469854986,-1.06384,-0.314272,0.218624,-22.04125,-16.178751,-2.5725,10.808001,2.712,27.856,none,3,3.0,30691.0,184928.0,73610.0,185961.0,82502.0
2026-04-14 17:22:56.172414,253312,1609504869893682,2469863672,-1.081408,-0.308416,0.191296,-20.7025,-14.98875,-2.94,9.984,3.256,26.896002,none,3,3.0,30691.0,184928.0,73610.0,185961.0,82502.0
2026-04-14 17:22:56.206307,253323,1609504869902787,2469872405,-1.081408,-0.308416,0.191296,-18.27,-13.265,-3.21125,9.984,3.256,26.896002,none,3,3.0,30031.0,183478.0,72591.0,185761.0,81060.0
2026-04-14 17:22:56.208813,253324,1609504869917346,2469887344,-1.06384,-0.31232,0.062464,-16.485,-11.90875,-3.28125,8.856,3.736,27.080002,none,3,3.0,30031.0,183478.0,72591.0,185761.0,81060.0
2026-04-14 17:22:56.211276,253325,1609504869926261,2469896061,-1.06384,-0.31232,0.062464,-14.6475,-10.15875,-3.96375,8.856,3.736,27.080002,none,3,3.0,30031.0,183478.0,72591.0,185761.0,81060.0
2026-04-14 17:22:56.219791,253326,1609504869940780,2469910969,-0.958432,-0.300608,0.265472,-13.34375,-8.54,-4.6375,10.024,3.744,27.480001,none,3,3.0,30031.0,183478.0,72591.0,185761.0,81060.0
2026-04-14 17:22:56.230077,253327,1609504869949692,2469919643,-0.958432,-0.300608,0.265472,-12.74,-7.48125,-6.195,10.024,3.744,27.480001,none,3,3.0,30031.0,183478.0,72591.0,185761.0,81060.0
2026-04-14 17:22:56.243852,253328,1609504869964168,2469934500,-0.974048,-0.318176,0.07808,-11.97875,-6.4575,-6.95625,10.464001,3.824,26.52,none,3,3.0,30031.0,183478.0,72591.0,185761.0,81060.0
2026-04-14 17:22:56.251240,253329,1609504869973191,2469943265,-0.91744,-0.327936,0.169824,-10.5875,-5.46875,-8.2075,10.456,3.904,27.352001,none,3,3.0,30031.0,183478.0,72591.0,185761.0,81060.0
2026-04-14 17:22:56.259765,253330,1609504869982146,2469951945,-0.91744,-0.327936,0.169824,-9.31,-4.41,-9.5725,10.456,3.904,27.352001,none,3,3.0,30031.0,183478.0,72591.0,185761.0,81060.0
2026-04-14 17:22:56.274893,253331,1609504869996629,2469966808,-0.964288,-0.267424,0.300608,-6.965,-3.47375,-10.52625,9.944,4.12,26.856,none,3,3.0,30031.0,183478.0,72591.0,185761.0,81060.0
2026-04-14 17:22:56.308783,253342,1609504870006104,2469975789,-0.964288,-0.267424,0.300608,-3.99,-1.53125,-11.29625,9.944,4.12,26.856,none,3,3.0,30157.0,184300.0,72832.0,186417.0,81254.0
2026-04-14 17:22:56.311257,253343,1609504870020802,2469990733,-0.952576,-0.314272,0.085888,-1.65375,-0.25375,-12.45125,9.576,3.864,26.344002,none,3,3.0,30157.0,184300.0,72832.0,186417.0,81254.0
2026-04-14 17:22:56.313823,253344,1609504870029731,2469999459,-0.952576,-0.314272,0.085888,-0.81375,0.245,-12.635,9.576,3.864,26.344002,none,3,3.0,30157.0,184300.0,72832.0,186417.0,81254.0
2026-04-14 17:22:56.316196,253345,1609504870038721,2470008155,-0.979904,-0.31232,0.054656,0.6125,0.4025,-12.95,10.712001,3.752,27.552002,none,3,3.0,30157.0,184300.0,72832.0,186417.0,81254.0
2026-04-14 17:22:56.332821,253346,1609504870053198,2470022956,-0.933056,-0.298656,0.269376,1.58375,1.14625,-13.440001,10.352,3.44,25.512001,none,3,3.0,30157.0,184300.0,72832.0,186417.0,81254.0
2026-04-14 17:22:56.340327,253347,1609504870062130,2470031629,-0.933056,-0.298656,0.269376,3.85875,1.61,-13.5275,10.352,3.44,25.512001,none,3,3.0,30157.0,184300.0,72832.0,186417.0,81254.0
2026-04-14 17:22:56.354953,253348,1609504870076626,2470046513,-1.026752,-0.28304,0.197152,5.1275,2.91375,-14.42875,10.512,3.8,27.232,none,3,3.0,30157.0,184300.0,72832.0,186417.0,81254.0
2026-04-14 17:22:56.364098,253349,1609504870085561,2470055199,-1.026752,-0.28304,0.197152,6.57125,3.98125,-14.542501,10.512,3.8,27.232,none,3,3.0,30157.0,184300.0,72832.0,186417.0,81254.0
2026-04-14 17:22:56.388627,253350,1609504870100025,2470070091,-1.013088,-0.337696,0.085888,6.99125,4.82125,-14.805,9.92,3.864,26.456001,none,3,3.0,30157.0,184300.0,72832.0,186417.0,81254.0
2026-04-14 17:22:56.444306,253361,1609504870108983,2470078888,-1.013088,-0.337696,0.085888,8.21625,5.66125,-14.7875,9.92,3.864,26.456001,none,3,3.0,30095.0,184996.0,72703.0,186742.0,81063.0
2026-04-14 17:22:56.445867,253362,1609504870117953,2470087591,-0.976,-0.337696,0.113216,10.17625,5.9675,-14.21,10.792001,3.968,26.216002,none,3,3.0,30095.0,184996.0,72703.0,186742.0,81063.0
2026-04-14 17:22:56.448509,253363,1609504870132480,2470102469,-0.976,-0.2928,0.327936,11.50625,7.5775,-13.5275,10.672001,3.072,28.592001,none,3,3.0,30095.0,184996.0,72703.0,186742.0,81063.0
2026-04-14 17:22:56.450987,253364,1609504870141402,2470111197,-0.976,-0.2928,0.327936,10.745,8.86375,-13.5975,10.672001,3.072,28.592001,none,3,3.0,30095.0,184996.0,72703.0,186742.0,81063.0
2026-04-14 17:22:56.453535,253365,1609504870156110,2470126133,-0.993568,-0.345504,0.144448,9.730001,9.19625,-13.72875,11.184001,3.088,26.376001,none,3,3.0,30095.0,184996.0,72703.0,186742.0,81063.0
2026-04-14 17:22:56.456429,253366,1609504870165108,2470134875,-0.993568,-0.345504,0.144448,8.6975,9.073751,-13.55375,11.184001,3.088,26.376001,none,3,3.0,30095.0,184996.0,72703.0,186742.0,81063.0
2026-04-14 17:22:56.458940,253367,1609504870174064,2470143598,-1.06384,-0.2928,0.163968,9.89625,9.6075,-13.22125,10.88,3.568,27.096,none,3,3.0,30095.0,184996.0,72703.0,186742.0,81063.0
2026-04-14 17:22:56.466097,253368,1609504870188552,2470158508,-1.06384,-0.2928,0.163968,12.39875,10.745,-12.9325,10.88,3.568,27.096,none,3,3.0,30095.0,184996.0,72703.0,186742.0,81063.0
2026-04-14 17:22:56.477753,253369,1609504870197463,2470167190,-1.067744,-0.28304,0.095648,14.77,11.54125,-13.29125,10.616,3.328,26.664001,none,3,3.0,30095.0,184996.0,72703.0,186742.0,81063.0
2026-04-14 17:22:56.506614,253380,1609504870212076,2470182135,-1.067744,-0.26352,0.173728,15.1375,11.27875,-13.886251,10.616,3.328,26.664001,none,3,3.0,30370.0,186110.0,73097.0,187002.0,81561.0
2026-04-14 17:22:56.508575,253381,1609504870221052,2470190909,-1.038464,-0.26352,0.173728,14.7,10.84125,-14.81375,10.488001,3.472,26.872002,none,3,3.0,30370.0,186110.0,73097.0,187002.0,81561.0
2026-04-14 17:22:56.514205,253382,1609504870235556,2470205905,-1.048224,-0.275232,0.105408,13.51875,9.6075,-15.70625,10.968,2.944,27.448002,none,3,3.0,30370.0,186110.0,73097.0,187002.0,81561.0
2026-04-14 17:22:56.524107,253383,1609504870244504,2470214617,-1.048224,-0.275232,0.105408,12.075,8.39125,-15.79375,10.968,2.944,27.448002,none,3,3.0,30370.0,186110.0,73097.0,187002.0,81561.0
2026-04-14 17:22:56.535489,253384,1609504870253454,2470223290,-1.011136,-0.296704,0.173728,9.70375,7.0525,-15.25125,10.608001,2.848,30.408,none,3,3.0,30370.0,186110.0,73097.0,187002.0,81561.0
2026-04-14 17:22:56.546409,253385,1609504870267974,2470238207,-1.011136,-0.296704,0.173728,8.68875,5.80125,-14.323751,10.608001,2.848,30.408,none,3,3.0,30370.0,186110.0,73097.0,187002.0,81561.0
2026-04-14 17:22:56.555359,253386,1609504870276904,2470246897,-1.007232,-0.298656,0.265472,9.35375,5.46875,-13.23875,11.936001,2.616,26.328001,none,3,3.0,30370.0,186110.0,73097.0,187002.0,81561.0
2026-04-14 17:22:56.570372,253387,1609504870291369,2470259717,-1.007232,-0.298656,0.265472,11.54125,6.06375,-11.5675,11.936001,2.616,26.328001,none,3,3.0,30370.0,186110.0,73097.0,187002.0,81561.0
2026-04-14 17:22:56.581175,253388,1609504870300506,2470270477,-0.95648,-0.327936,0.16592,13.65,6.95625,-10.0625,11.552001,2.448,26.408,none,3,3.0,30370.0,186110.0,73097.0,187002.0,81561.0
2026-04-14 17:22:56.611185,253399,1609504870315081,2470283619,-0.972096,-0.271328,0.30256,15.4875,6.92125,-8.16375,10.112,2.672,26.888,none,3,3.0,30737.0,187074.0,73619.0,187199.0,82228.0
2026-04-14 17:22:56.613558,253400,1609504870324604,2470294457,-0.972096,-0.271328,0.30256,17.17625,6.16875,-7.1925,10.112,2.672,26.888,none,3,3.0,30737.0,187074.0,73619.0,187199.0,82228.0
2026-04-14 17:22:56.616015,253401,1609504870333583,2470303189,-1.018944,-0.267424,0.197152,17.1675,5.8275,-6.4225,10.56,2.064,28.912,none,3,3.0,30737.0,187074.0,73619.0,187199.0,82228.0
2026-04-14 17:22:56.633690,253402,1609504870348108,2470318102,-1.018944,-0.267424,0.197152,16.02125,5.4425,-6.3,10.56,2.064,28.912,none,3,3.0,30737.0,187074.0,73619.0,187199.0,82228.0
2026-04-14 17:22:56.635758,253403,1609504870357014,2470326777,-0.997472,-0.298656,0.103456,15.46125,4.2875,-6.0025,11.888001,1.704,25.968,none,3,3.0,30737.0,187074.0,73619.0,187199.0,82228.0
2026-04-14 17:22:56.651453,253404,1609504870371479,2470341658,-0.997472,-0.298656,0.103456,14.385,3.5,-5.95875,11.888001,1.704,25.968,none,3,3.0,30737.0,187074.0,73619.0,187199.0,82228.0
2026-04-14 17:22:56.659014,253405,1609504870380417,2470350315,-0.960384,-0.310368,0.206912,13.4225,3.9025,-6.02,11.776001,1.312,25.984001,none,3,3.0,30737.0,187074.0,73619.0,187199.0,82228.0
2026-04-14 17:22:56.666145,253406,1609504870389402,2470359022,-0.960384,-0.310368,0.206912,13.230001,4.4975,-5.775,11.776001,1.312,25.984001,none,3,3.0,30737.0,187074.0,73619.0,187199.0,82228.0
2026-04-14 17:22:56.760230,253417,1609504870403886,2470373857,-0.999424,-0.324032,0.085888,14.14,5.06625,-5.74,11.384001,1.616,26.44,none,3,3.0,30763.0,186300.0,73750.0,186731.0,82343.0
2026-04-14 17:22:56.762486,253418,1609504870412818,2470382602,-0.999424,-0.324032,0.085888,15.04125,4.7775,-5.45125,11.384001,1.616,26.44,none,3,3.0,30763.0,186300.0,73750.0,186731.0,82343.0
2026-04-14 17:22:56.787852,253419,1609504870427344,2470397528,-1.011136,-0.277184,0.2928,15.82875,5.64375,-5.0225,10.960001,1.496,24.904001,none,3,3.0,30763.0,186300.0,73750.0,186731.0,82343.0
2026-04-14 17:22:56.790352,253420,1609504870436280,2470406278,-1.048224,-0.306464,0.050752,15.9075,5.90625,-5.03125,11.424001,1.12,26.920002,none,3,3.0,30763.0,186300.0,73750.0,186731.0,82343.0
2026-04-14 17:22:56.792819,253421,1609504870450745,2470419097,-1.048224,-0.306464,0.050752,15.408751,5.4425,-5.32,11.424001,1.12,26.920002,none,3,3.0,30763.0,186300.0,73750.0,186731.0,82343.0
