pc_time,serial_num,sensor_ts,host_ts,ax,ay,az,gx,gy,gz,mx,my,mz,phase,rpe,weight_kg,ppg_a,ppg_b,ppg_c,ppg_d,ppg_e,ppg_f,ppg_g,ppg_h,ppg_i,ppg_j
2026-05-06 16:32:36.920040,888901,1609507420284315,5020196307,0.651968,0.530944,0.40016,1.32125,0.60375,-8.25125,-45.120003,-0.008,-64.69601,concentric,4,5.0,31452.0,33734.0,80587.0,74167.0,29464.0,43581.0,35356.0,42392.0,20278.0,15188.0
2026-05-06 16:32:36.922661,888902,1609507420293556,5020205320,0.679296,0.503616,0.38064,0.6825,0.30625,-8.46125,-45.128002,-0.08,-64.496,concentric,4,5.0,31452.0,33734.0,80587.0,74167.0,29464.0,43581.0,35356.0,42392.0,20278.0,15188.0
2026-05-06 16:32:36.925306,888903,1609507420308214,5020220397,0.679296,0.503616,0.38064,-0.805,0.84,-9.61625,-45.128002,-0.08,-64.496,concentric,4,5.0,31452.0,33734.0,80587.0,74167.0,29464.0,43581.0,35356.0,42392.0,20278.0,15188.0
2026-05-06 16:32:36.927789,888904,1609507420317235,5020229146,0.655872,0.49776,0.388448,-1.02375,1.5225,-9.94,-45.296,-0.232,-64.352005,concentric,4,5.0,31452.0,33734.0,80587.0,74167.0,29464.0,43581.0,35356.0,42392.0,20278.0,15188.0
2026-05-06 16:32:36.930296,888905,1609507420331752,5020244142,0.646112,0.538752,0.38064,-0.14,0.945,-8.365,-45.408,-1.656,-61.784004,concentric,4,5.0,31452.0,33734.0,80587.0,74167.0,29464.0,43581.0,35356.0,42392.0,20278.0,15188.0
2026-05-06 16:32:36.943955,888906,1609507420340696,5020252879,0.646112,0.538752,0.38064,0.95375,0.4025,-6.86,-45.408,-1.656,-61.784004,concentric,4,5.0,31452.0,33734.0,80587.0,74167.0,29464.0,43581.0,35356.0,42392.0,20278.0,15188.0
2026-05-06 16:32:36.950323,888907,1609507420349620,5020261572,0.646112,0.538752,0.38064,1.68875,-0.51625,-6.97375,-45.408,-1.656,-61.784004,concentric,4,5.0,31452.0,33734.0,80587.0,74167.0,29464.0,43581.0,35356.0,42392.0,20278.0,15188.0
2026-05-06 16:32:36.963952,888908,1609507420364151,5020276513,0.6832,0.495808,0.427488,1.79375,-0.46375,-7.56,-45.24,-0.072,-66.176,concentric,4,5.0,31452.0,33734.0,80587.0,74167.0,29464.0,43581.0,35356.0,42392.0,20278.0,15188.0
2026-05-06 16:32:36.976024,888909,1609507420373099,5020285277,0.6832,0.499712,0.398208,-0.14,-0.035,-7.0875,-45.320004,-0.192,-64.088005,concentric,4,5.0,31452.0,33734.0,80587.0,74167.0,29464.0,43581.0,35356.0,42392.0,20278.0,15188.0
2026-05-06 16:32:37.006649,888920,1609507420387766,5020300318,0.6832,0.499712,0.398208,-1.645,0.06125,-5.99375,-45.320004,-0.192,-64.088005,concentric,4,5.0,31451.0,33737.0,80509.0,74175.0,29469.0,43577.0,35335.0,42400.0,20261.0,15182.0
2026-05-06 16:32:37.009122,888921,1609507420396843,5020309110,0.661728,0.521184,0.388448,-0.105,0.0525,-4.1125,-44.872,-1.008,-64.4,concentric,4,5.0,31451.0,33737.0,80509.0,74175.0,29469.0,43577.0,35335.0,42400.0,20261.0,15182.0
2026-05-06 16:32:37.011650,888922,1609507420411437,5020324186,0.661728,0.521184,0.384544,-1.9425,-0.42,-5.0925,-44.872,-1.008,-64.4,concentric,4,5.0,31451.0,33737.0,80509.0,74175.0,29469.0,43577.0,35335.0,42400.0,20261.0,15182.0
2026-05-06 16:32:37.020125,888923,1609507420420565,5020332907,0.646112,0.493856,0.384544,-2.3625,-0.4025,-5.34625,-45.232002,-0.816,-63.632004,concentric,4,5.0,31451.0,33737.0,80509.0,74175.0,29469.0,43577.0,35335.0,42400.0,20261.0,15182.0
2026-05-06 16:32:37.027828,888924,1609507420429470,5020341635,0.646112,0.493856,0.384544,-0.7875,-0.9275,-5.08375,-45.232002,-0.816,-63.632004,concentric,4,5.0,31451.0,33737.0,80509.0,74175.0,29469.0,43577.0,35335.0,42400.0,20261.0,15182.0
2026-05-06 16:32:37.066407,888925,1609507420443965,5020356554,0.66368,0.484096,0.392352,-1.33,-0.9275,-4.5325,-45.512,-1.808,-64.504005,concentric,4,5.0,31451.0,33737.0,80509.0,74175.0,29469.0,43577.0,35335.0,42400.0,20261.0,15182.0
2026-05-06 16:32:37.066848,888926,1609507420452907,5020365369,0.62464,0.560224,0.366976,0.46375,0.1225,-2.765,-45.104004,-0.224,-63.712,concentric,4,5.0,31451.0,33737.0,80509.0,74175.0,29469.0,43577.0,35335.0,42400.0,20261.0,15182.0
2026-05-06 16:32:37.068901,888927,1609507420467393,5020378232,0.62464,0.560224,0.366976,1.35625,-0.035,-2.765,-45.104004,-0.224,-63.712,concentric,4,5.0,31451.0,33737.0,80509.0,74175.0,29469.0,43577.0,35335.0,42400.0,20261.0,15182.0
2026-05-06 16:32:37.076899,888928,1609507420476665,5020389006,0.651968,0.489952,0.372832,-2.33625,-0.035,-5.92375,-45.072002,-0.52,-64.104004,concentric,4,5.0,31451.0,33737.0,80509.0,74175.0,29469.0,43577.0,35335.0,42400.0,20261.0,15182.0
2026-05-06 16:32:37.106707,888939,1609507420486096,5020397782,0.651968,0.489952,0.372832,-5.18,-1.1025,-7.0,-45.072002,-0.52,-64.104004,concentric,4,5.0,31452.0,33721.0,80396.0,74150.0,29440.0,43575.0,35308.0,42389.0,20281.0,15183.0
2026-05-06 16:32:37.109185,888940,1609507420500713,5020412860,0.650016,0.486048,0.37088,-4.71625,-1.575,-6.88625,-45.36,-1.512,-63.432003,concentric,4,5.0,31452.0,33721.0,80396.0,74150.0,29440.0,43575.0,35308.0,42389.0,20281.0,15183.0
2026-05-06 16:32:37.111728,888941,1609507420509672,5020421605,0.650016,0.486048,0.37088,-0.53375,-1.49625,-4.55,-45.36,-1.512,-63.432003,concentric,4,5.0,31452.0,33721.0,80396.0,74150.0,29440.0,43575.0,35308.0,42389.0,20281.0,15183.0
2026-05-06 16:32:37.125392,888942,1609507420524300,5020436553,0.648064,0.52704,0.36112,1.5225,-1.07625,-4.22625,-45.576004,-2.632,-63.144005,concentric,4,5.0,31452.0,33721.0,80396.0,74150.0,29440.0,43575.0,35308.0,42389.0,20281.0,15183.0
2026-05-06 16:32:37.152958,888943,1609507420533272,5020445252,0.618784,0.511424,0.37088,-0.44625,-1.085,-5.2675,-45.344,-0.472,-63.920002,concentric,4,5.0,31452.0,33721.0,80396.0,74150.0,29440.0,43575.0,35308.0,42389.0,20281.0,15183.0
2026-05-06 16:32:37.181345,888944,1609507420542358,5020454010,0.618784,0.511424,0.37088,-3.78875,-0.84,-6.95625,-45.344,-0.472,-63.920002,concentric,4,5.0,31452.0,33721.0,80396.0,74150.0,29440.0,43575.0,35308.0,42389.0,20281.0,15183.0
2026-05-06 16:32:37.186381,888945,1609507420556831,5020468912,0.607072,0.509472,0.36112,-4.50625,-0.34125,-7.0175,-45.112003,-0.192,-64.416,concentric,4,5.0,31452.0,33721.0,80396.0,74150.0,29440.0,43575.0,35308.0,42389.0,20281.0,15183.0
2026-05-06 16:32:37.188994,888946,1609507420565742,5020477619,0.607072,0.509472,0.36112,-2.37125,-0.2975,-6.62375,-45.112003,-0.192,-64.416,concentric,4,5.0,31452.0,33721.0,80396.0,74150.0,29440.0,43575.0,35308.0,42389.0,20281.0,15183.0
2026-05-06 16:32:37.191529,888947,1609507420580193,5020492533,0.640256,0.509472,0.382592,-1.74125,-1.085,-6.5975,-45.552002,-0.96,-64.43201,concentric,4,5.0,31452.0,33721.0,80396.0,74150.0,29440.0,43575.0,35308.0,42389.0,20281.0,15183.0
2026-05-06 16:32:37.221681,888958,1609507420589284,5020501529,0.640256,0.509472,0.382592,-4.71625,-1.8725,-7.245,-45.552002,-0.96,-64.43201,concentric,4,5.0,31499.0,33784.0,80310.0,74198.0,29515.0,43636.0,35237.0,42410.0,20318.0,15224.0
2026-05-06 16:32:37.224158,888959,1609507420603889,5020516600,0.626592,0.491904,0.327936,-6.2825,-1.9425,-7.30625,-45.432003,-1.032,-64.512,concentric,4,5.0,31499.0,33784.0,80310.0,74198.0,29515.0,43636.0,35237.0,42410.0,20318.0,15224.0
2026-05-06 16:32:37.226717,888960,1609507420612861,5020525310,0.626592,0.491904,0.406016,-4.725,-1.51375,-7.46375,-45.432003,-1.032,-64.512,concentric,4,5.0,31499.0,33784.0,80310.0,74198.0,29515.0,43636.0,35237.0,42410.0,20318.0,15224.0
2026-05-06 16:32:37.229207,888961,1609507420621877,5020534064,0.616832,0.501664,0.415776,-0.42,-1.645,-7.34125,-45.320004,-4.76,-61.824,concentric,4,5.0,31499.0,33784.0,80310.0,74198.0,29515.0,43636.0,35237.0,42410.0,20318.0,15224.0
2026-05-06 16:32:37.235386,888962,1609507420636413,5020549142,0.618784,0.532896,0.41968,0.875,-1.3125,-7.98,-45.592003,-2.768,-63.336002,concentric,4,5.0,31499.0,33784.0,80310.0,74198.0,29515.0,43636.0,35237.0,42410.0,20318.0,15224.0
2026-05-06 16:32:37.244165,888963,1609507420645308,5020557863,0.618784,0.532896,0.41968,1.18125,-1.21625,-8.28625,-45.592003,-2.768,-63.336002,concentric,4,5.0,31499.0,33784.0,80310.0,74198.0,29515.0,43636.0,35237.0,42410.0,20318.0,15224.0
2026-05-06 16:32:37.257919,888964,1609507420659803,5020570731,0.626592,0.513376,0.382592,-0.34125,-0.41125,-8.56625,-45.584003,-2.624,-63.328003,concentric,4,5.0,31499.0,33784.0,80310.0,74198.0,29515.0,43636.0,35237.0,42410.0,20318.0,15224.0
2026-05-06 16:32:37.271682,888965,1609507420669151,5020581507,0.626592,0.513376,0.382592,-3.24625,0.0175,-9.73875,-45.584003,-2.624,-63.328003,concentric,4,5.0,31499.0,33784.0,80310.0,74198.0,29515.0,43636.0,35237.0,42410.0,20318.0,15224.0
2026-05-06 16:32:37.276338,888966,1609507420678111,5020590275,0.622688,0.495808,0.398208,-4.2175,0.56,-9.8175,-45.416,-1.176,-64.768005,concentric,4,5.0,31499.0,33784.0,80310.0,74198.0,29515.0,43636.0,35237.0,42410.0,20318.0,15224.0
2026-05-06 16:32:37.305320,888977,1609507420692824,5020605294,0.622688,0.495808,0.398208,-2.7125,1.2075,-8.9775,-45.416,-1.176,-64.768005,concentric,4,5.0,31380.0,33637.0,80213.0,74172.0,29406.0,43469.0,35172.0,42380.0,20248.0,15144.0
2026-05-06 16:32:37.307831,888978,1609507420701896,5020614015,0.61488,0.495808,0.382592,1.2775,1.88125,-7.805,-45.784,-2.808,-63.016003,concentric,4,5.0,31380.0,33637.0,80213.0,74172.0,29406.0,43469.0,35172.0,42380.0,20248.0,15144.0
2026-05-06 16:32:37.316647,888979,1609507420716475,5020628978,0.646112,0.528992,0.366976,4.7075,1.14625,-6.97375,-45.712,-2.792,-63.280003,concentric,4,5.0,31380.0,33637.0,80213.0,74172.0,29406.0,43469.0,35172.0,42380.0,20248.0,15144.0
2026-05-06 16:32:37.324153,888980,1609507420725372,5020637865,0.646112,0.528992,0.366976,4.795,-0.06125,-5.95875,-45.712,-2.792,-63.280003,concentric,4,5.0,31380.0,33637.0,80213.0,74172.0,29406.0,43469.0,35172.0,42380.0,20248.0,15144.0
2026-05-06 16:32:37.332964,888981,1609507420734305,5020646603,0.612928,0.509472,0.318176,0.5425,-2.7475,-5.8625,-45.712,-0.744,-64.76,concentric,4,5.0,31380.0,33637.0,80213.0,74172.0,29406.0,43469.0,35172.0,42380.0,20248.0,15144.0
2026-05-06 16:32:37.366404,888982,1609507420748795,5020661594,0.612928,0.509472,0.318176,-3.5,-5.27625,-6.06375,-45.496002,-1.192,-64.76,concentric,4,5.0,31380.0,33637.0,80213.0,74172.0,29406.0,43469.0,35172.0,42380.0,20248.0,15144.0
2026-05-06 16:32:37.369077,888983,1609507420757706,5020670287,0.60512,0.503616,0.359168,-2.38875,-8.58375,-5.2325,-45.528004,-1.888,-64.344,concentric,4,5.0,31380.0,33637.0,80213.0,74172.0,29406.0,43469.0,35172.0,42380.0,20248.0,15144.0
2026-05-06 16:32:37.371544,888984,1609507420772241,5020683175,0.60512,0.503616,0.359168,0.63,-11.1475,-4.29625,-45.528004,-1.888,-64.344,concentric,4,5.0,31380.0,33637.0,80213.0,74172.0,29406.0,43469.0,35172.0,42380.0,20248.0,15144.0
2026-05-06 16:32:37.380134,888985,1609507420781694,5020693968,0.6344,0.476288,0.382592,0.9975,-11.62875,-3.77125,-45.648003,-1.976,-64.888,concentric,4,5.0,31380.0,33637.0,80213.0,74172.0,29406.0,43469.0,35172.0,42380.0,20248.0,15144.0
2026-05-06 16:32:37.407830,888996,1609507420796287,5020708987,0.61488,0.499712,0.386496,1.37375,-11.71625,-2.19625,-45.840004,-4.552,-63.368004,concentric,4,5.0,31469.0,33619.0,80022.0,74117.0,29476.0,43432.0,35103.0,42365.0,20285.0,15134.0
2026-05-06 16:32:37.412793,888997,1609507420805255,5020717805,0.61488,0.499712,0.386496,3.885,-10.35125,-0.16625,-45.840004,-4.552,-63.368004,concentric,4,5.0,31469.0,33619.0,80022.0,74117.0,29476.0,43432.0,35103.0,42365.0,20285.0,15134.0
2026-05-06 16:32:37.415380,888998,1609507420814377,5020726529,0.61488,0.499712,0.411872,6.545,-9.7825,0.28,-45.840004,-4.552,-63.368004,concentric,4,5.0,31469.0,33619.0,80022.0,74117.0,29476.0,43432.0,35103.0,42365.0,20285.0,15134.0
2026-05-06 16:32:37.431692,888999,1609507420828871,5020741480,0.591456,0.509472,0.411872,5.22375,-8.636251,0.18375,-45.912003,-3.232,-64.728004,concentric,4,5.0,31469.0,33619.0,80022.0,74117.0,29476.0,43432.0,35103.0,42365.0,20285.0,15134.0
2026-05-06 16:32:37.437902,889000,1609507420837797,5020750204,0.612928,0.484096,0.357216,1.33875,-7.42,-0.4025,-45.824,-2.288,-63.632004,concentric,4,5.0,31469.0,33619.0,80022.0,74117.0,29476.0,43432.0,35103.0,42365.0,20285.0,15134.0
2026-05-06 16:32:37.455782,889001,1609507420852311,5020763096,0.612928,0.484096,0.357216,-3.2025,-4.8125,-0.6125,-45.824,-2.288,-63.632004,concentric,4,5.0,31469.0,33619.0,80022.0,74117.0,29476.0,43432.0,35103.0,42365.0,20285.0,15134.0
2026-05-06 16:32:37.460089,889002,1609507420861561,5020773900,0.62464,0.435296,0.347456,-3.8325,-2.35375,-0.98,-45.792004,-3.312,-64.880005,concentric,4,5.0,31469.0,33619.0,80022.0,74117.0,29476.0,43432.0,35103.0,42365.0,20285.0,15134.0
2026-05-06 16:32:37.468819,889003,1609507420870484,5020782713,0.62464,0.435296,0.347456,-2.52,-0.35,-2.9925,-45.792004,-3.312,-64.880005,concentric,4,5.0,31469.0,33619.0,80022.0,74117.0,29476.0,43432.0,35103.0,42365.0,20285.0,15134.0
2026-05-06 16:32:37.585421,889014,1609507420885545,5020797660,0.560224,0.489952,0.308416,0.315,0.42875,-3.08,-45.608,-1.848,-64.904,concentric,4,5.0,31417.0,33575.0,80057.0,74116.0,29419.0,43394.0,35092.0,42337.0,20261.0,15105.0
2026-05-06 16:32:37.587713,889015,1609507420894612,5020806462,0.560224,0.489952,0.308416,3.4125,0.21875,-3.77125,-45.608,-1.848,-64.904,concentric,4,5.0,31417.0,33575.0,80057.0,74116.0,29419.0,43394.0,35092.0,42337.0,20261.0,15105.0
2026-05-06 16:32:37.590402,889016,1609507420909142,5020821425,0.548512,0.515328,0.335744,1.5225,0.06125,-5.99375,-45.608,-0.872,-65.68,concentric,4,5.0,31417.0,33575.0,80057.0,74116.0,29419.0,43394.0,35092.0,42337.0,20261.0,15105.0
2026-05-06 16:32:37.592925,889017,1609507420918098,5020830166,0.610976,0.411872,0.35136,-0.9275,-0.51625,-6.825,-45.72,-0.896,-64.68,concentric,4,5.0,31417.0,33575.0,80057.0,74116.0,29419.0,43394.0,35092.0,42337.0,20261.0,15105.0
2026-05-06 16:32:37.595395,889018,1609507420927040,5020838946,0.610976,0.411872,0.35136,-5.52125,0.6125,-8.42625,-45.72,-0.896,-64.68,concentric,4,5.0,31417.0,33575.0,80057.0,74116.0,29419.0,43394.0,35092.0,42337.0,20261.0,15105.0
2026-05-06 16:32:37.597866,889019,1609507420941549,5020853966,0.581696,0.386496,0.284992,-8.6625,2.58125,-5.57375,-45.696003,-1.184,-64.736,concentric,4,5.0,31417.0,33575.0,80057.0,74116.0,29419.0,43394.0,35092.0,42337.0,20261.0,15105.0
2026-05-06 16:32:37.600381,889020,1609507420950491,5020862672,0.581696,0.386496,0.284992,-7.56875,3.6225,-0.46375,-45.696003,-1.184,-64.736,concentric,4,5.0,31417.0,33575.0,80057.0,74116.0,29419.0,43394.0,35092.0,42337.0,20261.0,15105.0
2026-05-06 16:32:37.602937,889021,1609507420964975,5020877577,0.528992,0.581696,0.300608,-7.3675,2.66,2.1175,-45.984,-1.272,-64.72,concentric,4,5.0,31417.0,33575.0,80057.0,74116.0,29419.0,43394.0,35092.0,42337.0,20261.0,15105.0
2026-05-06 16:32:37.605287,889022,1609507420973915,5020886300,0.528992,0.581696,0.300608,-6.78125,1.11125,2.03,-45.984,-1.272,-64.72,concentric,4,5.0,31417.0,33575.0,80057.0,74116.0,29419.0,43394.0,35092.0,42337.0,20261.0,15105.0
2026-05-06 16:32:37.635414,889033,1609507420988870,5020901271,0.56608,0.495808,0.267424,-6.83375,-0.6825,-5.04,-45.976,-1.272,-64.54401,concentric,4,5.0,31585.0,33636.0,79918.0,73985.0,29557.0,43440.0,35042.0,42268.0,20342.0,15138.0
2026-05-06 16:32:37.640035,889034,1609507420997850,5020910033,0.571936,0.363072,0.314272,-5.36375,-3.0625,-10.61375,-46.312004,-1.984,-65.392006,concentric,4,5.0,31585.0,33636.0,79918.0,73985.0,29557.0,43440.0,35042.0,42268.0,20342.0,15138.0
2026-05-06 16:32:37.640435,889035,1609507421006921,5020918795,0.571936,0.363072,0.314272,-1.21625,-4.9175,-8.74125,-46.312004,-1.984,-65.392006,concentric,4,5.0,31585.0,33636.0,79918.0,73985.0,29557.0,43440.0,35042.0,42268.0,20342.0,15138.0
2026-05-06 16:32:37.642696,889036,1609507421021462,5020933824,0.593408,0.427488,0.343552,2.0125,-5.15375,-2.4325,-46.168003,-3.368,-63.216003,concentric,4,5.0,31585.0,33636.0,79918.0,73985.0,29557.0,43440.0,35042.0,42268.0,20342.0,15138.0
2026-05-06 16:32:37.646871,889037,1609507421030424,5020942541,0.593408,0.427488,0.343552,4.0425,-3.92875,5.11875,-46.168003,-3.368,-63.216003,concentric,4,5.0,31585.0,33636.0,79918.0,73985.0,29557.0,43440.0,35042.0,42268.0,20342.0,15138.0
2026-05-06 16:32:37.648674,889038,1609507421045018,5020957499,0.562176,0.552416,0.304512,4.795,-2.26625,9.96625,-45.576004,-2.608,-63.280003,concentric,4,5.0,31585.0,33636.0,79918.0,73985.0,29557.0,43440.0,35042.0,42268.0,20342.0,15138.0
2026-05-06 16:32:37.653758,889039,1609507421054213,5020966334,0.562176,0.552416,0.304512,6.76375,-1.8375,9.42375,-45.576004,-2.608,-63.280003,concentric,4,5.0,31585.0,33636.0,79918.0,73985.0,29557.0,43440.0,35042.0,42268.0,20342.0,15138.0
2026-05-06 16:32:37.662837,889040,1609507421063209,5020975081,0.573888,0.538752,0.28304,5.53875,-3.5875,3.99,-46.352,-2.512,-63.048004,concentric,4,5.0,31585.0,33636.0,79918.0,73985.0,29557.0,43440.0,35042.0,42268.0,20342.0,15138.0
2026-05-06 16:32:37.679016,889041,1609507421077709,5020989975,0.569984,0.52704,0.318176,7.13125,-6.15125,0.805,-46.344,-0.544,-65.504005,concentric,4,5.0,31585.0,33636.0,79918.0,73985.0,29557.0,43440.0,35042.0,42268.0,20342.0,15138.0
2026-05-06 16:32:37.707720,889052,1609507421086988,5020998902,0.569984,0.52704,0.318176,8.365,-8.4875,-0.875,-46.344,-0.544,-65.504005,concentric,4,5.0,31668.0,33681.0,79789.0,73990.0,29693.0,43501.0,34969.0,42262.0,20421.0,15148.0
2026-05-06 16:32:37.710211,889053,1609507421101681,5021014007,0.661728,0.476288,0.423584,7.63875,-8.86375,-0.72625,-46.72,-4.352,-62.448,concentric,4,5.0,31668.0,33681.0,79789.0,73990.0,29693.0,43501.0,34969.0,42262.0,20421.0,15148.0
2026-05-06 16:32:37.712748,889054,1609507421110623,5021022730,0.661728,0.476288,0.423584,2.44125,-6.44,0.14,-46.72,-4.352,-62.448,concentric,4,5.0,31668.0,33681.0,79789.0,73990.0,29693.0,43501.0,34969.0,42262.0,20421.0,15148.0
2026-05-06 16:32:37.719067,889055,1609507421119595,5021031445,0.59536,0.534848,0.284992,-3.12375,-2.77375,1.56625,-46.696003,-3.504,-63.56,concentric,4,5.0,31668.0,33681.0,79789.0,73990.0,29693.0,43501.0,34969.0,42262.0,20421.0,15148.0
2026-05-06 16:32:37.737648,889056,1609507421134113,5021046405,0.59536,0.534848,0.284992,-1.30375,-1.39125,5.285,-46.696003,-3.504,-63.56,concentric,4,5.0,31668.0,33681.0,79789.0,73990.0,29693.0,43501.0,34969.0,42262.0,20421.0,15148.0
2026-05-06 16:32:37.741442,889057,1609507421143049,5021055139,0.610976,0.581696,0.257664,1.6275,-2.2575,2.8525,-46.528004,-0.336,-64.43201,concentric,4,5.0,31668.0,33681.0,79789.0,73990.0,29693.0,43501.0,34969.0,42262.0,20421.0,15148.0
2026-05-06 16:32:37.775359,889058,1609507421157539,5021070094,0.67344,0.46848,0.359168,4.33125,-3.6225,-0.76125,-46.528004,-0.776,-63.328003,concentric,4,5.0,31668.0,33681.0,79789.0,73990.0,29693.0,43501.0,34969.0,42262.0,20421.0,15148.0
2026-05-06 16:32:37.777878,889059,1609507421166440,5021078871,0.67344,0.46848,0.359168,2.65125,-4.13875,-3.4825,-46.552002,-0.776,-63.328003,concentric,4,5.0,31668.0,33681.0,79789.0,73990.0,29693.0,43501.0,34969.0,42262.0,20421.0,15148.0
2026-05-06 16:32:37.780394,889060,1609507421180933,5021091715,0.6344,0.523136,0.376736,2.91375,-3.1325,-1.88125,-46.864002,-0.688,-64.128006,concentric,4,5.0,31668.0,33681.0,79789.0,73990.0,29693.0,43501.0,34969.0,42262.0,20421.0,15148.0
2026-05-06 16:32:37.807923,889071,1609507421190347,5021102732,0.6344,0.523136,0.376736,4.2,-1.05875,1.30375,-46.864002,-0.688,-64.128006,concentric,4,5.0,31490.0,33545.0,79746.0,74023.0,29492.0,43302.0,34940.0,42273.0,20316.0,15061.0
2026-05-06 16:32:37.810409,889072,1609507421199398,5021111505,0.642208,0.628544,0.359168,2.3975,0.3675,2.835,-46.840004,-2.576,-62.672005,concentric,4,5.0,31490.0,33545.0,79746.0,74023.0,29492.0,43302.0,34940.0,42273.0,20316.0,15061.0
2026-05-06 16:32:37.812859,889073,1609507421213973,5021126431,0.642208,0.628544,0.359168,-3.36875,1.72375,-0.8225,-46.840004,-2.576,-62.672005,concentric,4,5.0,31490.0,33545.0,79746.0,74023.0,29492.0,43302.0,34940.0,42273.0,20316.0,15061.0
2026-05-06 16:32:37.824099,889074,1609507421223022,5021135168,0.679296,0.491904,0.267424,-7.44625,0.8225,-6.65875,-46.856003,-0.84,-64.264,concentric,4,5.0,31490.0,33545.0,79746.0,74023.0,29492.0,43302.0,34940.0,42273.0,20316.0,15061.0
2026-05-06 16:32:37.837603,889075,1609507421237475,5021150102,0.679296,0.491904,0.288896,-10.185,-0.67375,-10.31625,-46.856003,-0.84,-64.264,concentric,4,5.0,31490.0,33545.0,79746.0,74023.0,29492.0,43302.0,34940.0,42273.0,20316.0,15061.0
2026-05-06 16:32:37.846589,889076,1609507421246406,5021158823,0.69296,0.431392,0.288896,-8.70625,-1.54875,-9.00375,-47.36,-0.528,-64.76,concentric,4,5.0,31490.0,33545.0,79746.0,74023.0,29492.0,43302.0,34940.0,42273.0,20316.0,15061.0
2026-05-06 16:32:37.855244,889077,1609507421255339,5021167576,0.69296,0.431392,0.288896,-1.26875,-2.35375,-4.1125,-47.36,-0.528,-64.76,concentric,4,5.0,31490.0,33545.0,79746.0,74023.0,29492.0,43302.0,34940.0,42273.0,20316.0,15061.0
2026-05-06 16:32:37.887804,889078,1609507421269834,5021182518,0.630496,0.620736,0.388448,6.76375,-3.94625,-1.645,-47.488003,-2.072,-62.56,concentric,4,5.0,31490.0,33545.0,79746.0,74023.0,29492.0,43302.0,34940.0,42273.0,20316.0,15061.0
2026-05-06 16:32:37.912845,889079,1609507421278775,5021191205,0.67344,0.57584,0.372832,2.1875,-4.85625,-5.565,-47.192,-0.44,-64.376,concentric,4,5.0,31490.0,33545.0,79746.0,74023.0,29492.0,43302.0,34940.0,42273.0,20316.0,15061.0
2026-05-06 16:32:37.960413,889090,1609507421293354,5021204146,0.67344,0.57584,0.372832,-11.80375,-4.7775,-11.6025,-47.192,-0.44,-64.376,concentric,4,5.0,31435.0,33587.0,79714.0,74100.0,29442.0,43336.0,34917.0,42294.0,20275.0,15114.0
2026-05-06 16:32:37.962939,889091,1609507421302667,5021214917,0.739808,0.406016,0.324032,-21.4725,-3.75375,-14.761251,-47.728,-0.808,-64.048004,concentric,4,5.0,31435.0,33587.0,79714.0,74100.0,29442.0,43336.0,34917.0,42294.0,20275.0,15114.0
2026-05-06 16:32:37.965424,889092,1609507421317172,5021229881,0.739808,0.406016,0.324032,-20.055,-2.56375,-13.5975,-47.728,-0.808,-64.048004,concentric,4,5.0,31435.0,33587.0,79714.0,74100.0,29442.0,43336.0,34917.0,42294.0,20275.0,15114.0
2026-05-06 16:32:37.967887,889093,1609507421326115,5021238641,0.671488,0.528992,0.366976,-7.14875,-2.23125,-7.175,-47.624,-1.224,-61.592003,concentric,4,5.0,31435.0,33587.0,79714.0,74100.0,29442.0,43336.0,34917.0,42294.0,20275.0,15114.0
2026-05-06 16:32:37.970238,889094,1609507421335129,5021247350,0.671488,0.528992,0.366976,5.81875,-2.65125,-4.33125,-47.624,-1.224,-61.592003,concentric,4,5.0,31435.0,33587.0,79714.0,74100.0,29442.0,43336.0,34917.0,42294.0,20275.0,15114.0
2026-05-06 16:32:37.972735,889095,1609507421349699,5021262345,0.659776,0.616832,0.447008,8.61,-2.00375,-4.78625,-48.008003,-0.904,-63.824,concentric,4,5.0,31435.0,33587.0,79714.0,74100.0,29442.0,43336.0,34917.0,42294.0,20275.0,15114.0
2026-05-06 16:32:37.975416,889096,1609507421358637,5021271072,0.659776,0.569984,0.382592,2.3975,-1.02375,-6.90375,-48.008003,-0.904,-63.824,concentric,4,5.0,31435.0,33587.0,79714.0,74100.0,29442.0,43336.0,34917.0,42294.0,20275.0,15114.0
2026-05-06 16:32:37.977879,889097,1609507421373233,5021284022,0.671488,0.569984,0.382592,-1.65375,-0.175,-7.88375,-48.152,-2.264,-62.696003,concentric,4,5.0,31435.0,33587.0,79714.0,74100.0,29442.0,43336.0,34917.0,42294.0,20275.0,15114.0
2026-05-06 16:32:37.981684,889098,1609507421382527,5021294821,0.743712,0.476288,0.349408,-4.9,-0.46375,-8.9075,-48.304,-2.488,-62.784004,concentric,4,5.0,31435.0,33587.0,79714.0,74100.0,29442.0,43336.0,34917.0,42294.0,20275.0,15114.0
2026-05-06 16:32:38.012801,889109,1609507421391608,5021303596,0.743712,0.476288,0.349408,-6.78125,-1.1375,-7.3325,-48.304,-2.488,-62.784004,concentric,4,5.0,31461.0,33599.0,79788.0,73999.0,29458.0,43330.0,34947.0,42266.0,20265.0,15083.0
2026-05-06 16:32:38.012920,889110,1609507421406312,5021318515,0.677344,0.519232,0.372832,-5.7225,-1.28625,-3.47375,-47.784,-0.576,-62.648003,concentric,4,5.0,31461.0,33599.0,79788.0,73999.0,29458.0,43330.0,34947.0,42266.0,20265.0,15083.0
2026-05-06 16:32:38.015060,889111,1609507421415253,5021327252,0.677344,0.519232,0.372832,2.8875,-2.3275,3.01875,-47.784,-0.576,-62.648003,concentric,4,5.0,31461.0,33599.0,79788.0,73999.0,29458.0,43330.0,34947.0,42266.0,20265.0,15083.0
2026-05-06 16:32:38.047810,889112,1609507421429749,5021342188,0.659776,0.665632,0.37088,6.7375,-3.03625,5.1975,-48.416004,-0.856,-63.512005,concentric,4,5.0,31461.0,33599.0,79788.0,73999.0,29458.0,43330.0,34947.0,42266.0,20265.0,15083.0
2026-05-06 16:32:38.050327,889113,1609507421438682,5021350889,0.659776,0.665632,0.37088,3.0625,-3.9725,3.92875,-48.416004,-0.856,-63.512005,concentric,4,5.0,31461.0,33599.0,79788.0,73999.0,29458.0,43330.0,34947.0,42266.0,20265.0,15083.0
2026-05-06 16:32:38.052843,889114,1609507421453219,5021365825,0.667584,0.612928,0.300608,0.42875,-4.40125,-1.5925,-48.320004,-0.56,-63.824,concentric,4,5.0,31461.0,33599.0,79788.0,73999.0,29458.0,43330.0,34947.0,42266.0,20265.0,15083.0
2026-05-06 16:32:38.061666,889115,1609507421462242,5021374714,0.708576,0.51728,0.316224,0.4375,-5.03125,-6.11625,-48.608,-2.784,-62.592003,concentric,4,5.0,31461.0,33599.0,79788.0,73999.0,29458.0,43330.0,34947.0,42266.0,20265.0,15083.0
2026-05-06 16:32:38.070254,889116,1609507421471161,5021383439,0.708576,0.51728,0.316224,3.35125,-6.39625,-8.49625,-48.608,-2.784,-62.592003,concentric,4,5.0,31461.0,33599.0,79788.0,73999.0,29458.0,43330.0,34947.0,42266.0,20265.0,15083.0
2026-05-06 16:32:38.106983,889117,1609507421485680,5021398357,0.650016,0.636352,0.40992,9.9925,-6.71125,-6.11625,-48.968002,-1.704,-62.472004,concentric,4,5.0,31461.0,33599.0,79788.0,73999.0,29458.0,43330.0,34947.0,42266.0,20265.0,15083.0
2026-05-06 16:32:38.134132,889128,1609507421494784,5021407150,0.650016,0.636352,0.40992,12.81,-7.69125,-3.22,-48.968002,-1.704,-62.472004,concentric,4,5.0,31517.0,33673.0,79517.0,74141.0,29495.0,43473.0,34835.0,42342.0,20317.0,15138.0
2026-05-06 16:32:38.136437,889129,1609507421509300,5021422036,0.74176,0.571936,0.366976,1.28625,-6.02875,-5.2675,-48.440002,-0.56,-63.472004,concentric,4,5.0,31517.0,33673.0,79517.0,74141.0,29495.0,43473.0,34835.0,42342.0,20317.0,15138.0
2026-05-06 16:32:38.138926,889130,1609507421518339,5021430776,0.74176,0.571936,0.366976,-7.30625,-2.79125,-5.50375,-48.440002,-0.56,-63.472004,concentric,4,5.0,31517.0,33673.0,79517.0,74141.0,29495.0,43473.0,34835.0,42342.0,20317.0,15138.0
2026-05-06 16:32:38.170230,889131,1609507421527283,5021439572,0.724192,0.511424,0.376736,-9.38,-0.86625,-5.48625,-49.096,-2.144,-61.344,concentric,4,5.0,31517.0,33673.0,79517.0,74141.0,29495.0,43473.0,34835.0,42342.0,20317.0,15138.0
2026-05-06 16:32:38.172692,889132,1609507421541811,5021454493,0.698816,0.642208,0.37088,-8.7675,-0.21,-3.64,-48.992,-2.272,-63.24,concentric,4,5.0,31517.0,33673.0,79517.0,74141.0,29495.0,43473.0,34835.0,42342.0,20317.0,15138.0
2026-05-06 16:32:38.175399,889133,1609507421550770,5021463196,0.698816,0.642208,0.37088,-11.480001,-0.11375,-2.33625,-48.992,-2.272,-63.24,concentric,4,5.0,31517.0,33673.0,79517.0,74141.0,29495.0,43473.0,34835.0,42342.0,20317.0,15138.0
2026-05-06 16:32:38.177922,889134,1609507421565365,5021478048,0.714432,0.558272,0.327936,-15.00625,0.81375,-3.5,-49.288002,-0.384,-63.568005,concentric,4,5.0,31517.0,33673.0,79517.0,74141.0,29495.0,43473.0,34835.0,42342.0,20317.0,15138.0
2026-05-06 16:32:38.180432,889135,1609507421574290,5021486864,0.714432,0.558272,0.327936,-14.30625,1.54875,-7.665,-49.288002,-0.384,-63.568005,concentric,4,5.0,31517.0,33673.0,79517.0,74141.0,29495.0,43473.0,34835.0,42342.0,20317.0,15138.0
2026-05-06 16:32:38.211531,889146,1609507421589286,5021502040,0.798368,0.441152,0.431392,-11.57625,1.70625,-10.94625,-49.272003,-0.288,-63.208004,concentric,4,5.0,31374.0,33588.0,79696.0,74064.0,29382.0,43336.0,34893.0,42295.0,20230.0,15080.0
2026-05-06 16:32:38.213978,889147,1609507421598566,5021510866,0.798368,0.441152,0.431392,-6.13375,2.59,-6.81625,-49.272003,-0.288,-63.208004,concentric,4,5.0,31374.0,33588.0,79696.0,74064.0,29382.0,43336.0,34893.0,42295.0,20230.0,15080.0
2026-05-06 16:32:38.216543,889148,1609507421607605,5021519611,0.70272,0.67344,0.365024,3.40375,1.95125,-0.44625,-49.656002,-3.824,-60.024002,concentric,4,5.0,31374.0,33588.0,79696.0,74064.0,29382.0,43336.0,34893.0,42295.0,20230.0,15080.0
2026-05-06 16:32:38.222609,889149,1609507421622154,5021534588,0.769088,0.569984,0.40016,8.575,0.63875,-0.245,-49.608,-4.536,-63.088,concentric,4,5.0,31374.0,33588.0,79696.0,74064.0,29382.0,43336.0,34893.0,42295.0,20230.0,15080.0
2026-05-06 16:32:38.255324,889150,1609507421631093,5021543343,0.769088,0.569984,0.40016,2.58125,0.49875,-7.0,-49.608,-4.536,-63.088,concentric,4,5.0,31374.0,33588.0,79696.0,74064.0,29382.0,43336.0,34893.0,42295.0,20230.0,15080.0
2026-05-06 16:32:38.281551,889151,1609507421645602,5021558232,0.759328,0.499712,0.423584,-7.525,1.75,-10.115,-49.608,-0.696,-62.856003,concentric,4,5.0,31374.0,33588.0,79696.0,74064.0,29382.0,43336.0,34893.0,42295.0,20230.0,15080.0
2026-05-06 16:32:38.294672,889152,1609507421654541,5021567032,0.759328,0.499712,0.423584,-8.5225,2.6075,-6.48375,-49.608,-0.696,-62.856003,concentric,4,5.0,31374.0,33588.0,79696.0,74064.0,29382.0,43336.0,34893.0,42295.0,20230.0,15080.0
2026-05-06 16:32:38.296234,889153,1609507421663469,5021575732,0.735904,0.669536,0.437248,-0.06125,3.64875,-1.19875,-49.472004,-0.128,-63.096004,concentric,4,5.0,31374.0,33588.0,79696.0,74064.0,29382.0,43336.0,34893.0,42295.0,20230.0,15080.0
2026-05-06 16:32:38.298775,889154,1609507421677956,5021590641,0.735904,0.669536,0.437248,6.3175,3.955,-0.875,-49.472004,-0.128,-63.096004,concentric,4,5.0,31374.0,33588.0,79696.0,74064.0,29382.0,43336.0,34893.0,42295.0,20230.0,15080.0
2026-05-06 16:32:38.301303,889155,1609507421686928,5021599401,0.718336,0.636352,0.372832,4.13,3.78,-4.375,-49.776,-0.472,-62.544003,concentric,4,5.0,31374.0,33588.0,79696.0,74064.0,29382.0,43336.0,34893.0,42295.0,20230.0,15080.0
2026-05-06 16:32:38.332745,889166,1609507421701476,5021612283,0.772992,0.571936,0.402112,-0.9625,3.29,-6.58875,-49.776,-0.472,-63.352,eccentric,4,5.0,31308.0,33538.0,79505.0,73955.0,29314.0,43293.0,34805.0,42221.0,20173.0,15056.0
2026-05-06 16:32:38.335288,889167,1609507421710817,5021623180,0.772992,0.571936,0.402112,-3.2025,2.7125,-5.80125,-49.648003,-0.376,-63.352,eccentric,4,5.0,31308.0,33538.0,79505.0,73955.0,29314.0,43293.0,34805.0,42221.0,20173.0,15056.0
2026-05-06 16:32:38.337619,889168,1609507421719839,5021631913,0.772992,0.571936,0.402112,-5.55625,3.28125,-3.28125,-49.648003,-0.376,-63.352,eccentric,4,5.0,31308.0,33538.0,79505.0,73955.0,29314.0,43293.0,34805.0,42221.0,20173.0,15056.0
2026-05-06 16:32:38.340268,889169,1609507421734422,5021646894,0.720288,0.651968,0.382592,-5.17125,4.8475,-1.51375,-49.824,-1.456,-65.152,eccentric,4,5.0,31308.0,33538.0,79505.0,73955.0,29314.0,43293.0,34805.0,42221.0,20173.0,15056.0
2026-05-06 16:32:38.342882,889170,1609507421743354,5021655603,0.691008,0.769088,0.36112,-0.35,4.2525,-1.575,-50.144,-2.488,-59.72,eccentric,4,5.0,31308.0,33538.0,79505.0,73955.0,29314.0,43293.0,34805.0,42221.0,20173.0,15056.0
2026-05-06 16:32:38.360369,889171,1609507421757866,5021670524,0.691008,0.769088,0.36112,2.835,1.96,-5.8975,-50.144,-2.488,-59.72,eccentric,4,5.0,31308.0,33538.0,79505.0,73955.0,29314.0,43293.0,34805.0,42221.0,20173.0,15056.0
2026-05-06 16:32:38.366704,889172,1609507421766788,5021679326,0.798368,0.589504,0.431392,-0.09625,-0.28,-12.46,-49.928,-0.944,-62.304005,eccentric,4,5.0,31308.0,33538.0,79505.0,73955.0,29314.0,43293.0,34805.0,42221.0,20173.0,15056.0
2026-05-06 16:32:38.380406,889173,1609507421781271,5021692188,0.798368,0.589504,0.431392,-4.99625,-0.72625,-15.98625,-49.928,-0.944,-62.304005,eccentric,4,5.0,31308.0,33538.0,79505.0,73955.0,29314.0,43293.0,34805.0,42221.0,20173.0,15056.0
2026-05-06 16:32:38.416570,889184,1609507421791225,5021703292,0.726144,0.696864,0.445056,-1.79375,-0.2625,-13.22125,-50.24,-0.88,-63.632004,eccentric,4,5.0,31218.0,33450.0,79354.0,74057.0,29202.0,43171.0,34696.0,42244.0,20101.0,15008.0
2026-05-06 16:32:38.419068,889185,1609507421800221,5021712007,0.726144,0.696864,0.445056,4.4275,1.12875,-9.28375,-50.24,-0.88,-63.632004,eccentric,4,5.0,31218.0,33450.0,79354.0,74057.0,29202.0,43171.0,34696.0,42244.0,20101.0,15008.0
2026-05-06 16:32:38.421553,889186,1609507421814754,5021726987,0.772992,0.749568,0.421632,1.7325,3.2375,-12.55625,-50.216003,-1.232,-62.712,eccentric,4,5.0,31218.0,33450.0,79354.0,74057.0,29202.0,43171.0,34696.0,42244.0,20101.0,15008.0
2026-05-06 16:32:38.424075,889187,1609507421823800,5021735775,0.759328,0.69296,0.386496,-5.11,4.4975,-16.8,-50.272003,-1.488,-61.680004,eccentric,4,5.0,31218.0,33450.0,79354.0,74057.0,29202.0,43171.0,34696.0,42244.0,20101.0,15008.0
2026-05-06 16:32:38.430267,889188,1609507421832755,5021744547,0.759328,0.69296,0.386496,-6.83375,4.0425,-17.3775,-50.272003,-1.488,-61.680004,eccentric,4,5.0,31218.0,33450.0,79354.0,74057.0,29202.0,43171.0,34696.0,42244.0,20101.0,15008.0
2026-05-06 16:32:38.466686,889189,1609507421847243,5021759479,0.796416,0.730048,0.441152,-3.31625,2.6075,-16.21375,-50.768,-3.544,-61.064003,eccentric,4,5.0,31218.0,33450.0,79354.0,74057.0,29202.0,43171.0,34696.0,42244.0,20101.0,15008.0
2026-05-06 16:32:38.469243,889190,1609507421856209,5021768204,0.796416,0.730048,0.441152,-1.37375,1.16375,-15.86375,-50.768,-3.544,-61.064003,eccentric,4,5.0,31218.0,33450.0,79354.0,74057.0,29202.0,43171.0,34696.0,42244.0,20101.0,15008.0
2026-05-06 16:32:38.471686,889191,1609507421870746,5021783171,0.753472,0.79056,0.460672,3.78,0.2975,-14.1925,-50.320004,-1.92,-62.344,eccentric,4,5.0,31218.0,33450.0,79354.0,74057.0,29202.0,43171.0,34696.0,42244.0,20101.0,15008.0
2026-05-06 16:32:38.480251,889192,1609507421879728,5021791946,0.753472,0.79056,0.460672,8.715,-1.5225,-14.70875,-50.320004,-1.92,-62.344,eccentric,4,5.0,31218.0,33450.0,79354.0,74057.0,29202.0,43171.0,34696.0,42244.0,20101.0,15008.0
2026-05-06 16:32:38.514037,889203,1609507421894612,5021806903,0.817888,0.735904,0.407968,6.60625,-2.66,-16.0125,-50.280003,-2.032,-62.4,eccentric,4,5.0,31114.0,33428.0,79378.0,73881.0,29143.0,43197.0,34696.0,42140.0,20042.0,14973.0
2026-05-06 16:32:38.516606,889204,1609507421903711,5021815737,0.886208,0.640256,0.406016,4.55875,-2.765,-11.3925,-50.440002,-4.352,-60.728004,eccentric,4,5.0,31114.0,33428.0,79378.0,73881.0,29143.0,43197.0,34696.0,42140.0,20042.0,14973.0
2026-05-06 16:32:38.519109,889205,1609507421912726,5021824498,0.886208,0.640256,0.406016,2.38,-4.235,-7.14875,-50.440002,-4.352,-60.728004,eccentric,4,5.0,31114.0,33428.0,79378.0,73881.0,29143.0,43197.0,34696.0,42140.0,20042.0,14973.0
2026-05-06 16:32:38.527854,889206,1609507421927257,5021839526,0.815936,0.724192,0.456768,0.04375,-6.25625,-0.90125,-50.624,-5.328,-60.304005,eccentric,4,5.0,31114.0,33428.0,79378.0,73881.0,29143.0,43197.0,34696.0,42140.0,20042.0,14973.0
2026-05-06 16:32:38.536579,889207,1609507421936219,5021848279,0.815936,0.724192,0.456768,-1.575,-6.58,5.11875,-50.624,-5.328,-60.304005,eccentric,4,5.0,31114.0,33428.0,79378.0,73881.0,29143.0,43197.0,34696.0,42140.0,20042.0,14973.0
2026-05-06 16:32:38.550417,889208,1609507421950700,5021863254,0.77104,0.77104,0.495808,0.77875,-5.95875,7.32375,-50.136,-2.016,-61.936005,eccentric,4,5.0,31114.0,33428.0,79378.0,73881.0,29143.0,43197.0,34696.0,42140.0,20042.0,14973.0
2026-05-06 16:32:38.559149,889209,1609507421959629,5021871997,0.77104,0.77104,0.495808,1.51375,-5.5475,3.675,-50.136,-2.016,-61.936005,eccentric,4,5.0,31114.0,33428.0,79378.0,73881.0,29143.0,43197.0,34696.0,42140.0,20042.0,14973.0
2026-05-06 16:32:38.567888,889210,1609507421968618,5021880696,0.847168,0.665632,0.415776,-1.25125,-3.3425,1.05875,-49.696003,-2.416,-62.464005,eccentric,4,5.0,31114.0,33428.0,79378.0,73881.0,29143.0,43197.0,34696.0,42140.0,20042.0,14973.0
2026-05-06 16:32:38.585781,889211,1609507421983334,5021895776,0.847168,0.665632,0.407968,-5.355,-2.1,-1.18125,-49.696003,-2.416,-62.464005,eccentric,4,5.0,31114.0,33428.0,79378.0,73881.0,29143.0,43197.0,34696.0,42140.0,20042.0,14973.0
2026-05-06 16:32:38.671434,889222,1609507421992792,5021904574,0.823744,0.593408,0.407968,-4.8475,-1.5925,0.27125,-49.656002,-1.728,-62.056004,eccentric,4,5.0,31069.0,33423.0,79557.0,73846.0,29111.0,43153.0,34800.0,42143.0,20027.0,14964.0
2026-05-06 16:32:38.673651,889223,1609507422007407,5021919623,0.796416,0.714432,0.456768,0.63875,-1.295,3.24625,-50.24,-3.064,-61.704002,eccentric,4,5.0,31069.0,33423.0,79557.0,73846.0,29111.0,43153.0,34800.0,42143.0,20027.0,14964.0
2026-05-06 16:32:38.676561,889224,1609507422016346,5021928355,0.796416,0.714432,0.456768,3.535,-2.02125,4.69,-50.24,-3.064,-61.704002,eccentric,4,5.0,31069.0,33423.0,79557.0,73846.0,29111.0,43153.0,34800.0,42143.0,20027.0,14964.0
2026-05-06 16:32:38.681635,889225,1609507422025300,5021937091,0.755424,0.737856,0.452864,0.69125,-1.1025,3.43875,-49.792004,-1.832,-61.816,eccentric,4,5.0,31069.0,33423.0,79557.0,73846.0,29111.0,43153.0,34800.0,42143.0,20027.0,14964.0
2026-05-06 16:32:38.683999,889226,1609507422039959,5021951993,0.755424,0.737856,0.452864,-0.42,-0.56875,-0.53375,-49.792004,-1.832,-61.816,eccentric,4,5.0,31069.0,33423.0,79557.0,73846.0,29111.0,43153.0,34800.0,42143.0,20027.0,14964.0
2026-05-06 16:32:38.686476,889227,1609507422048929,5021960729,0.813984,0.622688,0.368928,0.595,-0.3325,-6.51875,-49.704002,-2.016,-63.056004,eccentric,4,5.0,31069.0,33423.0,79557.0,73846.0,29111.0,43153.0,34800.0,42143.0,20027.0,14964.0
2026-05-06 16:32:38.689141,889228,1609507422063446,5021975661,0.813984,0.622688,0.368928,4.3225,-0.27125,-7.97125,-49.704002,-2.016,-63.056004,eccentric,4,5.0,31069.0,33423.0,79557.0,73846.0,29111.0,43153.0,34800.0,42143.0,20027.0,14964.0
2026-05-06 16:32:38.691711,889229,1609507422072380,5021984392,0.755424,0.700768,0.337696,6.615,-1.53125,-6.7375,-49.184002,-1.944,-64.592,eccentric,4,5.0,31069.0,33423.0,79557.0,73846.0,29111.0,43153.0,34800.0,42143.0,20027.0,14964.0
2026-05-06 16:32:38.694156,889230,1609507422087083,5021999292,0.733952,0.753472,0.431392,4.03375,-2.6775,-5.83625,-49.264004,-2.264,-63.184002,eccentric,4,5.0,31069.0,33423.0,79557.0,73846.0,29111.0,43153.0,34800.0,42143.0,20027.0,14964.0
2026-05-06 16:32:38.721525,889241,1609507422096222,5022008169,0.733952,0.753472,0.431392,-2.625,-2.3275,-6.36125,-49.264004,-2.264,-63.184002,eccentric,4,5.0,31264.0,33560.0,79212.0,74067.0,29253.0,43284.0,34617.0,42224.0,20125.0,15044.0
2026-05-06 16:32:38.723892,889242,1609507422105350,5022016946,0.763232,0.669536,0.41968,-7.95375,-1.575,-8.61,-49.208004,-2.512,-64.600006,eccentric,4,5.0,31264.0,33560.0,79212.0,74067.0,29253.0,43284.0,34617.0,42224.0,20125.0,15044.0
2026-05-06 16:32:38.726562,889243,1609507422119905,5022031973,0.763232,0.669536,0.41968,-8.8375,0.18375,-11.75125,-49.208004,-2.512,-64.600006,eccentric,4,5.0,31264.0,33560.0,79212.0,74067.0,29253.0,43284.0,34617.0,42224.0,20125.0,15044.0
2026-05-06 16:32:38.729028,889244,1609507422128862,5022040735,0.739808,0.64416,0.365024,-3.28125,1.32125,-10.6925,-48.736004,-3.128,-63.352,eccentric,4,5.0,31264.0,33560.0,79212.0,74067.0,29253.0,43284.0,34617.0,42224.0,20125.0,15044.0
2026-05-06 16:32:38.742824,889245,1609507422143377,5022055752,0.739808,0.64416,0.365024,-0.49,1.60125,-8.70625,-48.736004,-3.128,-63.352,eccentric,4,5.0,31264.0,33560.0,79212.0,74067.0,29253.0,43284.0,34617.0,42224.0,20125.0,15044.0
2026-05-06 16:32:38.755487,889246,1609507422152297,5022064482,0.75152,0.60512,0.413824,-2.3975,1.925,-6.13375,-48.856003,-2.68,-62.912003,eccentric,4,5.0,31264.0,33560.0,79212.0,74067.0,29253.0,43284.0,34617.0,42224.0,20125.0,15044.0
2026-05-06 16:32:38.761583,889247,1609507422161304,5022073219,0.75152,0.60512,0.413824,-4.08625,3.15,-3.21125,-48.856003,-2.68,-62.912003,eccentric,4,5.0,31264.0,33560.0,79212.0,74067.0,29253.0,43284.0,34617.0,42224.0,20125.0,15044.0
2026-05-06 16:32:38.809054,889248,1609507422176000,5022088145,0.679296,0.650016,0.474336,-6.71125,5.45125,0.46375,-48.848003,-2.672,-63.440002,eccentric,4,5.0,31264.0,33560.0,79212.0,74067.0,29253.0,43284.0,34617.0,42224.0,20125.0,15044.0
2026-05-06 16:32:38.811617,889249,1609507422184968,5022096866,0.679296,0.603168,0.40016,-14.875,7.9275,-0.1575,-48.848003,-2.672,-63.440002,eccentric,4,5.0,31264.0,33560.0,79212.0,74067.0,29253.0,43284.0,34617.0,42224.0,20125.0,15044.0
2026-05-06 16:32:38.839191,889260,1609507422199545,5022111871,0.638304,0.59536,0.40016,-22.3125,11.20875,-0.63875,-48.632004,-2.416,-63.008003,eccentric,4,5.0,31141.0,33467.0,79228.0,73836.0,29131.0,43233.0,34652.0,42112.0,20030.0,15004.0
2026-05-06 16:32:38.841708,889261,1609507422208501,5022120606,0.691008,0.50752,0.327936,-19.11875,12.705,1.9425,-48.328003,-2.816,-63.824,eccentric,4,5.0,31141.0,33467.0,79228.0,73836.0,29131.0,43233.0,34652.0,42112.0,20030.0,15004.0
2026-05-06 16:32:38.844219,889262,1609507422223001,5022135603,0.691008,0.50752,0.327936,-15.91625,12.145,1.6275,-48.328003,-2.816,-63.824,eccentric,4,5.0,31141.0,33467.0,79228.0,73836.0,29131.0,43233.0,34652.0,42112.0,20030.0,15004.0
2026-05-06 16:32:38.849521,889263,1609507422231999,5022144313,0.66368,0.470432,0.42944,-13.055,10.9375,4.41,-48.456,-5.192,-61.424004,eccentric,4,5.0,31141.0,33467.0,79228.0,73836.0,29131.0,43233.0,34652.0,42112.0,20030.0,15004.0
2026-05-06 16:32:38.849891,889264,1609507422241155,5022153052,0.66368,0.470432,0.42944,-10.08,9.56375,8.26,-48.456,-5.192,-61.424004,eccentric,4,5.0,31141.0,33467.0,79228.0,73836.0,29131.0,43233.0,34652.0,42112.0,20030.0,15004.0
2026-05-06 16:32:38.860273,889265,1609507422255763,5022168076,0.62464,0.544608,0.3904,-9.52,8.68875,11.9875,-48.352,-5.776001,-61.272003,eccentric,4,5.0,31141.0,33467.0,79228.0,73836.0,29131.0,43233.0,34652.0,42112.0,20030.0,15004.0
2026-05-06 16:32:38.864306,889266,1609507422264701,5022176790,0.62464,0.544608,0.3904,-11.5325,7.41125,13.58,-48.352,-5.776001,-61.272003,eccentric,4,5.0,31141.0,33467.0,79228.0,73836.0,29131.0,43233.0,34652.0,42112.0,20030.0,15004.0
2026-05-06 16:32:38.890299,889267,1609507422279228,5022191716,0.61488,0.511424,0.40016,-17.85,6.32625,11.08625,-47.72,-1.816,-61.672005,eccentric,4,5.0,31141.0,33467.0,79228.0,73836.0,29131.0,43233.0,34652.0,42112.0,20030.0,15004.0
2026-05-06 16:32:38.892908,889268,1609507422288147,5022200498,0.60512,0.407968,0.300608,-20.44875,6.41375,10.01,-47.744003,-1.56,-63.888004,eccentric,4,5.0,31141.0,33467.0,79228.0,73836.0,29131.0,43233.0,34652.0,42112.0,20030.0,15004.0
2026-05-06 16:32:38.920299,889279,1609507422297259,5022209316,0.60512,0.407968,0.300608,-16.1175,5.20625,10.9725,-47.744003,-1.56,-63.888004,eccentric,4,5.0,31185.0,33612.0,79380.0,73739.0,29149.0,43367.0,34710.0,42077.0,20055.0,15058.0
2026-05-06 16:32:38.922918,889280,1609507422311814,5022224330,0.609024,0.40992,0.3416,-9.12625,3.80625,13.93875,-47.624,-1.216,-63.024002,eccentric,4,5.0,31185.0,33612.0,79380.0,73739.0,29149.0,43367.0,34710.0,42077.0,20055.0,15058.0
2026-05-06 16:32:38.925407,889281,1609507422320759,5022233052,0.609024,0.40992,0.3416,-4.75125,3.2025,17.605,-47.624,-1.216,-63.024002,eccentric,4,5.0,31185.0,33612.0,79380.0,73739.0,29149.0,43367.0,34710.0,42077.0,20055.0,15058.0
2026-05-06 16:32:38.934163,889282,1609507422335305,5022247988,0.579744,0.46848,0.372832,-7.805,3.1675,18.87375,-47.224003,-3.504,-62.608,eccentric,4,5.0,31185.0,33612.0,79380.0,73739.0,29149.0,43367.0,34710.0,42077.0,20055.0,15058.0
2026-05-06 16:32:38.942612,889283,1609507422344253,5022256717,0.579744,0.46848,0.372832,-14.83125,2.9225,17.94625,-47.224003,-3.504,-62.608,eccentric,4,5.0,31185.0,33612.0,79380.0,73739.0,29149.0,43367.0,34710.0,42077.0,20055.0,15058.0
2026-05-06 16:32:38.956580,889284,1609507422358755,5022269602,0.540704,0.470432,0.33184,-17.8325,3.08875,17.29875,-47.048,-1.2,-62.112003,eccentric,4,5.0,31185.0,33612.0,79380.0,73739.0,29149.0,43367.0,34710.0,42077.0,20055.0,15058.0
2026-05-06 16:32:38.991451,889285,1609507422368104,5022280335,0.579744,0.415776,0.325984,-15.12875,2.09125,17.0275,-46.592003,-0.368,-63.984,eccentric,4,5.0,31185.0,33612.0,79380.0,73739.0,29149.0,43367.0,34710.0,42077.0,20055.0,15058.0
2026-05-06 16:32:39.016655,889286,1609507422377025,5022289091,0.579744,0.415776,0.325984,-11.6725,0.49,15.02375,-46.592003,-0.368,-63.984,eccentric,4,5.0,31185.0,33612.0,79380.0,73739.0,29149.0,43367.0,34710.0,42077.0,20055.0,15058.0
2026-05-06 16:32:39.041444,889287,1609507422391509,5022304029,0.54656,0.423584,0.343552,-9.2575,-1.11125,14.1225,-46.2,-0.272,-64.32,eccentric,4,5.0,31185.0,33612.0,79380.0,73739.0,29149.0,43367.0,34710.0,42077.0,20055.0,15058.0
2026-05-06 16:32:39.089137,889298,1609507422400568,5022312805,0.54656,0.423584,0.343552,-8.435,-1.75,15.21625,-46.2,-0.272,-64.32,eccentric,4,5.0,31212.0,33665.0,79372.0,73677.0,29194.0,43394.0,34699.0,42050.0,20077.0,15086.0
2026-05-06 16:32:39.091615,889299,1609507422415140,5022327766,0.523136,0.52704,0.339648,-8.47,-2.4325,16.065,-46.112003,-0.04,-64.184006,eccentric,4,5.0,31212.0,33665.0,79372.0,73677.0,29194.0,43394.0,34699.0,42050.0,20077.0,15086.0
2026-05-06 16:32:39.094196,889300,1609507422424058,5022336536,0.523136,0.52704,0.339648,-11.17375,-2.03,14.0875,-46.112003,-0.04,-64.184006,eccentric,4,5.0,31212.0,33665.0,79372.0,73677.0,29194.0,43394.0,34699.0,42050.0,20077.0,15086.0
2026-05-06 16:32:39.100376,889301,1609507422432960,5022345233,0.581696,0.425536,0.324032,-15.8375,-1.61,8.68875,-46.032,-0.368,-64.36,eccentric,4,5.0,31212.0,33665.0,79372.0,73677.0,29194.0,43394.0,34699.0,42050.0,20077.0,15086.0
2026-05-06 16:32:39.102955,889302,1609507422447526,5022360203,0.564128,0.366976,0.339648,-18.47125,-0.28,4.38375,-45.648003,0.456,-62.744003,eccentric,4,5.0,31212.0,33665.0,79372.0,73677.0,29194.0,43394.0,34699.0,42050.0,20077.0,15086.0
2026-05-06 16:32:39.105408,889303,1609507422456471,5022368904,0.564128,0.366976,0.339648,-15.6625,-0.53375,4.27,-45.648003,0.456,-62.744003,eccentric,4,5.0,31212.0,33665.0,79372.0,73677.0,29194.0,43394.0,34699.0,42050.0,20077.0,15086.0
2026-05-06 16:32:39.107879,889304,1609507422471073,5022381862,0.569984,0.460672,0.337696,-10.9025,-0.455,7.035,-46.032,0.288,-64.43201,eccentric,4,5.0,31212.0,33665.0,79372.0,73677.0,29194.0,43394.0,34699.0,42050.0,20077.0,15086.0
2026-05-06 16:32:39.110414,889305,1609507422480343,5022392663,0.569984,0.460672,0.337696,-9.2225,0.07875,7.5425,-46.032,0.288,-64.43201,eccentric,4,5.0,31212.0,33665.0,79372.0,73677.0,29194.0,43394.0,34699.0,42050.0,20077.0,15086.0
2026-05-06 16:32:39.140011,889317,1609507422495638,5022407621,0.550464,0.472384,0.353312,-10.14125,1.785,5.11875,-45.88,-0.88,-63.760002,eccentric,4,5.0,31218.0,33645.0,79283.0,73652.0,29208.0,43403.0,34672.0,42058.0,20071.0,15093.0
2026-05-06 16:32:39.142657,889318,1609507422504699,5022416329,0.550464,0.472384,0.353312,-8.82875,3.325,4.34875,-45.88,-0.88,-63.760002,eccentric,4,5.0,31218.0,33645.0,79283.0,73652.0,29208.0,43403.0,34672.0,42058.0,20071.0,15093.0
2026-05-06 16:32:39.145230,889319,1609507422513669,5022425078,0.62464,0.372832,0.353312,-9.3975,3.43875,2.1175,-45.352,0.44,-64.984,eccentric,4,5.0,31218.0,33645.0,79283.0,73652.0,29208.0,43403.0,34672.0,42058.0,20071.0,15093.0
2026-05-06 16:32:39.147735,889320,1609507422528365,5022440107,0.587552,0.42944,0.353312,-10.386251,3.3425,2.28375,-45.672,-1.304,-63.944004,eccentric,4,5.0,31218.0,33645.0,79283.0,73652.0,29208.0,43403.0,34672.0,42058.0,20071.0,15093.0
2026-05-06 16:32:39.150213,889321,1609507422537434,5022448900,0.587552,0.42944,0.353312,-10.395,1.58375,4.865,-45.672,-1.304,-63.944004,eccentric,4,5.0,31218.0,33645.0,79283.0,73652.0,29208.0,43403.0,34672.0,42058.0,20071.0,15093.0
2026-05-06 16:32:39.152828,889322,1609507422546430,5022457715,0.587552,0.42944,0.353312,-10.52625,-0.04375,5.635,-45.672,-1.304,-63.944004,eccentric,4,5.0,31218.0,33645.0,79283.0,73652.0,29208.0,43403.0,34672.0,42058.0,20071.0,15093.0
2026-05-06 16:32:39.159100,889323,1609507422560965,5022472635,0.579744,0.445056,0.318176,-7.83125,-0.32375,6.22125,-44.928,0.328,-64.728004,eccentric,4,5.0,31218.0,33645.0,79283.0,73652.0,29208.0,43403.0,34672.0,42058.0,20071.0,15093.0
2026-05-06 16:32:39.172824,889324,1609507422569979,5022481338,0.61488,0.368928,0.372832,-9.59875,-0.77875,3.64875,-45.104004,-2.744,-63.424004,eccentric,4,5.0,31218.0,33645.0,79283.0,73652.0,29208.0,43403.0,34672.0,42058.0,20071.0,15093.0
2026-05-06 16:32:39.186577,889325,1609507422584472,5022496318,0.61488,0.368928,0.372832,-8.8375,-0.23625,3.50875,-45.104004,-2.744,-63.424004,eccentric,4,5.0,31218.0,33645.0,79283.0,73652.0,29208.0,43403.0,34672.0,42058.0,20071.0,15093.0
2026-05-06 16:32:39.192859,889326,1609507422593505,5022505098,0.597312,0.425536,0.357216,-4.89125,0.09625,6.29125,-45.336002,-1.328,-64.80801,eccentric,4,5.0,31218.0,33645.0,79283.0,73652.0,29208.0,43403.0,34672.0,42058.0,20071.0,15093.0
2026-05-06 16:32:39.223987,889337,1609507422608121,5022520126,0.597312,0.441152,0.355264,-3.29875,-0.21875,8.9425,-45.336002,-1.328,-64.80801,eccentric,4,5.0,31156.0,33640.0,79274.0,73678.0,29147.0,43357.0,34666.0,42031.0,20035.0,15070.0
2026-05-06 16:32:39.228237,889338,1609507422617055,5022528923,0.591456,0.441152,0.355264,-2.9575,-0.665,9.1175,-45.064003,0.688,-63.520004,eccentric,4,5.0,31156.0,33640.0,79274.0,73678.0,29147.0,43357.0,34666.0,42031.0,20035.0,15070.0
2026-05-06 16:32:39.229912,889339,1609507422626171,5022537648,0.591456,0.441152,0.355264,-3.98125,-1.3125,6.825,-45.064003,0.688,-63.520004,eccentric,4,5.0,31156.0,33640.0,79274.0,73678.0,29147.0,43357.0,34666.0,42031.0,20035.0,15070.0
2026-05-06 16:32:39.242756,889340,1609507422640704,5022552596,0.603168,0.38064,0.327936,-4.33125,-1.5225,5.99375,-44.904003,-2.08,-64.384,eccentric,4,5.0,31156.0,33640.0,79274.0,73678.0,29147.0,43357.0,34666.0,42031.0,20035.0,15070.0
2026-05-06 16:32:39.249007,889341,1609507422649644,5022561315,0.599264,0.396256,0.343552,-0.51625,-1.05875,7.98875,-44.664,1.024,-66.96001,eccentric,4,5.0,31156.0,33640.0,79274.0,73678.0,29147.0,43357.0,34666.0,42031.0,20035.0,15070.0
2026-05-06 16:32:39.262708,889342,1609507422664114,5022576338,0.599264,0.396256,0.343552,0.7525,-0.39375,9.19625,-44.664,1.024,-66.96001,eccentric,4,5.0,31156.0,33640.0,79274.0,73678.0,29147.0,43357.0,34666.0,42031.0,20035.0,15070.0
2026-05-06 16:32:39.271564,889343,1609507422673024,5022585057,0.579744,0.445056,0.318176,-1.04125,0.1225,10.605001,-44.280003,1.08,-64.920006,eccentric,4,5.0,31156.0,33640.0,79274.0,73678.0,29147.0,43357.0,34666.0,42031.0,20035.0,15070.0
2026-05-06 16:32:39.280348,889344,1609507422682044,5022593755,0.579744,0.445056,0.318176,-2.415,0.46375,8.9075,-44.280003,1.08,-64.920006,eccentric,4,5.0,31156.0,33640.0,79274.0,73678.0,29147.0,43357.0,34666.0,42031.0,20035.0,15070.0
2026-05-06 16:32:39.321550,889355,1609507422697044,5022608843,0.59536,0.411872,0.298656,-5.6,0.21875,5.075,-44.448,-0.64,-64.07201,eccentric,4,5.0,31194.0,33627.0,79215.0,73600.0,29124.0,43342.0,34611.0,41997.0,20014.0,15052.0
2026-05-06 16:32:39.324711,889356,1609507422706112,5022617658,0.59536,0.411872,0.298656,0.105,-0.2275,4.87375,-44.448,-0.64,-64.07201,eccentric,4,5.0,31194.0,33627.0,79215.0,73600.0,29124.0,43342.0,34611.0,41997.0,20014.0,15052.0
2026-05-06 16:32:39.326336,889357,1609507422720689,5022632693,0.626592,0.368928,0.329888,4.1125,-1.1025,2.835,-44.368004,-0.272,-65.536,eccentric,4,5.0,31194.0,33627.0,79215.0,73600.0,29124.0,43342.0,34611.0,41997.0,20014.0,15052.0
2026-05-06 16:32:39.329025,889358,1609507422729663,5022641429,0.587552,0.435296,0.33184,6.65875,-1.58375,3.31625,-44.544003,1.368,-66.888,eccentric,4,5.0,31194.0,33627.0,79215.0,73600.0,29124.0,43342.0,34611.0,41997.0,20014.0,15052.0
2026-05-06 16:32:39.365396,889359,1609507422738601,5022650178,0.587552,0.435296,0.33184,9.7125,-1.3125,4.43625,-44.544003,1.368,-66.888,eccentric,4,5.0,31194.0,33627.0,79215.0,73600.0,29124.0,43342.0,34611.0,41997.0,20014.0,15052.0
2026-05-06 16:32:39.387533,889360,1609507422753167,5022665088,0.638304,0.413824,0.365024,6.1775,-1.68875,1.63625,-44.112003,1.384,-65.056,eccentric,4,5.0,31194.0,33627.0,79215.0,73600.0,29124.0,43342.0,34611.0,41997.0,20014.0,15052.0
2026-05-06 16:32:39.389869,889361,1609507422762092,5022673776,0.638304,0.413824,0.365024,2.47625,-0.56875,-2.23125,-44.112003,1.384,-65.056,eccentric,4,5.0,31194.0,33627.0,79215.0,73600.0,29124.0,43342.0,34611.0,41997.0,20014.0,15052.0
2026-05-06 16:32:39.392438,889362,1609507422776579,5022688704,0.620736,0.437248,0.333792,3.78,0.49,-1.32125,-44.392002,1.648,-64.616005,eccentric,4,5.0,31194.0,33627.0,79215.0,73600.0,29124.0,43342.0,34611.0,41997.0,20014.0,15052.0
2026-05-06 16:32:39.394932,889363,1609507422785553,5022697479,0.620736,0.437248,0.333792,4.62,1.11125,-1.89875,-44.392002,1.648,-64.616005,eccentric,4,5.0,31194.0,33627.0,79215.0,73600.0,29124.0,43342.0,34611.0,41997.0,20014.0,15052.0
2026-05-06 16:32:39.450367,889374,1609507422800274,5022712401,0.646112,0.394304,0.365024,5.62625,1.58375,-4.27875,-44.216003,1.504,-65.01601,eccentric,4,5.0,31119.0,33591.0,79208.0,73592.0,29102.0,43308.0,34620.0,42008.0,20021.0,15047.0
2026-05-06 16:32:39.452925,889375,1609507422809378,5022721331,0.646112,0.394304,0.404064,9.38875,2.56375,-3.92,-44.216003,1.504,-65.01601,eccentric,4,5.0,31119.0,33591.0,79208.0,73592.0,29102.0,43308.0,34620.0,42008.0,20021.0,15047.0
2026-05-06 16:32:39.455393,889376,1609507422818302,5022730111,0.65392,0.450912,0.404064,11.31375,1.89875,-2.51125,-44.320004,-0.544,-65.208,eccentric,4,5.0,31119.0,33591.0,79208.0,73592.0,29102.0,43308.0,34620.0,42008.0,20021.0,15047.0
2026-05-06 16:32:39.457829,889377,1609507422832794,5022745098,0.650016,0.466528,0.33184,9.0125,2.59,-1.1025,-44.704002,1.336,-64.576004,eccentric,4,5.0,31119.0,33591.0,79208.0,73592.0,29102.0,43308.0,34620.0,42008.0,20021.0,15047.0
2026-05-06 16:32:39.460389,889378,1609507422841719,5022753806,0.650016,0.466528,0.33184,1.2425,3.61375,-2.0475,-44.704002,1.336,-64.576004,eccentric,4,5.0,31119.0,33591.0,79208.0,73592.0,29102.0,43308.0,34620.0,42008.0,20021.0,15047.0
2026-05-06 16:32:39.462861,889379,1609507422856282,5022768790,0.648064,0.41968,0.35136,-2.19625,4.13,-3.6575,-44.632004,1.672,-64.904,eccentric,4,5.0,31119.0,33591.0,79208.0,73592.0,29102.0,43308.0,34620.0,42008.0,20021.0,15047.0
2026-05-06 16:32:39.465435,889380,1609507422865250,5022777527,0.648064,0.41968,0.35136,-0.385,3.8675,-3.80625,-44.632004,1.672,-64.904,eccentric,4,5.0,31119.0,33591.0,79208.0,73592.0,29102.0,43308.0,34620.0,42008.0,20021.0,15047.0
2026-05-06 16:32:39.479191,889381,1609507422879788,5022792471,0.665632,0.486048,0.402112,3.43,3.47375,-2.3975,-44.344,1.16,-64.776,eccentric,4,5.0,31119.0,33591.0,79208.0,73592.0,29102.0,43308.0,34620.0,42008.0,20021.0,15047.0
2026-05-06 16:32:39.487918,889382,1609507422888654,5022801177,0.665632,0.486048,0.402112,4.69875,3.22875,-1.74125,-44.344,1.16,-64.776,eccentric,4,5.0,31119.0,33591.0,79208.0,73592.0,29102.0,43308.0,34620.0,42008.0,20021.0,15047.0
2026-05-06 16:32:39.523975,889393,1609507422898002,5022809994,0.669536,0.476288,0.402112,3.0975,3.08875,-4.08625,-44.408,1.416,-65.048004,eccentric,4,5.0,31123.0,33545.0,79048.0,73659.0,29098.0,43309.0,34562.0,42041.0,20033.0,15046.0
2026-05-06 16:32:39.526534,889394,1609507422912760,5022825127,0.69296,0.421632,0.394304,1.8025,3.64875,-5.635,-44.672,-1.296,-62.088,eccentric,4,5.0,31123.0,33545.0,79048.0,73659.0,29098.0,43309.0,34562.0,42041.0,20033.0,15046.0
2026-05-06 16:32:39.528796,889395,1609507422921763,5022833846,0.69296,0.421632,0.394304,1.05,3.605,-6.27375,-44.672,-1.296,-62.088,eccentric,4,5.0,31123.0,33545.0,79048.0,73659.0,29098.0,43309.0,34562.0,42041.0,20033.0,15046.0
2026-05-06 16:32:39.535285,889396,1609507422936305,5022848833,0.655872,0.470432,0.374784,0.37625,3.99,-5.88,-44.792004,-1.752,-62.656002,eccentric,4,5.0,31123.0,33545.0,79048.0,73659.0,29098.0,43309.0,34562.0,42041.0,20033.0,15046.0
2026-05-06 16:32:39.543890,889397,1609507422945246,5022857548,0.655872,0.470432,0.374784,1.35625,4.6375,-4.8125,-44.792004,-1.752,-62.656002,eccentric,4,5.0,31123.0,33545.0,79048.0,73659.0,29098.0,43309.0,34562.0,42041.0,20033.0,15046.0
2026-05-06 16:32:39.557924,889398,1609507422954182,5022866254,0.661728,0.470432,0.384544,-0.16625,5.36375,-5.73125,-44.328003,1.36,-64.576004,eccentric,4,5.0,31123.0,33545.0,79048.0,73659.0,29098.0,43309.0,34562.0,42041.0,20033.0,15046.0
2026-05-06 16:32:39.566712,889399,1609507422968711,5022881193,0.661728,0.470432,0.384544,0.21,5.5825,-5.99375,-44.328003,1.36,-64.576004,eccentric,4,5.0,31123.0,33545.0,79048.0,73659.0,29098.0,43309.0,34562.0,42041.0,20033.0,15046.0
2026-05-06 16:36:40.980128,934828,1609507664349202,5264261514,0.67344,0.347456,0.534848,1.02375,-0.6125,-15.25125,-43.168003,4.536,-66.248,concentric,4,5.0,27881.0,32760.0,88966.0,88440.0,24622.0,40605.0,38833.0,50247.0,16868.0,13615.0
2026-05-06 16:36:40.982633,934829,1609507664358188,5264270329,0.67344,0.349408,0.523136,0.63875,-0.4025,-16.73,-43.312,4.088,-66.424,concentric,4,5.0,27881.0,32760.0,88966.0,88440.0,24622.0,40605.0,38833.0,50247.0,16868.0,13615.0
2026-05-06 16:36:40.985346,934830,1609507664372813,5264285313,0.67344,0.349408,0.523136,-0.09625,-0.83125,-17.43,-43.312,4.088,-66.424,concentric,4,5.0,27881.0,32760.0,88966.0,88440.0,24622.0,40605.0,38833.0,50247.0,16868.0,13615.0
2026-05-06 16:36:40.991591,934831,1609507664381750,5264294024,0.700768,0.318176,0.50752,-1.33,-1.015,-18.62,-43.160004,2.392,-65.04,concentric,4,5.0,27881.0,32760.0,88966.0,88440.0,24622.0,40605.0,38833.0,50247.0,16868.0,13615.0
2026-05-06 16:36:41.005442,934832,1609507664396399,5264309051,0.700768,0.318176,0.564128,-1.68875,-0.9275,-17.99875,-43.160004,2.392,-65.04,concentric,4,5.0,27881.0,32760.0,88966.0,88440.0,24622.0,40605.0,38833.0,50247.0,16868.0,13615.0
2026-05-06 16:36:41.014183,934833,1609507664405325,5264317720,0.685152,0.345504,0.564128,-0.70875,-1.085,-16.84375,-43.24,3.112,-67.048004,concentric,4,5.0,27881.0,32760.0,88966.0,88440.0,24622.0,40605.0,38833.0,50247.0,16868.0,13615.0
2026-05-06 16:36:41.022949,934834,1609507664414361,5264326444,0.685152,0.345504,0.564128,0.5425,-0.77,-15.155,-43.24,3.112,-67.048004,concentric,4,5.0,27881.0,32760.0,88966.0,88440.0,24622.0,40605.0,38833.0,50247.0,16868.0,13615.0
2026-05-06 16:36:41.060422,934835,1609507664428875,5264341371,0.691008,0.376736,0.550464,0.79625,-0.35,-14.175,-43.824,3.52,-66.424,concentric,4,5.0,27881.0,32760.0,88966.0,88440.0,24622.0,40605.0,38833.0,50247.0,16868.0,13615.0
2026-05-06 16:36:41.062850,934836,1609507664437839,5264350105,0.714432,0.357216,0.57584,-0.90125,-0.91,-14.18375,-43.288002,3.704,-66.736,concentric,4,5.0,27881.0,32760.0,88966.0,88440.0,24622.0,40605.0,38833.0,50247.0,16868.0,13615.0
2026-05-06 16:36:41.090524,934847,1609507664452392,5264365125,0.714432,0.357216,0.57584,-2.10875,-1.18125,-13.895,-43.288002,3.704,-66.736,concentric,4,5.0,27693.0,32755.0,88801.0,88453.0,24491.0,40603.0,38770.0,50285.0,16782.0,13599.0
2026-05-06 16:36:41.093021,934848,1609507664461320,5264373875,0.6832,0.339648,0.568032,-2.7475,-0.77,-12.8975,-43.272003,2.872,-66.336006,concentric,4,5.0,27693.0,32755.0,88801.0,88453.0,24491.0,40603.0,38770.0,50285.0,16782.0,13599.0
2026-05-06 16:36:41.095580,934849,1609507664475906,5264386757,0.6832,0.339648,0.568032,-1.81125,-0.28875,-10.8675,-43.272003,2.872,-66.336006,concentric,4,5.0,27693.0,32755.0,88801.0,88453.0,24491.0,40603.0,38770.0,50285.0,16782.0,13599.0
2026-05-06 16:36:41.097948,934850,1609507664485242,5264397551,0.6832,0.37088,0.59536,-2.73,-0.245,-8.855001,-43.36,-0.736,-63.864002,concentric,4,5.0,27693.0,32755.0,88801.0,88453.0,24491.0,40603.0,38770.0,50285.0,16782.0,13599.0
2026-05-06 16:36:41.101671,934851,1609507664494223,5264406280,0.6832,0.37088,0.59536,-3.64,0.245,-7.21875,-43.36,-0.736,-63.864002,concentric,4,5.0,27693.0,32755.0,88801.0,88453.0,24491.0,40603.0,38770.0,50285.0,16782.0,13599.0
2026-05-06 16:36:41.137521,934852,1609507664508727,5264421291,0.685152,0.355264,0.540704,-5.08375,0.62125,-6.85125,-43.208,0.488,-65.192,concentric,4,5.0,27693.0,32755.0,88801.0,88453.0,24491.0,40603.0,38770.0,50285.0,16782.0,13599.0
2026-05-06 16:36:41.137892,934853,1609507664517710,5264429984,0.685152,0.320128,0.525088,-5.06625,0.0175,-6.615,-43.208,0.488,-69.288,concentric,4,5.0,27693.0,32755.0,88801.0,88453.0,24491.0,40603.0,38770.0,50285.0,16782.0,13599.0
2026-05-06 16:36:41.140329,934854,1609507664532321,5264445067,0.679296,0.320128,0.525088,-3.61375,-0.34125,-5.88,-43.496002,3.08,-68.96001,concentric,4,5.0,27693.0,32755.0,88801.0,88453.0,24491.0,40603.0,38770.0,50285.0,16782.0,13599.0
2026-05-06 16:36:41.173191,934855,1609507664541283,5264453779,0.651968,0.339648,0.486048,-3.33375,-0.60375,-4.68125,-43.416,1.504,-65.44,concentric,4,5.0,27693.0,32755.0,88801.0,88453.0,24491.0,40603.0,38770.0,50285.0,16782.0,13599.0
2026-05-06 16:36:41.230929,934866,1609507664550337,5264462553,0.651968,0.339648,0.486048,-2.835,-1.09375,-2.5375,-43.416,1.504,-65.44,concentric,4,5.0,27637.0,32575.0,88737.0,88143.0,24476.0,40450.0,38752.0,50102.0,16761.0,13545.0
2026-05-06 16:36:41.232799,934867,1609507664564950,5264477517,0.64416,0.325984,0.505568,-3.99875,-1.435,-1.40875,-43.840004,3.112,-64.896,concentric,4,5.0,27637.0,32575.0,88737.0,88143.0,24476.0,40450.0,38752.0,50102.0,16761.0,13545.0
2026-05-06 16:36:41.235322,934868,1609507664573895,5264486210,0.64416,0.325984,0.505568,-4.55875,-1.7675,-1.65375,-43.840004,3.112,-64.896,concentric,4,5.0,27637.0,32575.0,88737.0,88143.0,24476.0,40450.0,38752.0,50102.0,16761.0,13545.0
2026-05-06 16:36:41.239210,934869,1609507664588405,5264501076,0.66368,0.318176,0.544608,-4.52375,-2.10875,-1.05,-43.448,3.312,-66.43201,concentric,4,5.0,27637.0,32575.0,88737.0,88143.0,24476.0,40450.0,38752.0,50102.0,16761.0,13545.0
2026-05-06 16:36:41.240663,934870,1609507664597303,5264509795,0.66368,0.318176,0.544608,-4.9875,-3.10625,0.67375,-43.448,3.312,-66.43201,concentric,4,5.0,27637.0,32575.0,88737.0,88143.0,24476.0,40450.0,38752.0,50102.0,16761.0,13545.0
2026-05-06 16:36:41.244030,934871,1609507664611838,5264522668,0.650016,0.339648,0.530944,-4.55875,-3.3775,1.5925,-43.36,3.4,-67.36,concentric,4,5.0,27637.0,32575.0,88737.0,88143.0,24476.0,40450.0,38752.0,50102.0,16761.0,13545.0
2026-05-06 16:36:41.245147,934872,1609507664621153,5264533508,0.650016,0.314272,0.503616,-5.1625,-3.82375,0.76125,-43.2,2.896,-66.656006,concentric,4,5.0,27637.0,32575.0,88737.0,88143.0,24476.0,40450.0,38752.0,50102.0,16761.0,13545.0
2026-05-06 16:36:41.247835,934873,1609507664630265,5264542241,0.650016,0.314272,0.503616,-4.36625,-3.535,-0.245,-43.2,2.896,-66.656006,concentric,4,5.0,27637.0,32575.0,88737.0,88143.0,24476.0,40450.0,38752.0,50102.0,16761.0,13545.0
2026-05-06 16:36:41.281943,934884,1609507664644809,5264557365,0.648064,0.294752,0.476288,-3.7975,-3.0275,-0.315,-43.640003,2.784,-67.08,concentric,4,5.0,28967.0,33822.0,90339.0,87335.0,25801.0,42097.0,39713.0,49621.0,17606.0,14327.0
2026-05-06 16:36:41.284138,934885,1609507664653804,5264566183,0.648064,0.294752,0.476288,-4.31375,-2.63375,0.32375,-43.640003,2.784,-67.08,concentric,4,5.0,28967.0,33822.0,90339.0,87335.0,25801.0,42097.0,39713.0,49621.0,17606.0,14327.0
2026-05-06 16:36:41.286996,934886,1609507664668322,5264579165,0.65392,0.31232,0.470432,-7.42,-2.31875,0.525,-43.800003,-0.424,-64.312004,concentric,4,5.0,28967.0,33822.0,90339.0,87335.0,25801.0,42097.0,39713.0,49621.0,17606.0,14327.0
2026-05-06 16:36:41.289563,934887,1609507664677620,5264589979,0.65392,0.31232,0.470432,-10.00125,-0.90125,0.4025,-43.800003,-0.424,-64.312004,concentric,4,5.0,28967.0,33822.0,90339.0,87335.0,25801.0,42097.0,39713.0,49621.0,17606.0,14327.0
2026-05-06 16:36:41.295564,934888,1609507664686607,5264598736,0.630496,0.310368,0.447008,-10.61375,-0.56875,-0.21,-43.616,1.744,-65.408005,concentric,4,5.0,28967.0,33822.0,90339.0,87335.0,25801.0,42097.0,39713.0,49621.0,17606.0,14327.0
2026-05-06 16:36:41.309570,934889,1609507664701225,5264613681,0.657824,0.294752,0.480192,-5.99375,-0.76125,-0.35,-43.656002,3.416,-66.69601,concentric,4,5.0,28967.0,33822.0,90339.0,87335.0,25801.0,42097.0,39713.0,49621.0,17606.0,14327.0
2026-05-06 16:36:41.317845,934890,1609507664710191,5264622411,0.657824,0.294752,0.480192,-2.8,-0.44625,-1.3825,-43.656002,3.416,-66.69601,concentric,4,5.0,28967.0,33822.0,90339.0,87335.0,25801.0,42097.0,39713.0,49621.0,17606.0,14327.0
2026-05-06 16:36:41.365679,934891,1609507664724747,5264637411,0.626592,0.347456,0.476288,-1.3125,-0.5775,-0.14,-43.648003,1.664,-66.376,concentric,4,5.0,28967.0,33822.0,90339.0,87335.0,25801.0,42097.0,39713.0,49621.0,17606.0,14327.0
2026-05-06 16:36:41.367707,934892,1609507664733699,5264646106,0.626592,0.347456,0.476288,-0.98875,-1.42625,1.47,-43.648003,1.664,-66.376,concentric,4,5.0,28967.0,33822.0,90339.0,87335.0,25801.0,42097.0,39713.0,49621.0,17606.0,14327.0
2026-05-06 16:36:41.375690,934893,1609507664742723,5264654907,0.6344,0.376736,0.40016,-4.29625,-0.84,2.485,-43.512,3.272,-67.12,concentric,4,5.0,28967.0,33822.0,90339.0,87335.0,25801.0,42097.0,39713.0,49621.0,17606.0,14327.0
2026-05-06 16:36:41.405802,934904,1609507664757334,5264669877,0.6344,0.376736,0.40016,-10.36,-0.34125,-1.3475,-43.512,3.272,-67.12,concentric,4,5.0,30448.0,35074.0,92208.0,86958.0,27305.0,43670.0,40774.0,49392.0,18504.0,14968.0
2026-05-06 16:36:41.408308,934905,1609507664766244,5264678684,0.616832,0.3416,0.456768,-10.1325,-0.8925,-3.68375,-43.56,3.552,-66.648,concentric,4,5.0,30448.0,35074.0,92208.0,86958.0,27305.0,43670.0,40774.0,49392.0,18504.0,14968.0
2026-05-06 16:36:41.410783,934906,1609507664780887,5264691698,0.640256,0.308416,0.540704,-5.355,-1.77625,-4.9525,-43.664,0.32,-66.472,concentric,4,5.0,30448.0,35074.0,92208.0,86958.0,27305.0,43670.0,40774.0,49392.0,18504.0,14968.0
2026-05-06 16:36:41.413320,934907,1609507664790362,5264702499,0.640256,0.308416,0.540704,-1.86375,-2.975,-5.38125,-43.664,0.32,-66.472,concentric,4,5.0,30448.0,35074.0,92208.0,86958.0,27305.0,43670.0,40774.0,49392.0,18504.0,14968.0
2026-05-06 16:36:41.418199,934908,1609507664799336,5264711223,0.640256,0.308416,0.519232,-2.0125,-3.29875,-4.305,-43.664,0.32,-66.472,concentric,4,5.0,30448.0,35074.0,92208.0,86958.0,27305.0,43670.0,40774.0,49392.0,18504.0,14968.0
2026-05-06 16:36:41.421536,934909,1609507664813885,5264726183,0.630496,0.308416,0.519232,-5.74,-2.65125,-3.08875,-43.88,-0.088,-64.736,concentric,4,5.0,30448.0,35074.0,92208.0,86958.0,27305.0,43670.0,40774.0,49392.0,18504.0,14968.0
2026-05-06 16:36:41.435340,934910,1609507664822878,5264734900,0.640256,0.300608,0.44896,-10.49125,-0.70875,-1.3825,-43.632004,3.592,-66.984,concentric,4,5.0,30448.0,35074.0,92208.0,86958.0,27305.0,43670.0,40774.0,49392.0,18504.0,14968.0
2026-05-06 16:36:41.449394,934911,1609507664837513,5264749854,0.640256,0.300608,0.44896,-13.29125,0.7875,-1.26,-43.632004,3.592,-66.984,concentric,4,5.0,30448.0,35074.0,92208.0,86958.0,27305.0,43670.0,40774.0,49392.0,18504.0,14968.0
2026-05-06 16:36:41.486493,934922,1609507664846421,5264758793,0.638304,0.339648,0.499712,-13.448751,1.855,-1.60125,-43.648003,3.832,-66.872,concentric,4,5.0,30186.0,35075.0,92446.0,87182.0,27003.0,43601.0,40866.0,49499.0,18306.0,14957.0
2026-05-06 16:36:41.488990,934923,1609507664856052,5264767762,0.638304,0.339648,0.499712,-9.5725,2.5375,-1.8725,-43.648003,3.832,-66.872,concentric,4,5.0,30186.0,35075.0,92446.0,87182.0,27003.0,43601.0,40866.0,49499.0,18306.0,14957.0
2026-05-06 16:36:41.491604,934924,1609507664870621,5264782802,0.60512,0.363072,0.521184,-6.1075,2.31,-4.34,-43.904003,1.656,-66.04,concentric,4,5.0,30186.0,35075.0,92446.0,87182.0,27003.0,43601.0,40866.0,49499.0,18306.0,14957.0
2026-05-06 16:36:41.494547,934925,1609507664879604,5264791558,0.60512,0.363072,0.521184,-3.6225,2.59875,-9.485,-43.904003,1.656,-66.04,concentric,4,5.0,30186.0,35075.0,92446.0,87182.0,27003.0,43601.0,40866.0,49499.0,18306.0,14957.0
2026-05-06 16:36:41.504696,934926,1609507664894150,5264806515,0.603168,0.27328,0.51728,-3.85,4.34875,-11.27,-44.04,1.936,-64.136,concentric,4,5.0,30186.0,35075.0,92446.0,87182.0,27003.0,43601.0,40866.0,49499.0,18306.0,14957.0
2026-05-06 16:36:41.511838,934927,1609507664903106,5264815223,0.638304,0.222528,0.495808,-5.64375,6.15125,-9.31875,-44.032,3.696,-66.43201,concentric,4,5.0,30186.0,35075.0,92446.0,87182.0,27003.0,43601.0,40866.0,49499.0,18306.0,14957.0
2026-05-06 16:36:41.541104,934928,1609507664917588,5264830165,0.638304,0.222528,0.495808,-9.44125,8.07625,-7.46375,-44.032,3.696,-66.43201,concentric,4,5.0,30186.0,35075.0,92446.0,87182.0,27003.0,43601.0,40866.0,49499.0,18306.0,14957.0
2026-05-06 16:36:41.565801,934929,1609507664926501,5264838912,0.610976,0.2928,0.431392,-10.22875,9.66875,-3.2725,-44.192,3.392,-66.424,concentric,4,5.0,30186.0,35075.0,92446.0,87182.0,27003.0,43601.0,40866.0,49499.0,18306.0,14957.0
2026-05-06 16:36:41.583280,934930,1609507664935518,5264847720,0.610976,0.2928,0.431392,-5.08375,11.03375,-1.19875,-44.192,3.392,-66.424,concentric,4,5.0,30186.0,35075.0,92446.0,87182.0,27003.0,43601.0,40866.0,49499.0,18306.0,14957.0
2026-05-06 16:36:41.611114,934941,1609507664950640,5264862838,0.564128,0.402112,0.486048,0.72625,12.0575,-3.50875,-43.920002,3.664,-66.552,concentric,4,5.0,29331.0,34832.0,91574.0,87824.0,26091.0,43119.0,40328.0,49832.0,17780.0,14779.0
2026-05-06 16:36:41.613965,934942,1609507664959630,5264871535,0.564128,0.402112,0.486048,4.27,10.9025,-8.47,-43.920002,3.664,-66.552,concentric,4,5.0,29331.0,34832.0,91574.0,87824.0,26091.0,43119.0,40328.0,49832.0,17780.0,14779.0
2026-05-06 16:36:41.615512,934943,1609507664974138,5264886525,0.60512,0.286944,0.51728,3.22875,9.93125,-14.28,-44.128002,3.352,-67.048004,concentric,4,5.0,29331.0,34832.0,91574.0,87824.0,26091.0,43119.0,40328.0,49832.0,17780.0,14779.0
2026-05-06 16:36:41.617708,934944,1609507664983069,5264895274,0.632448,0.242048,0.491904,1.085,9.52,-15.3475,-44.672,3.104,-66.144005,concentric,4,5.0,29331.0,34832.0,91574.0,87824.0,26091.0,43119.0,40328.0,49832.0,17780.0,14779.0
2026-05-06 16:36:41.620208,934945,1609507664992115,5264904054,0.632448,0.242048,0.491904,-2.28375,9.52875,-12.73125,-44.672,3.104,-66.144005,concentric,4,5.0,29331.0,34832.0,91574.0,87824.0,26091.0,43119.0,40328.0,49832.0,17780.0,14779.0
2026-05-06 16:36:41.622612,934946,1609507665006652,5264919021,0.61488,0.28304,0.519232,-4.97875,9.975,-9.42375,-44.416,3.512,-65.304,concentric,4,5.0,29331.0,34832.0,91574.0,87824.0,26091.0,43119.0,40328.0,49832.0,17780.0,14779.0
2026-05-06 16:36:41.625207,934947,1609507665015684,5264927872,0.61488,0.28304,0.519232,-3.08875,9.24,-6.37,-44.416,3.512,-65.304,concentric,4,5.0,29331.0,34832.0,91574.0,87824.0,26091.0,43119.0,40328.0,49832.0,17780.0,14779.0
2026-05-06 16:36:41.639101,934948,1609507665030227,5264942872,0.583648,0.427488,0.503616,1.63625,8.365,-5.27625,-44.384003,2.84,-65.112,concentric,4,5.0,29331.0,34832.0,91574.0,87824.0,26091.0,43119.0,40328.0,49832.0,17780.0,14779.0
2026-05-06 16:36:41.648168,934949,1609507665039152,5264951562,0.583648,0.427488,0.503616,4.4975,7.72625,-8.085,-44.384003,2.84,-65.112,concentric,4,5.0,29331.0,34832.0,91574.0,87824.0,26091.0,43119.0,40328.0,49832.0,17780.0,14779.0
2026-05-06 16:36:41.681974,934960,1609507665053892,5264966579,0.593408,0.382592,0.464576,4.165,7.63875,-13.265,-44.864002,1.624,-64.096,concentric,4,5.0,28735.0,34077.0,91041.0,88094.0,25549.0,42289.0,39962.0,49996.0,17469.0,14451.0
2026-05-06 16:36:41.684151,934961,1609507665062885,5264975472,0.618784,0.33184,0.552416,2.82625,7.83125,-17.54375,-44.592003,0.88,-63.752003,concentric,4,5.0,28735.0,34077.0,91041.0,88094.0,25549.0,42289.0,39962.0,49996.0,17469.0,14451.0
2026-05-06 16:36:41.688443,934962,1609507665071863,5264984249,0.618784,0.33184,0.552416,5.1275,7.93625,-17.01875,-44.592003,0.88,-63.752003,concentric,4,5.0,28735.0,34077.0,91041.0,88094.0,25549.0,42289.0,39962.0,49996.0,17469.0,14451.0
2026-05-06 16:36:41.699826,934963,1609507665086465,5264999169,0.62464,0.30256,0.499712,4.7425,8.6625,-15.627501,-45.064003,2.528,-65.152,concentric,4,5.0,28735.0,34077.0,91041.0,88094.0,25549.0,42289.0,39962.0,49996.0,17469.0,14451.0
2026-05-06 16:36:41.705481,934964,1609507665095409,5265007928,0.62464,0.30256,0.499712,2.80875,7.98,-12.46875,-45.064003,2.528,-65.152,concentric,4,5.0,28735.0,34077.0,91041.0,88094.0,25549.0,42289.0,39962.0,49996.0,17469.0,14451.0
2026-05-06 16:36:41.718986,934965,1609507665109949,5265020808,0.61488,0.366976,0.52704,-0.28,6.18625,-9.073751,-45.024002,2.76,-64.248,concentric,4,5.0,28735.0,34077.0,91041.0,88094.0,25549.0,42289.0,39962.0,49996.0,17469.0,14451.0
2026-05-06 16:36:41.728127,934966,1609507665119341,5265031587,0.61488,0.366976,0.52704,-0.62125,4.50625,-6.5975,-45.024002,2.76,-64.248,concentric,4,5.0,28735.0,34077.0,91041.0,88094.0,25549.0,42289.0,39962.0,49996.0,17469.0,14451.0
2026-05-06 16:36:41.736599,934967,1609507665128299,5265040325,0.589504,0.382592,0.544608,0.84875,3.57875,-5.22375,-45.376003,0.704,-63.432003,concentric,4,5.0,28735.0,34077.0,91041.0,88094.0,25549.0,42289.0,39962.0,49996.0,17469.0,14451.0
2026-05-06 16:36:41.770329,934968,1609507665142799,5265055240,0.601216,0.374784,0.558272,4.31375,3.33375,-4.27875,-45.264004,2.48,-62.632004,concentric,4,5.0,28735.0,34077.0,91041.0,88094.0,25549.0,42289.0,39962.0,49996.0,17469.0,14451.0
2026-05-06 16:36:41.802522,934979,1609507665152358,5265064058,0.601216,0.374784,0.558272,5.1625,3.115,-3.7625,-45.264004,2.48,-62.632004,concentric,4,5.0,28946.0,34046.0,90835.0,88169.0,25766.0,42305.0,39913.0,50038.0,17624.0,14454.0
2026-05-06 16:36:41.805081,934980,1609507665166887,5265079003,0.642208,0.275232,0.538752,1.18125,2.8875,-2.33625,-44.872,2.936,-64.496,concentric,4,5.0,28946.0,34046.0,90835.0,88169.0,25766.0,42305.0,39913.0,50038.0,17624.0,14454.0
2026-05-06 16:36:41.807499,934981,1609507665175815,5265087781,0.642208,0.275232,0.538752,-4.935,3.38625,-1.505,-44.872,2.936,-64.496,concentric,4,5.0,28946.0,34046.0,90835.0,88169.0,25766.0,42305.0,39913.0,50038.0,17624.0,14454.0
2026-05-06 16:36:41.810086,934982,1609507665184940,5265096570,0.628544,0.320128,0.474336,-8.47,4.26125,2.51125,-45.152,0.72,-63.480003,concentric,4,5.0,28946.0,34046.0,90835.0,88169.0,25766.0,42305.0,39913.0,50038.0,17624.0,14454.0
2026-05-06 16:36:41.812730,934983,1609507665199471,5265111508,0.628544,0.320128,0.474336,-7.55125,4.13,6.1075,-45.152,0.72,-63.480003,concentric,4,5.0,28946.0,34046.0,90835.0,88169.0,25766.0,42305.0,39913.0,50038.0,17624.0,14454.0
2026-05-06 16:36:41.815253,934984,1609507665208484,5265120261,0.583648,0.40016,0.5368,-3.4125,3.40375,7.9275,-45.56,1.384,-62.704002,concentric,4,5.0,28946.0,34046.0,90835.0,88169.0,25766.0,42305.0,39913.0,50038.0,17624.0,14454.0
2026-05-06 16:36:41.849527,934985,1609507665222971,5265135178,0.60512,0.2928,0.521184,0.42875,2.70375,6.50125,-45.56,1.384,-66.22401,concentric,4,5.0,28946.0,34046.0,90835.0,88169.0,25766.0,42305.0,39913.0,50038.0,17624.0,14454.0
2026-05-06 16:36:41.851479,934986,1609507665231909,5265143959,0.60512,0.2928,0.521184,0.56,2.02125,5.18,-45.576004,1.624,-66.22401,concentric,4,5.0,28946.0,34046.0,90835.0,88169.0,25766.0,42305.0,39913.0,50038.0,17624.0,14454.0
2026-05-06 16:36:41.854531,934987,1609507665240857,5265152668,0.60512,0.2928,0.521184,-0.2275,1.30375,4.62,-45.576004,1.624,-66.22401,concentric,4,5.0,28946.0,34046.0,90835.0,88169.0,25766.0,42305.0,39913.0,50038.0,17624.0,14454.0
2026-05-06 16:36:41.881995,934998,1609507665255621,5265167677,0.61488,0.294752,0.573888,-2.63375,0.455,6.2475,-45.208004,3.504,-63.936005,concentric,4,5.0,29991.0,34209.0,91505.0,87981.0,26767.0,42541.0,40307.0,49962.0,18251.0,14546.0
2026-05-06 16:36:41.906784,934999,1609507665264690,5265176615,0.589504,0.345504,0.554368,-5.635,0.16625,7.81375,-45.384003,1.584,-63.320004,concentric,4,5.0,29991.0,34209.0,91505.0,87981.0,26767.0,42541.0,40307.0,49962.0,18251.0,14546.0
2026-05-06 16:36:41.931888,935000,1609507665279226,5265191597,0.589504,0.345504,0.554368,-5.95,0.6475,8.3825,-45.384003,1.584,-63.320004,concentric,4,5.0,29991.0,34209.0,91505.0,87981.0,26767.0,42541.0,40307.0,49962.0,18251.0,14546.0
2026-05-06 16:36:41.945816,935001,1609507665288129,5265200303,0.583648,0.325984,0.505568,-3.40375,0.58625,8.295,-45.24,3.672,-63.496002,concentric,4,5.0,29991.0,34209.0,91505.0,87981.0,26767.0,42541.0,40307.0,49962.0,18251.0,14546.0
2026-05-06 16:36:41.948304,935002,1609507665302621,5265215208,0.583648,0.325984,0.505568,-0.245,0.49875,5.3375,-45.24,3.672,-63.496002,concentric,4,5.0,29991.0,34209.0,91505.0,87981.0,26767.0,42541.0,40307.0,49962.0,18251.0,14546.0
2026-05-06 16:36:41.950730,935003,1609507665311553,5265224081,0.618784,0.314272,0.5368,5.1275,0.18375,4.50625,-45.776,4.208,-63.872,concentric,4,5.0,29991.0,34209.0,91505.0,87981.0,26767.0,42541.0,40307.0,49962.0,18251.0,14546.0
2026-05-06 16:36:41.952826,935004,1609507665320514,5265232788,0.618784,0.314272,0.5368,8.417501,-0.0525,3.9375,-45.776,4.208,-63.872,concentric,4,5.0,29991.0,34209.0,91505.0,87981.0,26767.0,42541.0,40307.0,49962.0,18251.0,14546.0
2026-05-06 16:36:41.955782,935005,1609507665335047,5265247688,0.591456,0.31232,0.550464,7.875,0.6125,3.535,-45.36,3.776,-63.768,concentric,4,5.0,29991.0,34209.0,91505.0,87981.0,26767.0,42541.0,40307.0,49962.0,18251.0,14546.0
2026-05-06 16:36:41.958268,935006,1609507665343966,5265256423,0.59536,0.376736,0.59536,4.54125,1.6275,1.82,-45.36,5.824,-63.544003,concentric,4,5.0,29991.0,34209.0,91505.0,87981.0,26767.0,42541.0,40307.0,49962.0,18251.0,14546.0
2026-05-06 16:36:42.014356,935017,1609507665359116,5265271498,0.59536,0.376736,0.59536,4.13875,3.38625,2.03,-45.656002,4.152,-63.544003,concentric,4,5.0,30917.0,34672.0,91240.0,89121.0,27644.0,43004.0,40227.0,50560.0,18911.0,14759.0
2026-05-06 16:36:42.017065,935018,1609507665368169,5265280297,0.630496,0.357216,0.568032,5.6,4.15625,0.6825,-45.800003,3.416,-62.352,concentric,4,5.0,30917.0,34672.0,91240.0,89121.0,27644.0,43004.0,40227.0,50560.0,18911.0,14759.0
2026-05-06 16:36:42.019081,935019,1609507665377104,5265289011,0.630496,0.357216,0.568032,8.61,3.54375,-2.17,-45.800003,3.416,-62.352,concentric,4,5.0,30917.0,34672.0,91240.0,89121.0,27644.0,43004.0,40227.0,50560.0,18911.0,14759.0
2026-05-06 16:36:42.021913,935020,1609507665391591,5265303946,0.667584,0.337696,0.5856,12.53,2.65125,-3.36875,-45.952003,4.76,-63.208004,concentric,4,5.0,30917.0,34672.0,91240.0,89121.0,27644.0,43004.0,40227.0,50560.0,18911.0,14759.0
2026-05-06 16:36:42.024527,935021,1609507665400517,5265312658,0.667584,0.337696,0.5856,11.375,2.59,-2.52,-45.952003,4.76,-63.208004,concentric,4,5.0,30917.0,34672.0,91240.0,89121.0,27644.0,43004.0,40227.0,50560.0,18911.0,14759.0
2026-05-06 16:36:42.026995,935022,1609507665415159,5265327593,0.651968,0.398208,0.675392,6.4925,3.85,-1.09375,-45.656002,3.928,-63.152004,concentric,4,5.0,30917.0,34672.0,91240.0,89121.0,27644.0,43004.0,40227.0,50560.0,18911.0,14759.0
2026-05-06 16:36:42.033311,935023,1609507665424313,5265336350,0.651968,0.398208,0.636352,-0.11375,5.2675,-4.10375,-45.656002,3.928,-63.152004,concentric,4,5.0,30917.0,34672.0,91240.0,89121.0,27644.0,43004.0,40227.0,50560.0,18911.0,14759.0
2026-05-06 16:36:42.042059,935024,1609507665433226,5265345060,0.665632,0.394304,0.636352,-4.3225,7.70875,-7.25375,-46.08,4.176,-62.72,concentric,4,5.0,30917.0,34672.0,91240.0,89121.0,27644.0,43004.0,40227.0,50560.0,18911.0,14759.0
2026-05-06 16:36:42.058317,935025,1609507665447784,5265360087,0.696864,0.363072,0.626592,-4.585,8.785,-9.73875,-46.072002,3.184,-61.88,concentric,4,5.0,30917.0,34672.0,91240.0,89121.0,27644.0,43004.0,40227.0,50560.0,18911.0,14759.0
2026-05-06 16:36:42.085290,935036,1609507665456889,5265368902,0.696864,0.363072,0.626592,-1.6625,8.40875,-11.62,-46.072002,3.184,-61.88,concentric,4,5.0,30700.0,34645.0,90963.0,89976.0,27522.0,43020.0,40105.0,51029.0,18837.0,14768.0
2026-05-06 16:36:42.088046,935037,1609507665471467,5265383846,0.718336,0.31232,0.659776,4.34,7.56,-12.145,-46.128002,0.928,-59.480003,concentric,4,5.0,30700.0,34645.0,90963.0,89976.0,27522.0,43020.0,40105.0,51029.0,18837.0,14768.0
2026-05-06 16:36:42.090741,935038,1609507665480435,5265392529,0.718336,0.31232,0.659776,6.04625,7.35,-10.465,-46.128002,0.928,-59.480003,concentric,4,5.0,30700.0,34645.0,90963.0,89976.0,27522.0,43020.0,40105.0,51029.0,18837.0,14768.0
2026-05-06 16:36:42.107028,935039,1609507665494930,5265407463,0.71248,0.343552,0.694912,3.40375,7.74375,-7.28,-46.632004,1.376,-61.272003,concentric,4,5.0,30700.0,34645.0,90963.0,89976.0,27522.0,43020.0,40105.0,51029.0,18837.0,14768.0
2026-05-06 16:36:42.116921,935040,1609507665503832,5265416154,0.71248,0.343552,0.694912,-0.7,7.63,-4.9875,-46.632004,1.376,-61.272003,concentric,4,5.0,30700.0,34645.0,90963.0,89976.0,27522.0,43020.0,40105.0,51029.0,18837.0,14768.0
2026-05-06 16:36:42.123182,935041,1609507665512748,5265424861,0.700768,0.40992,0.646112,-0.42,6.7025,-1.9425,-46.344,4.048,-62.544003,concentric,4,5.0,30700.0,34645.0,90963.0,89976.0,27522.0,43020.0,40105.0,51029.0,18837.0,14768.0
2026-05-06 16:36:42.136689,935042,1609507665527278,5265439805,0.710528,0.333792,0.640256,1.19,4.2175,-2.485,-46.280003,3.992,-61.072002,concentric,4,5.0,30700.0,34645.0,90963.0,89976.0,27522.0,43020.0,40105.0,51029.0,18837.0,14768.0
2026-05-06 16:36:42.145808,935043,1609507665536298,5265448592,0.710528,0.333792,0.640256,1.505,1.46125,-2.31875,-46.280003,3.992,-61.072002,concentric,4,5.0,30700.0,34645.0,90963.0,89976.0,27522.0,43020.0,40105.0,51029.0,18837.0,14768.0
2026-05-06 16:36:42.183725,935054,1609507665550853,5265463557,0.685152,0.407968,0.648064,4.20875,-0.41125,0.98,-46.736004,2.616,-61.208004,concentric,4,5.0,30832.0,34737.0,90826.0,90025.0,27621.0,43100.0,39980.0,51032.0,18927.0,14829.0
2026-05-06 16:36:42.186560,935055,1609507665560445,5265472306,0.685152,0.407968,0.648064,8.28625,-2.70375,3.45625,-46.736004,2.616,-61.208004,concentric,4,5.0,30832.0,34737.0,90826.0,90025.0,27621.0,43100.0,39980.0,51032.0,18927.0,14829.0
2026-05-06 16:36:42.189078,935056,1609507665569446,5265481203,0.694912,0.3904,0.636352,7.39375,-4.36625,3.22,-46.528004,2.232,-61.128002,concentric,4,5.0,30832.0,34737.0,90826.0,90025.0,27621.0,43100.0,39980.0,51032.0,18927.0,14829.0
2026-05-06 16:36:42.195477,935057,1609507665583974,5265496128,0.694912,0.3904,0.636352,5.985,-4.9175,3.10625,-46.528004,2.232,-61.128002,concentric,4,5.0,30832.0,34737.0,90826.0,90025.0,27621.0,43100.0,39980.0,51032.0,18927.0,14829.0
2026-05-06 16:36:42.201551,935058,1609507665592935,5265504927,0.696864,0.33184,0.6344,5.13625,-6.09,3.92,-46.864002,2.544,-60.344,concentric,4,5.0,30832.0,34737.0,90826.0,90025.0,27621.0,43100.0,39980.0,51032.0,18927.0,14829.0
2026-05-06 16:36:42.225491,935059,1609507665607427,5265519852,0.669536,0.441152,0.60512,6.83375,-7.44625,8.155,-46.408,5.104,-61.808002,concentric,4,5.0,30832.0,34737.0,90826.0,90025.0,27621.0,43100.0,39980.0,51032.0,18927.0,14829.0
2026-05-06 16:36:42.227895,935060,1609507665616402,5265528622,0.669536,0.441152,0.60512,7.98,-8.9075,10.80625,-46.408,5.104,-61.808002,concentric,4,5.0,30832.0,34737.0,90826.0,90025.0,27621.0,43100.0,39980.0,51032.0,18927.0,14829.0
2026-05-06 16:36:42.241745,935061,1609507665630924,5265543587,0.669536,0.366976,0.59536,5.10125,-8.79375,10.03625,-46.848003,5.192,-62.336002,concentric,4,5.0,30832.0,34737.0,90826.0,90025.0,27621.0,43100.0,39980.0,51032.0,18927.0,14829.0
2026-05-06 16:36:42.250638,935062,1609507665639889,5265552306,0.669536,0.366976,0.59536,-0.46375,-7.97125,8.015,-46.848003,5.192,-62.336002,concentric,4,5.0,30832.0,34737.0,90826.0,90025.0,27621.0,43100.0,39980.0,51032.0,18927.0,14829.0
2026-05-06 16:36:42.275400,935063,1609507665648817,5265561032,0.64416,0.372832,0.571936,-3.4475,-6.9125,8.1025,-46.656002,5.504,-62.008003,concentric,4,5.0,30832.0,34737.0,90826.0,90025.0,27621.0,43100.0,39980.0,51032.0,18927.0,14829.0
2026-05-06 16:36:42.327961,935074,1609507665663452,5265576076,0.64416,0.372832,0.571936,-2.1525,-6.2825,8.93375,-46.656002,5.504,-62.008003,concentric,4,5.0,30985.0,34792.0,90756.0,90094.0,27777.0,43174.0,39965.0,51096.0,19023.0,14870.0
2026-05-06 16:36:42.330639,935075,1609507665672418,5265584853,0.657824,0.407968,0.523136,-0.28,-5.705,8.72375,-46.528004,5.472,-62.528004,concentric,4,5.0,30985.0,34792.0,90756.0,90094.0,27777.0,43174.0,39965.0,51096.0,19023.0,14870.0
2026-05-06 16:36:42.333019,935076,1609507665686989,5265597739,0.679296,0.359168,0.55632,2.51125,-5.97625,8.015,-46.696003,5.928001,-62.552002,concentric,4,5.0,30985.0,34792.0,90756.0,90094.0,27777.0,43174.0,39965.0,51096.0,19023.0,14870.0
2026-05-06 16:36:42.335586,935077,1609507665696182,5265608539,0.679296,0.359168,0.55632,-0.385,-6.09875,4.78625,-46.696003,5.928001,-62.552002,concentric,4,5.0,30985.0,34792.0,90756.0,90094.0,27777.0,43174.0,39965.0,51096.0,19023.0,14870.0
2026-05-06 16:36:42.337921,935078,1609507665705187,5265617274,0.679296,0.359168,0.55632,-1.19,-5.3725,5.62625,-46.696003,5.928001,-62.552002,concentric,4,5.0,30985.0,34792.0,90756.0,90094.0,27777.0,43174.0,39965.0,51096.0,19023.0,14870.0
2026-05-06 16:36:42.340533,935079,1609507665719745,5265632286,0.661728,0.445056,0.622688,-0.4375,-4.01625,5.3725,-46.808002,4.32,-62.384003,concentric,4,5.0,30985.0,34792.0,90756.0,90094.0,27777.0,43174.0,39965.0,51096.0,19023.0,14870.0
2026-05-06 16:36:42.342964,935080,1609507665728660,5265641021,0.70272,0.41968,0.60512,-3.605,-1.96,1.44375,-46.688004,4.256,-63.384003,concentric,4,5.0,30985.0,34792.0,90756.0,90094.0,27777.0,43174.0,39965.0,51096.0,19023.0,14870.0
2026-05-06 16:36:42.356611,935081,1609507665743198,5265655945,0.70272,0.41968,0.60512,-5.39,-0.72625,-3.3075,-46.688004,4.256,-63.384003,concentric,4,5.0,30985.0,34792.0,90756.0,90094.0,27777.0,43174.0,39965.0,51096.0,19023.0,14870.0
2026-05-06 16:36:42.385382,935092,1609507665752109,5265664674,0.74176,0.382592,0.599264,-4.55,-0.62125,-7.06125,-46.592003,5.968,-62.224003,concentric,4,5.0,30936.0,34755.0,90639.0,90499.0,27707.0,43119.0,39883.0,51295.0,18991.0,14829.0
2026-05-06 16:36:42.387761,935093,1609507665767205,5265679683,0.724192,0.472384,0.628544,-2.40625,-0.72625,-7.63875,-46.592003,3.696,-61.800003,concentric,4,5.0,30936.0,34755.0,90639.0,90499.0,27707.0,43119.0,39883.0,51295.0,18991.0,14829.0
2026-05-06 16:36:42.390439,935094,1609507665776390,5265688454,0.724192,0.472384,0.628544,-0.70875,-0.7175,-7.04375,-47.208004,3.696,-61.800003,concentric,4,5.0,30936.0,34755.0,90639.0,90499.0,27707.0,43119.0,39883.0,51295.0,18991.0,14829.0
2026-05-06 16:36:42.392895,935095,1609507665785421,5265697234,0.724192,0.472384,0.628544,-2.28375,0.1575,-9.7125,-47.208004,3.696,-61.800003,concentric,4,5.0,30936.0,34755.0,90639.0,90499.0,27707.0,43119.0,39883.0,51295.0,18991.0,14829.0
2026-05-06 16:36:42.426751,935096,1609507665799895,5265712156,0.774944,0.44896,0.671488,-6.7025,3.15875,-13.335,-47.344,1.928,-59.416004,concentric,4,5.0,30936.0,34755.0,90639.0,90499.0,27707.0,43119.0,39883.0,51295.0,18991.0,14829.0
2026-05-06 16:36:42.431765,935097,1609507665808811,5265720987,0.8296,0.450912,0.733952,-5.13625,5.52125,-13.58875,-46.872,5.6,-61.864002,concentric,4,5.0,30936.0,34755.0,90639.0,90499.0,27707.0,43119.0,39883.0,51295.0,18991.0,14829.0
2026-05-06 16:36:42.434132,935098,1609507665823274,5265735875,0.8296,0.450912,0.733952,-2.00375,4.82125,-15.88125,-46.872,5.6,-61.864002,concentric,4,5.0,30936.0,34755.0,90639.0,90499.0,27707.0,43119.0,39883.0,51295.0,18991.0,14829.0
2026-05-06 16:36:42.442948,935099,1609507665832249,5265744578,0.84912,0.42944,0.671488,-3.6225,4.01625,-16.66,-47.128002,5.096,-62.096004,eccentric,4,5.0,30936.0,34755.0,90639.0,90499.0,27707.0,43119.0,39883.0,51295.0,18991.0,14829.0
2026-05-06 16:36:42.448934,935100,1609507665841250,5265753324,0.84912,0.42944,0.671488,-5.06625,3.00125,-15.02375,-47.128002,5.096,-62.096004,eccentric,4,5.0,30936.0,34755.0,90639.0,90499.0,27707.0,43119.0,39883.0,51295.0,18991.0,14829.0
2026-05-06 16:36:42.488246,935111,1609507665856374,5265768416,0.83936,0.464576,0.753472,-5.18,2.38875,-13.3875,-47.296,5.2,-61.488003,eccentric,4,5.0,30757.0,34653.0,90568.0,90864.0,27556.0,43047.0,39892.0,51488.0,18898.0,14792.0
2026-05-06 16:36:42.490509,935112,1609507665865395,5265777221,0.83936,0.464576,0.753472,-7.55125,2.23125,-11.69,-47.296,5.2,-61.488003,eccentric,4,5.0,30757.0,34653.0,90568.0,90864.0,27556.0,43047.0,39892.0,51488.0,18898.0,14792.0
2026-05-06 16:36:42.492742,935113,1609507665879991,5265792174,0.86864,0.530944,0.730048,-7.805,2.79125,-11.0775,-47.264004,3.056,-60.736004,eccentric,4,5.0,30757.0,34653.0,90568.0,90864.0,27556.0,43047.0,39892.0,51488.0,18898.0,14792.0
2026-05-06 16:36:42.497059,935114,1609507665888950,5265800917,0.882304,0.460672,0.710528,-7.83125,2.66875,-13.405,-47.440002,3.312,-61.584003,eccentric,4,5.0,30757.0,34653.0,90568.0,90864.0,27556.0,43047.0,39892.0,51488.0,18898.0,14792.0
2026-05-06 16:36:42.506862,935115,1609507665897957,5265809636,0.882304,0.460672,0.710528,-7.3325,1.47875,-14.56,-47.440002,3.312,-61.584003,eccentric,4,5.0,30757.0,34653.0,90568.0,90864.0,27556.0,43047.0,39892.0,51488.0,18898.0,14792.0
2026-05-06 16:36:42.534126,935116,1609507665912459,5265824602,0.886208,0.447008,0.743712,-7.315,-1.95125,-14.77875,-47.032,4.52,-62.280003,eccentric,4,5.0,30757.0,34653.0,90568.0,90864.0,27556.0,43047.0,39892.0,51488.0,18898.0,14792.0
2026-05-06 16:36:42.537067,935117,1609507665921386,5265833306,0.886208,0.447008,0.743712,-7.0875,-4.2525,-10.00125,-47.032,4.52,-62.280003,eccentric,4,5.0,30757.0,34653.0,90568.0,90864.0,27556.0,43047.0,39892.0,51488.0,18898.0,14792.0
2026-05-06 16:36:42.547810,935118,1609507665935916,5265848243,0.8784,0.4392,0.706624,-7.34125,-5.25875,-6.08125,-47.168003,4.536,-62.640003,eccentric,4,5.0,30757.0,34653.0,90568.0,90864.0,27556.0,43047.0,39892.0,51488.0,18898.0,14792.0
2026-05-06 16:36:42.554408,935119,1609507665945028,5265857056,0.8784,0.4392,0.706624,-6.78125,-5.39875,-2.24,-47.168003,4.536,-62.640003,eccentric,4,5.0,30757.0,34653.0,90568.0,90864.0,27556.0,43047.0,39892.0,51488.0,18898.0,14792.0
2026-05-06 16:36:42.587924,935130,1609507665959687,5265872225,0.876448,0.44896,0.704672,-2.54625,-4.9875,0.7875,-47.792004,2.872,-61.192,eccentric,4,5.0,30818.0,34675.0,90778.0,90847.0,27661.0,43088.0,40024.0,51481.0,18933.0,14830.0
2026-05-06 16:36:42.590755,935131,1609507665968643,5265880965,0.83936,0.460672,0.696864,-0.2975,-4.69,2.37125,-47.792004,4.92,-63.224003,eccentric,4,5.0,30818.0,34675.0,90778.0,90847.0,27661.0,43088.0,40024.0,51481.0,18933.0,14830.0
2026-05-06 16:36:42.592905,935132,1609507665977671,5265889745,0.83936,0.460672,0.696864,-3.29,-5.7575,3.12375,-46.800003,4.176,-63.224003,eccentric,4,5.0,30818.0,34675.0,90778.0,90847.0,27661.0,43088.0,40024.0,51481.0,18933.0,14830.0
2026-05-06 16:36:42.601997,935133,1609507665992231,5265904687,0.827648,0.40016,0.655872,-8.28625,-6.02875,3.1325,-46.536003,4.64,-62.952003,eccentric,4,5.0,30818.0,34675.0,90778.0,90847.0,27661.0,43088.0,40024.0,51481.0,18933.0,14830.0
2026-05-06 16:36:42.610763,935134,1609507666001206,5265913460,0.827648,0.40016,0.655872,-12.46,-5.7225,3.29875,-46.536003,4.64,-62.952003,eccentric,4,5.0,30818.0,34675.0,90778.0,90847.0,27661.0,43088.0,40024.0,51481.0,18933.0,14830.0
2026-05-06 16:36:42.674414,935135,1609507666015767,5265928375,0.804224,0.353312,0.599264,-14.86625,-5.53,4.27875,-46.528004,4.688,-63.584003,eccentric,4,5.0,30818.0,34675.0,90778.0,90847.0,27661.0,43088.0,40024.0,51481.0,18933.0,14830.0
2026-05-06 16:36:42.699557,935136,1609507666024710,5265937202,0.804224,0.353312,0.599264,-15.75,-5.3725,5.76625,-46.528004,4.688,-63.584003,eccentric,4,5.0,30818.0,34675.0,90778.0,90847.0,27661.0,43088.0,40024.0,51481.0,18933.0,14830.0
2026-05-06 16:36:42.719566,935137,1609507666033610,5265945989,0.75152,0.372832,0.607072,-12.64375,-5.36375,8.35625,-46.816,4.584,-63.056004,eccentric,4,5.0,30818.0,34675.0,90778.0,90847.0,27661.0,43088.0,40024.0,51481.0,18933.0,14830.0
2026-05-06 16:36:42.722024,935138,1609507666048118,5265958872,0.75152,0.372832,0.607072,-7.91,-5.5825,9.292501,-46.816,4.584,-63.056004,eccentric,4,5.0,30818.0,34675.0,90778.0,90847.0,27661.0,43088.0,40024.0,51481.0,18933.0,14830.0
2026-05-06 16:36:42.751574,935149,1609507666058006,5265969813,0.720288,0.42944,0.620736,-5.66125,-4.90875,8.715,-46.448,2.664,-62.896004,eccentric,4,5.0,30976.0,34778.0,90528.0,90497.0,27787.0,43172.0,39884.0,51273.0,19058.0,14857.0
2026-05-06 16:36:42.754055,935150,1609507666072562,5265984740,0.765184,0.33184,0.579744,-6.25625,-4.59375,6.125,-45.928,4.952,-63.232002,eccentric,4,5.0,30976.0,34778.0,90528.0,90497.0,27787.0,43172.0,39884.0,51273.0,19058.0,14857.0
2026-05-06 16:36:42.756960,935151,1609507666081558,5265993466,0.765184,0.33184,0.579744,-6.3,-4.89125,3.78,-45.928,4.952,-63.232002,eccentric,4,5.0,30976.0,34778.0,90528.0,90497.0,27787.0,43172.0,39884.0,51273.0,19058.0,14857.0
2026-05-06 16:36:42.759073,935152,1609507666090477,5266002162,0.724192,0.296704,0.616832,-7.77875,-5.3025,2.72125,-46.128002,4.544,-66.48,eccentric,4,5.0,30976.0,34778.0,90528.0,90497.0,27787.0,43172.0,39884.0,51273.0,19058.0,14857.0
2026-05-06 16:36:42.761649,935153,1609507666104935,5266017205,0.724192,0.296704,0.616832,-5.25875,-5.60875,5.11,-46.128002,4.544,-66.48,eccentric,4,5.0,30976.0,34778.0,90528.0,90497.0,27787.0,43172.0,39884.0,51273.0,19058.0,14857.0
2026-05-06 16:36:42.764464,935154,1609507666113872,5266025910,0.681248,0.437248,0.579744,-3.5,-6.06375,7.9625,-45.464,4.2,-63.672005,eccentric,4,5.0,30976.0,34778.0,90528.0,90497.0,27787.0,43172.0,39884.0,51273.0,19058.0,14857.0
2026-05-06 16:36:42.767045,935155,1609507666128660,5266040862,0.681248,0.437248,0.579744,-5.92375,-4.94375,7.1925,-45.464,4.2,-63.672005,eccentric,4,5.0,30976.0,34778.0,90528.0,90497.0,27787.0,43172.0,39884.0,51273.0,19058.0,14857.0
2026-05-06 16:36:42.769128,935156,1609507666137622,5266049588,0.716384,0.339648,0.558272,-8.61,-3.80625,2.8525,-45.72,4.512,-64.712006,eccentric,4,5.0,30976.0,34778.0,90528.0,90497.0,27787.0,43172.0,39884.0,51273.0,19058.0,14857.0
2026-05-06 16:36:42.771816,935157,1609507666146723,5266058372,0.716384,0.339648,0.558272,-8.61875,-2.9925,-0.7,-45.72,4.512,-64.712006,eccentric,4,5.0,30976.0,34778.0,90528.0,90497.0,27787.0,43172.0,39884.0,51273.0,19058.0,14857.0
2026-05-06 16:36:42.799552,935168,1609507666161400,5266073415,0.70272,0.25376,0.562176,-3.325,-2.93125,1.61875,-45.488003,4.16,-63.984,eccentric,4,5.0,31058.0,34826.0,90294.0,90058.0,27851.0,43208.0,39783.0,51071.0,19092.0,14880.0
2026-05-06 16:36:42.801733,935169,1609507666170452,5266082160,0.681248,0.349408,0.618784,2.47625,-3.36875,5.46875,-45.488003,4.928001,-62.56,eccentric,4,5.0,31058.0,34826.0,90294.0,90058.0,27851.0,43208.0,39783.0,51071.0,19092.0,14880.0
2026-05-06 16:36:42.804533,935170,1609507666185001,5266097084,0.681248,0.349408,0.618784,2.9225,-2.30125,7.69125,-45.432003,4.928001,-62.56,eccentric,4,5.0,31058.0,34826.0,90294.0,90058.0,27851.0,43208.0,39783.0,51071.0,19092.0,14880.0
2026-05-06 16:36:42.807050,935171,1609507666193949,5266105853,0.64416,0.366976,0.564128,-2.345,0.02625,7.63,-45.064003,3.648,-63.032,eccentric,4,5.0,31058.0,34826.0,90294.0,90058.0,27851.0,43208.0,39783.0,51071.0,19092.0,14880.0
2026-05-06 16:36:42.820828,935172,1609507666208607,5266120820,0.64416,0.366976,0.564128,-10.29,2.52,4.025,-45.064003,3.648,-63.032,eccentric,4,5.0,31058.0,34826.0,90294.0,90058.0,27851.0,43208.0,39783.0,51071.0,19092.0,14880.0
2026-05-06 16:36:42.826586,935173,1609507666217535,5266129544,0.669536,0.251808,0.530944,-12.53,3.2725,1.63625,-45.072002,4.608,-64.22401,eccentric,4,5.0,31058.0,34826.0,90294.0,90058.0,27851.0,43208.0,39783.0,51071.0,19092.0,14880.0
2026-05-06 16:36:42.838903,935174,1609507666226641,5266138283,0.669536,0.251808,0.530944,-6.65,1.98625,2.98375,-45.072002,4.608,-64.22401,eccentric,4,5.0,31058.0,34826.0,90294.0,90058.0,27851.0,43208.0,39783.0,51071.0,19092.0,14880.0
2026-05-06 16:36:42.852794,935175,1609507666241287,5266153268,0.638304,0.245952,0.534848,-1.1025,-0.07,4.445,-44.832,4.848,-64.632,eccentric,4,5.0,31058.0,34826.0,90294.0,90058.0,27851.0,43208.0,39783.0,51071.0,19092.0,14880.0
2026-05-06 16:36:42.859423,935176,1609507666250227,5266161995,0.638304,0.245952,0.51728,0.5075,-2.26625,6.0725,-44.832,4.848,-64.632,eccentric,4,5.0,31058.0,34826.0,90294.0,90058.0,27851.0,43208.0,39783.0,51071.0,19092.0,14880.0
2026-05-06 16:36:42.890804,935188,1609507666264858,5266177071,0.61488,0.28304,0.51728,-2.21375,-3.2375,6.8075,-44.824,5.024,-63.768,eccentric,4,5.0,30955.0,34767.0,90247.0,90185.0,27750.0,43157.0,39761.0,51132.0,19037.0,14869.0
2026-05-06 16:36:42.893302,935189,1609507666273841,5266185845,0.599264,0.30256,0.491904,-6.57125,-2.52875,7.7,-44.376003,5.008,-64.43201,eccentric,4,5.0,30955.0,34767.0,90247.0,90185.0,27750.0,43157.0,39761.0,51132.0,19037.0,14869.0
2026-05-06 16:36:42.895770,935190,1609507666282843,5266194610,0.599264,0.30256,0.491904,-8.95125,-1.75875,5.9325,-44.376003,5.008,-64.43201,eccentric,4,5.0,30955.0,34767.0,90247.0,90185.0,27750.0,43157.0,39761.0,51132.0,19037.0,14869.0
2026-05-06 16:36:42.909566,935191,1609507666297427,5266209591,0.60512,0.222528,0.452864,-6.58,-2.1525,4.99625,-44.288002,5.008,-64.744,eccentric,4,5.0,30955.0,34767.0,90247.0,90185.0,27750.0,43157.0,39761.0,51132.0,19037.0,14869.0
2026-05-06 16:36:42.918540,935192,1609507666306459,5266218320,0.60512,0.222528,0.452864,-3.9375,-4.3225,3.77125,-44.288002,5.008,-64.744,eccentric,4,5.0,30955.0,34767.0,90247.0,90185.0,27750.0,43157.0,39761.0,51132.0,19037.0,14869.0
2026-05-06 16:36:42.943133,935193,1609507666320956,5266233225,0.607072,0.216672,0.45872,-1.1375,-6.335,3.50875,-44.016003,4.376,-65.16801,eccentric,4,5.0,30955.0,34767.0,90247.0,90185.0,27750.0,43157.0,39761.0,51132.0,19037.0,14869.0
2026-05-06 16:36:42.945594,935194,1609507666329880,5266241947,0.607072,0.216672,0.45872,1.68875,-8.61,5.845,-44.016003,4.376,-65.16801,eccentric,4,5.0,30955.0,34767.0,90247.0,90185.0,27750.0,43157.0,39761.0,51132.0,19037.0,14869.0
2026-05-06 16:36:42.953249,935195,1609507666344347,5266256910,0.599264,0.257664,0.466528,1.5925,-9.30125,5.0575,-44.24,5.184,-66.96001,eccentric,4,5.0,30955.0,34767.0,90247.0,90185.0,27750.0,43157.0,39761.0,51132.0,19037.0,14869.0
2026-05-06 16:36:42.961698,935196,1609507666353273,5266265642,0.573888,0.275232,0.493856,-0.90125,-7.42,2.87875,-43.888,5.168,-65.0,eccentric,4,5.0,30955.0,34767.0,90247.0,90185.0,27750.0,43157.0,39761.0,51132.0,19037.0,14869.0
2026-05-06 16:36:43.033928,935207,1609507666362284,5266274508,0.573888,0.275232,0.493856,-0.7525,-4.92625,1.7675,-43.888,5.168,-65.0,eccentric,4,5.0,31006.0,34778.0,90163.0,90484.0,27819.0,43128.0,39667.0,51299.0,19078.0,14863.0
2026-05-06 16:36:43.046903,935208,1609507666376895,5266289632,0.593408,0.245952,0.450912,0.035,-3.10625,-1.0675,-43.992,2.968,-64.216,eccentric,4,5.0,31006.0,34778.0,90163.0,90484.0,27819.0,43128.0,39667.0,51299.0,19078.0,14863.0
2026-05-06 16:36:43.051581,935209,1609507666385854,5266298359,0.593408,0.245952,0.450912,0.46375,-2.3625,-2.70375,-43.992,2.968,-64.216,eccentric,4,5.0,31006.0,34778.0,90163.0,90484.0,27819.0,43128.0,39667.0,51299.0,19078.0,14863.0
2026-05-06 16:36:43.054414,935210,1609507666400350,5266311283,0.581696,0.236192,0.454816,1.4525,-2.0475,-4.41,-43.848003,4.744,-65.368004,eccentric,4,5.0,31006.0,34778.0,90163.0,90484.0,27819.0,43128.0,39667.0,51299.0,19078.0,14863.0
2026-05-06 16:36:43.056894,935211,1609507666409809,5266322078,0.581696,0.236192,0.454816,1.9075,-2.80875,-5.3375,-43.848003,4.744,-65.368004,eccentric,4,5.0,31006.0,34778.0,90163.0,90484.0,27819.0,43128.0,39667.0,51299.0,19078.0,14863.0
2026-05-06 16:36:43.059464,935212,1609507666418730,5266330825,0.569984,0.2928,0.491904,1.155,-2.38875,-5.64375,-43.712,4.912,-65.584,eccentric,4,5.0,31006.0,34778.0,90163.0,90484.0,27819.0,43128.0,39667.0,51299.0,19078.0,14863.0
2026-05-06 16:36:43.061917,935213,1609507666433372,5266345814,0.581696,0.25376,0.488,0.13125,-1.54,-6.265,-43.736004,4.592,-65.272,eccentric,4,5.0,31006.0,34778.0,90163.0,90484.0,27819.0,43128.0,39667.0,51299.0,19078.0,14863.0
2026-05-06 16:36:43.064513,935214,1609507666442311,5266354497,0.581696,0.25376,0.488,-4.06,0.13125,-8.8725,-43.736004,4.592,-65.272,eccentric,4,5.0,31006.0,34778.0,90163.0,90484.0,27819.0,43128.0,39667.0,51299.0,19078.0,14863.0
2026-05-06 16:36:43.091960,935225,1609507666456907,5266369633,0.581696,0.232288,0.431392,-6.55375,2.9925,-8.35625,-43.816,4.624,-65.608,eccentric,4,5.0,31017.0,34732.0,89988.0,90954.0,27821.0,43073.0,39555.0,51563.0,19086.0,14828.0
2026-05-06 16:36:43.094537,935226,1609507666466150,5266378476,0.581696,0.232288,0.431392,-2.135,2.72125,-8.05,-43.816,4.624,-65.608,eccentric,4,5.0,31017.0,34732.0,89988.0,90954.0,27821.0,43073.0,39555.0,51563.0,19086.0,14828.0
2026-05-06 16:36:43.097054,935227,1609507666475131,5266387246,0.5856,0.23424,0.474336,1.09375,2.02125,-7.34125,-43.600002,4.432,-65.672005,eccentric,4,5.0,31017.0,34732.0,89988.0,90954.0,27821.0,43073.0,39555.0,51563.0,19086.0,14828.0
2026-05-06 16:36:43.099561,935228,1609507666489713,5266402186,0.5856,0.23424,0.474336,1.995,0.9975,-5.04,-43.600002,4.432,-65.672005,eccentric,4,5.0,31017.0,34732.0,89988.0,90954.0,27821.0,43073.0,39555.0,51563.0,19086.0,14828.0
2026-05-06 16:36:43.107765,935229,1609507666498728,5266410918,0.57584,0.242048,0.460672,-0.665,0.4375,-3.5175,-43.888,5.024,-65.728004,eccentric,4,5.0,31017.0,34732.0,89988.0,90954.0,27821.0,43073.0,39555.0,51563.0,19086.0,14828.0
2026-05-06 16:36:43.142368,935230,1609507666513207,5266425852,0.552416,0.261568,0.456768,-4.59375,0.69125,-1.2075,-43.480003,4.848,-65.64,eccentric,4,5.0,31017.0,34732.0,89988.0,90954.0,27821.0,43073.0,39555.0,51563.0,19086.0,14828.0
2026-05-06 16:36:43.144821,935231,1609507666522153,5266434545,0.552416,0.261568,0.456768,-3.33375,1.435,1.75875,-43.480003,4.848,-65.64,eccentric,4,5.0,31017.0,34732.0,89988.0,90954.0,27821.0,43073.0,39555.0,51563.0,19086.0,14828.0
2026-05-06 16:36:43.146849,935232,1609507666536711,5266449441,0.542656,0.242048,0.384544,-1.37375,0.56875,2.03,-43.456,4.848,-65.48801,eccentric,4,5.0,31017.0,34732.0,89988.0,90954.0,27821.0,43073.0,39555.0,51563.0,19086.0,14828.0
2026-05-06 16:36:43.156830,935233,1609507666545834,5266458190,0.542656,0.242048,0.384544,-0.805,-0.60375,2.52875,-43.456,4.848,-65.48801,eccentric,4,5.0,31017.0,34732.0,89988.0,90954.0,27821.0,43073.0,39555.0,51563.0,19086.0,14828.0
2026-05-06 16:36:43.163250,935234,1609507666554755,5266466926,0.54656,0.267424,0.388448,0.525,-2.84375,5.01375,-43.304,4.112,-66.75201,eccentric,4,5.0,31017.0,34732.0,89988.0,90954.0,27821.0,43073.0,39555.0,51563.0,19086.0,14828.0
2026-05-06 16:36:43.190815,935245,1609507666569449,5266482117,0.54656,0.267424,0.388448,-0.665,-5.06625,6.37,-43.304,4.112,-66.75201,eccentric,4,5.0,31051.0,34714.0,89751.0,90433.0,27863.0,43081.0,39479.0,51282.0,19122.0,14838.0
2026-05-06 16:36:43.193269,935246,1609507666578671,5266490883,0.552416,0.286944,0.44896,-0.30625,-6.74625,8.3825,-43.392002,3.208,-65.904,eccentric,4,5.0,31051.0,34714.0,89751.0,90433.0,27863.0,43081.0,39479.0,51282.0,19122.0,14838.0
2026-05-06 16:36:43.202757,935247,1609507666593266,5266505835,0.552416,0.267424,0.394304,1.28625,-7.665,8.37375,-43.392002,3.208,-65.936005,eccentric,4,5.0,31051.0,34714.0,89751.0,90433.0,27863.0,43081.0,39479.0,51282.0,19122.0,14838.0
2026-05-06 16:36:43.211757,935248,1609507666602217,5266514642,0.552416,0.267424,0.394304,-0.93625,-7.7875,6.92125,-42.944,5.08,-65.936005,eccentric,4,5.0,31051.0,34714.0,89751.0,90433.0,27863.0,43081.0,39479.0,51282.0,19122.0,14838.0
2026-05-06 16:36:43.220689,935249,1609507666611144,5266523365,0.552416,0.267424,0.394304,-2.1525,-7.18375,7.20125,-42.944,5.08,-65.936005,eccentric,4,5.0,31051.0,34714.0,89751.0,90433.0,27863.0,43081.0,39479.0,51282.0,19122.0,14838.0
2026-05-06 16:36:43.233949,935250,1609507666625625,5266538315,0.554368,0.353312,0.480192,-0.06125,-7.21875,7.6825,-43.048,4.272,-64.976006,eccentric,4,5.0,31051.0,34714.0,89751.0,90433.0,27863.0,43081.0,39479.0,51282.0,19122.0,14838.0
2026-05-06 16:36:43.242935,935251,1609507666634520,5266547030,0.589504,0.318176,0.427488,-0.48125,-8.14625,6.93,-43.008003,2.072,-65.944,eccentric,4,5.0,31051.0,34714.0,89751.0,90433.0,27863.0,43081.0,39479.0,51282.0,19122.0,14838.0
2026-05-06 16:36:43.258310,935252,1609507666649179,5266560083,0.589504,0.318176,0.427488,-4.01625,-9.47625,3.21125,-43.008003,2.072,-65.944,eccentric,4,5.0,31051.0,34714.0,89751.0,90433.0,27863.0,43081.0,39479.0,51282.0,19122.0,14838.0
2026-05-06 16:36:43.310645,935263,1609507666659182,5266570987,0.593408,0.284992,0.493856,-8.16375,-9.21375,1.365,-43.000004,5.784,-66.464005,eccentric,4,5.0,31145.0,34773.0,89686.0,90734.0,27942.0,43105.0,39424.0,51425.0,19174.0,14851.0
2026-05-06 16:36:43.312827,935264,1609507666668252,5266579807,0.593408,0.284992,0.493856,-8.925,-8.61875,1.75,-43.000004,5.784,-66.464005,eccentric,4,5.0,31145.0,34773.0,89686.0,90734.0,27942.0,43105.0,39424.0,51425.0,19174.0,14851.0
2026-05-06 16:36:43.315650,935265,1609507666682769,5266594910,0.589504,0.40016,0.486048,-9.21375,-7.3325,3.26375,-42.552002,5.704001,-66.76,eccentric,4,5.0,31145.0,34773.0,89686.0,90734.0,27942.0,43105.0,39424.0,51425.0,19174.0,14851.0
2026-05-06 16:36:43.317806,935266,1609507666691864,5266603651,0.589504,0.40016,0.486048,-9.135,-6.9475,1.75,-42.552002,5.704001,-66.76,eccentric,4,5.0,31145.0,34773.0,89686.0,90734.0,27942.0,43105.0,39424.0,51425.0,19174.0,14851.0
2026-05-06 16:36:43.320667,935267,1609507666706401,5266618671,0.632448,0.30256,0.480192,-12.03125,-6.16,-3.70125,-42.752003,4.792,-67.296005,eccentric,4,5.0,31145.0,34773.0,89686.0,90734.0,27942.0,43105.0,39424.0,51425.0,19174.0,14851.0
2026-05-06 16:36:43.322880,935268,1609507666715375,5266627403,0.642208,0.25376,0.525088,-13.48375,-5.3375,-4.06,-43.008003,4.256,-64.840004,eccentric,4,5.0,31145.0,34773.0,89686.0,90734.0,27942.0,43105.0,39424.0,51425.0,19174.0,14851.0
2026-05-06 16:36:43.336627,935269,1609507666724343,5266636124,0.642208,0.25376,0.525088,-12.6875,-4.0775,-1.855,-43.008003,4.256,-64.840004,eccentric,4,5.0,31145.0,34773.0,89686.0,90734.0,27942.0,43105.0,39424.0,51425.0,19174.0,14851.0
2026-05-06 16:36:43.350785,935270,1609507666738961,5266651097,0.638304,0.343552,0.528992,-12.4775,-2.98375,0.56875,-42.688004,5.712,-67.248,eccentric,4,5.0,31145.0,34773.0,89686.0,90734.0,27942.0,43105.0,39424.0,51425.0,19174.0,14851.0
2026-05-06 16:36:43.378046,935271,1609507666747916,5266659828,0.638304,0.343552,0.528992,-13.5975,-1.2775,1.21625,-42.688004,5.712,-67.248,eccentric,4,5.0,31145.0,34773.0,89686.0,90734.0,27942.0,43105.0,39424.0,51425.0,19174.0,14851.0
2026-05-06 16:36:43.431745,935282,1609507666762635,5266674841,0.687104,0.306464,0.44896,-16.0475,0.5425,0.0,-42.376003,5.368,-66.920006,eccentric,4,5.0,30975.0,34665.0,89668.0,91111.0,27790.0,43037.0,39410.0,51624.0,19083.0,14825.0
2026-05-06 16:36:43.434105,935283,1609507666771704,5266683528,0.687104,0.306464,0.44896,-18.6375,0.98,-4.4275,-42.376003,5.368,-66.920006,eccentric,4,5.0,30975.0,34665.0,89668.0,91111.0,27790.0,43037.0,39410.0,51624.0,19083.0,14825.0
2026-05-06 16:36:43.436992,935284,1609507666780629,5266692344,0.714432,0.183488,0.521184,-20.36125,0.8225,-5.6875,-42.760002,5.256,-67.248,eccentric,4,5.0,30975.0,34665.0,89668.0,91111.0,27790.0,43037.0,39410.0,51624.0,19083.0,14825.0
2026-05-06 16:36:43.439518,935285,1609507666795093,5266707295,0.689056,0.28304,0.558272,-18.8125,0.5075,-3.77125,-43.008003,5.192,-67.672005,eccentric,4,5.0,30975.0,34665.0,89668.0,91111.0,27790.0,43037.0,39410.0,51624.0,19083.0,14825.0
2026-05-06 16:36:43.442001,935286,1609507666804046,5266716120,0.689056,0.28304,0.558272,-15.225,0.20125,-0.04375,-43.008003,5.192,-67.672005,eccentric,4,5.0,30975.0,34665.0,89668.0,91111.0,27790.0,43037.0,39410.0,51624.0,19083.0,14825.0
2026-05-06 16:36:43.444525,935287,1609507666819009,5266731886,0.696864,0.294752,0.534848,-15.46125,-0.245,0.7175,-42.800003,5.288,-67.104004,eccentric,4,5.0,30975.0,34665.0,89668.0,91111.0,27790.0,43037.0,39410.0,51624.0,19083.0,14825.0
2026-05-06 16:36:43.446681,935288,1609507666827958,5266740669,0.696864,0.294752,0.534848,-18.48875,0.7,-3.26375,-42.800003,5.288,-67.104004,eccentric,4,5.0,30975.0,34665.0,89668.0,91111.0,27790.0,43037.0,39410.0,51624.0,19083.0,14825.0
2026-05-06 16:36:43.453309,935289,1609507666842483,5266753566,0.716384,0.193248,0.54656,-18.19125,0.77875,-6.6325,-42.72,5.32,-67.16801,eccentric,4,5.0,30975.0,34665.0,89668.0,91111.0,27790.0,43037.0,39410.0,51624.0,19083.0,14825.0
2026-05-06 16:36:43.459541,935290,1609507666851766,5266762531,0.716384,0.193248,0.54656,-12.46,0.6825,-5.99375,-42.72,5.32,-67.16801,eccentric,4,5.0,30975.0,34665.0,89668.0,91111.0,27790.0,43037.0,39410.0,51624.0,19083.0,14825.0
2026-05-06 16:36:43.495341,935301,1609507666861384,5266773347,0.704672,0.249856,0.554368,-5.92375,-0.21875,-4.375,-42.656002,4.424,-66.08,eccentric,4,5.0,30839.0,34613.0,89629.0,91233.0,27682.0,42971.0,39397.0,51739.0,19003.0,14788.0
2026-05-06 16:36:43.497802,935302,1609507666875975,5266788442,0.691008,0.249856,0.523136,-2.7475,0.06125,-3.4475,-43.04,3.472,-65.768005,eccentric,4,5.0,30839.0,34613.0,89629.0,91233.0,27682.0,42971.0,39397.0,51739.0,19003.0,14788.0
2026-05-06 16:36:43.500600,935303,1609507666884938,5266797182,0.691008,0.249856,0.523136,-3.78,0.90125,-4.655,-43.04,3.472,-65.768005,eccentric,4,5.0,30839.0,34613.0,89629.0,91233.0,27682.0,42971.0,39397.0,51739.0,19003.0,14788.0
2026-05-06 16:36:43.502814,935304,1609507666893952,5266805898,0.691008,0.249856,0.523136,-5.495,2.73875,-5.18,-43.04,3.472,-65.768005,eccentric,4,5.0,30839.0,34613.0,89629.0,91233.0,27682.0,42971.0,39397.0,51739.0,19003.0,14788.0
2026-05-06 16:36:43.537290,935305,1609507666908624,5266820828,0.698816,0.255712,0.54656,-4.1125,3.31625,-5.3025,-42.592003,4.896,-67.288,eccentric,4,5.0,30839.0,34613.0,89629.0,91233.0,27682.0,42971.0,39397.0,51739.0,19003.0,14788.0
2026-05-06 16:36:43.539516,935306,1609507666917656,5266829564,0.698816,0.210816,0.519232,-2.77375,3.22875,-5.50375,-42.912003,5.272,-67.04,eccentric,4,5.0,30839.0,34613.0,89629.0,91233.0,27682.0,42971.0,39397.0,51739.0,19003.0,14788.0
2026-05-06 16:36:43.542047,935307,1609507666932151,5266844578,0.698816,0.210816,0.519232,1.60125,2.695,-4.8825,-42.912003,5.272,-67.04,eccentric,4,5.0,30839.0,34613.0,89629.0,91233.0,27682.0,42971.0,39397.0,51739.0,19003.0,14788.0
2026-05-06 16:36:43.550795,935308,1609507666941094,5266853284,0.67344,0.269376,0.519232,3.605,1.9425,-3.98125,-42.864002,2.304,-64.76,eccentric,4,5.0,30839.0,34613.0,89629.0,91233.0,27682.0,42971.0,39397.0,51739.0,19003.0,14788.0
2026-05-06 16:36:43.574661,935309,1609507666955615,5266868181,0.67344,0.269376,0.515328,2.14375,1.35625,-2.54625,-42.864002,2.304,-64.76,eccentric,4,5.0,30839.0,34613.0,89629.0,91233.0,27682.0,42971.0,39397.0,51739.0,19003.0,14788.0
2026-05-06 16:36:43.601661,935320,1609507666964751,5266877035,0.642208,0.288896,0.515328,0.2275,1.435,-3.5,-43.032,3.576,-65.944,eccentric,4,5.0,30935.0,34656.0,89546.0,91274.0,27770.0,43040.0,39360.0,51739.0,19086.0,14828.0
2026-05-06 16:36:43.604221,935321,1609507666973701,5266885818,0.642208,0.288896,0.515328,-0.21,1.81125,-5.20625,-43.032,3.576,-65.944,eccentric,4,5.0,30935.0,34656.0,89546.0,91274.0,27770.0,43040.0,39360.0,51739.0,19086.0,14828.0
2026-05-06 16:36:43.607127,935322,1609507666988257,5266900847,0.696864,0.247904,0.530944,2.84375,1.6625,-5.27625,-42.84,1.528,-64.416,eccentric,4,5.0,30935.0,34656.0,89546.0,91274.0,27770.0,43040.0,39360.0,51739.0,19086.0,14828.0
2026-05-06 16:36:43.609525,935323,1609507666997264,5266909553,0.66368,0.245952,0.548512,5.145,1.05,-6.32625,-43.008003,2.848,-65.648,eccentric,4,5.0,30935.0,34656.0,89546.0,91274.0,27770.0,43040.0,39360.0,51739.0,19086.0,14828.0
2026-05-06 16:36:43.623279,935324,1609507667011811,5266924498,0.66368,0.245952,0.548512,8.2075,0.4375,-5.32875,-43.008003,2.848,-65.648,eccentric,4,5.0,30935.0,34656.0,89546.0,91274.0,27770.0,43040.0,39360.0,51739.0,19086.0,14828.0
2026-05-06 16:36:43.629670,935325,1609507667020730,5266933225,0.646112,0.35136,0.573888,8.04125,0.27125,-3.94625,-42.800003,4.584,-65.512,eccentric,4,5.0,30935.0,34656.0,89546.0,91274.0,27770.0,43040.0,39360.0,51739.0,19086.0,14828.0
