pc_time,serial_num,sensor_ts,host_ts,ax,ay,az,gx,gy,gz,mx,my,mz,phase,rpe,weight_kg,ppg_a,ppg_b,ppg_c,ppg_d,ppg_e,ppg_f,ppg_g,ppg_h,ppg_i,ppg_j
2026-05-06 16:32:52.887654,891899,1609507436260064,5036172586,0.650016,0.443104,0.462624,1.19875,0.86625,-10.0275,-44.536003,0.976,-60.104004,concentric,4,5.0,31242.0,34023.0,79911.0,73040.0,29113.0,43361.0,34942.0,41530.0,20048.0,15072.0
2026-05-06 16:32:52.889983,891900,1609507436274603,5036185466,0.667584,0.488,0.493856,2.70375,2.24875,-8.56625,-44.432003,2.44,-63.792004,concentric,4,5.0,31242.0,34023.0,79911.0,73040.0,29113.0,43361.0,34942.0,41530.0,20048.0,15072.0
2026-05-06 16:32:52.917748,891911,1609507436283955,5036196405,0.667584,0.488,0.493856,1.91625,3.08875,-9.135,-44.432003,2.44,-63.792004,concentric,4,5.0,31153.0,33932.0,79668.0,72953.0,29021.0,43260.0,34803.0,41453.0,19999.0,15027.0
2026-05-06 16:32:52.920146,891912,1609507436292897,5036205269,0.650016,0.447008,0.433344,-1.16375,3.78,-12.3725,-44.304,1.976,-63.576004,concentric,4,5.0,31153.0,33932.0,79668.0,72953.0,29021.0,43260.0,34803.0,41453.0,19999.0,15027.0
2026-05-06 16:32:52.922893,891913,1609507436307459,5036218233,0.650016,0.447008,0.433344,-2.66875,3.85,-13.125,-44.304,1.976,-63.576004,concentric,4,5.0,31153.0,33932.0,79668.0,72953.0,29021.0,43260.0,34803.0,41453.0,19999.0,15027.0
2026-05-06 16:32:52.925378,891914,1609507436316726,5036229073,0.681248,0.445056,0.474336,-1.33875,3.675,-11.6725,-44.464,1.288,-63.304005,concentric,4,5.0,31153.0,33932.0,79668.0,72953.0,29021.0,43260.0,34803.0,41453.0,19999.0,15027.0
2026-05-06 16:32:52.956546,891915,1609507436331259,5036243995,0.671488,0.437248,0.42944,0.1575,3.36875,-10.9725,-44.712,0.744,-63.272003,concentric,4,5.0,31153.0,33932.0,79668.0,72953.0,29021.0,43260.0,34803.0,41453.0,19999.0,15027.0
2026-05-06 16:32:52.981563,891916,1609507436340193,5036252713,0.671488,0.437248,0.42944,0.28875,3.14125,-9.70375,-44.712,0.744,-63.272003,concentric,4,5.0,31153.0,33932.0,79668.0,72953.0,29021.0,43260.0,34803.0,41453.0,19999.0,15027.0
2026-05-06 16:32:52.992782,891917,1609507436349374,5036261450,0.671488,0.437248,0.42944,-0.35,2.77375,-9.205,-44.712,0.744,-63.272003,concentric,4,5.0,31153.0,33932.0,79668.0,72953.0,29021.0,43260.0,34803.0,41453.0,19999.0,15027.0
2026-05-06 16:32:52.995084,891918,1609507436363890,5036276412,0.671488,0.452864,0.456768,-0.25375,1.435,-7.91875,-44.56,1.392,-64.76,concentric,4,5.0,31153.0,33932.0,79668.0,72953.0,29021.0,43260.0,34803.0,41453.0,19999.0,15027.0
2026-05-06 16:32:52.997879,891919,1609507436372838,5036285116,0.66368,0.464576,0.470432,0.21,0.70875,-7.9625,-44.72,1.264,-63.032,concentric,4,5.0,31153.0,33932.0,79668.0,72953.0,29021.0,43260.0,34803.0,41453.0,19999.0,15027.0
2026-05-06 16:32:53.025342,891930,1609507436387376,5036300159,0.66368,0.464576,0.470432,-1.54,0.65625,-8.47875,-44.72,1.264,-63.032,concentric,4,5.0,31192.0,33926.0,79568.0,73013.0,29047.0,43255.0,34772.0,41482.0,20016.0,15061.0
2026-05-06 16:32:53.027905,891931,1609507436396283,5036308868,0.677344,0.456768,0.515328,-3.70125,1.7675,-7.945,-44.592003,1.328,-63.56,concentric,4,5.0,31192.0,33926.0,79568.0,73013.0,29047.0,43255.0,34772.0,41482.0,20016.0,15061.0
2026-05-06 16:32:53.030412,891932,1609507436405254,5036317664,0.677344,0.456768,0.515328,-3.9375,4.29625,-7.1925,-44.592003,1.328,-63.56,concentric,4,5.0,31192.0,33926.0,79568.0,73013.0,29047.0,43255.0,34772.0,41482.0,20016.0,15061.0
2026-05-06 16:32:53.032865,891933,1609507436419808,5036330625,0.691008,0.4392,0.482144,-4.87375,6.545,-7.4025,-44.504,-1.728,-60.848003,concentric,4,5.0,31192.0,33926.0,79568.0,73013.0,29047.0,43255.0,34772.0,41482.0,20016.0,15061.0
2026-05-06 16:32:53.037564,891934,1609507436429089,5036341500,0.691008,0.4392,0.482144,-4.61125,8.645,-6.8425,-44.504,-1.728,-60.848003,concentric,4,5.0,31192.0,33926.0,79568.0,73013.0,29047.0,43255.0,34772.0,41482.0,20016.0,15061.0
2026-05-06 16:32:53.041410,891935,1609507436443646,5036354428,0.655872,0.486048,0.474336,-3.19375,9.695,-5.6175,-44.712,-1.616,-63.512005,concentric,4,5.0,31192.0,33926.0,79568.0,73013.0,29047.0,43255.0,34772.0,41482.0,20016.0,15061.0
2026-05-06 16:32:53.055226,891936,1609507436452867,5036365206,0.667584,0.435296,0.437248,-2.3625,9.58125,-5.1275,-44.896004,1.456,-63.208004,concentric,4,5.0,31192.0,33926.0,79568.0,73013.0,29047.0,43255.0,34772.0,41482.0,20016.0,15061.0
2026-05-06 16:32:53.061520,891937,1609507436461810,5036373909,0.667584,0.435296,0.437248,-3.59625,10.115,-6.1075,-44.896004,1.456,-63.208004,concentric,4,5.0,31192.0,33926.0,79568.0,73013.0,29047.0,43255.0,34772.0,41482.0,20016.0,15061.0
2026-05-06 16:32:53.102939,891948,1609507436476348,5036389080,0.689056,0.441152,0.499712,-3.5175,10.66625,-4.9175,-44.600002,1.688,-62.952003,concentric,4,5.0,31231.0,33931.0,79537.0,72914.0,29060.0,43263.0,34752.0,41441.0,20042.0,15050.0
2026-05-06 16:32:53.105446,891949,1609507436485363,5036397875,0.689056,0.441152,0.499712,-2.2925,10.47375,-2.765,-44.600002,1.688,-62.952003,concentric,4,5.0,31231.0,33931.0,79537.0,72914.0,29060.0,43263.0,34752.0,41441.0,20042.0,15050.0
2026-05-06 16:32:53.107974,891950,1609507436499894,5036410787,0.628544,0.474336,0.40992,-1.26875,10.50875,-1.4175,-44.848003,-0.456,-61.368004,concentric,4,5.0,31231.0,33931.0,79537.0,72914.0,29060.0,43263.0,34752.0,41441.0,20042.0,15050.0
2026-05-06 16:32:53.110403,891951,1609507436509230,5036421593,0.628544,0.474336,0.40992,-0.72625,9.59875,-0.2625,-44.848003,-0.456,-61.368004,concentric,4,5.0,31231.0,33931.0,79537.0,72914.0,29060.0,43263.0,34752.0,41441.0,20042.0,15050.0
2026-05-06 16:32:53.124178,891952,1609507436523752,5036434588,0.659776,0.447008,0.431392,-0.34125,7.5425,-0.665,-44.592003,0.176,-61.856003,concentric,4,5.0,31231.0,33931.0,79537.0,72914.0,29060.0,43263.0,34752.0,41441.0,20042.0,15050.0
2026-05-06 16:32:53.132801,891953,1609507436533027,5036445386,0.632448,0.431392,0.41968,0.48125,5.69625,-0.28875,-44.624,-0.352,-61.656002,concentric,4,5.0,31231.0,33931.0,79537.0,72914.0,29060.0,43263.0,34752.0,41441.0,20042.0,15050.0
2026-05-06 16:32:53.141925,891954,1609507436541983,5036454121,0.632448,0.431392,0.41968,0.49875,4.2875,1.5925,-44.624,-0.352,-61.656002,concentric,4,5.0,31231.0,33931.0,79537.0,72914.0,29060.0,43263.0,34752.0,41441.0,20042.0,15050.0
2026-05-06 16:32:53.155236,891955,1609507436556478,5036469113,0.597312,0.474336,0.437248,0.27125,3.26375,3.395,-44.344,1.744,-62.736004,concentric,4,5.0,31231.0,33931.0,79537.0,72914.0,29060.0,43263.0,34752.0,41441.0,20042.0,15050.0
2026-05-06 16:32:53.169006,891956,1609507436565434,5036477812,0.597312,0.474336,0.437248,0.06125,2.56375,4.40125,-44.344,1.744,-62.736004,concentric,4,5.0,31231.0,33931.0,79537.0,72914.0,29060.0,43263.0,34752.0,41441.0,20042.0,15050.0
2026-05-06 16:32:53.205301,891967,1609507436580085,5036492873,0.620736,0.447008,0.427488,-1.53125,2.23125,2.5375,-44.648003,0.48,-61.72,concentric,4,5.0,31150.0,33855.0,79507.0,72805.0,28998.0,43220.0,34759.0,41398.0,19989.0,15019.0
2026-05-06 16:32:53.207735,891968,1609507436589262,5036501612,0.620736,0.447008,0.427488,-4.235,1.5225,-0.4025,-44.648003,0.48,-61.72,concentric,4,5.0,31150.0,33855.0,79507.0,72805.0,28998.0,43220.0,34759.0,41398.0,19989.0,15019.0
2026-05-06 16:32:53.210396,891969,1609507436598278,5036510348,0.60512,0.38064,0.40016,-4.375,1.40875,-1.6275,-44.512,1.304,-62.448,concentric,4,5.0,31150.0,33855.0,79507.0,72805.0,28998.0,43220.0,34759.0,41398.0,19989.0,15019.0
2026-05-06 16:32:53.212914,891970,1609507436612882,5036525277,0.589504,0.40992,0.452864,-1.79375,1.3475,-0.97125,-44.512,1.304,-64.392006,concentric,4,5.0,31150.0,33855.0,79507.0,72805.0,28998.0,43220.0,34759.0,41398.0,19989.0,15019.0
2026-05-06 16:32:53.224289,891971,1609507436621853,5036534117,0.591456,0.40992,0.452864,-0.9975,1.47875,0.3675,-44.608,1.968,-64.392006,concentric,4,5.0,31150.0,33855.0,79507.0,72805.0,28998.0,43220.0,34759.0,41398.0,19989.0,15019.0
2026-05-06 16:32:53.255288,891972,1609507436636366,5036549008,0.569984,0.450912,0.417728,0.04375,2.2925,0.875,-44.56,1.624,-62.384003,concentric,4,5.0,31150.0,33855.0,79507.0,72805.0,28998.0,43220.0,34759.0,41398.0,19989.0,15019.0
2026-05-06 16:32:53.257811,891973,1609507436645329,5036557775,0.569984,0.450912,0.417728,-1.61,3.0625,-1.30375,-44.56,1.624,-62.384003,concentric,4,5.0,31150.0,33855.0,79507.0,72805.0,28998.0,43220.0,34759.0,41398.0,19989.0,15019.0
2026-05-06 16:32:53.260306,891974,1609507436659831,5036570660,0.583648,0.396256,0.460672,-2.54625,4.20875,-4.0425,-44.416,1.576,-61.312004,concentric,4,5.0,31150.0,33855.0,79507.0,72805.0,28998.0,43220.0,34759.0,41398.0,19989.0,15019.0
2026-05-06 16:32:53.269095,891975,1609507436669086,5036581463,0.583648,0.396256,0.460672,-2.9225,5.85375,-7.02625,-44.416,1.576,-61.312004,concentric,4,5.0,31150.0,33855.0,79507.0,72805.0,28998.0,43220.0,34759.0,41398.0,19989.0,15019.0
2026-05-06 16:32:53.347756,891986,1609507436678077,5036590326,0.620736,0.333792,0.464576,-1.47,6.60625,-8.00625,-44.536003,1.496,-62.008003,concentric,4,5.0,31034.0,33782.0,79429.0,72728.0,28868.0,43109.0,34700.0,41339.0,19910.0,14983.0
2026-05-06 16:32:53.356703,891987,1609507436692666,5036605245,0.620736,0.333792,0.464576,-0.7175,8.39125,-8.2425,-44.536003,1.496,-62.008003,concentric,4,5.0,31034.0,33782.0,79429.0,72728.0,28868.0,43109.0,34700.0,41339.0,19910.0,14983.0
2026-05-06 16:32:53.359167,891988,1609507436701806,5036614020,0.571936,0.404064,0.46848,0.42875,12.10125,-6.4925,-44.608,0.128,-60.744003,concentric,4,5.0,31034.0,33782.0,79429.0,72728.0,28868.0,43109.0,34700.0,41339.0,19910.0,14983.0
2026-05-06 16:32:53.361582,891989,1609507436716402,5036629012,0.562176,0.480192,0.417728,2.3275,15.47875,-5.43375,-44.672,1.744,-61.920002,concentric,4,5.0,31034.0,33782.0,79429.0,72728.0,28868.0,43109.0,34700.0,41339.0,19910.0,14983.0
2026-05-06 16:32:53.363917,891990,1609507436725341,5036637883,0.562176,0.480192,0.417728,2.8875,17.36875,-7.77875,-44.672,1.744,-61.920002,concentric,4,5.0,31034.0,33782.0,79429.0,72728.0,28868.0,43109.0,34700.0,41339.0,19910.0,14983.0
2026-05-06 16:32:53.366441,891991,1609507436734295,5036646588,0.587552,0.425536,0.452864,3.38625,17.7275,-12.285,-45.192,1.2,-63.584003,concentric,4,5.0,31034.0,33782.0,79429.0,72728.0,28868.0,43109.0,34700.0,41339.0,19910.0,14983.0
2026-05-06 16:32:53.368898,891992,1609507436748775,5036661472,0.587552,0.425536,0.452864,4.64625,15.93375,-15.627501,-45.192,1.2,-63.584003,concentric,4,5.0,31034.0,33782.0,79429.0,72728.0,28868.0,43109.0,34700.0,41339.0,19910.0,14983.0
2026-05-06 16:32:53.371280,891993,1609507436757704,5036670242,0.562176,0.443104,0.435296,8.2775,13.545,-15.16375,-44.752003,0.832,-61.408005,concentric,4,5.0,31034.0,33782.0,79429.0,72728.0,28868.0,43109.0,34700.0,41339.0,19910.0,14983.0
2026-05-06 16:32:53.373630,891994,1609507436772277,5036683140,0.562176,0.443104,0.435296,10.0625,11.20875,-13.48375,-44.752003,0.832,-61.408005,concentric,4,5.0,31034.0,33782.0,79429.0,72728.0,28868.0,43109.0,34700.0,41339.0,19910.0,14983.0
2026-05-06 16:32:53.401684,892005,1609507436782016,5036694087,0.562176,0.505568,0.4392,8.6975,8.98625,-11.54125,-45.064003,0.768,-60.464005,concentric,4,5.0,30919.0,33715.0,79403.0,72698.0,28775.0,43072.0,34677.0,41327.0,19850.0,14961.0
2026-05-06 16:32:53.404088,892006,1609507436791034,5036702910,0.562176,0.505568,0.4392,3.85,7.7525,-12.4075,-45.064003,0.768,-60.464005,concentric,4,5.0,30919.0,33715.0,79403.0,72698.0,28775.0,43072.0,34677.0,41327.0,19850.0,14961.0
2026-05-06 16:32:53.406702,892007,1609507436805778,5036718005,0.550464,0.476288,0.40016,0.455,6.67625,-13.6325,-45.2,0.848,-60.72,concentric,4,5.0,30919.0,33715.0,79403.0,72698.0,28775.0,43072.0,34677.0,41327.0,19850.0,14961.0
2026-05-06 16:32:53.417057,892008,1609507436814866,5036726763,0.554368,0.472384,0.493856,2.94875,5.27625,-11.76875,-44.896004,0.544,-59.784004,concentric,4,5.0,30919.0,33715.0,79403.0,72698.0,28775.0,43072.0,34677.0,41327.0,19850.0,14961.0
2026-05-06 16:32:53.430300,892009,1609507436829378,5036741663,0.554368,0.472384,0.493856,6.22125,2.12625,-9.948751,-44.896004,0.544,-59.784004,concentric,4,5.0,30919.0,33715.0,79403.0,72698.0,28775.0,43072.0,34677.0,41327.0,19850.0,14961.0
2026-05-06 16:32:53.436481,892010,1609507436838298,5036750377,0.534848,0.493856,0.4392,6.30875,-0.4725,-8.4525,-45.120003,0.664,-60.376003,concentric,4,5.0,30919.0,33715.0,79403.0,72698.0,28775.0,43072.0,34677.0,41327.0,19850.0,14961.0
2026-05-06 16:32:53.450281,892011,1609507436847239,5036759126,0.534848,0.493856,0.4392,6.2825,-2.2925,-6.60625,-45.120003,0.664,-60.376003,concentric,4,5.0,30919.0,33715.0,79403.0,72698.0,28775.0,43072.0,34677.0,41327.0,19850.0,14961.0
2026-05-06 16:32:53.464009,892012,1609507436861747,5036774057,0.571936,0.445056,0.41968,7.91,-4.0775,-6.335,-45.096,1.088,-61.096004,concentric,4,5.0,30919.0,33715.0,79403.0,72698.0,28775.0,43072.0,34677.0,41327.0,19850.0,14961.0
2026-05-06 16:32:53.470163,892013,1609507436870674,5036782753,0.571936,0.445056,0.41968,5.97625,-5.17125,-6.74625,-45.096,1.088,-61.096004,concentric,4,5.0,30919.0,33715.0,79403.0,72698.0,28775.0,43072.0,34677.0,41327.0,19850.0,14961.0
2026-05-06 16:32:53.531550,892024,1609507436885347,5036797850,0.505568,0.382592,0.46848,4.6025,-4.4975,-3.33375,-45.488003,0.84,-60.936005,concentric,4,5.0,30835.0,33739.0,79326.0,72594.0,28745.0,43076.0,34643.0,41282.0,19831.0,14955.0
2026-05-06 16:32:53.533992,892025,1609507436894325,5036806605,0.505568,0.382592,0.46848,2.0125,-4.52375,1.0325,-45.488003,0.84,-60.936005,concentric,4,5.0,30835.0,33739.0,79326.0,72594.0,28745.0,43076.0,34643.0,41282.0,19831.0,14955.0
2026-05-06 16:32:53.536321,892026,1609507436908879,5036821589,0.57584,0.335744,0.398208,0.21875,-4.4975,4.99625,-45.248,-1.448,-58.192,concentric,4,5.0,30835.0,33739.0,79326.0,72594.0,28745.0,43076.0,34643.0,41282.0,19831.0,14955.0
2026-05-06 16:32:53.539025,892027,1609507436917770,5036830300,0.540704,0.284992,0.443104,-0.245,-3.15,8.67125,-45.192,1.304,-60.56,concentric,4,5.0,30835.0,33739.0,79326.0,72594.0,28745.0,43076.0,34643.0,41282.0,19831.0,14955.0
2026-05-06 16:32:53.541574,892028,1609507436926677,5036839041,0.540704,0.284992,0.443104,0.70875,-0.9625,14.28,-45.192,1.304,-60.56,concentric,4,5.0,30835.0,33739.0,79326.0,72594.0,28745.0,43076.0,34643.0,41282.0,19831.0,14955.0
2026-05-06 16:32:53.543966,892029,1609507436941187,5036851974,0.460672,0.474336,0.491904,4.2875,0.8225,20.16,-45.312,1.216,-60.600002,concentric,4,5.0,30835.0,33739.0,79326.0,72594.0,28745.0,43076.0,34643.0,41282.0,19831.0,14955.0
2026-05-06 16:32:53.550255,892030,1609507436950417,5036862764,0.460672,0.474336,0.491904,9.3975,1.42625,22.26,-45.312,1.216,-60.600002,concentric,4,5.0,30835.0,33739.0,79326.0,72594.0,28745.0,43076.0,34643.0,41282.0,19831.0,14955.0
2026-05-06 16:32:53.584183,892031,1609507436965022,5036877667,0.501664,0.544608,0.363072,10.325,-0.21875,15.35625,-45.008003,1.64,-60.616,concentric,4,5.0,30835.0,33739.0,79326.0,72594.0,28745.0,43076.0,34643.0,41282.0,19831.0,14955.0
2026-05-06 16:32:53.586499,892032,1609507436974122,5036886402,0.501664,0.544608,0.363072,5.87125,-2.05625,5.32875,-45.008003,1.64,-60.616,concentric,4,5.0,30835.0,33739.0,79326.0,72594.0,28745.0,43076.0,34643.0,41282.0,19831.0,14955.0
2026-05-06 16:32:53.614817,892043,1609507436983513,5036895225,0.560224,0.3904,0.406016,2.59,-4.68125,-3.31625,-45.056004,1.808,-59.872,concentric,4,5.0,31220.0,34060.0,80067.0,72839.0,29138.0,43404.0,35055.0,41477.0,20087.0,15100.0
2026-05-06 16:32:53.617159,892044,1609507436998113,5036910372,0.5368,0.3904,0.460672,4.78625,-6.32625,-6.62375,-45.416,0.536,-59.288002,concentric,4,5.0,31220.0,34060.0,80067.0,72839.0,29138.0,43404.0,35055.0,41477.0,20087.0,15100.0
2026-05-06 16:32:53.619403,892045,1609507437007069,5036919171,0.5368,0.3904,0.460672,10.045,-7.035,-4.29625,-45.416,0.536,-59.288002,concentric,4,5.0,31220.0,34060.0,80067.0,72839.0,29138.0,43404.0,35055.0,41477.0,20087.0,15100.0
2026-05-06 16:32:53.621412,892046,1609507437021558,5036934152,0.513376,0.626592,0.462624,12.11875,-7.53375,-0.455,-45.392002,0.24,-59.032,concentric,4,5.0,31220.0,34060.0,80067.0,72839.0,29138.0,43404.0,35055.0,41477.0,20087.0,15100.0
2026-05-06 16:32:53.631561,892047,1609507437030505,5036942891,0.513376,0.626592,0.462624,5.5825,-7.35875,-1.00625,-45.392002,0.24,-59.032,concentric,4,5.0,31220.0,34060.0,80067.0,72839.0,29138.0,43404.0,35055.0,41477.0,20087.0,15100.0
2026-05-06 16:32:53.640300,892048,1609507437039475,5036951628,0.50752,0.609024,0.2928,-2.66875,-7.3675,-6.74625,-45.768,1.656,-60.440002,concentric,4,5.0,31220.0,34060.0,80067.0,72839.0,29138.0,43404.0,35055.0,41477.0,20087.0,15100.0
2026-05-06 16:32:53.656749,892049,1609507437053992,5036966744,0.50752,0.609024,0.2928,-8.47,-8.54,-15.89875,-45.768,1.656,-60.440002,concentric,4,5.0,31220.0,34060.0,80067.0,72839.0,29138.0,43404.0,35055.0,41477.0,20087.0,15100.0
2026-05-06 16:32:53.662887,892050,1609507437062925,5036975451,0.571936,0.392352,0.329888,-5.4775,-10.5525,-19.64375,-45.928,1.264,-60.456,concentric,4,5.0,31220.0,34060.0,80067.0,72839.0,29138.0,43404.0,35055.0,41477.0,20087.0,15100.0
2026-05-06 16:32:53.692269,892051,1609507437077511,5036988387,0.564128,0.456768,0.532896,-0.32375,-11.80375,-15.56625,-46.144,1.552,-60.104004,concentric,4,5.0,31220.0,34060.0,80067.0,72839.0,29138.0,43404.0,35055.0,41477.0,20087.0,15100.0
2026-05-06 16:32:53.753746,892062,1609507437087222,5036999252,0.564128,0.456768,0.532896,2.345,-12.06625,-7.23625,-46.144,1.552,-60.104004,concentric,4,5.0,31633.0,34383.0,80380.0,72836.0,29553.0,43752.0,35209.0,41481.0,20323.0,15252.0
2026-05-06 16:32:53.756597,892063,1609507437096200,5037007971,0.564128,0.628544,0.443104,-0.98875,-10.89375,-0.62125,-46.144,1.552,-60.104004,concentric,4,5.0,31633.0,34383.0,80380.0,72836.0,29553.0,43752.0,35209.0,41481.0,20323.0,15252.0
2026-05-06 16:32:53.759012,892064,1609507437110706,5037022912,0.548512,0.628544,0.443104,-12.69625,-8.5225,0.315,-45.928,1.816,-60.288002,concentric,4,5.0,31633.0,34383.0,80380.0,72836.0,29553.0,43752.0,35209.0,41481.0,20323.0,15252.0
2026-05-06 16:32:53.761586,892065,1609507437120114,5037032032,0.64416,0.44896,0.308416,-24.64875,-5.50375,-3.87625,-46.408,1.576,-60.752003,concentric,4,5.0,31633.0,34383.0,80380.0,72836.0,29553.0,43752.0,35209.0,41481.0,20323.0,15252.0
2026-05-06 16:32:53.764017,892066,1609507437134601,5037047008,0.64416,0.44896,0.308416,-27.125,-3.6225,-9.73875,-46.408,1.576,-60.752003,concentric,4,5.0,31633.0,34383.0,80380.0,72836.0,29553.0,43752.0,35209.0,41481.0,20323.0,15252.0
2026-05-06 16:32:53.766575,892067,1609507437143672,5037055732,0.609024,0.353312,0.466528,-18.71625,-2.84375,-8.855001,-46.344,1.808,-59.840004,concentric,4,5.0,31633.0,34383.0,80380.0,72836.0,29553.0,43752.0,35209.0,41481.0,20323.0,15252.0
2026-05-06 16:32:53.769009,892068,1609507437152704,5037064441,0.609024,0.353312,0.466528,-5.59125,-3.2025,-2.03,-46.344,1.808,-59.840004,concentric,4,5.0,31633.0,34383.0,80380.0,72836.0,29553.0,43752.0,35209.0,41481.0,20323.0,15252.0
2026-05-06 16:32:53.771504,892069,1609507437167302,5037079475,0.612928,0.560224,0.530944,-2.415,-3.15,3.15875,-46.536003,0.144,-59.432003,concentric,4,5.0,31633.0,34383.0,80380.0,72836.0,29553.0,43752.0,35209.0,41481.0,20323.0,15252.0
2026-05-06 16:32:53.775292,892070,1609507437176250,5037088192,0.612928,0.560224,0.530944,-12.46875,-0.53375,2.30125,-46.536003,0.144,-59.432003,concentric,4,5.0,31633.0,34383.0,80380.0,72836.0,29553.0,43752.0,35209.0,41481.0,20323.0,15252.0
2026-05-06 16:32:53.806619,892081,1609507437191360,5037103761,0.64416,0.474336,0.460672,-26.635,2.975,-3.29,-46.72,0.232,-59.896004,concentric,4,5.0,31750.0,34592.0,80879.0,73088.0,29661.0,43933.0,35453.0,41582.0,20385.0,15296.0
2026-05-06 16:32:53.808999,892082,1609507437200414,5037112561,0.657824,0.314272,0.406016,-32.27,5.39875,-7.735,-46.840004,0.44,-59.064003,concentric,4,5.0,31750.0,34592.0,80879.0,73088.0,29661.0,43933.0,35453.0,41582.0,20385.0,15296.0
2026-05-06 16:32:53.811590,892083,1609507437209405,5037121323,0.657824,0.314272,0.406016,-23.56375,6.01125,-6.13375,-46.840004,0.44,-59.064003,concentric,4,5.0,31750.0,34592.0,80879.0,73088.0,29661.0,43933.0,35453.0,41582.0,20385.0,15296.0
2026-05-06 16:32:53.825294,892084,1609507437223929,5037136264,0.64416,0.489952,0.528992,-10.35125,3.885,-1.715,-46.696003,-0.216,-58.280003,concentric,4,5.0,31750.0,34592.0,80879.0,73088.0,29661.0,43933.0,35453.0,41582.0,20385.0,15296.0
2026-05-06 16:32:53.831561,892085,1609507437232846,5037145021,0.64416,0.489952,0.528992,-4.48,2.2575,0.4375,-46.696003,-0.216,-58.280003,concentric,4,5.0,31750.0,34592.0,80879.0,73088.0,29661.0,43933.0,35453.0,41582.0,20385.0,15296.0
2026-05-06 16:32:53.849186,892086,1609507437247384,5037159935,0.642208,0.55632,0.472384,-6.04625,1.995,-1.82875,-47.136,-0.176,-58.984,concentric,4,5.0,31750.0,34592.0,80879.0,73088.0,29661.0,43933.0,35453.0,41582.0,20385.0,15296.0
2026-05-06 16:32:53.855389,892087,1609507437256359,5037168615,0.642208,0.55632,0.472384,-9.89625,3.54375,-9.73875,-47.136,-0.176,-58.984,concentric,4,5.0,31750.0,34592.0,80879.0,73088.0,29661.0,43933.0,35453.0,41582.0,20385.0,15296.0
2026-05-06 16:32:53.889132,892088,1609507437270864,5037183615,0.757376,0.314272,0.456768,-9.84375,6.62375,-14.84875,-47.04,-1.176,-56.968002,concentric,4,5.0,31750.0,34592.0,80879.0,73088.0,29661.0,43933.0,35453.0,41582.0,20385.0,15296.0
2026-05-06 16:32:53.894142,892089,1609507437279789,5037192348,0.735904,0.353312,0.6344,1.30375,11.10375,-10.9025,-47.296,1.976,-59.296,concentric,4,5.0,31750.0,34592.0,80879.0,73088.0,29661.0,43933.0,35453.0,41582.0,20385.0,15296.0
2026-05-06 16:32:53.919046,892100,1609507437288838,5037201167,0.735904,0.353312,0.6344,13.265,14.37625,-1.89875,-47.296,1.976,-59.296,concentric,4,5.0,31641.0,34613.0,81229.0,73537.0,29594.0,43867.0,35601.0,41857.0,20313.0,15276.0
2026-05-06 16:32:53.921501,892101,1609507437303372,5037216142,0.685152,0.698816,0.650016,11.1825,16.2225,5.5825,-47.328003,0.368,-58.608,concentric,4,5.0,31641.0,34613.0,81229.0,73537.0,29594.0,43867.0,35601.0,41857.0,20313.0,15276.0
2026-05-06 16:32:53.923959,892102,1609507437312336,5037224924,0.685152,0.698816,0.650016,-6.965,18.165,3.57,-47.328003,0.368,-58.608,concentric,4,5.0,31641.0,34613.0,81229.0,73537.0,29594.0,43867.0,35601.0,41857.0,20313.0,15276.0
2026-05-06 16:32:53.926571,892103,1609507437327096,5037237866,0.657824,0.61488,0.488,-24.2025,20.2125,-6.90375,-47.328003,-0.44,-57.904003,concentric,4,5.0,31641.0,34613.0,81229.0,73537.0,29594.0,43867.0,35601.0,41857.0,20313.0,15276.0
2026-05-06 16:32:53.940365,892104,1609507437336365,5037248750,0.657824,0.61488,0.488,-28.07875,20.3875,-17.66625,-47.328003,-0.44,-57.904003,concentric,4,5.0,31641.0,34613.0,81229.0,73537.0,29594.0,43867.0,35601.0,41857.0,20313.0,15276.0
2026-05-06 16:32:53.946710,892105,1609507437345309,5037257456,0.796416,0.271328,0.460672,-18.90875,18.75125,-22.19875,-47.648003,0.616,-58.792004,concentric,4,5.0,31641.0,34613.0,81229.0,73537.0,29594.0,43867.0,35601.0,41857.0,20313.0,15276.0
2026-05-06 16:32:53.960243,892106,1609507437359832,5037272428,0.718336,0.447008,0.650016,1.40875,15.72375,-14.6475,-47.096,1.84,-60.744003,concentric,4,5.0,31641.0,34613.0,81229.0,73537.0,29594.0,43867.0,35601.0,41857.0,20313.0,15276.0
2026-05-06 16:32:53.969149,892107,1609507437368744,5037281142,0.718336,0.447008,0.650016,17.185,11.83875,-1.25125,-47.096,1.84,-60.744003,concentric,4,5.0,31641.0,34613.0,81229.0,73537.0,29594.0,43867.0,35601.0,41857.0,20313.0,15276.0
2026-05-06 16:32:54.007779,892118,1609507437383769,5037296534,0.603168,0.827648,0.51728,14.7,7.21875,9.9225,-47.448,2.112,-58.376003,concentric,4,5.0,31793.0,34646.0,80929.0,73507.0,29742.0,43946.0,35497.0,41833.0,20441.0,15345.0
2026-05-06 16:32:54.010349,892119,1609507437392724,5037305364,0.603168,0.827648,0.51728,-1.4175,3.5,6.685,-47.448,2.112,-58.376003,concentric,4,5.0,31793.0,34646.0,80929.0,73507.0,29742.0,43946.0,35497.0,41833.0,20441.0,15345.0
2026-05-06 16:32:54.015391,892120,1609507437401836,5037314081,0.677344,0.573888,0.425536,-14.62125,-0.48125,-7.93625,-48.320004,-1.84,-56.352,concentric,4,5.0,31793.0,34646.0,80929.0,73507.0,29742.0,43946.0,35497.0,41833.0,20441.0,15345.0
2026-05-06 16:32:54.017902,892121,1609507437416412,5037329021,0.677344,0.573888,0.425536,-15.35625,-4.20875,-19.94125,-48.320004,-1.84,-56.352,concentric,4,5.0,31793.0,34646.0,80929.0,73507.0,29742.0,43946.0,35497.0,41833.0,20441.0,15345.0
2026-05-06 16:32:54.024155,892122,1609507437425373,5037337783,0.735904,0.259616,0.616832,-6.545,-7.13125,-19.74875,-48.088,-1.912,-57.04,concentric,4,5.0,31793.0,34646.0,80929.0,73507.0,29742.0,43946.0,35497.0,41833.0,20441.0,15345.0
2026-05-06 16:32:54.057825,892123,1609507437439915,5037350733,0.603168,0.651968,0.558272,1.925,-9.26625,-9.8525,-47.872,1.544,-57.888004,concentric,4,5.0,31793.0,34646.0,80929.0,73507.0,29742.0,43946.0,35497.0,41833.0,20441.0,15345.0
2026-05-06 16:32:54.083555,892124,1609507437449163,5037361523,0.603168,0.651968,0.558272,5.7575,-10.6575,1.8025,-47.872,1.544,-57.888004,concentric,4,5.0,31793.0,34646.0,80929.0,73507.0,29742.0,43946.0,35497.0,41833.0,20441.0,15345.0
2026-05-06 16:32:54.090231,892125,1609507437463640,5037374397,0.630496,0.769088,0.447008,3.45625,-11.22625,3.9375,-47.864002,1.592,-58.520004,concentric,4,5.0,31793.0,34646.0,80929.0,73507.0,29742.0,43946.0,35497.0,41833.0,20441.0,15345.0
2026-05-06 16:32:54.092741,892126,1609507437472816,5037385182,0.630496,0.769088,0.447008,-6.27375,-10.28125,-7.53375,-47.864002,1.592,-58.520004,concentric,4,5.0,31793.0,34646.0,80929.0,73507.0,29742.0,43946.0,35497.0,41833.0,20441.0,15345.0
2026-05-06 16:32:54.095259,892127,1609507437481773,5037393929,0.737856,0.3416,0.503616,-8.86375,-8.015,-20.1075,-48.168003,1.208,-58.448,concentric,4,5.0,31793.0,34646.0,80929.0,73507.0,29742.0,43946.0,35497.0,41833.0,20441.0,15345.0
2026-05-06 16:32:54.126728,892138,1609507437496352,5037409006,0.737856,0.3416,0.503616,-0.35,-7.98,-22.18125,-48.168003,1.208,-58.448,concentric,4,5.0,31982.0,34813.0,81246.0,73468.0,29933.0,44067.0,35634.0,41831.0,20552.0,15389.0
2026-05-06 16:32:54.129177,892139,1609507437505263,5037417765,0.74176,0.421632,0.671488,14.28875,-9.485,-11.935,-48.432003,-0.528,-58.824,concentric,4,5.0,31982.0,34813.0,81246.0,73468.0,29933.0,44067.0,35634.0,41831.0,20552.0,15389.0
2026-05-06 16:32:54.131787,892140,1609507437519925,5037430694,0.753472,0.710528,0.569984,22.51375,-11.698751,0.83125,-48.432003,-0.752,-58.624004,concentric,4,5.0,31982.0,34813.0,81246.0,73468.0,29933.0,44067.0,35634.0,41831.0,20552.0,15389.0
2026-05-06 16:32:54.134132,892141,1609507437529140,5037441522,0.753472,0.710528,0.569984,7.74375,-10.8675,3.45625,-48.464,-0.752,-58.624004,concentric,4,5.0,31982.0,34813.0,81246.0,73468.0,29933.0,44067.0,35634.0,41831.0,20552.0,15389.0
2026-05-06 16:32:54.136649,892142,1609507437538076,5037450297,0.753472,0.710528,0.569984,-14.7,-7.2975,-3.05375,-48.464,-0.752,-58.624004,concentric,4,5.0,31982.0,34813.0,81246.0,73468.0,29933.0,44067.0,35634.0,41831.0,20552.0,15389.0
2026-05-06 16:32:54.168383,892143,1609507437552642,5037465269,0.728096,0.552416,0.44896,-18.05125,-4.165,-12.425,-48.52,-1.144,-56.280003,concentric,4,5.0,31982.0,34813.0,81246.0,73468.0,29933.0,44067.0,35634.0,41831.0,20552.0,15389.0
2026-05-06 16:32:54.170149,892144,1609507437561570,5037473975,0.794464,0.394304,0.616832,-5.32875,-5.03125,-16.1175,-48.504,0.936,-58.712,concentric,4,5.0,31982.0,34813.0,81246.0,73468.0,29933.0,44067.0,35634.0,41831.0,20552.0,15389.0
2026-05-06 16:32:54.178797,892145,1609507437576131,5037488894,0.794464,0.394304,0.616832,10.2725,-7.455,-10.6925,-48.504,0.936,-58.712,concentric,4,5.0,31982.0,34813.0,81246.0,73468.0,29933.0,44067.0,35634.0,41831.0,20552.0,15389.0
2026-05-06 16:32:54.210189,892157,1609507437585370,5037498128,0.7808,0.632448,0.679296,15.74125,-9.292501,-2.16125,-48.72,0.464,-58.624004,concentric,4,5.0,31919.0,34735.0,81099.0,73538.0,29836.0,44049.0,35545.0,41842.0,20485.0,15349.0
2026-05-06 16:32:54.212786,892158,1609507437594433,5037506896,0.7808,0.632448,0.679296,9.72125,-10.3775,-0.25375,-48.72,0.464,-58.624004,concentric,4,5.0,31919.0,34735.0,81099.0,73538.0,29836.0,44049.0,35545.0,41842.0,20485.0,15349.0
2026-05-06 16:32:54.215283,892159,1609507437609017,5037519801,0.743712,0.716384,0.452864,-3.7625,-9.84375,-5.43375,-48.848003,0.696,-58.992004,concentric,4,5.0,31919.0,34735.0,81099.0,73538.0,29836.0,44049.0,35545.0,41842.0,20485.0,15349.0
2026-05-06 16:32:54.217823,892160,1609507437618287,5037530646,0.743712,0.716384,0.452864,-7.665,-7.945,-10.4125,-48.848003,0.696,-58.992004,concentric,4,5.0,31919.0,34735.0,81099.0,73538.0,29836.0,44049.0,35545.0,41842.0,20485.0,15349.0
2026-05-06 16:32:54.231666,892161,1609507437632833,5037545585,0.798368,0.505568,0.589504,-2.93125,-6.57125,-15.58375,-48.928,0.792,-59.056004,concentric,4,5.0,31919.0,34735.0,81099.0,73538.0,29836.0,44049.0,35545.0,41842.0,20485.0,15349.0
2026-05-06 16:32:54.246564,892162,1609507437641874,5037554300,0.75152,0.616832,0.607072,3.70125,-4.80375,-10.94625,-48.648003,-0.8,-56.56,eccentric,4,5.0,31919.0,34735.0,81099.0,73538.0,29836.0,44049.0,35545.0,41842.0,20485.0,15349.0
2026-05-06 16:32:54.251482,892163,1609507437650801,5037563070,0.75152,0.616832,0.607072,7.48125,-3.29,-1.6275,-48.648003,-0.8,-56.56,eccentric,4,5.0,31919.0,34735.0,81099.0,73538.0,29836.0,44049.0,35545.0,41842.0,20485.0,15349.0
2026-05-06 16:32:54.265512,892164,1609507437665330,5037578024,0.728096,0.782752,0.558272,7.35875,-2.16125,2.89625,-48.752003,-0.504,-58.872,eccentric,4,5.0,31919.0,34735.0,81099.0,73538.0,29836.0,44049.0,35545.0,41842.0,20485.0,15349.0
2026-05-06 16:32:54.274023,892165,1609507437674224,5037586721,0.728096,0.782752,0.558272,1.30375,-1.12875,0.245,-48.752003,-0.504,-58.872,eccentric,4,5.0,31919.0,34735.0,81099.0,73538.0,29836.0,44049.0,35545.0,41842.0,20485.0,15349.0
2026-05-06 16:32:54.310416,892176,1609507437689441,5037601677,0.76128,0.618784,0.441152,-7.105,-0.07875,-6.895,-49.112003,0.544,-59.280003,eccentric,4,5.0,31855.0,34680.0,80878.0,73344.0,29778.0,43918.0,35435.0,41715.0,20441.0,15294.0
2026-05-06 16:32:54.312856,892177,1609507437698442,5037610486,0.76128,0.618784,0.441152,-6.3175,-0.95375,-8.96875,-49.112003,0.544,-59.280003,eccentric,4,5.0,31855.0,34680.0,80878.0,73344.0,29778.0,43918.0,35435.0,41715.0,20441.0,15294.0
2026-05-06 16:32:54.315449,892178,1609507437707490,5037619314,0.837408,0.443104,0.562176,3.0625,-3.38625,-6.46625,-49.192,-1.744,-58.224003,eccentric,4,5.0,31855.0,34680.0,80878.0,73344.0,29778.0,43918.0,35435.0,41715.0,20441.0,15294.0
2026-05-06 16:32:54.322902,892179,1609507437722042,5037634298,0.802272,0.642208,0.659776,9.5725,-4.57625,2.23125,-48.984,-2.112,-56.232002,eccentric,4,5.0,31855.0,34680.0,80878.0,73344.0,29778.0,43918.0,35435.0,41715.0,20441.0,15294.0
2026-05-06 16:32:54.331753,892180,1609507437731034,5037643003,0.802272,0.642208,0.659776,9.1525,-3.395,13.0025,-48.984,-2.112,-56.232002,eccentric,4,5.0,31855.0,34680.0,80878.0,73344.0,29778.0,43918.0,35435.0,41715.0,20441.0,15294.0
2026-05-06 16:32:54.365221,892181,1609507437745543,5037657920,0.767136,0.704672,0.607072,3.57875,-3.0275,15.12875,-48.824,0.712,-59.232002,eccentric,4,5.0,31855.0,34680.0,80878.0,73344.0,29778.0,43918.0,35435.0,41715.0,20441.0,15294.0
2026-05-06 16:32:54.370121,892182,1609507437754539,5037666668,0.767136,0.704672,0.607072,-7.735,-1.70625,9.17,-48.824,0.712,-59.232002,eccentric,4,5.0,31855.0,34680.0,80878.0,73344.0,29778.0,43918.0,35435.0,41715.0,20441.0,15294.0
2026-05-06 16:32:54.372743,892183,1609507437769016,5037681568,0.784704,0.532896,0.571936,-12.3025,-1.3825,2.065,-48.576004,0.896,-59.512,eccentric,4,5.0,31855.0,34680.0,80878.0,73344.0,29778.0,43918.0,35435.0,41715.0,20441.0,15294.0
2026-05-06 16:32:54.379036,892184,1609507437777952,5037690307,0.784704,0.532896,0.571936,-10.4475,-3.87625,-3.4125,-48.576004,0.896,-59.512,eccentric,4,5.0,31855.0,34680.0,80878.0,73344.0,29778.0,43918.0,35435.0,41715.0,20441.0,15294.0
2026-05-06 16:32:54.471650,892195,1609507437787336,5037699385,0.833504,0.454816,0.589504,-6.53625,-5.6,-3.54375,-48.760002,-0.808,-58.504,eccentric,4,5.0,31615.0,34513.0,80826.0,73447.0,29504.0,43752.0,35383.0,41755.0,20282.0,15256.0
2026-05-06 16:32:54.474030,892196,1609507437801975,5037714383,0.745664,0.579744,0.648064,-3.71,-5.5825,0.83125,-48.760002,-0.768,-56.416004,eccentric,4,5.0,31615.0,34513.0,80826.0,73447.0,29504.0,43752.0,35383.0,41755.0,20282.0,15256.0
2026-05-06 16:32:54.476547,892197,1609507437810917,5037723095,0.745664,0.579744,0.648064,0.42,-2.49375,5.0225,-48.648003,-0.768,-56.416004,eccentric,4,5.0,31615.0,34513.0,80826.0,73447.0,29504.0,43752.0,35383.0,41755.0,20282.0,15256.0
2026-05-06 16:32:54.478747,892198,1609507437825358,5037738001,0.763232,0.628544,0.5856,5.0225,-0.69125,5.8625,-48.432003,1.08,-59.568005,eccentric,4,5.0,31615.0,34513.0,80826.0,73447.0,29504.0,43752.0,35383.0,41755.0,20282.0,15256.0
2026-05-06 16:32:54.481336,892199,1609507437834287,5037746799,0.763232,0.628544,0.5856,2.47625,0.76125,0.5075,-48.432003,1.08,-59.568005,eccentric,4,5.0,31615.0,34513.0,80826.0,73447.0,29504.0,43752.0,35383.0,41755.0,20282.0,15256.0
2026-05-06 16:32:54.483858,892200,1609507437843274,5037755524,0.753472,0.515328,0.49776,-3.22,1.25125,-6.4225,-48.600002,0.984,-60.792004,eccentric,4,5.0,31615.0,34513.0,80826.0,73447.0,29504.0,43752.0,35383.0,41755.0,20282.0,15256.0
2026-05-06 16:32:54.489030,892201,1609507437857932,5037770444,0.753472,0.515328,0.49776,-2.38,0.2275,-8.89,-48.600002,0.984,-60.792004,eccentric,4,5.0,31615.0,34513.0,80826.0,73447.0,29504.0,43752.0,35383.0,41755.0,20282.0,15256.0
2026-05-06 16:32:54.491517,892202,1609507437866958,5037779153,0.772992,0.562176,0.607072,3.6575,-0.93625,-8.155,-48.296,0.872,-60.056004,eccentric,4,5.0,31615.0,34513.0,80826.0,73447.0,29504.0,43752.0,35383.0,41755.0,20282.0,15256.0
2026-05-06 16:32:54.494030,892203,1609507437881491,5037794113,0.772992,0.562176,0.607072,6.195,-0.42,-8.505,-48.296,0.872,-60.056004,eccentric,4,5.0,31615.0,34513.0,80826.0,73447.0,29504.0,43752.0,35383.0,41755.0,20282.0,15256.0
2026-05-06 16:32:54.521686,892214,1609507437890662,5037802938,0.700768,0.677344,0.612928,9.3975,1.16375,-8.47,-48.144,-1.712,-56.856003,eccentric,4,5.0,31502.0,34404.0,80576.0,73524.0,29377.0,43685.0,35259.0,41795.0,20216.0,15212.0
2026-05-06 16:32:54.523916,892215,1609507437905325,5037817913,0.743712,0.581696,0.525088,7.735,2.93125,-9.79125,-48.248,-3.016,-57.808002,eccentric,4,5.0,31502.0,34404.0,80576.0,73524.0,29377.0,43685.0,35259.0,41795.0,20216.0,15212.0
2026-05-06 16:32:54.526718,892216,1609507437914243,5037826705,0.743712,0.581696,0.525088,1.995,4.165,-14.2275,-48.248,-3.016,-57.808002,eccentric,4,5.0,31502.0,34404.0,80576.0,73524.0,29377.0,43685.0,35259.0,41795.0,20216.0,15212.0
2026-05-06 16:32:54.529160,892217,1609507437923404,5037835474,0.802272,0.489952,0.464576,-1.98625,4.06,-13.69375,-48.312004,-2.952,-56.688004,eccentric,4,5.0,31502.0,34404.0,80576.0,73524.0,29377.0,43685.0,35259.0,41795.0,20216.0,15212.0
2026-05-06 16:32:54.541371,892218,1609507437938117,5037850540,0.802272,0.489952,0.464576,-6.58875,1.46125,-12.775,-48.312004,-2.952,-56.688004,eccentric,4,5.0,31502.0,34404.0,80576.0,73524.0,29377.0,43685.0,35259.0,41795.0,20216.0,15212.0
2026-05-06 16:32:54.549047,892219,1609507437947090,5037859278,0.700768,0.579744,0.56608,-8.417501,0.16625,-7.805,-48.08,0.184,-60.256004,eccentric,4,5.0,31502.0,34404.0,80576.0,73524.0,29377.0,43685.0,35259.0,41795.0,20216.0,15212.0
2026-05-06 16:32:54.580284,892220,1609507437961619,5037874216,0.700768,0.579744,0.56608,-4.54125,0.32375,-0.91875,-48.08,0.184,-60.256004,eccentric,4,5.0,31502.0,34404.0,80576.0,73524.0,29377.0,43685.0,35259.0,41795.0,20216.0,15212.0
2026-05-06 16:32:54.582771,892221,1609507437970580,5037882900,0.718336,0.638304,0.562176,-3.00125,0.09625,1.46125,-47.936,-0.032,-58.224003,eccentric,4,5.0,31502.0,34404.0,80576.0,73524.0,29377.0,43685.0,35259.0,41795.0,20216.0,15212.0
2026-05-06 16:32:54.585350,892222,1609507437979495,5037891762,0.718336,0.638304,0.562176,-7.76125,1.16375,-1.07625,-47.936,-0.032,-58.224003,eccentric,4,5.0,31502.0,34404.0,80576.0,73524.0,29377.0,43685.0,35259.0,41795.0,20216.0,15212.0
2026-05-06 16:32:54.615428,892233,1609507437994181,5037906801,0.737856,0.495808,0.486048,-9.8,1.89,-2.33625,-47.696003,-0.544,-59.912003,eccentric,4,5.0,31450.0,34259.0,80466.0,73449.0,29277.0,43549.0,35211.0,41744.0,20166.0,15170.0
2026-05-06 16:32:54.617712,892234,1609507438003364,5037915638,0.735904,0.44896,0.499712,-7.0875,1.00625,-0.63,-47.696003,1.504,-60.376003,eccentric,4,5.0,31450.0,34259.0,80466.0,73449.0,29277.0,43549.0,35211.0,41744.0,20166.0,15170.0
2026-05-06 16:32:54.620113,892235,1609507438017993,5037930620,0.735904,0.44896,0.499712,-6.64125,-0.63875,2.87,-47.384003,0.544,-60.376003,eccentric,4,5.0,31450.0,34259.0,80466.0,73449.0,29277.0,43549.0,35211.0,41744.0,20166.0,15170.0
2026-05-06 16:32:54.626532,892236,1609507438027119,5037939344,0.691008,0.513376,0.515328,-8.435,-1.1375,8.81125,-47.440002,-1.736,-59.464005,eccentric,4,5.0,31450.0,34259.0,80466.0,73449.0,29277.0,43549.0,35211.0,41744.0,20166.0,15170.0
2026-05-06 16:32:54.635890,892237,1609507438036094,5037948107,0.691008,0.513376,0.515328,-10.78875,-0.1225,11.4975,-47.440002,-1.736,-59.464005,eccentric,4,5.0,31450.0,34259.0,80466.0,73449.0,29277.0,43549.0,35211.0,41744.0,20166.0,15170.0
2026-05-06 16:32:54.668997,892238,1609507438050590,5037963011,0.642208,0.519232,0.52704,-11.47125,2.07375,12.425,-47.08,-1.256,-58.808002,eccentric,4,5.0,31450.0,34259.0,80466.0,73449.0,29277.0,43549.0,35211.0,41744.0,20166.0,15170.0
2026-05-06 16:32:54.671648,892239,1609507438059487,5037971824,0.642208,0.519232,0.52704,-10.955,4.01625,12.31125,-47.08,-1.256,-58.808002,eccentric,4,5.0,31450.0,34259.0,80466.0,73449.0,29277.0,43549.0,35211.0,41744.0,20166.0,15170.0
2026-05-06 16:32:54.674077,892240,1609507438073996,5037986726,0.650016,0.415776,0.515328,-10.01875,5.85375,11.13875,-46.752003,0.632,-60.752003,eccentric,4,5.0,31450.0,34259.0,80466.0,73449.0,29277.0,43549.0,35211.0,41744.0,20166.0,15170.0
2026-05-06 16:32:54.688254,892241,1609507438083031,5037995431,0.650016,0.415776,0.515328,-7.7875,6.32625,11.8475,-46.752003,0.632,-60.752003,eccentric,4,5.0,31450.0,34259.0,80466.0,73449.0,29277.0,43549.0,35211.0,41744.0,20166.0,15170.0
2026-05-06 16:32:54.717934,892252,1609507438097649,5038008430,0.620736,0.396256,0.452864,-7.77,5.565,14.4025,-46.296,1.24,-62.120003,eccentric,4,5.0,31435.0,34220.0,80200.0,73069.0,29253.0,43513.0,35076.0,41541.0,20123.0,15143.0
2026-05-06 16:32:54.720372,892253,1609507438107050,5038019284,0.54656,0.482144,0.44896,-11.3575,4.61125,16.5025,-46.448,-1.896,-59.144,eccentric,4,5.0,31435.0,34220.0,80200.0,73069.0,29253.0,43513.0,35076.0,41541.0,20123.0,15143.0
2026-05-06 16:32:54.722907,892254,1609507438116027,5038028169,0.54656,0.482144,0.44896,-12.705,4.19125,17.77125,-46.448,-1.896,-59.144,eccentric,4,5.0,31435.0,34220.0,80200.0,73069.0,29253.0,43513.0,35076.0,41541.0,20123.0,15143.0
2026-05-06 16:32:54.731651,892255,1609507438130572,5038043110,0.548512,0.417728,0.443104,-12.11875,3.955,15.846251,-45.784,-0.096,-59.88,eccentric,4,5.0,31435.0,34220.0,80200.0,73069.0,29253.0,43513.0,35076.0,41541.0,20123.0,15143.0
2026-05-06 16:32:54.742214,892256,1609507438139513,5038051977,0.548512,0.417728,0.443104,-11.3225,3.85,13.18625,-45.784,-0.096,-59.88,eccentric,4,5.0,31435.0,34220.0,80200.0,73069.0,29253.0,43513.0,35076.0,41541.0,20123.0,15143.0
2026-05-06 16:32:54.754011,892257,1609507438153986,5038064842,0.583648,0.333792,0.392352,-11.8825,2.5725,11.165,-45.760002,1.608,-61.048004,eccentric,4,5.0,31435.0,34220.0,80200.0,73069.0,29253.0,43513.0,35076.0,41541.0,20123.0,15143.0
2026-05-06 16:32:54.767731,892258,1609507438163321,5038075746,0.583648,0.333792,0.392352,-7.21875,1.37375,13.22125,-45.760002,1.608,-61.048004,eccentric,4,5.0,31435.0,34220.0,80200.0,73069.0,29253.0,43513.0,35076.0,41541.0,20123.0,15143.0
2026-05-06 16:32:54.792807,892259,1609507438172356,5038084578,0.532896,0.415776,0.431392,-0.67375,-0.1575,13.58,-45.824,0.552,-59.520004,eccentric,4,5.0,31435.0,34220.0,80200.0,73069.0,29253.0,43513.0,35076.0,41541.0,20123.0,15143.0
2026-05-06 16:32:54.885378,892270,1609507438186960,5038099554,0.5368,0.417728,0.456768,1.91625,-2.1175,11.66375,-45.664,2.328,-61.192,eccentric,4,5.0,31375.0,34179.0,80107.0,72887.0,29207.0,43469.0,35009.0,41469.0,20078.0,15112.0
2026-05-06 16:32:54.887901,892271,1609507438196158,5038108293,0.5368,0.417728,0.456768,-2.84375,-2.24,7.06125,-45.664,2.328,-61.192,eccentric,4,5.0,31375.0,34179.0,80107.0,72887.0,29207.0,43469.0,35009.0,41469.0,20078.0,15112.0
2026-05-06 16:32:54.890402,892272,1609507438210654,5038123234,0.540704,0.357216,0.441152,-6.18625,-0.98875,3.61375,-45.232002,1.928,-61.376003,eccentric,4,5.0,31375.0,34179.0,80107.0,72887.0,29207.0,43469.0,35009.0,41469.0,20078.0,15112.0
2026-05-06 16:32:54.892850,892273,1609507438219540,5038132035,0.540704,0.357216,0.441152,-2.86125,-1.35625,3.17625,-45.232002,1.928,-61.376003,eccentric,4,5.0,31375.0,34179.0,80107.0,72887.0,29207.0,43469.0,35009.0,41469.0,20078.0,15112.0
2026-05-06 16:32:54.895378,892274,1609507438228575,5038140741,0.552416,0.359168,0.427488,-3.21125,-1.28625,0.06125,-45.008003,1.776,-61.160004,eccentric,4,5.0,31375.0,34179.0,80107.0,72887.0,29207.0,43469.0,35009.0,41469.0,20078.0,15112.0
2026-05-06 16:32:54.897952,892275,1609507438243087,5038155658,0.552416,0.359168,0.427488,-0.3675,-0.28875,0.83125,-45.008003,1.776,-61.160004,eccentric,4,5.0,31375.0,34179.0,80107.0,72887.0,29207.0,43469.0,35009.0,41469.0,20078.0,15112.0
2026-05-06 16:32:54.900243,892276,1609507438252063,5038164381,0.558272,0.396256,0.450912,2.79125,-0.44625,0.6825,-45.264004,1.64,-61.416004,eccentric,4,5.0,31375.0,34179.0,80107.0,72887.0,29207.0,43469.0,35009.0,41469.0,20078.0,15112.0
2026-05-06 16:32:54.902641,892277,1609507438266532,5038177279,0.548512,0.382592,0.417728,-0.28875,-0.6475,-1.4175,-45.264004,2.352,-59.344,eccentric,4,5.0,31375.0,34179.0,80107.0,72887.0,29207.0,43469.0,35009.0,41469.0,20078.0,15112.0
2026-05-06 16:32:54.907767,892278,1609507438275940,5038188079,0.548512,0.382592,0.417728,-5.8625,0.02625,-2.03,-45.264004,2.352,-59.344,eccentric,4,5.0,31375.0,34179.0,80107.0,72887.0,29207.0,43469.0,35009.0,41469.0,20078.0,15112.0
2026-05-06 16:32:54.910152,892279,1609507438284874,5038196855,0.548512,0.382592,0.37088,-9.26625,0.0525,-4.34,-45.264004,2.352,-59.344,eccentric,4,5.0,31375.0,34179.0,80107.0,72887.0,29207.0,43469.0,35009.0,41469.0,20078.0,15112.0
2026-05-06 16:32:54.940229,892290,1609507438299534,5038211847,0.579744,0.333792,0.372832,-9.31875,0.20125,-4.50625,-44.808002,2.024,-59.688004,eccentric,4,5.0,31265.0,34125.0,80159.0,72880.0,29147.0,43434.0,35052.0,41463.0,20045.0,15094.0
2026-05-06 16:32:54.942752,892291,1609507438308635,5038220643,0.558272,0.363072,0.37088,-5.15375,-0.0875,-2.37125,-45.296,1.008,-60.336002,eccentric,4,5.0,31265.0,34125.0,80159.0,72880.0,29147.0,43434.0,35052.0,41463.0,20045.0,15094.0
2026-05-06 16:32:54.945058,892292,1609507438323202,5038235640,0.558272,0.363072,0.37088,-1.715,-1.2425,-1.9775,-45.296,1.008,-60.336002,eccentric,4,5.0,31265.0,34125.0,80159.0,72880.0,29147.0,43434.0,35052.0,41463.0,20045.0,15094.0
2026-05-06 16:32:54.947834,892293,1609507438332199,5038244368,0.548512,0.382592,0.427488,-1.51375,-2.17875,-2.0125,-44.728,0.264,-60.648003,eccentric,4,5.0,31265.0,34125.0,80159.0,72880.0,29147.0,43434.0,35052.0,41463.0,20045.0,15094.0
2026-05-06 16:32:54.950400,892294,1609507438346726,5038259320,0.571936,0.366976,0.450912,-3.1325,-2.2225,-2.10875,-44.68,-0.024,-61.120003,eccentric,4,5.0,31265.0,34125.0,80159.0,72880.0,29147.0,43434.0,35052.0,41463.0,20045.0,15094.0
2026-05-06 16:32:54.956701,892295,1609507438355685,5038268131,0.571936,0.366976,0.450912,-4.3575,-1.28625,-1.67125,-44.68,-0.024,-61.120003,eccentric,4,5.0,31265.0,34125.0,80159.0,72880.0,29147.0,43434.0,35052.0,41463.0,20045.0,15094.0
2026-05-06 16:32:54.965331,892296,1609507438364619,5038276846,0.571936,0.366976,0.450912,-5.985,0.14,-0.35,-44.68,-0.024,-61.120003,eccentric,4,5.0,31265.0,34125.0,80159.0,72880.0,29147.0,43434.0,35052.0,41463.0,20045.0,15094.0
2026-05-06 16:32:54.979156,892297,1609507438379122,5038291765,0.583648,0.304512,0.40016,-8.417501,0.77875,0.6475,-44.736004,1.808,-61.480003,eccentric,4,5.0,31265.0,34125.0,80159.0,72880.0,29147.0,43434.0,35052.0,41463.0,20045.0,15094.0
2026-05-06 16:32:55.015393,892308,1609507438388239,5038300817,0.558272,0.345504,0.365024,-11.33125,1.65375,2.80875,-44.480003,2.256,-61.72,eccentric,4,5.0,31248.0,34076.0,80075.0,72887.0,29090.0,43376.0,35010.0,41465.0,20023.0,15109.0
2026-05-06 16:32:55.018778,892309,1609507438402868,5038313737,0.558272,0.345504,0.365024,-9.31875,1.84625,6.545,-44.480003,2.256,-61.72,eccentric,4,5.0,31248.0,34076.0,80075.0,72887.0,29090.0,43376.0,35010.0,41465.0,20023.0,15109.0
2026-05-06 16:32:55.022378,892310,1609507438412302,5038324593,0.521184,0.394304,0.411872,-4.47125,0.67375,7.8225,-44.648003,-1.592,-59.784004,eccentric,4,5.0,31248.0,34076.0,80075.0,72887.0,29090.0,43376.0,35010.0,41465.0,20023.0,15109.0
2026-05-06 16:32:55.024791,892311,1609507438421298,5038333329,0.521184,0.394304,0.411872,-0.88375,-1.3475,7.455,-44.648003,-1.592,-59.784004,eccentric,4,5.0,31248.0,34076.0,80075.0,72887.0,29090.0,43376.0,35010.0,41465.0,20023.0,15109.0
2026-05-06 16:32:55.036403,892312,1609507438435794,5038348277,0.534848,0.3416,0.396256,-3.4475,-2.3275,5.495,-44.232002,0.744,-60.992004,eccentric,4,5.0,31248.0,34076.0,80075.0,72887.0,29090.0,43376.0,35010.0,41465.0,20023.0,15109.0
2026-05-06 16:32:55.045104,892313,1609507438444725,5038357080,0.534848,0.3416,0.396256,-7.74375,-2.00375,5.775,-44.232002,0.744,-60.992004,eccentric,4,5.0,31248.0,34076.0,80075.0,72887.0,29090.0,43376.0,35010.0,41465.0,20023.0,15109.0
2026-05-06 16:32:55.059050,892314,1609507438459232,5038371970,0.51728,0.36112,0.365024,-8.925,-2.4325,7.2625,-44.232002,2.984,-62.264004,eccentric,4,5.0,31248.0,34076.0,80075.0,72887.0,29090.0,43376.0,35010.0,41465.0,20023.0,15109.0
2026-05-06 16:32:55.067880,892315,1609507438468158,5038380671,0.544608,0.40992,0.38064,-5.71375,-2.975,8.60125,-44.168003,1.248,-59.184002,eccentric,4,5.0,31248.0,34076.0,80075.0,72887.0,29090.0,43376.0,35010.0,41465.0,20023.0,15109.0
2026-05-06 16:32:55.081681,892316,1609507438482690,5038393553,0.544608,0.40992,0.38064,-3.395,-3.49125,6.85125,-44.168003,1.248,-59.184002,eccentric,4,5.0,31248.0,34076.0,80075.0,72887.0,29090.0,43376.0,35010.0,41465.0,20023.0,15109.0
2026-05-06 16:32:55.115090,892327,1609507438492628,5038404416,0.550464,0.357216,0.398208,-1.4875,-3.71875,4.62875,-44.064003,2.808,-62.568005,eccentric,4,5.0,31130.0,33971.0,79897.0,72765.0,28977.0,43252.0,34918.0,41412.0,19930.0,15027.0
2026-05-06 16:32:55.120042,892328,1609507438501638,5038413180,0.550464,0.357216,0.398208,0.4025,-3.7625,3.7275,-44.064003,2.808,-62.568005,eccentric,4,5.0,31130.0,33971.0,79897.0,72765.0,28977.0,43252.0,34918.0,41412.0,19930.0,15027.0
2026-05-06 16:32:55.122733,892329,1609507438516263,5038428139,0.54656,0.404064,0.431392,-1.18125,-4.375,4.0425,-44.08,0.84,-61.864002,eccentric,4,5.0,31130.0,33971.0,79897.0,72765.0,28977.0,43252.0,34918.0,41412.0,19930.0,15027.0
2026-05-06 16:32:55.125249,892330,1609507438525181,5038436851,0.54656,0.404064,0.431392,-5.3725,-3.82375,5.25,-44.08,0.84,-61.864002,eccentric,4,5.0,31130.0,33971.0,79897.0,72765.0,28977.0,43252.0,34918.0,41412.0,19930.0,15027.0
2026-05-06 16:32:55.135277,892331,1609507438534250,5038445554,0.577792,0.421632,0.411872,-11.13,-2.26625,4.0075,-43.824,2.856,-62.488003,eccentric,4,5.0,31130.0,33971.0,79897.0,72765.0,28977.0,43252.0,34918.0,41412.0,19930.0,15027.0
2026-05-06 16:32:55.160426,892332,1609507438548877,5038460490,0.568032,0.415776,0.447008,-12.67875,-0.595,2.56375,-44.048,2.896,-62.576004,eccentric,4,5.0,31130.0,33971.0,79897.0,72765.0,28977.0,43252.0,34918.0,41412.0,19930.0,15027.0
2026-05-06 16:32:55.185324,892333,1609507438557816,5038469216,0.568032,0.415776,0.447008,-8.785,0.735,1.26875,-44.048,2.896,-62.576004,eccentric,4,5.0,31130.0,33971.0,79897.0,72765.0,28977.0,43252.0,34918.0,41412.0,19930.0,15027.0
2026-05-06 16:32:55.190147,892334,1609507438572317,5038484104,0.593408,0.3904,0.40016,-7.035,1.4875,-0.7525,-43.840004,2.928,-62.184002,eccentric,4,5.0,31130.0,33971.0,79897.0,72765.0,28977.0,43252.0,34918.0,41412.0,19930.0,15027.0
2026-05-06 16:32:55.192672,892335,1609507438581304,5038492810,0.593408,0.3904,0.40016,-8.925,1.68,-0.91,-43.840004,2.928,-62.184002,eccentric,4,5.0,31130.0,33971.0,79897.0,72765.0,28977.0,43252.0,34918.0,41412.0,19930.0,15027.0
2026-05-06 16:32:55.222746,892346,1609507438595949,5038507856,0.616832,0.382592,0.431392,-10.7975,1.995,-0.53375,-43.984,2.984,-62.408005,eccentric,4,5.0,31048.0,33907.0,79775.0,72881.0,28911.0,43206.0,34876.0,41459.0,19917.0,15015.0
2026-05-06 16:32:55.225238,892347,1609507438605009,5038516684,0.616832,0.382592,0.431392,-10.185,2.2925,0.07875,-43.984,2.984,-62.408005,eccentric,4,5.0,31048.0,33907.0,79775.0,72881.0,28911.0,43206.0,34876.0,41459.0,19917.0,15015.0
2026-05-06 16:32:55.227733,892348,1609507438614241,5038525441,0.640256,0.394304,0.501664,-9.6425,2.3625,-0.09625,-43.584003,3.08,-62.72,eccentric,4,5.0,31048.0,33907.0,79775.0,72881.0,28911.0,43206.0,34876.0,41459.0,19917.0,15015.0
2026-05-06 16:32:55.230217,892349,1609507438629332,5038540364,0.616832,0.411872,0.509472,-9.21375,3.19375,-0.56,-44.104004,2.832,-62.384003,eccentric,4,5.0,31048.0,33907.0,79775.0,72881.0,28911.0,43206.0,34876.0,41459.0,19917.0,15015.0
2026-05-06 16:32:55.239087,892350,1609507438638776,5038551188,0.616832,0.411872,0.509472,-8.155,3.56125,-0.2975,-44.104004,2.832,-62.384003,eccentric,4,5.0,31048.0,33907.0,79775.0,72881.0,28911.0,43206.0,34876.0,41459.0,19917.0,15015.0
2026-05-06 16:32:55.247853,892351,1609507438647718,5038559912,0.616832,0.411872,0.452864,-7.55125,2.7125,-1.04125,-44.104004,2.832,-62.384003,eccentric,4,5.0,31048.0,33907.0,79775.0,72881.0,28911.0,43206.0,34876.0,41459.0,19917.0,15015.0
2026-05-06 16:32:55.281695,892352,1609507438662334,5038574921,0.630496,0.417728,0.452864,-6.265,1.74125,-1.015,-43.608,1.392,-59.640003,eccentric,4,5.0,31048.0,33907.0,79775.0,72881.0,28911.0,43206.0,34876.0,41459.0,19917.0,15015.0
2026-05-06 16:32:55.284169,892353,1609507438671279,5038583647,0.655872,0.339648,0.482144,-4.6375,0.58625,-2.44125,-43.624,3.016,-62.512005,eccentric,4,5.0,31048.0,33907.0,79775.0,72881.0,28911.0,43206.0,34876.0,41459.0,19917.0,15015.0
2026-05-06 16:32:55.286648,892354,1609507438685764,5038596530,0.655872,0.339648,0.482144,-4.13,-0.32375,-3.01875,-43.624,3.016,-62.512005,eccentric,4,5.0,31048.0,33907.0,79775.0,72881.0,28911.0,43206.0,34876.0,41459.0,19917.0,15015.0
2026-05-06 16:32:55.313983,892365,1609507438695570,5038607480,0.620736,0.413824,0.489952,-4.54125,-0.72625,-1.02375,-43.752003,3.424,-62.624004,eccentric,4,5.0,30952.0,33867.0,79885.0,72960.0,28830.0,43174.0,34927.0,41533.0,19841.0,14980.0
2026-05-06 16:32:55.316524,892366,1609507438704554,5038616258,0.620736,0.413824,0.489952,-2.31,-0.06125,0.32375,-43.752003,3.424,-62.624004,eccentric,4,5.0,30952.0,33867.0,79885.0,72960.0,28830.0,43174.0,34927.0,41533.0,19841.0,14980.0
2026-05-06 16:32:55.319002,892367,1609507438719204,5038631240,0.626592,0.445056,0.49776,-2.1175,0.04375,-1.81125,-43.800003,3.216,-62.512005,eccentric,4,5.0,30952.0,33867.0,79885.0,72960.0,28830.0,43174.0,34927.0,41533.0,19841.0,14980.0
2026-05-06 16:32:55.330031,892368,1609507438728269,5038639974,0.626592,0.445056,0.435296,-3.5875,0.72625,-5.74875,-43.800003,3.216,-62.512005,eccentric,4,5.0,30952.0,33867.0,79885.0,72960.0,28830.0,43174.0,34927.0,41533.0,19841.0,14980.0
2026-05-06 16:32:55.344056,892369,1609507438742892,5038654979,0.638304,0.365024,0.435296,-2.38,0.7875,-7.98875,-44.176003,2.888,-61.944004,eccentric,4,5.0,30952.0,33867.0,79885.0,72960.0,28830.0,43174.0,34927.0,41533.0,19841.0,14980.0
2026-05-06 16:32:55.350438,892370,1609507438751837,5038663742,0.66368,0.368928,0.530944,1.89875,-0.105,-8.30375,-43.952003,3.192,-62.504,eccentric,4,5.0,30952.0,33867.0,79885.0,72960.0,28830.0,43174.0,34927.0,41533.0,19841.0,14980.0
2026-05-06 16:32:55.359051,892371,1609507438760848,5038672425,0.66368,0.368928,0.530944,4.50625,-0.63,-6.46625,-43.952003,3.192,-62.504,eccentric,4,5.0,30952.0,33867.0,79885.0,72960.0,28830.0,43174.0,34927.0,41533.0,19841.0,14980.0
2026-05-06 16:32:55.392651,892372,1609507438775355,5038687381,0.626592,0.44896,0.501664,2.4325,-0.11375,-4.71625,-43.968002,2.88,-62.576004,eccentric,4,5.0,30952.0,33867.0,79885.0,72960.0,28830.0,43174.0,34927.0,41533.0,19841.0,14980.0
2026-05-06 16:32:55.395235,892373,1609507438784283,5038696100,0.626592,0.44896,0.501664,-1.19,0.76125,-5.10125,-43.968002,2.88,-62.576004,eccentric,4,5.0,30952.0,33867.0,79885.0,72960.0,28830.0,43174.0,34927.0,41533.0,19841.0,14980.0
2026-05-06 16:32:55.454123,892384,1609507438798869,5038711657,0.632448,0.42944,0.51728,-0.98,1.56625,-7.62125,-43.888,2.256,-62.224003,eccentric,4,5.0,30959.0,33913.0,79800.0,73017.0,28840.0,43215.0,34907.0,41566.0,19860.0,15000.0
2026-05-06 16:32:55.456514,892385,1609507438807947,5038720517,0.632448,0.42944,0.51728,0.30625,1.33875,-10.64875,-43.888,2.256,-62.224003,eccentric,4,5.0,30959.0,33913.0,79800.0,73017.0,28840.0,43215.0,34907.0,41566.0,19860.0,15000.0
2026-05-06 16:32:55.458917,892386,1609507438822476,5038733406,0.646112,0.378688,0.495808,1.26875,0.79625,-12.005,-44.424004,1.152,-61.064003,eccentric,4,5.0,30959.0,33913.0,79800.0,73017.0,28840.0,43215.0,34907.0,41566.0,19860.0,15000.0
2026-05-06 16:32:55.461527,892387,1609507438831951,5038744270,0.66368,0.421632,0.486048,4.0775,-0.3675,-10.386251,-43.896004,3.104,-62.280003,eccentric,4,5.0,30959.0,33913.0,79800.0,73017.0,28840.0,43215.0,34907.0,41566.0,19860.0,15000.0
2026-05-06 16:32:55.463895,892388,1609507438840860,5038752974,0.66368,0.421632,0.486048,5.705,-1.365,-8.39125,-43.896004,3.104,-62.280003,eccentric,4,5.0,30959.0,33913.0,79800.0,73017.0,28840.0,43215.0,34907.0,41566.0,19860.0,15000.0
2026-05-06 16:32:55.466686,892389,1609507438855323,5038767889,0.64416,0.441152,0.538752,5.11,-2.1525,-7.9975,-44.376003,3.016,-62.568005,eccentric,4,5.0,30959.0,33913.0,79800.0,73017.0,28840.0,43215.0,34907.0,41566.0,19860.0,15000.0
2026-05-06 16:32:55.471175,892390,1609507438864235,5038776732,0.64416,0.441152,0.538752,4.5325,-2.19625,-9.65125,-44.376003,3.016,-62.568005,eccentric,4,5.0,30959.0,33913.0,79800.0,73017.0,28840.0,43215.0,34907.0,41566.0,19860.0,15000.0
2026-05-06 16:32:55.479752,892391,1609507438878907,5038789663,0.65392,0.413824,0.519232,3.255,-1.5925,-9.948751,-44.280003,0.592,-59.984,eccentric,4,5.0,30959.0,33913.0,79800.0,73017.0,28840.0,43215.0,34907.0,41566.0,19860.0,15000.0
2026-05-06 16:32:55.486472,892392,1609507438888136,5038800491,0.65392,0.413824,0.519232,2.56375,-1.505,-9.09125,-44.280003,0.592,-59.984,eccentric,4,5.0,30959.0,33913.0,79800.0,73017.0,28840.0,43215.0,34907.0,41566.0,19860.0,15000.0
2026-05-06 16:36:57.213986,937881,1609507680606439,5280518166,0.620736,0.394304,0.532896,-0.44625,-0.51625,-7.28,-43.808002,2.976,-65.888,concentric,4,5.0,30576.0,34432.0,87661.0,90567.0,27456.0,42810.0,38387.0,51225.0,18805.0,14677.0
2026-05-06 16:36:57.237846,937882,1609507680620927,5280533084,0.616832,0.421632,0.513376,-0.5425,-0.21,-7.1925,-43.984,3.008,-65.520004,concentric,4,5.0,30576.0,34432.0,87661.0,90567.0,27456.0,42810.0,38387.0,51225.0,18805.0,14677.0
2026-05-06 16:36:57.240453,937883,1609507680629829,5280541785,0.616832,0.421632,0.513376,-1.81125,0.0175,-7.7,-43.984,3.008,-65.520004,concentric,4,5.0,30576.0,34432.0,87661.0,90567.0,27456.0,42810.0,38387.0,51225.0,18805.0,14677.0
2026-05-06 16:36:57.279209,937894,1609507680644425,5280555236,0.638304,0.374784,0.55632,-2.30125,-0.42,-8.8375,-44.184002,1.136,-63.888004,concentric,4,5.0,30476.0,34350.0,87536.0,90502.0,27392.0,42746.0,38331.0,51186.0,18761.0,14643.0
2026-05-06 16:36:57.281739,937895,1609507680653914,5280566101,0.638304,0.374784,0.55632,-2.14375,-1.37375,-7.9625,-44.184002,1.136,-63.888004,concentric,4,5.0,30476.0,34350.0,87536.0,90502.0,27392.0,42746.0,38331.0,51186.0,18761.0,14643.0
2026-05-06 16:36:57.287762,937896,1609507680662939,5280574845,0.640256,0.402112,0.513376,-2.5725,-1.96875,-5.92375,-43.792004,2.312,-64.36,concentric,4,5.0,30476.0,34350.0,87536.0,90502.0,27392.0,42746.0,38331.0,51186.0,18761.0,14643.0
2026-05-06 16:36:57.288183,937897,1609507680677492,5280589768,0.642208,0.417728,0.509472,-3.07125,-1.4175,-4.62875,-43.792004,1.376,-63.960003,concentric,4,5.0,30476.0,34350.0,87536.0,90502.0,27392.0,42746.0,38331.0,51186.0,18761.0,14643.0
2026-05-06 16:36:57.300122,937898,1609507680686491,5280598518,0.642208,0.417728,0.509472,-3.05375,-1.18125,-4.99625,-43.968002,1.376,-63.960003,concentric,4,5.0,30476.0,34350.0,87536.0,90502.0,27392.0,42746.0,38331.0,51186.0,18761.0,14643.0
2026-05-06 16:36:57.309073,937899,1609507680701016,5280613474,0.638304,0.407968,0.548512,-2.05625,-1.67125,-5.69625,-44.24,3.224,-66.032005,concentric,4,5.0,30476.0,34350.0,87536.0,90502.0,27392.0,42746.0,38331.0,51186.0,18761.0,14643.0
2026-05-06 16:36:57.339202,937900,1609507680709953,5280622198,0.638304,0.407968,0.548512,-3.0275,-1.6275,-6.36125,-44.24,3.224,-66.032005,concentric,4,5.0,30476.0,34350.0,87536.0,90502.0,27392.0,42746.0,38331.0,51186.0,18761.0,14643.0
2026-05-06 16:36:57.364231,937901,1609507680724419,5280637105,0.632448,0.382592,0.52704,-2.695,-1.51375,-6.39625,-44.048,3.072,-65.336006,concentric,4,5.0,30476.0,34350.0,87536.0,90502.0,27392.0,42746.0,38331.0,51186.0,18761.0,14643.0
2026-05-06 16:36:57.389038,937902,1609507680733333,5280645825,0.632448,0.382592,0.52704,-4.01625,-1.6975,-6.475,-44.048,3.072,-65.336006,concentric,4,5.0,30476.0,34350.0,87536.0,90502.0,27392.0,42746.0,38331.0,51186.0,18761.0,14643.0
2026-05-06 16:36:57.454254,937913,1609507680742267,5280654493,0.6344,0.3904,0.534848,-5.03125,-1.09375,-6.25625,-43.912003,-0.08,-63.576004,concentric,4,5.0,30367.0,34291.0,87508.0,90403.0,27278.0,42650.0,38286.0,51115.0,18688.0,14590.0
2026-05-06 16:36:57.456730,937914,1609507680757254,5280669410,0.6344,0.3904,0.534848,-2.3975,-0.42,-6.2475,-43.912003,-0.08,-63.576004,concentric,4,5.0,30367.0,34291.0,87508.0,90403.0,27278.0,42650.0,38286.0,51115.0,18688.0,14590.0
2026-05-06 16:36:57.459237,937915,1609507680766191,5280678142,0.616832,0.355264,0.491904,-0.95375,0.105,-7.2975,-44.344,2.72,-65.096,concentric,4,5.0,30367.0,34291.0,87508.0,90403.0,27278.0,42650.0,38286.0,51115.0,18688.0,14590.0
2026-05-06 16:36:57.461693,937916,1609507680780716,5280693099,0.603168,0.36112,0.505568,1.00625,0.2275,-6.62375,-44.160004,2.784,-65.816,concentric,4,5.0,30367.0,34291.0,87508.0,90403.0,27278.0,42650.0,38286.0,51115.0,18688.0,14590.0
2026-05-06 16:36:57.464253,937917,1609507680789656,5280701931,0.603168,0.36112,0.505568,1.47875,1.02375,-7.9275,-44.160004,2.784,-65.816,concentric,4,5.0,30367.0,34291.0,87508.0,90403.0,27278.0,42650.0,38286.0,51115.0,18688.0,14590.0
2026-05-06 16:36:57.466716,937918,1609507680798590,5280710648,0.620736,0.306464,0.447008,2.2925,2.10875,-7.77875,-44.4,2.728,-65.408005,concentric,4,5.0,30367.0,34291.0,87508.0,90403.0,27278.0,42650.0,38286.0,51115.0,18688.0,14590.0
2026-05-06 16:36:57.469242,937919,1609507680813229,5280725573,0.620736,0.306464,0.447008,-0.00875,2.86125,-9.765,-44.4,2.728,-65.408005,concentric,4,5.0,30367.0,34291.0,87508.0,90403.0,27278.0,42650.0,38286.0,51115.0,18688.0,14590.0
2026-05-06 16:36:57.471781,937920,1609507680822182,5280734261,0.607072,0.310368,0.447008,-1.8025,3.22,-10.3775,-44.264004,2.112,-65.896,concentric,4,5.0,30367.0,34291.0,87508.0,90403.0,27278.0,42650.0,38286.0,51115.0,18688.0,14590.0
2026-05-06 16:36:57.474242,937921,1609507680836757,5280749260,0.607072,0.310368,0.447008,1.4175,4.06,-8.155,-44.264004,2.112,-65.896,concentric,4,5.0,30367.0,34291.0,87508.0,90403.0,27278.0,42650.0,38286.0,51115.0,18688.0,14590.0
2026-05-06 16:36:57.501557,937932,1609507680846327,5280758540,0.568032,0.333792,0.464576,5.81875,5.355,-7.13125,-44.968002,0.76,-64.872,concentric,4,5.0,30361.0,34260.0,87413.0,90272.0,27256.0,42619.0,38267.0,51079.0,18671.0,14587.0
2026-05-06 16:36:57.504081,937933,1609507680855288,5280767265,0.568032,0.333792,0.464576,8.6275,6.51,-6.195,-44.968002,0.76,-64.872,concentric,4,5.0,30361.0,34260.0,87413.0,90272.0,27256.0,42619.0,38267.0,51079.0,18671.0,14587.0
2026-05-06 16:36:57.506594,937934,1609507680869996,5280782202,0.550464,0.347456,0.466528,6.99125,6.6325,-7.91875,-44.464,1.68,-65.376,concentric,4,5.0,30361.0,34260.0,87413.0,90272.0,27256.0,42619.0,38267.0,51079.0,18671.0,14587.0
2026-05-06 16:36:57.509073,937935,1609507680879019,5280790932,0.548512,0.359168,0.38064,3.70125,6.57125,-9.14375,-44.464,1.344,-65.264,concentric,4,5.0,30361.0,34260.0,87413.0,90272.0,27256.0,42619.0,38267.0,51079.0,18671.0,14587.0
2026-05-06 16:36:57.511640,937936,1609507680893602,5280806011,0.548512,0.359168,0.38064,0.6825,6.7025,-10.325,-44.728,1.344,-65.264,concentric,4,5.0,30361.0,34260.0,87413.0,90272.0,27256.0,42619.0,38267.0,51079.0,18671.0,14587.0
2026-05-06 16:36:57.514023,937937,1609507680902588,5280814783,0.562176,0.298656,0.396256,1.44375,7.02625,-10.68375,-44.592003,2.312,-64.744,concentric,4,5.0,30361.0,34260.0,87413.0,90272.0,27256.0,42619.0,38267.0,51079.0,18671.0,14587.0
2026-05-06 16:36:57.520726,937938,1609507680911621,5280823516,0.562176,0.298656,0.396256,4.64625,6.37875,-11.12125,-44.592003,2.312,-64.744,concentric,4,5.0,30361.0,34260.0,87413.0,90272.0,27256.0,42619.0,38267.0,51079.0,18671.0,14587.0
2026-05-06 16:36:57.535811,937939,1609507680926152,5280838461,0.501664,0.353312,0.431392,7.49875,5.5475,-10.08875,-45.152,-1.296,-62.648003,concentric,4,5.0,30361.0,34260.0,87413.0,90272.0,27256.0,42619.0,38267.0,51079.0,18671.0,14587.0
2026-05-06 16:36:57.546747,937940,1609507680935212,5280847155,0.501664,0.353312,0.431392,8.02375,4.97875,-8.81125,-45.152,-1.296,-62.648003,concentric,4,5.0,30361.0,34260.0,87413.0,90272.0,27256.0,42619.0,38267.0,51079.0,18671.0,14587.0
2026-05-06 16:36:57.577771,937951,1609507680949963,5280862258,0.49776,0.41968,0.480192,5.36375,4.2875,-10.1325,-45.208004,1.848,-64.69601,concentric,4,5.0,30415.0,34346.0,87431.0,90049.0,27350.0,42723.0,38264.0,50947.0,18745.0,14640.0
2026-05-06 16:36:57.586346,937952,1609507680958982,5280871045,0.49776,0.41968,0.40992,1.225,4.38375,-13.6325,-45.208004,1.848,-64.69601,concentric,4,5.0,30415.0,34346.0,87431.0,90049.0,27350.0,42723.0,38264.0,50947.0,18745.0,14640.0
2026-05-06 16:36:57.586850,937953,1609507680973438,5280886007,0.513376,0.374784,0.40992,-1.54875,5.38125,-17.745,-45.328003,-1.64,-62.512005,concentric,4,5.0,30415.0,34346.0,87431.0,90049.0,27350.0,42723.0,38264.0,50947.0,18745.0,14640.0
2026-05-06 16:36:57.591411,937954,1609507680982431,5280894805,0.509472,0.327936,0.45872,-1.12875,6.7025,-19.425,-45.088,-0.336,-63.048004,concentric,4,5.0,30415.0,34346.0,87431.0,90049.0,27350.0,42723.0,38264.0,50947.0,18745.0,14640.0
2026-05-06 16:36:57.600501,937955,1609507680991385,5280903535,0.509472,0.327936,0.45872,0.14875,8.30375,-17.94625,-45.088,-0.336,-63.048004,concentric,4,5.0,30415.0,34346.0,87431.0,90049.0,27350.0,42723.0,38264.0,50947.0,18745.0,14640.0
2026-05-06 16:36:57.634026,937956,1609507681005858,5280918449,0.519232,0.347456,0.456768,2.19625,9.35375,-15.42625,-45.4,-1.128,-62.832005,concentric,4,5.0,30415.0,34346.0,87431.0,90049.0,27350.0,42723.0,38264.0,50947.0,18745.0,14640.0
2026-05-06 16:36:57.637029,937957,1609507681014767,5280927220,0.519232,0.347456,0.456768,0.49875,9.6775,-15.09375,-45.4,-1.128,-62.832005,concentric,4,5.0,30415.0,34346.0,87431.0,90049.0,27350.0,42723.0,38264.0,50947.0,18745.0,14640.0
2026-05-06 16:36:57.639537,937958,1609507681029337,5280940199,0.511424,0.384544,0.4392,-2.94875,10.26375,-13.76375,-45.328003,0.856,-63.696003,concentric,4,5.0,30415.0,34346.0,87431.0,90049.0,27350.0,42723.0,38264.0,50947.0,18745.0,14640.0
2026-05-06 16:36:57.648311,937959,1609507681038810,5280951020,0.511424,0.384544,0.4392,-4.24375,10.045,-12.69625,-45.328003,0.856,-63.696003,concentric,4,5.0,30415.0,34346.0,87431.0,90049.0,27350.0,42723.0,38264.0,50947.0,18745.0,14640.0
2026-05-06 16:36:57.678939,937970,1609507681048456,5280959797,0.505568,0.407968,0.445056,-3.00125,10.386251,-11.71625,-45.56,0.88,-62.600002,concentric,4,5.0,30494.0,34356.0,87498.0,90055.0,27405.0,42754.0,38301.0,50944.0,18765.0,14641.0
2026-05-06 16:36:57.681715,937971,1609507681063137,5280974763,0.51728,0.357216,0.447008,1.49625,9.730001,-10.99875,-45.264004,-0.952,-61.928,concentric,4,5.0,30494.0,34356.0,87498.0,90055.0,27405.0,42754.0,38301.0,50944.0,18765.0,14641.0
2026-05-06 16:36:57.683957,937972,1609507681072068,5280983464,0.51728,0.357216,0.447008,4.22625,9.135,-11.96125,-45.264004,-0.952,-61.928,concentric,4,5.0,30494.0,34356.0,87498.0,90055.0,27405.0,42754.0,38301.0,50944.0,18765.0,14641.0
2026-05-06 16:36:57.709535,937973,1609507681086671,5280998593,0.55632,0.318176,0.513376,4.34875,7.86625,-10.325,-45.496002,-2.112,-60.824,concentric,4,5.0,30494.0,34356.0,87498.0,90055.0,27405.0,42754.0,38301.0,50944.0,18765.0,14641.0
2026-05-06 16:36:57.734076,937974,1609507681095602,5281007337,0.55632,0.318176,0.513376,3.78,7.21,-7.16625,-45.496002,-2.112,-60.824,concentric,4,5.0,30494.0,34356.0,87498.0,90055.0,27405.0,42754.0,38301.0,50944.0,18765.0,14641.0
2026-05-06 16:36:57.748000,937975,1609507681104526,5281016139,0.503616,0.376736,0.472384,2.07375,7.245,-2.84375,-45.688004,1.08,-63.4,concentric,4,5.0,30494.0,34356.0,87498.0,90055.0,27405.0,42754.0,38301.0,50944.0,18765.0,14641.0
2026-05-06 16:36:57.750689,937976,1609507681119094,5281031091,0.503616,0.376736,0.472384,-0.5075,8.37375,0.88375,-45.688004,1.08,-63.4,concentric,4,5.0,30494.0,34356.0,87498.0,90055.0,27405.0,42754.0,38301.0,50944.0,18765.0,14641.0
2026-05-06 16:36:57.754953,937977,1609507681128085,5281039799,0.534848,0.402112,0.51728,-0.6825,8.82875,1.89,-45.688004,1.152,-62.320004,concentric,4,5.0,30494.0,34356.0,87498.0,90055.0,27405.0,42754.0,38301.0,50944.0,18765.0,14641.0
2026-05-06 16:36:57.755482,937978,1609507681142609,5281054722,0.562176,0.325984,0.45872,-2.47625,8.18125,-0.98875,-45.824,1.176,-62.792004,concentric,4,5.0,30494.0,34356.0,87498.0,90055.0,27405.0,42754.0,38301.0,50944.0,18765.0,14641.0
2026-05-06 16:36:57.786888,937989,1609507681151828,5281063519,0.562176,0.325984,0.45872,-2.24875,7.06125,-1.98625,-45.824,1.176,-62.792004,concentric,4,5.0,30449.0,34366.0,87821.0,90339.0,27357.0,42728.0,38439.0,51133.0,18717.0,14638.0
2026-05-06 16:36:57.789376,937990,1609507681160914,5281072277,0.562176,0.347456,0.493856,2.38,4.13,-0.2975,-45.824,1.176,-62.792004,concentric,4,5.0,30449.0,34366.0,87821.0,90339.0,27357.0,42728.0,38439.0,51133.0,18717.0,14638.0
2026-05-06 16:36:57.791886,937991,1609507681175562,5281087283,0.564128,0.347456,0.493856,9.82625,1.89875,5.31125,-45.992,-0.48,-62.776005,concentric,4,5.0,30449.0,34366.0,87821.0,90339.0,27357.0,42728.0,38439.0,51133.0,18717.0,14638.0
2026-05-06 16:36:57.794397,937992,1609507681184507,5281096037,0.550464,0.5368,0.488,10.9025,0.13125,8.28625,-46.104004,-0.264,-61.512,concentric,4,5.0,30449.0,34366.0,87821.0,90339.0,27357.0,42728.0,38439.0,51133.0,18717.0,14638.0
2026-05-06 16:36:57.808189,937993,1609507681199015,5281110961,0.550464,0.5368,0.488,3.28125,-1.81125,7.6125,-46.104004,-0.264,-61.512,concentric,4,5.0,30449.0,34366.0,87821.0,90339.0,27357.0,42728.0,38439.0,51133.0,18717.0,14638.0
2026-05-06 16:36:57.822005,937994,1609507681207977,5281119666,0.62464,0.452864,0.470432,-4.7425,-3.38625,1.23375,-45.936,1.36,-62.488003,concentric,4,5.0,30449.0,34366.0,87821.0,90339.0,27357.0,42728.0,38439.0,51133.0,18717.0,14638.0
2026-05-06 16:36:57.830795,937995,1609507681222529,5281134703,0.599264,0.38064,0.544608,-7.58625,-5.48625,-5.635,-46.168003,1.496,-61.232002,concentric,4,5.0,30449.0,34366.0,87821.0,90339.0,27357.0,42728.0,38439.0,51133.0,18717.0,14638.0
2026-05-06 16:36:57.844579,937996,1609507681231468,5281143420,0.599264,0.38064,0.544608,-4.06,-8.47875,-6.44,-46.168003,1.496,-61.232002,concentric,4,5.0,30449.0,34366.0,87821.0,90339.0,27357.0,42728.0,38439.0,51133.0,18717.0,14638.0
2026-05-06 16:36:57.850619,937997,1609507681240404,5281152134,0.599264,0.38064,0.544608,0.48125,-12.04875,-5.3375,-46.168003,1.496,-61.232002,concentric,4,5.0,30449.0,34366.0,87821.0,90339.0,27357.0,42728.0,38439.0,51133.0,18717.0,14638.0
2026-05-06 16:36:57.880622,938008,1609507681255046,5281167183,0.62464,0.452864,0.5368,-0.315,-12.31125,-4.2175,-46.52,1.536,-61.816,concentric,4,5.0,30546.0,34479.0,88351.0,90852.0,27482.0,42861.0,38726.0,51386.0,18775.0,14673.0
2026-05-06 16:36:57.883046,938009,1609507681264147,5281175909,0.667584,0.392352,0.550464,-2.87875,-11.042501,-2.93125,-46.712,1.288,-63.024002,concentric,4,5.0,30546.0,34479.0,88351.0,90852.0,27482.0,42861.0,38726.0,51386.0,18775.0,14673.0
2026-05-06 16:36:57.889422,938010,1609507681278761,5281190884,0.667584,0.392352,0.550464,-5.87125,-9.3975,-3.6925,-46.712,1.288,-63.024002,concentric,4,5.0,30546.0,34479.0,88351.0,90852.0,27482.0,42861.0,38726.0,51386.0,18775.0,14673.0
2026-05-06 16:36:57.898283,938011,1609507681287714,5281199621,0.628544,0.454816,0.57584,-6.22125,-8.56625,-3.36,-46.688004,-0.64,-61.824,concentric,4,5.0,30546.0,34479.0,88351.0,90852.0,27482.0,42861.0,38726.0,51386.0,18775.0,14673.0
2026-05-06 16:36:57.906789,938012,1609507681296713,5281208497,0.628544,0.454816,0.57584,-1.53125,-8.785,-2.8875,-46.688004,-0.64,-61.824,concentric,4,5.0,30546.0,34479.0,88351.0,90852.0,27482.0,42861.0,38726.0,51386.0,18775.0,14673.0
2026-05-06 16:36:57.923355,938013,1609507681311208,5281223402,0.642208,0.591456,0.57584,2.7475,-9.948751,-5.46,-47.192,1.472,-62.664,concentric,4,5.0,30546.0,34479.0,88351.0,90852.0,27482.0,42861.0,38726.0,51386.0,18775.0,14673.0
2026-05-06 16:36:57.932059,938014,1609507681320118,5281232101,0.642208,0.591456,0.57584,-4.20875,-9.695,-15.42625,-47.192,1.472,-62.664,concentric,4,5.0,30546.0,34479.0,88351.0,90852.0,27482.0,42861.0,38726.0,51386.0,18775.0,14673.0
2026-05-06 16:36:57.947018,938015,1609507681334734,5281247052,0.70272,0.288896,0.55632,-12.59125,-6.895,-20.8775,-47.2,-0.568,-61.696003,concentric,4,5.0,30546.0,34479.0,88351.0,90852.0,27482.0,42861.0,38726.0,51386.0,18775.0,14673.0
2026-05-06 16:36:57.957019,938016,1609507681343656,5281255792,0.675392,0.382592,0.591456,-17.115,-3.8325,-18.0075,-47.480003,1.368,-62.832005,concentric,4,5.0,30546.0,34479.0,88351.0,90852.0,27482.0,42861.0,38726.0,51386.0,18775.0,14673.0
2026-05-06 16:36:58.014560,938027,1609507681358276,5281270828,0.675392,0.382592,0.591456,-13.1425,-0.9625,-9.00375,-47.480003,1.368,-62.832005,concentric,4,5.0,30644.0,34602.0,88855.0,90945.0,27602.0,43032.0,39040.0,51493.0,18812.0,14737.0
2026-05-06 16:36:58.016960,938028,1609507681367217,5281279676,0.655872,0.452864,0.513376,-8.575,-0.6825,-7.35,-47.52,0.976,-62.552002,concentric,4,5.0,30644.0,34602.0,88855.0,90945.0,27602.0,43032.0,39040.0,51493.0,18812.0,14737.0
2026-05-06 16:36:58.019066,938029,1609507681376173,5281288375,0.655872,0.452864,0.513376,-6.0375,0.11375,-9.205,-47.52,0.976,-62.552002,concentric,4,5.0,30644.0,34602.0,88855.0,90945.0,27602.0,43032.0,39040.0,51493.0,18812.0,14737.0
2026-05-06 16:36:58.021484,938030,1609507681390696,5281303293,0.640256,0.46848,0.57584,-4.01625,1.30375,-12.3375,-47.664,1.168,-62.472004,concentric,4,5.0,30644.0,34602.0,88855.0,90945.0,27602.0,43032.0,39040.0,51493.0,18812.0,14737.0
2026-05-06 16:36:58.023955,938031,1609507681399632,5281312066,0.640256,0.46848,0.57584,-2.07375,2.47625,-14.035,-47.664,1.168,-62.472004,concentric,4,5.0,30644.0,34602.0,88855.0,90945.0,27602.0,43032.0,39040.0,51493.0,18812.0,14737.0
2026-05-06 16:36:58.026506,938032,1609507681414290,5281327022,0.67344,0.474336,0.620736,-3.675,3.6225,-16.0825,-47.504,1.0,-62.232002,concentric,4,5.0,30644.0,34602.0,88855.0,90945.0,27602.0,43032.0,39040.0,51493.0,18812.0,14737.0
2026-05-06 16:36:58.033865,938033,1609507681423255,5281335743,0.671488,0.372832,0.587552,-8.58375,4.17375,-23.00375,-48.328003,-2.424,-62.024002,concentric,4,5.0,30644.0,34602.0,88855.0,90945.0,27602.0,43032.0,39040.0,51493.0,18812.0,14737.0
2026-05-06 16:36:58.049470,938034,1609507681437847,5281348695,0.671488,0.372832,0.587552,-11.042501,5.1625,-23.2225,-48.328003,-2.424,-62.024002,concentric,4,5.0,30644.0,34602.0,88855.0,90945.0,27602.0,43032.0,39040.0,51493.0,18812.0,14737.0
2026-05-06 16:36:58.154375,938046,1609507681447156,5281359849,0.66368,0.470432,0.587552,-5.10125,5.5475,-18.6375,-48.144,0.848,-62.072002,concentric,4,5.0,30882.0,34828.0,89244.0,90883.0,27843.0,43321.0,39200.0,51545.0,18937.0,14834.0
2026-05-06 16:36:58.156869,938047,1609507681456169,5281368837,0.66368,0.470432,0.587552,1.0675,6.4225,-18.165,-48.144,0.848,-62.072002,concentric,4,5.0,30882.0,34828.0,89244.0,90883.0,27843.0,43321.0,39200.0,51545.0,18937.0,14834.0
2026-05-06 16:36:58.159366,938048,1609507681470732,5281381773,0.616832,0.513376,0.603168,3.87625,8.05875,-17.40375,-48.120003,-0.024,-61.552002,concentric,4,5.0,30882.0,34828.0,89244.0,90883.0,27843.0,43321.0,39200.0,51545.0,18937.0,14834.0
2026-05-06 16:36:58.161799,938049,1609507681479953,5281392596,0.616832,0.513376,0.603168,3.71,9.3625,-17.6225,-48.120003,-0.024,-61.552002,concentric,4,5.0,30882.0,34828.0,89244.0,90883.0,27843.0,43321.0,39200.0,51545.0,18937.0,14834.0
2026-05-06 16:36:58.164410,938050,1609507681494435,5281405478,0.66368,0.474336,0.587552,-1.00625,10.29875,-17.84125,-48.72,-0.088,-61.424004,concentric,4,5.0,30882.0,34828.0,89244.0,90883.0,27843.0,43321.0,39200.0,51545.0,18937.0,14834.0
2026-05-06 16:36:58.166817,938051,1609507681503696,5281416253,0.716384,0.4392,0.610976,-4.29625,10.7275,-17.115,-48.72,-0.008,-60.968002,concentric,4,5.0,30882.0,34828.0,89244.0,90883.0,27843.0,43321.0,39200.0,51545.0,18937.0,14834.0
2026-05-06 16:36:58.169068,938052,1609507681512637,5281424972,0.716384,0.4392,0.610976,-2.66875,9.96625,-13.011251,-48.872,-0.008,-60.968002,concentric,4,5.0,30882.0,34828.0,89244.0,90883.0,27843.0,43321.0,39200.0,51545.0,18937.0,14834.0
2026-05-06 16:36:58.171501,938053,1609507681527185,5281439890,0.677344,0.571936,0.54656,-1.82,6.97375,-10.07125,-49.104004,-1.768,-60.048004,concentric,4,5.0,30882.0,34828.0,89244.0,90883.0,27843.0,43321.0,39200.0,51545.0,18937.0,14834.0
2026-05-06 16:36:58.176919,938054,1609507681536249,5281448981,0.677344,0.571936,0.54656,-2.52875,3.325,-6.78125,-49.104004,-1.768,-60.048004,concentric,4,5.0,30882.0,34828.0,89244.0,90883.0,27843.0,43321.0,39200.0,51545.0,18937.0,14834.0
2026-05-06 16:36:58.216933,938065,1609507681551087,5281461882,0.655872,0.591456,0.513376,-6.5275,-2.8175,-8.645,-49.24,-1.544,-60.096004,concentric,4,5.0,30928.0,34921.0,88986.0,91151.0,27818.0,43289.0,39008.0,51498.0,18969.0,14863.0
2026-05-06 16:36:58.221245,938066,1609507681560525,5281472780,0.655872,0.591456,0.513376,-9.21375,-9.54625,-11.4625,-49.24,-1.544,-60.096004,concentric,4,5.0,30928.0,34921.0,88986.0,91151.0,27818.0,43289.0,39008.0,51498.0,18969.0,14863.0
2026-05-06 16:36:58.221736,938067,1609507681569603,5281481554,0.72224,0.472384,0.562176,-7.74375,-15.47875,-13.41375,-49.224003,-0.344,-61.608,concentric,4,5.0,30928.0,34921.0,88986.0,91151.0,27818.0,43289.0,39008.0,51498.0,18969.0,14863.0
2026-05-06 16:36:58.224053,938068,1609507681584212,5281496529,0.714432,0.54656,0.6344,-1.9425,-19.31125,-10.59625,-49.224003,0.048,-62.544003,concentric,4,5.0,30928.0,34921.0,88986.0,91151.0,27818.0,43289.0,39008.0,51498.0,18969.0,14863.0
2026-05-06 16:36:58.228559,938069,1609507681593419,5281505298,0.714432,0.54656,0.6344,4.8125,-21.98875,-4.80375,-49.512,0.048,-62.544003,concentric,4,5.0,30928.0,34921.0,88986.0,91151.0,27818.0,43289.0,39008.0,51498.0,18969.0,14863.0
2026-05-06 16:36:58.231916,938070,1609507681602360,5281514044,0.714432,0.54656,0.6344,4.41,-22.925,-2.8,-49.512,0.048,-62.544003,concentric,4,5.0,30928.0,34921.0,88986.0,91151.0,27818.0,43289.0,39008.0,51498.0,18969.0,14863.0
2026-05-06 16:36:58.231991,938071,1609507681616866,5281529041,0.677344,0.597312,0.677344,-1.25125,-23.03875,-3.43875,-49.344,0.072,-62.336002,concentric,4,5.0,30928.0,34921.0,88986.0,91151.0,27818.0,43289.0,39008.0,51498.0,18969.0,14863.0
2026-05-06 16:36:58.235707,938072,1609507681625812,5281537859,0.75152,0.486048,0.655872,-5.845,-21.4375,-4.6725,-49.336002,-0.016,-62.576004,concentric,4,5.0,30928.0,34921.0,88986.0,91151.0,27818.0,43289.0,39008.0,51498.0,18969.0,14863.0
2026-05-06 16:36:58.255783,938073,1609507681640464,5281552791,0.75152,0.486048,0.655872,-4.15625,-19.57375,-5.8625,-49.336002,-0.016,-62.576004,concentric,4,5.0,30928.0,34921.0,88986.0,91151.0,27818.0,43289.0,39008.0,51498.0,18969.0,14863.0
2026-05-06 16:36:58.287999,938084,1609507681649984,5281561684,0.735904,0.51728,0.700768,-1.81125,-15.8725,-4.48,-49.384003,-0.088,-62.648003,concentric,4,5.0,30586.0,34709.0,88358.0,91157.0,27496.0,43063.0,38713.0,51536.0,18768.0,14743.0
2026-05-06 16:36:58.290796,938085,1609507681659323,5281570597,0.735904,0.51728,0.700768,1.65375,-11.41875,1.98625,-49.384003,-0.088,-62.648003,concentric,4,5.0,30586.0,34709.0,88358.0,91157.0,27496.0,43063.0,38713.0,51536.0,18768.0,14743.0
2026-05-06 16:36:58.293271,938086,1609507681673859,5281585592,0.743712,0.601216,0.737856,1.18125,-6.86875,3.59625,-49.52,-1.472,-61.464005,concentric,4,5.0,30586.0,34709.0,88358.0,91157.0,27496.0,43063.0,38713.0,51536.0,18768.0,14743.0
2026-05-06 16:36:58.295810,938087,1609507681682952,5281594306,0.743712,0.601216,0.737856,-3.68375,-2.4675,0.70875,-49.52,-1.472,-61.464005,concentric,4,5.0,30586.0,34709.0,88358.0,91157.0,27496.0,43063.0,38713.0,51536.0,18768.0,14743.0
2026-05-06 16:36:58.309575,938088,1609507681697526,5281609227,0.720288,0.5856,0.665632,-7.4725,1.1025,-2.3625,-49.504,-1.824,-61.256004,concentric,4,5.0,30586.0,34709.0,88358.0,91157.0,27496.0,43063.0,38713.0,51536.0,18768.0,14743.0
2026-05-06 16:36:58.315810,938089,1609507681706447,5281617981,0.813984,0.480192,0.61488,-6.02,2.7825,-3.92,-49.552002,0.072,-62.152004,concentric,4,5.0,30586.0,34709.0,88358.0,91157.0,27496.0,43063.0,38713.0,51536.0,18768.0,14743.0
2026-05-06 16:36:58.329316,938090,1609507681720973,5281632904,0.813984,0.480192,0.61488,-4.80375,3.3775,-5.20625,-49.552002,0.072,-62.152004,concentric,4,5.0,30586.0,34709.0,88358.0,91157.0,27496.0,43063.0,38713.0,51536.0,18768.0,14743.0
2026-05-06 16:36:58.343234,938091,1609507681729959,5281641641,0.77104,0.569984,0.681248,-3.1325,2.86125,-1.96,-49.248,0.128,-62.344,concentric,4,5.0,30586.0,34709.0,88358.0,91157.0,27496.0,43063.0,38713.0,51536.0,18768.0,14743.0
2026-05-06 16:36:58.349484,938092,1609507681738923,5281650412,0.77104,0.569984,0.681248,-3.045,1.26,-0.30625,-49.248,0.128,-62.344,concentric,4,5.0,30586.0,34709.0,88358.0,91157.0,27496.0,43063.0,38713.0,51536.0,18768.0,14743.0
2026-05-06 16:36:58.380819,938103,1609507681753632,5281665882,0.769088,0.612928,0.659776,-5.71375,-0.16625,-3.29875,-49.944004,-1.224,-61.232002,concentric,4,5.0,30536.0,34611.0,88468.0,91328.0,27436.0,42948.0,38754.0,51595.0,18722.0,14704.0
2026-05-06 16:36:58.383019,938104,1609507681762643,5281674717,0.769088,0.612928,0.659776,-7.27125,-2.03875,-7.74375,-49.944004,-1.224,-61.232002,concentric,4,5.0,30536.0,34611.0,88468.0,91328.0,27436.0,42948.0,38754.0,51595.0,18722.0,14704.0
2026-05-06 16:36:58.386571,938105,1609507681777171,5281689659,0.83936,0.464576,0.591456,-8.417501,-6.18625,-13.25625,-49.432003,-0.328,-62.984,concentric,4,5.0,30536.0,34611.0,88468.0,91328.0,27436.0,42948.0,38754.0,51595.0,18722.0,14704.0
2026-05-06 16:36:58.395886,938106,1609507681786080,5281698367,0.79056,0.521184,0.671488,-5.6175,-9.31,-12.495,-49.120003,-2.216,-61.928,concentric,4,5.0,30536.0,34611.0,88468.0,91328.0,27436.0,42948.0,38754.0,51595.0,18722.0,14704.0
2026-05-06 16:36:58.405827,938107,1609507681795131,5281707138,0.79056,0.521184,0.671488,-0.3325,-12.83625,-7.90125,-49.120003,-2.216,-61.928,concentric,4,5.0,30536.0,34611.0,88468.0,91328.0,27436.0,42948.0,38754.0,51595.0,18722.0,14704.0
2026-05-06 16:36:58.421403,938108,1609507681809856,5281722226,0.691008,0.626592,0.655872,-0.42875,-13.72,-6.2475,-49.488003,0.024,-63.296,concentric,4,5.0,30536.0,34611.0,88468.0,91328.0,27436.0,42948.0,38754.0,51595.0,18722.0,14704.0
2026-05-06 16:36:58.444398,938109,1609507681818791,5281730924,0.691008,0.626592,0.655872,-1.925,-11.96125,-6.78125,-49.488003,0.024,-63.296,eccentric,4,5.0,30536.0,34611.0,88468.0,91328.0,27436.0,42948.0,38754.0,51595.0,18722.0,14704.0
2026-05-06 16:36:58.469132,938110,1609507681833313,5281745845,0.763232,0.509472,0.622688,-0.93625,-9.1875,-11.698751,-49.624,-0.248,-62.520004,eccentric,4,5.0,30536.0,34611.0,88468.0,91328.0,27436.0,42948.0,38754.0,51595.0,18722.0,14704.0
2026-05-06 16:36:58.478350,938111,1609507681842286,5281754535,0.763232,0.509472,0.622688,2.9575,-7.49,-13.97375,-49.624,-0.248,-62.520004,eccentric,4,5.0,30536.0,34611.0,88468.0,91328.0,27436.0,42948.0,38754.0,51595.0,18722.0,14704.0
2026-05-06 16:36:58.509440,938122,1609507681857113,5281769821,0.792512,0.443104,0.67344,3.40375,-6.51,-11.08625,-49.392002,-0.624,-63.120003,eccentric,4,5.0,30484.0,34529.0,88272.0,90923.0,27340.0,42853.0,38653.0,51408.0,18687.0,14662.0
2026-05-06 16:36:58.510357,938123,1609507681866089,5281778670,0.792512,0.577792,0.646112,1.86375,-4.4275,-4.9,-49.392002,-0.624,-65.16801,eccentric,4,5.0,30484.0,34529.0,88272.0,90923.0,27340.0,42853.0,38653.0,51408.0,18687.0,14662.0
2026-05-06 16:36:58.512557,938124,1609507681875000,5281787461,0.696864,0.577792,0.646112,2.19625,-1.84625,-0.455,-49.216003,-0.512,-63.696003,eccentric,4,5.0,30484.0,34529.0,88272.0,90923.0,27340.0,42853.0,38653.0,51408.0,18687.0,14662.0
2026-05-06 16:36:58.515657,938125,1609507681889662,5281800429,0.657824,0.620736,0.552416,0.6475,0.9275,-1.79375,-49.544003,-2.472,-62.288002,eccentric,4,5.0,30484.0,34529.0,88272.0,90923.0,27340.0,42853.0,38653.0,51408.0,18687.0,14662.0
2026-05-06 16:36:58.517716,938126,1609507681898906,5281811263,0.657824,0.620736,0.552416,-2.94,3.31625,-6.78125,-49.544003,-2.472,-62.288002,eccentric,4,5.0,30484.0,34529.0,88272.0,90923.0,27340.0,42853.0,38653.0,51408.0,18687.0,14662.0
2026-05-06 16:36:58.520259,938127,1609507681913453,5281824252,0.726144,0.4392,0.548512,-4.41,4.6025,-12.36375,-49.368004,-4.008,-61.048004,eccentric,4,5.0,30484.0,34529.0,88272.0,90923.0,27340.0,42853.0,38653.0,51408.0,18687.0,14662.0
2026-05-06 16:36:58.533950,938128,1609507681922721,5281835030,0.726144,0.4392,0.548512,1.79375,3.99,-12.08375,-49.368004,-4.008,-61.048004,eccentric,4,5.0,30484.0,34529.0,88272.0,90923.0,27340.0,42853.0,38653.0,51408.0,18687.0,14662.0
2026-05-06 16:36:58.540446,938129,1609507681931650,5281843746,0.735904,0.488,0.612928,4.235,2.52,-7.595,-48.952003,-1.08,-63.456,eccentric,4,5.0,30484.0,34529.0,88272.0,90923.0,27340.0,42853.0,38653.0,51408.0,18687.0,14662.0
2026-05-06 16:36:58.574757,938130,1609507681946120,5281858664,0.735904,0.488,0.612928,-0.49875,1.26875,-3.40375,-48.952003,-1.08,-63.456,eccentric,4,5.0,30484.0,34529.0,88272.0,90923.0,27340.0,42853.0,38653.0,51408.0,18687.0,14662.0
2026-05-06 16:36:58.604198,938141,1609507681955199,5281867480,0.64416,0.622688,0.5856,-3.57,2.7475,-0.3675,-49.048004,-0.664,-62.624004,eccentric,4,5.0,30251.0,34275.0,87861.0,91113.0,27099.0,42502.0,38366.0,51384.0,18562.0,14543.0
2026-05-06 16:36:58.606416,938142,1609507681969829,5281882422,0.685152,0.511424,0.54656,-2.975,3.3425,-2.07375,-48.872,-0.832,-63.416004,eccentric,4,5.0,30251.0,34275.0,87861.0,91113.0,27099.0,42502.0,38366.0,51384.0,18562.0,14543.0
2026-05-06 16:36:58.610606,938143,1609507681978927,5281891208,0.685152,0.511424,0.54656,-4.1825,3.24625,-8.575,-48.872,-0.832,-63.416004,eccentric,4,5.0,30251.0,34275.0,87861.0,91113.0,27099.0,42502.0,38366.0,51384.0,18562.0,14543.0
2026-05-06 16:36:58.611448,938144,1609507681987913,5281899938,0.737856,0.456768,0.534848,-2.42375,2.47625,-7.95375,-48.760002,-1.984,-62.576004,eccentric,4,5.0,30251.0,34275.0,87861.0,91113.0,27099.0,42502.0,38366.0,51384.0,18562.0,14543.0
2026-05-06 16:36:58.613755,938145,1609507682002462,5281914963,0.737856,0.456768,0.534848,-1.1025,0.13125,-6.92125,-48.760002,-1.984,-62.576004,eccentric,4,5.0,30251.0,34275.0,87861.0,91113.0,27099.0,42502.0,38366.0,51384.0,18562.0,14543.0
2026-05-06 16:36:58.645620,938146,1609507682011439,5281923751,0.679296,0.530944,0.612928,-1.785,-0.77875,-2.89625,-48.4,-2.64,-62.256004,eccentric,4,5.0,30251.0,34275.0,87861.0,91113.0,27099.0,42502.0,38366.0,51384.0,18562.0,14543.0
2026-05-06 16:36:58.648208,938147,1609507682025909,5281938632,0.679296,0.530944,0.612928,-3.8675,-0.14875,-0.315,-48.4,-2.64,-62.256004,eccentric,4,5.0,30251.0,34275.0,87861.0,91113.0,27099.0,42502.0,38366.0,51384.0,18562.0,14543.0
2026-05-06 16:36:58.650611,938148,1609507682034829,5281947487,0.642208,0.568032,0.523136,-3.045,1.6275,-0.35875,-48.336002,-1.048,-63.104004,eccentric,4,5.0,30251.0,34275.0,87861.0,91113.0,27099.0,42502.0,38366.0,51384.0,18562.0,14543.0
2026-05-06 16:36:58.659199,938149,1609507682049410,5281960496,0.696864,0.427488,0.550464,-3.03625,2.61625,-4.095,-48.480003,-1.32,-63.672005,eccentric,4,5.0,30251.0,34275.0,87861.0,91113.0,27099.0,42502.0,38366.0,51384.0,18562.0,14543.0
2026-05-06 16:36:58.686760,938160,1609507682059223,5281971297,0.696864,0.427488,0.550464,-4.68125,3.3075,-5.45125,-48.480003,-1.32,-63.672005,eccentric,4,5.0,30061.0,34020.0,87554.0,90937.0,26920.0,42188.0,38201.0,51321.0,18436.0,14410.0
2026-05-06 16:36:58.689223,938161,1609507682068583,5281980160,0.685152,0.462624,0.579744,-4.54125,2.94875,-2.5025,-48.216003,-3.416,-61.792004,eccentric,4,5.0,30061.0,34020.0,87554.0,90937.0,26920.0,42188.0,38201.0,51321.0,18436.0,14410.0
2026-05-06 16:36:58.693316,938162,1609507682083103,5281995109,0.685152,0.462624,0.579744,-4.87375,2.835,2.65125,-48.216003,-3.416,-61.792004,eccentric,4,5.0,30061.0,34020.0,87554.0,90937.0,26920.0,42188.0,38201.0,51321.0,18436.0,14410.0
2026-05-06 16:36:58.708090,938163,1609507682092103,5282003896,0.640256,0.552416,0.532896,-4.55875,2.345,6.90375,-48.112003,-4.856,-61.504,eccentric,4,5.0,30061.0,34020.0,87554.0,90937.0,26920.0,42188.0,38201.0,51321.0,18436.0,14410.0
2026-05-06 16:36:58.710456,938164,1609507682101098,5282012635,0.640256,0.552416,0.532896,-4.6375,2.47625,6.88625,-48.112003,-4.856,-61.504,eccentric,4,5.0,30061.0,34020.0,87554.0,90937.0,26920.0,42188.0,38201.0,51321.0,18436.0,14410.0
2026-05-06 16:36:58.724074,938165,1609507682115612,5282027606,0.622688,0.499712,0.489952,-4.55875,2.065,4.9525,-47.88,-0.712,-63.536003,eccentric,4,5.0,30061.0,34020.0,87554.0,90937.0,26920.0,42188.0,38201.0,51321.0,18436.0,14410.0
2026-05-06 16:36:58.732934,938166,1609507682124612,5282036434,0.622688,0.499712,0.489952,-6.41375,1.435,1.715,-47.88,-0.712,-63.536003,eccentric,4,5.0,30061.0,34020.0,87554.0,90937.0,26920.0,42188.0,38201.0,51321.0,18436.0,14410.0
2026-05-06 16:36:58.766727,938167,1609507682139128,5282051379,0.655872,0.413824,0.52704,-6.265,0.60375,1.61875,-47.736004,-1.192,-63.840004,eccentric,4,5.0,30061.0,34020.0,87554.0,90937.0,26920.0,42188.0,38201.0,51321.0,18436.0,14410.0
2026-05-06 16:36:58.769205,938168,1609507682148095,5282060132,0.655872,0.460672,0.52704,-6.51875,-0.48125,4.2,-47.736004,-1.192,-63.840004,eccentric,4,5.0,30061.0,34020.0,87554.0,90937.0,26920.0,42188.0,38201.0,51321.0,18436.0,14410.0
2026-05-06 16:36:58.854239,938179,1609507682157133,5282068916,0.6344,0.460672,0.52704,-7.455,-1.60125,7.9275,-47.512,-0.952,-65.192,eccentric,4,5.0,30030.0,34027.0,87238.0,90800.0,26891.0,42221.0,38046.0,51281.0,18410.0,14428.0
2026-05-06 16:36:58.856773,938180,1609507682171726,5282083902,0.587552,0.51728,0.505568,-6.37,-2.9575,10.045,-47.320004,-2.224,-63.200005,eccentric,4,5.0,30030.0,34027.0,87238.0,90800.0,26891.0,42221.0,38046.0,51281.0,18410.0,14428.0
2026-05-06 16:36:58.859270,938181,1609507682180758,5282092700,0.587552,0.51728,0.505568,-5.145,-4.235,8.96,-47.320004,-2.224,-63.200005,eccentric,4,5.0,30030.0,34027.0,87238.0,90800.0,26891.0,42221.0,38046.0,51281.0,18410.0,14428.0
2026-05-06 16:36:58.861893,938182,1609507682195293,5282107691,0.60512,0.45872,0.484096,-4.6025,-4.54125,7.0875,-47.216003,-1.136,-62.776005,eccentric,4,5.0,30030.0,34027.0,87238.0,90800.0,26891.0,42221.0,38046.0,51281.0,18410.0,14428.0
2026-05-06 16:36:58.864270,938183,1609507682204283,5282116399,0.60512,0.45872,0.484096,-5.6175,-3.955,4.66375,-47.216003,-1.136,-62.776005,eccentric,4,5.0,30030.0,34027.0,87238.0,90800.0,26891.0,42221.0,38046.0,51281.0,18410.0,14428.0
2026-05-06 16:36:58.866899,938184,1609507682218924,5282131308,0.622688,0.40016,0.525088,-6.65875,-3.21125,5.31125,-46.928,-1.096,-64.01601,eccentric,4,5.0,30030.0,34027.0,87238.0,90800.0,26891.0,42221.0,38046.0,51281.0,18410.0,14428.0
2026-05-06 16:36:58.869271,938185,1609507682228056,5282140110,0.622688,0.40016,0.525088,-7.91,-3.3775,7.49,-46.928,-1.096,-64.01601,eccentric,4,5.0,30030.0,34027.0,87238.0,90800.0,26891.0,42221.0,38046.0,51281.0,18410.0,14428.0
2026-05-06 16:36:58.871833,938186,1609507682237064,5282148814,0.573888,0.456768,0.513376,-8.0325,-2.47625,10.185,-46.928,-0.48,-64.0,eccentric,4,5.0,30030.0,34027.0,87238.0,90800.0,26891.0,42221.0,38046.0,51281.0,18410.0,14428.0
2026-05-06 16:36:58.901542,938197,1609507682251870,5282163729,0.560224,0.49776,0.489952,-7.9625,-2.17875,10.7275,-46.624,-0.136,-64.76,eccentric,4,5.0,30004.0,34058.0,87111.0,90695.0,26850.0,42256.0,38016.0,51218.0,18387.0,14444.0
2026-05-06 16:36:58.904070,938198,1609507682260851,5282172522,0.560224,0.49776,0.489952,-5.87125,-1.56625,8.5575,-46.624,-0.136,-64.76,eccentric,4,5.0,30004.0,34058.0,87111.0,90695.0,26850.0,42256.0,38016.0,51218.0,18387.0,14444.0
2026-05-06 16:36:58.906920,938199,1609507682275364,5282187518,0.612928,0.38064,0.501664,-4.97875,-1.12,5.8975,-46.536003,-0.608,-64.688,eccentric,4,5.0,30004.0,34058.0,87111.0,90695.0,26850.0,42256.0,38016.0,51218.0,18387.0,14444.0
2026-05-06 16:36:58.908961,938200,1609507682284315,5282196272,0.612928,0.38064,0.501664,-5.565,0.1925,3.22,-46.536003,-0.608,-64.688,eccentric,4,5.0,30004.0,34058.0,87111.0,90695.0,26850.0,42256.0,38016.0,51218.0,18387.0,14444.0
2026-05-06 16:36:58.911565,938201,1609507682293323,5282205003,0.589504,0.402112,0.493856,-4.87375,0.42875,4.97,-46.304,-0.272,-64.72,eccentric,4,5.0,30004.0,34058.0,87111.0,90695.0,26850.0,42256.0,38016.0,51218.0,18387.0,14444.0
2026-05-06 16:36:58.917089,938202,1609507682307853,5282219999,0.589504,0.402112,0.493856,-2.135,0.34125,8.3475,-46.304,-0.272,-64.72,eccentric,4,5.0,30004.0,34058.0,87111.0,90695.0,26850.0,42256.0,38016.0,51218.0,18387.0,14444.0
2026-05-06 16:36:58.927051,938203,1609507682316828,5282228808,0.564128,0.450912,0.4392,-1.70625,0.07,8.82,-46.352,-0.192,-67.464005,eccentric,4,5.0,30004.0,34058.0,87111.0,90695.0,26850.0,42256.0,38016.0,51218.0,18387.0,14444.0
2026-05-06 16:36:58.960842,938204,1609507682331428,5282243719,0.589504,0.41968,0.47824,-1.04125,-1.05,8.19,-46.368004,0.144,-65.024,eccentric,4,5.0,30004.0,34058.0,87111.0,90695.0,26850.0,42256.0,38016.0,51218.0,18387.0,14444.0
2026-05-06 16:36:58.963344,938205,1609507682340385,5282252506,0.589504,0.41968,0.47824,-1.1725,-2.0125,5.285,-46.368004,0.144,-65.024,eccentric,4,5.0,30004.0,34058.0,87111.0,90695.0,26850.0,42256.0,38016.0,51218.0,18387.0,14444.0
2026-05-06 16:36:58.990649,938216,1609507682355420,5282267532,0.60512,0.372832,0.525088,-0.06125,-2.3625,4.4275,-45.944004,0.152,-65.192,eccentric,4,5.0,29955.0,34052.0,87101.0,90706.0,26843.0,42258.0,37991.0,51241.0,18377.0,14446.0
2026-05-06 16:36:58.993045,938217,1609507682364562,5282276327,0.60512,0.372832,0.525088,0.3675,-2.14375,3.94625,-45.944004,0.152,-65.192,eccentric,4,5.0,29955.0,34052.0,87101.0,90706.0,26843.0,42258.0,37991.0,51241.0,18377.0,14446.0
2026-05-06 16:36:58.995612,938218,1609507682373602,5282285154,0.593408,0.324032,0.454816,-1.015,-1.0675,3.84125,-45.952003,-1.888,-65.16,eccentric,4,5.0,29955.0,34052.0,87101.0,90706.0,26843.0,42258.0,37991.0,51241.0,18377.0,14446.0
2026-05-06 16:36:58.998155,938219,1609507682388212,5282300141,0.593408,0.324032,0.454816,-1.82,-0.20125,7.315,-45.952003,-1.888,-65.16,eccentric,4,5.0,29955.0,34052.0,87101.0,90706.0,26843.0,42258.0,37991.0,51241.0,18377.0,14446.0
2026-05-06 16:36:59.006928,938220,1609507682397306,5282308934,0.552416,0.398208,0.435296,-2.0125,-0.035,9.625,-45.576004,0.0,-65.256004,eccentric,4,5.0,29955.0,34052.0,87101.0,90706.0,26843.0,42258.0,37991.0,51241.0,18377.0,14446.0
2026-05-06 16:36:59.015670,938221,1609507682406228,5282317637,0.552416,0.398208,0.435296,0.42875,0.09625,10.54375,-45.576004,0.0,-65.256004,eccentric,4,5.0,29955.0,34052.0,87101.0,90706.0,26843.0,42258.0,37991.0,51241.0,18377.0,14446.0
2026-05-06 16:36:59.031992,938222,1609507682420749,5282332657,0.534848,0.38064,0.435296,1.1375,-0.49,8.365,-45.536003,0.856,-65.128006,eccentric,4,5.0,29955.0,34052.0,87101.0,90706.0,26843.0,42258.0,37991.0,51241.0,18377.0,14446.0
2026-05-06 16:36:59.038294,938223,1609507682429792,5282341363,0.534848,0.38064,0.435296,2.0125,-0.83125,7.09625,-45.536003,0.856,-65.128006,eccentric,4,5.0,29955.0,34052.0,87101.0,90706.0,26843.0,42258.0,37991.0,51241.0,18377.0,14446.0
2026-05-06 16:36:59.071508,938224,1609507682444291,5282356451,0.525088,0.343552,0.42944,3.33375,-0.4725,7.1225,-45.488003,-2.792,-63.000004,eccentric,4,5.0,29955.0,34052.0,87101.0,90706.0,26843.0,42258.0,37991.0,51241.0,18377.0,14446.0
2026-05-06 16:36:59.099403,938235,1609507682453805,5282365206,0.542656,0.339648,0.472384,3.50875,0.385,8.2075,-45.368004,0.928,-65.4,eccentric,4,5.0,30034.0,34065.0,86970.0,90483.0,26895.0,42284.0,37928.0,51107.0,18419.0,14452.0
2026-05-06 16:36:59.101547,938236,1609507682462790,5282373961,0.542656,0.339648,0.472384,1.58375,1.28625,8.3125,-45.368004,0.928,-65.4,eccentric,4,5.0,30034.0,34065.0,86970.0,90483.0,26895.0,42284.0,37928.0,51107.0,18419.0,14452.0
2026-05-06 16:36:59.104135,938237,1609507682477863,5282388991,0.491904,0.363072,0.413824,0.21,1.72375,10.0975,-45.320004,-0.832,-63.984,eccentric,4,5.0,30034.0,34065.0,86970.0,90483.0,26895.0,42284.0,37928.0,51107.0,18419.0,14452.0
2026-05-06 16:36:59.107011,938238,1609507682487175,5282399770,0.491904,0.363072,0.413824,2.73875,0.81375,10.26375,-45.320004,-0.832,-63.984,eccentric,4,5.0,30034.0,34065.0,86970.0,90483.0,26895.0,42284.0,37928.0,51107.0,18419.0,14452.0
2026-05-06 16:36:59.109514,938239,1609507682501794,5282412751,0.493856,0.388448,0.374784,3.28125,-0.525,9.31875,-45.024002,-0.608,-64.384,eccentric,4,5.0,30034.0,34065.0,86970.0,90483.0,26895.0,42284.0,37928.0,51107.0,18419.0,14452.0
2026-05-06 16:36:59.120785,938240,1609507682511398,5282423613,0.50752,0.339648,0.42944,0.35,-0.315,8.28625,-45.096,-0.424,-62.800003,eccentric,4,5.0,30034.0,34065.0,86970.0,90483.0,26895.0,42284.0,37928.0,51107.0,18419.0,14452.0
2026-05-06 16:36:59.129550,938241,1609507682520381,5282432318,0.50752,0.339648,0.42944,-1.785,0.46375,7.98875,-45.096,-0.424,-62.800003,eccentric,4,5.0,30034.0,34065.0,86970.0,90483.0,26895.0,42284.0,37928.0,51107.0,18419.0,14452.0
2026-05-06 16:36:59.176861,938242,1609507682534886,5282447273,0.489952,0.368928,0.454816,-1.75875,2.05625,9.5375,-44.440002,1.392,-65.336006,eccentric,4,5.0,30034.0,34065.0,86970.0,90483.0,26895.0,42284.0,37928.0,51107.0,18419.0,14452.0
2026-05-06 16:36:59.201587,938243,1609507682543847,5282456066,0.489952,0.368928,0.454816,-2.7475,3.045,10.35125,-44.440002,1.392,-65.336006,eccentric,4,5.0,30034.0,34065.0,86970.0,90483.0,26895.0,42284.0,37928.0,51107.0,18419.0,14452.0
2026-05-06 16:36:59.244528,938254,1609507682558545,5282471066,0.470432,0.406016,0.386496,-5.29375,3.89375,9.58125,-44.848003,1.192,-65.16801,eccentric,4,5.0,30121.0,34115.0,86885.0,90173.0,26998.0,42341.0,37904.0,50979.0,18498.0,14484.0
2026-05-06 16:36:59.247045,938255,1609507682567561,5282479763,0.470432,0.406016,0.386496,-6.3175,4.12125,7.34125,-44.848003,1.192,-65.16801,eccentric,4,5.0,30121.0,34115.0,86885.0,90173.0,26998.0,42341.0,37904.0,50979.0,18498.0,14484.0
2026-05-06 16:36:59.249541,938256,1609507682576486,5282488472,0.47824,0.431392,0.357216,-4.24375,3.185,4.90875,-44.792004,1.472,-65.512,eccentric,4,5.0,30121.0,34115.0,86885.0,90173.0,26998.0,42341.0,37904.0,50979.0,18498.0,14484.0
2026-05-06 16:36:59.252112,938257,1609507682591023,5282503385,0.47824,0.431392,0.482144,-0.9275,2.16125,4.22625,-44.792004,1.472,-65.512,eccentric,4,5.0,30121.0,34115.0,86885.0,90173.0,26998.0,42341.0,37904.0,50979.0,18498.0,14484.0
2026-05-06 16:36:59.256356,938258,1609507682599977,5282512118,0.52704,0.372832,0.47824,-2.695,0.48125,2.7475,-44.72,1.6,-66.032005,eccentric,4,5.0,30121.0,34115.0,86885.0,90173.0,26998.0,42341.0,37904.0,50979.0,18498.0,14484.0
2026-05-06 16:36:59.256690,938259,1609507682614508,5282527049,0.538752,0.374784,0.482144,-7.0525,-0.72625,2.135,-44.68,1.848,-65.568,eccentric,4,5.0,30121.0,34115.0,86885.0,90173.0,26998.0,42341.0,37904.0,50979.0,18498.0,14484.0
2026-05-06 16:36:59.259045,938260,1609507682623460,5282535787,0.538752,0.374784,0.482144,-10.3425,-1.505,3.3425,-44.68,1.848,-65.568,eccentric,4,5.0,30121.0,34115.0,86885.0,90173.0,26998.0,42341.0,37904.0,50979.0,18498.0,14484.0
2026-05-06 16:36:59.286875,938261,1609507682637987,5282548839,0.558272,0.433344,0.44896,-10.675,-2.975,4.375,-44.752003,1.96,-65.096,eccentric,4,5.0,30121.0,34115.0,86885.0,90173.0,26998.0,42341.0,37904.0,50979.0,18498.0,14484.0
2026-05-06 16:36:59.289374,938262,1609507682647368,5282559636,0.558272,0.433344,0.44896,-11.85625,-4.06875,2.51125,-44.752003,1.96,-65.096,eccentric,4,5.0,30121.0,34115.0,86885.0,90173.0,26998.0,42341.0,37904.0,50979.0,18498.0,14484.0
2026-05-06 16:36:59.317005,938273,1609507682656902,5282568543,0.60512,0.335744,0.489952,-13.658751,-4.095,-0.79625,-44.728,1.216,-64.712006,eccentric,4,5.0,30089.0,34103.0,87024.0,90553.0,26953.0,42327.0,37993.0,51164.0,18461.0,14482.0
2026-05-06 16:36:59.322032,938274,1609507682671824,5282583505,0.60512,0.335744,0.511424,-12.573751,-4.655,-1.6275,-44.728,1.216,-64.712006,eccentric,4,5.0,30089.0,34103.0,87024.0,90553.0,26953.0,42327.0,37993.0,51164.0,18461.0,14482.0
2026-05-06 16:36:59.324560,938275,1609507682680945,5282592274,0.589504,0.38064,0.511424,-10.98125,-4.54125,-0.1925,-45.008003,1.376,-67.712006,eccentric,4,5.0,30089.0,34103.0,87024.0,90553.0,26953.0,42327.0,37993.0,51164.0,18461.0,14482.0
2026-05-06 16:36:59.326961,938276,1609507682689910,5282601033,0.589504,0.38064,0.511424,-8.68875,-4.24375,2.07375,-45.008003,1.376,-67.712006,eccentric,4,5.0,30089.0,34103.0,87024.0,90553.0,26953.0,42327.0,37993.0,51164.0,18461.0,14482.0
2026-05-06 16:36:59.329583,938277,1609507682704831,5282616046,0.655872,0.36112,0.51728,-11.6725,-3.40375,-0.28875,-44.816,-0.168,-64.384,eccentric,4,5.0,30089.0,34103.0,87024.0,90553.0,26953.0,42327.0,37993.0,51164.0,18461.0,14482.0
2026-05-06 16:36:59.331994,938278,1609507682714288,5282626856,0.677344,0.33184,0.5368,-16.4675,-2.26625,-1.1725,-44.352,-0.064,-64.264,eccentric,4,5.0,30089.0,34103.0,87024.0,90553.0,26953.0,42327.0,37993.0,51164.0,18461.0,14482.0
2026-05-06 16:36:59.334143,938279,1609507682723246,5282635601,0.677344,0.33184,0.5368,-17.955,-0.91,-1.72375,-44.352,-0.064,-64.264,eccentric,4,5.0,30089.0,34103.0,87024.0,90553.0,26953.0,42327.0,37993.0,51164.0,18461.0,14482.0
2026-05-06 16:36:59.350327,938280,1609507682737746,5282648522,0.677344,0.3416,0.534848,-17.00125,-0.315,-1.645,-44.568,0.032,-63.336002,eccentric,4,5.0,30089.0,34103.0,87024.0,90553.0,26953.0,42327.0,37993.0,51164.0,18461.0,14482.0
2026-05-06 16:36:59.359634,938281,1609507682746928,5282659346,0.677344,0.3416,0.534848,-13.1775,0.14875,-1.32125,-44.568,0.032,-63.336002,eccentric,4,5.0,30089.0,34103.0,87024.0,90553.0,26953.0,42327.0,37993.0,51164.0,18461.0,14482.0
2026-05-06 16:36:59.387912,938292,1609507682761491,5282672267,0.687104,0.32208,0.593408,-10.3775,1.12,-0.74375,-44.536003,-0.064,-64.44,eccentric,4,5.0,29994.0,34039.0,87504.0,91219.0,26887.0,42323.0,38231.0,51570.0,18420.0,14471.0
2026-05-06 16:36:59.390698,938293,1609507682770722,5282683081,0.687104,0.32208,0.593408,-8.81125,1.7675,1.015,-44.536003,-0.064,-64.44,eccentric,4,5.0,29994.0,34039.0,87504.0,91219.0,26887.0,42323.0,38231.0,51570.0,18420.0,14471.0
2026-05-06 16:36:59.394458,938294,1609507682785285,5282698037,0.6832,0.357216,0.550464,-7.25375,1.67125,1.56625,-44.192,1.832,-65.864006,eccentric,4,5.0,29994.0,34039.0,87504.0,91219.0,26887.0,42323.0,38231.0,51570.0,18420.0,14471.0
2026-05-06 16:36:59.408238,938295,1609507682794238,5282706791,0.67344,0.335744,0.542656,-7.53375,0.945,-0.14875,-44.208004,-0.36,-65.536,eccentric,4,5.0,29994.0,34039.0,87504.0,91219.0,26887.0,42323.0,38231.0,51570.0,18420.0,14471.0
2026-05-06 16:36:59.414554,938296,1609507682803238,5282715470,0.67344,0.335744,0.542656,-5.97625,0.3325,-0.455,-44.208004,-0.36,-65.536,eccentric,4,5.0,29994.0,34039.0,87504.0,91219.0,26887.0,42323.0,38231.0,51570.0,18420.0,14471.0
2026-05-06 16:36:59.432054,938297,1609507682817857,5282730405,0.67344,0.316224,0.530944,-1.995,-0.7,-0.06125,-44.320004,0.28,-64.784004,eccentric,4,5.0,29994.0,34039.0,87504.0,91219.0,26887.0,42323.0,38231.0,51570.0,18420.0,14471.0
2026-05-06 16:36:59.438270,938298,1609507682826773,5282739100,0.67344,0.316224,0.530944,0.70875,-1.40875,0.14875,-44.320004,0.28,-64.784004,eccentric,4,5.0,29994.0,34039.0,87504.0,91219.0,26887.0,42323.0,38231.0,51570.0,18420.0,14471.0
2026-05-06 16:36:59.452455,938299,1609507682841285,5282753993,0.642208,0.374784,0.540704,0.91875,-2.03875,1.47,-44.424004,0.232,-64.416,eccentric,4,5.0,29994.0,34039.0,87504.0,91219.0,26887.0,42323.0,38231.0,51570.0,18420.0,14471.0
2026-05-06 16:36:59.460647,938300,1609507682850229,5282762786,0.642208,0.374784,0.540704,0.20125,-1.77625,1.3125,-44.424004,0.232,-64.416,eccentric,4,5.0,29994.0,34039.0,87504.0,91219.0,26887.0,42323.0,38231.0,51570.0,18420.0,14471.0
2026-05-06 16:36:59.490768,938311,1609507682859350,5282771571,0.636352,0.376736,0.523136,0.8225,-1.54,0.525,-44.616,0.76,-66.296005,eccentric,4,5.0,30036.0,34056.0,87663.0,91015.0,26949.0,42396.0,38354.0,51491.0,18464.0,14500.0
2026-05-06 16:36:59.493021,938312,1609507682873966,5282786585,0.610976,0.36112,0.544608,1.16375,-1.575,-1.21625,-44.616,0.048,-64.68,eccentric,4,5.0,30036.0,34056.0,87663.0,91015.0,26949.0,42396.0,38354.0,51491.0,18464.0,14500.0
2026-05-06 16:36:59.495788,938313,1609507682882900,5282795295,0.610976,0.36112,0.544608,1.04125,-0.74375,-1.32125,-44.568,0.048,-64.68,eccentric,4,5.0,30036.0,34056.0,87663.0,91015.0,26949.0,42396.0,38354.0,51491.0,18464.0,14500.0
2026-05-06 16:36:59.509196,938314,1609507682897423,5282808188,0.632448,0.384544,0.525088,3.14125,-0.72625,0.0525,-44.352,0.208,-64.520004,eccentric,4,5.0,30036.0,34056.0,87663.0,91015.0,26949.0,42396.0,38354.0,51491.0,18464.0,14500.0
2026-05-06 16:36:59.517974,938315,1609507682906566,5282819014,0.632448,0.384544,0.525088,3.26375,-1.11125,-1.37375,-44.352,0.208,-64.520004,eccentric,4,5.0,30036.0,34056.0,87663.0,91015.0,26949.0,42396.0,38354.0,51491.0,18464.0,14500.0
2026-05-06 16:36:59.548254,938316,1609507682921118,5282831900,0.626592,0.374784,0.499712,2.555,-0.245,-0.245,-44.248,0.384,-64.43201,eccentric,4,5.0,30036.0,34056.0,87663.0,91015.0,26949.0,42396.0,38354.0,51491.0,18464.0,14500.0
2026-05-06 16:36:59.573197,938317,1609507682930352,5282842712,0.626592,0.374784,0.499712,2.4325,-0.44625,-1.19,-44.248,0.384,-64.43201,eccentric,4,5.0,30036.0,34056.0,87663.0,91015.0,26949.0,42396.0,38354.0,51491.0,18464.0,14500.0
2026-05-06 16:36:59.586919,938318,1609507682939301,5282851416,0.616832,0.365024,0.542656,1.35625,-0.1575,-1.925,-44.432003,1.776,-65.68,eccentric,4,5.0,30036.0,34056.0,87663.0,91015.0,26949.0,42396.0,38354.0,51491.0,18464.0,14500.0
2026-05-06 16:36:59.614557,938329,1609507682953802,5282866472,0.616832,0.365024,0.523136,0.70875,0.25375,-1.9425,-44.432003,1.776,-65.68,eccentric,4,5.0,30072.0,34083.0,87641.0,90821.0,26976.0,42380.0,38319.0,51368.0,18463.0,14492.0
2026-05-06 16:36:59.617088,938330,1609507682962884,5282875275,0.6344,0.382592,0.523136,0.81375,0.09625,-1.995,-44.232002,2.128,-65.464005,eccentric,4,5.0,30072.0,34083.0,87641.0,90821.0,26976.0,42380.0,38319.0,51368.0,18463.0,14492.0
2026-05-06 16:36:59.619542,938331,1609507682977369,5282888174,0.593408,0.36112,0.49776,0.84875,-0.34125,-3.0975,-44.568,1.888,-65.712006,eccentric,4,5.0,30072.0,34083.0,87641.0,90821.0,26976.0,42380.0,38319.0,51368.0,18463.0,14492.0
2026-05-06 16:36:59.621938,938332,1609507682986684,5282898984,0.593408,0.36112,0.49776,0.79625,-0.2975,-3.73625,-44.568,1.888,-65.712006,eccentric,4,5.0,30072.0,34083.0,87641.0,90821.0,26976.0,42380.0,38319.0,51368.0,18463.0,14492.0
2026-05-06 16:36:59.624554,938333,1609507682995749,5282907731,0.593408,0.38064,0.521184,2.1,-0.14,-4.50625,-44.280003,0.944,-63.824,eccentric,4,5.0,30072.0,34083.0,87641.0,90821.0,26976.0,42380.0,38319.0,51368.0,18463.0,14492.0
2026-05-06 16:36:59.627033,938334,1609507683010319,5282922697,0.593408,0.38064,0.521184,2.485,1.04125,-4.80375,-44.280003,0.944,-63.824,eccentric,4,5.0,30072.0,34083.0,87641.0,90821.0,26976.0,42380.0,38319.0,51368.0,18463.0,14492.0
2026-05-06 16:36:59.631224,938335,1609507683019299,5282931403,0.640256,0.3416,0.542656,2.905,2.68625,-5.83625,-44.928,-0.064,-64.36,eccentric,4,5.0,30072.0,34083.0,87641.0,90821.0,26976.0,42380.0,38319.0,51368.0,18463.0,14492.0
2026-05-06 16:36:59.642685,938336,1609507683033868,5282946352,0.640256,0.3416,0.542656,-0.34125,3.24625,-7.91,-44.928,-0.064,-64.36,eccentric,4,5.0,30072.0,34083.0,87641.0,90821.0,26976.0,42380.0,38319.0,51368.0,18463.0,14492.0
2026-05-06 16:36:59.651545,938337,1609507683042778,5282955123,0.62464,0.30256,0.482144,-1.015,4.26125,-6.44,-44.576,1.736,-64.008,eccentric,4,5.0,30072.0,34083.0,87641.0,90821.0,26976.0,42380.0,38319.0,51368.0,18463.0,14492.0
2026-05-06 16:36:59.660612,938338,1609507683051717,5282963899,0.62464,0.30256,0.482144,1.53125,4.2,-3.73625,-44.576,1.736,-64.008,eccentric,4,5.0,30072.0,34083.0,87641.0,90821.0,26976.0,42380.0,38319.0,51368.0,18463.0,14492.0
2026-05-06 16:36:59.691955,938349,1609507683066308,5282979014,0.61488,0.396256,0.51728,2.79125,4.27,-2.03875,-44.544003,2.096,-65.456,eccentric,4,5.0,30044.0,34055.0,87583.0,90846.0,26920.0,42363.0,38293.0,51397.0,18428.0,14496.0
2026-05-06 16:36:59.694533,938350,1609507683075281,5282987776,0.650016,0.368928,0.528992,2.52875,4.03375,-2.345,-44.544003,-2.0,-62.856003,eccentric,4,5.0,30044.0,34055.0,87583.0,90846.0,26920.0,42363.0,38293.0,51397.0,18428.0,14496.0
2026-05-06 16:36:59.697044,938351,1609507683089921,5283000777,0.650016,0.368928,0.528992,1.79375,4.025,-5.87125,-44.760002,-0.544,-62.856003,eccentric,4,5.0,30044.0,34055.0,87583.0,90846.0,26920.0,42363.0,38293.0,51397.0,18428.0,14496.0
2026-05-06 16:36:59.710809,938352,1609507683099337,5283011582,0.648064,0.363072,0.503616,3.15875,3.5175,-6.09,-45.336002,-1.76,-63.000004,eccentric,4,5.0,30044.0,34055.0,87583.0,90846.0,26920.0,42363.0,38293.0,51397.0,18428.0,14496.0
2026-05-06 16:36:59.719560,938353,1609507683108289,5283020339,0.648064,0.363072,0.503616,4.52375,2.0825,-6.62375,-45.336002,-1.76,-63.000004,eccentric,4,5.0,30044.0,34055.0,87583.0,90846.0,26920.0,42363.0,38293.0,51397.0,18428.0,14496.0
2026-05-06 16:36:59.732703,938354,1609507683122798,5283035253,0.64416,0.386496,0.49776,4.305,0.735,-5.9325,-44.552002,1.8,-65.824005,eccentric,4,5.0,30044.0,34055.0,87583.0,90846.0,26920.0,42363.0,38293.0,51397.0,18428.0,14496.0
2026-05-06 16:36:59.741903,938355,1609507683131759,5283044040,0.64416,0.386496,0.49776,2.905,-0.44625,-6.55375,-44.552002,1.8,-65.824005,eccentric,4,5.0,30044.0,34055.0,87583.0,90846.0,26920.0,42363.0,38293.0,51397.0,18428.0,14496.0
2026-05-06 16:36:59.764409,938356,1609507683146278,5283059019,0.622688,0.40992,0.503616,1.155,-0.735,-7.46375,-44.512,1.592,-65.312004,eccentric,4,5.0,30044.0,34055.0,87583.0,90846.0,26920.0,42363.0,38293.0,51397.0,18428.0,14496.0
2026-05-06 16:36:59.792059,938367,1609507683155215,5283067790,0.622688,0.40992,0.534848,0.2975,-0.56875,-8.44375,-44.512,1.592,-65.312004,eccentric,4,5.0,30030.0,34021.0,87599.0,90808.0,26918.0,42359.0,38336.0,51382.0,18432.0,14495.0
2026-05-06 16:36:59.794544,938368,1609507683169786,5283080785,0.630496,0.394304,0.5368,1.4525,-0.13125,-8.84625,-44.432003,1.888,-65.288,eccentric,4,5.0,30030.0,34021.0,87599.0,90808.0,26918.0,42359.0,38336.0,51382.0,18432.0,14495.0
2026-05-06 16:36:59.797053,938369,1609507683179353,5283091647,0.646112,0.392352,0.577792,3.36875,0.245,-8.53125,-44.832,-0.176,-64.296005,eccentric,4,5.0,30030.0,34021.0,87599.0,90808.0,26918.0,42359.0,38336.0,51382.0,18432.0,14495.0
2026-05-06 16:36:59.799627,938370,1609507683188432,5283100419,0.646112,0.392352,0.577792,3.955,1.0675,-8.18125,-44.832,-0.176,-64.296005,eccentric,4,5.0,30030.0,34021.0,87599.0,90808.0,26918.0,42359.0,38336.0,51382.0,18432.0,14495.0
