pc_time,serial_num,sensor_ts,host_ts,ax,ay,az,gx,gy,gz,mx,my,mz,phase,rpe,weight_kg,ppg_a,ppg_b,ppg_c,ppg_d,ppg_e,ppg_f,ppg_g,ppg_h,ppg_i,ppg_j
2026-05-06 15:55:23.621286,468659,1609505187085694,2786998126,-1.079456,0.212768,0.144448,-0.25375,-2.02125,22.522501,16.752,-53.760002,-63.536003,concentric,4,5.0,22441.0,29270.0,58065.0,76939.0,21408.0,37641.0,23238.0,43834.0,14902.0,11880.0
2026-05-06 15:55:23.624934,468660,1609505187094712,2787006924,-1.079456,0.212768,0.144448,0.23625,-2.94875,21.0,16.752,-53.760002,-63.536003,concentric,4,5.0,22441.0,29270.0,58065.0,76939.0,21408.0,37641.0,23238.0,43834.0,14902.0,11880.0
2026-05-06 15:55:23.626121,468661,1609505187103709,2787015673,-1.079456,0.238144,0.152256,0.77875,-2.70375,20.2475,16.240002,-55.928,-62.552002,concentric,4,5.0,22441.0,29270.0,58065.0,76939.0,21408.0,37641.0,23238.0,43834.0,14902.0,11880.0
2026-05-06 15:55:23.628767,468662,1609505187118349,2787030620,-1.079456,0.238144,0.152256,2.19625,-2.5025,19.18,16.240002,-55.928,-62.552002,concentric,4,5.0,22441.0,29270.0,58065.0,76939.0,21408.0,37641.0,23238.0,43834.0,14902.0,11880.0
2026-05-06 15:55:23.637574,468663,1609505187127334,2787039379,-1.0736,0.257664,0.113216,1.95125,-2.23125,17.535,16.08,-56.04,-62.768,concentric,4,5.0,22441.0,29270.0,58065.0,76939.0,21408.0,37641.0,23238.0,43834.0,14902.0,11880.0
2026-05-06 15:55:23.671443,468664,1609505187141974,2787054333,-1.087264,0.216672,0.109312,0.69125,-2.2225,14.90125,15.824,-54.256004,-64.48801,concentric,4,5.0,22441.0,29270.0,58065.0,76939.0,21408.0,37641.0,23238.0,43834.0,14902.0,11880.0
2026-05-06 15:55:23.676359,468665,1609505187150904,2787063149,-1.087264,0.216672,0.109312,-1.82875,-2.065,10.87625,15.824,-54.256004,-64.48801,concentric,4,5.0,22441.0,29270.0,58065.0,76939.0,21408.0,37641.0,23238.0,43834.0,14902.0,11880.0
2026-05-06 15:55:23.678690,468666,1609505187165382,2787078103,-1.110688,0.183488,0.076128,-4.62,-3.0275,8.5925,15.760001,-53.792004,-63.648003,concentric,4,5.0,22441.0,29270.0,58065.0,76939.0,21408.0,37641.0,23238.0,43834.0,14902.0,11880.0
2026-05-06 15:55:23.687900,468667,1609505187174296,2787086849,-1.110688,0.183488,0.076128,-4.6025,-2.84375,8.715,15.760001,-53.792004,-63.648003,concentric,4,5.0,22441.0,29270.0,58065.0,76939.0,21408.0,37641.0,23238.0,43834.0,14902.0,11880.0
2026-05-06 15:55:23.714983,468678,1609505187183464,2787095667,-1.0736,0.220576,0.105408,-1.84625,-3.1675,9.2225,15.328001,-54.56,-63.592003,concentric,4,5.0,22510.0,29313.0,58049.0,77110.0,21479.0,37733.0,23198.0,43921.0,14945.0,11922.0
2026-05-06 15:55:23.721848,468679,1609505187198051,2787110612,-1.0736,0.220576,0.105408,1.47875,-2.135,8.435,15.328001,-54.56,-63.592003,concentric,4,5.0,22510.0,29313.0,58049.0,77110.0,21479.0,37733.0,23198.0,43921.0,14945.0,11922.0
2026-05-06 15:55:23.721992,468680,1609505187207080,2787119345,-1.118496,0.271328,0.091744,2.03875,-0.93625,6.64125,14.912001,-57.056004,-61.160004,concentric,4,5.0,22510.0,29313.0,58049.0,77110.0,21479.0,37733.0,23198.0,43921.0,14945.0,11922.0
2026-05-06 15:55:23.733791,468681,1609505187221620,2787134286,-1.116544,0.242048,0.095648,-0.48125,0.4725,3.78,15.032001,-55.552002,-61.952003,concentric,4,5.0,22510.0,29313.0,58049.0,77110.0,21479.0,37733.0,23198.0,43921.0,14945.0,11922.0
2026-05-06 15:55:23.740081,468682,1609505187230567,2787143005,-1.116544,0.242048,0.095648,-4.725,1.04125,0.8225,15.032001,-55.552002,-61.952003,concentric,4,5.0,22510.0,29313.0,58049.0,77110.0,21479.0,37733.0,23198.0,43921.0,14945.0,11922.0
2026-05-06 15:55:23.748712,468683,1609505187239513,2787151769,-1.116544,0.242048,0.095648,-8.32125,0.49,-1.505,15.032001,-55.552002,-61.952003,concentric,4,5.0,22510.0,29313.0,58049.0,77110.0,21479.0,37733.0,23198.0,43921.0,14945.0,11922.0
2026-05-06 15:55:23.782660,468684,1609505187254091,2787166736,-1.081408,0.203008,0.130784,-9.205,-0.0175,-2.3975,15.576001,-54.440002,-63.552002,concentric,4,5.0,22510.0,29313.0,58049.0,77110.0,21479.0,37733.0,23198.0,43921.0,14945.0,11922.0
2026-05-06 15:55:23.785027,468685,1609505187263090,2787175425,-1.098976,0.228384,0.085888,-5.705,0.5075,-2.66875,15.256001,-54.440002,-64.456,concentric,4,5.0,22510.0,29313.0,58049.0,77110.0,21479.0,37733.0,23198.0,43921.0,14945.0,11922.0
2026-05-06 15:55:23.787422,468686,1609505187277584,2787188361,-1.098976,0.228384,0.085888,-1.33,1.72375,-2.52875,15.256001,-54.440002,-64.456,concentric,4,5.0,22510.0,29313.0,58049.0,77110.0,21479.0,37733.0,23198.0,43921.0,14945.0,11922.0
2026-05-06 15:55:23.815051,468697,1609505187286892,2787199267,-1.08336,0.22448,0.124928,2.1,2.7825,-4.41875,15.608001,-56.08,-62.296,concentric,4,5.0,22564.0,29326.0,57964.0,77268.0,21521.0,37800.0,23205.0,43997.0,14976.0,11950.0
2026-05-06 15:55:23.817780,468698,1609505187301504,2787212267,-1.126304,0.257664,0.052704,0.6475,3.29,-5.32875,15.608001,-56.08,-65.176,concentric,4,5.0,22564.0,29326.0,57964.0,77268.0,21521.0,37800.0,23205.0,43997.0,14976.0,11950.0
2026-05-06 15:55:23.819756,468699,1609505187310706,2787223085,-1.126304,0.257664,0.052704,-1.09375,3.01,-5.145,15.240001,-55.672,-65.176,concentric,4,5.0,22564.0,29326.0,57964.0,77268.0,21521.0,37800.0,23205.0,43997.0,14976.0,11950.0
2026-05-06 15:55:23.880239,468700,1609505187319654,2787231816,-1.126304,0.257664,0.052704,0.5075,2.065,-6.51,15.240001,-55.672,-65.176,concentric,4,5.0,22564.0,29326.0,57964.0,77268.0,21521.0,37800.0,23205.0,43997.0,14976.0,11950.0
2026-05-06 15:55:23.904991,468701,1609505187334204,2787246744,-1.091168,0.238144,0.115168,1.75,1.37375,-8.7675,15.816001,-54.480003,-64.0,concentric,4,5.0,22564.0,29326.0,57964.0,77268.0,21521.0,37800.0,23205.0,43997.0,14976.0,11950.0
2026-05-06 15:55:23.928757,468702,1609505187343189,2787255454,-1.097024,0.314272,0.130784,0.56875,0.79625,-9.17,15.992001,-53.824,-65.864006,concentric,4,5.0,22564.0,29326.0,57964.0,77268.0,21521.0,37800.0,23205.0,43997.0,14976.0,11950.0
2026-05-06 15:55:23.943808,468703,1609505187357680,2787270386,-1.097024,0.314272,0.130784,0.48125,3.0975,-9.7825,15.992001,-53.824,-65.864006,concentric,4,5.0,22564.0,29326.0,57964.0,77268.0,21521.0,37800.0,23205.0,43997.0,14976.0,11950.0
2026-05-06 15:55:23.948914,468704,1609505187366592,2787279068,-1.124352,0.325984,0.115168,-0.34125,5.39875,-13.2825,16.68,-53.976,-63.952003,concentric,4,5.0,22564.0,29326.0,57964.0,77268.0,21521.0,37800.0,23205.0,43997.0,14976.0,11950.0
2026-05-06 15:55:23.951472,468705,1609505187375509,2787287775,-1.124352,0.325984,0.115168,-2.6075,6.9475,-18.03375,16.68,-53.976,-63.952003,concentric,4,5.0,22564.0,29326.0,57964.0,77268.0,21521.0,37800.0,23205.0,43997.0,14976.0,11950.0
2026-05-06 15:55:23.985269,468716,1609505187390082,2787302833,-1.124352,0.247904,0.140544,-7.105,6.5625,-22.12,16.976002,-54.064003,-64.056,concentric,4,5.0,22538.0,29281.0,57879.0,77519.0,21514.0,37815.0,23169.0,44125.0,14966.0,11953.0
2026-05-06 15:55:23.987759,468717,1609505187399054,2787311553,-1.124352,0.247904,0.140544,-10.36875,6.30875,-23.93125,16.976002,-54.064003,-64.056,concentric,4,5.0,22538.0,29281.0,57879.0,77519.0,21514.0,37815.0,23169.0,44125.0,14966.0,11953.0
2026-05-06 15:55:23.992286,468718,1609505187413539,2787324402,-1.134112,0.249856,0.128832,-7.4725,5.78375,-22.46125,17.616001,-53.456,-64.16,concentric,4,5.0,22538.0,29281.0,57879.0,77519.0,21514.0,37815.0,23169.0,44125.0,14966.0,11953.0
2026-05-06 15:55:23.992402,468719,1609505187422851,2787335164,-1.128256,0.2928,0.12688,-4.03375,6.2825,-21.16625,17.824001,-53.496002,-62.536003,concentric,4,5.0,22538.0,29281.0,57879.0,77519.0,21514.0,37815.0,23169.0,44125.0,14966.0,11953.0
2026-05-06 15:55:23.996269,468720,1609505187437351,2787348105,-1.128256,0.2928,0.12688,-1.785,8.53125,-21.00875,17.824001,-53.496002,-62.536003,concentric,4,5.0,22538.0,29281.0,57879.0,77519.0,21514.0,37815.0,23169.0,44125.0,14966.0,11953.0
2026-05-06 15:55:23.999070,468721,1609505187446569,2787358886,-1.104832,0.310368,0.142496,-1.435,9.44125,-22.365,18.184,-54.792004,-63.160004,concentric,4,5.0,22538.0,29281.0,57879.0,77519.0,21514.0,37815.0,23169.0,44125.0,14966.0,11953.0
2026-05-06 15:55:23.999883,468722,1609505187455474,2787367680,-1.104832,0.310368,0.142496,-1.60125,11.2175,-24.36875,18.184,-54.792004,-63.160004,concentric,4,5.0,22538.0,29281.0,57879.0,77519.0,21514.0,37815.0,23169.0,44125.0,14966.0,11953.0
2026-05-06 15:55:24.002387,468723,1609505187469978,2787382628,-1.124352,0.2928,0.158112,-5.39875,10.94625,-26.495,19.056002,-54.872,-63.816,concentric,4,5.0,22538.0,29281.0,57879.0,77519.0,21514.0,37815.0,23169.0,44125.0,14966.0,11953.0
2026-05-06 15:55:24.005084,468724,1609505187478948,2787391352,-1.124352,0.2928,0.158112,-9.17875,9.47625,-27.317501,19.056002,-54.872,-63.816,concentric,4,5.0,22538.0,29281.0,57879.0,77519.0,21514.0,37815.0,23169.0,44125.0,14966.0,11953.0
2026-05-06 15:55:24.035289,468735,1609505187493754,2787406321,-1.114592,0.304512,0.183488,-10.99875,9.59,-27.23875,19.488,-54.864002,-63.216003,concentric,4,5.0,22722.0,29232.0,57394.0,78059.0,21678.0,37822.0,22961.0,44448.0,15075.0,11967.0
2026-05-06 15:55:24.037819,468736,1609505187502864,2787415129,-1.114592,0.296704,0.074176,-10.63125,10.85,-27.13375,19.488,-54.864002,-60.752003,concentric,4,5.0,22722.0,29232.0,57394.0,78059.0,21678.0,37822.0,22961.0,44448.0,15075.0,11967.0
2026-05-06 15:55:24.040238,468737,1609505187511892,2787423915,-1.091168,0.296704,0.074176,-6.78125,12.6875,-29.067501,20.272001,-54.208004,-60.752003,concentric,4,5.0,22722.0,29232.0,57394.0,78059.0,21678.0,37822.0,22961.0,44448.0,15075.0,11967.0
2026-05-06 15:55:24.042649,468738,1609505187526433,2787438861,-1.130208,0.324032,0.171776,-4.57625,15.505,-31.14125,20.328001,-53.888004,-62.568005,concentric,4,5.0,22722.0,29232.0,57394.0,78059.0,21678.0,37822.0,22961.0,44448.0,15075.0,11967.0
2026-05-06 15:55:24.045396,468739,1609505187535392,2787447581,-1.130208,0.324032,0.171776,-6.825,17.1325,-33.075,20.328001,-53.888004,-62.568005,concentric,4,5.0,22722.0,29232.0,57394.0,78059.0,21678.0,37822.0,22961.0,44448.0,15075.0,11967.0
2026-05-06 15:55:24.078961,468740,1609505187549897,2787462541,-1.149728,0.3416,0.072224,-11.025,16.905,-33.50375,21.136002,-55.088,-62.288002,concentric,4,5.0,22722.0,29232.0,57394.0,78059.0,21678.0,37822.0,22961.0,44448.0,15075.0,11967.0
2026-05-06 15:55:24.081459,468741,1609505187558932,2787471247,-1.149728,0.3416,0.072224,-17.15875,15.95125,-32.62,21.136002,-55.088,-62.288002,concentric,4,5.0,22722.0,29232.0,57394.0,78059.0,21678.0,37822.0,22961.0,44448.0,15075.0,11967.0
2026-05-06 15:55:24.086299,468742,1609505187567851,2787479960,-1.165344,0.267424,-0.001952,-23.03,11.78625,-33.57375,22.096,-51.688004,-64.44,concentric,4,5.0,22722.0,29232.0,57394.0,78059.0,21678.0,37822.0,22961.0,44448.0,15075.0,11967.0
2026-05-06 15:55:24.118917,468754,1609505187582951,2787494997,-1.165344,0.267424,-0.001952,-23.19625,10.64875,-35.857502,22.096,-51.688004,-64.44,concentric,4,5.0,23199.0,29303.0,56382.0,79020.0,22122.0,37890.0,22471.0,44951.0,15287.0,11997.0
2026-05-06 15:55:24.121473,468755,1609505187592176,2787503851,-1.218048,0.245952,0.111264,-18.43625,9.28375,-36.2075,22.376001,-51.088,-64.744,concentric,4,5.0,23199.0,29303.0,56382.0,79020.0,22122.0,37890.0,22471.0,44951.0,15287.0,11997.0
2026-05-06 15:55:24.124027,468756,1609505187606714,2787518872,-1.247328,0.306464,0.216672,-8.91625,10.5875,-35.175,23.36,-50.496002,-63.848003,concentric,4,5.0,23199.0,29303.0,56382.0,79020.0,22122.0,37890.0,22471.0,44951.0,15287.0,11997.0
2026-05-06 15:55:24.126268,468757,1609505187615647,2787527574,-1.247328,0.306464,0.216672,-2.12625,11.36625,-33.43375,23.36,-50.496002,-63.848003,concentric,4,5.0,23199.0,29303.0,56382.0,79020.0,22122.0,37890.0,22471.0,44951.0,15287.0,11997.0
2026-05-06 15:55:24.135303,468758,1609505187624654,2787536370,-1.184864,0.35136,0.003904,-5.39875,12.92375,-31.9025,23.488,-52.08,-64.936005,concentric,4,5.0,23199.0,29303.0,56382.0,79020.0,22122.0,37890.0,22471.0,44951.0,15287.0,11997.0
2026-05-06 15:55:24.149001,468759,1609505187639186,2787551402,-1.184864,0.35136,0.003904,-13.50125,11.71625,-30.817501,23.488,-52.08,-64.936005,concentric,4,5.0,23199.0,29303.0,56382.0,79020.0,22122.0,37890.0,22471.0,44951.0,15287.0,11997.0
2026-05-06 15:55:24.157770,468760,1609505187648119,2787560159,-1.196576,0.27328,0.001952,-25.165,7.9625,-34.13375,24.608002,-50.208004,-64.43201,concentric,4,5.0,23199.0,29303.0,56382.0,79020.0,22122.0,37890.0,22471.0,44951.0,15287.0,11997.0
2026-05-06 15:55:24.191448,468761,1609505187662658,2787575056,-1.196576,0.27328,0.001952,-25.33125,6.55375,-37.5375,24.608002,-50.208004,-64.43201,concentric,4,5.0,23199.0,29303.0,56382.0,79020.0,22122.0,37890.0,22471.0,44951.0,15287.0,11997.0
2026-05-06 15:55:24.193727,468762,1609505187671797,2787583819,-1.19072,0.245952,0.130784,-16.10875,5.985,-39.4625,24.968,-49.344,-66.976006,concentric,4,5.0,23199.0,29303.0,56382.0,79020.0,22122.0,37890.0,22471.0,44951.0,15287.0,11997.0
2026-05-06 15:55:24.272675,468773,1609505187686490,2787598796,-1.138016,0.363072,0.203008,-8.35625,6.27375,-39.138752,26.168001,-49.56,-64.424,concentric,4,5.0,23095.0,29030.0,55999.0,79055.0,22015.0,37604.0,22326.0,44942.0,15225.0,11849.0
2026-05-06 15:55:24.278850,468774,1609505187695539,2787607599,-1.138016,0.363072,0.203008,-2.65125,7.98,-36.74125,26.168001,-49.56,-64.424,concentric,4,5.0,23095.0,29030.0,55999.0,79055.0,22015.0,37604.0,22326.0,44942.0,15225.0,11849.0
2026-05-06 15:55:24.279416,468775,1609505187704502,2787616340,-1.075552,0.33184,0.042944,-5.48625,8.32125,-37.0475,26.168001,-47.512,-65.16,concentric,4,5.0,23095.0,29030.0,55999.0,79055.0,22015.0,37604.0,22326.0,44942.0,15225.0,11849.0
2026-05-06 15:55:24.279842,468776,1609505187719068,2787631252,-1.075552,0.33184,0.042944,-13.658751,6.06375,-40.1275,26.416,-48.624,-65.16,concentric,4,5.0,23095.0,29030.0,55999.0,79055.0,22015.0,37604.0,22326.0,44942.0,15225.0,11849.0
2026-05-06 15:55:24.282453,468777,1609505187728104,2787639980,-1.120448,0.236192,0.040992,-19.60875,2.2225,-44.66875,27.032001,-48.568,-64.568,concentric,4,5.0,23095.0,29030.0,55999.0,79055.0,22015.0,37604.0,22326.0,44942.0,15225.0,11849.0
2026-05-06 15:55:24.284958,468778,1609505187742753,2787654992,-1.120448,0.236192,0.040992,-18.3575,-1.21625,-46.62,27.032001,-48.568,-64.568,concentric,4,5.0,23095.0,29030.0,55999.0,79055.0,22015.0,37604.0,22326.0,44942.0,15225.0,11849.0
2026-05-06 15:55:24.289726,468779,1609505187751843,2787663742,-1.110688,0.27328,0.070272,-11.85625,-2.905,-43.9425,27.336,-51.384003,-62.064003,concentric,4,5.0,23095.0,29030.0,55999.0,79055.0,22015.0,37604.0,22326.0,44942.0,15225.0,11849.0
2026-05-06 15:55:24.289828,468780,1609505187760853,2787672498,-1.110688,0.27328,0.070272,-5.53875,-0.84875,-40.11,27.336,-51.384003,-62.064003,concentric,4,5.0,23095.0,29030.0,55999.0,79055.0,22015.0,37604.0,22326.0,44942.0,15225.0,11849.0
2026-05-06 15:55:24.292457,468781,1609505187775454,2787687437,-1.013088,0.386496,0.249856,-5.38125,2.19625,-39.36625,28.320002,-47.688004,-64.688,concentric,4,5.0,23095.0,29030.0,55999.0,79055.0,22015.0,37604.0,22326.0,44942.0,15225.0,11849.0
2026-05-06 15:55:24.323976,468792,1609505187785151,2787696262,-1.013088,0.386496,0.15616,-8.6625,7.41125,-44.33625,28.320002,-47.688004,-64.08,concentric,4,5.0,23106.0,29042.0,56529.0,78872.0,22015.0,37733.0,22545.0,44863.0,15247.0,11931.0
2026-05-06 15:55:24.326299,468793,1609505187794677,2787707144,-1.040416,0.363072,0.15616,-18.27,12.10125,-50.8025,29.304,-48.112003,-64.08,concentric,4,5.0,23106.0,29042.0,56529.0,78872.0,22015.0,37733.0,22545.0,44863.0,15247.0,11931.0
2026-05-06 15:55:24.328975,468794,1609505187809258,2787720068,-1.14192,0.249856,-0.037088,-27.9125,14.28,-53.83,29.656002,-47.448,-63.384003,concentric,4,5.0,23106.0,29042.0,56529.0,78872.0,22015.0,37733.0,22545.0,44863.0,15247.0,11931.0
2026-05-06 15:55:24.331466,468795,1609505187818514,2787730860,-1.14192,0.249856,-0.037088,-30.1,10.5875,-56.735,29.656002,-47.448,-63.384003,concentric,4,5.0,23106.0,29042.0,56529.0,78872.0,22015.0,37733.0,22545.0,44863.0,15247.0,11931.0
2026-05-06 15:55:24.345126,468796,1609505187833206,2787745771,-1.130208,0.13664,0.035136,-24.5175,4.97,-57.6625,30.776001,-45.4,-64.64,concentric,4,5.0,23106.0,29042.0,56529.0,78872.0,22015.0,37733.0,22545.0,44863.0,15247.0,11931.0
2026-05-06 15:55:24.351398,468797,1609505187842280,2787754520,-1.130208,0.13664,0.035136,-16.02125,0.4375,-55.405,30.776001,-45.4,-64.64,concentric,4,5.0,23106.0,29042.0,56529.0,78872.0,22015.0,37733.0,22545.0,44863.0,15247.0,11931.0
2026-05-06 15:55:24.365227,468798,1609505187851280,2787763232,-1.085312,0.160064,0.12688,-12.48625,2.345,-51.44125,31.656002,-44.648003,-64.592,concentric,4,5.0,23106.0,29042.0,56529.0,78872.0,22015.0,37733.0,22545.0,44863.0,15247.0,11931.0
2026-05-06 15:55:24.378861,468799,1609505187865791,2787778190,-1.138016,0.279136,0.119072,-8.085,5.41625,-47.355,31.656002,-45.168003,-63.704002,concentric,4,5.0,23106.0,29042.0,56529.0,78872.0,22015.0,37733.0,22545.0,44863.0,15247.0,11931.0
2026-05-06 15:55:24.385086,468800,1609505187874728,2787786921,-1.138016,0.279136,0.119072,-4.165,8.46125,-44.68625,31.744001,-45.168003,-63.704002,concentric,4,5.0,23106.0,29042.0,56529.0,78872.0,22015.0,37733.0,22545.0,44863.0,15247.0,11931.0
2026-05-06 15:55:24.419003,468811,1609505187889383,2787802234,-1.194624,0.27328,0.013664,-5.6,12.74,-44.52875,33.176003,-43.800003,-64.968,concentric,4,5.0,23361.0,29068.0,56161.0,79129.0,22233.0,37766.0,22412.0,45029.0,15380.0,11934.0
2026-05-06 15:55:24.421511,468812,1609505187898383,2787810970,-1.194624,0.27328,0.013664,-14.385,12.8275,-49.02625,33.176003,-43.800003,-64.968,concentric,4,5.0,23361.0,29068.0,56161.0,79129.0,22233.0,37766.0,22412.0,45029.0,15380.0,11934.0
2026-05-06 15:55:24.423989,468813,1609505187913056,2787823889,-1.1712,0.122976,-0.005856,-21.02625,12.59125,-53.725,33.384003,-43.048,-65.12,concentric,4,5.0,23361.0,29068.0,56161.0,79129.0,22233.0,37766.0,22412.0,45029.0,15380.0,11934.0
2026-05-06 15:55:24.435215,468814,1609505187922420,2787834665,-1.1712,0.122976,-0.005856,-25.12125,11.24375,-57.3475,33.384003,-43.048,-65.12,concentric,4,5.0,23361.0,29068.0,56161.0,79129.0,22233.0,37766.0,22412.0,45029.0,15380.0,11934.0
2026-05-06 15:55:24.441566,468815,1609505187931438,2787843389,-1.130208,0.050752,0.083936,-24.87625,9.9575,-56.3675,34.184002,-42.72,-65.288,concentric,4,5.0,23361.0,29068.0,56161.0,79129.0,22233.0,37766.0,22412.0,45029.0,15380.0,11934.0
2026-05-06 15:55:24.457436,468816,1609505187945918,2787858328,-1.130208,0.11712,0.11712,-18.655,11.698751,-51.205,34.184002,-42.72,-65.288,concentric,4,5.0,23361.0,29068.0,56161.0,79129.0,22233.0,37766.0,22412.0,45029.0,15380.0,11934.0
2026-05-06 15:55:24.466731,468817,1609505187954841,2787867079,-1.09312,0.11712,0.11712,-12.18,14.096251,-45.885,34.752003,-41.536003,-66.408005,concentric,4,5.0,23361.0,29068.0,56161.0,79129.0,22233.0,37766.0,22412.0,45029.0,15380.0,11934.0
2026-05-06 15:55:24.480057,468818,1609505187969375,2787882088,-1.079456,0.134688,-0.074176,-6.09,16.66875,-44.485,34.952003,-42.848003,-64.504005,concentric,4,5.0,23361.0,29068.0,56161.0,79129.0,22233.0,37766.0,22412.0,45029.0,15380.0,11934.0
2026-05-06 15:55:24.488849,468819,1609505187978303,2787890816,-1.079456,0.134688,-0.074176,-9.073751,16.63375,-46.4275,34.952003,-42.848003,-64.504005,concentric,4,5.0,23361.0,29068.0,56161.0,79129.0,22233.0,37766.0,22412.0,45029.0,15380.0,11934.0
2026-05-06 15:55:24.520188,468830,1609505187987857,2787899610,-1.030656,0.076128,0.037088,-14.1225,13.9125,-47.46,35.536003,-42.672,-63.856003,concentric,4,5.0,23942.0,29307.0,55928.0,79672.0,22728.0,38017.0,22318.0,45322.0,15719.0,12099.0
2026-05-06 15:55:24.522706,468831,1609505188002491,2787914675,-1.030656,0.076128,0.037088,-15.846251,8.225,-49.595,35.536003,-42.672,-63.856003,concentric,4,5.0,23942.0,29307.0,55928.0,79672.0,22728.0,38017.0,22318.0,45322.0,15719.0,12099.0
2026-05-06 15:55:24.524986,468832,1609505188011498,2787923426,-0.962336,0.066368,0.11712,-12.573751,7.0875,-50.32125,36.192,-39.944,-65.648,concentric,4,5.0,23942.0,29307.0,55928.0,79672.0,22728.0,38017.0,22318.0,45322.0,15719.0,12099.0
2026-05-06 15:55:24.538908,468833,1609505188026044,2787938417,-0.962336,0.066368,0.11712,-4.17375,8.25125,-47.46,36.192,-39.944,-65.648,concentric,4,5.0,23942.0,29307.0,55928.0,79672.0,22728.0,38017.0,22318.0,45322.0,15719.0,12099.0
2026-05-06 15:55:24.566195,468834,1609505188034965,2787947125,-0.976,0.081984,-0.031232,0.7875,10.31625,-45.73625,36.616,-39.88,-62.248,concentric,4,5.0,23942.0,29307.0,55928.0,79672.0,22728.0,38017.0,22318.0,45322.0,15719.0,12099.0
2026-05-06 15:55:24.617705,468835,1609505188043923,2787955896,-0.976,0.081984,-0.031232,-1.02375,8.91625,-46.83875,36.616,-39.88,-62.248,concentric,4,5.0,23942.0,29307.0,55928.0,79672.0,22728.0,38017.0,22318.0,45322.0,15719.0,12099.0
2026-05-06 15:55:24.629022,468836,1609505188058415,2787970827,-0.96624,0.01952,-0.035136,-4.1475,3.99,-49.79625,37.016003,-38.928,-65.856,concentric,4,5.0,23942.0,29307.0,55928.0,79672.0,22728.0,38017.0,22318.0,45322.0,15719.0,12099.0
2026-05-06 15:55:24.631553,468837,1609505188067336,2787979514,-0.8784,-0.01952,0.138592,-7.91,-0.25375,-51.94875,37.016003,-37.960003,-64.96001,concentric,4,5.0,23942.0,29307.0,55928.0,79672.0,22728.0,38017.0,22318.0,45322.0,15719.0,12099.0
2026-05-06 15:55:24.634028,468838,1609505188081818,2787994491,-0.8784,-0.01952,0.138592,-7.21875,-2.28375,-50.1725,37.744003,-37.960003,-64.96001,concentric,4,5.0,23942.0,29307.0,55928.0,79672.0,22728.0,38017.0,22318.0,45322.0,15719.0,12099.0
2026-05-06 15:55:24.661036,468849,1609505188090932,2788003266,-0.935008,0.042944,0.017568,-0.28875,-0.035,-46.165,38.176003,-37.912003,-66.176,concentric,4,5.0,24274.0,29425.0,56311.0,79737.0,23001.0,38203.0,22511.0,45435.0,15871.0,12202.0
2026-05-06 15:55:24.663764,468850,1609505188099985,2788011963,-0.935008,0.042944,0.017568,8.35625,4.9175,-42.77,38.176003,-37.912003,-66.176,concentric,4,5.0,24274.0,29425.0,56311.0,79737.0,23001.0,38203.0,22511.0,45435.0,15871.0,12202.0
2026-05-06 15:55:24.666346,468851,1609505188114679,2788026924,-0.98576,0.042944,-0.183488,14.02625,4.48875,-42.93625,38.808002,-36.968002,-66.336006,concentric,4,5.0,24274.0,29425.0,56311.0,79737.0,23001.0,38203.0,22511.0,45435.0,15871.0,12202.0
2026-05-06 15:55:24.668853,468852,1609505188123729,2788035624,-0.98576,0.042944,-0.183488,10.42125,1.58375,-44.94,38.808002,-36.968002,-66.336006,concentric,4,5.0,24274.0,29425.0,56311.0,79737.0,23001.0,38203.0,22511.0,45435.0,15871.0,12202.0
2026-05-06 15:55:24.671385,468853,1609505188138424,2788050769,-0.915488,-0.07808,0.060512,1.0325,-5.565,-45.6225,38.888,-37.864002,-65.44,concentric,4,5.0,24274.0,29425.0,56311.0,79737.0,23001.0,38203.0,22511.0,45435.0,15871.0,12202.0
2026-05-06 15:55:24.673916,468854,1609505188147488,2788059600,-0.915488,-0.07808,0.154208,-2.8875,-7.23625,-44.94875,38.888,-37.864002,-65.44,concentric,4,5.0,24274.0,29425.0,56311.0,79737.0,23001.0,38203.0,22511.0,45435.0,15871.0,12202.0
2026-05-06 15:55:24.676282,468855,1609505188162046,2788074533,-0.874496,-0.093696,0.154208,4.7425,-4.10375,-39.66375,39.272003,-37.136,-67.928,concentric,4,5.0,24274.0,29425.0,56311.0,79737.0,23001.0,38203.0,22511.0,45435.0,15871.0,12202.0
2026-05-06 15:55:24.682597,468856,1609505188171018,2788083316,-0.974048,0.023424,0.025376,14.3325,0.6125,-33.4425,39.320004,-35.808002,-67.088005,concentric,4,5.0,24274.0,29425.0,56311.0,79737.0,23001.0,38203.0,22511.0,45435.0,15871.0,12202.0
2026-05-06 15:55:24.688883,468857,1609505188180152,2788092060,-0.974048,0.023424,0.025376,21.035,2.415,-29.61875,39.320004,-35.808002,-67.088005,concentric,4,5.0,24274.0,29425.0,56311.0,79737.0,23001.0,38203.0,22511.0,45435.0,15871.0,12202.0
2026-05-06 15:55:24.724029,468868,1609505188194858,2788107139,-0.99552,-0.035136,-0.046848,20.5275,-0.51625,-30.91375,39.576,-34.808002,-67.864006,concentric,4,5.0,24621.0,29677.0,56337.0,79997.0,23315.0,38511.0,22557.0,45592.0,16101.0,12330.0
2026-05-06 15:55:24.726318,468869,1609505188203988,2788115911,-0.99552,-0.035136,-0.046848,10.71875,-3.9375,-32.0775,39.576,-34.808002,-67.864006,concentric,4,5.0,24621.0,29677.0,56337.0,79997.0,23315.0,38511.0,22557.0,45592.0,16101.0,12330.0
2026-05-06 15:55:24.729056,468870,1609505188218507,2788130846,-0.960384,-0.085888,0.089792,3.605,-5.15375,-29.39125,39.976,-34.488003,-67.176,concentric,4,5.0,24621.0,29677.0,56337.0,79997.0,23315.0,38511.0,22557.0,45592.0,16101.0,12330.0
2026-05-06 15:55:24.737759,468871,1609505188227465,2788139604,-0.960384,-0.085888,0.089792,2.52875,-3.255,-25.17375,39.976,-34.488003,-67.176,concentric,4,5.0,24621.0,29677.0,56337.0,79997.0,23315.0,38511.0,22557.0,45592.0,16101.0,12330.0
2026-05-06 15:55:24.746383,468872,1609505188236487,2788148300,-0.895968,-0.070272,0.06832,6.22125,-0.09625,-21.53375,39.928,-34.264,-67.44,concentric,4,5.0,24621.0,29677.0,56337.0,79997.0,23315.0,38511.0,22557.0,45592.0,16101.0,12330.0
2026-05-06 15:55:24.765095,468873,1609505188250993,2788163199,-0.972096,-0.066368,0.042944,7.41125,-2.24,-18.99625,39.976,-33.928,-67.344,concentric,4,5.0,24621.0,29677.0,56337.0,79997.0,23315.0,38511.0,22557.0,45592.0,16101.0,12330.0
2026-05-06 15:55:24.771313,468874,1609505188259940,2788171894,-0.972096,-0.066368,0.042944,9.58125,-1.65375,-21.8575,39.976,-33.928,-67.344,concentric,4,5.0,24621.0,29677.0,56337.0,79997.0,23315.0,38511.0,22557.0,45592.0,16101.0,12330.0
2026-05-06 15:55:24.785182,468875,1609505188274454,2788186893,-0.964288,-0.134688,0.003904,13.85125,-0.00875,-22.295,40.376003,-33.536003,-67.256004,concentric,4,5.0,24621.0,29677.0,56337.0,79997.0,23315.0,38511.0,22557.0,45592.0,16101.0,12330.0
2026-05-06 15:55:24.793827,468876,1609505188283410,2788195628,-0.964288,-0.134688,0.003904,9.073751,-2.80875,-19.285,40.376003,-33.536003,-67.256004,concentric,4,5.0,24621.0,29677.0,56337.0,79997.0,23315.0,38511.0,22557.0,45592.0,16101.0,12330.0
2026-05-06 15:55:24.828056,468887,1609505188292649,2788204688,-0.968192,-0.103456,0.130784,7.91875,-2.205,-14.93625,40.448,-34.976,-66.504005,concentric,4,5.0,25106.0,29819.0,56062.0,80643.0,23716.0,38559.0,22447.0,45925.0,16338.0,12378.0
2026-05-06 15:55:24.829969,468888,1609505188307194,2788219717,-0.968192,-0.103456,0.130784,11.24375,-1.12875,-10.386251,40.448,-34.976,-66.504005,concentric,4,5.0,25106.0,29819.0,56062.0,80643.0,23716.0,38559.0,22447.0,45925.0,16338.0,12378.0
2026-05-06 15:55:24.837147,468889,1609505188316169,2788228427,-0.977952,-0.021472,0.138592,15.88125,2.555,-6.09875,40.52,-35.224003,-64.384,concentric,4,5.0,25106.0,29819.0,56062.0,80643.0,23716.0,38559.0,22447.0,45925.0,16338.0,12378.0
2026-05-06 15:55:24.841001,468890,1609505188330845,2788243327,-0.892064,-0.08784,-0.023424,14.2625,4.7425,-3.57875,40.688004,-33.768,-68.024,concentric,4,5.0,25106.0,29819.0,56062.0,80643.0,23716.0,38559.0,22447.0,45925.0,16338.0,12378.0
2026-05-06 15:55:24.850009,468891,1609505188339769,2788252073,-0.892064,-0.08784,-0.023424,0.0175,4.57625,-5.5475,40.688004,-33.768,-68.024,eccentric,4,5.0,25106.0,29819.0,56062.0,80643.0,23716.0,38559.0,22447.0,45925.0,16338.0,12378.0
2026-05-06 15:55:24.883945,468892,1609505188354312,2788267055,-0.925248,-0.1464,0.081984,-10.77125,1.9775,-8.32125,40.544003,-33.184002,-68.0,eccentric,4,5.0,25106.0,29819.0,56062.0,80643.0,23716.0,38559.0,22447.0,45925.0,16338.0,12378.0
2026-05-06 15:55:24.886496,468893,1609505188363269,2788275753,-0.925248,-0.1464,0.081984,-7.4025,1.7675,-8.53125,40.544003,-33.184002,-68.0,eccentric,4,5.0,25106.0,29819.0,56062.0,80643.0,23716.0,38559.0,22447.0,45925.0,16338.0,12378.0
2026-05-06 15:55:24.888996,468894,1609505188372213,2788284496,-0.948672,-0.130784,0.046848,2.52875,5.04,-6.23875,40.600002,-33.528,-68.152,eccentric,4,5.0,25106.0,29819.0,56062.0,80643.0,23716.0,38559.0,22447.0,45925.0,16338.0,12378.0
2026-05-06 15:55:24.920235,468905,1609505188386924,2788299691,-0.948672,-0.130784,0.046848,6.72,9.02125,-0.04375,40.600002,-33.528,-68.152,eccentric,4,5.0,25205.0,29895.0,56071.0,80719.0,23821.0,38627.0,22496.0,45978.0,16403.0,12435.0
2026-05-06 15:55:24.922715,468906,1609505188396071,2788308487,-0.90768,-0.085888,0.02928,4.15625,8.96875,5.48625,40.328003,-34.288002,-68.36,eccentric,4,5.0,25205.0,29895.0,56071.0,80719.0,23821.0,38627.0,22496.0,45978.0,16403.0,12435.0
2026-05-06 15:55:24.928775,468907,1609505188410673,2788321438,-0.958432,-0.07808,0.03904,-3.71,7.16625,5.7925,40.536003,-33.416,-68.560005,eccentric,4,5.0,25205.0,29895.0,56071.0,80719.0,23821.0,38627.0,22496.0,45978.0,16403.0,12435.0
2026-05-06 15:55:24.929911,468908,1609505188419867,2788332210,-0.958432,-0.07808,0.03904,-3.885,6.4925,3.1325,40.536003,-33.416,-68.560005,eccentric,4,5.0,25205.0,29895.0,56071.0,80719.0,23821.0,38627.0,22496.0,45978.0,16403.0,12435.0
2026-05-06 15:55:24.957523,468909,1609505188428813,2788340983,-0.958432,-0.07808,0.03904,-1.085,4.62,0.0,40.536003,-33.416,-68.560005,eccentric,4,5.0,25205.0,29895.0,56071.0,80719.0,23821.0,38627.0,22496.0,45978.0,16403.0,12435.0
2026-05-06 15:55:24.980199,468910,1609505188443313,2788355891,-0.960384,-0.109312,0.0976,-2.3275,4.90875,2.35375,40.352,-33.248,-69.01601,eccentric,4,5.0,25205.0,29895.0,56071.0,80719.0,23821.0,38627.0,22496.0,45978.0,16403.0,12435.0
2026-05-06 15:55:24.982484,468911,1609505188452220,2788364591,-0.968192,-0.121024,0.027328,-5.74,4.9875,6.685,40.472,-33.248,-68.712006,eccentric,4,5.0,25205.0,29895.0,56071.0,80719.0,23821.0,38627.0,22496.0,45978.0,16403.0,12435.0
2026-05-06 15:55:24.985001,468912,1609505188466772,2788379508,-0.968192,-0.121024,0.027328,-7.4725,6.3,6.85125,40.472,-33.248,-68.712006,eccentric,4,5.0,25205.0,29895.0,56071.0,80719.0,23821.0,38627.0,22496.0,45978.0,16403.0,12435.0
2026-05-06 15:55:24.987563,468913,1609505188475715,2788388291,-0.981856,-0.074176,0.080032,-7.56875,7.51625,6.545,40.072002,-34.0,-68.632,eccentric,4,5.0,25205.0,29895.0,56071.0,80719.0,23821.0,38627.0,22496.0,45978.0,16403.0,12435.0
2026-05-06 15:55:25.021519,468924,1609505188490940,2788403284,-0.997472,-0.074176,-0.017568,-4.94375,9.21375,8.61,40.120003,-34.496002,-68.424,eccentric,4,5.0,25483.0,30087.0,55708.0,81232.0,24066.0,38802.0,22300.0,46238.0,16576.0,12475.0
2026-05-06 15:55:25.024135,468925,1609505188500018,2788412036,-0.997472,-0.074176,-0.017568,-3.675,10.0975,9.5375,40.120003,-34.496002,-68.424,eccentric,4,5.0,25483.0,30087.0,55708.0,81232.0,24066.0,38802.0,22300.0,46238.0,16576.0,12475.0
2026-05-06 15:55:25.028244,468926,1609505188508996,2788420736,-0.997472,-0.074176,-0.017568,-7.21,5.73125,7.5075,40.120003,-34.496002,-68.424,eccentric,4,5.0,25483.0,30087.0,55708.0,81232.0,24066.0,38802.0,22300.0,46238.0,16576.0,12475.0
2026-05-06 15:55:25.034137,468927,1609505188523518,2788435863,-0.929152,-0.134688,0.040992,-14.0,4.3925,8.636251,39.832,-34.16,-68.216,eccentric,4,5.0,25483.0,30087.0,55708.0,81232.0,24066.0,38802.0,22300.0,46238.0,16576.0,12475.0
2026-05-06 15:55:25.041444,468928,1609505188532518,2788444594,-0.968192,-0.103456,0.091744,-15.4525,5.9325,11.7075,39.368,-37.688004,-66.104004,eccentric,4,5.0,25483.0,30087.0,55708.0,81232.0,24066.0,38802.0,22300.0,46238.0,16576.0,12475.0
2026-05-06 15:55:25.074986,468929,1609505188547011,2788459497,-0.968192,-0.103456,0.091744,-8.61,8.155,12.792501,39.368,-37.688004,-66.104004,eccentric,4,5.0,25483.0,30087.0,55708.0,81232.0,24066.0,38802.0,22300.0,46238.0,16576.0,12475.0
2026-05-06 15:55:25.077667,468930,1609505188555964,2788468213,-0.993568,-0.074176,-0.021472,1.28625,9.6775,12.55625,39.640003,-34.624,-68.32,eccentric,4,5.0,25483.0,30087.0,55708.0,81232.0,24066.0,38802.0,22300.0,46238.0,16576.0,12475.0
2026-05-06 15:55:25.080256,468931,1609505188565065,2788477081,-0.993568,-0.074176,-0.021472,3.29875,8.95125,13.9825,39.640003,-34.624,-68.32,eccentric,4,5.0,25483.0,30087.0,55708.0,81232.0,24066.0,38802.0,22300.0,46238.0,16576.0,12475.0
2026-05-06 15:55:25.093766,468932,1609505188579554,2788492039,-0.981856,-0.046848,0.017568,-3.77125,4.50625,17.47375,39.352,-35.024002,-68.448006,eccentric,4,5.0,25483.0,30087.0,55708.0,81232.0,24066.0,38802.0,22300.0,46238.0,16576.0,12475.0
2026-05-06 15:55:25.121729,468943,1609505188589071,2788500848,-0.981856,-0.046848,0.017568,-9.80875,3.08,19.460001,39.352,-35.024002,-68.448006,eccentric,4,5.0,25637.0,30226.0,55366.0,81589.0,24245.0,38946.0,22175.0,46435.0,16656.0,12533.0
2026-05-06 15:55:25.123683,468944,1609505188603809,2788515931,-1.022848,-0.060512,0.08784,-12.74875,4.8125,16.6425,39.176003,-35.84,-66.176,eccentric,4,5.0,25637.0,30226.0,55366.0,81589.0,24245.0,38946.0,22175.0,46435.0,16656.0,12533.0
2026-05-06 15:55:25.127886,468945,1609505188612797,2788524665,-1.048224,-0.023424,0.10736,-10.465,6.9125,14.48125,38.4,-36.984,-67.024,eccentric,4,5.0,25637.0,30226.0,55366.0,81589.0,24245.0,38946.0,22175.0,46435.0,16656.0,12533.0
2026-05-06 15:55:25.133767,468946,1609505188621751,2788533392,-1.048224,-0.023424,0.10736,-3.0275,10.8325,15.60125,38.4,-36.984,-67.024,eccentric,4,5.0,25637.0,30226.0,55366.0,81589.0,24245.0,38946.0,22175.0,46435.0,16656.0,12533.0
2026-05-06 15:55:25.147567,468947,1609505188636279,2788548308,-0.960384,-0.052704,-0.154208,-7.5775,11.515,18.78625,38.544003,-37.52,-66.872,eccentric,4,5.0,25637.0,30226.0,55366.0,81589.0,24245.0,38946.0,22175.0,46435.0,16656.0,12533.0
2026-05-06 15:55:25.153816,468948,1609505188645219,2788557168,-0.960384,-0.052704,-0.154208,-15.98625,10.08875,20.29125,38.544003,-37.52,-66.872,eccentric,4,5.0,25637.0,30226.0,55366.0,81589.0,24245.0,38946.0,22175.0,46435.0,16656.0,12533.0
2026-05-06 15:55:25.192729,468949,1609505188659717,2788572132,-1.067744,-0.072224,0.05856,-25.1125,8.155,17.745,38.464,-37.816,-66.832,eccentric,4,5.0,25637.0,30226.0,55366.0,81589.0,24245.0,38946.0,22175.0,46435.0,16656.0,12533.0
2026-05-06 15:55:25.207785,468950,1609505188668657,2788580821,-1.067744,-0.072224,0.05856,-26.15375,6.04625,15.4,38.464,-37.816,-66.832,eccentric,4,5.0,25637.0,30226.0,55366.0,81589.0,24245.0,38946.0,22175.0,46435.0,16656.0,12533.0
2026-05-06 15:55:25.210238,468951,1609505188677587,2788589551,-1.077504,-0.076128,0.083936,-18.68125,8.2075,16.73875,38.184002,-37.032,-67.968,eccentric,4,5.0,25637.0,30226.0,55366.0,81589.0,24245.0,38946.0,22175.0,46435.0,16656.0,12533.0
2026-05-06 15:55:25.239833,468962,1609505188692387,2788604573,-1.022848,0.025376,0.013664,-17.4825,10.15875,21.34125,38.088,-37.656002,-67.48801,eccentric,4,5.0,25357.0,29878.0,55343.0,81181.0,24016.0,38655.0,22152.0,46267.0,16507.0,12385.0
2026-05-06 15:55:25.242319,468963,1609505188701340,2788613335,-1.022848,0.025376,0.013664,-19.1975,10.99875,26.32,38.088,-37.656002,-67.48801,eccentric,4,5.0,25357.0,29878.0,55343.0,81181.0,24016.0,38655.0,22152.0,46267.0,16507.0,12385.0
2026-05-06 15:55:25.244936,468964,1609505188715851,2788628345,-1.009184,0.013664,-0.07808,-20.85125,11.935,26.3725,37.472,-37.704002,-67.608,eccentric,4,5.0,25357.0,29878.0,55343.0,81181.0,24016.0,38655.0,22152.0,46267.0,16507.0,12385.0
2026-05-06 15:55:25.247354,468965,1609505188724844,2788637100,-1.009184,0.013664,-0.07808,-23.49375,10.22,21.76125,37.472,-37.704002,-67.608,eccentric,4,5.0,25357.0,29878.0,55343.0,81181.0,24016.0,38655.0,22152.0,46267.0,16507.0,12385.0
2026-05-06 15:55:25.250006,468966,1609505188739386,2788652002,-1.018944,-0.099552,-0.111264,-29.88125,6.04625,18.59375,37.72,-37.760002,-66.984,eccentric,4,5.0,25357.0,29878.0,55343.0,81181.0,24016.0,38655.0,22152.0,46267.0,16507.0,12385.0
2026-05-06 15:55:25.258773,468967,1609505188748410,2788660794,-1.018944,-0.099552,-0.111264,-32.34,1.56625,19.18875,37.72,-37.760002,-66.984,eccentric,4,5.0,25357.0,29878.0,55343.0,81181.0,24016.0,38655.0,22152.0,46267.0,16507.0,12385.0
2026-05-06 15:55:25.267747,468968,1609505188757327,2788669509,-1.0248,-0.085888,0.017568,-24.68375,-0.8925,23.835001,37.136,-38.776,-66.616005,eccentric,4,5.0,25357.0,29878.0,55343.0,81181.0,24016.0,38655.0,22152.0,46267.0,16507.0,12385.0
2026-05-06 15:55:25.287780,468969,1609505188771851,2788684430,-1.0248,-0.085888,0.017568,-11.71625,-2.9575,29.18125,37.136,-38.776,-66.616005,eccentric,4,5.0,25357.0,29878.0,55343.0,81181.0,24016.0,38655.0,22152.0,46267.0,16507.0,12385.0
2026-05-06 15:55:25.291535,468970,1609505188780858,2788693157,-1.04432,0.02928,0.017568,1.715,-1.5575,32.66375,36.472,-40.424004,-65.520004,eccentric,4,5.0,25357.0,29878.0,55343.0,81181.0,24016.0,38655.0,22152.0,46267.0,16507.0,12385.0
2026-05-06 15:55:25.380147,468981,1609505188795522,2788708309,-1.018944,0.0976,-0.035136,1.42625,-1.9775,35.638752,36.4,-41.304,-66.16801,eccentric,4,5.0,25389.0,29959.0,55238.0,81250.0,24088.0,38777.0,22118.0,46327.0,16557.0,12421.0
2026-05-06 15:55:25.382692,468982,1609505188804580,2788717073,-1.018944,0.0976,-0.035136,-6.8775,-3.29,35.2975,36.4,-41.304,-66.16801,eccentric,4,5.0,25389.0,29959.0,55238.0,81250.0,24088.0,38777.0,22118.0,46327.0,16557.0,12421.0
2026-05-06 15:55:25.385177,468983,1609505188813562,2788725812,-1.048224,0.066368,-0.046848,-15.785,-4.26125,31.56125,36.120003,-40.032,-65.456,eccentric,4,5.0,25389.0,29959.0,55238.0,81250.0,24088.0,38777.0,22118.0,46327.0,16557.0,12421.0
2026-05-06 15:55:25.387694,468984,1609505188828050,2788740705,-1.048224,0.066368,-0.046848,-19.39,-5.1625,27.895,36.120003,-40.032,-65.456,eccentric,4,5.0,25389.0,29959.0,55238.0,81250.0,24088.0,38777.0,22118.0,46327.0,16557.0,12421.0
2026-05-06 15:55:25.390242,468985,1609505188836955,2788749461,-1.098976,-0.023424,-0.040992,-17.87625,-7.7875,24.4125,35.640003,-41.152,-65.792,eccentric,4,5.0,25389.0,29959.0,55238.0,81250.0,24088.0,38777.0,22118.0,46327.0,16557.0,12421.0
2026-05-06 15:55:25.394204,468986,1609505188851517,2788762318,-1.098976,-0.023424,-0.040992,-17.4825,-10.22875,25.8825,35.640003,-41.152,-65.792,eccentric,4,5.0,25389.0,29959.0,55238.0,81250.0,24088.0,38777.0,22118.0,46327.0,16557.0,12421.0
2026-05-06 15:55:25.394909,468987,1609505188860763,2788773287,-1.085312,0.025376,-0.017568,-15.95125,-11.4275,32.0425,35.088,-41.344,-65.664,eccentric,4,5.0,25389.0,29959.0,55238.0,81250.0,24088.0,38777.0,22118.0,46327.0,16557.0,12421.0
2026-05-06 15:55:25.397450,468988,1609505188875351,2788786272,-1.050176,0.05856,-0.072224,-10.605001,-9.96625,36.54875,34.68,-45.264004,-62.336002,eccentric,4,5.0,25389.0,29959.0,55238.0,81250.0,24088.0,38777.0,22118.0,46327.0,16557.0,12421.0
2026-05-06 15:55:25.400436,468989,1609505188884787,2788797063,-1.050176,0.05856,-0.072224,-6.32625,-9.87875,35.23625,34.68,-45.264004,-62.336002,eccentric,4,5.0,25389.0,29959.0,55238.0,81250.0,24088.0,38777.0,22118.0,46327.0,16557.0,12421.0
2026-05-06 15:55:25.427377,469000,1609505188893969,2788805888,-1.065792,0.05856,0.001952,-4.8475,-11.8125,31.68375,34.216003,-44.168003,-61.416004,eccentric,4,5.0,25517.0,29912.0,54967.0,81360.0,24157.0,38768.0,21960.0,46378.0,16597.0,12410.0
2026-05-06 15:55:25.429902,469001,1609505188908584,2788820788,-1.065792,0.05856,0.001952,0.20125,-15.14625,29.2075,34.216003,-44.168003,-61.416004,eccentric,4,5.0,25517.0,29912.0,54967.0,81360.0,24157.0,38768.0,21960.0,46378.0,16597.0,12410.0
2026-05-06 15:55:25.432385,469002,1609505188917563,2788829679,-1.069696,0.095648,0.040992,2.87,-16.695,30.82625,34.096,-44.640003,-63.56,eccentric,4,5.0,25517.0,29912.0,54967.0,81360.0,24157.0,38768.0,21960.0,46378.0,16597.0,12410.0
2026-05-06 15:55:25.436384,469003,1609505188926524,2788838407,-1.069696,0.095648,0.040992,0.74375,-15.81125,33.81,34.096,-44.640003,-63.56,eccentric,4,5.0,25517.0,29912.0,54967.0,81360.0,24157.0,38768.0,21960.0,46378.0,16597.0,12410.0
2026-05-06 15:55:25.458908,469004,1609505188941004,2788853364,-1.114592,0.138592,-0.0488,-6.99125,-14.245,33.94125,33.480003,-44.288002,-62.864002,eccentric,4,5.0,25517.0,29912.0,54967.0,81360.0,24157.0,38768.0,21960.0,46378.0,16597.0,12410.0
2026-05-06 15:55:25.461491,469005,1609505188949988,2788862117,-1.114592,0.138592,-0.0488,-12.64375,-11.3225,31.64,33.480003,-44.288002,-62.864002,eccentric,4,5.0,25517.0,29912.0,54967.0,81360.0,24157.0,38768.0,21960.0,46378.0,16597.0,12410.0
2026-05-06 15:55:25.475118,469006,1609505188964591,2788877070,-1.177056,0.093696,0.027328,-10.535,-11.865,27.317501,32.784,-44.032,-64.168,eccentric,4,5.0,25517.0,29912.0,54967.0,81360.0,24157.0,38768.0,21960.0,46378.0,16597.0,12410.0
2026-05-06 15:55:25.484003,469007,1609505188973513,2788885794,-1.177056,0.093696,0.05856,-5.66125,-11.795,25.85625,32.784,-44.032,-64.168,eccentric,4,5.0,25517.0,29912.0,54967.0,81360.0,24157.0,38768.0,21960.0,46378.0,16597.0,12410.0
2026-05-06 15:55:25.526293,469018,1609505188988024,2788901028,-1.136064,0.072224,0.05856,-0.41125,-11.64625,28.77,32.832,-44.504,-63.688004,eccentric,4,5.0,25153.0,29488.0,55134.0,80942.0,23832.0,38410.0,22054.0,46174.0,16353.0,12218.0
2026-05-06 15:55:25.528840,469019,1609505188997006,2788907761,-1.036512,0.109312,0.021472,0.37625,-11.795,32.61125,32.368,-45.048,-63.56,eccentric,4,5.0,25153.0,29488.0,55134.0,80942.0,23832.0,38410.0,22054.0,46174.0,16353.0,12218.0
2026-05-06 15:55:25.531232,469020,1609505189006500,2788918709,-1.036512,0.109312,0.021472,0.7875,-8.0325,35.2275,32.368,-45.048,-63.56,eccentric,4,5.0,25153.0,29488.0,55134.0,80942.0,23832.0,38410.0,22054.0,46174.0,16353.0,12218.0
2026-05-06 15:55:25.533841,469021,1609505189021060,2788933708,-1.10288,0.144448,0.011712,-2.72125,-5.55625,34.4225,31.792002,-45.52,-64.832,eccentric,4,5.0,25153.0,29488.0,55134.0,80942.0,23832.0,38410.0,22054.0,46174.0,16353.0,12218.0
2026-05-06 15:55:25.540123,469022,1609505189030080,2788942418,-1.10288,0.144448,0.011712,-3.84125,-3.675,32.27,31.792002,-45.52,-64.832,eccentric,4,5.0,25153.0,29488.0,55134.0,80942.0,23832.0,38410.0,22054.0,46174.0,16353.0,12218.0
2026-05-06 15:55:25.557762,469023,1609505189044712,2788957372,-1.1712,0.181536,-0.013664,0.175,-3.9025,32.165,30.688002,-47.000004,-63.432003,eccentric,4,5.0,25153.0,29488.0,55134.0,80942.0,23832.0,38410.0,22054.0,46174.0,16353.0,12218.0
2026-05-06 15:55:25.563948,469024,1609505189053807,2788966089,-1.1712,0.181536,-0.013664,3.6925,-5.03125,33.64375,30.688002,-47.000004,-63.432003,eccentric,4,5.0,25153.0,29488.0,55134.0,80942.0,23832.0,38410.0,22054.0,46174.0,16353.0,12218.0
2026-05-06 15:55:25.572705,469025,1609505189062872,2788974802,-1.067744,0.20496,0.007808,2.6075,-5.85375,34.41375,30.000002,-46.232002,-62.320004,eccentric,4,5.0,25153.0,29488.0,55134.0,80942.0,23832.0,38410.0,22054.0,46174.0,16353.0,12218.0
2026-05-06 15:55:25.606339,469026,1609505189077365,2788989751,-1.071648,0.199104,0.07808,0.875,-6.37875,33.13625,29.928001,-47.032,-63.192,eccentric,4,5.0,25153.0,29488.0,55134.0,80942.0,23832.0,38410.0,22054.0,46174.0,16353.0,12218.0
2026-05-06 15:55:25.608732,469027,1609505189086282,2788998455,-1.071648,0.199104,0.07808,1.4,-5.565,30.09125,29.928001,-47.032,-63.192,eccentric,4,5.0,25153.0,29488.0,55134.0,80942.0,23832.0,38410.0,22054.0,46174.0,16353.0,12218.0
2026-05-06 15:55:25.636544,469038,1609505189100865,2789013475,-1.15168,0.187392,0.050752,2.59875,-5.075,27.86875,29.632002,-47.488003,-62.928,eccentric,4,5.0,24730.0,29271.0,55306.0,80489.0,23469.0,38173.0,22130.0,45934.0,16142.0,12146.0
2026-05-06 15:55:25.638954,469039,1609505189109957,2789022216,-1.15168,0.187392,0.050752,3.50875,-4.375,28.5425,29.632002,-47.488003,-62.928,eccentric,4,5.0,24730.0,29271.0,55306.0,80489.0,23469.0,38173.0,22130.0,45934.0,16142.0,12146.0
2026-05-06 15:55:25.641553,469040,1609505189124572,2789037253,-1.108736,0.206912,-0.044896,2.00375,-6.88625,30.6425,28.920002,-49.04,-61.440002,eccentric,4,5.0,24730.0,29271.0,55306.0,80489.0,23469.0,38173.0,22130.0,45934.0,16142.0,12146.0
2026-05-06 15:55:25.643804,469041,1609505189133668,2789045978,-1.108736,0.206912,-0.044896,0.1925,-8.575,33.08375,28.920002,-49.04,-61.440002,eccentric,4,5.0,24730.0,29271.0,55306.0,80489.0,23469.0,38173.0,22130.0,45934.0,16142.0,12146.0
2026-05-06 15:55:25.653827,469042,1609505189142670,2789054693,-1.05408,0.210816,0.01952,-0.46375,-9.555,33.31125,28.528002,-47.824,-63.760002,eccentric,4,5.0,24730.0,29271.0,55306.0,80489.0,23469.0,38173.0,22130.0,45934.0,16142.0,12146.0
2026-05-06 15:55:25.692565,469043,1609505189157172,2789069612,-1.19072,0.236192,0.001952,1.18125,-8.7675,31.85875,27.416,-48.456,-62.616,eccentric,4,5.0,24730.0,29271.0,55306.0,80489.0,23469.0,38173.0,22130.0,45934.0,16142.0,12146.0
2026-05-06 15:55:25.717635,469044,1609505189166118,2789078359,-1.19072,0.236192,0.001952,4.48,-7.21,31.2375,27.416,-48.456,-62.616,eccentric,4,5.0,24730.0,29271.0,55306.0,80489.0,23469.0,38173.0,22130.0,45934.0,16142.0,12146.0
2026-05-06 15:55:25.742726,469045,1609505189180616,2789093282,-1.184864,0.257664,0.03904,9.93125,-6.67625,31.911251,27.272001,-48.808002,-62.384003,eccentric,4,5.0,24730.0,29271.0,55306.0,80489.0,23469.0,38173.0,22130.0,45934.0,16142.0,12146.0
2026-05-06 15:55:25.781440,469056,1609505189189609,2789102194,-1.184864,0.257664,0.03904,9.03875,-9.415,33.18875,27.272001,-48.808002,-62.384003,eccentric,4,5.0,24452.0,29133.0,55395.0,80186.0,23180.0,37989.0,22146.0,45755.0,15995.0,12062.0
2026-05-06 15:55:25.784024,469057,1609505189198701,2789111017,-1.056032,0.245952,0.0,5.01375,-11.24375,33.80125,26.264002,-49.696003,-62.416004,eccentric,4,5.0,24452.0,29133.0,55395.0,80186.0,23180.0,37989.0,22146.0,45755.0,15995.0,12062.0
2026-05-06 15:55:25.786752,469058,1609505189213201,2789125972,-1.056032,0.245952,0.0,3.82375,-10.70125,33.5475,26.264002,-49.696003,-62.416004,eccentric,4,5.0,24452.0,29133.0,55395.0,80186.0,23180.0,37989.0,22146.0,45755.0,15995.0,12062.0
2026-05-06 15:55:25.788605,469059,1609505189222124,2789134728,-1.18096,0.245952,-0.005856,2.7125,-12.2325,31.35125,25.648,-51.552002,-61.296,eccentric,4,5.0,24452.0,29133.0,55395.0,80186.0,23180.0,37989.0,22146.0,45755.0,15995.0,12062.0
2026-05-06 15:55:25.791216,469060,1609505189236673,2789147579,-1.22976,0.203008,0.031232,5.08375,-11.655,29.8025,25.232,-49.72,-59.864002,eccentric,4,5.0,24452.0,29133.0,55395.0,80186.0,23180.0,37989.0,22146.0,45755.0,15995.0,12062.0
2026-05-06 15:55:25.793519,469061,1609505189246191,2789158408,-1.22976,0.203008,0.031232,10.64,-10.85875,29.085001,25.232,-49.72,-59.864002,eccentric,4,5.0,24452.0,29133.0,55395.0,80186.0,23180.0,37989.0,22146.0,45755.0,15995.0,12062.0
2026-05-06 15:55:25.796333,469062,1609505189255313,2789167162,-1.22976,0.203008,0.031232,9.33625,-15.47,29.995,25.232,-49.72,-59.864002,eccentric,4,5.0,24452.0,29133.0,55395.0,80186.0,23180.0,37989.0,22146.0,45755.0,15995.0,12062.0
2026-05-06 15:55:25.798501,469063,1609505189269839,2789182115,-1.11264,0.228384,0.111264,10.57,-14.20125,33.64375,24.648,-52.176003,-65.048004,eccentric,4,5.0,24452.0,29133.0,55395.0,80186.0,23180.0,37989.0,22146.0,45755.0,15995.0,12062.0
2026-05-06 15:55:25.801360,469064,1609505189278847,2789190830,-1.095072,0.265472,0.06832,9.6425,-10.07125,34.51875,24.080002,-52.336002,-61.112003,eccentric,4,5.0,24452.0,29133.0,55395.0,80186.0,23180.0,37989.0,22146.0,45755.0,15995.0,12062.0
2026-05-06 15:55:25.856496,469075,1609505189293903,2789205959,-1.095072,0.265472,0.06832,7.9625,-7.2625,31.10625,24.080002,-52.336002,-61.112003,eccentric,4,5.0,24076.0,28963.0,55720.0,79650.0,22849.0,37775.0,22264.0,45440.0,15792.0,11973.0
2026-05-06 15:55:25.861731,469076,1609505189302976,2789214833,-1.149728,0.310368,0.035136,7.1925,-3.89375,27.95625,23.392,-53.056004,-61.016003,eccentric,4,5.0,24076.0,28963.0,55720.0,79650.0,22849.0,37775.0,22264.0,45440.0,15792.0,11973.0
2026-05-06 15:55:25.862135,469077,1609505189312003,2789223577,-1.149728,0.310368,0.035136,3.605,-1.5225,26.27625,23.392,-53.056004,-61.016003,eccentric,4,5.0,24076.0,28963.0,55720.0,79650.0,22849.0,37775.0,22264.0,45440.0,15792.0,11973.0
2026-05-06 15:55:25.863739,469078,1609505189326515,2789238548,-1.138016,0.284992,0.066368,-0.84,-0.53375,24.885,22.960001,-53.168003,-60.792004,eccentric,4,5.0,24076.0,28963.0,55720.0,79650.0,22849.0,37775.0,22264.0,45440.0,15792.0,11973.0
2026-05-06 15:55:25.869532,469079,1609505189335467,2789247252,-1.138016,0.284992,0.066368,-6.0025,-2.21375,22.93375,22.960001,-53.168003,-60.792004,eccentric,4,5.0,24076.0,28963.0,55720.0,79650.0,22849.0,37775.0,22264.0,45440.0,15792.0,11973.0
2026-05-06 15:55:25.871195,469080,1609505189350017,2789262252,-1.100928,0.169824,-0.06832,-10.42125,-2.94,22.12875,22.248001,-51.952003,-59.504,eccentric,4,5.0,24076.0,28963.0,55720.0,79650.0,22849.0,37775.0,22264.0,45440.0,15792.0,11973.0
2026-05-06 15:55:25.873714,469081,1609505189358951,2789270972,-1.18096,0.179584,0.02928,-9.6075,-5.3725,23.10875,21.552002,-55.376003,-58.992004,eccentric,4,5.0,24076.0,28963.0,55720.0,79650.0,22849.0,37775.0,22264.0,45440.0,15792.0,11973.0
2026-05-06 15:55:25.887601,469082,1609505189373468,2789286001,-1.18096,0.179584,0.02928,-0.56,-7.35,25.97875,21.552002,-55.376003,-58.992004,eccentric,4,5.0,24076.0,28963.0,55720.0,79650.0,22849.0,37775.0,22264.0,45440.0,15792.0,11973.0
2026-05-06 15:55:25.893918,469083,1609505189382386,2789294741,-1.163392,0.240096,0.054656,10.45625,-6.27375,29.84625,21.352001,-52.296,-61.696003,eccentric,4,5.0,24076.0,28963.0,55720.0,79650.0,22849.0,37775.0,22264.0,45440.0,15792.0,11973.0
2026-05-06 15:55:25.932599,469094,1609505189391326,2789303502,-1.163392,0.240096,0.054656,13.18625,-6.9825,31.01875,21.352001,-52.296,-61.696003,eccentric,4,5.0,23780.0,28775.0,55849.0,79310.0,22598.0,37589.0,22330.0,45257.0,15620.0,11890.0
2026-05-06 15:55:25.935055,469095,1609505189406046,2789318481,-1.15168,0.30256,0.050752,12.74875,-7.00875,31.75375,20.704,-52.712,-61.408005,eccentric,4,5.0,23780.0,28775.0,55849.0,79310.0,22598.0,37589.0,22330.0,45257.0,15620.0,11890.0
2026-05-06 15:55:25.937541,469096,1609505189415052,2789327211,-1.15168,0.30256,0.050752,10.05375,-6.51875,30.4325,20.704,-52.712,-61.408005,eccentric,4,5.0,23780.0,28775.0,55849.0,79310.0,22598.0,37589.0,22330.0,45257.0,15620.0,11890.0
2026-05-06 15:55:25.939924,469097,1609505189429600,2789342141,-1.186816,0.306464,0.076128,7.6475,-6.895,26.425,19.904001,-53.000004,-60.856003,eccentric,4,5.0,23780.0,28775.0,55849.0,79310.0,22598.0,37589.0,22330.0,45257.0,15620.0,11890.0
2026-05-06 15:55:25.948948,469098,1609505189438559,2789350881,-1.212192,0.238144,0.017568,6.2125,-7.18375,21.866251,19.064001,-54.576004,-60.768,eccentric,4,5.0,23780.0,28775.0,55849.0,79310.0,22598.0,37589.0,22330.0,45257.0,15620.0,11890.0
2026-05-06 15:55:25.972651,469099,1609505189447466,2789359657,-1.212192,0.238144,0.017568,2.4325,-6.7725,19.06625,19.064001,-54.576004,-60.768,eccentric,4,5.0,23780.0,28775.0,55849.0,79310.0,22598.0,37589.0,22330.0,45257.0,15620.0,11890.0
2026-05-06 15:55:25.974870,469100,1609505189461999,2789374589,-1.169248,0.17568,0.03904,0.55125,-6.44,19.3375,18.976002,-53.280003,-61.656002,eccentric,4,5.0,23780.0,28775.0,55849.0,79310.0,22598.0,37589.0,22330.0,45257.0,15620.0,11890.0
2026-05-06 15:55:25.981363,469101,1609505189470932,2789383303,-1.169248,0.17568,0.03904,0.88375,-6.55375,20.43125,18.976002,-53.280003,-61.656002,eccentric,4,5.0,23780.0,28775.0,55849.0,79310.0,22598.0,37589.0,22330.0,45257.0,15620.0,11890.0
2026-05-06 15:55:25.995116,469102,1609505189485451,2789396207,-1.165344,0.220576,0.103456,4.095,-5.495,22.505,18.320002,-53.56,-62.032,eccentric,4,5.0,23780.0,28775.0,55849.0,79310.0,22598.0,37589.0,22330.0,45257.0,15620.0,11890.0
2026-05-06 15:55:26.035061,469113,1609505189495264,2789407163,-1.165344,0.220576,0.103456,8.2775,-4.2875,25.366251,18.320002,-53.56,-62.032,eccentric,4,5.0,23270.0,28489.0,56108.0,78539.0,22147.0,37344.0,22439.0,44822.0,15330.0,11754.0
2026-05-06 15:55:26.061112,469114,1609505189504438,2789415994,-1.153632,0.2928,0.10736,9.59875,-3.64,25.095,17.608002,-54.616,-61.568005,eccentric,4,5.0,23270.0,28489.0,56108.0,78539.0,22147.0,37344.0,22439.0,44822.0,15330.0,11754.0
2026-05-06 15:55:26.085112,469115,1609505189519006,2789430966,-1.169248,0.286944,0.0488,8.9775,-2.625,22.7325,17.504002,-54.376003,-59.656002,eccentric,4,5.0,23270.0,28489.0,56108.0,78539.0,22147.0,37344.0,22439.0,44822.0,15330.0,11754.0
2026-05-06 15:55:26.098886,469116,1609505189527940,2789439702,-1.169248,0.286944,0.0488,7.07,-1.74125,19.7225,17.504002,-54.376003,-59.656002,eccentric,4,5.0,23270.0,28489.0,56108.0,78539.0,22147.0,37344.0,22439.0,44822.0,15330.0,11754.0
2026-05-06 15:55:26.101484,469117,1609505189542446,2789454601,-1.182912,0.189344,0.044896,2.84375,-1.65375,16.4325,17.296001,-54.320004,-61.864002,eccentric,4,5.0,23270.0,28489.0,56108.0,78539.0,22147.0,37344.0,22439.0,44822.0,15330.0,11754.0
2026-05-06 15:55:26.104010,469118,1609505189551411,2789463328,-1.182912,0.189344,0.044896,-0.6125,-2.54625,15.09375,17.296001,-54.320004,-61.864002,eccentric,4,5.0,23270.0,28489.0,56108.0,78539.0,22147.0,37344.0,22439.0,44822.0,15330.0,11754.0
2026-05-06 15:55:26.106456,469119,1609505189566073,2789478278,-1.13216,0.197152,0.095648,-2.87875,-3.12375,16.6425,16.712,-56.048004,-60.696003,eccentric,4,5.0,23270.0,28489.0,56108.0,78539.0,22147.0,37344.0,22439.0,44822.0,15330.0,11754.0
2026-05-06 15:55:26.108927,469120,1609505189574982,2789486974,-1.13216,0.197152,0.095648,-0.6475,-2.4675,20.36125,16.712,-56.048004,-60.696003,eccentric,4,5.0,23270.0,28489.0,56108.0,78539.0,22147.0,37344.0,22439.0,44822.0,15330.0,11754.0
2026-05-06 15:55:26.111500,469121,1609505189583930,2789495724,-1.124352,0.25376,0.062464,3.35125,-0.28,20.27375,16.720001,-54.568,-61.840004,eccentric,4,5.0,23270.0,28489.0,56108.0,78539.0,22147.0,37344.0,22439.0,44822.0,15330.0,11754.0
2026-05-06 15:55:26.141551,469132,1609505189598637,2789511071,-1.124352,0.271328,0.10736,4.34875,1.53125,18.165,16.720001,-54.568,-57.744003,eccentric,4,5.0,22941.0,28346.0,56332.0,78142.0,21841.0,37156.0,22555.0,44589.0,15155.0,11671.0
2026-05-06 15:55:26.143994,469133,1609505189607637,2789519763,-1.128256,0.271328,0.10736,2.1525,2.21375,15.9775,15.976001,-56.344,-59.176003,eccentric,4,5.0,22941.0,28346.0,56332.0,78142.0,21841.0,37156.0,22555.0,44589.0,15155.0,11671.0
2026-05-06 15:55:26.146561,469134,1609505189622329,2789534784,-1.106784,0.240096,0.064416,-2.0125,1.37375,14.49,15.648001,-56.520004,-60.728004,eccentric,4,5.0,22941.0,28346.0,56332.0,78142.0,21841.0,37156.0,22555.0,44589.0,15155.0,11671.0
2026-05-06 15:55:26.148980,469135,1609505189631355,2789543488,-1.106784,0.240096,0.064416,-3.73625,0.20125,12.46875,15.648001,-56.520004,-60.728004,eccentric,4,5.0,22941.0,28346.0,56332.0,78142.0,21841.0,37156.0,22555.0,44589.0,15155.0,11671.0
2026-05-06 15:55:26.151516,469136,1609505189640325,2789552213,-1.089216,0.206912,0.025376,-4.165,-0.595,10.6225,15.448001,-56.472004,-60.704002,eccentric,4,5.0,22941.0,28346.0,56332.0,78142.0,21841.0,37156.0,22555.0,44589.0,15155.0,11671.0
2026-05-06 15:55:26.165237,469137,1609505189654880,2789567252,-1.089216,0.206912,0.025376,-2.5725,-1.785,9.68625,15.448001,-56.472004,-60.704002,eccentric,4,5.0,22941.0,28346.0,56332.0,78142.0,21841.0,37156.0,22555.0,44589.0,15155.0,11671.0
2026-05-06 15:55:26.173873,469138,1609505189663799,2789575982,-1.089216,0.247904,0.076128,-1.33875,-1.47,9.45875,15.248001,-55.184002,-61.800003,eccentric,4,5.0,22941.0,28346.0,56332.0,78142.0,21841.0,37156.0,22555.0,44589.0,15155.0,11671.0
2026-05-06 15:55:26.197738,469139,1609505189678343,2789590909,-1.089216,0.247904,0.076128,1.54875,-0.69125,8.7325,15.248001,-55.184002,-61.800003,eccentric,4,5.0,22941.0,28346.0,56332.0,78142.0,21841.0,37156.0,22555.0,44589.0,15155.0,11671.0
2026-05-06 15:55:26.200177,469140,1609505189687263,2789599608,-1.087264,0.269376,0.074176,3.08,0.14875,6.65875,14.792001,-54.896004,-62.528004,eccentric,4,5.0,22941.0,28346.0,56332.0,78142.0,21841.0,37156.0,22555.0,44589.0,15155.0,11671.0
2026-05-06 15:55:26.229722,469152,1609505189701953,2789612754,-1.0736,0.261568,0.052704,1.05,0.67375,4.62,14.776001,-55.112003,-61.824,eccentric,4,5.0,23101.0,28522.0,56434.0,78211.0,22010.0,37339.0,22594.0,44618.0,15237.0,11774.0
2026-05-06 15:55:26.232235,469153,1609505189711332,2789623598,-1.0736,0.261568,0.052704,-2.0475,0.60375,2.24,14.776001,-55.112003,-61.824,eccentric,4,5.0,23101.0,28522.0,56434.0,78211.0,22010.0,37339.0,22594.0,44618.0,15237.0,11774.0
2026-05-06 15:55:26.234753,469154,1609505189720328,2789632492,-1.065792,0.22448,0.062464,-2.5725,1.05875,0.1575,15.032001,-55.112003,-62.000004,eccentric,4,5.0,23101.0,28522.0,56434.0,78211.0,22010.0,37339.0,22594.0,44618.0,15237.0,11774.0
2026-05-06 15:55:26.248993,469155,1609505189734868,2789647444,-1.065792,0.22448,0.062464,-3.29875,0.49875,-1.75875,15.032001,-55.112003,-62.000004,eccentric,4,5.0,23101.0,28522.0,56434.0,78211.0,22010.0,37339.0,22594.0,44618.0,15237.0,11774.0
2026-05-06 15:55:26.255016,469156,1609505189743853,2789656140,-1.08336,0.238144,0.081984,-4.47125,0.1225,-2.24875,15.160001,-55.000004,-61.760002,eccentric,4,5.0,23101.0,28522.0,56434.0,78211.0,22010.0,37339.0,22594.0,44618.0,15237.0,11774.0
