pc_time,serial_num,sensor_ts,host_ts,ax,ay,az,gx,gy,gz,mx,my,mz,phase,rpe,weight_kg,ppg_a,ppg_b,ppg_c,ppg_d,ppg_e,ppg_f,ppg_g,ppg_h,ppg_i,ppg_j
2026-05-06 15:55:26.276225,469157,1609505189758408,2789671053,-1.08336,0.238144,0.081984,-2.94,0.2975,-2.91375,15.160001,-55.000004,-61.760002,concentric,4,5.0,23101.0,28522.0,56434.0,78211.0,22010.0,37339.0,22594.0,44618.0,15237.0,11774.0
2026-05-06 15:55:26.278633,469158,1609505189767335,2789679756,-1.077504,0.251808,0.03904,-1.68,0.7875,-3.9375,15.224001,-54.864002,-64.032005,concentric,4,5.0,23101.0,28522.0,56434.0,78211.0,22010.0,37339.0,22594.0,44618.0,15237.0,11774.0
2026-05-06 15:55:26.291307,469159,1609505189776361,2789688563,-1.077504,0.251808,0.03904,-0.2275,1.5575,-6.76375,15.224001,-54.864002,-64.032005,concentric,4,5.0,23101.0,28522.0,56434.0,78211.0,22010.0,37339.0,22594.0,44618.0,15237.0,11774.0
2026-05-06 15:55:26.304985,469160,1609505189790903,2789703498,-1.087264,0.238144,0.085888,-0.83125,1.26,-10.01,15.072001,-55.88,-62.096004,concentric,4,5.0,23101.0,28522.0,56434.0,78211.0,22010.0,37339.0,22594.0,44618.0,15237.0,11774.0
2026-05-06 15:55:26.335136,469171,1609505189800015,2789712278,-1.087264,0.222528,0.06832,-1.75875,0.2275,-12.88875,15.072001,-55.88,-62.096004,concentric,4,5.0,23147.0,28527.0,56337.0,78366.0,22053.0,37412.0,22532.0,44692.0,15277.0,11768.0
2026-05-06 15:55:26.337587,469172,1609505189814545,2789727238,-1.095072,0.22448,0.06832,-2.9225,0.37625,-13.55375,15.6,-54.88,-62.416004,concentric,4,5.0,23147.0,28527.0,56337.0,78366.0,22053.0,37412.0,22532.0,44692.0,15277.0,11768.0
2026-05-06 15:55:26.340229,469173,1609505189823523,2789735981,-1.079456,0.26352,0.06832,-4.92625,1.3475,-13.78125,15.816001,-56.320004,-60.624004,concentric,4,5.0,23147.0,28527.0,56337.0,78366.0,22053.0,37412.0,22532.0,44692.0,15277.0,11768.0
2026-05-06 15:55:26.346539,469174,1609505189832559,2789744707,-1.079456,0.26352,0.06832,-5.67,2.45,-14.60375,15.816001,-56.320004,-60.624004,concentric,4,5.0,23147.0,28527.0,56337.0,78366.0,22053.0,37412.0,22532.0,44692.0,15277.0,11768.0
2026-05-06 15:55:26.356464,469175,1609505189847157,2789759688,-1.106784,0.261568,0.011712,-6.7375,3.98125,-17.185,15.68,-57.152004,-60.160004,concentric,4,5.0,23147.0,28527.0,56337.0,78366.0,22053.0,37412.0,22532.0,44692.0,15277.0,11768.0
2026-05-06 15:55:26.370078,469176,1609505189856183,2789768404,-1.106784,0.261568,0.011712,-7.91,4.50625,-20.41375,15.68,-57.152004,-60.160004,concentric,4,5.0,23147.0,28527.0,56337.0,78366.0,22053.0,37412.0,22532.0,44692.0,15277.0,11768.0
2026-05-06 15:55:26.383858,469177,1609505189870695,2789783371,-1.114592,0.230336,0.054656,-8.07625,4.64625,-22.37375,16.328001,-55.520004,-62.224003,concentric,4,5.0,23147.0,28527.0,56337.0,78366.0,22053.0,37412.0,22532.0,44692.0,15277.0,11768.0
2026-05-06 15:55:26.390092,469178,1609505189879654,2789792061,-1.114592,0.230336,0.054656,-7.60375,4.55875,-22.8375,16.328001,-55.520004,-62.224003,concentric,4,5.0,23147.0,28527.0,56337.0,78366.0,22053.0,37412.0,22532.0,44692.0,15277.0,11768.0
2026-05-06 15:55:26.434004,469179,1609505189894156,2789805080,-1.091168,0.230336,0.08784,-7.06125,4.90875,-22.68,16.888,-53.472004,-63.664,concentric,4,5.0,23147.0,28527.0,56337.0,78366.0,22053.0,37412.0,22532.0,44692.0,15277.0,11768.0
2026-05-06 15:55:26.515135,469190,1609505189903530,2789815935,-1.077504,0.242048,0.03904,-7.385,5.4775,-23.1,17.328001,-54.008003,-61.936005,concentric,4,5.0,23115.0,28530.0,56322.0,78470.0,22033.0,37427.0,22544.0,44732.0,15256.0,11772.0
2026-05-06 15:55:26.517617,469191,1609505189912613,2789824708,-1.077504,0.242048,0.03904,-6.29125,6.3525,-24.395,17.328001,-54.008003,-61.936005,concentric,4,5.0,23115.0,28530.0,56322.0,78470.0,22033.0,37427.0,22544.0,44732.0,15256.0,11772.0
2026-05-06 15:55:26.520197,469192,1609505189927247,2789839660,-1.114592,0.232288,0.013664,-3.57875,6.4575,-26.60875,17.952002,-53.808002,-62.200005,concentric,4,5.0,23115.0,28530.0,56322.0,78470.0,22033.0,37427.0,22544.0,44732.0,15256.0,11772.0
2026-05-06 15:55:26.522631,469193,1609505189936191,2789848361,-1.114592,0.232288,0.013664,-2.52,5.8275,-28.09625,17.952002,-53.808002,-62.200005,concentric,4,5.0,23115.0,28530.0,56322.0,78470.0,22033.0,37427.0,22544.0,44732.0,15256.0,11772.0
2026-05-06 15:55:26.525112,469194,1609505189950835,2789863261,-1.120448,0.255712,0.064416,-3.92875,4.92625,-28.945,18.52,-53.464,-62.056004,concentric,4,5.0,23115.0,28530.0,56322.0,78470.0,22033.0,37427.0,22544.0,44732.0,15256.0,11772.0
2026-05-06 15:55:26.527681,469195,1609505189959791,2789872021,-1.120448,0.255712,0.064416,-5.13625,5.13625,-29.82,18.52,-53.464,-62.056004,concentric,4,5.0,23115.0,28530.0,56322.0,78470.0,22033.0,37427.0,22544.0,44732.0,15256.0,11772.0
2026-05-06 15:55:26.530195,469196,1609505189968713,2789880740,-1.1224,0.240096,0.121024,-6.16,5.18,-33.1625,19.112001,-52.736004,-61.520004,concentric,4,5.0,23115.0,28530.0,56322.0,78470.0,22033.0,37427.0,22544.0,44732.0,15256.0,11772.0
2026-05-06 15:55:26.532631,469197,1609505189983220,2789895655,-1.167296,0.197152,0.013664,-5.62625,6.76375,-35.11375,19.848001,-54.496002,-63.376003,concentric,4,5.0,23115.0,28530.0,56322.0,78470.0,22033.0,37427.0,22544.0,44732.0,15256.0,11772.0
2026-05-06 15:55:26.535198,469198,1609505189992141,2789904375,-1.167296,0.197152,0.013664,-3.99875,7.74375,-35.7875,19.848001,-54.496002,-63.376003,concentric,4,5.0,23115.0,28530.0,56322.0,78470.0,22033.0,37427.0,22544.0,44732.0,15256.0,11772.0
2026-05-06 15:55:26.567351,469209,1609505190006969,2789919505,-1.223904,0.181536,0.021472,-2.80875,6.83375,-35.63,20.6,-52.24,-62.136,concentric,4,5.0,23131.0,28476.0,55967.0,78651.0,22049.0,37366.0,22373.0,44849.0,15251.0,11744.0
2026-05-06 15:55:26.570046,469210,1609505190016045,2789928332,-1.223904,0.181536,0.021472,0.27125,6.76375,-34.25625,20.6,-52.24,-62.136,concentric,4,5.0,23131.0,28476.0,55967.0,78651.0,22049.0,37366.0,22373.0,44849.0,15251.0,11744.0
2026-05-06 15:55:26.572576,469211,1609505190025092,2789937080,-1.204384,0.249856,0.12688,1.5575,8.8375,-32.90875,21.36,-52.256004,-62.544003,concentric,4,5.0,23131.0,28476.0,55967.0,78651.0,22049.0,37366.0,22373.0,44849.0,15251.0,11744.0
2026-05-06 15:55:26.574893,469212,1609505190039729,2789952048,-1.204384,0.249856,0.12688,-0.2625,12.25,-32.80375,21.36,-52.256004,-62.544003,concentric,4,5.0,23131.0,28476.0,55967.0,78651.0,22049.0,37366.0,22373.0,44849.0,15251.0,11744.0
2026-05-06 15:55:26.577578,469213,1609505190048645,2789960823,-1.179008,0.288896,0.054656,-6.825,16.42375,-35.30625,21.960001,-51.904003,-63.104004,concentric,4,5.0,23131.0,28476.0,55967.0,78651.0,22049.0,37366.0,22373.0,44849.0,15251.0,11744.0
2026-05-06 15:55:26.580055,469214,1609505190063152,2789975793,-1.260992,0.203008,-0.122976,-10.9725,19.355,-38.47375,22.544,-51.192,-64.144005,concentric,4,5.0,23131.0,28476.0,55967.0,78651.0,22049.0,37366.0,22373.0,44849.0,15251.0,11744.0
2026-05-06 15:55:26.582558,469215,1609505190072159,2789984510,-1.260992,0.203008,-0.122976,-12.9675,18.0075,-42.805,22.544,-51.192,-64.144005,concentric,4,5.0,23131.0,28476.0,55967.0,78651.0,22049.0,37366.0,22373.0,44849.0,15251.0,11744.0
2026-05-06 15:55:26.598877,469216,1609505190086733,2789999440,-1.227808,0.13664,0.005856,-14.34125,16.31875,-45.12375,23.672,-51.768,-61.832005,concentric,4,5.0,23131.0,28476.0,55967.0,78651.0,22049.0,37366.0,22373.0,44849.0,15251.0,11744.0
2026-05-06 15:55:26.637464,469227,1609505190095684,2790008373,-1.227808,0.13664,0.005856,-10.675,12.29375,-44.3275,23.672,-51.768,-61.832005,concentric,4,5.0,23277.0,28450.0,55372.0,79026.0,22150.0,37299.0,22112.0,45002.0,15330.0,11715.0
2026-05-06 15:55:26.645076,469228,1609505190104976,2790017196,-1.15168,0.236192,0.119072,-3.17625,12.74875,-42.46375,24.352001,-50.968002,-63.568005,concentric,4,5.0,23277.0,28450.0,55372.0,79026.0,22150.0,37299.0,22112.0,45002.0,15330.0,11715.0
2026-05-06 15:55:26.647610,469229,1609505190119591,2790032179,-1.15168,0.236192,0.119072,4.06875,16.28375,-40.775,24.352001,-50.968002,-63.568005,concentric,4,5.0,23277.0,28450.0,55372.0,79026.0,22150.0,37299.0,22112.0,45002.0,15330.0,11715.0
2026-05-06 15:55:26.651912,469230,1609505190128523,2790040892,-1.100928,0.35136,0.064416,3.96375,21.27125,-41.04625,24.920002,-51.760002,-62.736004,concentric,4,5.0,23277.0,28450.0,55372.0,79026.0,22150.0,37299.0,22112.0,45002.0,15330.0,11715.0
2026-05-06 15:55:26.653728,469231,1609505190143130,2790055826,-1.167296,0.26352,-0.0976,-2.79125,23.68625,-46.2875,25.944002,-51.656002,-63.328003,concentric,4,5.0,23277.0,28450.0,55372.0,79026.0,22150.0,37299.0,22112.0,45002.0,15330.0,11715.0
2026-05-06 15:55:26.662375,469232,1609505190152107,2790064590,-1.167296,0.26352,-0.0976,-11.55,23.09125,-54.03125,25.944002,-51.656002,-63.328003,concentric,4,5.0,23277.0,28450.0,55372.0,79026.0,22150.0,37299.0,22112.0,45002.0,15330.0,11715.0
2026-05-06 15:55:26.671434,469233,1609505190161061,2790073295,-1.167296,0.26352,-0.0976,-17.12375,19.9675,-59.08,25.944002,-51.656002,-63.328003,concentric,4,5.0,23277.0,28450.0,55372.0,79026.0,22150.0,37299.0,22112.0,45002.0,15330.0,11715.0
2026-05-06 15:55:26.705277,469234,1609505190175623,2790088186,-1.155584,0.138592,-0.027328,-17.63125,15.417501,-60.375,27.256,-50.144,-62.256004,concentric,4,5.0,23277.0,28450.0,55372.0,79026.0,22150.0,37299.0,22112.0,45002.0,15330.0,11715.0
2026-05-06 15:55:26.710271,469235,1609505190184558,2790097066,-1.157536,0.169824,-0.025376,-11.2175,13.13375,-58.31,27.688002,-50.04,-63.344,concentric,4,5.0,23277.0,28450.0,55372.0,79026.0,22150.0,37299.0,22112.0,45002.0,15330.0,11715.0
2026-05-06 15:55:26.740310,469246,1609505190199550,2790110393,-1.157536,0.169824,-0.025376,-0.97125,13.85125,-53.9525,27.688002,-50.04,-63.344,concentric,4,5.0,23866.0,28893.0,55172.0,79636.0,22658.0,37692.0,22041.0,45326.0,15642.0,11900.0
2026-05-06 15:55:26.746467,469247,1609505190208900,2790121299,-1.188768,0.265472,0.01952,7.88375,14.27125,-51.3275,28.416002,-50.632004,-63.384003,concentric,4,5.0,23866.0,28893.0,55172.0,79636.0,22658.0,37692.0,22041.0,45326.0,15642.0,11900.0
2026-05-06 15:55:26.748796,469248,1609505190217914,2790130118,-1.188768,0.265472,0.01952,10.50875,12.45125,-52.96375,28.416002,-50.632004,-63.384003,concentric,4,5.0,23866.0,28893.0,55172.0,79636.0,22658.0,37692.0,22041.0,45326.0,15642.0,11900.0
2026-05-06 15:55:26.753086,469249,1609505190232496,2790145066,-1.18096,0.275232,-0.105408,6.4925,11.90875,-54.83625,29.368002,-49.808002,-63.928,concentric,4,5.0,23866.0,28893.0,55172.0,79636.0,22658.0,37692.0,22041.0,45326.0,15642.0,11900.0
2026-05-06 15:55:26.755909,469250,1609505190241487,2790153840,-1.18096,0.275232,-0.105408,0.48125,14.13125,-55.34375,29.368002,-49.808002,-63.928,concentric,4,5.0,23866.0,28893.0,55172.0,79636.0,22658.0,37692.0,22041.0,45326.0,15642.0,11900.0
2026-05-06 15:55:26.767671,469251,1609505190256023,2790168754,-1.251232,0.210816,-0.128832,-2.2225,15.645,-57.785,30.384,-47.160004,-64.136,concentric,4,5.0,23866.0,28893.0,55172.0,79636.0,22658.0,37692.0,22041.0,45326.0,15642.0,11900.0
2026-05-06 15:55:26.795013,469252,1609505190265123,2790177509,-1.253184,0.119072,0.042944,-3.47375,13.755,-62.01125,31.608002,-45.984,-65.568,concentric,4,5.0,23866.0,28893.0,55172.0,79636.0,22658.0,37692.0,22041.0,45326.0,15642.0,11900.0
2026-05-06 15:55:26.820242,469253,1609505190274025,2790186213,-1.253184,0.119072,0.042944,-2.6775,11.40125,-63.25375,31.608002,-45.984,-65.568,concentric,4,5.0,23866.0,28893.0,55172.0,79636.0,22658.0,37692.0,22041.0,45326.0,15642.0,11900.0
2026-05-06 15:55:26.837542,469254,1609505190288623,2790201106,-1.155584,0.142496,0.101504,-2.59,11.9525,-59.12375,32.048,-44.816,-65.992004,concentric,4,5.0,23866.0,28893.0,55172.0,79636.0,22658.0,37692.0,22041.0,45326.0,15642.0,11900.0
2026-05-06 15:55:26.871515,469265,1609505190297572,2790209820,-1.155584,0.142496,0.101504,-2.31,14.30625,-52.96375,32.048,-44.816,-65.992004,concentric,4,5.0,24678.0,29340.0,54649.0,80726.0,23283.0,38163.0,21794.0,45883.0,16018.0,12158.0
2026-05-06 15:55:26.874012,469266,1609505190312487,2790224878,-1.192672,0.20496,-0.00976,-1.46125,17.92,-50.54875,32.960003,-44.376003,-65.840004,concentric,4,5.0,24678.0,29340.0,54649.0,80726.0,23283.0,38163.0,21794.0,45883.0,16018.0,12158.0
2026-05-06 15:55:26.876498,469267,1609505190321416,2790233584,-1.192672,0.20496,-0.00976,-1.61,19.985,-52.31625,32.960003,-44.376003,-65.840004,concentric,4,5.0,24678.0,29340.0,54649.0,80726.0,23283.0,38163.0,21794.0,45883.0,16018.0,12158.0
2026-05-06 15:55:26.878997,469268,1609505190336082,2790248587,-1.231712,0.15616,-0.167872,-1.6975,19.08375,-56.84,33.552002,-43.512,-66.096,concentric,4,5.0,24678.0,29340.0,54649.0,80726.0,23283.0,38163.0,21794.0,45883.0,16018.0,12158.0
2026-05-06 15:55:26.881517,469269,1609505190345001,2790257371,-1.114592,0.099552,0.031232,-2.52875,15.33,-59.010002,34.248,-45.984,-64.536,concentric,4,5.0,24678.0,29340.0,54649.0,80726.0,23283.0,38163.0,21794.0,45883.0,16018.0,12158.0
2026-05-06 15:55:26.884022,469270,1609505190353943,2790266113,-1.114592,0.099552,0.031232,-3.47375,13.37875,-56.735,34.248,-45.984,-64.536,concentric,4,5.0,24678.0,29340.0,54649.0,80726.0,23283.0,38163.0,21794.0,45883.0,16018.0,12158.0
2026-05-06 15:55:26.886512,469271,1609505190368557,2790281025,-1.098976,0.121024,0.02928,-3.5525,15.1375,-53.82125,34.760002,-46.248,-64.472,concentric,4,5.0,24678.0,29340.0,54649.0,80726.0,23283.0,38163.0,21794.0,45883.0,16018.0,12158.0
2026-05-06 15:55:26.888908,469272,1609505190377625,2790289726,-1.098976,0.121024,0.02928,-4.13875,19.03125,-52.73625,34.760002,-46.248,-64.472,concentric,4,5.0,24678.0,29340.0,54649.0,80726.0,23283.0,38163.0,21794.0,45883.0,16018.0,12158.0
2026-05-06 15:55:26.902690,469273,1609505190392144,2790304649,-1.143872,0.199104,-0.01952,-4.8125,20.78125,-51.5375,35.496002,-43.256,-66.616005,concentric,4,5.0,24678.0,29340.0,54649.0,80726.0,23283.0,38163.0,21794.0,45883.0,16018.0,12158.0
2026-05-06 15:55:26.937718,469284,1609505190401717,2790313639,-1.143872,0.199104,-0.01952,-2.6775,22.3475,-51.73875,35.496002,-43.256,-66.616005,concentric,4,5.0,25104.0,29461.0,54329.0,81266.0,23641.0,38261.0,21662.0,46178.0,16244.0,12191.0
2026-05-06 15:55:26.938994,469285,1609505190410746,2790322377,-1.085312,0.150304,-0.03904,-1.8375,21.39375,-55.09,36.472,-41.064003,-67.384,concentric,4,5.0,25104.0,29461.0,54329.0,81266.0,23641.0,38261.0,21662.0,46178.0,16244.0,12191.0
2026-05-06 15:55:26.941245,469286,1609505190425336,2790337377,-1.013088,0.05856,0.011712,-2.52875,17.7625,-57.225,36.704002,-41.784,-69.80801,concentric,4,5.0,25104.0,29461.0,54329.0,81266.0,23641.0,38261.0,21662.0,46178.0,16244.0,12191.0
2026-05-06 15:55:26.943474,469287,1609505190434267,2790346187,-1.013088,0.05856,0.011712,0.6125,15.8375,-55.8075,36.704002,-41.784,-69.80801,concentric,4,5.0,25104.0,29461.0,54329.0,81266.0,23641.0,38261.0,21662.0,46178.0,16244.0,12191.0
2026-05-06 15:55:26.977604,469288,1609505190448876,2790361101,-1.134112,0.056608,-0.033184,4.0075,14.86625,-51.51125,37.136,-39.648003,-68.69601,concentric,4,5.0,25104.0,29461.0,54329.0,81266.0,23641.0,38261.0,21662.0,46178.0,16244.0,12191.0
2026-05-06 15:55:26.980231,469289,1609505190457974,2790369826,-1.134112,0.056608,-0.033184,8.12875,13.448751,-45.99,37.136,-39.648003,-68.69601,concentric,4,5.0,25104.0,29461.0,54329.0,81266.0,23641.0,38261.0,21662.0,46178.0,16244.0,12191.0
2026-05-06 15:55:26.982752,469290,1609505190466957,2790378529,-1.11264,0.093696,0.044896,8.04125,9.975,-44.93125,37.608,-38.656002,-69.184006,concentric,4,5.0,25104.0,29461.0,54329.0,81266.0,23641.0,38261.0,21662.0,46178.0,16244.0,12191.0
2026-05-06 15:55:26.996503,469291,1609505190481514,2790393440,-1.11264,0.093696,0.044896,6.0025,6.4225,-40.8625,37.608,-38.656002,-69.184006,concentric,4,5.0,25104.0,29461.0,54329.0,81266.0,23641.0,38261.0,21662.0,46178.0,16244.0,12191.0
2026-05-06 15:55:26.998985,469292,1609505190490472,2790402188,-1.022848,0.12688,0.124928,7.70875,5.845,-35.98,38.056004,-38.152,-69.384,concentric,4,5.0,25104.0,29461.0,54329.0,81266.0,23641.0,38261.0,21662.0,46178.0,16244.0,12191.0
2026-05-06 15:55:27.038336,469303,1609505190505116,2790417190,-1.022848,0.12688,-0.031232,2.79125,6.0375,-38.5175,38.056004,-38.152,-69.384,concentric,4,5.0,25383.0,29502.0,54508.0,81513.0,23892.0,38301.0,21769.0,46326.0,16393.0,12205.0
2026-05-06 15:55:27.040689,469304,1609505190514116,2790426021,-0.977952,0.052704,-0.023424,-6.79875,4.94375,-39.45375,37.792004,-40.992,-66.024,concentric,4,5.0,25383.0,29502.0,54508.0,81513.0,23892.0,38301.0,21769.0,46326.0,16393.0,12205.0
2026-05-06 15:55:27.041705,469305,1609505190523089,2790434755,-0.977952,0.052704,-0.023424,-17.36875,-0.4375,-40.013752,37.792004,-40.992,-66.024,concentric,4,5.0,25383.0,29502.0,54508.0,81513.0,23892.0,38301.0,21769.0,46326.0,16393.0,12205.0
2026-05-06 15:55:27.050133,469306,1609505190537801,2790449794,-1.089216,-0.052704,-0.080032,-16.49375,-7.39375,-39.59375,38.416,-37.344,-68.848,concentric,4,5.0,25383.0,29502.0,54508.0,81513.0,23892.0,38301.0,21769.0,46326.0,16393.0,12205.0
2026-05-06 15:55:27.056374,469307,1609505190546893,2790458521,-1.110688,-0.05856,-0.011712,-4.6025,-10.815,-36.225,38.872,-36.824,-69.72,concentric,4,5.0,25383.0,29502.0,54508.0,81513.0,23892.0,38301.0,21769.0,46326.0,16393.0,12205.0
2026-05-06 15:55:27.089903,469308,1609505190561400,2790473442,-1.110688,-0.05856,-0.011712,5.85375,-11.62875,-31.5525,38.872,-36.824,-69.72,concentric,4,5.0,25383.0,29502.0,54508.0,81513.0,23892.0,38301.0,21769.0,46326.0,16393.0,12205.0
2026-05-06 15:55:27.092500,469309,1609505190570366,2790482167,-1.011136,0.056608,0.105408,7.385,-10.85,-26.94125,39.072002,-36.72,-69.288,concentric,4,5.0,25383.0,29502.0,54508.0,81513.0,23892.0,38301.0,21769.0,46326.0,16393.0,12205.0
2026-05-06 15:55:27.094982,469310,1609505190584823,2790497086,-1.011136,0.056608,0.105408,-5.94125,-10.2025,-23.415,39.072002,-36.72,-69.288,concentric,4,5.0,25383.0,29502.0,54508.0,81513.0,23892.0,38301.0,21769.0,46326.0,16393.0,12205.0
2026-05-06 15:55:27.127593,469311,1609505190593762,2790505837,-1.042368,0.044896,-0.210816,-17.15,-13.41375,-24.36,39.072002,-36.24,-69.152,concentric,4,5.0,25383.0,29502.0,54508.0,81513.0,23892.0,38301.0,21769.0,46326.0,16393.0,12205.0
2026-05-06 15:55:27.213824,469322,1609505190603321,2790514979,-1.042368,0.044896,-0.210816,-20.3175,-18.366251,-33.52125,39.072002,-36.24,-69.152,concentric,4,5.0,25180.0,29339.0,54977.0,80806.0,23724.0,38147.0,21961.0,45969.0,16327.0,12170.0
2026-05-06 15:55:27.217909,469323,1609505190617924,2790529999,-0.977952,-0.162016,-0.201056,-22.56625,-22.42625,-40.670002,39.224003,-35.88,-68.28001,concentric,4,5.0,25180.0,29339.0,54977.0,80806.0,23724.0,38147.0,21961.0,45969.0,16327.0,12170.0
2026-05-06 15:55:27.218824,469324,1609505190626934,2790538755,-1.018944,-0.20496,-0.083936,-17.61375,-22.33875,-37.33625,39.936,-35.08,-69.152,concentric,4,5.0,25180.0,29339.0,54977.0,80806.0,23724.0,38147.0,21961.0,45969.0,16327.0,12170.0
2026-05-06 15:55:27.221565,469325,1609505190641482,2790553672,-1.018944,-0.20496,-0.083936,-2.09125,-21.735,-31.272501,39.936,-35.08,-69.152,concentric,4,5.0,25180.0,29339.0,54977.0,80806.0,23724.0,38147.0,21961.0,45969.0,16327.0,12170.0
2026-05-06 15:55:27.223953,469326,1609505190650419,2790562395,-0.962336,-0.130784,-0.017568,17.7275,-20.48375,-26.29375,39.984,-35.424,-68.368004,concentric,4,5.0,25180.0,29339.0,54977.0,80806.0,23724.0,38147.0,21961.0,45969.0,16327.0,12170.0
2026-05-06 15:55:27.228744,469327,1609505190659336,2790571175,-0.962336,-0.130784,-0.017568,21.20125,-21.6125,-22.84625,39.984,-35.424,-68.368004,concentric,4,5.0,25180.0,29339.0,54977.0,80806.0,23724.0,38147.0,21961.0,45969.0,16327.0,12170.0
2026-05-06 15:55:27.231211,469328,1609505190673848,2790586096,-0.977952,0.003904,-0.072224,19.71375,-21.02625,-18.6725,39.952003,-34.984,-68.424,concentric,4,5.0,25180.0,29339.0,54977.0,80806.0,23724.0,38147.0,21961.0,45969.0,16327.0,12170.0
2026-05-06 15:55:27.233591,469329,1609505190682766,2790594796,-0.977952,0.003904,-0.072224,20.9475,-18.3925,-18.4975,39.952003,-34.984,-68.424,concentric,4,5.0,25180.0,29339.0,54977.0,80806.0,23724.0,38147.0,21961.0,45969.0,16327.0,12170.0
2026-05-06 15:55:27.236138,469330,1609505190697295,2790609726,-0.997472,-0.050752,-0.191296,16.7125,-18.34,-23.19625,40.184002,-33.864002,-68.712006,concentric,4,5.0,25180.0,29339.0,54977.0,80806.0,23724.0,38147.0,21961.0,45969.0,16327.0,12170.0
2026-05-06 15:55:27.266432,469341,1609505190706449,2790618605,-0.997472,-0.050752,-0.191296,11.935,-18.2,-28.245,40.184002,-33.864002,-68.712006,concentric,4,5.0,24944.0,29236.0,55057.0,80572.0,23628.0,38118.0,22014.0,45885.0,16245.0,12094.0
2026-05-06 15:55:27.268946,469342,1609505190720972,2790633555,-0.968192,-0.203008,0.001952,5.7225,-19.39875,-31.24625,40.032,-37.04,-66.776,concentric,4,5.0,24944.0,29236.0,55057.0,80572.0,23628.0,38118.0,22014.0,45885.0,16245.0,12094.0
2026-05-06 15:55:27.271464,469343,1609505190729984,2790642290,-0.925248,-0.144448,0.109312,0.105,-18.47125,-29.14625,40.576,-35.056004,-67.328,concentric,4,5.0,24944.0,29236.0,55057.0,80572.0,23628.0,38118.0,22014.0,45885.0,16245.0,12094.0
2026-05-06 15:55:27.273949,469344,1609505190738916,2790651080,-0.925248,-0.144448,0.109312,-0.23625,-15.49625,-19.76625,40.576,-35.056004,-67.328,concentric,4,5.0,24944.0,29236.0,55057.0,80572.0,23628.0,38118.0,22014.0,45885.0,16245.0,12094.0
2026-05-06 15:55:27.276313,469345,1609505190753521,2790666160,-0.915488,-0.044896,-0.20496,4.38375,-13.20375,-12.4425,40.52,-34.928,-67.104004,concentric,4,5.0,24944.0,29236.0,55057.0,80572.0,23628.0,38118.0,22014.0,45885.0,16245.0,12094.0
2026-05-06 15:55:27.278938,469346,1609505190762562,2790674886,-0.915488,-0.044896,-0.20496,7.83125,-11.45375,-13.7725,40.52,-34.928,-67.104004,concentric,4,5.0,24944.0,29236.0,55057.0,80572.0,23628.0,38118.0,22014.0,45885.0,16245.0,12094.0
2026-05-06 15:55:27.292503,469347,1609505190777119,2790689848,-0.948672,-0.122976,0.05856,7.98,-10.01875,-21.93625,40.688004,-34.56,-66.880005,concentric,4,5.0,24944.0,29236.0,55057.0,80572.0,23628.0,38118.0,22014.0,45885.0,16245.0,12094.0
2026-05-06 15:55:27.295225,469348,1609505190786075,2790698652,-0.948672,-0.122976,0.05856,3.21125,-8.085,-27.536251,40.688004,-34.56,-66.880005,concentric,4,5.0,24944.0,29236.0,55057.0,80572.0,23628.0,38118.0,22014.0,45885.0,16245.0,12094.0
2026-05-06 15:55:27.312240,469349,1609505190795072,2790707354,-0.931104,-0.144448,0.128832,-3.6925,-4.935,-25.366251,40.712,-32.432003,-67.504005,concentric,4,5.0,24944.0,29236.0,55057.0,80572.0,23628.0,38118.0,22014.0,45885.0,16245.0,12094.0
2026-05-06 15:55:27.340152,469360,1609505190810175,2790722396,-0.872544,-0.091744,-0.076128,-4.2875,-2.59875,-17.6225,40.984,-32.544003,-68.152,concentric,4,5.0,24684.0,29025.0,55232.0,80273.0,23455.0,37868.0,22090.0,45751.0,16123.0,11965.0
2026-05-06 15:55:27.342418,469361,1609505190819098,2790731130,-0.872544,-0.091744,-0.076128,-3.22,0.53375,-10.5175,40.984,-32.544003,-68.152,concentric,4,5.0,24684.0,29025.0,55232.0,80273.0,23455.0,37868.0,22090.0,45751.0,16123.0,11965.0
2026-05-06 15:55:27.345129,469362,1609505190833790,2790746160,-0.96624,-0.080032,-0.060512,-5.81875,0.97125,-14.595,40.864002,-34.704002,-66.16,concentric,4,5.0,24684.0,29025.0,55232.0,80273.0,23455.0,37868.0,22090.0,45751.0,16123.0,11965.0
2026-05-06 15:55:27.353882,469363,1609505190842758,2790754888,-0.96624,-0.080032,-0.060512,-1.72375,1.07625,-21.07,40.864002,-34.704002,-66.16,concentric,4,5.0,24684.0,29025.0,55232.0,80273.0,23455.0,37868.0,22090.0,45751.0,16123.0,11965.0
2026-05-06 15:55:27.360088,469364,1609505190851720,2790763626,-0.958432,-0.072224,0.0488,-3.6225,3.6925,-18.19125,41.296,-32.424,-68.48,concentric,4,5.0,24684.0,29025.0,55232.0,80273.0,23455.0,37868.0,22090.0,45751.0,16123.0,11965.0
2026-05-06 15:55:27.393666,469365,1609505190866205,2790778576,-0.958432,-0.072224,0.0488,-14.8225,2.485,-14.37625,41.296,-32.424,-68.48,concentric,4,5.0,24684.0,29025.0,55232.0,80273.0,23455.0,37868.0,22090.0,45751.0,16123.0,11965.0
2026-05-06 15:55:27.399674,469366,1609505190875183,2790787304,-0.86864,-0.232288,-0.134688,-27.825,3.89375,-13.195,41.096,-31.672,-67.920006,concentric,4,5.0,24684.0,29025.0,55232.0,80273.0,23455.0,37868.0,22090.0,45751.0,16123.0,11965.0
2026-05-06 15:55:27.399793,469367,1609505190889660,2790802214,-0.958432,-0.1952,0.05856,-37.2925,2.19625,-15.190001,41.416,-31.736002,-70.54401,concentric,4,5.0,24684.0,29025.0,55232.0,80273.0,23455.0,37868.0,22090.0,45751.0,16123.0,11965.0
2026-05-06 15:55:27.413825,469368,1609505190898643,2790810937,-0.958432,-0.1952,0.05856,-29.1725,-1.6975,-14.93625,41.416,-31.736002,-70.54401,concentric,4,5.0,24684.0,29025.0,55232.0,80273.0,23455.0,37868.0,22090.0,45751.0,16123.0,11965.0
2026-05-06 15:55:27.443769,469379,1609505190913294,2790826013,-0.958432,-0.11712,0.044896,-2.30125,-0.4725,-9.82625,41.304,-31.400002,-68.056,concentric,4,5.0,24835.0,29174.0,55269.0,80389.0,23632.0,38099.0,22148.0,45854.0,16196.0,12031.0
2026-05-06 15:55:27.446572,469380,1609505190922320,2790834779,-0.958432,-0.11712,0.044896,13.08125,-0.2975,-5.32,41.304,-31.400002,-68.056,concentric,4,5.0,24835.0,29174.0,55269.0,80389.0,23632.0,38099.0,22148.0,45854.0,16196.0,12031.0
2026-05-06 15:55:27.451541,469381,1609505190931356,2790843533,-0.952576,-0.074176,0.070272,5.18,1.8375,0.65625,41.096,-33.536003,-66.880005,concentric,4,5.0,24835.0,29174.0,55269.0,80389.0,23632.0,38099.0,22148.0,45854.0,16196.0,12031.0
2026-05-06 15:55:27.455234,469382,1609505190945958,2790858465,-0.952576,-0.074176,0.070272,-16.7475,2.30125,2.66875,41.096,-33.536003,-66.880005,concentric,4,5.0,24835.0,29174.0,55269.0,80389.0,23632.0,38099.0,22148.0,45854.0,16196.0,12031.0
2026-05-06 15:55:27.469037,469383,1609505190954899,2790867179,-0.935008,-0.10736,-0.013664,-32.515,-0.49875,-2.54625,40.976,-33.728,-66.920006,concentric,4,5.0,24835.0,29174.0,55269.0,80389.0,23632.0,38099.0,22148.0,45854.0,16196.0,12031.0
2026-05-06 15:55:27.482742,469384,1609505190969609,2790882174,-0.929152,-0.255712,-0.1952,-30.2925,-1.8725,-4.1825,41.000004,-32.144,-67.48,concentric,4,5.0,24835.0,29174.0,55269.0,80389.0,23632.0,38099.0,22148.0,45854.0,16196.0,12031.0
2026-05-06 15:55:27.490229,469385,1609505190978647,2790890884,-0.929152,-0.255712,-0.1952,-28.65625,-4.235,-3.4825,41.000004,-32.144,-67.48,concentric,4,5.0,24835.0,29174.0,55269.0,80389.0,23632.0,38099.0,22148.0,45854.0,16196.0,12031.0
2026-05-06 15:55:27.498850,469386,1609505190987657,2790899609,-0.929152,-0.255712,-0.1952,-30.77375,0.98,-0.56,41.000004,-32.144,-67.48,concentric,4,5.0,24835.0,29174.0,55269.0,80389.0,23632.0,38099.0,22148.0,45854.0,16196.0,12031.0
2026-05-06 15:55:27.621484,469397,1609505191002305,2790915087,-0.91744,-0.310368,0.081984,-29.39125,7.77875,0.7525,40.976,-31.992,-66.736,eccentric,4,5.0,24736.0,29088.0,56100.0,80035.0,23636.0,38100.0,22512.0,45700.0,16156.0,11999.0
2026-05-06 15:55:27.623759,469398,1609505191011333,2790923880,-0.974048,-0.206912,0.046848,-22.04125,10.5,1.53125,40.704002,-32.32,-67.328,eccentric,4,5.0,24736.0,29088.0,56100.0,80035.0,23636.0,38100.0,22512.0,45700.0,16156.0,11999.0
2026-05-06 15:55:27.626546,469399,1609505191025803,2790936748,-0.974048,-0.206912,0.046848,-9.02125,8.09375,3.05375,40.704002,-32.32,-67.328,eccentric,4,5.0,24736.0,29088.0,56100.0,80035.0,23636.0,38100.0,22512.0,45700.0,16156.0,11999.0
2026-05-06 15:55:27.629055,469400,1609505191035125,2790947514,-0.993568,-0.183488,-0.191296,1.93375,1.88125,2.135,40.760002,-36.296,-65.01601,eccentric,4,5.0,24736.0,29088.0,56100.0,80035.0,23636.0,38100.0,22512.0,45700.0,16156.0,11999.0
2026-05-06 15:55:27.631531,469401,1609505191044036,2790956236,-0.993568,-0.183488,-0.191296,2.66,-0.70875,4.20875,40.760002,-36.296,-65.01601,eccentric,4,5.0,24736.0,29088.0,56100.0,80035.0,23636.0,38100.0,22512.0,45700.0,16156.0,11999.0
2026-05-06 15:55:27.634034,469402,1609505191058702,2790971176,-1.003328,-0.22448,-0.035136,-3.745,0.735,5.73125,40.712,-32.896,-67.704,eccentric,4,5.0,24736.0,29088.0,56100.0,80035.0,23636.0,38100.0,22512.0,45700.0,16156.0,11999.0
2026-05-06 15:55:27.636545,469403,1609505191067684,2790979893,-1.003328,-0.22448,-0.035136,-6.2475,2.8525,3.10625,40.712,-32.896,-67.704,eccentric,4,5.0,24736.0,29088.0,56100.0,80035.0,23636.0,38100.0,22512.0,45700.0,16156.0,11999.0
2026-05-06 15:55:27.639039,469404,1609505191082208,2790994872,-1.04432,-0.249856,0.01952,-0.97125,5.355,2.38,40.904003,-32.464,-67.22401,eccentric,4,5.0,24736.0,29088.0,56100.0,80035.0,23636.0,38100.0,22512.0,45700.0,16156.0,11999.0
2026-05-06 15:55:27.645257,469405,1609505191091163,2791003564,-1.00528,-0.193248,-0.023424,1.3825,4.34875,2.89625,40.864002,-32.888,-67.496,eccentric,4,5.0,24736.0,29088.0,56100.0,80035.0,23636.0,38100.0,22512.0,45700.0,16156.0,11999.0
2026-05-06 15:55:27.672756,469416,1609505191106472,2791018589,-1.00528,-0.193248,-0.023424,6.48375,3.22,7.8225,40.864002,-32.888,-67.496,eccentric,4,5.0,25009.0,28985.0,56540.0,80110.0,23808.0,38017.0,22696.0,45758.0,16274.0,11932.0
2026-05-06 15:55:27.677172,469417,1609505191115532,2791027353,-1.04432,-0.113216,-0.050752,6.55375,2.61625,12.08375,40.624,-35.048,-66.624,eccentric,4,5.0,25009.0,28985.0,56540.0,80110.0,23808.0,38017.0,22696.0,45758.0,16274.0,11932.0
2026-05-06 15:55:27.677763,469418,1609505191124486,2791036191,-1.04432,-0.113216,-0.050752,4.2175,2.17,11.85625,40.624,-35.048,-66.624,eccentric,4,5.0,25009.0,28985.0,56540.0,80110.0,23808.0,38017.0,22696.0,45758.0,16274.0,11932.0
2026-05-06 15:55:27.679846,469419,1609505191139057,2791051283,-1.042368,-0.160064,-0.076128,-0.88375,1.91625,8.96875,40.792004,-33.064003,-67.848,eccentric,4,5.0,25009.0,28985.0,56540.0,80110.0,23808.0,38017.0,22696.0,45758.0,16274.0,11932.0
2026-05-06 15:55:27.682460,469420,1609505191148225,2791060053,-1.042368,-0.160064,-0.076128,-10.6575,2.9575,7.95375,40.792004,-33.064003,-67.848,eccentric,4,5.0,25009.0,28985.0,56540.0,80110.0,23808.0,38017.0,22696.0,45758.0,16274.0,11932.0
2026-05-06 15:55:27.688255,469421,1609505191157273,2791068798,-1.013088,-0.206912,0.005856,-12.985,4.3225,7.98,40.296,-34.936,-65.200005,eccentric,4,5.0,25009.0,28985.0,56540.0,80110.0,23808.0,38017.0,22696.0,45758.0,16274.0,11932.0
2026-05-06 15:55:27.688483,469422,1609505191171826,2791083821,-1.028704,-0.181536,0.081984,-12.4425,5.215,7.0,40.160004,-36.648003,-65.008,eccentric,4,5.0,25009.0,28985.0,56540.0,80110.0,23808.0,38017.0,22696.0,45758.0,16274.0,11932.0
2026-05-06 15:55:27.689866,469423,1609505191180808,2791092566,-1.028704,-0.181536,0.081984,-7.55125,5.32875,6.97375,40.160004,-36.648003,-65.008,eccentric,4,5.0,25009.0,28985.0,56540.0,80110.0,23808.0,38017.0,22696.0,45758.0,16274.0,11932.0
2026-05-06 15:55:27.723899,469424,1609505191195266,2791107483,-0.98576,-0.160064,-0.076128,0.04375,4.8825,8.925,40.280003,-34.24,-67.448006,eccentric,4,5.0,25009.0,28985.0,56540.0,80110.0,23808.0,38017.0,22696.0,45758.0,16274.0,11932.0
2026-05-06 15:55:27.783604,469435,1609505191204460,2791116385,-0.98576,-0.160064,-0.076128,2.45,4.59375,13.1425,40.280003,-34.24,-67.448006,eccentric,4,5.0,25002.0,28931.0,56434.0,80066.0,23811.0,37941.0,22666.0,45753.0,16316.0,11956.0
2026-05-06 15:55:27.785096,469436,1609505191219059,2791131391,-1.016992,-0.150304,-0.031232,-2.5025,4.165,15.54875,40.608,-34.584003,-67.536,eccentric,4,5.0,25002.0,28931.0,56434.0,80066.0,23811.0,37941.0,22666.0,45753.0,16316.0,11956.0
2026-05-06 15:55:27.787592,469437,1609505191228019,2791140174,-1.016992,-0.150304,-0.031232,-4.38375,3.85,14.77,40.608,-34.584003,-67.536,eccentric,4,5.0,25002.0,28931.0,56434.0,80066.0,23811.0,37941.0,22666.0,45753.0,16316.0,11956.0
2026-05-06 15:55:27.790058,469438,1609505191236979,2791148968,-1.040416,-0.134688,0.00976,0.88375,5.9675,14.8925,40.152,-34.808002,-67.288,eccentric,4,5.0,25002.0,28931.0,56434.0,80066.0,23811.0,37941.0,22666.0,45753.0,16316.0,11956.0
2026-05-06 15:55:27.792541,469439,1609505191251461,2791163933,-0.997472,-0.08784,-0.042944,3.59625,8.12875,16.87875,39.704002,-34.920002,-70.384,eccentric,4,5.0,25002.0,28931.0,56434.0,80066.0,23811.0,37941.0,22666.0,45753.0,16316.0,11956.0
2026-05-06 15:55:27.795094,469440,1609505191260375,2791172637,-0.997472,-0.08784,-0.042944,3.36875,6.965,20.09875,39.704002,-34.920002,-70.384,eccentric,4,5.0,25002.0,28931.0,56434.0,80066.0,23811.0,37941.0,22666.0,45753.0,16316.0,11956.0
2026-05-06 15:55:27.797624,469441,1609505191274867,2791187580,-0.854976,-0.148352,-0.111264,0.42,3.0625,20.39625,39.952003,-36.816,-66.304,eccentric,4,5.0,25002.0,28931.0,56434.0,80066.0,23811.0,37941.0,22666.0,45753.0,16316.0,11956.0
2026-05-06 15:55:27.800096,469442,1609505191283812,2791196373,-0.854976,-0.148352,-0.111264,-7.385,0.83125,19.08375,39.952003,-36.816,-66.304,eccentric,4,5.0,25002.0,28931.0,56434.0,80066.0,23811.0,37941.0,22666.0,45753.0,16316.0,11956.0
2026-05-06 15:55:27.813830,469443,1609505191298560,2791211300,-0.977952,-0.177632,0.040992,-10.0625,2.6775,18.3225,39.504,-36.104,-68.296005,eccentric,4,5.0,25002.0,28931.0,56434.0,80066.0,23811.0,37941.0,22666.0,45753.0,16316.0,11956.0
2026-05-06 15:55:27.841548,469454,1609505191307616,2791220143,-0.977952,-0.177632,0.040992,-2.135,5.13625,16.6775,39.504,-36.104,-68.296005,eccentric,4,5.0,25507.0,29311.0,55696.0,80890.0,24202.0,38215.0,22364.0,46177.0,16622.0,12174.0
2026-05-06 15:55:27.843921,469455,1609505191316713,2791228914,-1.032608,-0.054656,0.148352,7.00875,6.16,17.85875,39.208,-37.672,-66.112,eccentric,4,5.0,25507.0,29311.0,55696.0,80890.0,24202.0,38215.0,22364.0,46177.0,16622.0,12174.0
2026-05-06 15:55:27.846436,469456,1609505191331336,2791243961,-1.032608,-0.054656,-0.203008,8.82,4.12125,24.5525,39.208,-37.672,-66.112,eccentric,4,5.0,25507.0,29311.0,55696.0,80890.0,24202.0,38215.0,22364.0,46177.0,16622.0,12174.0
2026-05-06 15:55:27.851466,469457,1609505191340250,2791252742,-0.880352,0.033184,-0.203008,3.36,-0.83125,31.535,38.632,-39.448,-64.392006,eccentric,4,5.0,25507.0,29311.0,55696.0,80890.0,24202.0,38215.0,22364.0,46177.0,16622.0,12174.0
2026-05-06 15:55:27.865058,469458,1609505191354725,2791265630,-0.91744,-0.023424,-0.05856,-8.365,-3.42125,34.39625,38.392002,-37.016003,-67.528,eccentric,4,5.0,25507.0,29311.0,55696.0,80890.0,24202.0,38215.0,22364.0,46177.0,16622.0,12174.0
2026-05-06 15:55:27.906398,469459,1609505191364053,2791276577,-0.91744,-0.023424,-0.05856,-15.5575,-5.76625,26.5475,38.392002,-37.016003,-67.528,eccentric,4,5.0,25507.0,29311.0,55696.0,80890.0,24202.0,38215.0,22364.0,46177.0,16622.0,12174.0
2026-05-06 15:55:27.930258,469460,1609505191372967,2791285296,-1.022848,-0.066368,0.121024,-13.3525,-5.80125,16.065,38.408,-37.072002,-67.896,eccentric,4,5.0,25507.0,29311.0,55696.0,80890.0,24202.0,38215.0,22364.0,46177.0,16622.0,12174.0
2026-05-06 15:55:27.932733,469461,1609505191387460,2791300216,-1.022848,-0.066368,0.121024,-3.70125,-3.8675,17.24625,38.408,-37.072002,-67.896,eccentric,4,5.0,25507.0,29311.0,55696.0,80890.0,24202.0,38215.0,22364.0,46177.0,16622.0,12174.0
2026-05-06 15:55:27.937687,469462,1609505191396527,2791308900,-0.950624,-0.042944,0.007808,-2.345,-6.0725,25.10375,38.04,-37.584003,-66.784004,eccentric,4,5.0,25507.0,29311.0,55696.0,80890.0,24202.0,38215.0,22364.0,46177.0,16622.0,12174.0
2026-05-06 15:55:27.971121,469473,1609505191411140,2791323901,-0.950624,-0.042944,0.007808,-12.81,-10.52625,31.59625,38.04,-37.584003,-66.784004,eccentric,4,5.0,25846.0,29555.0,55410.0,81443.0,24449.0,38416.0,22253.0,46479.0,16757.0,12274.0
2026-05-06 15:55:27.973832,469474,1609505191420078,2791332817,-0.853024,-0.0488,-0.245952,-16.765,-10.57875,37.12625,37.376003,-38.272003,-66.264,eccentric,4,5.0,25846.0,29555.0,55410.0,81443.0,24449.0,38416.0,22253.0,46479.0,16757.0,12274.0
2026-05-06 15:55:27.976290,469475,1609505191429050,2791341593,-0.853024,-0.0488,-0.245952,-16.2925,-11.34875,35.84875,37.376003,-38.272003,-66.264,eccentric,4,5.0,25846.0,29555.0,55410.0,81443.0,24449.0,38416.0,22253.0,46479.0,16757.0,12274.0
2026-05-06 15:55:27.978860,469476,1609505191443652,2791354516,-1.108736,-0.037088,0.027328,1.54,-13.8075,25.90875,37.184002,-40.104,-64.952,eccentric,4,5.0,25846.0,29555.0,55410.0,81443.0,24449.0,38416.0,22253.0,46479.0,16757.0,12274.0
2026-05-06 15:55:27.981340,469477,1609505191452957,2791365295,-1.165344,0.076128,0.10736,18.095,-13.60625,21.37625,37.184002,-40.416,-65.920006,eccentric,4,5.0,25846.0,29555.0,55410.0,81443.0,24449.0,38416.0,22253.0,46479.0,16757.0,12274.0
2026-05-06 15:55:27.983806,469478,1609505191467578,2791380265,-1.165344,0.076128,0.10736,15.04125,-17.82375,29.295,36.976,-40.416,-65.920006,eccentric,4,5.0,25846.0,29555.0,55410.0,81443.0,24449.0,38416.0,22253.0,46479.0,16757.0,12274.0
2026-05-06 15:55:27.986443,469479,1609505191476538,2791389024,-0.93696,0.109312,-0.183488,3.71875,-20.755,40.71375,36.592003,-40.024002,-65.80801,eccentric,4,5.0,25846.0,29555.0,55410.0,81443.0,24449.0,38416.0,22253.0,46479.0,16757.0,12274.0
2026-05-06 15:55:28.000043,469480,1609505191491061,2791401923,-0.93696,0.109312,-0.183488,-8.505,-22.12,44.4325,36.592003,-40.024002,-65.80801,eccentric,4,5.0,25846.0,29555.0,55410.0,81443.0,24449.0,38416.0,22253.0,46479.0,16757.0,12274.0
2026-05-06 15:55:28.013903,469481,1609505191500380,2791412858,-0.983808,0.052704,0.031232,-19.705,-25.5325,38.22875,36.08,-41.616,-63.584003,eccentric,4,5.0,25846.0,29555.0,55410.0,81443.0,24449.0,38416.0,22253.0,46479.0,16757.0,12274.0
2026-05-06 15:55:28.050289,469492,1609505191509461,2791422146,-0.983808,0.052704,0.031232,-14.035,-26.635,28.455,36.08,-41.616,-63.584003,eccentric,4,5.0,25636.0,29439.0,55252.0,81405.0,24286.0,38371.0,22141.0,46470.0,16645.0,12227.0
2026-05-06 15:55:28.050697,469493,1609505191524038,2791435121,-1.196576,-0.011712,0.081984,8.21625,-24.1675,23.59,36.024002,-40.920002,-64.624,eccentric,4,5.0,25636.0,29439.0,55252.0,81405.0,24286.0,38371.0,22141.0,46470.0,16645.0,12227.0
2026-05-06 15:55:28.052505,469494,1609505191533323,2791445901,-1.0736,0.076128,0.021472,12.705,-25.41,29.32125,36.024002,-42.968002,-62.144005,eccentric,4,5.0,25636.0,29439.0,55252.0,81405.0,24286.0,38371.0,22141.0,46470.0,16645.0,12227.0
2026-05-06 15:55:28.055027,469495,1609505191542345,2791454610,-1.0736,0.076128,0.021472,2.79125,-25.40125,42.4375,35.816,-41.04,-62.144005,eccentric,4,5.0,25636.0,29439.0,55252.0,81405.0,24286.0,38371.0,22141.0,46470.0,16645.0,12227.0
2026-05-06 15:55:28.071456,469496,1609505191556971,2791469545,-0.913536,0.091744,-0.031232,-3.885,-25.5325,50.18125,34.992,-43.2,-62.824,eccentric,4,5.0,25636.0,29439.0,55252.0,81405.0,24286.0,38371.0,22141.0,46470.0,16645.0,12227.0
2026-05-06 15:55:28.077732,469497,1609505191566046,2791478234,-0.913536,0.091744,-0.031232,-9.70375,-25.6725,46.97875,34.992,-43.2,-62.824,eccentric,4,5.0,25636.0,29439.0,55252.0,81405.0,24286.0,38371.0,22141.0,46470.0,16645.0,12227.0
2026-05-06 15:55:28.091466,469498,1609505191580567,2791493260,-1.11264,0.0976,-0.05856,-7.9625,-25.27875,39.83875,34.584003,-42.736004,-65.520004,eccentric,4,5.0,25636.0,29439.0,55252.0,81405.0,24286.0,38371.0,22141.0,46470.0,16645.0,12227.0
2026-05-06 15:55:28.102565,469499,1609505191589490,2791502000,-1.11264,0.0976,-0.05856,3.14125,-23.19625,35.11375,34.584003,-42.736004,-65.520004,eccentric,4,5.0,25636.0,29439.0,55252.0,81405.0,24286.0,38371.0,22141.0,46470.0,16645.0,12227.0
2026-05-06 15:55:28.116493,469500,1609505191604045,2791514852,-1.25904,0.1464,-0.062464,20.92125,-23.3625,37.03,33.944,-43.336002,-63.152004,eccentric,4,5.0,25636.0,29439.0,55252.0,81405.0,24286.0,38371.0,22141.0,46470.0,16645.0,12227.0
2026-05-06 15:55:28.144150,469511,1609505191613389,2791525694,-1.25904,0.1464,0.187392,28.39375,-25.5675,40.15375,33.944,-43.336002,-63.152004,eccentric,4,5.0,25154.0,29209.0,55445.0,80928.0,23848.0,38192.0,22229.0,46228.0,16330.0,12084.0
2026-05-06 15:55:28.146196,469512,1609505191622348,2791534518,-1.038464,0.201056,0.187392,22.6975,-28.6825,41.44,33.128002,-45.648003,-62.072002,eccentric,4,5.0,25154.0,29209.0,55445.0,80928.0,23848.0,38192.0,22229.0,46228.0,16330.0,12084.0
2026-05-06 15:55:28.150025,469513,1609505191637050,2791549436,-0.940864,0.183488,0.025376,9.3625,-28.665,42.44625,32.640003,-45.824,-61.448,eccentric,4,5.0,25154.0,29209.0,55445.0,80928.0,23848.0,38192.0,22229.0,46228.0,16330.0,12084.0
2026-05-06 15:55:28.155212,469514,1609505191645982,2791558198,-0.940864,0.183488,0.025376,-0.3325,-23.5025,41.5625,32.640003,-45.824,-61.448,eccentric,4,5.0,25154.0,29209.0,55445.0,80928.0,23848.0,38192.0,22229.0,46228.0,16330.0,12084.0
2026-05-06 15:55:28.170063,469515,1609505191660535,2791573135,-1.212192,0.1464,0.042944,-5.48625,-17.36875,34.74625,32.2,-45.008003,-62.688004,eccentric,4,5.0,25154.0,29209.0,55445.0,80928.0,23848.0,38192.0,22229.0,46228.0,16330.0,12084.0
2026-05-06 15:55:28.183891,469516,1609505191669549,2791581867,-1.212192,0.1464,0.042944,-5.705,-12.0225,28.02625,32.2,-45.008003,-62.688004,eccentric,4,5.0,25154.0,29209.0,55445.0,80928.0,23848.0,38192.0,22229.0,46228.0,16330.0,12084.0
2026-05-06 15:55:28.190239,469517,1609505191678536,2791590573,-1.2688,0.138592,0.02928,-5.90625,-10.045,29.6275,31.632002,-46.216003,-62.040005,eccentric,4,5.0,25154.0,29209.0,55445.0,80928.0,23848.0,38192.0,22229.0,46228.0,16330.0,12084.0
2026-05-06 15:55:28.223871,469518,1609505191693065,2791605461,-1.2688,0.138592,0.02928,-4.22625,-9.292501,35.95375,31.632002,-46.216003,-62.040005,eccentric,4,5.0,25154.0,29209.0,55445.0,80928.0,23848.0,38192.0,22229.0,46228.0,16330.0,12084.0
2026-05-06 15:55:28.226513,469519,1609505191701971,2791614161,-1.038464,0.121024,0.095648,-7.65625,-9.75625,38.64875,31.008001,-45.928,-63.840004,eccentric,4,5.0,25154.0,29209.0,55445.0,80928.0,23848.0,38192.0,22229.0,46228.0,16330.0,12084.0
2026-05-06 15:55:28.314019,469530,1609505191716557,2791627465,-1.167296,0.16592,-0.052704,-10.71,-10.08,38.87625,30.496002,-46.800003,-63.528004,eccentric,4,5.0,24645.0,29142.0,56346.0,80123.0,23410.0,38082.0,22624.0,45808.0,16092.0,12035.0
2026-05-06 15:55:28.316517,469531,1609505191725984,2791638345,-1.167296,0.16592,-0.052704,-2.26625,-9.24875,37.79125,30.496002,-46.800003,-63.528004,eccentric,4,5.0,24645.0,29142.0,56346.0,80123.0,23410.0,38082.0,22624.0,45808.0,16092.0,12035.0
2026-05-06 15:55:28.319004,469532,1609505191735093,2791647129,-1.313696,0.18544,-0.02928,11.6025,-8.3475,34.2125,30.496002,-48.680004,-60.992004,eccentric,4,5.0,24645.0,29142.0,56346.0,80123.0,23410.0,38082.0,22624.0,45808.0,16092.0,12035.0
2026-05-06 15:55:28.321517,469533,1609505191749640,2791662045,-1.313696,0.18544,-0.02928,17.75375,-9.93125,33.48625,29.904001,-48.680004,-60.992004,eccentric,4,5.0,24645.0,29142.0,56346.0,80123.0,23410.0,38082.0,22624.0,45808.0,16092.0,12035.0
2026-05-06 15:55:28.324019,469534,1609505191758579,2791670779,-1.153632,0.183488,0.177632,11.795,-9.26625,36.26,29.488,-47.472004,-61.688004,eccentric,4,5.0,24645.0,29142.0,56346.0,80123.0,23410.0,38082.0,22624.0,45808.0,16092.0,12035.0
2026-05-06 15:55:28.326421,469535,1609505191773093,2791685753,-1.153632,0.183488,0.177632,2.0475,-7.74375,35.88375,29.488,-47.472004,-61.688004,eccentric,4,5.0,24645.0,29142.0,56346.0,80123.0,23410.0,38082.0,22624.0,45808.0,16092.0,12035.0
2026-05-06 15:55:28.330538,469536,1609505191782035,2791694451,-1.22976,0.259616,0.050752,-1.295,-5.78375,33.41625,28.968002,-47.568,-61.960003,eccentric,4,5.0,24645.0,29142.0,56346.0,80123.0,23410.0,38082.0,22624.0,45808.0,16092.0,12035.0
2026-05-06 15:55:28.331291,469537,1609505191796510,2791707558,-1.348832,0.208864,-0.005856,6.1075,-3.07125,30.9925,28.208002,-48.312004,-60.584003,eccentric,4,5.0,24645.0,29142.0,56346.0,80123.0,23410.0,38082.0,22624.0,45808.0,16092.0,12035.0
2026-05-06 15:55:28.361386,469548,1609505191805725,2791718377,-1.348832,0.208864,-0.005856,11.6725,-3.43875,27.71125,28.208002,-48.312004,-60.584003,eccentric,4,5.0,24221.0,28859.0,56393.0,79494.0,23012.0,37790.0,22619.0,45441.0,15828.0,11902.0
2026-05-06 15:55:28.363823,469549,1609505191815627,2791727279,-1.23952,0.103456,0.074176,0.70875,-8.49625,29.8375,28.208002,-49.000004,-61.136,eccentric,4,5.0,24221.0,28859.0,56393.0,79494.0,23012.0,37790.0,22619.0,45441.0,15828.0,11902.0
2026-05-06 15:55:28.366386,469550,1609505191830206,2791742350,-1.23952,0.103456,0.074176,-8.925,-9.275,35.74375,27.376001,-49.000004,-61.136,eccentric,4,5.0,24221.0,28859.0,56393.0,79494.0,23012.0,37790.0,22619.0,45441.0,15828.0,11902.0
2026-05-06 15:55:28.368893,469551,1609505191839511,2791751173,-1.153632,0.05856,0.072224,-11.71625,-7.93625,38.0275,26.800001,-49.656002,-60.992004,eccentric,4,5.0,24221.0,28859.0,56393.0,79494.0,23012.0,37790.0,22619.0,45441.0,15828.0,11902.0
2026-05-06 15:55:28.371473,469552,1609505191848435,2791759936,-1.153632,0.05856,0.072224,-5.67875,-6.0725,38.17625,26.800001,-49.656002,-60.992004,eccentric,4,5.0,24221.0,28859.0,56393.0,79494.0,23012.0,37790.0,22619.0,45441.0,15828.0,11902.0
2026-05-06 15:55:28.373744,469553,1609505191863008,2791774951,-1.184864,0.1952,0.046848,5.7925,-5.075,39.59375,26.064001,-49.816,-59.384003,eccentric,4,5.0,24221.0,28859.0,56393.0,79494.0,23012.0,37790.0,22619.0,45441.0,15828.0,11902.0
2026-05-06 15:55:28.405156,469554,1609505191871957,2791783682,-1.184864,0.1952,0.046848,17.87625,-3.75375,42.0525,26.064001,-49.816,-59.384003,eccentric,4,5.0,24221.0,28859.0,56393.0,79494.0,23012.0,37790.0,22619.0,45441.0,15828.0,11902.0
2026-05-06 15:55:28.407677,469555,1609505191886458,2791798606,-1.20048,0.31232,-0.023424,26.81,-4.2175,42.245,25.008001,-50.856003,-61.616,eccentric,4,5.0,24221.0,28859.0,56393.0,79494.0,23012.0,37790.0,22619.0,45441.0,15828.0,11902.0
2026-05-06 15:55:28.410222,469556,1609505191895357,2791807322,-1.20048,0.31232,-0.023424,29.04125,-6.405,38.42125,25.008001,-50.856003,-61.616,eccentric,4,5.0,24221.0,28859.0,56393.0,79494.0,23012.0,37790.0,22619.0,45441.0,15828.0,11902.0
2026-05-06 15:55:28.443858,469568,1609505191910773,2791822543,-1.116544,0.300608,0.10736,22.39125,-9.4325,34.58875,24.384,-50.736004,-59.784004,eccentric,4,5.0,23549.0,28776.0,57165.0,78584.0,22412.0,37626.0,22967.0,44916.0,15493.0,11880.0
2026-05-06 15:55:28.446345,469569,1609505191919954,2791831500,-1.10288,0.255712,0.101504,12.94125,-12.31125,31.78,23.808,-52.664,-60.896004,eccentric,4,5.0,23549.0,28776.0,57165.0,78584.0,22412.0,37626.0,22967.0,44916.0,15493.0,11880.0
2026-05-06 15:55:28.448821,469570,1609505191928991,2791840325,-1.10288,0.255712,0.101504,7.0525,-13.06375,29.68875,23.808,-52.664,-60.896004,eccentric,4,5.0,23549.0,28776.0,57165.0,78584.0,22412.0,37626.0,22967.0,44916.0,15493.0,11880.0
2026-05-06 15:55:28.455118,469571,1609505191943519,2791855234,-1.194624,0.199104,0.037088,6.76375,-10.71,27.74625,22.928001,-53.048004,-60.792004,eccentric,4,5.0,23549.0,28776.0,57165.0,78584.0,22412.0,37626.0,22967.0,44916.0,15493.0,11880.0
2026-05-06 15:55:28.461424,469572,1609505191952497,2791863998,-1.194624,0.199104,0.037088,9.1875,-8.82,23.93125,22.928001,-53.048004,-60.792004,eccentric,4,5.0,23549.0,28776.0,57165.0,78584.0,22412.0,37626.0,22967.0,44916.0,15493.0,11880.0
2026-05-06 15:55:28.470209,469573,1609505191961449,2791872783,-1.184864,0.16592,0.11712,15.04125,-7.28,23.59875,22.696001,-53.376003,-60.392002,eccentric,4,5.0,23549.0,28776.0,57165.0,78584.0,22412.0,37626.0,22967.0,44916.0,15493.0,11880.0
2026-05-06 15:55:28.489039,469574,1609505191975912,2791887787,-1.184864,0.16592,0.11712,20.3,-7.04375,27.8075,22.696001,-53.376003,-60.392002,eccentric,4,5.0,23549.0,28776.0,57165.0,78584.0,22412.0,37626.0,22967.0,44916.0,15493.0,11880.0
2026-05-06 15:55:28.495243,469575,1609505191984935,2791896502,-1.138016,0.25376,0.099552,18.17375,-7.65625,33.97625,21.744001,-52.320004,-61.800003,eccentric,4,5.0,23549.0,28776.0,57165.0,78584.0,22412.0,37626.0,22967.0,44916.0,15493.0,11880.0
2026-05-06 15:55:28.517958,469576,1609505191999440,2791911475,-1.143872,0.281088,0.101504,19.565,-6.20375,36.732502,21.216002,-54.24,-61.296,eccentric,4,5.0,23549.0,28776.0,57165.0,78584.0,22412.0,37626.0,22967.0,44916.0,15493.0,11880.0
2026-05-06 15:55:28.543826,469587,1609505192008417,2791920293,-1.143872,0.281088,0.101504,20.4925,-6.1425,33.22375,21.216002,-54.24,-61.296,eccentric,4,5.0,22984.0,28661.0,57683.0,77763.0,21858.0,37512.0,23215.0,44460.0,15180.0,11809.0
2026-05-06 15:55:28.546367,469588,1609505192023116,2791935254,-1.14192,0.245952,0.0976,15.3125,-4.5675,29.19875,20.6,-55.800003,-59.944004,eccentric,4,5.0,22984.0,28661.0,57683.0,77763.0,21858.0,37512.0,23215.0,44460.0,15180.0,11809.0
2026-05-06 15:55:28.548853,469589,1609505192032136,2791944072,-1.14192,0.245952,0.0976,10.325,-3.7975,27.46625,20.6,-55.800003,-59.944004,eccentric,4,5.0,22984.0,28661.0,57683.0,77763.0,21858.0,37512.0,23215.0,44460.0,15180.0,11809.0
2026-05-06 15:55:28.551376,469590,1609505192041171,2791952927,-1.118496,0.212768,0.07808,7.83125,-3.815,26.41625,19.68,-56.440002,-60.712,eccentric,4,5.0,22984.0,28661.0,57683.0,77763.0,21858.0,37512.0,23215.0,44460.0,15180.0,11809.0
2026-05-06 15:55:28.565176,469591,1609505192055653,2791967850,-1.118496,0.212768,0.07808,9.87,-4.06875,27.3525,19.68,-56.440002,-60.712,eccentric,4,5.0,22984.0,28661.0,57683.0,77763.0,21858.0,37512.0,23215.0,44460.0,15180.0,11809.0
2026-05-06 15:55:28.578960,469592,1609505192064591,2791976575,-1.147776,0.203008,0.121024,13.79,-4.865,27.86,19.432001,-53.104004,-61.464005,eccentric,4,5.0,22984.0,28661.0,57683.0,77763.0,21858.0,37512.0,23215.0,44460.0,15180.0,11809.0
2026-05-06 15:55:28.590229,469593,1609505192079270,2791991517,-1.182912,0.23424,0.03904,14.455,-5.18875,28.11375,18.352001,-55.176003,-60.504,eccentric,4,5.0,22984.0,28661.0,57683.0,77763.0,21858.0,37512.0,23215.0,44460.0,15180.0,11809.0
2026-05-06 15:55:28.599028,469594,1609505192088351,2792000303,-1.182912,0.23424,0.03904,14.04375,-4.4625,30.93125,18.352001,-55.176003,-60.504,eccentric,4,5.0,22984.0,28661.0,57683.0,77763.0,21858.0,37512.0,23215.0,44460.0,15180.0,11809.0
2026-05-06 15:55:28.607745,469595,1609505192097409,2792009017,-1.182912,0.208864,0.066368,13.7725,-4.01625,33.90625,18.352001,-55.176003,-60.504,eccentric,4,5.0,22984.0,28661.0,57683.0,77763.0,21858.0,37512.0,23215.0,44460.0,15180.0,11809.0
2026-05-06 15:55:28.695071,469606,1609505192112298,2792024001,-1.167296,0.208864,0.066368,12.41625,-5.01375,34.72875,18.152,-55.384003,-63.008003,eccentric,4,5.0,22570.0,28674.0,58171.0,77096.0,21501.0,37507.0,23445.0,44038.0,14965.0,11820.0
2026-05-06 15:55:28.697748,469607,1609505192121318,2792032755,-1.157536,0.216672,0.26352,13.81625,-4.73375,33.985,17.312,-53.752003,-62.864002,eccentric,4,5.0,22570.0,28674.0,58171.0,77096.0,21501.0,37507.0,23445.0,44038.0,14965.0,11820.0
2026-05-06 15:55:28.700276,469608,1609505192135843,2792047853,-1.157536,0.216672,0.26352,13.08125,-3.17625,33.4775,17.312,-53.752003,-62.864002,eccentric,4,5.0,22570.0,28674.0,58171.0,77096.0,21501.0,37507.0,23445.0,44038.0,14965.0,11820.0
2026-05-06 15:55:28.702701,469609,1609505192144831,2792056571,-1.182912,0.277184,0.142496,11.82125,-0.595,36.015,16.544,-53.960003,-63.096004,eccentric,4,5.0,22570.0,28674.0,58171.0,77096.0,21501.0,37507.0,23445.0,44038.0,14965.0,11820.0
2026-05-06 15:55:28.705245,469610,1609505192153756,2792065265,-1.182912,0.277184,0.142496,7.06125,2.77375,36.68875,16.544,-53.960003,-63.096004,eccentric,4,5.0,22570.0,28674.0,58171.0,77096.0,21501.0,37507.0,23445.0,44038.0,14965.0,11820.0
2026-05-06 15:55:28.707744,469611,1609505192168237,2792080259,-1.175104,0.216672,0.066368,-4.15625,3.38625,34.23,16.032001,-55.208004,-62.896004,eccentric,4,5.0,22570.0,28674.0,58171.0,77096.0,21501.0,37507.0,23445.0,44038.0,14965.0,11820.0
2026-05-06 15:55:28.710279,469612,1609505192177240,2792089067,-1.175104,0.216672,0.066368,-13.965,2.66875,34.107502,16.032001,-55.208004,-62.896004,eccentric,4,5.0,22570.0,28674.0,58171.0,77096.0,21501.0,37507.0,23445.0,44038.0,14965.0,11820.0
2026-05-06 15:55:28.714474,469613,1609505192191817,2792104126,-1.147776,0.18544,0.08784,-16.07375,2.91375,34.825,14.856001,-54.888004,-62.688004,eccentric,4,5.0,22570.0,28674.0,58171.0,77096.0,21501.0,37507.0,23445.0,44038.0,14965.0,11820.0
2026-05-06 15:55:28.715135,469614,1609505192200775,2792112890,-1.108736,0.228384,0.122976,-11.480001,2.65125,35.63,14.288001,-56.776,-61.712,eccentric,4,5.0,22570.0,28674.0,58171.0,77096.0,21501.0,37507.0,23445.0,44038.0,14965.0,11820.0
2026-05-06 15:55:28.745110,469625,1609505192215435,2792126354,-1.108736,0.228384,0.122976,-3.96375,2.30125,33.78375,14.288001,-56.776,-61.712,eccentric,4,5.0,22364.0,28660.0,58339.0,76748.0,21287.0,37482.0,23539.0,43844.0,14847.0,11814.0
2026-05-06 15:55:28.747594,469626,1609505192224964,2792137294,-1.071648,0.27328,0.095648,0.7,1.60125,30.817501,13.776001,-57.464005,-61.424004,eccentric,4,5.0,22364.0,28660.0,58339.0,76748.0,21287.0,37482.0,23539.0,43844.0,14847.0,11814.0
2026-05-06 15:55:28.750114,469627,1609505192233911,2792145997,-1.071648,0.27328,0.095648,0.90125,1.3125,28.2275,13.776001,-57.464005,-61.424004,eccentric,4,5.0,22364.0,28660.0,58339.0,76748.0,21287.0,37482.0,23539.0,43844.0,14847.0,11814.0
2026-05-06 15:55:28.758807,469628,1609505192248579,2792160992,-1.067744,0.267424,0.07808,-0.9625,1.30375,24.6575,13.152,-56.576004,-61.712,eccentric,4,5.0,22364.0,28660.0,58339.0,76748.0,21287.0,37482.0,23539.0,43844.0,14847.0,11814.0
2026-05-06 15:55:28.767714,469629,1609505192257714,2792169739,-1.067744,0.267424,0.07808,-4.9175,1.715,20.405,13.152,-56.576004,-61.712,eccentric,4,5.0,22364.0,28660.0,58339.0,76748.0,21287.0,37482.0,23539.0,43844.0,14847.0,11814.0
2026-05-06 15:55:28.791418,469630,1609505192272199,2792184740,-1.046272,0.259616,0.119072,-7.28,2.6775,17.8325,12.952001,-56.624004,-59.736004,eccentric,4,5.0,22364.0,28660.0,58339.0,76748.0,21287.0,37482.0,23539.0,43844.0,14847.0,11814.0
2026-05-06 15:55:28.796286,469631,1609505192281129,2792193436,-1.056032,0.236192,0.076128,-9.9225,2.2925,14.48125,13.008,-55.448,-62.800003,eccentric,4,5.0,22364.0,28660.0,58339.0,76748.0,21287.0,37482.0,23539.0,43844.0,14847.0,11814.0
2026-05-06 15:55:28.802475,469632,1609505192290079,2792202161,-1.056032,0.236192,0.076128,-13.30875,2.17,11.03375,13.008,-55.448,-62.800003,eccentric,4,5.0,22364.0,28660.0,58339.0,76748.0,21287.0,37482.0,23539.0,43844.0,14847.0,11814.0
