pc_time,serial_num,sensor_ts,host_ts,ax,ay,az,gx,gy,gz,mx,my,mz,phase,rpe,weight_kg,ppg_a,ppg_b,ppg_c,ppg_d,ppg_e,ppg_f,ppg_g,ppg_h,ppg_i,ppg_j
2026-05-06 15:55:44.744828,472634,1609505208202505,2808115202,-1.069696,0.17568,-0.00976,-9.26625,4.47125,-5.59125,17.160002,-56.656002,-56.544003,concentric,4,5.0,24063.0,29974.0,57716.0,78113.0,22423.0,38221.0,23099.0,44176.0,15518.0,12197.0
2026-05-06 15:55:44.747271,472635,1609505208211576,2808123977,-1.069696,0.17568,-0.00976,-9.35375,3.92,-7.35,17.160002,-56.656002,-56.544003,concentric,4,5.0,24063.0,29974.0,57716.0,78113.0,22423.0,38221.0,23099.0,44176.0,15518.0,12197.0
2026-05-06 15:55:44.749857,472636,1609505208226205,2808138938,-1.052128,0.148352,0.001952,-11.48875,3.6575,-9.275,17.392,-54.544003,-57.672,concentric,4,5.0,24063.0,29974.0,57716.0,78113.0,22423.0,38221.0,23099.0,44176.0,15518.0,12197.0
2026-05-06 15:55:44.752572,472637,1609505208235133,2808147657,-1.052128,0.148352,0.001952,-10.63125,3.4125,-12.1275,17.392,-54.544003,-57.672,concentric,4,5.0,24063.0,29974.0,57716.0,78113.0,22423.0,38221.0,23099.0,44176.0,15518.0,12197.0
2026-05-06 15:55:44.755079,472638,1609505208244073,2808156370,-1.081408,0.154208,-0.003904,-9.58125,3.61375,-14.88375,17.648,-56.384003,-56.56,concentric,4,5.0,24063.0,29974.0,57716.0,78113.0,22423.0,38221.0,23099.0,44176.0,15518.0,12197.0
2026-05-06 15:55:44.768861,472639,1609505208258597,2808169370,-1.081408,0.154208,-0.003904,-7.35875,3.4825,-16.6075,17.648,-56.384003,-56.56,concentric,4,5.0,24063.0,29974.0,57716.0,78113.0,22423.0,38221.0,23099.0,44176.0,15518.0,12197.0
2026-05-06 15:55:44.803818,472640,1609505208268037,2808180191,-1.069696,0.181536,0.0488,-5.08375,2.94875,-18.2,18.12,-56.280003,-56.184002,concentric,4,5.0,24063.0,29974.0,57716.0,78113.0,22423.0,38221.0,23099.0,44176.0,15518.0,12197.0
2026-05-06 15:55:44.828963,472641,1609505208282567,2808195149,-1.085312,0.160064,0.003904,-3.7625,2.61625,-20.23875,18.696001,-54.248,-57.512,concentric,4,5.0,24063.0,29974.0,57716.0,78113.0,22423.0,38221.0,23099.0,44176.0,15518.0,12197.0
2026-05-06 15:55:44.854003,472642,1609505208291544,2808203847,-1.085312,0.160064,0.003904,-5.145,3.29875,-23.16125,18.696001,-54.248,-57.512,concentric,4,5.0,24063.0,29974.0,57716.0,78113.0,22423.0,38221.0,23099.0,44176.0,15518.0,12197.0
2026-05-06 15:55:44.868845,472643,1609505208300492,2808212538,-1.085312,0.113216,0.017568,-6.1075,3.45625,-26.04875,18.696001,-54.248,-57.512,concentric,4,5.0,24063.0,29974.0,57716.0,78113.0,22423.0,38221.0,23099.0,44176.0,15518.0,12197.0
2026-05-06 15:55:44.896080,472654,1609505208315200,2808228063,-1.130208,0.115168,0.017568,-5.005,3.6225,-27.37875,18.960001,-55.320004,-56.680004,concentric,4,5.0,24072.0,29999.0,57736.0,78132.0,22370.0,38232.0,23077.0,44155.0,15500.0,12185.0
2026-05-06 15:55:44.898432,472655,1609505208324144,2808236856,-1.11264,0.0976,0.037088,-2.17875,3.54375,-28.035,19.736,-54.136,-57.816,concentric,4,5.0,24072.0,29999.0,57736.0,78132.0,22370.0,38232.0,23077.0,44155.0,15500.0,12185.0
2026-05-06 15:55:44.901139,472656,1609505208338652,2808249737,-1.11264,0.0976,0.037088,0.175,3.3425,-27.02875,19.736,-54.136,-57.816,concentric,4,5.0,24072.0,29999.0,57736.0,78132.0,22370.0,38232.0,23077.0,44155.0,15500.0,12185.0
2026-05-06 15:55:44.903479,472657,1609505208347882,2808260517,-1.114592,0.163968,0.02928,2.02125,4.83875,-25.8825,20.296001,-53.464,-57.920002,concentric,4,5.0,24072.0,29999.0,57736.0,78132.0,22370.0,38232.0,23077.0,44155.0,15500.0,12185.0
2026-05-06 15:55:44.906052,472658,1609505208356788,2808269216,-1.114592,0.163968,0.02928,1.05875,6.23,-26.95,20.296001,-53.464,-57.920002,concentric,4,5.0,24072.0,29999.0,57736.0,78132.0,22370.0,38232.0,23077.0,44155.0,15500.0,12185.0
2026-05-06 15:55:44.908870,472659,1609505208371523,2808284198,-1.134112,0.191296,0.017568,-1.61,7.56875,-29.77625,20.672,-52.848003,-57.88,concentric,4,5.0,24072.0,29999.0,57736.0,78132.0,22370.0,38232.0,23077.0,44155.0,15500.0,12185.0
2026-05-06 15:55:44.911454,472660,1609505208380586,2808292931,-1.134112,0.191296,0.017568,-5.2325,7.00875,-33.08375,20.672,-52.848003,-57.88,concentric,4,5.0,24072.0,29999.0,57736.0,78132.0,22370.0,38232.0,23077.0,44155.0,15500.0,12185.0
2026-05-06 15:55:44.913782,472661,1609505208395143,2808307899,-1.179008,0.101504,-0.08784,-5.3725,5.81,-35.665,21.272001,-55.280003,-56.576004,concentric,4,5.0,24072.0,29999.0,57736.0,78132.0,22370.0,38232.0,23077.0,44155.0,15500.0,12185.0
2026-05-06 15:55:44.946495,472672,1609505208404084,2808316558,-1.149728,0.042944,0.050752,-0.525,5.145,-35.875,21.832,-54.432003,-57.096004,concentric,4,5.0,24104.0,30030.0,57487.0,78295.0,22410.0,38178.0,22915.0,44217.0,15503.0,12150.0
2026-05-06 15:55:44.948976,472673,1609505208418800,2808329608,-1.149728,0.042944,0.050752,4.445,4.83,-33.0575,21.832,-54.432003,-57.096004,concentric,4,5.0,24104.0,30030.0,57487.0,78295.0,22410.0,38178.0,22915.0,44217.0,15503.0,12150.0
2026-05-06 15:55:44.951469,472674,1609505208428264,2808340426,-1.1224,0.152256,0.064416,7.1225,6.86875,-29.14625,22.504002,-54.432003,-57.424004,concentric,4,5.0,24104.0,30030.0,57487.0,78295.0,22410.0,38178.0,22915.0,44217.0,15503.0,12150.0
2026-05-06 15:55:44.959600,472675,1609505208437188,2808349173,-1.1224,0.152256,0.064416,9.47625,9.52,-26.06625,22.504002,-54.432003,-57.424004,concentric,4,5.0,24104.0,30030.0,57487.0,78295.0,22410.0,38178.0,22915.0,44217.0,15503.0,12150.0
2026-05-06 15:55:44.963765,472676,1609505208451852,2808364214,-1.145824,0.226432,-0.001952,8.74125,10.78,-27.825,23.496,-54.160004,-57.832005,concentric,4,5.0,24104.0,30030.0,57487.0,78295.0,22410.0,38178.0,22915.0,44217.0,15503.0,12150.0
2026-05-06 15:55:44.972470,472677,1609505208460960,2808372971,-1.145824,0.226432,-0.001952,2.21375,12.0575,-32.38375,23.496,-54.160004,-57.832005,concentric,4,5.0,24104.0,30030.0,57487.0,78295.0,22410.0,38178.0,22915.0,44217.0,15503.0,12150.0
2026-05-06 15:55:45.005137,472678,1609505208475439,2808387893,-1.21024,0.1464,-0.005856,-3.5875,11.795,-36.46125,24.664001,-51.984,-58.120003,concentric,4,5.0,24104.0,30030.0,57487.0,78295.0,22410.0,38178.0,22915.0,44217.0,15503.0,12150.0
2026-05-06 15:55:45.007671,472679,1609505208484375,2808396625,-1.204384,0.06832,0.017568,-8.4525,10.54375,-39.10375,25.184002,-52.656002,-57.976,concentric,4,5.0,24104.0,30030.0,57487.0,78295.0,22410.0,38178.0,22915.0,44217.0,15503.0,12150.0
2026-05-06 15:55:45.010245,472680,1609505208493315,2808405322,-1.204384,0.06832,0.017568,-9.00375,9.8,-36.96,25.184002,-52.656002,-57.976,concentric,4,5.0,24104.0,30030.0,57487.0,78295.0,22410.0,38178.0,22915.0,44217.0,15503.0,12150.0
2026-05-06 15:55:45.066058,472691,1609505208508027,2808418886,-1.179008,0.111264,-0.02928,-2.5025,9.61625,-32.06,25.056002,-54.816,-56.912003,concentric,4,5.0,24256.0,29952.0,57024.0,78659.0,22470.0,38087.0,22720.0,44430.0,15547.0,12116.0
2026-05-06 15:55:45.068819,472692,1609505208517490,2808429732,-1.179008,0.111264,-0.02928,3.66625,9.52,-28.5075,25.056002,-54.816,-56.912003,concentric,4,5.0,24256.0,29952.0,57024.0,78659.0,22470.0,38087.0,22720.0,44430.0,15547.0,12116.0
2026-05-06 15:55:45.073852,472693,1609505208531986,2808444650,-1.218048,0.179584,-0.03904,8.44375,9.8875,-27.06375,26.056002,-51.320004,-59.624004,concentric,4,5.0,24256.0,29952.0,57024.0,78659.0,22470.0,38087.0,22720.0,44430.0,15547.0,12116.0
2026-05-06 15:55:45.076359,472694,1609505208541050,2808453381,-1.218048,0.179584,-0.03904,9.9575,10.08,-28.14875,26.056002,-51.320004,-59.624004,concentric,4,5.0,24256.0,29952.0,57024.0,78659.0,22470.0,38087.0,22720.0,44430.0,15547.0,12116.0
2026-05-06 15:55:45.078819,472695,1609505208550047,2808462120,-1.257088,0.199104,0.0,9.205,9.89625,-29.8725,26.448002,-50.936,-58.912003,concentric,4,5.0,24256.0,29952.0,57024.0,78659.0,22470.0,38087.0,22720.0,44430.0,15547.0,12116.0
2026-05-06 15:55:45.081257,472696,1609505208564584,2808477095,-1.216096,0.162016,-0.023424,5.03125,7.875,-29.960001,27.44,-51.032,-58.976,concentric,4,5.0,24256.0,29952.0,57024.0,78659.0,22470.0,38087.0,22720.0,44430.0,15547.0,12116.0
2026-05-06 15:55:45.083809,472697,1609505208573506,2808485801,-1.216096,0.162016,-0.023424,3.7275,6.95625,-29.741251,27.44,-51.032,-58.976,concentric,4,5.0,24256.0,29952.0,57024.0,78659.0,22470.0,38087.0,22720.0,44430.0,15547.0,12116.0
2026-05-06 15:55:45.097489,472698,1609505208587993,2808498815,-1.218048,0.140544,0.011712,0.77875,7.21875,-30.82625,28.176,-51.36,-59.528004,concentric,4,5.0,24256.0,29952.0,57024.0,78659.0,22470.0,38087.0,22720.0,44430.0,15547.0,12116.0
2026-05-06 15:55:45.111493,472699,1609505208597313,2808509575,-1.218048,0.140544,0.011712,-3.10625,7.5075,-30.765,28.176,-51.36,-59.528004,concentric,4,5.0,24256.0,29952.0,57024.0,78659.0,22470.0,38087.0,22720.0,44430.0,15547.0,12116.0
2026-05-06 15:55:45.140213,472710,1609505208606566,2808518321,-1.225856,0.1952,0.042944,-0.3325,7.4375,-28.23625,28.552002,-49.776,-61.040005,concentric,4,5.0,24449.0,30027.0,56602.0,78978.0,22618.0,38073.0,22531.0,44531.0,15624.0,12105.0
2026-05-06 15:55:45.142623,472711,1609505208621198,2808533374,-1.225856,0.1952,0.042944,2.75625,7.8225,-26.9325,28.552002,-49.776,-61.040005,concentric,4,5.0,24449.0,30027.0,56602.0,78978.0,22618.0,38073.0,22531.0,44531.0,15624.0,12105.0
2026-05-06 15:55:45.167582,472712,1609505208630245,2808542144,-1.204384,0.232288,-0.003904,4.13875,7.4025,-28.30625,28.920002,-49.688004,-59.312004,concentric,4,5.0,24449.0,30027.0,56602.0,78978.0,22618.0,38073.0,22531.0,44531.0,15624.0,12105.0
2026-05-06 15:55:45.192349,472713,1609505208644753,2808557167,-1.165344,0.238144,-0.025376,2.73875,7.49875,-29.70625,28.880001,-49.088,-59.336002,concentric,4,5.0,24449.0,30027.0,56602.0,78978.0,22618.0,38073.0,22531.0,44531.0,15624.0,12105.0
2026-05-06 15:55:45.208721,472714,1609505208653670,2808565863,-1.165344,0.238144,-0.025376,-0.28,7.69125,-31.3075,28.880001,-49.088,-59.336002,concentric,4,5.0,24449.0,30027.0,56602.0,78978.0,22618.0,38073.0,22531.0,44531.0,15624.0,12105.0
2026-05-06 15:55:45.211121,472715,1609505208662608,2808574577,-1.165344,0.238144,-0.025376,-3.92875,6.88625,-34.9125,28.880001,-49.088,-59.336002,concentric,4,5.0,24449.0,30027.0,56602.0,78978.0,22618.0,38073.0,22531.0,44531.0,15624.0,12105.0
2026-05-06 15:55:45.213627,472716,1609505208677071,2808589485,-1.23952,0.183488,-0.054656,-4.75125,6.0025,-37.065,29.448002,-48.672,-60.928,concentric,4,5.0,24449.0,30027.0,56602.0,78978.0,22618.0,38073.0,22531.0,44531.0,15624.0,12105.0
2026-05-06 15:55:45.216466,472717,1609505208685967,2808598190,-1.21024,0.148352,-0.003904,-4.1125,4.585,-37.10875,29.928001,-48.384003,-61.552002,concentric,4,5.0,24449.0,30027.0,56602.0,78978.0,22618.0,38073.0,22531.0,44531.0,15624.0,12105.0
2026-05-06 15:55:45.218909,472718,1609505208700515,2808613090,-1.21024,0.148352,-0.003904,-4.47125,2.6425,-35.1575,29.928001,-48.384003,-61.552002,concentric,4,5.0,24449.0,30027.0,56602.0,78978.0,22618.0,38073.0,22531.0,44531.0,15624.0,12105.0
2026-05-06 15:55:45.248437,472729,1609505208710370,2808622099,-1.134112,0.15616,-0.050752,-2.6425,1.89875,-30.94875,30.464,-47.752003,-61.856003,concentric,4,5.0,24993.0,30307.0,56050.0,79830.0,23076.0,38298.0,22277.0,44947.0,15892.0,12235.0
2026-05-06 15:55:45.249310,472730,1609505208719385,2808630984,-1.134112,0.15616,-0.050752,-1.225,1.67125,-29.00625,30.464,-47.752003,-61.856003,concentric,4,5.0,24993.0,30307.0,56050.0,79830.0,23076.0,38298.0,22277.0,44947.0,15892.0,12235.0
2026-05-06 15:55:45.253482,472731,1609505208733986,2808645982,-1.243424,0.181536,-0.015616,1.89875,0.67375,-29.05875,30.680002,-49.056004,-61.112003,concentric,4,5.0,24993.0,30307.0,56050.0,79830.0,23076.0,38298.0,22277.0,44947.0,15892.0,12235.0
2026-05-06 15:55:45.256383,472732,1609505208743020,2808654899,-1.243424,0.181536,-0.015616,6.5275,0.46375,-29.05,30.680002,-49.056004,-61.112003,concentric,4,5.0,24993.0,30307.0,56050.0,79830.0,23076.0,38298.0,22277.0,44947.0,15892.0,12235.0
2026-05-06 15:55:45.270203,472733,1609505208757465,2808669795,-1.24928,0.187392,-0.042944,5.6175,-0.4375,-27.0375,30.840002,-49.04,-60.952003,concentric,4,5.0,24993.0,30307.0,56050.0,79830.0,23076.0,38298.0,22277.0,44947.0,15892.0,12235.0
2026-05-06 15:55:45.276477,472734,1609505208766373,2808678693,-1.184864,0.128832,-0.056608,-1.04125,-2.37125,-26.29375,31.944002,-46.184002,-62.152004,concentric,4,5.0,24993.0,30307.0,56050.0,79830.0,23076.0,38298.0,22277.0,44947.0,15892.0,12235.0
2026-05-06 15:55:45.290154,472735,1609505208780900,2808691661,-1.184864,0.128832,-0.056608,-4.235,-3.2025,-26.9675,31.944002,-46.184002,-62.152004,concentric,4,5.0,24993.0,30307.0,56050.0,79830.0,23076.0,38298.0,22277.0,44947.0,15892.0,12235.0
2026-05-06 15:55:45.304011,472736,1609505208790121,2808702433,-1.237568,0.083936,-0.130784,-1.6625,-4.0425,-27.8425,32.176003,-46.488003,-62.688004,concentric,4,5.0,24993.0,30307.0,56050.0,79830.0,23076.0,38298.0,22277.0,44947.0,15892.0,12235.0
2026-05-06 15:55:45.310126,472737,1609505208799072,2808711136,-1.237568,0.083936,-0.130784,1.33,-4.585,-25.45375,32.176003,-46.488003,-62.688004,concentric,4,5.0,24993.0,30307.0,56050.0,79830.0,23076.0,38298.0,22277.0,44947.0,15892.0,12235.0
2026-05-06 15:55:45.342521,472748,1609505208813672,2808726234,-1.13216,0.148352,-0.003904,0.4025,-4.85625,-21.20125,32.152,-46.816,-61.864002,concentric,4,5.0,25523.0,30696.0,55601.0,80708.0,23514.0,38625.0,22083.0,45408.0,16157.0,12384.0
2026-05-06 15:55:45.343503,472749,1609505208822674,2808735130,-1.13216,0.148352,-0.003904,1.6625,-3.35125,-17.815,32.152,-46.816,-61.864002,concentric,4,5.0,25523.0,30696.0,55601.0,80708.0,23514.0,38625.0,22083.0,45408.0,16157.0,12384.0
2026-05-06 15:55:45.346351,472750,1609505208837293,2808748055,-1.159488,0.218624,-0.035136,2.80875,-1.67125,-17.56125,32.536003,-45.648003,-63.016003,concentric,4,5.0,25523.0,30696.0,55601.0,80708.0,23514.0,38625.0,22083.0,45408.0,16157.0,12384.0
2026-05-06 15:55:45.362621,472751,1609505208846634,2808758843,-1.204384,0.218624,0.005856,1.0325,-2.275,-20.72,32.792,-44.696003,-63.08,concentric,4,5.0,25523.0,30696.0,55601.0,80708.0,23514.0,38625.0,22083.0,45408.0,16157.0,12384.0
2026-05-06 15:55:45.365158,472752,1609505208855624,2808767598,-1.204384,0.218624,0.005856,0.1575,-2.58125,-23.54625,32.792,-44.696003,-63.08,concentric,4,5.0,25523.0,30696.0,55601.0,80708.0,23514.0,38625.0,22083.0,45408.0,16157.0,12384.0
2026-05-06 15:55:45.398922,472753,1609505208870188,2808782507,-1.061888,0.142496,-0.042944,-3.43875,-3.14125,-26.3025,33.192,-44.576,-63.280003,concentric,4,5.0,25523.0,30696.0,55601.0,80708.0,23514.0,38625.0,22083.0,45408.0,16157.0,12384.0
2026-05-06 15:55:45.401446,472754,1609505208879154,2808791216,-1.061888,0.142496,-0.042944,-12.03125,-1.8025,-28.0875,33.192,-44.576,-63.280003,concentric,4,5.0,25523.0,30696.0,55601.0,80708.0,23514.0,38625.0,22083.0,45408.0,16157.0,12384.0
2026-05-06 15:55:45.403936,472755,1609505208893685,2808806176,-1.079456,0.101504,-0.023424,-15.4525,0.51625,-28.00875,33.488003,-44.616,-63.432003,concentric,4,5.0,25523.0,30696.0,55601.0,80708.0,23514.0,38625.0,22083.0,45408.0,16157.0,12384.0
2026-05-06 15:55:45.412733,472756,1609505208902721,2808814933,-1.079456,0.101504,-0.023424,-13.27375,2.9575,-28.58625,33.488003,-44.616,-63.432003,concentric,4,5.0,25523.0,30696.0,55601.0,80708.0,23514.0,38625.0,22083.0,45408.0,16157.0,12384.0
2026-05-06 15:55:45.443830,472767,1609505208912037,2808823709,-1.198528,0.167872,-0.01952,-9.8875,4.27,-27.27375,34.024002,-44.112003,-63.432003,concentric,4,5.0,25792.0,30979.0,55680.0,81075.0,23759.0,38897.0,22106.0,45552.0,16313.0,12487.0
2026-05-06 15:55:45.446400,472768,1609505208926609,2808838697,-1.09312,0.171776,-0.083936,-2.28375,3.61375,-24.94625,33.736,-45.104004,-61.424004,concentric,4,5.0,25792.0,30979.0,55680.0,81075.0,23759.0,38897.0,22106.0,45552.0,16313.0,12487.0
2026-05-06 15:55:45.448829,472769,1609505208935568,2808847433,-1.09312,0.171776,-0.083936,-0.91875,4.29625,-26.46875,33.736,-45.104004,-61.424004,concentric,4,5.0,25792.0,30979.0,55680.0,81075.0,23759.0,38897.0,22106.0,45552.0,16313.0,12487.0
2026-05-06 15:55:45.462595,472770,1609505208950110,2808862386,-1.009184,0.072224,-0.05856,-10.01875,3.45625,-29.61,34.368,-44.728,-62.336002,concentric,4,5.0,25792.0,30979.0,55680.0,81075.0,23759.0,38897.0,22106.0,45552.0,16313.0,12487.0
2026-05-06 15:55:45.471502,472771,1609505208959208,2808871095,-1.009184,0.072224,-0.05856,-18.62875,4.59375,-32.3925,34.368,-44.728,-62.336002,concentric,4,5.0,25792.0,30979.0,55680.0,81075.0,23759.0,38897.0,22106.0,45552.0,16313.0,12487.0
2026-05-06 15:55:45.485086,472772,1609505208973710,2808886029,-1.126304,0.083936,-0.052704,-19.9325,5.7225,-31.3075,34.888,-42.616,-62.728004,concentric,4,5.0,25792.0,30979.0,55680.0,81075.0,23759.0,38897.0,22106.0,45552.0,16313.0,12487.0
2026-05-06 15:55:45.493814,472773,1609505208982621,2808894764,-1.126304,0.083936,-0.052704,-13.195,5.3725,-26.18,34.888,-42.616,-62.728004,concentric,4,5.0,25792.0,30979.0,55680.0,81075.0,23759.0,38897.0,22106.0,45552.0,16313.0,12487.0
2026-05-06 15:55:45.502687,472774,1609505208991629,2808903502,-1.091168,0.099552,-0.199104,-4.62,4.06,-22.93375,34.696003,-43.976,-62.280003,concentric,4,5.0,25792.0,30979.0,55680.0,81075.0,23759.0,38897.0,22106.0,45552.0,16313.0,12487.0
2026-05-06 15:55:45.538815,472775,1609505209006141,2808918407,-0.981856,0.103456,-0.06832,0.00875,0.77,-22.645,34.696003,-43.976,-62.280003,concentric,4,5.0,25792.0,30979.0,55680.0,81075.0,23759.0,38897.0,22106.0,45552.0,16313.0,12487.0
2026-05-06 15:55:45.619795,472786,1609505209015169,2808927225,-0.977952,0.103456,-0.06832,-0.9625,-2.9575,-24.0625,35.496002,-41.944,-63.088,concentric,4,5.0,26376.0,31446.0,55763.0,81610.0,24270.0,39301.0,22205.0,45853.0,16642.0,12659.0
2026-05-06 15:55:45.620037,472787,1609505209029643,2808942158,-1.048224,0.083936,-0.044896,0.07,-3.07125,-25.12125,35.248,-41.528004,-64.240005,concentric,4,5.0,26376.0,31446.0,55763.0,81610.0,24270.0,39301.0,22205.0,45853.0,16642.0,12659.0
2026-05-06 15:55:45.621974,472788,1609505209038550,2808950846,-1.048224,0.083936,-0.044896,-0.1925,-2.7125,-25.9175,35.248,-41.528004,-64.240005,concentric,4,5.0,26376.0,31446.0,55763.0,81610.0,24270.0,39301.0,22205.0,45853.0,16642.0,12659.0
2026-05-06 15:55:45.624330,472789,1609505209047476,2808959546,-1.01504,0.056608,-0.113216,1.96,-2.49375,-25.8825,35.72,-41.008003,-64.07201,concentric,4,5.0,26376.0,31446.0,55763.0,81610.0,24270.0,39301.0,22205.0,45853.0,16642.0,12659.0
2026-05-06 15:55:45.630536,472790,1609505209061989,2808974391,-1.01504,0.056608,-0.113216,0.8225,-3.10625,-26.022501,35.72,-41.008003,-64.07201,concentric,4,5.0,26376.0,31446.0,55763.0,81610.0,24270.0,39301.0,22205.0,45853.0,16642.0,12659.0
2026-05-06 15:55:45.630851,472791,1609505209070974,2808983174,-0.981856,0.0488,-0.0976,-0.91,-4.61125,-27.06375,35.936,-40.968002,-64.01601,concentric,4,5.0,26376.0,31446.0,55763.0,81610.0,24270.0,39301.0,22205.0,45853.0,16642.0,12659.0
2026-05-06 15:55:45.631086,472792,1609505209085499,2808998114,-0.981856,0.0488,-0.0976,0.9975,-4.445,-26.7925,35.936,-40.968002,-64.01601,concentric,4,5.0,26376.0,31446.0,55763.0,81610.0,24270.0,39301.0,22205.0,45853.0,16642.0,12659.0
2026-05-06 15:55:45.633457,472793,1609505209094436,2809006826,-0.993568,0.060512,0.017568,4.76,-3.21125,-26.87125,36.144,-40.408,-66.584,concentric,4,5.0,26376.0,31446.0,55763.0,81610.0,24270.0,39301.0,22205.0,45853.0,16642.0,12659.0
2026-05-06 15:55:45.692562,472805,1609505209109624,2809022317,-0.970144,0.099552,0.021472,5.565,-0.63875,-25.9175,36.640003,-41.296,-62.680004,concentric,4,5.0,26530.0,31560.0,55866.0,81804.0,24412.0,39429.0,22287.0,45970.0,16738.0,12743.0
2026-05-06 15:55:45.695202,472806,1609505209118659,2809031099,-0.970144,0.099552,0.021472,3.38625,2.91375,-24.87625,36.640003,-41.296,-62.680004,concentric,4,5.0,26530.0,31560.0,55866.0,81804.0,24412.0,39429.0,22287.0,45970.0,16738.0,12743.0
2026-05-06 15:55:45.697732,472807,1609505209127648,2809039854,-0.938912,0.052704,-0.085888,-2.12625,4.725,-27.81625,36.616,-39.56,-64.888,concentric,4,5.0,26530.0,31560.0,55866.0,81804.0,24412.0,39429.0,22287.0,45970.0,16738.0,12743.0
2026-05-06 15:55:45.700233,472808,1609505209142231,2809054853,-0.938912,0.052704,-0.085888,-9.7475,5.53,-31.24625,36.616,-39.56,-64.888,concentric,4,5.0,26530.0,31560.0,55866.0,81804.0,24412.0,39429.0,22287.0,45970.0,16738.0,12743.0
2026-05-06 15:55:45.702674,472809,1609505209151453,2809063642,-0.964288,-0.01952,-0.074176,-13.1425,3.815,-32.7775,36.800003,-39.272003,-64.736,concentric,4,5.0,26530.0,31560.0,55866.0,81804.0,24412.0,39429.0,22287.0,45970.0,16738.0,12743.0
2026-05-06 15:55:45.705220,472810,1609505209165979,2809078603,-0.964288,-0.01952,-0.074176,-8.68875,1.46125,-32.5675,36.800003,-39.272003,-64.736,concentric,4,5.0,26530.0,31560.0,55866.0,81804.0,24412.0,39429.0,22287.0,45970.0,16738.0,12743.0
2026-05-06 15:55:45.707793,472811,1609505209174880,2809087310,-0.942816,-0.050752,0.017568,-1.785,-0.8575,-29.05,37.128002,-39.08,-64.600006,concentric,4,5.0,26530.0,31560.0,55866.0,81804.0,24412.0,39429.0,22287.0,45970.0,16738.0,12743.0
2026-05-06 15:55:45.712210,472812,1609505209183815,2809096022,-0.942816,-0.050752,0.017568,1.9075,-3.0275,-24.01,37.128002,-39.08,-64.600006,concentric,4,5.0,26530.0,31560.0,55866.0,81804.0,24412.0,39429.0,22287.0,45970.0,16738.0,12743.0
2026-05-06 15:55:45.712508,472813,1609505209198321,2809111052,-0.938912,-0.003904,-0.080032,3.8675,-4.8125,-21.7,37.064003,-41.784,-63.432003,concentric,4,5.0,26530.0,31560.0,55866.0,81804.0,24412.0,39429.0,22287.0,45970.0,16738.0,12743.0
2026-05-06 15:55:45.720385,472814,1609505209207273,2809119795,-0.938912,-0.003904,0.007808,7.7875,-6.7725,-21.7175,37.064003,-41.784,-63.432003,concentric,4,5.0,26530.0,31560.0,55866.0,81804.0,24412.0,39429.0,22287.0,45970.0,16738.0,12743.0
2026-05-06 15:55:45.746365,472825,1609505209222031,2809134776,-0.96624,0.02928,0.007808,5.285,-10.78,-22.51375,37.656002,-40.056004,-62.280003,concentric,4,5.0,26169.0,31297.0,56206.0,81203.0,24083.0,39185.0,22431.0,45702.0,16524.0,12616.0
2026-05-06 15:55:45.751345,472826,1609505209231194,2809143579,-0.968192,0.0,-0.001952,4.22625,-13.5275,-19.985,37.848003,-39.712,-63.656002,concentric,4,5.0,26169.0,31297.0,56206.0,81203.0,24083.0,39185.0,22431.0,45702.0,16524.0,12616.0
2026-05-06 15:55:45.753934,472827,1609505209240149,2809152373,-0.968192,0.0,-0.001952,4.865,-13.4925,-19.075,37.848003,-39.712,-63.656002,concentric,4,5.0,26169.0,31297.0,56206.0,81203.0,24083.0,39185.0,22431.0,45702.0,16524.0,12616.0
2026-05-06 15:55:45.767669,472828,1609505209254699,2809167272,-0.919392,-0.05856,0.033184,1.96,-12.136251,-19.8275,37.864002,-39.136,-66.184006,concentric,4,5.0,26169.0,31297.0,56206.0,81203.0,24083.0,39185.0,22431.0,45702.0,16524.0,12616.0
2026-05-06 15:55:45.773935,472829,1609505209263629,2809176058,-0.919392,-0.05856,0.033184,2.275,-7.4025,-19.4075,37.864002,-39.136,-66.184006,concentric,4,5.0,26169.0,31297.0,56206.0,81203.0,24083.0,39185.0,22431.0,45702.0,16524.0,12616.0
2026-05-06 15:55:45.787479,472830,1609505209278101,2809188945,-0.999424,-0.023424,0.060512,0.95375,-4.0075,-19.2675,37.984,-37.440002,-64.792,concentric,4,5.0,26169.0,31297.0,56206.0,81203.0,24083.0,39185.0,22431.0,45702.0,16524.0,12616.0
2026-05-06 15:55:45.801484,472831,1609505209287415,2809199741,-0.999424,-0.023424,0.060512,7.63,-3.70125,-16.47625,37.984,-37.440002,-64.792,concentric,4,5.0,26169.0,31297.0,56206.0,81203.0,24083.0,39185.0,22431.0,45702.0,16524.0,12616.0
2026-05-06 15:55:45.815024,472832,1609505209302021,2809214646,-1.075552,-0.017568,0.017568,13.125,-4.83875,-13.93875,38.512,-37.464,-64.68,concentric,4,5.0,26169.0,31297.0,56206.0,81203.0,24083.0,39185.0,22431.0,45702.0,16524.0,12616.0
2026-05-06 15:55:45.843839,472843,1609505209311487,2809223555,-1.061888,-0.054656,0.142496,11.3225,-5.285,-11.78625,38.552002,-37.480003,-65.512,concentric,4,5.0,26044.0,31348.0,56678.0,80735.0,23926.0,39246.0,22631.0,45451.0,16456.0,12652.0
2026-05-06 15:55:45.846373,472844,1609505209320594,2809232396,-1.061888,-0.054656,0.142496,3.63125,-5.9675,-10.63125,38.552002,-37.480003,-65.512,concentric,4,5.0,26044.0,31348.0,56678.0,80735.0,23926.0,39246.0,22631.0,45451.0,16456.0,12652.0
2026-05-06 15:55:45.848790,472845,1609505209335125,2809247395,-0.977952,-0.001952,0.052704,-5.7225,-4.235,-8.54,38.36,-40.160004,-63.032,concentric,4,5.0,26044.0,31348.0,56678.0,80735.0,23926.0,39246.0,22631.0,45451.0,16456.0,12652.0
2026-05-06 15:55:45.855123,472846,1609505209344134,2809256174,-0.977952,-0.001952,0.052704,-9.3975,-2.1875,-7.5425,38.36,-40.160004,-63.032,concentric,4,5.0,26044.0,31348.0,56678.0,80735.0,23926.0,39246.0,22631.0,45451.0,16456.0,12652.0
2026-05-06 15:55:45.878998,472847,1609505209358719,2809271081,-1.061888,-0.003904,-0.056608,-9.205,-5.145,-9.975,38.712,-37.648003,-65.056,concentric,4,5.0,26044.0,31348.0,56678.0,80735.0,23926.0,39246.0,22631.0,45451.0,16456.0,12652.0
2026-05-06 15:55:45.904093,472848,1609505209367633,2809279809,-1.061888,-0.003904,-0.056608,-6.3175,-8.65375,-11.13875,38.712,-37.648003,-65.056,concentric,4,5.0,26044.0,31348.0,56678.0,80735.0,23926.0,39246.0,22631.0,45451.0,16456.0,12652.0
2026-05-06 15:55:45.928626,472849,1609505209376555,2809288522,-1.046272,-0.162016,-0.091744,-1.645,-13.265,-11.90875,38.800003,-36.552002,-65.04,concentric,4,5.0,26044.0,31348.0,56678.0,80735.0,23926.0,39246.0,22631.0,45451.0,16456.0,12652.0
2026-05-06 15:55:45.933546,472850,1609505209391078,2809303563,-1.001376,-0.218624,0.216672,0.4725,-13.78125,-10.9725,38.488003,-36.808002,-65.032005,concentric,4,5.0,26044.0,31348.0,56678.0,80735.0,23926.0,39246.0,22631.0,45451.0,16456.0,12652.0
2026-05-06 15:55:45.935976,472851,1609505209400038,2809312256,-1.001376,-0.218624,0.216672,-2.73875,-12.11,-6.20375,38.488003,-36.808002,-65.032005,concentric,4,5.0,26044.0,31348.0,56678.0,80735.0,23926.0,39246.0,22631.0,45451.0,16456.0,12652.0
2026-05-06 15:55:45.963939,472862,1609505209414776,2809327249,-1.028704,0.040992,0.138592,2.5375,-8.715,3.87625,38.416,-36.920002,-65.448006,concentric,4,5.0,26024.0,31374.0,56782.0,80717.0,23915.0,39272.0,22724.0,45454.0,16449.0,12684.0
2026-05-06 15:55:45.966499,472863,1609505209423784,2809336016,-1.028704,0.040992,0.138592,14.4725,-3.96375,11.06875,38.416,-36.920002,-65.448006,concentric,4,5.0,26024.0,31374.0,56782.0,80717.0,23915.0,39272.0,22724.0,45454.0,16449.0,12684.0
2026-05-06 15:55:45.969008,472864,1609505209432716,2809344777,-1.042368,0.080032,-0.138592,18.08625,-5.4075,10.01875,38.56,-36.752003,-65.064,concentric,4,5.0,26024.0,31374.0,56782.0,80717.0,23915.0,39272.0,22724.0,45454.0,16449.0,12684.0
2026-05-06 15:55:45.971473,472865,1609505209447322,2809359755,-1.042368,0.080032,-0.138592,10.92875,-7.91,1.33,38.56,-36.752003,-65.064,concentric,4,5.0,26024.0,31374.0,56782.0,80717.0,23915.0,39272.0,22724.0,45454.0,16449.0,12684.0
2026-05-06 15:55:45.973898,472866,1609505209456337,2809368478,-1.0248,-0.208864,0.1464,-10.08,-7.34125,-11.34875,38.696003,-36.752003,-65.408005,concentric,4,5.0,26024.0,31374.0,56782.0,80717.0,23915.0,39272.0,22724.0,45454.0,16449.0,12684.0
2026-05-06 15:55:45.982730,472867,1609505209470900,2809383441,-1.056032,-0.193248,-0.017568,-24.33375,-11.261251,-12.792501,38.24,-36.960003,-64.512,concentric,4,5.0,26024.0,31374.0,56782.0,80717.0,23915.0,39272.0,22724.0,45454.0,16449.0,12684.0
2026-05-06 15:55:45.991487,472868,1609505209479908,2809392182,-1.056032,-0.193248,-0.017568,-15.855001,-7.55125,-2.49375,38.24,-36.960003,-64.512,concentric,4,5.0,26024.0,31374.0,56782.0,80717.0,23915.0,39272.0,22724.0,45454.0,16449.0,12684.0
2026-05-06 15:55:46.024945,472869,1609505209494384,2809407076,-1.016992,-0.066368,0.003904,3.2725,-7.79625,6.195,38.168003,-36.864002,-64.54401,eccentric,4,5.0,26024.0,31374.0,56782.0,80717.0,23915.0,39272.0,22724.0,45454.0,16449.0,12684.0
2026-05-06 15:55:46.027576,472870,1609505209503291,2809415843,-1.016992,-0.066368,0.003904,15.65375,-12.495,8.4875,38.168003,-36.864002,-64.54401,eccentric,4,5.0,26024.0,31374.0,56782.0,80717.0,23915.0,39272.0,22724.0,45454.0,16449.0,12684.0
2026-05-06 15:55:46.055159,472881,1609505209512954,2809424752,-0.921344,-0.013664,0.031232,16.10875,-13.30875,10.3775,37.992,-37.0,-65.16,eccentric,4,5.0,25967.0,31405.0,56969.0,80516.0,23868.0,39278.0,22800.0,45348.0,16426.0,12684.0
2026-05-06 15:55:46.057657,472882,1609505209527865,2809439848,-0.921344,-0.013664,0.031232,11.3925,-10.9725,10.167501,37.992,-37.0,-65.16,eccentric,4,5.0,25967.0,31405.0,56969.0,80516.0,23868.0,39278.0,22800.0,45348.0,16426.0,12684.0
2026-05-06 15:55:46.060061,472883,1609505209536898,2809448646,-0.972096,-0.066368,0.171776,6.09875,-8.05875,4.7075,37.664,-39.640003,-63.856003,eccentric,4,5.0,25967.0,31405.0,56969.0,80516.0,23868.0,39278.0,22800.0,45348.0,16426.0,12684.0
2026-05-06 15:55:46.062680,472884,1609505209545897,2809457391,-0.972096,-0.066368,0.171776,-0.81375,-4.7775,1.42625,37.664,-39.640003,-63.856003,eccentric,4,5.0,25967.0,31405.0,56969.0,80516.0,23868.0,39278.0,22800.0,45348.0,16426.0,12684.0
2026-05-06 15:55:46.071455,472885,1609505209560425,2809472362,-0.983808,-0.111264,-0.001952,-7.805,-3.4125,2.52875,37.896,-39.456,-63.656002,eccentric,4,5.0,25967.0,31405.0,56969.0,80516.0,23868.0,39278.0,22800.0,45348.0,16426.0,12684.0
2026-05-06 15:55:46.081394,472886,1609505209569412,2809481071,-0.983808,-0.111264,-0.001952,-9.1,-7.1225,3.0625,37.896,-39.456,-63.656002,eccentric,4,5.0,25967.0,31405.0,56969.0,80516.0,23868.0,39278.0,22800.0,45348.0,16426.0,12684.0
2026-05-06 15:55:46.094977,472887,1609505209584001,2809495963,-0.954528,-0.06832,0.007808,-2.5375,-9.1875,4.01625,37.736,-39.192,-65.560005,eccentric,4,5.0,25967.0,31405.0,56969.0,80516.0,23868.0,39278.0,22800.0,45348.0,16426.0,12684.0
2026-05-06 15:55:46.103821,472888,1609505209592943,2809504697,-0.968192,-0.056608,0.062464,8.56625,-7.42875,5.97625,37.928,-37.424004,-64.864006,eccentric,4,5.0,25967.0,31405.0,56969.0,80516.0,23868.0,39278.0,22800.0,45348.0,16426.0,12684.0
2026-05-06 15:55:46.117473,472889,1609505209607501,2809519733,-0.968192,-0.056608,0.062464,10.73625,-5.24125,5.215,37.928,-37.424004,-64.864006,eccentric,4,5.0,25967.0,31405.0,56969.0,80516.0,23868.0,39278.0,22800.0,45348.0,16426.0,12684.0
2026-05-06 15:55:46.145131,472900,1609505209616670,2809528576,-0.979904,-0.046848,0.124928,5.67,-2.31875,5.5125,38.024002,-37.424004,-64.688,eccentric,4,5.0,26230.0,31676.0,56948.0,80852.0,24114.0,39579.0,22778.0,45515.0,16558.0,12831.0
2026-05-06 15:55:46.147561,472901,1609505209625693,2809537333,-0.979904,-0.046848,0.124928,1.5225,-0.2975,6.01125,38.024002,-37.424004,-64.688,eccentric,4,5.0,26230.0,31676.0,56948.0,80852.0,24114.0,39579.0,22778.0,45515.0,16558.0,12831.0
2026-05-06 15:55:46.153865,472902,1609505209640284,2809552420,-0.958432,-0.035136,0.025376,-0.56875,-0.60375,4.73375,37.800003,-37.768,-64.672005,eccentric,4,5.0,26230.0,31676.0,56948.0,80852.0,24114.0,39579.0,22778.0,45515.0,16558.0,12831.0
2026-05-06 15:55:46.160196,472903,1609505209649233,2809561185,-0.958432,-0.035136,0.025376,-1.75,-0.315,4.36625,37.800003,-37.768,-64.672005,eccentric,4,5.0,26230.0,31676.0,56948.0,80852.0,24114.0,39579.0,22778.0,45515.0,16558.0,12831.0
2026-05-06 15:55:46.184596,472904,1609505209663811,2809576093,-0.991616,-0.046848,0.015616,-0.70875,0.2975,3.85875,37.640003,-41.192,-64.608,eccentric,4,5.0,26230.0,31676.0,56948.0,80852.0,24114.0,39579.0,22778.0,45515.0,16558.0,12831.0
2026-05-06 15:55:46.189040,472905,1609505209672757,2809584824,-0.983808,-0.056608,0.062464,-0.13125,1.82875,2.0475,37.624,-37.864002,-64.088005,eccentric,4,5.0,26230.0,31676.0,56948.0,80852.0,24114.0,39579.0,22778.0,45515.0,16558.0,12831.0
2026-05-06 15:55:46.192345,472906,1609505209681726,2809593579,-0.983808,-0.056608,0.062464,-2.30125,3.5,3.08875,37.624,-37.864002,-64.088005,eccentric,4,5.0,26230.0,31676.0,56948.0,80852.0,24114.0,39579.0,22778.0,45515.0,16558.0,12831.0
2026-05-06 15:55:46.212695,472907,1609505209696219,2809608548,-0.993568,-0.011712,0.046848,-1.67125,5.71375,5.5125,37.296,-38.008003,-65.43201,eccentric,4,5.0,26230.0,31676.0,56948.0,80852.0,24114.0,39579.0,22778.0,45515.0,16558.0,12831.0
2026-05-06 15:55:46.215201,472908,1609505209705125,2809617245,-0.993568,-0.011712,0.046848,1.39125,5.74,7.2975,37.296,-38.008003,-65.43201,eccentric,4,5.0,26230.0,31676.0,56948.0,80852.0,24114.0,39579.0,22778.0,45515.0,16558.0,12831.0
2026-05-06 15:55:46.247703,472919,1609505209719709,2809632255,-0.960384,-0.050752,-0.033184,2.24875,4.41875,7.06125,37.304,-38.0,-63.776005,eccentric,4,5.0,26359.0,31809.0,56861.0,81067.0,24228.0,39752.0,22798.0,45647.0,16654.0,12902.0
2026-05-06 15:55:46.272611,472920,1609505209728789,2809641081,-0.960384,-0.050752,-0.033184,-1.8725,3.4825,7.56,37.304,-38.0,-63.776005,eccentric,4,5.0,26359.0,31809.0,56861.0,81067.0,24228.0,39752.0,22798.0,45647.0,16654.0,12902.0
2026-05-06 15:55:46.296325,472921,1609505209743559,2809656192,-0.999424,-0.035136,0.035136,-4.7425,2.17,8.715,36.872,-39.84,-63.56,eccentric,4,5.0,26359.0,31809.0,56861.0,81067.0,24228.0,39752.0,22798.0,45647.0,16654.0,12902.0
2026-05-06 15:55:46.298654,472922,1609505209752609,2809664911,-1.009184,0.007808,0.07808,0.63,3.21125,10.2375,36.856003,-38.36,-67.536,eccentric,4,5.0,26359.0,31809.0,56861.0,81067.0,24228.0,39752.0,22798.0,45647.0,16654.0,12902.0
2026-05-06 15:55:46.326495,472923,1609505209761549,2809673651,-1.009184,0.007808,0.07808,4.5675,4.59375,11.78625,36.856003,-38.36,-67.536,eccentric,4,5.0,26359.0,31809.0,56861.0,81067.0,24228.0,39752.0,22798.0,45647.0,16654.0,12902.0
2026-05-06 15:55:46.340208,472924,1609505209776045,2809688574,-0.95648,0.033184,0.031232,4.05125,6.3875,13.02,36.84,-38.688004,-65.048004,eccentric,4,5.0,26359.0,31809.0,56861.0,81067.0,24228.0,39752.0,22798.0,45647.0,16654.0,12902.0
2026-05-06 15:55:46.342691,472925,1609505209784969,2809697261,-0.95648,0.033184,0.031232,2.17875,7.7525,13.5975,36.84,-38.688004,-65.048004,eccentric,4,5.0,26359.0,31809.0,56861.0,81067.0,24228.0,39752.0,22798.0,45647.0,16654.0,12902.0
2026-05-06 15:55:46.345203,472926,1609505209799467,2809712216,-0.99552,0.007808,-0.001952,-1.995,9.205,12.2325,36.496002,-38.792004,-65.464005,eccentric,4,5.0,26359.0,31809.0,56861.0,81067.0,24228.0,39752.0,22798.0,45647.0,16654.0,12902.0
2026-05-06 15:55:46.347733,472927,1609505209808372,2809720916,-0.99552,0.007808,-0.001952,-4.83,8.18125,11.8475,36.496002,-38.792004,-65.464005,eccentric,4,5.0,26359.0,31809.0,56861.0,81067.0,24228.0,39752.0,22798.0,45647.0,16654.0,12902.0
2026-05-06 15:55:46.374817,472938,1609505209823035,2809733964,-1.009184,0.017568,0.02928,-5.67,6.51,13.5275,36.384003,-39.488003,-64.68,eccentric,4,5.0,26325.0,31825.0,56686.0,81275.0,24237.0,39762.0,22690.0,45766.0,16662.0,12904.0
2026-05-06 15:55:46.377286,472939,1609505209832539,2809744755,-0.983808,0.023424,-0.015616,-6.20375,4.33125,15.11125,36.384003,-39.488003,-64.064,eccentric,4,5.0,26325.0,31825.0,56686.0,81275.0,24237.0,39762.0,22690.0,45766.0,16662.0,12904.0
2026-05-06 15:55:46.379761,472940,1609505209841562,2809753529,-0.983808,0.023424,-0.015616,-4.97875,1.68,16.96625,36.312,-39.512,-64.064,eccentric,4,5.0,26325.0,31825.0,56686.0,81275.0,24237.0,39762.0,22690.0,45766.0,16662.0,12904.0
2026-05-06 15:55:46.382595,472941,1609505209856156,2809768514,-0.976,-0.001952,-0.003904,-3.7275,-0.8575,18.025,36.104,-43.048,-63.456,eccentric,4,5.0,26325.0,31825.0,56686.0,81275.0,24237.0,39762.0,22690.0,45766.0,16662.0,12904.0
2026-05-06 15:55:46.385088,472942,1609505209865076,2809777273,-0.976,-0.001952,-0.003904,-3.92875,-4.24375,18.08625,36.104,-43.048,-63.456,eccentric,4,5.0,26325.0,31825.0,56686.0,81275.0,24237.0,39762.0,22690.0,45766.0,16662.0,12904.0
2026-05-06 15:55:46.391199,472943,1609505209879678,2809792202,-1.016992,0.023424,-0.021472,-5.95,-7.14,19.9675,35.768,-41.504,-63.488003,eccentric,4,5.0,26325.0,31825.0,56686.0,81275.0,24237.0,39762.0,22690.0,45766.0,16662.0,12904.0
2026-05-06 15:55:46.400097,472944,1609505209888605,2809800946,-1.016992,0.023424,-0.021472,-0.81375,-8.365,22.6975,35.768,-41.504,-63.488003,eccentric,4,5.0,26325.0,31825.0,56686.0,81275.0,24237.0,39762.0,22690.0,45766.0,16662.0,12904.0
2026-05-06 15:55:46.407768,472945,1609505209897515,2809809598,-1.016992,0.05856,0.093696,3.77125,-10.64,22.9075,35.496002,-40.976,-64.496,eccentric,4,5.0,26325.0,31825.0,56686.0,81275.0,24237.0,39762.0,22690.0,45766.0,16662.0,12904.0
2026-05-06 15:55:46.466237,472956,1609505209912055,2809824913,-1.016992,0.05856,0.093696,6.405,-10.26375,24.70125,35.496002,-40.976,-64.496,eccentric,4,5.0,25762.0,31300.0,56704.0,80792.0,23784.0,39297.0,22688.0,45558.0,16375.0,12672.0
2026-05-06 15:55:46.468529,472957,1609505209921083,2809833663,-0.991616,0.095648,0.046848,8.7325,-10.36,26.9675,35.16,-41.536003,-64.832,eccentric,4,5.0,25762.0,31300.0,56704.0,80792.0,23784.0,39297.0,22688.0,45558.0,16375.0,12672.0
2026-05-06 15:55:46.471301,472958,1609505209935605,2809846531,-0.974048,0.076128,0.099552,7.4725,-11.375,25.8125,34.904003,-41.592003,-64.064,eccentric,4,5.0,25762.0,31300.0,56704.0,80792.0,23784.0,39297.0,22688.0,45558.0,16375.0,12672.0
2026-05-06 15:55:46.473828,472959,1609505209945069,2809857401,-0.974048,0.076128,0.099552,0.48125,-11.78625,25.2525,34.904003,-41.592003,-64.064,eccentric,4,5.0,25762.0,31300.0,56704.0,80792.0,23784.0,39297.0,22688.0,45558.0,16375.0,12672.0
2026-05-06 15:55:46.476340,472960,1609505209954095,2809866155,-1.013088,0.080032,0.042944,-4.515,-12.18875,26.6,34.072002,-43.432003,-62.256004,eccentric,4,5.0,25762.0,31300.0,56704.0,80792.0,23784.0,39297.0,22688.0,45558.0,16375.0,12672.0
2026-05-06 15:55:46.480111,472961,1609505209968669,2809881114,-1.013088,0.080032,0.042944,-1.60125,-9.7125,27.46625,34.072002,-43.432003,-62.256004,eccentric,4,5.0,25762.0,31300.0,56704.0,80792.0,23784.0,39297.0,22688.0,45558.0,16375.0,12672.0
2026-05-06 15:55:46.488828,472962,1609505209977611,2809889866,-0.99552,0.095648,0.062464,1.98625,-9.0475,26.90625,33.56,-45.696003,-61.232002,eccentric,4,5.0,25762.0,31300.0,56704.0,80792.0,23784.0,39297.0,22688.0,45558.0,16375.0,12672.0
2026-05-06 15:55:46.506201,472963,1609505209992190,2809904820,-0.99552,0.095648,0.062464,2.37125,-9.3275,27.46625,33.56,-45.696003,-61.232002,eccentric,4,5.0,25762.0,31300.0,56704.0,80792.0,23784.0,39297.0,22688.0,45558.0,16375.0,12672.0
2026-05-06 15:55:46.512422,472964,1609505210001129,2809913513,-0.942816,0.099552,0.025376,2.30125,-8.86375,28.91,33.72,-42.320004,-64.504005,eccentric,4,5.0,25762.0,31300.0,56704.0,80792.0,23784.0,39297.0,22688.0,45558.0,16375.0,12672.0
2026-05-06 15:55:46.521371,472965,1609505210010055,2809922425,-0.942816,0.099552,0.025376,2.31,-10.045,29.40875,33.72,-42.320004,-64.504005,eccentric,4,5.0,25762.0,31300.0,56704.0,80792.0,23784.0,39297.0,22688.0,45558.0,16375.0,12672.0
2026-05-06 15:55:46.548823,472976,1609505210024658,2809935461,-1.042368,0.169824,0.128832,6.3525,-10.73625,30.5725,33.032,-43.672,-63.248,eccentric,4,5.0,25150.0,30927.0,56994.0,80070.0,23309.0,38918.0,22834.0,45202.0,16079.0,12498.0
2026-05-06 15:55:46.551226,472977,1609505210034067,2809946337,-1.05408,0.210816,0.025376,12.39,-11.08625,32.54125,33.032,-45.072002,-61.536003,eccentric,4,5.0,25150.0,30927.0,56994.0,80070.0,23309.0,38918.0,22834.0,45202.0,16079.0,12498.0
2026-05-06 15:55:46.559688,472978,1609505210048664,2809961264,-1.05408,0.210816,0.025376,12.2675,-11.480001,32.54125,32.856003,-45.072002,-61.536003,eccentric,4,5.0,25150.0,30927.0,56994.0,80070.0,23309.0,38918.0,22834.0,45202.0,16079.0,12498.0
2026-05-06 15:55:46.568854,472979,1609505210057673,2809970040,-0.989664,0.158112,0.050752,8.18125,-13.25625,29.82,32.424,-45.232002,-61.912003,eccentric,4,5.0,25150.0,30927.0,56994.0,80070.0,23309.0,38918.0,22834.0,45202.0,16079.0,12498.0
2026-05-06 15:55:46.577557,472980,1609505210066618,2809978770,-0.989664,0.158112,0.050752,4.55875,-14.7875,28.210001,32.424,-45.232002,-61.912003,eccentric,4,5.0,25150.0,30927.0,56994.0,80070.0,23309.0,38918.0,22834.0,45202.0,16079.0,12498.0
2026-05-06 15:55:46.593847,472981,1609505210081338,2809993698,-1.036512,0.089792,0.042944,0.6125,-13.51,27.4225,32.280003,-46.552002,-62.728004,eccentric,4,5.0,25150.0,30927.0,56994.0,80070.0,23309.0,38918.0,22834.0,45202.0,16079.0,12498.0
2026-05-06 15:55:46.601533,472982,1609505210090463,2810002545,-1.036512,0.089792,0.042944,0.63875,-13.02875,28.06125,32.280003,-46.552002,-62.728004,eccentric,4,5.0,25150.0,30927.0,56994.0,80070.0,23309.0,38918.0,22834.0,45202.0,16079.0,12498.0
2026-05-06 15:55:46.641382,472983,1609505210104962,2810017543,-1.14192,0.183488,0.03904,11.4625,-11.97875,34.055,31.856,-45.512,-62.824,eccentric,4,5.0,25150.0,30927.0,56994.0,80070.0,23309.0,38918.0,22834.0,45202.0,16079.0,12498.0
2026-05-06 15:55:46.730207,472994,1609505210113878,2810026346,-1.14192,0.183488,0.03904,20.405,-9.9925,38.920002,31.856,-45.512,-62.824,eccentric,4,5.0,24734.0,30728.0,57302.0,79653.0,22983.0,38728.0,22932.0,44956.0,15878.0,12426.0
2026-05-06 15:55:46.732736,472995,1609505210128417,2810039291,-1.050176,0.261568,0.099552,18.12125,-10.15,38.0975,30.600002,-46.4,-65.472,eccentric,4,5.0,24734.0,30728.0,57302.0,79653.0,22983.0,38728.0,22932.0,44956.0,15878.0,12426.0
2026-05-06 15:55:46.735241,472996,1609505210137779,2810050095,-1.018944,0.265472,0.0488,12.3025,-8.155,34.982502,30.648,-46.208004,-63.096004,eccentric,4,5.0,24734.0,30728.0,57302.0,79653.0,22983.0,38728.0,22932.0,44956.0,15878.0,12426.0
2026-05-06 15:55:46.739311,472997,1609505210146709,2810058810,-1.018944,0.265472,0.0488,4.1125,-4.38375,32.76,30.648,-46.208004,-63.096004,eccentric,4,5.0,24734.0,30728.0,57302.0,79653.0,22983.0,38728.0,22932.0,44956.0,15878.0,12426.0
2026-05-06 15:55:46.740082,472998,1609505210161166,2810073718,-1.15168,0.23424,0.081984,-0.7,-3.52625,29.715,30.208002,-46.928,-62.728004,eccentric,4,5.0,24734.0,30728.0,57302.0,79653.0,22983.0,38728.0,22932.0,44956.0,15878.0,12426.0
2026-05-06 15:55:46.742563,472999,1609505210170214,2810082561,-1.15168,0.23424,0.081984,-2.6775,-2.35375,28.06125,30.208002,-46.928,-62.728004,eccentric,4,5.0,24734.0,30728.0,57302.0,79653.0,22983.0,38728.0,22932.0,44956.0,15878.0,12426.0
2026-05-06 15:55:46.746444,473000,1609505210184703,2810095462,-1.155584,0.277184,0.015616,0.3675,-1.74125,30.3275,29.352001,-47.72,-62.616,eccentric,4,5.0,24734.0,30728.0,57302.0,79653.0,22983.0,38728.0,22932.0,44956.0,15878.0,12426.0
2026-05-06 15:55:46.749396,473001,1609505210193885,2810106274,-1.155584,0.277184,0.015616,4.8125,-3.15875,30.80875,29.352001,-47.72,-62.616,eccentric,4,5.0,24734.0,30728.0,57302.0,79653.0,22983.0,38728.0,22932.0,44956.0,15878.0,12426.0
2026-05-06 15:55:46.749928,473002,1609505210203264,2810115333,-1.059936,0.201056,0.01952,4.7075,-2.45875,27.0375,28.560001,-47.696003,-62.432003,eccentric,4,5.0,24734.0,30728.0,57302.0,79653.0,22983.0,38728.0,22932.0,44956.0,15878.0,12426.0
2026-05-06 15:55:46.777499,473013,1609505210218744,2810130945,-1.08336,0.257664,0.152256,-0.11375,-2.26625,25.7425,28.024002,-49.808002,-61.096004,eccentric,4,5.0,24520.0,30543.0,57397.0,79429.0,22795.0,38556.0,22982.0,44854.0,15785.0,12356.0
2026-05-06 15:55:46.780176,473014,1609505210227752,2810139751,-1.08336,0.257664,0.152256,-0.56,-0.8925,27.9125,28.024002,-49.808002,-61.096004,eccentric,4,5.0,24520.0,30543.0,57397.0,79429.0,22795.0,38556.0,22982.0,44854.0,15785.0,12356.0
2026-05-06 15:55:46.782538,473015,1609505210236746,2810148474,-1.206336,0.376736,0.046848,3.185,0.23625,29.8025,28.136002,-50.600002,-61.696003,eccentric,4,5.0,24520.0,30543.0,57397.0,79429.0,22795.0,38556.0,22982.0,44854.0,15785.0,12356.0
2026-05-06 15:55:46.784952,473016,1609505210251312,2810163513,-1.206336,0.376736,0.046848,7.77,0.735,30.7125,28.136002,-50.600002,-61.696003,eccentric,4,5.0,24520.0,30543.0,57397.0,79429.0,22795.0,38556.0,22982.0,44854.0,15785.0,12356.0
2026-05-06 15:55:46.787464,473017,1609505210260339,2810172304,-1.198528,0.306464,-0.005856,11.96125,-1.19,29.015,27.064001,-51.2,-61.136,eccentric,4,5.0,24520.0,30543.0,57397.0,79429.0,22795.0,38556.0,22982.0,44854.0,15785.0,12356.0
2026-05-06 15:55:46.790003,473018,1609505210274959,2810187309,-1.198528,0.306464,-0.005856,3.5525,-4.48875,22.32125,27.064001,-51.2,-61.136,eccentric,4,5.0,24520.0,30543.0,57397.0,79429.0,22795.0,38556.0,22982.0,44854.0,15785.0,12356.0
2026-05-06 15:55:46.796278,473019,1609505210283889,2810196035,-1.097024,0.191296,0.035136,-8.07625,-6.6675,17.91125,26.568,-49.280003,-61.056004,eccentric,4,5.0,24520.0,30543.0,57397.0,79429.0,22795.0,38556.0,22982.0,44854.0,15785.0,12356.0
2026-05-06 15:55:46.805107,473020,1609505210293043,2810204802,-1.097024,0.191296,0.035136,-7.1925,-7.34125,19.565,26.568,-49.280003,-61.056004,eccentric,4,5.0,24520.0,30543.0,57397.0,79429.0,22795.0,38556.0,22982.0,44854.0,15785.0,12356.0
2026-05-06 15:55:46.817715,473021,1609505210307548,2810219766,-1.184864,0.226432,0.064416,3.68375,-6.18625,23.0825,26.464,-50.856003,-60.856003,eccentric,4,5.0,24520.0,30543.0,57397.0,79429.0,22795.0,38556.0,22982.0,44854.0,15785.0,12356.0
2026-05-06 15:55:46.851389,473032,1609505210316685,2810228511,-1.202432,0.306464,0.00976,13.265,-5.775,25.97,25.608002,-50.4,-62.104004,eccentric,4,5.0,24235.0,30337.0,57373.0,79127.0,22566.0,38343.0,22924.0,44655.0,15599.0,12268.0
2026-05-06 15:55:46.853830,473033,1609505210331950,2810244009,-1.202432,0.306464,0.00976,14.2625,-6.125,27.83375,25.608002,-50.4,-62.104004,eccentric,4,5.0,24235.0,30337.0,57373.0,79127.0,22566.0,38343.0,22924.0,44655.0,15599.0,12268.0
2026-05-06 15:55:46.856383,473034,1609505210341179,2810252935,-1.177056,0.314272,0.05856,9.17875,-7.04375,27.48375,24.976002,-53.904003,-59.448,eccentric,4,5.0,24235.0,30337.0,57373.0,79127.0,22566.0,38343.0,22924.0,44655.0,15599.0,12268.0
2026-05-06 15:55:46.860057,473035,1609505210350134,2810261641,-1.177056,0.314272,0.05856,6.79,-7.5775,22.58375,24.976002,-53.904003,-59.448,eccentric,4,5.0,24235.0,30337.0,57373.0,79127.0,22566.0,38343.0,22924.0,44655.0,15599.0,12268.0
2026-05-06 15:55:46.881411,473036,1609505210364708,2810276552,-1.184864,0.222528,0.066368,3.7975,-6.93875,18.655,24.768002,-50.984,-61.712,eccentric,4,5.0,24235.0,30337.0,57373.0,79127.0,22566.0,38343.0,22924.0,44655.0,15599.0,12268.0
2026-05-06 15:55:46.883955,473037,1609505210373616,2810285371,-1.184864,0.222528,0.066368,0.16625,-6.88625,17.42125,24.768002,-50.984,-61.712,eccentric,4,5.0,24235.0,30337.0,57373.0,79127.0,22566.0,38343.0,22924.0,44655.0,15599.0,12268.0
2026-05-06 15:55:46.917723,473038,1609505210388096,2810300396,-1.208288,0.228384,0.083936,-0.595,-7.035,18.41875,24.352001,-51.152004,-61.520004,eccentric,4,5.0,24235.0,30337.0,57373.0,79127.0,22566.0,38343.0,22924.0,44655.0,15599.0,12268.0
2026-05-06 15:55:46.920228,473039,1609505210397042,2810309104,-1.157536,0.286944,0.01952,1.4,-5.55625,21.0525,23.776001,-51.528004,-62.552002,eccentric,4,5.0,24235.0,30337.0,57373.0,79127.0,22566.0,38343.0,22924.0,44655.0,15599.0,12268.0
2026-05-06 15:55:46.930145,473040,1609505210411679,2810324021,-1.157536,0.286944,0.01952,5.88,-4.43625,21.98875,23.776001,-51.528004,-62.552002,eccentric,4,5.0,24235.0,30337.0,57373.0,79127.0,22566.0,38343.0,22924.0,44655.0,15599.0,12268.0
2026-05-06 15:55:46.978952,473051,1609505210420927,2810333003,-1.18096,0.25376,0.023424,6.55375,-3.33375,19.50375,23.320002,-53.408,-60.224003,eccentric,4,5.0,23814.0,30158.0,57791.0,78471.0,22182.0,38186.0,23140.0,44299.0,15396.0,12169.0
2026-05-06 15:55:46.981496,473052,1609505210430142,2810341816,-1.18096,0.25376,0.023424,2.80875,-3.78875,15.58375,23.320002,-53.408,-60.224003,eccentric,4,5.0,23814.0,30158.0,57791.0,78471.0,22182.0,38186.0,23140.0,44299.0,15396.0,12169.0
2026-05-06 15:55:47.006516,473053,1609505210444678,2810356754,-1.173152,0.222528,0.042944,-1.785,-4.025,13.16875,22.744001,-52.512,-61.424004,eccentric,4,5.0,23814.0,30158.0,57791.0,78471.0,22182.0,38186.0,23140.0,44299.0,15396.0,12169.0
2026-05-06 15:55:47.031310,473054,1609505210453657,2810365489,-1.173152,0.222528,0.042944,-0.88375,-4.80375,12.005,22.744001,-52.512,-61.424004,eccentric,4,5.0,23814.0,30158.0,57791.0,78471.0,22182.0,38186.0,23140.0,44299.0,15396.0,12169.0
2026-05-06 15:55:47.043830,473055,1609505210468192,2810380430,-1.159488,0.249856,0.013664,3.01875,-4.5675,10.68375,22.648,-51.848003,-61.128002,eccentric,4,5.0,23814.0,30158.0,57791.0,78471.0,22182.0,38186.0,23140.0,44299.0,15396.0,12169.0
2026-05-06 15:55:47.046363,473056,1609505210477146,2810389147,-1.159488,0.236192,0.037088,7.25375,-3.0625,8.95125,22.648,-51.848003,-63.176003,eccentric,4,5.0,23814.0,30158.0,57791.0,78471.0,22182.0,38186.0,23140.0,44299.0,15396.0,12169.0
2026-05-06 15:55:47.048814,473057,1609505210486079,2810397845,-1.196576,0.236192,0.037088,7.385,-2.0825,6.825,22.112001,-52.120003,-61.528004,eccentric,4,5.0,23814.0,30158.0,57791.0,78471.0,22182.0,38186.0,23140.0,44299.0,15396.0,12169.0
2026-05-06 15:55:47.051400,473058,1609505210500568,2810412721,-1.192672,0.232288,0.109312,3.14125,-0.69125,4.76,22.504002,-52.496002,-61.08,eccentric,4,5.0,23814.0,30158.0,57791.0,78471.0,22182.0,38186.0,23140.0,44299.0,15396.0,12169.0
2026-05-06 15:55:47.053864,473059,1609505210509490,2810421439,-1.192672,0.232288,0.109312,0.175,-0.13125,4.20875,22.504002,-52.496002,-61.08,eccentric,4,5.0,23814.0,30158.0,57791.0,78471.0,22182.0,38186.0,23140.0,44299.0,15396.0,12169.0
2026-05-06 15:55:47.081103,473070,1609505210524198,2810436811,-1.175104,0.212768,0.076128,-1.46125,-0.35875,3.45625,21.952002,-52.704002,-61.496002,eccentric,4,5.0,23450.0,30034.0,58250.0,77883.0,21908.0,38087.0,23329.0,43982.0,15234.0,12112.0
2026-05-06 15:55:47.083643,473071,1609505210533103,2810445538,-1.175104,0.212768,0.076128,-2.625,0.46375,0.72625,21.952002,-52.704002,-61.496002,eccentric,4,5.0,23450.0,30034.0,58250.0,77883.0,21908.0,38087.0,23329.0,43982.0,15234.0,12112.0
2026-05-06 15:55:47.086209,473072,1609505210547621,2810458449,-1.188768,0.169824,0.02928,-1.14625,0.44625,-1.39125,21.816002,-52.856003,-60.888004,eccentric,4,5.0,23450.0,30034.0,58250.0,77883.0,21908.0,38087.0,23329.0,43982.0,15234.0,12112.0
2026-05-06 15:55:47.088945,473073,1609505210557155,2810469421,-1.188768,0.169824,0.02928,-0.4025,0.18375,-2.59875,21.816002,-52.856003,-60.888004,eccentric,4,5.0,23450.0,30034.0,58250.0,77883.0,21908.0,38087.0,23329.0,43982.0,15234.0,12112.0
2026-05-06 15:55:47.091347,473074,1609505210566249,2810478247,-1.208288,0.142496,0.070272,-0.06125,-0.4025,-2.2575,21.352001,-53.984,-58.696003,eccentric,4,5.0,23450.0,30034.0,58250.0,77883.0,21908.0,38087.0,23329.0,43982.0,15234.0,12112.0
2026-05-06 15:55:47.093951,473075,1609505210580764,2810493206,-1.184864,0.138592,0.074176,1.085,0.18375,-1.54,21.240002,-54.248,-59.56,eccentric,4,5.0,23450.0,30034.0,58250.0,77883.0,21908.0,38087.0,23329.0,43982.0,15234.0,12112.0
2026-05-06 15:55:47.100223,473076,1609505210589713,2810501934,-1.184864,0.138592,0.074176,1.75875,1.49625,-0.07875,21.240002,-54.248,-59.56,eccentric,4,5.0,23450.0,30034.0,58250.0,77883.0,21908.0,38087.0,23329.0,43982.0,15234.0,12112.0
2026-05-06 15:55:47.114951,473077,1609505210598784,2810510661,-1.192672,0.128832,0.105408,0.86625,2.68625,0.8925,21.080002,-53.112003,-61.288002,eccentric,4,5.0,23450.0,30034.0,58250.0,77883.0,21908.0,38087.0,23329.0,43982.0,15234.0,12112.0
2026-05-06 15:55:47.132612,473078,1609505210613489,2810525626,-1.192672,0.128832,0.105408,-1.8375,2.47625,1.58375,21.080002,-53.112003,-61.288002,eccentric,4,5.0,23450.0,30034.0,58250.0,77883.0,21908.0,38087.0,23329.0,43982.0,15234.0,12112.0
2026-05-06 15:55:47.160204,473089,1609505210622620,2810534477,-1.188768,0.089792,0.115168,-1.89875,2.7825,3.71,21.112001,-53.008003,-60.888004,eccentric,4,5.0,23306.0,30027.0,58459.0,77254.0,21758.0,38052.0,23466.0,43646.0,15141.0,12122.0
2026-05-06 15:55:47.162731,473090,1609505210637227,2810549455,-1.188768,0.089792,0.115168,-2.9925,2.7825,6.335,21.112001,-53.008003,-60.888004,eccentric,4,5.0,23306.0,30027.0,58459.0,77254.0,21758.0,38052.0,23466.0,43646.0,15141.0,12122.0
2026-05-06 15:55:47.165203,473091,1609505210646222,2810558205,-1.1712,0.083936,0.089792,-3.14125,3.255,9.82625,21.016,-53.056004,-60.848003,eccentric,4,5.0,23306.0,30027.0,58459.0,77254.0,21758.0,38052.0,23466.0,43646.0,15141.0,12122.0
2026-05-06 15:55:47.171509,473092,1609505210660747,2810573231,-1.149728,0.074176,0.056608,-4.1125,4.0075,13.08125,20.264002,-53.328003,-60.984,eccentric,4,5.0,23306.0,30027.0,58459.0,77254.0,21758.0,38052.0,23466.0,43646.0,15141.0,12122.0
2026-05-06 15:55:47.180223,473093,1609505210669682,2810582026,-1.149728,0.074176,0.056608,-4.45375,4.52375,15.4,20.264002,-53.328003,-60.984,eccentric,4,5.0,23306.0,30027.0,58459.0,77254.0,21758.0,38052.0,23466.0,43646.0,15141.0,12122.0
2026-05-06 15:55:47.189034,473094,1609505210678616,2810590746,-1.149728,0.109312,0.095648,-6.06375,5.55625,18.0075,20.264002,-53.328003,-60.984,eccentric,4,5.0,23306.0,30027.0,58459.0,77254.0,21758.0,38052.0,23466.0,43646.0,15141.0,12122.0
2026-05-06 15:55:47.222564,473095,1609505210693255,2810605682,-1.16144,0.109312,0.095648,-5.85375,5.67875,19.985,19.704,-53.232002,-61.912003,eccentric,4,5.0,23306.0,30027.0,58459.0,77254.0,21758.0,38052.0,23466.0,43646.0,15141.0,12122.0
2026-05-06 15:55:47.224935,473096,1609505210702233,2810614403,-1.130208,0.150304,0.089792,-6.08125,5.495,20.93875,19.352001,-53.952003,-60.248,eccentric,4,5.0,23306.0,30027.0,58459.0,77254.0,21758.0,38052.0,23466.0,43646.0,15141.0,12122.0
2026-05-06 15:55:47.255194,473107,1609505210716727,2810629595,-1.130208,0.150304,0.089792,-6.545,6.04625,21.5075,19.352001,-53.952003,-60.248,eccentric,4,5.0,23218.0,29977.0,58652.0,76980.0,21715.0,38018.0,23540.0,43522.0,15100.0,12096.0
2026-05-06 15:55:47.257670,473108,1609505210725735,2810638358,-1.106784,0.13664,0.05856,-6.85125,6.615,20.1425,18.52,-54.456,-60.336002,eccentric,4,5.0,23218.0,29977.0,58652.0,76980.0,21715.0,38018.0,23540.0,43522.0,15100.0,12096.0
2026-05-06 15:55:47.260217,473109,1609505210734733,2810647169,-1.106784,0.13664,0.05856,-9.1175,6.755,17.68375,18.52,-54.456,-60.336002,eccentric,4,5.0,23218.0,29977.0,58652.0,76980.0,21715.0,38018.0,23540.0,43522.0,15100.0,12096.0
2026-05-06 15:55:47.262744,473110,1609505210749263,2810660114,-1.079456,0.124928,0.05856,-11.34875,5.8625,16.135,18.28,-55.960003,-59.232002,eccentric,4,5.0,23218.0,29977.0,58652.0,76980.0,21715.0,38018.0,23540.0,43522.0,15100.0,12096.0
2026-05-06 15:55:47.271488,473111,1609505210758616,2810670943,-1.079456,0.124928,0.05856,-8.65375,5.18,16.31875,18.28,-55.960003,-59.232002,eccentric,4,5.0,23218.0,29977.0,58652.0,76980.0,21715.0,38018.0,23540.0,43522.0,15100.0,12096.0
2026-05-06 15:55:47.285394,473112,1609505210773163,2810685853,-1.046272,0.15616,0.093696,-3.99,4.57625,15.190001,18.232,-55.672,-57.288002,eccentric,4,5.0,23218.0,29977.0,58652.0,76980.0,21715.0,38018.0,23540.0,43522.0,15100.0,12096.0
2026-05-06 15:55:47.293996,473113,1609505210782111,2810694566,-1.061888,0.206912,0.072224,-1.1025,4.17375,12.67875,17.952002,-54.000004,-60.784004,eccentric,4,5.0,23218.0,29977.0,58652.0,76980.0,21715.0,38018.0,23540.0,43522.0,15100.0,12096.0
2026-05-06 15:55:47.307603,473114,1609505210796593,2810707504,-1.061888,0.206912,0.072224,-2.17875,4.3575,10.08,17.952002,-54.000004,-60.784004,eccentric,4,5.0,23218.0,29977.0,58652.0,76980.0,21715.0,38018.0,23540.0,43522.0,15100.0,12096.0
2026-05-06 15:55:47.321308,473115,1609505210805970,2810718324,-1.04432,0.163968,0.035136,-5.08375,3.5525,7.27125,17.648,-55.528004,-59.168003,eccentric,4,5.0,23218.0,29977.0,58652.0,76980.0,21715.0,38018.0,23540.0,43522.0,15100.0,12096.0
2026-05-06 15:55:47.324885,473116,1609505210814882,2810727060,-1.04432,0.163968,0.035136,-7.9625,3.325,4.99625,17.648,-55.528004,-59.168003,eccentric,4,5.0,23218.0,29977.0,58652.0,76980.0,21715.0,38018.0,23540.0,43522.0,15100.0,12096.0
2026-05-06 15:55:47.400027,473127,1609505210829881,2810742323,-1.057984,0.134688,0.056608,-9.0825,2.695,4.0775,17.416,-54.128002,-60.552002,eccentric,4,5.0,23437.0,30167.0,58781.0,77164.0,21904.0,38283.0,23606.0,43627.0,15252.0,12230.0
2026-05-06 15:55:47.408734,473128,1609505210838816,2810751069,-1.057984,0.134688,0.056608,-9.54625,2.80875,3.68375,17.416,-54.128002,-60.552002,eccentric,4,5.0,23437.0,30167.0,58781.0,77164.0,21904.0,38283.0,23606.0,43627.0,15252.0,12230.0
2026-05-06 15:55:47.415169,473129,1609505210853481,2810766008,-1.050176,0.173728,0.074176,-7.04375,2.905,3.885,17.800001,-53.848003,-60.128002,eccentric,4,5.0,23437.0,30167.0,58781.0,77164.0,21904.0,38283.0,23606.0,43627.0,15252.0,12230.0
2026-05-06 15:55:47.417629,473130,1609505210862572,2810774702,-1.057984,0.199104,0.033184,-3.43,2.555,3.80625,17.736,-54.136,-60.448,eccentric,4,5.0,23437.0,30167.0,58781.0,77164.0,21904.0,38283.0,23606.0,43627.0,15252.0,12230.0
2026-05-06 15:55:47.420160,473131,1609505210871703,2810783500,-1.057984,0.199104,0.033184,-2.94875,2.42375,2.24,17.736,-54.136,-60.448,eccentric,4,5.0,23437.0,30167.0,58781.0,77164.0,21904.0,38283.0,23606.0,43627.0,15252.0,12230.0
2026-05-06 15:55:47.422670,473132,1609505210886195,2810798476,-1.04432,0.203008,0.070272,-4.57625,2.77375,1.51375,17.656,-54.440002,-60.160004,eccentric,4,5.0,23437.0,30167.0,58781.0,77164.0,21904.0,38283.0,23606.0,43627.0,15252.0,12230.0
2026-05-06 15:55:47.425047,473133,1609505210895082,2810807223,-1.04432,0.203008,0.070272,-4.69875,2.51125,-1.65375,17.656,-54.440002,-60.160004,eccentric,4,5.0,23437.0,30167.0,58781.0,77164.0,21904.0,38283.0,23606.0,43627.0,15252.0,12230.0
2026-05-06 15:55:47.427599,473134,1609505210909618,2810822163,-1.061888,0.1952,0.052704,-5.95,2.5725,-4.795,17.36,-54.352,-60.280003,eccentric,4,5.0,23437.0,30167.0,58781.0,77164.0,21904.0,38283.0,23606.0,43627.0,15252.0,12230.0
2026-05-06 15:55:47.460234,473145,1609505210918561,2810830847,-1.061888,0.1952,0.052704,-6.86875,1.77625,-6.8775,17.36,-54.352,-60.280003,eccentric,4,5.0,23569.0,30270.0,58853.0,77381.0,22014.0,38418.0,23643.0,43760.0,15309.0,12296.0
2026-05-06 15:55:47.462712,473146,1609505210927674,2810839536,-1.091168,0.18544,0.023424,-5.55625,1.2075,-9.4325,18.048,-54.760002,-59.200005,eccentric,4,5.0,23569.0,30270.0,58853.0,77381.0,22014.0,38418.0,23643.0,43760.0,15309.0,12296.0
2026-05-06 15:55:47.465237,473147,1609505210942399,2810854640,-1.110688,0.163968,0.025376,-3.42125,1.47,-10.8675,18.384,-54.152004,-60.368004,eccentric,4,5.0,23569.0,30270.0,58853.0,77381.0,22014.0,38418.0,23643.0,43760.0,15309.0,12296.0
2026-05-06 15:55:47.467756,473148,1609505210951488,2810863513,-1.110688,0.163968,0.025376,-4.24375,1.68875,-11.50625,18.384,-54.152004,-60.368004,eccentric,4,5.0,23569.0,30270.0,58853.0,77381.0,22014.0,38418.0,23643.0,43760.0,15309.0,12296.0
