pc_time,serial_num,sensor_ts,host_ts,ax,ay,az,gx,gy,gz,mx,my,mz,phase,rpe,weight_kg,ppg_a,ppg_b,ppg_c,ppg_d,ppg_e
2026-04-08 21:44:24.825527,180179,1609503837037862,1437004534,1.06384,0.031232,0.18544,12.80125,-7.41125,3.31625,-30.288002,-3.608,-7.36,concentric,4,3.0,18330.0,136806.0,223467.0,275076.0,260522.0
2026-04-08 21:44:24.828329,180180,1609503837046876,1437013193,1.065792,0.095648,0.103456,17.92,-6.95625,6.02,-29.920002,-3.432,-8.56,concentric,4,3.0,18330.0,136806.0,223467.0,275076.0,260522.0
2026-04-08 21:44:24.831776,180181,1609503837055807,1437021850,1.065792,0.095648,0.103456,13.58,-7.18375,7.77875,-29.920002,-3.432,-8.56,concentric,4,3.0,18330.0,136806.0,223467.0,275076.0,260522.0
2026-04-08 21:44:24.833468,180182,1609503837070289,1437036695,1.14192,-0.017568,0.197152,4.62,-9.70375,9.47625,-29.920002,-3.144,-8.608001,concentric,4,3.0,18330.0,136806.0,223467.0,275076.0,260522.0
2026-04-08 21:44:24.835789,180183,1609503837079196,1437045379,1.14192,-0.017568,0.197152,-6.5625,-13.7725,9.765,-29.920002,-3.144,-8.608001,concentric,4,3.0,18330.0,136806.0,223467.0,275076.0,260522.0
2026-04-08 21:44:24.866060,180184,1609503837093718,1437060278,1.145824,-0.130784,0.261568,-11.08625,-18.68125,7.385,-29.560001,-3.016,-8.784,concentric,4,3.0,18330.0,136806.0,223467.0,275076.0,260522.0
2026-04-08 21:44:24.894725,180195,1609503837102684,1437069026,1.145824,-0.130784,0.261568,-3.885,-22.3825,5.06625,-29.560001,-3.016,-8.784,concentric,4,3.0,18626.0,137446.0,223967.0,275103.0,260296.0
2026-04-08 21:44:24.897201,180196,1609503837117160,1437083898,1.057984,-0.121024,0.095648,12.01375,-24.8325,3.05375,-29.344002,-2.48,-9.160001,concentric,4,3.0,18626.0,137446.0,223967.0,275103.0,260296.0
2026-04-08 21:44:24.899694,180197,1609503837126177,1437092638,1.057984,-0.035136,0.0,30.135,-23.7475,2.26625,-29.344002,-2.48,-7.112001,concentric,4,3.0,18626.0,137446.0,223967.0,275103.0,260296.0
2026-04-08 21:44:24.903657,180198,1609503837135106,1437101321,1.071648,-0.035136,0.0,39.357502,-22.6275,1.1375,-29.320002,-2.328,-7.336,concentric,4,3.0,18626.0,137446.0,223967.0,275103.0,260296.0
2026-04-08 21:44:24.911112,180199,1609503837149709,1437116212,1.163392,-0.023424,0.103456,32.03375,-23.1175,-1.77625,-28.504002,-1.712,-9.048,concentric,4,3.0,18626.0,137446.0,223967.0,275103.0,260296.0
2026-04-08 21:44:24.915250,180200,1609503837158629,1437124901,1.163392,-0.023424,0.103456,16.9575,-25.64625,-5.50375,-28.504002,-1.712,-9.048,concentric,4,3.0,18626.0,137446.0,223967.0,275103.0,260296.0
2026-04-08 21:44:24.943558,180201,1609503837173125,1437139750,1.067744,-0.0976,0.070272,4.17375,-26.845,-6.335,-28.264002,-1.584,-9.64,concentric,4,3.0,18626.0,137446.0,223967.0,275103.0,260296.0
2026-04-08 21:44:24.948037,180202,1609503837182056,1437148405,1.067744,-0.0976,0.070272,2.1875,-27.43125,-7.805,-28.264002,-1.584,-9.64,concentric,4,3.0,18626.0,137446.0,223967.0,275103.0,260296.0
2026-04-08 21:44:24.978902,180213,1609503837196577,1437163227,1.046272,-0.148352,0.095648,5.6525,-26.241251,-11.865,-28.272001,-1.84,-10.88,concentric,4,3.0,18641.0,137314.0,223634.0,274696.0,259928.0
2026-04-08 21:44:24.980514,180214,1609503837205922,1437171954,1.046272,-0.148352,0.095648,11.89125,-25.68125,-14.51625,-28.272001,-1.84,-10.88,concentric,4,3.0,18641.0,137314.0,223634.0,274696.0,259928.0
2026-04-08 21:44:24.982124,180215,1609503837214893,1437180644,1.016992,-0.122976,-0.103456,15.65375,-24.6925,-14.42875,-27.512001,-1.8,-9.432,concentric,4,3.0,18641.0,137314.0,223634.0,274696.0,259928.0
2026-04-08 21:44:24.987481,180216,1609503837229373,1437195500,1.04432,-0.08784,0.027328,13.58875,-25.20875,-14.83125,-27.136002,-1.704,-11.552001,concentric,4,3.0,18641.0,137314.0,223634.0,274696.0,259928.0
2026-04-08 21:44:25.016058,180217,1609503837238348,1437204210,1.04432,-0.08784,0.027328,8.53125,-26.18,-16.82625,-27.136002,-1.704,-11.552001,concentric,4,3.0,18641.0,137314.0,223634.0,274696.0,259928.0
2026-04-08 21:44:25.020570,180218,1609503837252812,1437219139,1.011136,-0.140544,0.162016,6.44,-26.15375,-19.29375,-26.944002,-1.44,-11.664001,concentric,4,3.0,18641.0,137314.0,223634.0,274696.0,259928.0
2026-04-08 21:44:25.022068,180219,1609503837261689,1437227787,1.011136,-0.140544,0.162016,9.14375,-25.9525,-20.86,-26.944002,-1.44,-11.664001,concentric,4,3.0,18641.0,137314.0,223634.0,274696.0,259928.0
2026-04-08 21:44:25.028795,180220,1609503837270586,1437236507,0.890112,-0.11712,-0.064416,11.97,-25.45375,-21.42,-26.320002,-1.536,-12.376,concentric,4,3.0,18641.0,137314.0,223634.0,274696.0,259928.0
2026-04-08 21:44:25.060737,180221,1609503837285030,1437251387,0.890112,-0.11712,-0.064416,16.35375,-23.31875,-22.23375,-26.320002,-1.536,-12.376,concentric,4,3.0,18641.0,137314.0,223634.0,274696.0,259928.0
2026-04-08 21:44:25.062981,180222,1609503837293926,1437260093,0.938912,-0.085888,-0.1952,17.928751,-21.875,-21.35,-25.984001,-1.448,-11.664001,concentric,4,3.0,18641.0,137314.0,223634.0,274696.0,259928.0
2026-04-08 21:44:25.090715,180233,1609503837308493,1437275021,0.91744,-0.091744,-0.167872,13.4225,-21.07,-20.895,-25.960001,-1.408,-11.496,concentric,4,3.0,18742.0,137602.0,223819.0,274683.0,259881.0
2026-04-08 21:44:25.126999,180234,1609503837317620,1437283787,0.91744,-0.091744,-0.167872,7.62125,-20.20375,-23.31,-25.960001,-1.408,-11.496,concentric,4,3.0,18742.0,137602.0,223819.0,274683.0,259881.0
2026-04-08 21:44:25.131433,180235,1609503837332134,1437298712,0.93696,-0.091744,0.089792,3.71,-18.445,-26.9325,-25.576002,-1.208,-12.240001,concentric,4,3.0,18742.0,137602.0,223819.0,274683.0,259881.0
2026-04-08 21:44:25.133109,180236,1609503837341068,1437307413,0.93696,-0.091744,0.089792,0.70875,-15.9775,-30.51125,-25.576002,-1.208,-12.240001,concentric,4,3.0,18742.0,137602.0,223819.0,274683.0,259881.0
2026-04-08 21:44:25.134592,180237,1609503837349975,1437316099,0.91744,-0.08784,-0.197152,-1.575,-13.825,-31.64875,-25.288002,-1.432,-13.376,concentric,4,3.0,18742.0,137602.0,223819.0,274683.0,259881.0
2026-04-08 21:44:25.138887,180238,1609503837364490,1437331024,0.91744,-0.08784,-0.197152,-4.1825,-12.95,-32.64625,-25.288002,-1.432,-13.376,concentric,4,3.0,18742.0,137602.0,223819.0,274683.0,259881.0
2026-04-08 21:44:25.141592,180239,1609503837373388,1437339673,0.974048,-0.109312,-0.124928,-6.65,-12.46,-33.6175,-24.848001,-1.496,-13.528001,concentric,4,3.0,18742.0,137602.0,223819.0,274683.0,259881.0
2026-04-08 21:44:25.153006,180240,1609503837387906,1437354566,0.9272,-0.081984,-0.001952,-8.54875,-11.89125,-34.64125,-24.848001,-1.496,-13.528001,concentric,4,3.0,18742.0,137602.0,223819.0,274683.0,259881.0
2026-04-08 21:44:25.178563,180251,1609503837396942,1437363512,0.929152,-0.081984,-0.001952,-11.85625,-11.83,-36.98625,-24.792002,-1.856,-13.776001,concentric,4,3.0,18765.0,137510.0,223431.0,274278.0,259542.0
2026-04-08 21:44:25.181752,180252,1609503837411441,1437378413,0.894016,-0.099552,-0.072224,-9.6425,-10.49125,-39.99625,-24.568,-2.256,-13.64,concentric,4,3.0,18765.0,137510.0,223431.0,274278.0,259542.0
2026-04-08 21:44:25.183351,180253,1609503837420365,1437387103,0.894016,-0.099552,-0.072224,-6.30875,-9.91375,-42.175,-24.568,-2.256,-13.64,concentric,4,3.0,18765.0,137510.0,223431.0,274278.0,259542.0
2026-04-08 21:44:25.187430,180254,1609503837429368,1437395807,0.913536,-0.040992,-0.103456,-3.2375,-9.17,-43.49625,-24.032001,-2.0,-13.656001,concentric,4,3.0,18765.0,137510.0,223431.0,274278.0,259542.0
2026-04-08 21:44:25.216095,180255,1609503837443861,1437410680,0.913536,-0.040992,-0.103456,-1.96,-8.46125,-45.2725,-24.032001,-2.0,-13.656001,concentric,4,3.0,18765.0,137510.0,223431.0,274278.0,259542.0
2026-04-08 21:44:25.220456,180256,1609503837452765,1437419323,1.011136,-0.02928,-0.03904,-5.08375,-7.46375,-46.75125,-23.776001,-2.664,-13.904,concentric,4,3.0,18765.0,137510.0,223431.0,274278.0,259542.0
2026-04-08 21:44:25.224205,180257,1609503837467250,1437434202,1.011136,-0.02928,-0.03904,-10.9375,-7.1225,-47.78375,-23.776001,-2.664,-13.904,concentric,4,3.0,18765.0,137510.0,223431.0,274278.0,259542.0
2026-04-08 21:44:25.254518,180258,1609503837476168,1437442864,1.018944,-0.066368,-0.005856,-17.22,-7.76125,-49.16625,-23.840002,-2.816,-11.912001,concentric,4,3.0,18765.0,137510.0,223431.0,274278.0,259542.0
2026-04-08 21:44:25.256758,180259,1609503837490690,1437457773,0.903776,-0.070272,-0.07808,-20.7375,-8.0325,-51.7475,-23.136002,-2.928,-14.352,concentric,4,3.0,18765.0,137510.0,223431.0,274278.0,259542.0
2026-04-08 21:44:25.286357,180270,1609503837500104,1437466632,0.903776,-0.070272,-0.07808,-16.91375,-8.26875,-54.355,-23.136002,-2.928,-14.352,concentric,4,3.0,18856.0,137727.0,223551.0,274296.0,259499.0
2026-04-08 21:44:25.288075,180271,1609503837509155,1437475319,0.977952,-0.054656,-0.15616,-12.285,-9.52875,-54.94125,-22.968,-3.376,-14.056001,concentric,4,3.0,18856.0,137727.0,223551.0,274296.0,259499.0
2026-04-08 21:44:25.289718,180272,1609503837523772,1437490271,0.977952,-0.054656,-0.15616,-9.4325,-11.36625,-56.25375,-22.968,-3.376,-14.056001,concentric,4,3.0,18856.0,137727.0,223551.0,274296.0,259499.0
2026-04-08 21:44:25.293737,180273,1609503837532682,1437498929,1.01504,-0.011712,0.121024,-9.40625,-14.69125,-57.70625,-22.584002,-3.36,-14.032001,concentric,4,3.0,18856.0,137727.0,223551.0,274296.0,259499.0
2026-04-08 21:44:25.322363,180274,1609503837547199,1437513805,1.01504,-0.011712,0.121024,-11.40125,-16.66,-62.9125,-22.584002,-3.36,-14.032001,concentric,4,3.0,18856.0,137727.0,223551.0,274296.0,259499.0
2026-04-08 21:44:25.326740,180275,1609503837556140,1437522485,0.983808,-0.007808,0.007808,-9.8175,-17.15875,-66.745,-22.368002,-3.88,-14.688001,concentric,4,3.0,18856.0,137727.0,223551.0,274296.0,259499.0
2026-04-08 21:44:25.328359,180276,1609503837565083,1437531141,0.983808,-0.007808,0.007808,-9.89625,-18.50625,-61.83625,-22.368002,-3.88,-14.688001,concentric,4,3.0,18856.0,137727.0,223551.0,274296.0,259499.0
2026-04-08 21:44:25.359463,180277,1609503837579600,1437546023,1.022848,0.02928,-0.035136,-6.92125,-18.6375,-56.385002,-21.984001,-4.664,-15.080001,concentric,4,3.0,18856.0,137727.0,223551.0,274296.0,259499.0
2026-04-08 21:44:25.361802,180278,1609503837588558,1437554683,1.022848,0.02928,-0.035136,-7.2625,-17.82375,-57.041252,-21.984001,-4.664,-15.080001,concentric,4,3.0,18856.0,137727.0,223551.0,274296.0,259499.0
2026-04-08 21:44:25.391974,180289,1609503837603134,1437569634,0.977952,0.027328,-0.013664,-16.45,-18.82125,-59.6225,-21.248001,-4.808,-16.528,concentric,4,3.0,18952.0,138181.0,224148.0,274768.0,259803.0
2026-04-08 21:44:25.394634,180290,1609503837612079,1437578361,0.899872,0.017568,-0.001952,-24.36875,-20.58875,-58.135002,-21.216002,-5.184,-15.752001,concentric,4,3.0,18952.0,138181.0,224148.0,274768.0,259803.0
2026-04-08 21:44:25.429799,180291,1609503837626560,1437593254,0.899872,0.017568,-0.001952,-25.34,-20.51,-57.041252,-21.216002,-5.184,-15.752001,concentric,4,3.0,18952.0,138181.0,224148.0,274768.0,259803.0
2026-04-08 21:44:25.433344,180292,1609503837635563,1437601937,0.925248,0.007808,-0.091744,-22.98625,-20.772501,-56.6475,-20.968,-5.296001,-15.392001,concentric,4,3.0,18952.0,138181.0,224148.0,274768.0,259803.0
2026-04-08 21:44:25.435797,180293,1609503837644480,1437610601,0.925248,0.007808,-0.091744,-20.9825,-19.45125,-54.6175,-20.968,-5.296001,-15.392001,concentric,4,3.0,18952.0,138181.0,224148.0,274768.0,259803.0
2026-04-08 21:44:25.438341,180294,1609503837658956,1437625486,0.911584,0.05856,-0.111264,-21.02625,-18.57625,-52.5,-20.416,-5.8,-16.0,concentric,4,3.0,18952.0,138181.0,224148.0,274768.0,259803.0
2026-04-08 21:44:25.440804,180295,1609503837667898,1437634189,0.911584,0.05856,-0.111264,-22.3825,-18.305,-53.7425,-20.416,-5.8,-16.0,concentric,4,3.0,18952.0,138181.0,224148.0,274768.0,259803.0
2026-04-08 21:44:25.443292,180296,1609503837682368,1437649080,0.964288,0.035136,0.046848,-22.61,-18.585001,-55.11625,-20.104,-6.088,-15.944001,concentric,4,3.0,18952.0,138181.0,224148.0,274768.0,259803.0
2026-04-08 21:44:25.448344,180297,1609503837691311,1437657750,0.940864,0.031232,-0.203008,-23.40625,-18.64625,-53.45375,-19.904001,-5.888001,-16.968,concentric,4,3.0,18952.0,138181.0,224148.0,274768.0,259803.0
2026-04-08 21:44:25.482008,180308,1609503837705915,1437672744,0.940864,0.031232,-0.203008,-24.6575,-16.94,-52.59625,-19.904001,-5.888001,-16.968,concentric,4,3.0,19043.0,138288.0,223984.0,274438.0,259482.0
2026-04-08 21:44:25.484497,180309,1609503837714863,1437681439,0.931104,0.083936,-0.044896,-25.89125,-14.0175,-53.27,-19.488,-6.656,-15.424001,concentric,4,3.0,19043.0,138288.0,223984.0,274438.0,259482.0
2026-04-08 21:44:25.487052,180310,1609503837723789,1437690173,0.931104,0.083936,-0.044896,-24.8325,-10.823751,-54.5475,-19.488,-6.656,-15.424001,concentric,4,3.0,19043.0,138288.0,223984.0,274438.0,259482.0
2026-04-08 21:44:25.517170,180311,1609503837738294,1437705051,0.83936,0.080032,-0.152256,-20.90375,-10.26375,-53.5675,-19.096,-6.8,-15.216001,concentric,4,3.0,19043.0,138288.0,223984.0,274438.0,259482.0
2026-04-08 21:44:25.520770,180312,1609503837747265,1437713749,0.83936,0.080032,-0.152256,-19.17125,-9.59875,-51.51125,-19.096,-6.8,-15.216001,concentric,4,3.0,19043.0,138288.0,223984.0,274438.0,259482.0
2026-04-08 21:44:25.523322,180313,1609503837761736,1437728621,0.892064,0.093696,0.099552,-19.69625,-10.42125,-50.46125,-18.752,-7.296001,-16.480001,concentric,4,3.0,19043.0,138288.0,223984.0,274438.0,259482.0
2026-04-08 21:44:25.527037,180314,1609503837770681,1437737290,0.77104,0.128832,-0.13664,-20.36125,-10.9025,-46.515,-18.752,-7.2,-16.336,concentric,4,3.0,19043.0,138288.0,223984.0,274438.0,259482.0
2026-04-08 21:44:25.557176,180315,1609503837785134,1437752176,0.77104,0.128832,-0.13664,-18.38375,-8.9775,-44.44125,-18.552,-7.2,-16.336,concentric,4,3.0,19043.0,138288.0,223984.0,274438.0,259482.0
2026-04-08 21:44:25.560791,180316,1609503837794043,1437760819,0.827648,0.091744,-0.111264,-18.515,-6.83375,-44.135,-18.112001,-7.632,-16.712,concentric,4,3.0,19043.0,138288.0,223984.0,274438.0,259482.0
2026-04-08 21:44:25.592080,180327,1609503837803432,1437769993,0.827648,0.091744,-0.111264,-20.06375,-6.475,-43.12875,-18.112001,-7.632,-16.712,concentric,4,3.0,18994.0,138295.0,224059.0,274636.0,259698.0
2026-04-08 21:44:25.594573,180328,1609503837817993,1437784982,0.735904,0.12688,-0.158112,-18.8475,-5.41625,-40.8975,-17.984001,-7.472,-15.408001,concentric,4,3.0,18994.0,138295.0,224059.0,274636.0,259698.0
2026-04-08 21:44:25.597106,180329,1609503837827012,1437793710,0.735904,0.12688,-0.158112,-16.1175,-3.57875,-37.61625,-17.984001,-7.472,-15.408001,concentric,4,3.0,18994.0,138295.0,224059.0,274636.0,259698.0
2026-04-08 21:44:25.599556,180330,1609503837841507,1437808575,0.755424,0.173728,-0.037088,-15.26,-0.7875,-35.8925,-18.144001,-8.024,-14.776001,concentric,4,3.0,18994.0,138295.0,224059.0,274636.0,259698.0
2026-04-08 21:44:25.605764,180331,1609503837850458,1437817262,0.755424,0.173728,0.072224,-15.42625,2.275,-35.14875,-18.144001,-8.024,-14.776001,concentric,4,3.0,18994.0,138295.0,224059.0,274636.0,259698.0
2026-04-08 21:44:25.637123,180332,1609503837859477,1437825954,0.681248,0.18544,0.06832,-17.29,1.7325,-33.495,-17.976002,-7.76,-15.768001,concentric,4,3.0,18994.0,138295.0,224059.0,274636.0,259698.0
2026-04-08 21:44:25.639532,180333,1609503837873925,1437840814,0.66368,0.150304,-0.017568,-19.73125,0.63875,-31.56125,-17.416,-8.472,-16.616001,concentric,4,3.0,18994.0,138295.0,224059.0,274636.0,259698.0
2026-04-08 21:44:25.642106,180334,1609503837882833,1437849475,0.66368,0.150304,-0.017568,-17.08,0.27125,-29.96875,-17.416,-8.472,-16.616001,concentric,4,3.0,18994.0,138295.0,224059.0,274636.0,259698.0
2026-04-08 21:44:25.672252,180335,1609503837897289,1437864422,0.710528,0.16592,-0.052704,-13.20375,1.6625,-26.9325,-17.544,-8.216001,-15.696001,concentric,4,3.0,18994.0,138295.0,224059.0,274636.0,259698.0
2026-04-08 21:44:25.737997,180346,1609503837906368,1437873194,0.710528,0.16592,-0.052704,-14.67375,2.79125,-23.45875,-17.544,-8.216001,-15.696001,concentric,4,3.0,18966.0,138461.0,224467.0,275125.0,260114.0
2026-04-08 21:44:25.739595,180347,1609503837920864,1437886031,0.743712,0.210816,-0.035136,-19.64375,5.76625,-23.7475,-17.160002,-8.704,-16.624,concentric,4,3.0,18966.0,138461.0,224467.0,275125.0,260114.0
2026-04-08 21:44:25.743845,180348,1609503837930087,1437896782,0.743712,0.210816,-0.035136,-21.2275,10.35125,-23.80875,-17.160002,-8.704,-16.624,concentric,4,3.0,18966.0,138461.0,224467.0,275125.0,260114.0
2026-04-08 21:44:25.745552,180349,1609503837939089,1437905552,0.691008,0.216672,0.01952,-17.5,13.0025,-16.35375,-17.552,-8.536,-18.088001,concentric,4,3.0,18966.0,138461.0,224467.0,275125.0,260114.0
2026-04-08 21:44:25.747230,180350,1609503837953579,1437920415,0.708576,0.138592,-0.035136,-17.00125,11.29625,-8.70625,-17.320002,-9.176001,-18.424002,concentric,4,3.0,18966.0,138461.0,224467.0,275125.0,260114.0
2026-04-08 21:44:25.751329,180351,1609503837962487,1437929086,0.708576,0.138592,-0.035136,-22.6275,8.49625,-7.84875,-17.320002,-9.176001,-18.424002,concentric,4,3.0,18966.0,138461.0,224467.0,275125.0,260114.0
2026-04-08 21:44:25.753015,180352,1609503837976951,1437943930,0.792512,0.148352,0.064416,-29.4175,8.40875,-12.46875,-17.512001,-8.952001,-16.536001,concentric,4,3.0,18966.0,138461.0,224467.0,275125.0,260114.0
2026-04-08 21:44:25.754606,180353,1609503837985957,1437952647,0.792512,0.148352,0.064416,-26.705,11.73375,-12.88875,-17.512001,-8.952001,-16.536001,concentric,4,3.0,18966.0,138461.0,224467.0,275125.0,260114.0
2026-04-08 21:44:25.783039,180364,1609503838000444,1437967538,0.67344,0.275232,-0.08784,-17.5,15.26875,-6.5975,-17.424002,-9.008,-16.048,concentric,4,3.0,18976.0,138564.0,224652.0,275313.0,260287.0
2026-04-08 21:44:25.785775,180365,1609503838009424,1437976321,0.67344,0.275232,-0.08784,-9.8875,17.7625,-0.9975,-17.424002,-9.008,-16.048,concentric,4,3.0,18976.0,138564.0,224652.0,275313.0,260287.0
2026-04-08 21:44:25.791610,180366,1609503838018449,1437985061,0.69296,0.22448,0.101504,-10.08875,17.54375,1.68875,-17.776001,-9.264001,-15.976001,concentric,4,3.0,18976.0,138564.0,224652.0,275313.0,260287.0
2026-04-08 21:44:25.794385,180367,1609503838032978,1437999985,0.767136,0.1952,0.220576,-19.88875,14.70875,0.9275,-17.776001,-9.248,-15.712001,concentric,4,3.0,18976.0,138564.0,224652.0,275313.0,260287.0
2026-04-08 21:44:25.823297,180368,1609503838041887,1438008713,0.767136,0.1952,0.220576,-30.0475,11.935,-2.7125,-17.776001,-9.248,-15.712001,concentric,4,3.0,18976.0,138564.0,224652.0,275313.0,260287.0
2026-04-08 21:44:25.825459,180369,1609503838056364,1438021527,0.765184,0.222528,0.181536,-25.2,12.4775,-3.82375,-17.672,-9.152,-15.656001,concentric,4,3.0,18976.0,138564.0,224652.0,275313.0,260287.0
2026-04-08 21:44:25.830177,180370,1609503838065532,1438032257,0.765184,0.222528,0.181536,-9.765,12.145,1.18125,-17.672,-9.152,-15.656001,concentric,4,3.0,18976.0,138564.0,224652.0,275313.0,260287.0
2026-04-08 21:44:25.831697,180371,1609503838074415,1438040926,0.728096,0.259616,-0.08784,-1.9425,11.698751,5.88,-17.76,-9.080001,-17.072,concentric,4,3.0,18976.0,138564.0,224652.0,275313.0,260287.0
2026-04-08 21:44:25.876998,180372,1609503838088940,1438055783,0.728096,0.259616,-0.08784,-1.26,11.2175,5.69625,-17.76,-9.080001,-17.072,concentric,4,3.0,18976.0,138564.0,224652.0,275313.0,260287.0
2026-04-08 21:44:25.879178,180373,1609503838097859,1438064502,0.763232,0.251808,-0.062464,-5.8625,11.48875,5.285,-17.744001,-9.096001,-15.880001,eccentric,4,3.0,18976.0,138564.0,224652.0,275313.0,260287.0
2026-04-08 21:44:25.915110,180385,1609503838112419,1438077758,0.763232,0.251808,0.05856,-11.22625,11.7775,6.1775,-17.744001,-9.096001,-15.880001,eccentric,4,3.0,19001.0,138665.0,224784.0,275377.0,260284.0
2026-04-08 21:44:25.916787,180386,1609503838121740,1438088478,0.747616,0.257664,0.05856,-13.67625,11.9,7.83125,-18.288,-9.136001,-15.880001,eccentric,4,3.0,19001.0,138665.0,224784.0,275377.0,260284.0
2026-04-08 21:44:25.918371,180387,1609503838136293,1438103395,0.79056,0.251808,0.052704,-14.77,12.94125,9.38875,-18.176,-8.928,-14.712001,eccentric,4,3.0,19001.0,138665.0,224784.0,275377.0,260284.0
2026-04-08 21:44:25.922570,180388,1609503838145251,1438112071,0.79056,0.251808,0.052704,-10.08,13.448751,11.9,-18.176,-8.928,-14.712001,eccentric,4,3.0,19001.0,138665.0,224784.0,275377.0,260284.0
2026-04-08 21:44:25.924302,180389,1609503838154230,1438120831,0.81008,0.288896,0.037088,-6.9825,12.32,14.805,-17.912,-8.728001,-17.544,eccentric,4,3.0,19001.0,138665.0,224784.0,275377.0,260284.0
2026-04-08 21:44:25.925845,180390,1609503838168711,1438135739,0.81008,0.288896,0.037088,-8.1025,12.01375,15.75,-17.912,-8.728001,-17.544,eccentric,4,3.0,19001.0,138665.0,224784.0,275377.0,260284.0
2026-04-08 21:44:25.958262,180391,1609503838177739,1438144412,0.853024,0.240096,0.130784,-9.24875,12.27625,15.1375,-18.312,-8.984,-15.120001,eccentric,4,3.0,19001.0,138665.0,224784.0,275377.0,260284.0
2026-04-08 21:44:25.960489,180392,1609503838192215,1438159252,0.853024,0.240096,0.130784,-12.32875,11.38375,15.37375,-18.312,-8.984,-15.120001,eccentric,4,3.0,19001.0,138665.0,224784.0,275377.0,260284.0
2026-04-08 21:44:25.992670,180403,1609503838201169,1438168043,0.808128,0.25376,0.197152,-12.74,9.94,14.79625,-18.584002,-8.752001,-15.248001,eccentric,4,3.0,19008.0,138810.0,224962.0,275532.0,260336.0
2026-04-08 21:44:26.025777,180404,1609503838210140,1438176831,0.808128,0.25376,0.197152,-8.7675,8.32125,14.2975,-18.584002,-8.752001,-15.248001,eccentric,4,3.0,19008.0,138810.0,224962.0,275532.0,260336.0
2026-04-08 21:44:26.027917,180405,1609503838224645,1438191737,0.870592,0.261568,0.033184,-5.45125,7.21875,15.05875,-18.408,-8.648001,-15.256001,eccentric,4,3.0,19008.0,138810.0,224962.0,275532.0,260336.0
2026-04-08 21:44:26.033083,180406,1609503838233581,1438200402,0.870592,0.298656,0.154208,-4.13,7.16625,13.34375,-18.408,-8.648001,-15.256001,eccentric,4,3.0,19008.0,138810.0,224962.0,275532.0,260336.0
2026-04-08 21:44:26.034352,180407,1609503838248075,1438213266,0.817888,0.298656,0.154208,-1.5575,7.3675,11.50625,-18.616001,-8.64,-14.768001,eccentric,4,3.0,19008.0,138810.0,224962.0,275532.0,260336.0
2026-04-08 21:44:26.035878,180408,1609503838257240,1438224048,0.80032,0.255712,0.074176,-1.89875,6.405,11.375,-18.648,-8.664001,-15.112,eccentric,4,3.0,19008.0,138810.0,224962.0,275532.0,260336.0
2026-04-08 21:44:26.040028,180409,1609503838271701,1438236882,0.80032,0.255712,0.074176,-4.55,3.78,10.68375,-18.648,-8.664001,-15.112,eccentric,4,3.0,19008.0,138810.0,224962.0,275532.0,260336.0
2026-04-08 21:44:26.042516,180410,1609503838280981,1438247626,0.757376,0.259616,-0.062464,-6.22125,2.17875,9.730001,-18.92,-8.752001,-14.776001,eccentric,4,3.0,19008.0,138810.0,224962.0,275532.0,260336.0
2026-04-08 21:44:26.048786,180411,1609503838289999,1438256286,0.757376,0.259616,-0.062464,-2.0825,1.0675,9.44125,-18.92,-8.752001,-14.776001,eccentric,4,3.0,19008.0,138810.0,224962.0,275532.0,260336.0
2026-04-08 21:44:26.107050,180422,1609503838305122,1438271334,0.7808,0.257664,-0.050752,1.4175,-0.48125,9.87875,-18.84,-8.288,-15.048,eccentric,4,3.0,19027.0,138934.0,225175.0,275704.0,260458.0
2026-04-08 21:44:26.111358,180423,1609503838314154,1438280091,0.874496,0.218624,-0.02928,3.5875,-2.1525,9.35375,-18.84,-8.288,-15.048,eccentric,4,3.0,19027.0,138934.0,225175.0,275704.0,260458.0
2026-04-08 21:44:26.113012,180424,1609503838328603,1438294979,0.882304,0.218624,-0.02928,4.865,-2.66,7.63,-18.640001,-8.68,-15.776001,eccentric,4,3.0,19027.0,138934.0,225175.0,275704.0,260458.0
2026-04-08 21:44:26.114527,180425,1609503838337601,1438303645,0.86864,0.265472,0.081984,4.48875,-2.03,6.46625,-18.728,-8.360001,-14.856001,eccentric,4,3.0,19027.0,138934.0,225175.0,275704.0,260458.0
2026-04-08 21:44:26.117050,180426,1609503838346529,1438312366,0.86864,0.265472,0.081984,5.67,-1.33875,6.195,-18.728,-8.360001,-14.856001,eccentric,4,3.0,19027.0,138934.0,225175.0,275704.0,260458.0
2026-04-08 21:44:26.119576,180427,1609503838361053,1438327301,0.847168,0.247904,-0.007808,7.65625,-1.19875,7.0175,-18.800001,-8.112,-14.184001,eccentric,4,3.0,19027.0,138934.0,225175.0,275704.0,260458.0
2026-04-08 21:44:26.125810,180428,1609503838370015,1438335978,0.847168,0.247904,-0.007808,10.8675,-2.66,7.6475,-18.800001,-8.112,-14.184001,eccentric,4,3.0,19027.0,138934.0,225175.0,275704.0,260458.0
2026-04-08 21:44:26.155988,180429,1609503838384504,1438350833,0.854976,0.240096,-0.003904,11.9,-4.2875,7.90125,-18.92,-7.704001,-14.52,eccentric,4,3.0,19027.0,138934.0,225175.0,275704.0,260458.0
2026-04-08 21:44:26.159616,180430,1609503838393424,1438359475,0.854976,0.240096,-0.003904,10.24625,-5.92375,6.0375,-18.92,-7.704001,-14.52,eccentric,4,3.0,19027.0,138934.0,225175.0,275704.0,260458.0
2026-04-08 21:44:26.194916,180441,1609503838408072,1438374362,0.886208,0.269376,-0.023424,9.3975,-5.8975,4.69,-19.152,-7.792,-17.992,eccentric,4,3.0,19081.0,139238.0,225672.0,276163.0,260814.0
2026-04-08 21:44:26.197484,180442,1609503838417049,1438383111,0.895968,0.2928,0.017568,11.83875,-5.52125,5.565,-19.176,-7.84,-15.088,eccentric,4,3.0,19081.0,139238.0,225672.0,276163.0,260814.0
2026-04-08 21:44:26.199480,180443,1609503838426071,1438391860,0.895968,0.2928,0.017568,15.39125,-5.97625,6.5625,-19.176,-7.84,-15.088,eccentric,4,3.0,19081.0,139238.0,225672.0,276163.0,260814.0
2026-04-08 21:44:26.202006,180444,1609503838440538,1438406846,0.919392,0.265472,0.066368,15.42625,-6.86875,6.88625,-19.176,-7.672,-14.448001,eccentric,4,3.0,19081.0,139238.0,225672.0,276163.0,260814.0
2026-04-08 21:44:26.204519,180445,1609503838449473,1438415545,0.919392,0.265472,0.066368,11.92625,-8.33,7.63,-19.176,-7.672,-14.448001,eccentric,4,3.0,19081.0,139238.0,225672.0,276163.0,260814.0
2026-04-08 21:44:26.234777,180446,1609503838463963,1438430404,0.843264,0.247904,0.01952,9.09125,-8.82,7.91875,-19.072,-7.672,-14.144001,eccentric,4,3.0,19081.0,139238.0,225672.0,276163.0,260814.0
2026-04-08 21:44:26.238273,180447,1609503838472823,1438439049,0.843264,0.247904,0.01952,7.49875,-10.115,8.0675,-19.072,-7.672,-14.144001,eccentric,4,3.0,19081.0,139238.0,225672.0,276163.0,260814.0
2026-04-08 21:44:26.244617,180448,1609503838481767,1438447731,0.864736,0.199104,-0.062464,8.25125,-11.34875,8.8375,-19.12,-7.504,-15.256001,eccentric,4,3.0,19081.0,139238.0,225672.0,276163.0,260814.0
2026-04-08 21:44:26.274718,180449,1609503838496251,1438462602,0.757376,0.242048,-0.031232,9.275,-12.53875,9.49375,-19.128,-7.416,-14.888001,eccentric,4,3.0,19081.0,139238.0,225672.0,276163.0,260814.0
2026-04-08 21:44:26.336715,180460,1609503838505443,1438471627,0.757376,0.242048,-0.031232,11.12125,-12.6,9.9225,-19.128,-7.416,-14.888001,eccentric,4,3.0,19007.0,139249.0,225923.0,276560.0,261200.0
2026-04-08 21:44:26.338252,180461,1609503838519981,1438486523,0.747616,0.206912,0.124928,13.99125,-11.9875,10.36875,-19.04,-7.440001,-15.408001,eccentric,4,3.0,19007.0,139249.0,225923.0,276560.0,261200.0
2026-04-08 21:44:26.342544,180462,1609503838528905,1438495217,0.747616,0.206912,0.124928,13.85125,-12.32875,11.29625,-19.04,-7.440001,-15.408001,eccentric,4,3.0,19007.0,139249.0,225923.0,276560.0,261200.0
2026-04-08 21:44:26.344641,180463,1609503838543423,1438510139,0.714432,0.148352,-0.167872,12.55625,-13.2825,11.4275,-19.240002,-7.216001,-15.544001,eccentric,4,3.0,19007.0,139249.0,225923.0,276560.0,261200.0
2026-04-08 21:44:26.345921,180464,1609503838552445,1438518812,0.714432,0.148352,-0.167872,10.45625,-12.55625,11.76875,-19.240002,-7.216001,-15.544001,eccentric,4,3.0,19007.0,139249.0,225923.0,276560.0,261200.0
2026-04-08 21:44:26.350173,180465,1609503838561365,1438527460,0.737856,0.191296,-0.072224,5.99375,-11.1825,11.47125,-18.896002,-7.384,-15.624001,eccentric,4,3.0,19007.0,139249.0,225923.0,276560.0,261200.0
2026-04-08 21:44:26.351779,180466,1609503838575799,1438542340,0.737856,0.193248,0.066368,2.26625,-9.5375,11.4275,-18.896002,-7.384,-15.624001,eccentric,4,3.0,19007.0,139249.0,225923.0,276560.0,261200.0
2026-04-08 21:44:26.353316,180467,1609503838584730,1438551053,0.72224,0.193248,0.066368,-1.63625,-9.05625,12.075,-18.84,-7.440001,-15.456,eccentric,4,3.0,19007.0,139249.0,225923.0,276560.0,261200.0
2026-04-08 21:44:26.359812,180468,1609503838599220,1438565947,0.720288,0.113216,0.132736,-2.3625,-9.17875,13.9475,-19.064001,-7.112001,-15.696001,eccentric,4,3.0,19007.0,139249.0,225923.0,276560.0,261200.0
2026-04-08 21:44:26.387549,180479,1609503838608430,1438574706,0.720288,0.113216,0.132736,1.37375,-9.66875,14.39375,-19.064001,-7.112001,-15.696001,eccentric,4,3.0,18960.0,139299.0,226192.0,276889.0,261504.0
2026-04-08 21:44:26.389259,180480,1609503838622955,1438589631,0.700768,0.076128,-0.035136,6.65,-10.84125,15.11125,-18.968,-6.912,-15.552001,eccentric,4,3.0,18960.0,139299.0,226192.0,276889.0,261504.0
2026-04-08 21:44:26.390782,180481,1609503838631903,1438598319,0.700768,0.076128,-0.035136,9.52875,-11.76,15.46125,-18.968,-6.912,-15.552001,eccentric,4,3.0,18960.0,139299.0,226192.0,276889.0,261504.0
2026-04-08 21:44:26.398670,180482,1609503838640846,1438607009,0.7808,0.124928,0.027328,10.71875,-11.40125,13.1775,-19.184,-6.704001,-14.736001,eccentric,4,3.0,18960.0,139299.0,226192.0,276889.0,261504.0
2026-04-08 21:44:26.428223,180483,1609503838655349,1438621896,0.7808,0.124928,0.027328,13.3875,-9.40625,11.94375,-19.184,-6.704001,-14.736001,eccentric,4,3.0,18960.0,139299.0,226192.0,276889.0,261504.0
2026-04-08 21:44:26.430797,180484,1609503838664255,1438630590,0.767136,0.152256,-0.062464,16.9225,-5.95,14.2975,-19.728,-6.76,-15.720001,eccentric,4,3.0,18960.0,139299.0,226192.0,276889.0,261504.0
2026-04-08 21:44:26.436157,180485,1609503838678748,1438645510,0.765184,0.113216,-0.00976,15.2775,-2.695,16.0125,-19.672,-6.696,-15.744,eccentric,4,3.0,18960.0,139299.0,226192.0,276889.0,261504.0
2026-04-08 21:44:26.444940,180486,1609503838687677,1438654206,0.765184,0.113216,-0.00976,12.1975,-0.98,16.9925,-19.672,-6.696,-15.744,eccentric,4,3.0,18960.0,139299.0,226192.0,276889.0,261504.0
2026-04-08 21:44:26.473512,180487,1609503838702151,1438669078,0.76128,0.035136,-0.052704,7.06125,-0.30625,18.03375,-19.36,-6.384,-15.728001,eccentric,4,3.0,18960.0,139299.0,226192.0,276889.0,261504.0
2026-04-08 21:44:26.508468,180498,1609503838711095,1438677800,0.76128,0.035136,-0.052704,5.38125,-0.63,17.64,-19.36,-6.384,-15.728001,eccentric,4,3.0,18905.0,139151.0,226183.0,277006.0,261645.0
2026-04-08 21:44:26.509829,180499,1609503838720080,1438686501,0.823744,0.035136,0.11712,8.54875,-1.645,19.285,-19.696001,-6.28,-15.512001,eccentric,4,3.0,18905.0,139151.0,226183.0,277006.0,261645.0
2026-04-08 21:44:26.510783,180500,1609503838734706,1438701392,0.823744,0.035136,0.11712,12.495,-1.77625,21.647501,-19.696001,-6.28,-15.512001,eccentric,4,3.0,18905.0,139151.0,226183.0,277006.0,261645.0
2026-04-08 21:44:26.515034,180501,1609503838743737,1438710178,0.812032,0.042944,-0.105408,16.07375,-0.525,20.62375,-20.168001,-6.288,-16.0,eccentric,4,3.0,18905.0,139151.0,226183.0,277006.0,261645.0
2026-04-08 21:44:26.517495,180502,1609503838758218,1438725075,0.772992,0.076128,-0.191296,16.87,1.56625,19.32875,-20.528002,-5.8,-15.592001,eccentric,4,3.0,18905.0,139151.0,226183.0,277006.0,261645.0
2026-04-08 21:44:26.545959,180503,1609503838767132,1438733739,0.772992,0.076128,-0.191296,18.22625,3.29875,19.2675,-20.528002,-5.8,-15.592001,eccentric,4,3.0,18905.0,139151.0,226183.0,277006.0,261645.0
2026-04-08 21:44:26.550424,180504,1609503838781605,1438748596,0.802272,0.052704,-0.056608,20.405,3.64,20.3875,-20.344002,-6.2,-15.712001,eccentric,4,3.0,18905.0,139151.0,226183.0,277006.0,261645.0
2026-04-08 21:44:26.551977,180505,1609503838790518,1438757288,0.802272,0.052704,-0.056608,20.58,1.35625,22.84625,-20.344002,-6.2,-15.712001,eccentric,4,3.0,18905.0,139151.0,226183.0,277006.0,261645.0
2026-04-08 21:44:26.557400,180506,1609503838799446,1438765992,0.884256,-0.011712,0.07808,19.80125,-1.6625,23.38875,-20.632002,-5.728,-15.192,eccentric,4,3.0,18905.0,139151.0,226183.0,277006.0,261645.0
2026-04-08 21:44:26.587131,180517,1609503838814410,1438780928,0.884256,-0.011712,0.07808,20.34375,-2.905,23.19625,-20.632002,-5.728,-15.192,eccentric,4,3.0,18823.0,139102.0,226331.0,277219.0,261842.0
2026-04-08 21:44:26.588878,180518,1609503838823508,1438789608,0.880352,0.021472,-0.062464,18.19125,-3.52625,22.51375,-20.576,-5.784,-14.6,eccentric,4,3.0,18823.0,139102.0,226331.0,277219.0,261842.0
2026-04-08 21:44:26.625720,180519,1609503838838019,1438804521,0.827648,0.060512,-0.197152,14.6475,-0.58625,19.18,-20.576,-5.872,-15.176001,eccentric,4,3.0,18823.0,139102.0,226331.0,277219.0,261842.0
2026-04-08 21:44:26.627915,180520,1609503838846944,1438813172,0.827648,0.060512,-0.197152,14.096251,3.7275,16.7125,-21.240002,-5.872,-15.176001,eccentric,4,3.0,18823.0,139102.0,226331.0,277219.0,261842.0
2026-04-08 21:44:26.632512,180521,1609503838855852,1438821831,0.827648,0.060512,-0.197152,11.865,5.73125,17.54375,-21.240002,-5.872,-15.176001,eccentric,4,3.0,18823.0,139102.0,226331.0,277219.0,261842.0
2026-04-08 21:44:26.634212,180522,1609503838870312,1438836688,0.817888,0.072224,0.044896,10.22,7.4375,17.78,-20.992,-5.552,-13.824,eccentric,4,3.0,18823.0,139102.0,226331.0,277219.0,261842.0
2026-04-08 21:44:26.635860,180523,1609503838879238,1438845381,0.91744,0.015616,0.109312,10.0275,7.79625,17.15,-21.528002,-5.616,-17.616001,eccentric,4,3.0,18823.0,139102.0,226331.0,277219.0,261842.0
2026-04-08 21:44:26.652471,180524,1609503838893701,1438860287,0.91744,0.015616,0.109312,8.5575,7.72625,16.8875,-21.528002,-5.616,-17.616001,eccentric,4,3.0,18823.0,139102.0,226331.0,277219.0,261842.0
2026-04-08 21:44:26.681083,180525,1609503838902639,1438868979,1.022848,-0.007808,-0.124928,7.21875,9.19625,16.42375,-21.936,-5.968,-15.344001,eccentric,4,3.0,18823.0,139102.0,226331.0,277219.0,261842.0
2026-04-08 21:44:26.709417,180536,1609503838917302,1438884034,1.022848,-0.007808,-0.124928,3.24625,10.63125,15.37375,-21.936,-5.968,-15.344001,eccentric,4,3.0,18889.0,139183.0,226339.0,277072.0,261650.0
2026-04-08 21:44:26.712048,180537,1609503838926244,1438892705,0.944768,0.089792,-0.040992,-0.09625,13.16875,12.62625,-22.224,-5.704001,-16.112001,eccentric,4,3.0,18889.0,139183.0,226339.0,277072.0,261650.0
2026-04-08 21:44:26.714525,180538,1609503838935220,1438901398,0.944768,0.089792,-0.040992,2.135,17.61375,11.01625,-22.224,-5.704001,-16.112001,eccentric,4,3.0,18889.0,139183.0,226339.0,277072.0,261650.0
2026-04-08 21:44:26.720831,180539,1609503838949710,1438916328,0.94672,0.060512,-0.050752,4.76,19.74,14.2275,-22.648,-5.528,-12.664001,eccentric,4,3.0,18889.0,139183.0,226339.0,277072.0,261650.0
2026-04-08 21:44:26.723253,180540,1609503838958716,1438925000,0.948672,0.040992,-0.046848,3.80625,18.655,17.22,-22.648,-5.448,-13.032001,eccentric,4,3.0,18889.0,139183.0,226339.0,277072.0,261650.0
2026-04-08 21:44:26.753412,180541,1609503838973235,1438939907,0.948672,0.040992,-0.046848,0.86625,16.616251,15.8025,-22.808,-5.448,-13.032001,eccentric,4,3.0,18889.0,139183.0,226339.0,277072.0,261650.0
2026-04-08 21:44:26.757109,180542,1609503838982211,1438948663,1.067744,0.013664,-0.105408,3.36875,16.56375,13.5275,-23.192001,-6.248,-14.088,eccentric,4,3.0,18889.0,139183.0,226339.0,277072.0,261650.0
2026-04-08 21:44:26.759633,180543,1609503838996700,1438963502,1.067744,0.013664,-0.105408,7.245,16.68625,14.542501,-23.192001,-6.248,-14.088,eccentric,4,3.0,18889.0,139183.0,226339.0,277072.0,261650.0
2026-04-08 21:44:26.790764,180554,1609503839005604,1438972168,0.970144,0.072224,-0.050752,8.3825,17.61375,12.27625,-23.224,-5.856,-14.336,eccentric,4,3.0,18802.0,138871.0,226064.0,276922.0,261614.0
2026-04-08 21:44:26.793253,180555,1609503839014767,1438980899,0.970144,0.072224,-0.050752,9.86125,18.0075,9.6075,-23.224,-5.856,-14.336,eccentric,4,3.0,18802.0,138871.0,226064.0,276922.0,261614.0
2026-04-08 21:44:26.795786,180556,1609503839029399,1438995814,0.979904,0.06832,-0.046848,8.4875,18.54125,9.7825,-23.528002,-5.656,-12.992001,eccentric,4,3.0,18802.0,138871.0,226064.0,276922.0,261614.0
2026-04-08 21:44:26.798205,180557,1609503839038383,1439004518,0.979904,0.06832,-0.046848,5.27625,18.08625,9.9925,-23.528002,-5.656,-12.992001,eccentric,4,3.0,18802.0,138871.0,226064.0,276922.0,261614.0
2026-04-08 21:44:26.832731,180558,1609503839052967,1439019489,0.993568,0.076128,0.007808,1.54,17.92,8.12,-24.480001,-6.384,-12.52,eccentric,4,3.0,18802.0,138871.0,226064.0,276922.0,261614.0
2026-04-08 21:44:26.834503,180559,1609503839061890,1439028204,1.059936,0.046848,-0.015616,1.35625,18.865,6.86,-24.328001,-5.968,-13.352,eccentric,4,3.0,18802.0,138871.0,226064.0,276922.0,261614.0
2026-04-08 21:44:26.836981,180560,1609503839070804,1439036849,1.059936,0.046848,-0.015616,1.74125,19.62625,6.81625,-24.328001,-5.968,-13.352,eccentric,4,3.0,18802.0,138871.0,226064.0,276922.0,261614.0
2026-04-08 21:44:26.842097,180561,1609503839085324,1439052032,0.989664,0.072224,0.011712,2.45,20.09,6.4925,-24.6,-6.288,-13.192,eccentric,4,3.0,18802.0,138871.0,226064.0,276922.0,261614.0
2026-04-08 21:44:26.872287,180562,1609503839094274,1439060721,0.989664,0.072224,0.011712,3.5,20.1775,6.685,-24.6,-6.288,-13.192,eccentric,4,3.0,18802.0,138871.0,226064.0,276922.0,261614.0
2026-04-08 21:44:26.935772,180573,1609503839109319,1439075593,0.940864,0.076128,-0.00976,3.185,19.52125,6.85125,-24.632002,-6.472,-11.752001,eccentric,4,3.0,18680.0,138501.0,225751.0,276827.0,261636.0
2026-04-08 21:44:26.938292,180574,1609503839118327,1439084290,0.940864,0.076128,-0.00976,2.9575,19.355,7.81375,-24.632002,-6.472,-11.752001,eccentric,4,3.0,18680.0,138501.0,225751.0,276827.0,261636.0
2026-04-08 21:44:26.940779,180575,1609503839127297,1439092966,0.993568,0.08784,0.062464,2.28375,19.6875,9.9575,-25.080002,-6.752,-10.736,eccentric,4,3.0,18680.0,138501.0,225751.0,276827.0,261636.0
2026-04-08 21:44:26.943654,180576,1609503839141823,1439107867,0.974048,0.11712,-0.08784,0.385,20.51875,11.92625,-25.720001,-6.4,-12.648001,eccentric,4,3.0,18680.0,138501.0,225751.0,276827.0,261636.0
2026-04-08 21:44:26.945866,180577,1609503839150714,1439116534,0.974048,0.11712,-0.08784,-3.43,22.40875,13.335,-25.720001,-6.4,-12.648001,eccentric,4,3.0,18680.0,138501.0,225751.0,276827.0,261636.0
2026-04-08 21:44:26.948300,180578,1609503839165217,1439131397,0.940864,0.113216,0.109312,-10.24625,23.38,14.5075,-25.896002,-7.048,-12.376,eccentric,4,3.0,18680.0,138501.0,225751.0,276827.0,261636.0
2026-04-08 21:44:26.950843,180579,1609503839174209,1439140109,0.940864,0.113216,0.109312,-16.9225,22.365,17.89375,-25.896002,-7.048,-12.376,eccentric,4,3.0,18680.0,138501.0,225751.0,276827.0,261636.0
2026-04-08 21:44:26.953318,180580,1609503839188710,1439154981,0.93696,0.0488,0.095648,-19.022501,20.90375,21.06125,-25.976002,-6.960001,-10.824,eccentric,4,3.0,18680.0,138501.0,225751.0,276827.0,261636.0
2026-04-08 21:44:26.955817,180581,1609503839197677,1439163661,0.93696,0.0488,0.095648,-17.85875,18.19125,21.81375,-25.976002,-6.960001,-10.824,eccentric,4,3.0,18680.0,138501.0,225751.0,276827.0,261636.0
2026-04-08 21:44:26.962192,180582,1609503839206612,1439172353,1.038464,-0.01952,0.001952,-14.81375,16.5025,23.10875,-26.416,-6.912,-10.208,eccentric,4,3.0,18680.0,138501.0,225751.0,276827.0,261636.0
2026-04-08 21:44:26.990269,180593,1609503839221229,1439187311,1.046272,0.011712,-0.113216,-9.555,15.86375,21.6825,-26.736002,-6.896,-10.368,eccentric,4,3.0,18629.0,138239.0,225421.0,276613.0,261526.0
2026-04-08 21:44:26.992963,180594,1609503839230146,1439195971,1.046272,0.011712,-0.113216,-6.0025,15.68,20.30875,-26.736002,-6.896,-10.368,eccentric,4,3.0,18629.0,138239.0,225421.0,276613.0,261526.0
2026-04-08 21:44:26.999621,180595,1609503839244647,1439210839,1.081408,0.050752,-0.035136,-4.34,16.63375,20.25625,-27.168001,-6.384,-9.952001,eccentric,4,3.0,18629.0,138239.0,225421.0,276613.0,261526.0
2026-04-08 21:44:27.029827,180596,1609503839253636,1439219533,1.081408,0.050752,-0.035136,-7.35,17.42125,21.56875,-27.168001,-6.384,-9.952001,eccentric,4,3.0,18629.0,138239.0,225421.0,276613.0,261526.0
2026-04-08 21:44:27.033400,180597,1609503839268113,1439234392,1.095072,0.0488,0.070272,-14.70875,16.8175,21.210001,-27.528002,-7.04,-10.624001,eccentric,4,3.0,18629.0,138239.0,225421.0,276613.0,261526.0
2026-04-08 21:44:27.036144,180598,1609503839277012,1439243049,1.095072,0.0488,0.070272,-21.5775,15.190001,21.105,-27.528002,-7.04,-10.624001,eccentric,4,3.0,18629.0,138239.0,225421.0,276613.0,261526.0
2026-04-08 21:44:27.042109,180599,1609503839285947,1439251715,1.104832,0.013664,0.072224,-26.13625,13.658751,21.37625,-27.656002,-7.008,-10.360001,eccentric,4,3.0,18629.0,138239.0,225421.0,276613.0,261526.0
2026-04-08 21:44:27.073566,180600,1609503839300477,1439266622,1.104832,0.013664,0.02928,-23.94,13.30875,21.23625,-27.656002,-7.008,-10.360001,eccentric,4,3.0,18629.0,138239.0,225421.0,276613.0,261526.0
2026-04-08 21:44:27.100781,180611,1609503839309650,1439275853,1.075552,0.013664,0.02928,-19.845,12.1275,22.89,-28.064001,-7.192,-10.440001,eccentric,4,3.0,18652.0,138126.0,225223.0,276448.0,261428.0
2026-04-08 21:44:27.103329,180612,1609503839324172,1439290729,1.118496,0.037088,0.16592,-15.74125,10.43875,25.6375,-28.272001,-7.104001,-9.864,eccentric,4,3.0,18652.0,138126.0,225223.0,276448.0,261428.0
2026-04-08 21:44:27.105796,180613,1609503839333114,1439299383,1.118496,0.037088,0.16592,-11.19125,8.855001,27.62375,-28.272001,-7.104001,-9.864,eccentric,4,3.0,18652.0,138126.0,225223.0,276448.0,261428.0
2026-04-08 21:44:27.108303,180614,1609503839347665,1439314313,1.059936,0.05856,-0.00976,-8.1025,6.86,30.1175,-28.552002,-6.856,-9.576,eccentric,4,3.0,18652.0,138126.0,225223.0,276448.0,261428.0
2026-04-08 21:44:27.114632,180615,1609503839356618,1439322995,1.059936,0.05856,-0.00976,-4.94375,7.23625,31.4475,-28.552002,-6.856,-9.576,eccentric,4,3.0,18652.0,138126.0,225223.0,276448.0,261428.0
2026-04-08 21:44:27.156321,180616,1609503839365535,1439331732,1.040416,0.056608,-0.101504,-2.86125,7.34125,31.17625,-28.792002,-6.616,-8.376,eccentric,4,3.0,18652.0,138126.0,225223.0,276448.0,261428.0
2026-04-08 21:44:27.159609,180617,1609503839379954,1439346587,1.040416,0.056608,-0.101504,-7.5775,6.37875,34.93,-28.792002,-6.616,-8.376,eccentric,4,3.0,18652.0,138126.0,225223.0,276448.0,261428.0
2026-04-08 21:44:27.162268,180618,1609503839388862,1439355237,1.11264,0.050752,0.140544,-10.71,5.60875,37.0825,-29.144001,-6.504,-11.208,eccentric,4,3.0,18652.0,138126.0,225223.0,276448.0,261428.0
2026-04-08 21:44:27.164618,180619,1609503839403320,1439370123,1.089216,0.007808,0.1464,-12.67,3.87625,37.51125,-29.544,-6.496,-8.8,eccentric,4,3.0,18652.0,138126.0,225223.0,276448.0,261428.0
2026-04-08 21:44:27.192069,180630,1609503839412634,1439378895,1.089216,0.007808,0.1464,-14.07,2.3975,37.87875,-29.544,-6.496,-8.8,eccentric,4,3.0,18511.0,137659.0,224692.0,276145.0,261272.0
2026-04-08 21:44:27.226054,180631,1609503839421623,1439387628,1.089216,0.015616,0.179584,-12.95875,2.03,37.28375,-29.544,-6.496,-8.8,eccentric,4,3.0,18511.0,137659.0,224692.0,276145.0,261272.0
2026-04-08 21:44:27.231100,180632,1609503839436206,1439402512,1.046272,0.015616,0.179584,-9.87,2.02125,35.28875,-30.008001,-6.208,-9.808001,eccentric,4,3.0,18511.0,137659.0,224692.0,276145.0,261272.0
2026-04-08 21:44:27.234058,180633,1609503839445170,1439411211,0.997472,0.033184,-0.005856,-7.70875,2.26625,36.02375,-29.544,-5.864,-8.536,eccentric,4,3.0,18511.0,137659.0,224692.0,276145.0,261272.0
2026-04-08 21:44:27.235343,180634,1609503839459695,1439426053,0.997472,0.033184,-0.005856,-7.9625,2.0825,36.82875,-29.544,-5.864,-8.536,eccentric,4,3.0,18511.0,137659.0,224692.0,276145.0,261272.0
2026-04-08 21:44:27.237034,180635,1609503839468603,1439434718,0.989664,0.042944,0.035136,-10.61375,0.9625,36.925,-29.776001,-5.632,-9.288,eccentric,4,3.0,18511.0,137659.0,224692.0,276145.0,261272.0
2026-04-08 21:44:27.239542,180636,1609503839483097,1439449610,0.979904,0.027328,0.119072,-13.23875,0.42875,37.14375,-30.344002,-5.296001,-10.040001,eccentric,4,3.0,18511.0,137659.0,224692.0,276145.0,261272.0
2026-04-08 21:44:27.270003,180637,1609503839492012,1439458274,0.979904,0.027328,0.119072,-14.20125,0.06125,38.78,-30.344002,-5.296001,-10.040001,eccentric,4,3.0,18511.0,137659.0,224692.0,276145.0,261272.0
2026-04-08 21:44:27.277105,180638,1609503839500930,1439466951,0.979904,0.027328,0.119072,-13.60625,-0.20125,39.7425,-30.344002,-5.296001,-10.040001,eccentric,4,3.0,18511.0,137659.0,224692.0,276145.0,261272.0
2026-04-08 21:44:27.307050,180649,1609503839515548,1439481895,0.950624,-0.007808,0.10736,-10.80625,-0.60375,38.96375,-30.240002,-5.296001,-9.496,eccentric,4,3.0,18409.0,137271.0,224235.0,275809.0,261120.0
2026-04-08 21:44:27.311481,180650,1609503839524506,1439490620,0.989664,-0.015616,0.08784,-7.175,-1.11125,38.07125,-30.208002,-4.552,-7.704001,eccentric,4,3.0,18409.0,137271.0,224235.0,275809.0,261120.0
2026-04-08 21:44:27.314038,180651,1609503839538974,1439505550,0.989664,-0.015616,0.08784,-3.4475,-1.35625,37.485,-30.208002,-4.552,-7.704001,eccentric,4,3.0,18409.0,137271.0,224235.0,275809.0,261120.0
2026-04-08 21:44:27.316022,180652,1609503839547891,1439514215,0.958432,0.005856,0.001952,0.0875,-1.505,36.9425,-30.760002,-4.224,-6.952,eccentric,4,3.0,18409.0,137271.0,224235.0,275809.0,261120.0
2026-04-08 21:44:27.319523,180653,1609503839562372,1439529091,0.958432,0.005856,0.122976,0.8225,-0.63875,35.93625,-30.760002,-4.224,-6.952,eccentric,4,3.0,18409.0,137271.0,224235.0,275809.0,261120.0
2026-04-08 21:44:27.349797,180654,1609503839571323,1439537768,0.948672,0.007808,0.122976,-1.60125,-0.56,34.81625,-30.528002,-3.944,-5.248,eccentric,4,3.0,18409.0,137271.0,224235.0,275809.0,261120.0
2026-04-08 21:44:27.353318,180655,1609503839580288,1439546470,0.948672,0.007808,0.122976,-3.05375,-0.93625,33.0575,-30.528002,-3.944,-5.248,eccentric,4,3.0,18409.0,137271.0,224235.0,275809.0,261120.0
2026-04-08 21:44:27.355832,180656,1609503839594761,1439561313,0.948672,-0.044896,0.095648,-3.08875,-1.63625,30.49375,-30.136002,-3.864,-7.768001,eccentric,4,3.0,18409.0,137271.0,224235.0,275809.0,261120.0
2026-04-08 21:44:27.360920,180657,1609503839603680,1439569988,0.94672,-0.0488,0.062464,-2.205,-2.2925,27.265,-30.552002,-3.568,-7.816001,eccentric,4,3.0,18409.0,137271.0,224235.0,275809.0,261120.0
2026-04-08 21:44:27.394609,180668,1609503839618614,1439585090,0.94672,-0.0488,0.062464,0.3325,-3.21125,24.26375,-30.552002,-3.568,-7.816001,eccentric,4,3.0,18407.0,137179.0,224064.0,275634.0,261014.0
2026-04-08 21:44:27.397314,180669,1609503839627527,1439593759,0.964288,-0.05856,0.011712,3.14125,-3.47375,21.55125,-30.656002,-3.624,-7.744,eccentric,4,3.0,18407.0,137179.0,224064.0,275634.0,261014.0
2026-04-08 21:44:27.399705,180670,1609503839642018,1439608647,0.964288,-0.05856,0.011712,5.425,-3.5525,19.13625,-30.656002,-3.624,-7.744,eccentric,4,3.0,18407.0,137179.0,224064.0,275634.0,261014.0
2026-04-08 21:44:27.429704,180671,1609503839650945,1439617315,0.886208,-0.017568,0.035136,7.49875,-3.395,15.98625,-30.584002,-2.816,-6.528,eccentric,4,3.0,18407.0,137179.0,224064.0,275634.0,261014.0
2026-04-08 21:44:27.433325,180672,1609503839659863,1439626017,0.886208,-0.017568,0.035136,8.715,-3.49125,12.99375,-30.584002,-2.816,-6.528,eccentric,4,3.0,18407.0,137179.0,224064.0,275634.0,261014.0
2026-04-08 21:44:27.435781,180673,1609503839674322,1439640894,0.915488,-0.035136,0.101504,10.64,-3.99,9.82625,-30.608002,-3.128,-7.672,eccentric,4,3.0,18407.0,137179.0,224064.0,275634.0,261014.0
2026-04-08 21:44:27.439496,180674,1609503839683248,1439649573,0.915488,-0.035136,0.054656,13.20375,-4.12125,6.2125,-30.608002,-3.128,-7.672,eccentric,4,3.0,18407.0,137179.0,224064.0,275634.0,261014.0
2026-04-08 21:44:27.470031,180675,1609503839697723,1439664411,0.89792,-0.042944,0.054656,15.77625,-4.025,3.2375,-30.760002,-3.016,-8.208,eccentric,4,3.0,18407.0,137179.0,224064.0,275634.0,261014.0
2026-04-08 21:44:27.473265,180676,1609503839706673,1439673064,0.890112,-0.01952,0.076128,18.34875,-4.13875,1.4525,-30.664001,-3.216,-7.608,eccentric,4,3.0,18407.0,137179.0,224064.0,275634.0,261014.0
2026-04-08 21:44:27.535728,180687,1609503839721231,1439688211,0.890112,-0.01952,0.076128,19.25,-4.2,-0.175,-30.664001,-3.216,-7.608,eccentric,4,3.0,18376.0,137036.0,223865.0,275488.0,260910.0
2026-04-08 21:44:27.538323,180688,1609503839730161,1439696890,0.905728,-0.023424,0.130784,17.08,-4.62875,-2.485,-30.728,-3.056,-7.072001,eccentric,4,3.0,18376.0,137036.0,223865.0,275488.0,260910.0
2026-04-08 21:44:27.540766,180689,1609503839739104,1439705609,0.905728,-0.023424,0.130784,14.2625,-4.17375,-5.13625,-30.728,-3.056,-7.072001,eccentric,4,3.0,18376.0,137036.0,223865.0,275488.0,260910.0
2026-04-08 21:44:27.543306,180690,1609503839753581,1439720594,0.872544,-0.033184,0.054656,13.7025,-4.12125,-6.58875,-30.704002,-2.896,-7.048,eccentric,4,3.0,18376.0,137036.0,223865.0,275488.0,260910.0
2026-04-08 21:44:27.545815,180691,1609503839762499,1439729279,0.872544,-0.033184,0.054656,13.02875,-4.22625,-8.75875,-30.704002,-2.896,-7.048,eccentric,4,3.0,18376.0,137036.0,223865.0,275488.0,260910.0
2026-04-08 21:44:27.548891,180692,1609503839777068,1439744125,0.929152,-0.070272,0.080032,12.62625,-4.6375,-11.45375,-30.896002,-3.136,-7.960001,eccentric,4,3.0,18376.0,137036.0,223865.0,275488.0,260910.0
2026-04-08 21:44:27.550928,180693,1609503839786011,1439752810,0.890112,-0.064416,0.013664,12.6,-5.20625,-14.56,-30.912,-3.248,-6.792,eccentric,4,3.0,18376.0,137036.0,223865.0,275488.0,260910.0
2026-04-08 21:44:27.557058,180694,1609503839794986,1439761534,0.890112,-0.064416,0.013664,13.011251,-5.39875,-18.0425,-30.912,-3.248,-6.792,eccentric,4,3.0,18376.0,137036.0,223865.0,275488.0,260910.0
