pc_time,serial_num,sensor_ts,host_ts,ax,ay,az,gx,gy,gz,mx,my,mz,phase,rpe,weight_kg,ppg_a,ppg_b,ppg_c,ppg_d,ppg_e
2026-04-08 21:44:03.285800,176130,1609503815480365,1415447199,0.970144,-0.070272,0.046848,4.57625,-8.74125,14.44625,-30.608002,-0.912,-3.904,concentric,4,3.0,17001.0,132914.0,219040.0,271638.0,258144.0
2026-04-08 21:44:03.288308,176131,1609503815494854,1415460088,0.970144,-0.070272,0.046848,3.675,-9.2225,15.00625,-30.992,-0.768,-3.904,concentric,4,3.0,17001.0,132914.0,219040.0,271638.0,258144.0
2026-04-08 21:44:03.290970,176132,1609503815504062,1415470835,0.938912,-0.070272,0.160064,2.31875,-9.26625,15.015,-31.104002,-0.656,-6.536,concentric,4,3.0,17001.0,132914.0,219040.0,271638.0,258144.0
2026-04-08 21:44:03.293363,176133,1609503815513016,1415479515,0.938912,-0.070272,0.160064,-0.97125,-10.22875,13.95625,-31.104002,-0.656,-6.536,concentric,4,3.0,17001.0,132914.0,219040.0,271638.0,258144.0
2026-04-08 21:44:03.295752,176134,1609503815527590,1415494398,0.95648,-0.109312,0.191296,-4.96125,-11.165,11.96125,-30.976002,-0.224,-6.56,concentric,4,3.0,17001.0,132914.0,219040.0,271638.0,258144.0
2026-04-08 21:44:03.298333,176135,1609503815536617,1415503170,0.95648,-0.109312,0.191296,-6.055,-11.480001,9.42375,-30.976002,-0.224,-6.56,concentric,4,3.0,17001.0,132914.0,219040.0,271638.0,258144.0
2026-04-08 21:44:03.307099,176136,1609503815551128,1415518059,0.880352,-0.158112,-0.017568,-3.3775,-11.85625,5.95875,-30.656002,-0.688,-5.728,concentric,4,3.0,17001.0,132914.0,219040.0,271638.0,258144.0
2026-04-08 21:44:03.337339,176137,1609503815560042,1415526727,0.880352,-0.158112,-0.017568,-1.26,-12.53,3.745,-30.656002,-0.688,-5.728,concentric,4,3.0,17001.0,132914.0,219040.0,271638.0,258144.0
2026-04-08 21:44:03.340853,176138,1609503815568974,1415535396,0.95648,-0.167872,0.0488,1.11125,-12.425,0.6125,-31.168001,-0.056,-6.68,concentric,4,3.0,17001.0,132914.0,219040.0,271638.0,258144.0
2026-04-08 21:44:03.368319,176149,1609503815583509,1415550330,0.96624,-0.154208,0.011712,3.22875,-12.6175,-2.9575,-30.664001,-0.664,-7.248,concentric,4,3.0,17016.0,132914.0,218908.0,271432.0,257973.0
2026-04-08 21:44:03.370817,176150,1609503815592501,1415559059,0.96624,-0.154208,0.011712,5.915,-12.36375,-5.25875,-30.664001,-0.664,-7.248,concentric,4,3.0,17016.0,132914.0,218908.0,271432.0,257973.0
2026-04-08 21:44:03.373346,176151,1609503815606997,1415573932,0.983808,-0.0976,0.089792,5.94125,-10.96375,-7.88375,-30.224,-0.992,-7.288001,concentric,4,3.0,17016.0,132914.0,218908.0,271432.0,257973.0
2026-04-08 21:44:03.375822,176152,1609503815615948,1415582602,0.983808,-0.0976,0.089792,5.24125,-8.636251,-9.91375,-30.224,-0.992,-7.288001,concentric,4,3.0,17016.0,132914.0,218908.0,271432.0,257973.0
2026-04-08 21:44:03.406026,176153,1609503815630505,1415597486,0.93696,-0.0976,0.027328,1.3825,-7.90125,-12.39875,-30.832,-0.616,-7.736001,concentric,4,3.0,17016.0,132914.0,218908.0,271432.0,257973.0
2026-04-08 21:44:03.409610,176154,1609503815639405,1415606137,0.93696,-0.0976,0.027328,-5.7925,-8.9775,-16.26625,-30.832,-0.616,-7.736001,concentric,4,3.0,17016.0,132914.0,218908.0,271432.0,257973.0
2026-04-08 21:44:03.413005,176155,1609503815648331,1415614801,0.948672,-0.1464,0.031232,-9.66,-9.96625,-19.88,-30.656002,-1.0,-8.088,concentric,4,3.0,17016.0,132914.0,218908.0,271432.0,257973.0
2026-04-08 21:44:03.442321,176156,1609503815662856,1415629672,0.94672,-0.13664,0.052704,-6.93875,-9.19625,-21.60375,-30.632002,-1.048,-7.76,concentric,4,3.0,17016.0,132914.0,218908.0,271432.0,257973.0
2026-04-08 21:44:03.445894,176157,1609503815671770,1415638349,0.94672,-0.13664,0.052704,-0.0175,-8.33,-24.28125,-30.632002,-1.048,-7.76,concentric,4,3.0,17016.0,132914.0,218908.0,271432.0,257973.0
2026-04-08 21:44:03.473524,176168,1609503815686571,1415653221,0.9272,-0.083936,-0.027328,7.25375,-7.98,-25.8825,-30.352001,-1.424,-8.328,concentric,4,3.0,17035.0,132875.0,218828.0,271361.0,257910.0
2026-04-08 21:44:03.475903,176169,1609503815695547,1415661942,0.9272,-0.083936,-0.027328,11.34,-8.49625,-26.80125,-30.352001,-1.424,-8.328,concentric,4,3.0,17035.0,132875.0,218828.0,271361.0,257910.0
2026-04-08 21:44:03.478397,176170,1609503815710081,1415676873,0.993568,-0.052704,0.03904,11.7775,-9.17,-27.43125,-30.44,-1.496,-8.736,concentric,4,3.0,17035.0,132875.0,218828.0,271361.0,257910.0
2026-04-08 21:44:03.480795,176171,1609503815718994,1415685584,0.993568,-0.052704,0.03904,9.6775,-10.7625,-28.2975,-30.44,-1.496,-8.736,concentric,4,3.0,17035.0,132875.0,218828.0,271361.0,257910.0
2026-04-08 21:44:03.483303,176172,1609503815727924,1415694245,0.962336,-0.017568,0.12688,6.46625,-11.50625,-29.68875,-30.12,-1.792,-8.216001,concentric,4,3.0,17035.0,132875.0,218828.0,271361.0,257910.0
2026-04-08 21:44:03.548230,176173,1609503815742412,1415709153,0.938912,-0.042944,-0.037088,2.905,-11.7425,-31.07125,-30.12,-2.024,-11.936001,concentric,4,3.0,17035.0,132875.0,218828.0,271361.0,257910.0
2026-04-08 21:44:03.553175,176174,1609503815751282,1415717797,0.938912,-0.042944,-0.037088,-0.8575,-12.06625,-31.40375,-29.728,-2.024,-11.936001,concentric,4,3.0,17035.0,132875.0,218828.0,271361.0,257910.0
2026-04-08 21:44:03.554985,176175,1609503815765765,1415732666,1.020896,-0.062464,0.076128,-2.2925,-12.11875,-31.5175,-29.872002,-2.184,-9.448001,concentric,4,3.0,17035.0,132875.0,218828.0,271361.0,257910.0
2026-04-08 21:44:03.557359,176176,1609503815774707,1415741326,1.020896,-0.062464,0.076128,-4.2175,-12.845,-32.0075,-29.872002,-2.184,-9.448001,concentric,4,3.0,17035.0,132875.0,218828.0,271361.0,257910.0
2026-04-08 21:44:03.584343,176187,1609503815789305,1415756249,0.96624,-0.013664,0.035136,-4.87375,-13.0025,-32.576252,-29.800001,-2.472,-10.144,concentric,4,3.0,17130.0,133277.0,219322.0,271738.0,258140.0
2026-04-08 21:44:03.586725,176188,1609503815798263,1415764936,0.96624,-0.013664,0.035136,-2.3625,-12.50375,-31.7975,-29.800001,-2.472,-10.144,concentric,4,3.0,17130.0,133277.0,219322.0,271738.0,258140.0
2026-04-08 21:44:03.588298,176189,1609503815807381,1415773623,1.00528,0.013664,0.03904,-0.86625,-12.8625,-30.2925,-29.432001,-2.408,-9.112,concentric,4,3.0,17130.0,133277.0,219322.0,271738.0,258140.0
2026-04-08 21:44:03.592575,176190,1609503815821879,1415788492,1.00528,0.013664,0.03904,-3.28125,-12.64375,-29.7675,-29.432001,-2.408,-9.112,concentric,4,3.0,17130.0,133277.0,219322.0,271738.0,258140.0
2026-04-08 21:44:03.595106,176191,1609503815830844,1415797177,1.028704,-0.017568,0.089792,-7.6125,-12.87125,-28.595,-29.216002,-2.448,-6.608,concentric,4,3.0,17130.0,133277.0,219322.0,271738.0,258140.0
2026-04-08 21:44:03.623514,176192,1609503815845350,1415812089,1.046272,-0.056608,0.119072,-11.9,-14.2625,-26.87125,-29.096,-2.392,-9.832001,concentric,4,3.0,17130.0,133277.0,219322.0,271738.0,258140.0
2026-04-08 21:44:03.628096,176193,1609503815854280,1415820753,1.046272,-0.056608,0.119072,-16.695,-15.9425,-27.16,-29.096,-2.392,-9.832001,concentric,4,3.0,17130.0,133277.0,219322.0,271738.0,258140.0
2026-04-08 21:44:03.631772,176194,1609503815863208,1415829462,1.052128,-0.07808,0.025376,-17.15875,-16.75625,-28.945,-29.096,-2.944,-12.224001,concentric,4,3.0,17130.0,133277.0,219322.0,271738.0,258140.0
2026-04-08 21:44:03.636166,176195,1609503815877726,1415844300,1.052128,-0.07808,0.025376,-12.78375,-17.91125,-28.98875,-28.544,-2.944,-12.224001,concentric,4,3.0,17130.0,133277.0,219322.0,271738.0,258140.0
2026-04-08 21:44:03.663880,176206,1609503815887268,1415853314,1.098976,-0.070272,-0.021472,-7.49,-17.84125,-27.16,-28.336,-2.928,-11.312,concentric,4,3.0,17307.0,133642.0,219490.0,271615.0,257891.0
2026-04-08 21:44:03.665552,176207,1609503815901881,1415868272,1.098976,-0.070272,-0.021472,-4.92625,-16.58125,-26.3025,-28.336,-2.928,-11.312,concentric,4,3.0,17307.0,133642.0,219490.0,271615.0,257891.0
2026-04-08 21:44:03.667062,176208,1609503815910805,1415876936,1.030656,-0.056608,-0.003904,-10.75375,-16.96625,-27.86875,-28.000002,-2.904,-13.248001,concentric,4,3.0,17307.0,133642.0,219490.0,271615.0,257891.0
2026-04-08 21:44:03.698240,176209,1609503815919716,1415885634,1.030656,-0.056608,-0.003904,-17.885,-18.41875,-30.4675,-28.000002,-2.904,-13.248001,concentric,4,3.0,17307.0,133642.0,219490.0,271615.0,257891.0
2026-04-08 21:44:03.702704,176210,1609503815934169,1415900521,1.048224,-0.144448,0.076128,-19.81,-19.64375,-32.585,-27.704,-2.896,-11.496,concentric,4,3.0,17307.0,133642.0,219490.0,271615.0,257891.0
2026-04-08 21:44:03.706024,176211,1609503815943285,1415909281,1.048224,-0.144448,-0.003904,-18.22625,-20.685,-34.71125,-27.704,-2.896,-11.496,concentric,4,3.0,17307.0,133642.0,219490.0,271615.0,257891.0
2026-04-08 21:44:03.733659,176212,1609503815958075,1415924271,1.1224,-0.169824,-0.003904,-11.80375,-19.45125,-36.46125,-27.2,-3.44,-11.52,concentric,4,3.0,17307.0,133642.0,219490.0,271615.0,257891.0
2026-04-08 21:44:03.738057,176213,1609503815967016,1415932944,1.069696,-0.095648,-0.11712,-5.48625,-16.73875,-37.275,-27.000002,-3.152,-12.888001,concentric,4,3.0,17307.0,133642.0,219490.0,271615.0,257891.0
2026-04-08 21:44:03.739598,176214,1609503815981498,1415947863,1.069696,-0.095648,-0.11712,-4.3575,-14.13125,-37.00375,-27.000002,-3.152,-12.888001,concentric,4,3.0,17307.0,133642.0,219490.0,271615.0,257891.0
2026-04-08 21:44:03.768051,176225,1609503815990550,1415956654,1.09312,-0.10736,0.003904,-6.30875,-12.24125,-37.3625,-26.584002,-3.808,-12.880001,concentric,4,3.0,17548.0,133949.0,219350.0,271088.0,257305.0
2026-04-08 21:44:03.769701,176226,1609503815999567,1415965325,1.09312,-0.10736,0.003904,-12.4075,-12.67875,-38.01,-26.584002,-3.808,-12.880001,concentric,4,3.0,17548.0,133949.0,219350.0,271088.0,257305.0
2026-04-08 21:44:03.773643,176227,1609503816014053,1415980279,1.089216,-0.144448,0.037088,-17.64,-14.48125,-38.920002,-26.104002,-3.408,-11.632001,concentric,4,3.0,17548.0,133949.0,219350.0,271088.0,257305.0
2026-04-08 21:44:03.777421,176228,1609503816022972,1415988965,1.089216,-0.144448,0.037088,-16.05625,-16.49375,-38.99875,-26.104002,-3.408,-11.632001,concentric,4,3.0,17548.0,133949.0,219350.0,271088.0,257305.0
2026-04-08 21:44:03.808209,176229,1609503816037451,1416003820,1.165344,-0.12688,0.005856,-10.29,-16.4675,-38.3425,-25.864,-3.328,-11.904,concentric,4,3.0,17548.0,133949.0,219350.0,271088.0,257305.0
2026-04-08 21:44:03.810845,176230,1609503816046390,1416012799,1.16144,-0.03904,0.027328,-3.00125,-13.41375,-36.84625,-25.472002,-3.568,-13.984,concentric,4,3.0,17548.0,133949.0,219350.0,271088.0,257305.0
2026-04-08 21:44:03.848249,176231,1609503816060999,1416027790,1.16144,-0.03904,0.027328,1.4,-10.3075,-34.95625,-25.472002,-3.568,-13.984,concentric,4,3.0,17548.0,133949.0,219350.0,271088.0,257305.0
2026-04-08 21:44:03.850468,176232,1609503816069916,1416036522,1.106784,-0.05856,-0.013664,-0.4025,-8.61875,-32.69,-25.136002,-3.968,-14.128,concentric,4,3.0,17548.0,133949.0,219350.0,271088.0,257305.0
2026-04-08 21:44:03.855389,176233,1609503816078872,1416045183,1.106784,-0.05856,-0.013664,-5.425,-9.96625,-31.42125,-25.136002,-3.968,-14.128,concentric,4,3.0,17548.0,133949.0,219350.0,271088.0,257305.0
2026-04-08 21:44:03.893077,176244,1609503816093883,1416060735,1.071648,-0.124928,0.099552,-9.75625,-11.9,-31.80625,-24.728,-3.704,-13.952001,concentric,4,3.0,17611.0,134013.0,219322.0,270904.0,257099.0
2026-04-08 21:44:03.894719,176245,1609503816102783,1416069417,1.071648,-0.124928,0.099552,-9.38,-13.72,-32.935,-24.728,-3.704,-13.952001,concentric,4,3.0,17611.0,134013.0,219322.0,270904.0,257099.0
2026-04-08 21:44:03.898873,176246,1609503816117315,1416084351,1.100928,-0.130784,-0.02928,-3.36875,-13.4925,-33.25875,-24.240002,-3.856,-13.632001,concentric,4,3.0,17611.0,134013.0,219322.0,270904.0,257099.0
2026-04-08 21:44:03.900530,176247,1609503816126258,1416093025,1.126304,-0.085888,-0.02928,8.04125,-10.0275,-32.585,-23.896002,-4.016,-13.352,concentric,4,3.0,17611.0,134013.0,219322.0,270904.0,257099.0
2026-04-08 21:44:03.902977,176248,1609503816135218,1416101747,1.126304,-0.085888,-0.02928,16.3275,-7.49875,-30.12625,-23.896002,-4.016,-13.352,concentric,4,3.0,17611.0,134013.0,219322.0,270904.0,257099.0
2026-04-08 21:44:03.905059,176249,1609503816149698,1416116616,1.05408,-0.052704,0.091744,12.53,-4.99625,-29.225,-23.640001,-3.816,-14.864,concentric,4,3.0,17611.0,134013.0,219322.0,270904.0,257099.0
2026-04-08 21:44:03.935733,176250,1609503816158622,1416125289,1.05408,-0.052704,0.091744,3.01875,-4.69875,-29.93375,-23.640001,-3.816,-14.864,concentric,4,3.0,17611.0,134013.0,219322.0,270904.0,257099.0
2026-04-08 21:44:03.938293,176251,1609503816173091,1416140188,1.018944,-0.13664,0.013664,-1.8725,-4.0775,-30.98375,-23.12,-4.048,-14.840001,concentric,4,3.0,17611.0,134013.0,219322.0,270904.0,257099.0
2026-04-08 21:44:03.940817,176252,1609503816181975,1416148827,1.018944,-0.13664,0.013664,-3.9725,-3.325,-30.28375,-23.12,-4.048,-14.840001,concentric,4,3.0,17611.0,134013.0,219322.0,270904.0,257099.0
2026-04-08 21:44:03.970836,176263,1609503816196624,1416163810,1.06384,-0.171776,-0.076128,-5.6175,-3.57875,-30.345,-22.904001,-3.768,-14.904,concentric,4,3.0,17686.0,134136.0,219307.0,270805.0,256953.0
2026-04-08 21:44:03.973297,176264,1609503816205621,1416172546,1.06384,-0.08784,-0.0976,-5.32875,-2.6775,-32.2,-22.6,-3.664,-11.696,concentric,4,3.0,17686.0,134136.0,219307.0,270805.0,256953.0
2026-04-08 21:44:03.975931,176265,1609503816214561,1416181217,1.06384,-0.08784,-0.0976,-5.9325,-1.49625,-34.57125,-22.6,-3.664,-11.696,concentric,4,3.0,17686.0,134136.0,219307.0,270805.0,256953.0
2026-04-08 21:44:04.005972,176266,1609503816229078,1416196087,1.020896,-0.064416,0.070272,-7.98,-0.32375,-36.65375,-22.312,-3.72,-14.096001,concentric,4,3.0,17686.0,134136.0,219307.0,270805.0,256953.0
2026-04-08 21:44:04.009569,176267,1609503816238059,1416204750,1.020896,-0.064416,0.070272,-6.48375,0.06125,-37.21375,-22.312,-3.72,-14.096001,concentric,4,3.0,17686.0,134136.0,219307.0,270805.0,256953.0
2026-04-08 21:44:04.012059,176268,1609503816252530,1416219569,0.950624,-0.150304,0.035136,-3.4825,-1.2075,-35.6825,-22.256,-3.864,-15.584001,concentric,4,3.0,17686.0,134136.0,219307.0,270805.0,256953.0
2026-04-08 21:44:04.017077,176269,1609503816261425,1416228252,0.950624,-0.150304,0.035136,-0.27125,-4.50625,-33.3025,-22.256,-3.864,-15.584001,concentric,4,3.0,17686.0,134136.0,219307.0,270805.0,256953.0
2026-04-08 21:44:04.047303,176270,1609503816275904,1416241142,0.894016,-0.169824,-0.035136,0.67375,-7.7175,-33.7925,-21.672,-4.208,-15.080001,concentric,4,3.0,17686.0,134136.0,219307.0,270805.0,256953.0
2026-04-08 21:44:04.082055,176281,1609503816285135,1416251946,0.894016,-0.169824,-0.035136,3.98125,-9.625,-37.84375,-21.672,-4.208,-15.080001,concentric,4,3.0,17692.0,134282.0,219481.0,270991.0,257101.0
2026-04-08 21:44:04.084562,176282,1609503816294645,1416260723,0.89792,-0.07808,0.037088,7.5425,-9.42375,-41.18625,-21.496,-4.184,-15.456,concentric,4,3.0,17692.0,134282.0,219481.0,270991.0,257101.0
2026-04-08 21:44:04.090769,176283,1609503816309161,1416275704,0.817888,-0.037088,0.08784,9.79125,-8.5925,-42.0525,-21.12,-3.768,-15.224001,concentric,4,3.0,17692.0,134282.0,219481.0,270991.0,257101.0
2026-04-08 21:44:04.093271,176284,1609503816318151,1416284419,0.817888,-0.037088,0.08784,10.8325,-7.21,-41.982502,-21.12,-3.768,-15.224001,concentric,4,3.0,17692.0,134282.0,219481.0,270991.0,257101.0
2026-04-08 21:44:04.133444,176285,1609503816332632,1416299290,0.726144,-0.005856,0.044896,11.55875,-6.72875,-39.69,-20.856,-3.688,-15.672001,concentric,4,3.0,17692.0,134282.0,219481.0,270991.0,257101.0
2026-04-08 21:44:04.164804,176286,1609503816341561,1416307984,0.726144,-0.005856,0.044896,11.55875,-5.78375,-36.25125,-20.856,-3.688,-15.672001,concentric,4,3.0,17692.0,134282.0,219481.0,270991.0,257101.0
2026-04-08 21:44:04.168343,176287,1609503816350478,1416316664,0.772992,-0.017568,-0.001952,9.17,-4.78625,-33.88,-20.52,-4.464,-16.232,concentric,4,3.0,17692.0,134282.0,219481.0,270991.0,257101.0
2026-04-08 21:44:04.170843,176288,1609503816364956,1416331510,0.772992,-0.017568,-0.001952,-1.47,-3.8325,-35.42875,-20.52,-4.464,-16.232,concentric,4,3.0,17692.0,134282.0,219481.0,270991.0,257101.0
2026-04-08 21:44:04.173355,176289,1609503816373853,1416340187,0.841312,-0.052704,-0.031232,-9.14375,-1.28625,-37.66,-20.416,-4.344,-15.840001,concentric,4,3.0,17692.0,134282.0,219481.0,270991.0,257101.0
2026-04-08 21:44:04.200820,176300,1609503816388707,1416355078,0.8784,-0.05856,0.05856,-11.59375,-0.79625,-37.58125,-20.224,-4.0,-14.256001,concentric,4,3.0,17707.0,134550.0,219848.0,271330.0,257394.0
2026-04-08 21:44:04.203338,176301,1609503816397793,1416363778,0.8784,-0.05856,0.05856,-12.2675,-0.74375,-35.638752,-20.224,-4.0,-14.256001,concentric,4,3.0,17707.0,134550.0,219848.0,271330.0,257394.0
2026-04-08 21:44:04.205769,176302,1609503816406731,1416372442,0.854976,-0.005856,-0.015616,-10.36875,0.56,-35.46375,-20.224,-6.048,-16.336,concentric,4,3.0,17707.0,134550.0,219848.0,271330.0,257394.0
2026-04-08 21:44:04.208410,176303,1609503816421196,1416387345,0.854976,-0.005856,-0.015616,-6.36125,4.78625,-35.315,-19.848001,-4.656,-16.336,concentric,4,3.0,17707.0,134550.0,219848.0,271330.0,257394.0
2026-04-08 21:44:04.210835,176304,1609503816430127,1416396089,0.755424,0.00976,-0.1464,-2.10875,8.60125,-33.25875,-20.016,-4.848,-16.0,concentric,4,3.0,17707.0,134550.0,219848.0,271330.0,257394.0
2026-04-08 21:44:04.213287,176305,1609503816444673,1416410995,0.755424,0.00976,-0.1464,-5.8625,8.8025,-30.975,-20.016,-4.848,-16.0,concentric,4,3.0,17707.0,134550.0,219848.0,271330.0,257394.0
2026-04-08 21:44:04.215909,176306,1609503816453594,1416419679,0.853024,-0.052704,-0.052704,-14.1575,5.67875,-33.04,-19.656,-4.968,-14.264001,concentric,4,3.0,17707.0,134550.0,219848.0,271330.0,257394.0
2026-04-08 21:44:04.247285,176307,1609503816468140,1416434617,0.851072,0.0,-0.083936,-18.34,3.89375,-36.54875,-19.52,-5.08,-15.048,concentric,4,3.0,17707.0,134550.0,219848.0,271330.0,257394.0
2026-04-08 21:44:04.250815,176308,1609503816477116,1416443308,0.851072,0.0,-0.083936,-14.3675,4.29625,-38.71,-19.52,-5.08,-15.048,concentric,4,3.0,17707.0,134550.0,219848.0,271330.0,257394.0
2026-04-08 21:44:04.278365,176319,1609503816486037,1416452264,0.851072,0.0,-0.083936,-6.125,6.58875,-38.35125,-19.52,-5.08,-15.048,concentric,4,3.0,18018.0,134897.0,219774.0,270940.0,256925.0
2026-04-08 21:44:04.280780,176320,1609503816500554,1416467148,0.815936,0.064416,-0.076128,0.60375,9.0475,-37.38,-19.576,-5.288,-16.992,concentric,4,3.0,18018.0,134897.0,219774.0,270940.0,256925.0
2026-04-08 21:44:04.283331,176321,1609503816509498,1416475831,0.743712,0.113216,-0.066368,2.6775,9.65125,-35.84875,-19.264002,-5.04,-15.192,concentric,4,3.0,18018.0,134897.0,219774.0,270940.0,256925.0
2026-04-08 21:44:04.285795,176322,1609503816524010,1416490749,0.743712,0.113216,-0.066368,1.2075,8.8025,-32.655,-19.264002,-5.04,-15.192,concentric,4,3.0,18018.0,134897.0,219774.0,270940.0,256925.0
2026-04-08 21:44:04.289508,176323,1609503816532915,1416499403,0.7808,0.095648,-0.054656,0.02625,8.6275,-29.56625,-19.536001,-5.232,-15.440001,concentric,4,3.0,18018.0,134897.0,219774.0,270940.0,256925.0
2026-04-08 21:44:04.319800,176324,1609503816547426,1416514338,0.7808,0.054656,0.052704,-5.29375,9.38875,-28.3325,-19.536001,-5.232,-15.440001,concentric,4,3.0,18018.0,134897.0,219774.0,270940.0,256925.0
2026-04-08 21:44:04.323370,176325,1609503816556364,1416523024,0.81984,0.054656,0.052704,-11.5325,9.30125,-29.05,-19.208,-5.696,-13.896001,concentric,4,3.0,18018.0,134897.0,219774.0,270940.0,256925.0
2026-04-08 21:44:04.325807,176326,1609503816565295,1416531683,0.81984,0.054656,0.052704,-14.14875,9.66875,-30.598751,-19.208,-5.696,-13.896001,concentric,4,3.0,18018.0,134897.0,219774.0,270940.0,256925.0
2026-04-08 21:44:04.356029,176327,1609503816579821,1416546577,0.728096,0.06832,-0.044896,-4.48875,12.285,-29.435,-19.112001,-5.688,-16.272001,concentric,4,3.0,18018.0,134897.0,219774.0,270940.0,256925.0
2026-04-08 21:44:04.388266,176338,1609503816588859,1416555342,0.689056,0.124928,-0.158112,5.66125,12.69625,-22.07625,-19.032001,-5.864,-16.176,concentric,4,3.0,17958.0,135178.0,220291.0,271600.0,257515.0
2026-04-08 21:44:04.390841,176339,1609503816603402,1416570281,0.689056,0.124928,-0.158112,3.605,11.82125,-17.07125,-19.032001,-5.864,-16.176,concentric,4,3.0,17958.0,135178.0,220291.0,271600.0,257515.0
2026-04-08 21:44:04.393337,176340,1609503816612340,1416578938,0.710528,0.095648,0.056608,-1.8025,10.71875,-19.43375,-18.84,-5.872,-15.832001,concentric,4,3.0,17958.0,135178.0,220291.0,271600.0,257515.0
2026-04-08 21:44:04.395882,176341,1609503816626841,1416593801,0.710528,0.095648,0.056608,-7.42875,7.70875,-22.4,-18.84,-5.872,-15.832001,concentric,4,3.0,17958.0,135178.0,220291.0,271600.0,257515.0
2026-04-08 21:44:04.399250,176342,1609503816635809,1416602551,0.714432,0.081984,0.031232,-11.36625,5.04875,-23.0125,-19.024,-5.984,-15.808001,concentric,4,3.0,17958.0,135178.0,220291.0,271600.0,257515.0
2026-04-08 21:44:04.400760,176343,1609503816644779,1416611229,0.714432,0.081984,0.031232,-7.21875,4.13875,-21.81375,-19.024,-5.984,-15.808001,concentric,4,3.0,17958.0,135178.0,220291.0,271600.0,257515.0
2026-04-08 21:44:04.445712,176344,1609503816659272,1416626122,0.735904,0.163968,0.0488,3.80625,4.585,-18.92625,-19.104,-5.672,-15.336,concentric,4,3.0,17958.0,135178.0,220291.0,271600.0,257515.0
2026-04-08 21:44:04.450117,176345,1609503816668201,1416634781,0.735904,0.230336,-0.007808,10.92875,6.23,-14.55125,-19.104,-5.672,-15.336,concentric,4,3.0,17958.0,135178.0,220291.0,271600.0,257515.0
2026-04-08 21:44:04.451851,176346,1609503816682659,1416649631,0.778848,0.230336,-0.007808,7.90125,7.39375,-10.2725,-18.816,-6.176,-14.216001,concentric,4,3.0,17958.0,135178.0,220291.0,271600.0,257515.0
2026-04-08 21:44:04.480114,176357,1609503816691737,1416658375,0.778848,0.230336,-0.001952,-2.8525,8.79375,-8.8725,-18.976002,-5.960001,-16.2,concentric,4,3.0,18017.0,135606.0,220901.0,272066.0,257783.0
2026-04-08 21:44:04.481807,176358,1609503816706359,1416673250,0.778848,0.230336,-0.001952,-18.03375,10.22,-9.58125,-18.976002,-5.960001,-16.2,concentric,4,3.0,18017.0,135606.0,220901.0,272066.0,257783.0
2026-04-08 21:44:04.483455,176359,1609503816715300,1416681919,0.815936,0.21472,0.138592,-27.991251,12.41625,-9.70375,-18.720001,-6.232,-14.392001,concentric,4,3.0,18017.0,135606.0,220901.0,272066.0,257783.0
2026-04-08 21:44:04.487400,176360,1609503816724223,1416690662,0.815936,0.21472,0.138592,-26.48625,15.4525,-6.43125,-18.720001,-6.232,-14.392001,concentric,4,3.0,18017.0,135606.0,220901.0,272066.0,257783.0
2026-04-08 21:44:04.516184,176361,1609503816738766,1416705536,0.747616,0.183488,-0.033184,-20.9825,15.82875,-1.2075,-19.04,-6.36,-15.664001,concentric,4,3.0,18017.0,135606.0,220901.0,272066.0,257783.0
2026-04-08 21:44:04.520533,176362,1609503816747700,1416714202,0.747616,0.183488,-0.033184,-19.495,15.47,0.49875,-19.04,-6.36,-15.664001,concentric,4,3.0,18017.0,135606.0,220901.0,272066.0,257783.0
2026-04-08 21:44:04.522049,176363,1609503816762180,1416729057,0.72224,0.171776,0.083936,-18.375,13.72,-0.35875,-19.384,-6.08,-15.816001,concentric,4,3.0,18017.0,135606.0,220901.0,272066.0,257783.0
2026-04-08 21:44:04.529992,176364,1609503816771097,1416737707,0.788608,0.142496,0.0,-17.03625,9.98375,0.41125,-19.128,-6.304,-14.712001,concentric,4,3.0,18017.0,135606.0,220901.0,272066.0,257783.0
2026-04-08 21:44:04.536252,176365,1609503816780102,1416746381,0.788608,0.142496,0.0,-19.45125,6.22125,0.0175,-19.128,-6.304,-14.712001,concentric,4,3.0,18017.0,135606.0,220901.0,272066.0,257783.0
2026-04-08 21:44:04.592739,176376,1609503816794670,1416761316,0.812032,0.177632,0.060512,-18.6725,4.52375,-3.5,-19.36,-6.256001,-15.536001,concentric,4,3.0,18013.0,135305.0,220336.0,271500.0,257392.0
2026-04-08 21:44:04.594544,176377,1609503816803588,1416769956,0.812032,0.177632,0.060512,-10.8675,4.83,-5.0225,-19.36,-6.256001,-15.536001,concentric,4,3.0,18013.0,135305.0,220336.0,271500.0,257392.0
2026-04-08 21:44:04.596151,176378,1609503816818084,1416784889,0.765184,0.206912,0.091744,-3.19375,4.9875,-2.1875,-19.080002,-6.496,-15.424001,concentric,4,3.0,18013.0,135305.0,220336.0,271500.0,257392.0
2026-04-08 21:44:04.601820,176379,1609503816827012,1416793559,0.765184,0.206912,0.091744,-3.50875,3.36,-0.46375,-19.080002,-6.496,-15.424001,concentric,4,3.0,18013.0,135305.0,220336.0,271500.0,257392.0
2026-04-08 21:44:04.604091,176380,1609503816841558,1416808502,0.79056,0.1952,-0.01952,-6.755,0.83125,-0.9975,-19.008001,-6.344,-14.864,concentric,4,3.0,18013.0,135305.0,220336.0,271500.0,257392.0
2026-04-08 21:44:04.611224,176381,1609503816850622,1416817172,0.821792,0.201056,-0.023424,-10.08875,-1.42625,-2.38875,-19.12,-6.088,-12.896001,concentric,4,3.0,18013.0,135305.0,220336.0,271500.0,257392.0
2026-04-08 21:44:04.616195,176382,1609503816859555,1416825860,0.821792,0.201056,-0.023424,-12.20625,-2.695,-3.91125,-19.12,-6.088,-12.896001,concentric,4,3.0,18013.0,135305.0,220336.0,271500.0,257392.0
2026-04-08 21:44:04.644772,176383,1609503816874054,1416840728,0.802272,0.226432,0.0488,-14.175,-2.89625,-5.145,-19.408,-6.328,-15.592001,concentric,4,3.0,18013.0,135305.0,220336.0,271500.0,257392.0
2026-04-08 21:44:04.649341,176384,1609503816882961,1416849388,0.802272,0.226432,0.0488,-12.6525,-2.47625,-5.34625,-19.408,-6.328,-15.592001,concentric,4,3.0,18013.0,135305.0,220336.0,271500.0,257392.0
2026-04-08 21:44:04.679686,176395,1609503816897829,1416864322,0.733952,0.22448,0.07808,-9.625,-2.8,-3.4825,-18.944,-6.456,-15.384001,eccentric,4,3.0,17967.0,135269.0,220333.0,271501.0,257384.0
2026-04-08 21:44:04.683787,176396,1609503816906779,1416873053,0.733952,0.22448,0.07808,-8.68,-4.52375,-2.38875,-18.944,-6.456,-15.384001,eccentric,4,3.0,17967.0,135269.0,220333.0,271501.0,257384.0
2026-04-08 21:44:04.685530,176397,1609503816921337,1416887957,0.806176,0.17568,0.003904,-4.92625,-8.5225,-2.63375,-19.088001,-6.288,-14.008,eccentric,4,3.0,17967.0,135269.0,220333.0,271501.0,257384.0
2026-04-08 21:44:04.687909,176398,1609503816930313,1416896656,0.851072,0.179584,-0.017568,-3.535,-11.725,-3.96375,-19.088001,-6.432,-16.112001,eccentric,4,3.0,17967.0,135269.0,220333.0,271501.0,257384.0
2026-04-08 21:44:04.745336,176399,1609503816939369,1416905329,0.851072,0.179584,-0.017568,-2.07375,-11.375,-6.39625,-19.064001,-6.432,-16.112001,eccentric,4,3.0,17967.0,135269.0,220333.0,271501.0,257384.0
2026-04-08 21:44:04.746722,176400,1609503816953822,1416920193,0.792512,0.212768,-0.050752,3.15875,-9.47625,-5.9675,-19.016,-6.336,-15.744,eccentric,4,3.0,17967.0,135269.0,220333.0,271501.0,257384.0
2026-04-08 21:44:04.752552,176401,1609503816962732,1416928869,0.792512,0.212768,-0.050752,4.13,-9.275,-2.70375,-19.016,-6.336,-15.744,eccentric,4,3.0,17967.0,135269.0,220333.0,271501.0,257384.0
2026-04-08 21:44:04.753268,176402,1609503816977175,1416943755,0.837408,0.210816,0.081984,1.89875,-9.68625,-1.785,-18.896002,-6.552001,-16.024,eccentric,4,3.0,17967.0,135269.0,220333.0,271501.0,257384.0
2026-04-08 21:44:04.754718,176403,1609503816986076,1416952428,0.837408,0.210816,0.081984,-0.6825,-11.042501,-2.70375,-18.896002,-6.552001,-16.024,eccentric,4,3.0,17967.0,135269.0,220333.0,271501.0,257384.0
2026-04-08 21:44:04.783056,176414,1609503817000710,1416967488,0.788608,0.20496,-0.093696,-3.10625,-11.34,-1.95125,-18.792002,-6.792,-15.824,eccentric,4,3.0,17926.0,135347.0,220614.0,271833.0,257638.0
2026-04-08 21:44:04.784628,176415,1609503817009674,1416976190,0.788608,0.20496,-0.093696,-4.12125,-11.095,-0.5425,-18.792002,-6.792,-15.824,eccentric,4,3.0,17926.0,135347.0,220614.0,271833.0,257638.0
2026-04-08 21:44:04.791398,176416,1609503817018636,1416984864,0.763232,0.212768,-0.060512,-4.41875,-10.2725,0.02625,-18.856,-6.328,-14.728001,eccentric,4,3.0,17926.0,135347.0,220614.0,271833.0,257638.0
2026-04-08 21:44:04.792979,176417,1609503817033146,1416999747,0.759328,0.20496,0.033184,-4.36625,-9.6075,0.6825,-18.952002,-6.352,-15.352001,eccentric,4,3.0,17926.0,135347.0,220614.0,271833.0,257638.0
2026-04-08 21:44:04.799236,176418,1609503817042047,1417008428,0.759328,0.20496,0.033184,-6.27375,-10.6225,1.715,-18.952002,-6.352,-15.352001,eccentric,4,3.0,17926.0,135347.0,220614.0,271833.0,257638.0
2026-04-08 21:44:04.831641,176419,1609503817056530,1417023298,0.843264,0.154208,-0.044896,-8.53125,-11.480001,1.77625,-18.928001,-6.528,-16.256,eccentric,4,3.0,17926.0,135347.0,220614.0,271833.0,257638.0
2026-04-08 21:44:04.834508,176420,1609503817065437,1417031999,0.843264,0.154208,-0.044896,-9.0475,-12.145,0.7525,-18.928001,-6.528,-16.256,eccentric,4,3.0,17926.0,135347.0,220614.0,271833.0,257638.0
2026-04-08 21:44:04.836352,176421,1609503817074326,1417040655,0.823744,0.197152,0.056608,-8.51375,-12.01375,0.46375,-18.632,-6.664001,-16.136002,eccentric,4,3.0,17926.0,135347.0,220614.0,271833.0,257638.0
2026-04-08 21:44:04.894702,176432,1609503817088804,1417055526,0.823744,0.197152,0.056608,-5.85375,-11.52375,1.505,-18.632,-6.664001,-16.136002,eccentric,4,3.0,17956.0,135337.0,220523.0,271680.0,257485.0
2026-04-08 21:44:04.898876,176433,1609503817097726,1417064231,0.833504,0.177632,0.037088,-1.89875,-11.52375,2.94875,-19.024,-6.864,-15.968,eccentric,4,3.0,17956.0,135337.0,220523.0,271680.0,257485.0
2026-04-08 21:44:04.900535,176434,1609503817112200,1417079068,0.866688,0.138592,-0.003904,1.015,-12.04,4.4975,-18.656,-6.12,-17.712,eccentric,4,3.0,17956.0,135337.0,220523.0,271680.0,257485.0
2026-04-08 21:44:04.902122,176435,1609503817121141,1417087765,0.866688,0.138592,-0.003904,5.0225,-12.48625,6.16,-18.656,-6.12,-17.712,eccentric,4,3.0,17956.0,135337.0,220523.0,271680.0,257485.0
2026-04-08 21:44:04.904557,176436,1609503817135648,1417102737,0.931104,0.163968,0.062464,7.72625,-12.92375,6.95625,-18.696001,-6.392,-16.392,eccentric,4,3.0,17956.0,135337.0,220523.0,271680.0,257485.0
2026-04-08 21:44:04.910812,176437,1609503817144583,1417111422,0.931104,0.163968,0.062464,7.98875,-11.62,6.51875,-18.696001,-6.392,-16.392,eccentric,4,3.0,17956.0,135337.0,220523.0,271680.0,257485.0
2026-04-08 21:44:04.915119,176438,1609503817159113,1417124270,0.919392,0.203008,0.066368,9.68625,-9.37125,6.51875,-18.960001,-6.336,-14.784,eccentric,4,3.0,17956.0,135337.0,220523.0,271680.0,257485.0
2026-04-08 21:44:04.943545,176439,1609503817168290,1417134995,0.919392,0.203008,0.066368,9.5025,-7.48125,9.0825,-18.960001,-6.336,-14.784,eccentric,4,3.0,17956.0,135337.0,220523.0,271680.0,257485.0
2026-04-08 21:44:04.947139,176440,1609503817177241,1417143686,0.86864,0.222528,0.111264,6.76375,-6.4225,10.35125,-18.400002,-6.176,-15.992001,eccentric,4,3.0,17956.0,135337.0,220523.0,271680.0,257485.0
2026-04-08 21:44:04.975573,176451,1609503817192011,1417158564,0.86864,0.148352,0.140544,5.60875,-6.51875,10.21125,-18.400002,-6.176,-15.992001,eccentric,4,3.0,17939.0,135329.0,220544.0,271716.0,257564.0
2026-04-08 21:44:04.977253,176452,1609503817201095,1417167296,0.940864,0.148352,0.140544,7.88375,-7.035,11.3575,-18.656,-5.984,-16.456001,eccentric,4,3.0,17939.0,135329.0,220544.0,271716.0,257564.0
2026-04-08 21:44:04.984690,176453,1609503817215620,1417182206,0.880352,0.171776,-0.099552,9.73875,-7.88375,12.32875,-18.456001,-5.552,-15.784,eccentric,4,3.0,17939.0,135329.0,220544.0,271716.0,257564.0
2026-04-08 21:44:04.986296,176454,1609503817224543,1417190898,0.880352,0.171776,-0.099552,12.7225,-7.63,11.50625,-18.456001,-5.552,-15.784,eccentric,4,3.0,17939.0,135329.0,220544.0,271716.0,257564.0
2026-04-08 21:44:04.992277,176455,1609503817233511,1417199606,0.886208,0.220576,-0.025376,17.5175,-5.7575,11.06,-19.024,-5.672,-14.736001,eccentric,4,3.0,17939.0,135329.0,220544.0,271716.0,257564.0
2026-04-08 21:44:05.044508,176456,1609503817247931,1417214507,0.886208,0.220576,-0.025376,21.02625,-5.3375,13.58,-19.024,-5.672,-14.736001,eccentric,4,3.0,17939.0,135329.0,220544.0,271716.0,257564.0
2026-04-08 21:44:05.048987,176457,1609503817256849,1417223197,0.911584,0.171776,-0.0488,21.5425,-5.8275,14.81375,-18.936,-5.72,-16.872002,eccentric,4,3.0,17939.0,135329.0,220544.0,271716.0,257564.0
2026-04-08 21:44:05.050615,176458,1609503817271312,1417238052,0.911584,0.171776,-0.0488,21.35875,-5.45125,14.13125,-18.936,-5.72,-16.872002,eccentric,4,3.0,17939.0,135329.0,220544.0,271716.0,257564.0
2026-04-08 21:44:05.052306,176459,1609503817280291,1417246730,0.847168,0.177632,0.076128,22.295,-5.99375,14.21875,-19.104,-5.16,-16.408,eccentric,4,3.0,17939.0,135329.0,220544.0,271716.0,257564.0
2026-04-08 21:44:05.081362,176470,1609503817295036,1417261600,0.899872,0.201056,0.025376,22.07625,-6.60625,14.5075,-18.776001,-5.136,-16.752,eccentric,4,3.0,18166.0,136095.0,221552.0,272452.0,257915.0
2026-04-08 21:44:05.083103,176471,1609503817304161,1417270356,0.899872,0.201056,0.025376,20.65875,-6.6325,13.13375,-18.776001,-5.136,-16.752,eccentric,4,3.0,18166.0,136095.0,221552.0,272452.0,257915.0
2026-04-08 21:44:05.084622,176472,1609503817313073,1417279061,0.856928,0.208864,-0.080032,18.55,-4.97,11.375,-18.784,-4.776,-16.720001,eccentric,4,3.0,18166.0,136095.0,221552.0,272452.0,257915.0
2026-04-08 21:44:05.088737,176473,1609503817327590,1417293968,0.856928,0.208864,-0.080032,18.4975,-3.59625,11.40125,-18.784,-4.776,-16.720001,eccentric,4,3.0,18166.0,136095.0,221552.0,272452.0,257915.0
2026-04-08 21:44:05.092933,176474,1609503817336512,1417302641,0.882304,0.162016,0.001952,16.52875,-3.08,13.76375,-19.088001,-5.28,-16.6,eccentric,4,3.0,18166.0,136095.0,221552.0,272452.0,257915.0
2026-04-08 21:44:05.122244,176475,1609503817351020,1417317542,0.882304,0.162016,0.001952,12.46,-3.92875,13.9825,-19.088001,-5.28,-16.6,eccentric,4,3.0,18166.0,136095.0,221552.0,272452.0,257915.0
2026-04-08 21:44:05.125800,176476,1609503817359942,1417326199,0.8784,0.130784,-0.103456,10.91125,-4.27,13.0725,-19.152,-4.704,-15.800001,eccentric,4,3.0,18166.0,136095.0,221552.0,272452.0,257915.0
2026-04-08 21:44:05.128315,176477,1609503817368858,1417334876,0.8784,0.130784,-0.103456,10.675,-4.17375,12.215,-19.152,-4.704,-15.800001,eccentric,4,3.0,18166.0,136095.0,221552.0,272452.0,257915.0
2026-04-08 21:44:05.158543,176478,1609503817383382,1417349760,0.84912,0.1952,-0.132736,8.65375,-3.10625,10.85,-18.848001,-4.72,-16.28,eccentric,4,3.0,18166.0,136095.0,221552.0,272452.0,257915.0
2026-04-08 21:44:05.197068,176489,1609503817392836,1417358592,0.84912,0.1952,-0.132736,6.01125,-2.12625,10.325,-18.848001,-4.72,-16.28,eccentric,4,3.0,18062.0,136016.0,221680.0,272756.0,258222.0
2026-04-08 21:44:05.199509,176490,1609503817407386,1417373512,0.894016,0.17568,0.072224,5.04,-1.30375,10.57875,-19.216002,-4.336,-17.264,eccentric,4,3.0,18062.0,136016.0,221680.0,272756.0,258222.0
2026-04-08 21:44:05.202061,176491,1609503817416336,1417382225,0.804224,0.122976,0.054656,6.6675,-1.505,12.17125,-19.128,-4.312,-15.888001,eccentric,4,3.0,18062.0,136016.0,221680.0,272756.0,258222.0
2026-04-08 21:44:05.204550,176492,1609503817425406,1417390899,0.804224,0.122976,0.054656,7.55125,-3.2725,13.0025,-19.128,-4.312,-15.888001,eccentric,4,3.0,18062.0,136016.0,221680.0,272756.0,258222.0
2026-04-08 21:44:05.207191,176493,1609503817440222,1417405808,0.79056,0.111264,-0.083936,8.645,-4.83,10.36,-19.080002,-4.168,-16.712,eccentric,4,3.0,18062.0,136016.0,221680.0,272756.0,258222.0
2026-04-08 21:44:05.209659,176494,1609503817449585,1417416531,0.79056,0.111264,-0.083936,13.93875,-5.67875,8.4875,-19.080002,-4.168,-16.712,eccentric,4,3.0,18062.0,136016.0,221680.0,272756.0,258222.0
2026-04-08 21:44:05.239776,176495,1609503817464118,1417429426,0.860832,0.1464,0.07808,18.08625,-6.51875,9.1525,-19.736,-4.28,-15.760001,eccentric,4,3.0,18062.0,136016.0,221680.0,272756.0,258222.0
2026-04-08 21:44:05.243330,176496,1609503817473420,1417440245,0.860832,0.1464,0.095648,20.6675,-7.1925,9.72125,-19.736,-4.28,-15.760001,eccentric,4,3.0,18062.0,136016.0,221680.0,272756.0,258222.0
2026-04-08 21:44:05.245874,176497,1609503817482335,1417448905,0.696864,0.13664,0.095648,23.3275,-8.435,10.01,-19.128,-3.768,-14.824,eccentric,4,3.0,18062.0,136016.0,221680.0,272756.0,258222.0
2026-04-08 21:44:05.282046,176508,1609503817497000,1417463937,0.821792,0.037088,-0.115168,23.91375,-8.54875,11.41,-19.424002,-4.08,-16.632,eccentric,4,3.0,17810.0,135653.0,221618.0,272989.0,258577.0
2026-04-08 21:44:05.284553,176509,1609503817506003,1417472722,0.821792,0.037088,-0.115168,19.85375,-7.77875,12.005,-19.424002,-4.08,-16.632,eccentric,4,3.0,17810.0,135653.0,221618.0,272989.0,258577.0
2026-04-08 21:44:05.287072,176510,1609503817520509,1417487644,0.856928,0.091744,-0.095648,10.96375,-5.4425,9.1175,-19.536001,-3.608,-16.776001,eccentric,4,3.0,17810.0,135653.0,221618.0,272989.0,258577.0
2026-04-08 21:44:05.289573,176511,1609503817529443,1417496318,0.856928,0.091744,-0.095648,5.50375,-2.905,5.81,-19.536001,-3.608,-16.776001,eccentric,4,3.0,17810.0,135653.0,221618.0,272989.0,258577.0
2026-04-08 21:44:05.347328,176512,1609503817543976,1417509137,0.798368,0.113216,0.15616,4.92625,-2.52875,6.44,-19.512001,-3.576,-15.392001,eccentric,4,3.0,17810.0,135653.0,221618.0,272989.0,258577.0
2026-04-08 21:44:05.350795,176513,1609503817553105,1417519845,0.798368,0.113216,0.15616,5.1275,-3.87625,10.2725,-19.512001,-3.576,-15.392001,eccentric,4,3.0,17810.0,135653.0,221618.0,272989.0,258577.0
2026-04-08 21:44:05.353292,176514,1609503817562042,1417528549,0.710528,-0.007808,0.201056,7.91875,-6.405,11.480001,-19.552,-3.792,-17.272001,eccentric,4,3.0,17810.0,135653.0,221618.0,272989.0,258577.0
2026-04-08 21:44:05.355812,176515,1609503817576512,1417543409,0.837408,-0.091744,-0.1464,11.20875,-9.54625,11.0775,-19.696001,-3.48,-16.728,eccentric,4,3.0,17810.0,135653.0,221618.0,272989.0,258577.0
2026-04-08 21:44:05.360802,176516,1609503817585410,1417552053,0.837408,-0.091744,-0.1464,16.5375,-12.20625,11.64625,-19.696001,-3.48,-16.728,eccentric,4,3.0,17810.0,135653.0,221618.0,272989.0,258577.0
2026-04-08 21:44:05.426322,176528,1609503817600007,1417567032,0.854976,0.03904,-0.054656,22.3825,-11.90875,11.38375,-19.560001,-3.096,-16.872002,eccentric,4,3.0,17936.0,135897.0,221865.0,273124.0,258605.0
2026-04-08 21:44:05.428034,176529,1609503817608940,1417575719,0.854976,0.03904,-0.054656,32.375,-9.345,12.3375,-19.560001,-3.096,-16.872002,eccentric,4,3.0,17936.0,135897.0,221865.0,273124.0,258605.0
2026-04-08 21:44:05.430460,176530,1609503817617911,1417584473,0.769088,0.076128,-0.015616,38.22875,-7.4725,18.69,-20.0,-2.952,-16.016,eccentric,4,3.0,17936.0,135897.0,221865.0,273124.0,258605.0
2026-04-08 21:44:05.432148,176531,1609503817632431,1417599344,0.769088,0.076128,-0.015616,35.69125,-6.41375,25.15625,-20.0,-2.952,-16.016,eccentric,4,3.0,17936.0,135897.0,221865.0,273124.0,258605.0
2026-04-08 21:44:05.436498,176532,1609503817641394,1417608005,0.79056,-0.042944,-0.052704,25.50625,-6.58,26.95875,-19.880001,-2.68,-16.976002,eccentric,4,3.0,17936.0,135897.0,221865.0,273124.0,258605.0
2026-04-08 21:44:05.442526,176533,1609503817655879,1417622844,0.894016,-0.105408,-0.080032,12.11,-7.67375,25.38375,-19.992,-2.672,-18.752,eccentric,4,3.0,17936.0,135897.0,221865.0,273124.0,258605.0
2026-04-08 21:44:05.444265,176534,1609503817664797,1417631561,0.894016,-0.105408,-0.080032,4.1825,-6.37,22.645,-19.992,-2.672,-18.752,eccentric,4,3.0,17936.0,135897.0,221865.0,273124.0,258605.0
2026-04-08 21:44:05.445799,176535,1609503817679348,1417646497,0.798368,-0.044896,-0.113216,5.3725,-2.93125,21.07875,-20.168001,-2.52,-16.240002,eccentric,4,3.0,17936.0,135897.0,221865.0,273124.0,258605.0
2026-04-08 21:44:05.449818,176536,1609503817688282,1417655171,0.798368,-0.044896,-0.113216,9.975,1.21625,22.7325,-20.168001,-2.52,-16.240002,eccentric,4,3.0,17936.0,135897.0,221865.0,273124.0,258605.0
2026-04-08 21:44:05.481329,176547,1609503817697416,1417663960,0.784704,-0.035136,-0.033184,13.37,3.64875,26.39875,-20.784,-2.16,-15.376,eccentric,4,3.0,17670.0,135149.0,221218.0,272813.0,258579.0
2026-04-08 21:44:05.482969,176548,1609503817711927,1417678909,0.784704,-0.035136,-0.033184,13.16,4.9875,28.848751,-20.784,-2.16,-15.376,eccentric,4,3.0,17670.0,135149.0,221218.0,272813.0,258579.0
2026-04-08 21:44:05.484531,176549,1609503817720900,1417687587,0.899872,-0.103456,0.074176,8.79375,4.8825,27.64125,-20.52,-2.28,-15.744,eccentric,4,3.0,17670.0,135149.0,221218.0,272813.0,258579.0
2026-04-08 21:44:05.515601,176550,1609503817735396,1417702471,0.899872,-0.15616,-0.124928,5.8975,7.09625,25.17375,-20.52,-2.28,-15.744,eccentric,4,3.0,17670.0,135149.0,221218.0,272813.0,258579.0
2026-04-08 21:44:05.518404,176551,1609503817744322,1417711124,0.940864,-0.15616,-0.124928,6.30875,11.13,24.045,-20.992,-2.16,-17.864,eccentric,4,3.0,17670.0,135149.0,221218.0,272813.0,258579.0
2026-04-08 21:44:05.522493,176552,1609503817758778,1417723924,0.954528,-0.13664,-0.060512,9.14375,14.980001,24.57875,-21.256,-2.304,-15.880001,eccentric,4,3.0,17670.0,135149.0,221218.0,272813.0,258579.0
2026-04-08 21:44:05.524936,176553,1609503817767890,1417734771,0.954528,-0.13664,-0.060512,8.82875,17.675,25.62875,-21.256,-2.304,-15.880001,eccentric,4,3.0,17670.0,135149.0,221218.0,272813.0,258579.0
2026-04-08 21:44:05.553410,176554,1609503817776831,1417743448,0.99552,-0.101504,-0.023424,6.44875,19.022501,25.27875,-21.552002,-2.288,-15.496,eccentric,4,3.0,17670.0,135149.0,221218.0,272813.0,258579.0
2026-04-08 21:44:05.558081,176555,1609503817791305,1417758300,0.99552,-0.101504,-0.023424,7.35,21.0175,23.8875,-21.552002,-2.288,-15.496,eccentric,4,3.0,17670.0,135149.0,221218.0,272813.0,258579.0
2026-04-08 21:44:05.585477,176566,1609503817800240,1417767080,0.950624,-0.121024,-0.144448,11.05125,23.68625,24.0625,-21.712002,-2.288,-15.68,eccentric,4,3.0,17577.0,134585.0,220547.0,272203.0,258124.0
2026-04-08 21:44:05.587029,176567,1609503817814747,1417779932,0.950624,-0.121024,-0.144448,13.1425,24.17625,25.54125,-21.712002,-2.288,-15.68,eccentric,4,3.0,17577.0,134585.0,220547.0,272203.0,258124.0
2026-04-08 21:44:05.591249,176568,1609503817824021,1417790773,1.011136,-0.124928,0.050752,14.07875,23.5725,25.655,-22.496,-1.752,-12.104001,eccentric,4,3.0,17577.0,134585.0,220547.0,272203.0,258124.0
2026-04-08 21:44:05.593700,176569,1609503817833092,1417799463,1.011136,-0.124928,0.050752,14.18375,21.72625,25.1125,-22.496,-1.752,-12.104001,eccentric,4,3.0,17577.0,134585.0,220547.0,272203.0,258124.0
2026-04-08 21:44:05.646311,176570,1609503817847630,1417814361,1.026752,-0.113216,-0.128832,14.980001,21.49875,25.9175,-22.488,-1.472,-14.168,eccentric,4,3.0,17577.0,134585.0,220547.0,272203.0,258124.0
2026-04-08 21:44:05.648789,176571,1609503817856521,1417823031,1.020896,-0.080032,0.070272,19.04875,23.26625,27.265,-22.488,-1.76,-14.528001,eccentric,4,3.0,17577.0,134585.0,220547.0,272203.0,258124.0
2026-04-08 21:44:05.650519,176572,1609503817871004,1417837890,1.020896,-0.080032,0.070272,25.1125,25.34,28.630001,-22.544,-1.76,-14.528001,eccentric,4,3.0,17577.0,134585.0,220547.0,272203.0,258124.0
2026-04-08 21:44:05.652005,176573,1609503817879912,1417846531,0.944768,-0.103456,-0.07808,26.53,25.3225,31.272501,-23.000002,-1.576,-14.576001,eccentric,4,3.0,17577.0,134585.0,220547.0,272203.0,258124.0
2026-04-08 21:44:05.680501,176584,1609503817894668,1417861898,0.944768,-0.103456,-0.07808,25.9,24.70125,32.165,-23.000002,-1.576,-14.576001,eccentric,4,3.0,17257.0,133789.0,220010.0,272077.0,258203.0
2026-04-08 21:44:05.682041,176585,1609503817903752,1417870584,0.983808,-0.130784,-0.027328,23.73,23.94875,31.325,-23.720001,-0.96,-15.016001,eccentric,4,3.0,17257.0,133789.0,220010.0,272077.0,258203.0
2026-04-08 21:44:05.686283,176586,1609503817912845,1417879314,0.983808,-0.130784,-0.027328,19.2325,23.905,30.695,-23.720001,-0.96,-15.016001,eccentric,4,3.0,17257.0,133789.0,220010.0,272077.0,258203.0
2026-04-08 21:44:05.688781,176587,1609503817927434,1417894240,1.057984,-0.132736,0.056608,15.4875,23.9925,29.89875,-24.272001,-1.088,-13.392,eccentric,4,3.0,17257.0,133789.0,220010.0,272077.0,258203.0
2026-04-08 21:44:05.694944,176588,1609503817936386,1417902902,1.057984,-0.132736,0.025376,16.6075,25.08625,26.43375,-24.272001,-1.088,-13.392,eccentric,4,3.0,17257.0,133789.0,220010.0,272077.0,258203.0
2026-04-08 21:44:05.723552,176589,1609503817950868,1417917833,0.989664,-0.148352,0.025376,21.525,25.803751,22.19,-24.072,-0.848,-13.736001,eccentric,4,3.0,17257.0,133789.0,220010.0,272077.0,258203.0
2026-04-08 21:44:05.727125,176590,1609503817959767,1417926533,1.030656,-0.122976,0.007808,22.70625,25.38375,21.25375,-24.584002,-0.872,-13.176001,eccentric,4,3.0,17257.0,133789.0,220010.0,272077.0,258203.0
2026-04-08 21:44:05.731358,176591,1609503817968716,1417935201,1.030656,-0.122976,0.007808,19.90625,25.865,19.6175,-24.584002,-0.872,-13.176001,eccentric,4,3.0,17257.0,133789.0,220010.0,272077.0,258203.0
2026-04-08 21:44:05.763222,176592,1609503817983225,1417950140,1.163392,-0.07808,-0.07808,17.89375,28.13125,17.31625,-25.072,-0.936,-13.080001,eccentric,4,3.0,17257.0,133789.0,220010.0,272077.0,258203.0
2026-04-08 21:44:05.767743,176593,1609503817992166,1417958825,1.163392,-0.07808,-0.07808,17.5175,31.395,14.6825,-25.072,-0.936,-13.080001,eccentric,4,3.0,17257.0,133789.0,220010.0,272077.0,258203.0
2026-04-08 21:44:05.793466,176604,1609503818006691,1417973829,1.087264,0.0,-0.025376,15.2075,34.58875,14.21,-25.424002,-0.912,-12.864,eccentric,4,3.0,17094.0,133430.0,219817.0,272037.0,258215.0
2026-04-08 21:44:05.797582,176605,1609503818015622,1417982557,1.087264,0.0,-0.025376,10.045,35.98,14.3675,-25.424002,-0.912,-12.864,eccentric,4,3.0,17094.0,133430.0,219817.0,272037.0,258215.0
2026-04-08 21:44:05.799288,176606,1609503818030088,1417995435,1.013088,0.00976,-0.119072,0.56,34.83375,16.1,-25.928001,-1.216,-12.624001,eccentric,4,3.0,17094.0,133430.0,219817.0,272037.0,258215.0
2026-04-08 21:44:05.800711,176607,1609503818039505,1418006193,1.026752,-0.031232,0.089792,-9.1875,32.59375,16.94,-26.400002,-1.36,-9.912001,eccentric,4,3.0,17094.0,133430.0,219817.0,272037.0,258215.0
2026-04-08 21:44:05.804604,176608,1609503818048435,1418014856,1.026752,-0.031232,0.089792,-13.5275,30.625,17.22875,-26.400002,-1.36,-9.912001,eccentric,4,3.0,17094.0,133430.0,219817.0,272037.0,258215.0
2026-04-08 21:44:05.834782,176609,1609503818062915,1418029705,0.993568,-0.074176,-0.044896,-11.48875,28.805,16.9225,-26.664001,-1.16,-11.64,eccentric,4,3.0,17094.0,133430.0,219817.0,272037.0,258215.0
2026-04-08 21:44:05.838374,176610,1609503818071870,1418038383,0.993568,-0.074176,-0.044896,-2.89625,28.21875,17.8325,-26.664001,-1.16,-11.64,eccentric,4,3.0,17094.0,133430.0,219817.0,272037.0,258215.0
2026-04-08 21:44:05.842135,176611,1609503818086347,1418053235,0.942816,-0.021472,0.03904,4.57625,28.20125,19.11,-26.968,-1.12,-10.968,eccentric,4,3.0,17094.0,133430.0,219817.0,272037.0,258215.0
2026-04-08 21:44:05.898241,176622,1609503818095684,1418061940,0.942816,-0.021472,0.03904,6.055,26.29375,19.08375,-26.968,-1.12,-10.968,eccentric,4,3.0,16946.0,133121.0,219617.0,272025.0,258332.0
2026-04-08 21:44:05.900791,176623,1609503818104663,1418070654,0.968192,-0.031232,0.064416,4.97875,23.87,17.255,-27.240002,-1.264,-9.536,eccentric,4,3.0,16946.0,133121.0,219617.0,272025.0,258332.0
2026-04-08 21:44:05.903399,176624,1609503818119186,1418085557,1.001376,-0.017568,0.140544,4.83875,22.26875,14.735,-27.712002,-1.048,-12.656,eccentric,4,3.0,16946.0,133121.0,219617.0,272025.0,258332.0
2026-04-08 21:44:05.905999,176625,1609503818128183,1418094368,1.001376,-0.017568,0.140544,8.02375,22.9075,14.0525,-27.712002,-1.048,-12.656,eccentric,4,3.0,16946.0,133121.0,219617.0,272025.0,258332.0
2026-04-08 21:44:05.908349,176626,1609503818142729,1418109288,0.94672,0.037088,-0.007808,12.04,25.69875,14.5075,-27.632002,-1.04,-9.112,eccentric,4,3.0,16946.0,133121.0,219617.0,272025.0,258332.0
2026-04-08 21:44:05.910822,176627,1609503818151654,1418118019,0.94672,0.037088,-0.007808,10.5875,28.105,14.69125,-27.632002,-1.04,-9.112,eccentric,4,3.0,16946.0,133121.0,219617.0,272025.0,258332.0
2026-04-08 21:44:05.947320,176628,1609503818166159,1418132924,0.977952,0.025376,0.07808,1.4525,28.56,14.315001,-27.728,-1.08,-9.480001,eccentric,4,3.0,16946.0,133121.0,219617.0,272025.0,258332.0
2026-04-08 21:44:05.952418,176629,1609503818175071,1418141580,0.977952,0.025376,0.07808,-12.73125,26.075,11.52375,-27.728,-1.08,-9.480001,eccentric,4,3.0,16946.0,133121.0,219617.0,272025.0,258332.0
2026-04-08 21:44:05.954376,176630,1609503818184040,1418150275,1.06384,-0.062464,0.095648,-22.51375,23.59,6.25625,-28.224,-1.576,-9.128,eccentric,4,3.0,16946.0,133121.0,219617.0,272025.0,258332.0
2026-04-08 21:44:05.983261,176641,1609503818199156,1418165414,0.991616,-0.011712,-0.070272,-23.58125,23.40625,2.31875,-28.432001,-1.712,-8.848001,eccentric,4,3.0,16829.0,132713.0,219174.0,271787.0,258252.0
2026-04-08 21:44:05.985820,176642,1609503818208127,1418174131,0.991616,-0.011712,-0.070272,-19.355,24.08875,1.96,-28.432001,-1.712,-8.848001,eccentric,4,3.0,16829.0,132713.0,219174.0,271787.0,258252.0
2026-04-08 21:44:05.988279,176643,1609503818222619,1418189045,1.00528,0.05856,0.025376,-13.79,24.395,3.3775,-28.680002,-1.536,-8.544001,eccentric,4,3.0,16829.0,132713.0,219174.0,271787.0,258252.0
2026-04-08 21:44:05.991591,176644,1609503818231558,1418197730,1.00528,0.05856,0.025376,-12.95875,23.275,5.285,-28.680002,-1.536,-8.544001,eccentric,4,3.0,16829.0,132713.0,219174.0,271787.0,258252.0
2026-04-08 21:44:05.997028,176645,1609503818240524,1418206436,1.030656,0.01952,0.080032,-18.305,19.8275,7.315,-28.872002,-1.872,-8.552,eccentric,4,3.0,16829.0,132713.0,219174.0,271787.0,258252.0
2026-04-08 21:44:06.027275,176646,1609503818255114,1418221312,1.030656,0.01952,0.080032,-24.50875,15.8375,7.62125,-28.872002,-1.872,-8.552,eccentric,4,3.0,16829.0,132713.0,219174.0,271787.0,258252.0
2026-04-08 21:44:06.031727,176647,1609503818264046,1418229978,0.96624,0.011712,0.081984,-25.31375,12.52125,8.72375,-28.952002,-2.008,-8.024,eccentric,4,3.0,16829.0,132713.0,219174.0,271787.0,258252.0
2026-04-08 21:44:06.034691,176648,1609503818278499,1418244858,0.96624,0.011712,0.081984,-21.55125,10.85,12.39875,-28.952002,-2.008,-8.024,eccentric,4,3.0,16829.0,132713.0,219174.0,271787.0,258252.0
2026-04-08 21:44:06.063565,176649,1609503818287489,1418253527,1.001376,0.007808,0.132736,-16.03,9.10875,16.52875,-29.384,-2.0,-8.160001,eccentric,4,3.0,16829.0,132713.0,219174.0,271787.0,258252.0
2026-04-08 21:44:06.092141,176660,1609503818302046,1418268506,1.028704,-0.011712,0.115168,-10.78875,6.43125,17.19375,-29.496002,-2.024,-7.688,eccentric,4,3.0,16834.0,132757.0,219280.0,271998.0,258436.0
2026-04-08 21:44:06.094570,176661,1609503818310992,1418277201,1.028704,-0.011712,0.115168,-10.49125,3.42125,16.70375,-29.496002,-2.024,-7.688,eccentric,4,3.0,16834.0,132757.0,219280.0,271998.0,258436.0
2026-04-08 21:44:06.097109,176662,1609503818320098,1418285908,1.009184,-0.025376,0.121024,-7.6825,1.30375,17.3075,-29.912,-1.76,-7.552001,eccentric,4,3.0,16834.0,132757.0,219280.0,271998.0,258436.0
2026-04-08 21:44:06.099538,176663,1609503818334585,1418300815,1.009184,-0.025376,0.121024,-2.765,0.62125,17.28125,-29.912,-1.76,-7.552001,eccentric,4,3.0,16834.0,132757.0,219280.0,271998.0,258436.0
2026-04-08 21:44:06.102062,176664,1609503818343533,1418309488,0.938912,0.031232,0.07808,2.0475,0.21875,18.41,-29.640001,-1.56,-6.528,eccentric,4,3.0,16834.0,132757.0,219280.0,271998.0,258436.0
2026-04-08 21:44:06.136029,176665,1609503818358069,1418324392,0.938912,0.031232,0.07808,5.635,-0.3675,20.22125,-29.640001,-1.56,-6.528,eccentric,4,3.0,16834.0,132757.0,219280.0,271998.0,258436.0
2026-04-08 21:44:06.139615,176666,1609503818366998,1418333071,0.894016,0.050752,0.081984,6.545,-1.75875,20.9475,-29.784002,-1.6,-7.424,eccentric,4,3.0,16834.0,132757.0,219280.0,271998.0,258436.0
2026-04-08 21:44:06.142109,176667,1609503818381500,1418347924,1.009184,-0.054656,0.12688,2.9925,-4.36625,21.56875,-30.016,-1.592,-7.424,eccentric,4,3.0,16834.0,132757.0,219280.0,271998.0,258436.0
2026-04-08 21:44:06.145897,176668,1609503818390404,1418356628,1.009184,-0.054656,0.12688,-1.60125,-7.21875,21.385,-30.016,-1.592,-7.424,eccentric,4,3.0,16834.0,132757.0,219280.0,271998.0,258436.0
2026-04-08 21:44:06.175847,176679,1609503818399449,1418365422,1.009184,-0.054656,0.12688,-3.42125,-9.56375,19.04,-30.016,-1.592,-7.424,eccentric,4,3.0,16787.0,132582.0,219070.0,271790.0,258329.0
2026-04-08 21:44:06.178314,176680,1609503818414020,1418380357,1.050176,-0.121024,0.015616,1.1375,-9.87875,15.1375,-29.872002,-1.384,-4.976,eccentric,4,3.0,16787.0,132582.0,219070.0,271790.0,258329.0
2026-04-08 21:44:06.180853,176681,1609503818422944,1418389026,1.001376,0.01952,0.03904,10.5525,-8.75,13.23875,-30.272001,-0.936,-6.032,eccentric,4,3.0,16787.0,132582.0,219070.0,271790.0,258329.0
2026-04-08 21:44:06.243523,176682,1609503818437451,1418403896,1.001376,0.01952,0.03904,16.63375,-7.8225,13.667501,-30.272001,-0.936,-6.032,eccentric,4,3.0,16787.0,132582.0,219070.0,271790.0,258329.0
2026-04-08 21:44:06.247022,176683,1609503818446377,1418412601,1.026752,0.054656,0.011712,12.11,-8.1375,12.565,-29.904001,-1.216,-7.928001,eccentric,4,3.0,16787.0,132582.0,219070.0,271790.0,258329.0
2026-04-08 21:44:06.249511,176684,1609503818460861,1418427496,0.964288,0.005856,0.144448,0.945,-9.66,10.17625,-30.024002,-0.872,-6.984,eccentric,4,3.0,16787.0,132582.0,219070.0,271790.0,258329.0
2026-04-08 21:44:06.252035,176685,1609503818469766,1418436172,0.964288,0.005856,0.144448,-10.84125,-11.9525,9.3625,-30.024002,-0.872,-6.984,eccentric,4,3.0,16787.0,132582.0,219070.0,271790.0,258329.0
2026-04-08 21:44:06.254547,176686,1609503818478658,1418444835,0.964288,0.005856,0.144448,-18.41,-13.86875,9.02125,-30.024002,-0.872,-6.984,eccentric,4,3.0,16787.0,132582.0,219070.0,271790.0,258329.0
2026-04-08 21:44:06.257019,176687,1609503818493104,1418459671,0.960384,-0.083936,0.0488,-18.90875,-14.84,7.525,-29.816002,-1.064,-7.896,eccentric,4,3.0,16787.0,132582.0,219070.0,271790.0,258329.0
2026-04-08 21:44:06.289097,176698,1609503818502129,1418468446,0.98576,-0.046848,0.07808,-12.792501,-14.34125,6.04625,-30.072,-1.056,-5.248,eccentric,4,3.0,16716.0,132330.0,218720.0,271518.0,258152.0
2026-04-08 21:44:06.290944,176699,1609503818516704,1418483420,0.98576,-0.046848,0.07808,-5.13625,-13.79,5.66125,-30.072,-1.056,-5.248,eccentric,4,3.0,16716.0,132330.0,218720.0,271518.0,258152.0
2026-04-08 21:44:06.293228,176700,1609503818525648,1418492124,1.001376,-0.003904,0.101504,-0.28,-14.02625,4.15625,-29.960001,-0.736,-7.520001,eccentric,4,3.0,16716.0,132330.0,218720.0,271518.0,258152.0
2026-04-08 21:44:06.300759,176701,1609503818540174,1418507036,1.001376,-0.003904,0.101504,2.1875,-14.245,2.45,-29.960001,-0.736,-7.520001,eccentric,4,3.0,16716.0,132330.0,218720.0,271518.0,258152.0
2026-04-08 21:44:06.305711,176702,1609503818549106,1418515703,0.913536,0.037088,-0.035136,2.56375,-15.2075,2.52875,-29.880001,-0.552,-8.288,eccentric,4,3.0,16716.0,132330.0,218720.0,271518.0,258152.0
