pc_time,serial_num,sensor_ts,host_ts,ax,ay,az,gx,gy,gz,mx,my,mz,phase,rpe,weight_kg,ppg_a,ppg_b,ppg_c,ppg_d,ppg_e,ppg_f,ppg_g,ppg_h,ppg_i,ppg_j
2026-05-06 16:25:16.207587,805963,1609506979541585,4579454351,1.18096,-0.651968,0.01952,5.95875,21.035,-16.065,-32.024002,-25.784,-78.90401,concentric,7,5.0,37508.0,45153.0,91694.0,81537.0,36198.0,55822.0,41244.0,45971.0,23772.0,19851.0
2026-05-06 16:25:16.210001,805964,1609506979550578,4579463138,1.18096,-0.651968,0.01952,-1.435,25.50625,-10.57,-32.024002,-25.784,-78.90401,concentric,7,5.0,37508.0,45153.0,91694.0,81537.0,36198.0,55822.0,41244.0,45971.0,23772.0,19851.0
2026-05-06 16:25:16.212763,805965,1609506979559524,4579471878,0.724192,-0.027328,0.119072,5.95875,36.75,-18.59375,-31.896002,-25.12,-78.8,concentric,7,5.0,37508.0,45153.0,91694.0,81537.0,36198.0,55822.0,41244.0,45971.0,23772.0,19851.0
2026-05-06 16:25:16.215150,805966,1609506979574068,4579486798,0.724192,-0.027328,0.119072,28.2275,32.89125,-26.11,-31.896002,-25.12,-78.8,concentric,7,5.0,37508.0,45153.0,91694.0,81537.0,36198.0,55822.0,41244.0,45971.0,23772.0,19851.0
2026-05-06 16:25:16.217755,805967,1609506979583160,4579495491,0.593408,-0.267424,-0.066368,27.7375,25.2,-27.8425,-31.584002,-25.536001,-78.84801,concentric,7,5.0,37508.0,45153.0,91694.0,81537.0,36198.0,55822.0,41244.0,45971.0,23772.0,19851.0
2026-05-06 16:25:16.220175,805968,1609506979597681,4579510437,0.99552,-0.65392,-0.05856,9.82625,18.13,-20.37875,-32.184002,-25.384,-78.0,concentric,7,5.0,37508.0,45153.0,91694.0,81537.0,36198.0,55822.0,41244.0,45971.0,23772.0,19851.0
2026-05-06 16:25:16.222765,805969,1609506979606591,4579519150,0.99552,-0.65392,-0.05856,4.76875,11.235,-8.61,-32.184002,-25.384,-78.0,concentric,7,5.0,37508.0,45153.0,91694.0,81537.0,36198.0,55822.0,41244.0,45971.0,23772.0,19851.0
2026-05-06 16:25:16.225060,805970,1609506979621163,4579532040,0.860832,-0.07808,0.13664,11.235,15.65375,0.385,-32.36,-28.400002,-76.416,concentric,7,5.0,37508.0,45153.0,91694.0,81537.0,36198.0,55822.0,41244.0,45971.0,23772.0,19851.0
2026-05-06 16:25:16.227744,805971,1609506979630580,4579542952,0.860832,-0.07808,0.13664,20.34375,20.8775,-2.9575,-32.36,-28.400002,-76.416,concentric,7,5.0,37508.0,45153.0,91694.0,81537.0,36198.0,55822.0,41244.0,45971.0,23772.0,19851.0
2026-05-06 16:25:16.255200,805982,1609506979639732,4579551920,0.657824,-0.1464,-0.01952,22.785,17.815,-10.08875,-31.904001,-27.840002,-77.384,concentric,7,5.0,35711.0,43826.0,90601.0,84741.0,34506.0,54405.0,40570.0,47820.0,22725.0,19264.0
2026-05-06 16:25:16.257587,805983,1609506979654291,4579566955,0.657824,-0.1464,-0.01952,7.105,12.4425,-9.7475,-31.904001,-27.840002,-77.384,concentric,7,5.0,35711.0,43826.0,90601.0,84741.0,34506.0,54405.0,40570.0,47820.0,22725.0,19264.0
2026-05-06 16:25:16.261790,805984,1609506979663340,4579575672,0.796416,-0.648064,-0.081984,-7.42,5.64375,-0.9275,-32.288002,-26.920002,-77.43201,concentric,7,5.0,35711.0,43826.0,90601.0,84741.0,34506.0,54405.0,40570.0,47820.0,22725.0,19264.0
2026-05-06 16:25:16.262557,805985,1609506979672386,4579584409,0.796416,-0.648064,-0.081984,-6.4225,0.77875,8.39125,-32.288002,-26.920002,-77.43201,concentric,7,5.0,35711.0,43826.0,90601.0,84741.0,34506.0,54405.0,40570.0,47820.0,22725.0,19264.0
2026-05-06 16:25:16.271169,805986,1609506979686956,4579599413,0.95648,-0.222528,0.1464,8.42625,0.735,15.225,-32.328003,-27.104002,-77.304,concentric,7,5.0,35711.0,43826.0,90601.0,84741.0,34506.0,54405.0,40570.0,47820.0,22725.0,19264.0
2026-05-06 16:25:16.277503,805987,1609506979695898,4579608136,0.95648,-0.222528,0.1464,15.408751,2.44125,12.46,-32.328003,-27.104002,-77.304,concentric,7,5.0,35711.0,43826.0,90601.0,84741.0,34506.0,54405.0,40570.0,47820.0,22725.0,19264.0
2026-05-06 16:25:16.311386,805988,1609506979710441,4579623083,0.778848,-0.119072,0.021472,16.42375,1.14625,7.2625,-32.488003,-24.864,-78.76,concentric,7,5.0,35711.0,43826.0,90601.0,84741.0,34506.0,54405.0,40570.0,47820.0,22725.0,19264.0
2026-05-06 16:25:16.313617,805989,1609506979719366,4579631871,0.8784,-0.525088,0.013664,3.14125,0.02625,2.1875,-32.36,-24.888,-78.8,concentric,7,5.0,35711.0,43826.0,90601.0,84741.0,34506.0,54405.0,40570.0,47820.0,22725.0,19264.0
2026-05-06 16:25:16.341376,806000,1609506979734066,4579646767,0.8784,-0.525088,0.013664,-6.9125,-2.35375,5.25875,-32.36,-24.888,-78.8,concentric,7,5.0,34534.0,42442.0,89930.0,86548.0,33448.0,52907.0,40061.0,48868.0,22042.0,18620.0
2026-05-06 16:25:16.343983,806001,1609506979743187,4579655538,0.933056,-0.316224,0.095648,-3.42125,-4.8125,8.6275,-32.704002,-26.376001,-77.80801,concentric,7,5.0,34534.0,42442.0,89930.0,86548.0,33448.0,52907.0,40061.0,48868.0,22042.0,18620.0
2026-05-06 16:25:16.346554,806002,1609506979752163,4579664267,0.933056,-0.316224,0.095648,5.81,-5.985,11.76875,-32.704002,-26.376001,-77.80801,concentric,7,5.0,34534.0,42442.0,89930.0,86548.0,33448.0,52907.0,40061.0,48868.0,22042.0,18620.0
2026-05-06 16:25:16.348993,806003,1609506979766903,4579679249,0.851072,-0.119072,0.052704,8.96875,-5.425,10.5175,-32.912003,-27.36,-76.96001,concentric,7,5.0,34534.0,42442.0,89930.0,86548.0,33448.0,52907.0,40061.0,48868.0,22042.0,18620.0
2026-05-06 16:25:16.360797,806004,1609506979775947,4579687977,0.851072,-0.119072,0.052704,3.19375,-4.445,6.5975,-32.912003,-27.36,-76.96001,concentric,7,5.0,34534.0,42442.0,89930.0,86548.0,33448.0,52907.0,40061.0,48868.0,22042.0,18620.0
2026-05-06 16:25:16.371688,806005,1609506979790488,4579702943,0.862784,-0.40016,-0.050752,-7.7,-4.095,3.91125,-32.808002,-25.088001,-77.248,concentric,7,5.0,34534.0,42442.0,89930.0,86548.0,33448.0,52907.0,40061.0,48868.0,22042.0,18620.0
2026-05-06 16:25:16.380223,806006,1609506979799441,4579711632,0.933056,-0.445056,0.042944,-14.42,-5.69625,4.3575,-32.704002,-26.080002,-76.84801,concentric,7,5.0,34534.0,42442.0,89930.0,86548.0,33448.0,52907.0,40061.0,48868.0,22042.0,18620.0
2026-05-06 16:25:16.390186,806007,1609506979808493,4579720334,0.933056,-0.445056,0.042944,-12.53,-6.6675,6.79875,-32.704002,-26.080002,-76.84801,concentric,7,5.0,34534.0,42442.0,89930.0,86548.0,33448.0,52907.0,40061.0,48868.0,22042.0,18620.0
2026-05-06 16:25:16.403765,806008,1609506979823025,4579735298,0.81008,-0.160064,-0.037088,-5.88875,-5.88875,8.47875,-32.800003,-24.12,-79.37601,concentric,7,5.0,34534.0,42442.0,89930.0,86548.0,33448.0,52907.0,40061.0,48868.0,22042.0,18620.0
2026-05-06 16:25:16.412837,806009,1609506979832561,4579744297,0.81008,-0.160064,-0.037088,-4.34,-5.74875,6.39625,-32.800003,-24.12,-79.37601,concentric,7,5.0,34534.0,42442.0,89930.0,86548.0,33448.0,52907.0,40061.0,48868.0,22042.0,18620.0
2026-05-06 16:25:16.440292,806020,1609506979847262,4579759370,0.79056,-0.345504,-0.003904,-9.1175,-5.29375,2.49375,-32.952,-25.136002,-78.216,concentric,7,5.0,34399.0,42081.0,89014.0,87512.0,33339.0,52578.0,39616.0,49418.0,22003.0,18503.0
2026-05-06 16:25:16.442845,806021,1609506979856226,4579768097,0.79056,-0.345504,-0.003904,-11.89125,-6.60625,3.84125,-32.952,-25.136002,-78.216,concentric,7,5.0,34399.0,42081.0,89014.0,87512.0,33339.0,52578.0,39616.0,49418.0,22003.0,18503.0
2026-05-06 16:25:16.446549,806022,1609506979865318,4579776884,0.847168,-0.460672,-0.050752,-10.43875,-10.0625,8.715,-33.408,-26.048,-77.624,concentric,7,5.0,34399.0,42081.0,89014.0,87512.0,33339.0,52578.0,39616.0,49418.0,22003.0,18503.0
2026-05-06 16:25:16.480101,806023,1609506979879834,4579791793,0.972096,-0.386496,-0.017568,-6.44875,-12.53875,13.53625,-32.848003,-23.744001,-79.36,concentric,7,5.0,34399.0,42081.0,89014.0,87512.0,33339.0,52578.0,39616.0,49418.0,22003.0,18503.0
2026-05-06 16:25:16.482650,806024,1609506979888803,4579800511,0.972096,-0.386496,-0.017568,-1.91625,-11.87375,13.2825,-32.848003,-23.744001,-79.36,concentric,7,5.0,34399.0,42081.0,89014.0,87512.0,33339.0,52578.0,39616.0,49418.0,22003.0,18503.0
2026-05-06 16:25:16.485142,806025,1609506979903316,4579815448,0.81984,-0.124928,-0.025376,3.7275,-10.80625,10.5525,-33.168003,-22.888,-79.520004,concentric,7,5.0,34399.0,42081.0,89014.0,87512.0,33339.0,52578.0,39616.0,49418.0,22003.0,18503.0
2026-05-06 16:25:16.494022,806026,1609506979912280,4579824173,0.81984,-0.124928,-0.025376,5.11,-10.85,9.72125,-33.168003,-22.888,-79.520004,concentric,7,5.0,34399.0,42081.0,89014.0,87512.0,33339.0,52578.0,39616.0,49418.0,22003.0,18503.0
2026-05-06 16:25:16.519048,806027,1609506979926947,4579839111,0.813984,-0.325984,-0.013664,-5.3725,-9.30125,8.505,-32.936,-23.456001,-79.624,concentric,7,5.0,34399.0,42081.0,89014.0,87512.0,33339.0,52578.0,39616.0,49418.0,22003.0,18503.0
2026-05-06 16:25:16.612877,806038,1609506979936568,4579847833,0.813984,-0.325984,-0.013664,-17.21125,-8.60125,7.595,-32.936,-23.456001,-79.624,concentric,7,5.0,34861.0,41979.0,88686.0,85756.0,33748.0,52604.0,39540.0,48472.0,22292.0,18493.0
2026-05-06 16:25:16.615283,806039,1609506979945639,4579856616,0.774944,-0.437248,-0.10736,-22.56625,-9.94,9.73875,-33.152,-23.704,-79.024,concentric,7,5.0,34861.0,41979.0,88686.0,85756.0,33748.0,52604.0,39540.0,48472.0,22292.0,18493.0
2026-05-06 16:25:16.617854,806040,1609506979960610,4579871511,0.860832,-0.366976,-0.015616,-19.6,-11.83875,14.28,-32.952,-22.824001,-78.68,concentric,7,5.0,34861.0,41979.0,88686.0,85756.0,33748.0,52604.0,39540.0,48472.0,22292.0,18493.0
2026-05-06 16:25:16.620277,806041,1609506979969971,4579882304,0.860832,-0.366976,-0.015616,-15.98625,-12.355001,17.99875,-32.952,-22.824001,-78.68,concentric,7,5.0,34861.0,41979.0,88686.0,85756.0,33748.0,52604.0,39540.0,48472.0,22292.0,18493.0
2026-05-06 16:25:16.622731,806042,1609506979978932,4579891018,0.860832,-0.366976,-0.015616,-12.66125,-13.1425,19.43375,-32.952,-22.824001,-78.68,concentric,7,5.0,34861.0,41979.0,88686.0,85756.0,33748.0,52604.0,39540.0,48472.0,22292.0,18493.0
2026-05-06 16:25:16.627843,806043,1609506979993451,4579905987,0.724192,-0.290848,-0.01952,-10.87625,-14.77,21.42,-33.552002,-22.864,-79.200005,concentric,7,5.0,34861.0,41979.0,88686.0,85756.0,33748.0,52604.0,39540.0,48472.0,22292.0,18493.0
2026-05-06 16:25:16.630280,806044,1609506980002348,4579914728,0.757376,-0.423584,-0.081984,-12.215,-16.835001,23.94875,-33.592003,-22.656,-79.520004,concentric,7,5.0,34861.0,41979.0,88686.0,85756.0,33748.0,52604.0,39540.0,48472.0,22292.0,18493.0
2026-05-06 16:25:16.632868,806045,1609506980017081,4579929776,0.757376,-0.423584,-0.081984,-14.665,-19.53875,28.00875,-33.592003,-22.656,-79.520004,concentric,7,5.0,34861.0,41979.0,88686.0,85756.0,33748.0,52604.0,39540.0,48472.0,22292.0,18493.0
2026-05-06 16:25:16.637882,806046,1609506980026156,4579938538,0.88816,-0.452864,-0.072224,-16.94,-20.4575,31.00125,-33.592003,-24.000002,-79.04,concentric,7,5.0,34861.0,41979.0,88686.0,85756.0,33748.0,52604.0,39540.0,48472.0,22292.0,18493.0
2026-05-06 16:25:16.642212,806047,1609506980035148,4579947285,0.88816,-0.452864,-0.072224,-16.6775,-19.60875,31.78875,-33.592003,-24.000002,-79.04,concentric,7,5.0,34861.0,41979.0,88686.0,85756.0,33748.0,52604.0,39540.0,48472.0,22292.0,18493.0
2026-05-06 16:25:16.667677,806058,1609506980049727,4579962314,0.726144,-0.238144,-0.05856,-12.39,-20.125,31.73625,-33.376003,-22.624,-80.464005,concentric,7,5.0,35307.0,41540.0,88363.0,84845.0,34178.0,52159.0,39411.0,47967.0,22576.0,18302.0
2026-05-06 16:25:16.670110,806059,1609506980058663,4579971065,0.726144,-0.238144,-0.05856,-12.04875,-21.27125,31.33375,-33.376003,-22.624,-80.464005,concentric,7,5.0,35307.0,41540.0,88363.0,84845.0,34178.0,52159.0,39411.0,47967.0,22576.0,18302.0
2026-05-06 16:25:16.672715,806060,1609506980073331,4579986066,0.70272,-0.407968,-0.095648,-17.45625,-22.75,32.85625,-33.2,-21.672,-82.00001,concentric,7,5.0,35307.0,41540.0,88363.0,84845.0,34178.0,52159.0,39411.0,47967.0,22576.0,18302.0
2026-05-06 16:25:16.675013,806061,1609506980082370,4579994834,0.901824,-0.609024,-0.119072,-22.40875,-25.15625,35.84,-33.552002,-21.104,-80.608,concentric,7,5.0,35307.0,41540.0,88363.0,84845.0,34178.0,52159.0,39411.0,47967.0,22576.0,18302.0
2026-05-06 16:25:16.677710,806062,1609506980091392,4580003623,0.901824,-0.609024,-0.119072,-19.36375,-25.76875,37.72125,-33.552002,-21.104,-80.608,concentric,7,5.0,35307.0,41540.0,88363.0,84845.0,34178.0,52159.0,39411.0,47967.0,22576.0,18302.0
2026-05-06 16:25:16.687757,806063,1609506980106048,4580018602,0.874496,-0.333792,-0.064416,-11.795,-24.745,37.3275,-33.784,-21.28,-80.576004,concentric,7,5.0,35307.0,41540.0,88363.0,84845.0,34178.0,52159.0,39411.0,47967.0,22576.0,18302.0
2026-05-06 16:25:16.696507,806064,1609506980115114,4580027315,0.874496,-0.333792,-0.064416,-1.645,-25.585001,37.98375,-33.784,-21.28,-80.576004,concentric,7,5.0,35307.0,41540.0,88363.0,84845.0,34178.0,52159.0,39411.0,47967.0,22576.0,18302.0
2026-05-06 16:25:16.710090,806065,1609506980129651,4580042249,0.710528,-0.314272,-0.076128,-0.97125,-27.317501,36.295002,-33.488003,-21.096,-81.00001,concentric,7,5.0,35307.0,41540.0,88363.0,84845.0,34178.0,52159.0,39411.0,47967.0,22576.0,18302.0
2026-05-06 16:25:16.748640,806076,1609506980139274,4580051045,0.710528,-0.314272,-0.076128,-11.515,-27.3525,34.90375,-33.488003,-21.096,-81.00001,concentric,7,5.0,34422.0,40168.0,87425.0,86920.0,33404.0,50693.0,38902.0,49184.0,22058.0,17652.0
2026-05-06 16:25:16.751199,806077,1609506980148414,4580059817,0.860832,-0.60512,-0.232288,-18.71625,-26.425,35.90125,-33.536003,-20.616001,-81.104004,concentric,7,5.0,34422.0,40168.0,87425.0,86920.0,33404.0,50693.0,38902.0,49184.0,22058.0,17652.0
2026-05-06 16:25:16.753701,806078,1609506980163012,4580074736,0.929152,-0.437248,-0.064416,-20.15125,-24.053751,35.16625,-34.120003,-21.536001,-81.456,concentric,7,5.0,34422.0,40168.0,87425.0,86920.0,33404.0,50693.0,38902.0,49184.0,22058.0,17652.0
2026-05-06 16:25:16.756135,806079,1609506980171985,4580083500,0.929152,-0.437248,-0.064416,-17.36875,-21.2975,32.69,-34.120003,-21.536001,-81.456,concentric,7,5.0,34422.0,40168.0,87425.0,86920.0,33404.0,50693.0,38902.0,49184.0,22058.0,17652.0
2026-05-06 16:25:16.770130,806080,1609506980186533,4580098442,0.70272,-0.347456,-0.1464,-5.4075,-23.38,33.0225,-33.864002,-21.216002,-80.76,concentric,7,5.0,34422.0,40168.0,87425.0,86920.0,33404.0,50693.0,38902.0,49184.0,22058.0,17652.0
2026-05-06 16:25:16.776388,806081,1609506980195508,4580107135,0.70272,-0.347456,-0.1464,-8.015,-24.80625,31.9725,-33.864002,-21.216002,-80.76,concentric,7,5.0,34422.0,40168.0,87425.0,86920.0,33404.0,50693.0,38902.0,49184.0,22058.0,17652.0
2026-05-06 16:25:16.795171,806082,1609506980210011,4580122185,0.788608,-0.579744,-0.150304,-17.73625,-24.59625,30.2225,-33.56,-19.240002,-81.664,concentric,7,5.0,34422.0,40168.0,87425.0,86920.0,33404.0,50693.0,38902.0,49184.0,22058.0,17652.0
2026-05-06 16:25:16.801541,806083,1609506980218933,4580130900,0.788608,-0.579744,-0.150304,-23.26625,-24.9725,30.1,-33.56,-19.240002,-81.664,concentric,7,5.0,34422.0,40168.0,87425.0,86920.0,33404.0,50693.0,38902.0,49184.0,22058.0,17652.0
2026-05-06 16:25:16.810103,806084,1609506980227857,4580139653,0.784704,-0.558272,-0.226432,-20.58875,-26.92375,31.1325,-34.04,-20.784,-81.032005,concentric,7,5.0,34422.0,40168.0,87425.0,86920.0,33404.0,50693.0,38902.0,49184.0,22058.0,17652.0
2026-05-06 16:25:16.846244,806095,1609506980242493,4580154693,0.825696,-0.489952,-0.179584,-15.54875,-28.53375,31.3075,-33.408,-19.136002,-81.568,concentric,7,5.0,34182.0,39644.0,86255.0,88025.0,33239.0,50229.0,38339.0,49838.0,22009.0,17440.0
2026-05-06 16:25:16.848748,806096,1609506980251558,4580163479,0.825696,-0.489952,-0.179584,-12.915,-28.70875,27.965,-33.408,-19.136002,-81.568,concentric,7,5.0,34182.0,39644.0,86255.0,88025.0,33239.0,50229.0,38339.0,49838.0,22009.0,17440.0
2026-05-06 16:25:16.852113,806097,1609506980266241,4580178461,0.642208,-0.482144,-0.148352,-8.4,-28.2975,24.80625,-33.376003,-18.568,-82.608,concentric,7,5.0,34182.0,39644.0,86255.0,88025.0,33239.0,50229.0,38339.0,49838.0,22009.0,17440.0
2026-05-06 16:25:16.857464,806098,1609506980275355,4580187204,0.642208,-0.482144,-0.148352,-5.3375,-29.505001,23.4325,-33.376003,-18.568,-82.608,concentric,7,5.0,34182.0,39644.0,86255.0,88025.0,33239.0,50229.0,38339.0,49838.0,22009.0,17440.0
2026-05-06 16:25:16.893968,806099,1609506980284318,4580195996,0.65392,-0.530944,-0.220576,-7.14875,-31.56125,24.465,-33.168003,-18.704,-83.408005,concentric,7,5.0,34182.0,39644.0,86255.0,88025.0,33239.0,50229.0,38339.0,49838.0,22009.0,17440.0
2026-05-06 16:25:16.919036,806100,1609506980298815,4580210943,0.65392,-0.530944,-0.220576,-8.636251,-34.50125,26.075,-33.168003,-18.704,-83.408005,concentric,7,5.0,34182.0,39644.0,86255.0,88025.0,33239.0,50229.0,38339.0,49838.0,22009.0,17440.0
2026-05-06 16:25:16.921533,806101,1609506980307717,4580219650,0.884256,-0.610976,-0.20496,-8.05,-35.5075,26.425,-33.4,-17.848001,-83.520004,concentric,7,5.0,34182.0,39644.0,86255.0,88025.0,33239.0,50229.0,38339.0,49838.0,22009.0,17440.0
2026-05-06 16:25:16.924045,806102,1609506980322216,4580234548,0.884256,-0.41968,-0.130784,-9.77375,-32.8125,23.40625,-33.4,-17.848001,-85.568,concentric,7,5.0,34182.0,39644.0,86255.0,88025.0,33239.0,50229.0,38339.0,49838.0,22009.0,17440.0
2026-05-06 16:25:16.926420,806103,1609506980331137,4580243251,0.630496,-0.41968,-0.130784,-2.94,-32.87375,23.94,-33.144,-17.856,-84.952,concentric,7,5.0,34182.0,39644.0,86255.0,88025.0,33239.0,50229.0,38339.0,49838.0,22009.0,17440.0
2026-05-06 16:25:16.955566,806114,1609506980345702,4580258475,0.59536,-0.57584,-0.218624,-1.23375,-34.8425,26.215,-32.608,-17.736,-83.928,concentric,7,5.0,34766.0,40211.0,86545.0,86364.0,33744.0,50846.0,38526.0,48901.0,22337.0,17708.0
2026-05-06 16:25:16.956102,806115,1609506980354696,4580267258,0.59536,-0.57584,-0.218624,-7.945,-36.00625,26.04,-32.608,-17.736,-83.928,concentric,7,5.0,34766.0,40211.0,86545.0,86364.0,33744.0,50846.0,38526.0,48901.0,22337.0,17708.0
2026-05-06 16:25:16.958632,806116,1609506980363734,4580276146,0.749568,-0.638304,-0.300608,-15.085,-37.28375,25.03375,-32.656002,-18.952002,-84.136,concentric,7,5.0,34766.0,40211.0,86545.0,86364.0,33744.0,50846.0,38526.0,48901.0,22337.0,17708.0
2026-05-06 16:25:16.961079,806117,1609506980378302,4580289104,0.749568,-0.638304,-0.300608,-11.15625,-38.00125,26.76625,-32.656002,-18.952002,-84.136,concentric,7,5.0,34766.0,40211.0,86545.0,86364.0,33744.0,50846.0,38526.0,48901.0,22337.0,17708.0
2026-05-06 16:25:16.970194,806118,1609506980387568,4580299986,0.81984,-0.550464,-0.167872,-2.98375,-36.855,25.27875,-32.384003,-18.376001,-83.920006,concentric,7,5.0,34766.0,40211.0,86545.0,86364.0,33744.0,50846.0,38526.0,48901.0,22337.0,17708.0
2026-05-06 16:25:16.983876,806119,1609506980402098,4580312922,0.81984,-0.550464,-0.167872,0.41125,-35.638752,22.93375,-32.384003,-18.376001,-83.920006,concentric,7,5.0,34766.0,40211.0,86545.0,86364.0,33744.0,50846.0,38526.0,48901.0,22337.0,17708.0
2026-05-06 16:25:16.993813,806120,1609506980411475,4580323712,0.573888,-0.44896,-0.226432,6.615,-37.6775,26.460001,-31.952002,-16.456001,-87.064,concentric,7,5.0,34766.0,40211.0,86545.0,86364.0,33744.0,50846.0,38526.0,48901.0,22337.0,17708.0
2026-05-06 16:25:17.002829,806121,1609506980421323,4580332510,0.573888,-0.44896,-0.226432,2.52,-38.89375,28.1225,-31.952002,-16.456001,-87.064,concentric,7,5.0,34766.0,40211.0,86545.0,86364.0,33744.0,50846.0,38526.0,48901.0,22337.0,17708.0
2026-05-06 16:25:17.019045,806122,1609506980436273,4580347436,0.835456,-0.708576,-0.284992,-8.5575,-38.675,25.66375,-32.568,-17.784,-85.096,concentric,7,5.0,34766.0,40211.0,86545.0,86364.0,33744.0,50846.0,38526.0,48901.0,22337.0,17708.0
2026-05-06 16:25:17.052380,806133,1609506980445781,4580358423,0.827648,-0.628544,-0.206912,-15.015,-36.47,21.9625,-31.632002,-16.088001,-86.096,concentric,7,5.0,35124.0,40094.0,86637.0,82462.0,33996.0,50679.0,38619.0,46724.0,22582.0,17636.0
2026-05-06 16:25:17.060025,806134,1609506980454790,4580367228,0.827648,-0.628544,-0.206912,-7.30625,-35.07875,19.4075,-31.632002,-16.088001,-86.096,concentric,7,5.0,35124.0,40094.0,86637.0,82462.0,33996.0,50679.0,38619.0,46724.0,22582.0,17636.0
2026-05-06 16:25:17.062483,806135,1609506980469356,4580380189,0.632448,-0.470432,-0.251808,6.7725,-36.58375,21.37625,-31.752,-19.080002,-84.76,concentric,7,5.0,35124.0,40094.0,86637.0,82462.0,33996.0,50679.0,38619.0,46724.0,22582.0,17636.0
2026-05-06 16:25:17.065144,806136,1609506980478616,4580391015,0.632448,-0.470432,-0.251808,11.22625,-39.10375,24.6575,-31.752,-19.080002,-84.76,concentric,7,5.0,35124.0,40094.0,86637.0,82462.0,33996.0,50679.0,38619.0,46724.0,22582.0,17636.0
2026-05-06 16:25:17.070159,806137,1609506980487538,4580399730,0.704672,-0.61488,-0.3416,2.0475,-39.6025,25.24375,-31.328001,-15.672001,-86.728004,concentric,7,5.0,35124.0,40094.0,86637.0,82462.0,33996.0,50679.0,38619.0,46724.0,22582.0,17636.0
2026-05-06 16:25:17.086487,806138,1609506980502200,4580414617,0.704672,-0.61488,-0.3416,-6.60625,-39.41,22.93375,-31.328001,-15.672001,-86.728004,concentric,7,5.0,35124.0,40094.0,86637.0,82462.0,33996.0,50679.0,38619.0,46724.0,22582.0,17636.0
2026-05-06 16:25:17.092706,806139,1609506980511126,4580423330,0.774944,-0.704672,-0.310368,-8.3825,-38.47375,18.9525,-31.000002,-14.776001,-89.912,concentric,7,5.0,35124.0,40094.0,86637.0,82462.0,33996.0,50679.0,38619.0,46724.0,22582.0,17636.0
2026-05-06 16:25:17.110237,806140,1609506980525654,4580438372,0.642208,-0.591456,-0.249856,-2.23125,-37.9925,16.5375,-30.544,-14.552001,-87.984,concentric,7,5.0,35124.0,40094.0,86637.0,82462.0,33996.0,50679.0,38619.0,46724.0,22582.0,17636.0
2026-05-06 16:25:17.117879,806141,1609506980534581,4580447053,0.642208,-0.591456,-0.249856,8.015,-39.7425,17.9375,-30.544,-14.552001,-87.984,concentric,7,5.0,35124.0,40094.0,86637.0,82462.0,33996.0,50679.0,38619.0,46724.0,22582.0,17636.0
2026-05-06 16:25:17.145279,806152,1609506980549595,4580462094,0.622688,-0.550464,-0.298656,9.6775,-41.93875,19.495,-30.072,-16.36,-87.136,concentric,7,5.0,35693.0,39773.0,86730.0,78987.0,34557.0,50350.0,38787.0,44776.0,23048.0,17592.0
2026-05-06 16:25:17.147428,806153,1609506980558558,4580470827,0.622688,-0.550464,-0.298656,4.62875,-43.40875,19.845,-30.072,-16.36,-87.136,concentric,7,5.0,35693.0,39773.0,86730.0,78987.0,34557.0,50350.0,38787.0,44776.0,23048.0,17592.0
2026-05-06 16:25:17.150047,806154,1609506980567525,4580479550,0.61488,-0.597312,-0.398208,-0.06125,-44.84375,19.59125,-29.976002,-15.488001,-87.024,concentric,7,5.0,35693.0,39773.0,86730.0,78987.0,34557.0,50350.0,38787.0,44776.0,23048.0,17592.0
2026-05-06 16:25:17.163902,806155,1609506980582082,4580494524,0.61488,-0.597312,-0.398208,0.21875,-46.7425,20.18625,-29.976002,-15.488001,-87.024,concentric,7,5.0,35693.0,39773.0,86730.0,78987.0,34557.0,50350.0,38787.0,44776.0,23048.0,17592.0
2026-05-06 16:25:17.172725,806156,1609506980591020,4580503224,0.698816,-0.708576,-0.363072,2.59,-46.76,19.25875,-29.376001,-13.360001,-88.920006,concentric,7,5.0,35693.0,39773.0,86730.0,78987.0,34557.0,50350.0,38787.0,44776.0,23048.0,17592.0
2026-05-06 16:25:17.207656,806157,1609506980605565,4580518192,0.601216,-0.540704,-0.271328,3.8325,-45.4475,17.395,-28.816002,-12.752001,-88.840004,concentric,7,5.0,35693.0,39773.0,86730.0,78987.0,34557.0,50350.0,38787.0,44776.0,23048.0,17592.0
2026-05-06 16:25:17.210006,806158,1609506980614493,4580526907,0.601216,-0.540704,-0.271328,10.91125,-46.41875,19.5825,-28.816002,-12.752001,-88.840004,concentric,7,5.0,35693.0,39773.0,86730.0,78987.0,34557.0,50350.0,38787.0,44776.0,23048.0,17592.0
2026-05-06 16:25:17.212646,806159,1609506980623407,4580535593,0.601216,-0.540704,-0.271328,15.4,-48.125,21.8925,-28.816002,-12.752001,-88.840004,concentric,7,5.0,35693.0,39773.0,86730.0,78987.0,34557.0,50350.0,38787.0,44776.0,23048.0,17592.0
2026-05-06 16:25:17.221140,806160,1609506980637981,4580550594,0.62464,-0.638304,-0.3904,6.2475,-48.44,20.5275,-28.208002,-12.552001,-91.928,concentric,7,5.0,35693.0,39773.0,86730.0,78987.0,34557.0,50350.0,38787.0,44776.0,23048.0,17592.0
2026-05-06 16:25:17.315302,806171,1609506980647081,4580559462,0.747616,-0.813984,-0.357216,-5.08375,-46.585,17.9725,-27.904001,-13.104001,-89.816,concentric,7,5.0,35357.0,39225.0,86625.0,77175.0,34224.0,49692.0,38734.0,43798.0,22892.0,17343.0
2026-05-06 16:25:17.317821,806172,1609506980661603,4580572356,0.747616,-0.813984,-0.357216,-13.29125,-44.555,14.21,-27.904001,-13.104001,-89.816,concentric,7,5.0,35357.0,39225.0,86625.0,77175.0,34224.0,49692.0,38734.0,43798.0,22892.0,17343.0
2026-05-06 16:25:17.320239,806173,1609506980670801,4580583282,0.696864,-0.714432,-0.329888,-9.56375,-44.10875,9.94,-27.208002,-12.552001,-90.984,concentric,7,5.0,35357.0,39225.0,86625.0,77175.0,34224.0,49692.0,38734.0,43798.0,22892.0,17343.0
2026-05-06 16:25:17.322832,806174,1609506980685413,4580596172,0.493856,-0.554368,-0.382592,1.11125,-46.13,8.3125,-27.208002,-12.744,-91.648,concentric,7,5.0,35357.0,39225.0,86625.0,77175.0,34224.0,49692.0,38734.0,43798.0,22892.0,17343.0
2026-05-06 16:25:17.327790,806175,1609506980694750,4580606973,0.493856,-0.554368,-0.382592,5.74875,-47.67875,11.33125,-26.960001,-12.744,-91.648,concentric,7,5.0,35357.0,39225.0,86625.0,77175.0,34224.0,49692.0,38734.0,43798.0,22892.0,17343.0
2026-05-06 16:25:17.328319,806176,1609506980703814,4580615768,0.493856,-0.554368,-0.382592,3.17625,-47.0925,16.73,-26.960001,-12.744,-91.648,concentric,7,5.0,35357.0,39225.0,86625.0,77175.0,34224.0,49692.0,38734.0,43798.0,22892.0,17343.0
2026-05-06 16:25:17.330016,806177,1609506980718306,4580630714,0.573888,-0.710528,-0.493856,-0.735,-45.54375,18.48875,-26.864002,-13.52,-91.880005,concentric,7,5.0,35357.0,39225.0,86625.0,77175.0,34224.0,49692.0,38734.0,43798.0,22892.0,17343.0
2026-05-06 16:25:17.332611,806178,1609506980727237,4580639548,0.650016,-0.755424,-0.355264,-10.29,-42.14875,13.02875,-26.104002,-13.544001,-88.832,concentric,7,5.0,35357.0,39225.0,86625.0,77175.0,34224.0,49692.0,38734.0,43798.0,22892.0,17343.0
2026-05-06 16:25:17.360126,806189,1609506980741854,4580654752,0.650016,-0.755424,-0.355264,-15.2075,-40.13625,9.4675,-26.104002,-13.544001,-88.832,concentric,7,5.0,35415.0,38869.0,86651.0,75873.0,34186.0,49312.0,38745.0,43080.0,22899.0,17195.0
2026-05-06 16:25:17.362737,806190,1609506980750834,4580663497,0.540704,-0.642208,-0.445056,-2.47625,-42.51625,10.92,-25.448002,-12.080001,-91.976006,concentric,7,5.0,35415.0,38869.0,86651.0,75873.0,34186.0,49312.0,38745.0,43080.0,22899.0,17195.0
2026-05-06 16:25:17.365143,806191,1609506980759833,4580672250,0.540704,-0.642208,-0.445056,1.98625,-44.135,9.9575,-25.448002,-12.080001,-91.976006,concentric,7,5.0,35415.0,38869.0,86651.0,75873.0,34186.0,49312.0,38745.0,43080.0,22899.0,17195.0
2026-05-06 16:25:17.367712,806192,1609506980774417,4580685202,0.552416,-0.610976,-0.47824,-0.41125,-43.81125,10.71875,-24.888,-12.000001,-92.536,concentric,7,5.0,35415.0,38869.0,86651.0,75873.0,34186.0,49312.0,38745.0,43080.0,22899.0,17195.0
2026-05-06 16:25:17.370149,806193,1609506980783637,4580695986,0.552416,-0.610976,-0.47824,-5.8625,-41.34375,11.55875,-24.888,-12.000001,-92.536,concentric,7,5.0,35415.0,38869.0,86651.0,75873.0,34186.0,49312.0,38745.0,43080.0,22899.0,17195.0
2026-05-06 16:25:17.384089,806194,1609506980798293,4580710961,0.415776,-0.589504,-0.447008,-8.12,-40.99375,11.5325,-24.376001,-11.704,-92.96001,concentric,7,5.0,35415.0,38869.0,86651.0,75873.0,34186.0,49312.0,38745.0,43080.0,22899.0,17195.0
2026-05-06 16:25:17.390286,806195,1609506980807323,4580719673,0.427488,-0.620736,-0.47824,-5.4075,-42.6825,15.11125,-24.160002,-11.688001,-93.344,concentric,7,5.0,35415.0,38869.0,86651.0,75873.0,34186.0,49312.0,38745.0,43080.0,22899.0,17195.0
2026-05-06 16:25:17.396574,806196,1609506980816294,4580728454,0.427488,-0.620736,-0.47824,-4.12125,-44.2225,17.9375,-24.160002,-11.688001,-93.344,concentric,7,5.0,35415.0,38869.0,86651.0,75873.0,34186.0,49312.0,38745.0,43080.0,22899.0,17195.0
2026-05-06 16:25:17.412795,806197,1609506980830779,4580743374,0.462624,-0.61488,-0.417728,-6.83375,-43.70625,17.99,-23.608002,-12.240001,-92.68001,concentric,7,5.0,35415.0,38869.0,86651.0,75873.0,34186.0,49312.0,38745.0,43080.0,22899.0,17195.0
2026-05-06 16:25:17.422364,806198,1609506980839709,4580752069,0.462624,-0.61488,-0.417728,-4.96125,-44.45875,19.32,-23.608002,-12.240001,-92.68001,concentric,7,5.0,35415.0,38869.0,86651.0,75873.0,34186.0,49312.0,38745.0,43080.0,22899.0,17195.0
2026-05-06 16:25:17.451487,806209,1609506980854398,4580765289,0.404064,-0.597312,-0.42944,-2.00375,-46.48875,19.88,-22.672,-11.288,-94.352005,concentric,7,5.0,35865.0,39118.0,86755.0,75195.0,34551.0,49560.0,38821.0,42665.0,23140.0,17332.0
2026-05-06 16:25:17.453981,806210,1609506980863817,4580776120,0.404064,-0.597312,-0.42944,0.98,-49.14875,21.39375,-22.672,-11.288,-94.352005,concentric,7,5.0,35865.0,39118.0,86755.0,75195.0,34551.0,49560.0,38821.0,42665.0,23140.0,17332.0
2026-05-06 16:25:17.456487,806211,1609506980872762,4580784907,0.40016,-0.599264,-0.46848,0.23625,-51.31,24.535,-22.44,-12.056001,-94.328,concentric,7,5.0,35865.0,39118.0,86755.0,75195.0,34551.0,49560.0,38821.0,42665.0,23140.0,17332.0
2026-05-06 16:25:17.476480,806212,1609506980887519,4580799874,0.445056,-0.69296,-0.56608,1.4175,-53.0075,28.210001,-21.560001,-10.256001,-96.344,concentric,7,5.0,35865.0,39118.0,86755.0,75195.0,34551.0,49560.0,38821.0,42665.0,23140.0,17332.0
2026-05-06 16:25:17.479026,806213,1609506980896458,4580808606,0.445056,-0.69296,-0.56608,5.9325,-54.39875,30.44125,-21.560001,-10.256001,-96.344,concentric,7,5.0,35865.0,39118.0,86755.0,75195.0,34551.0,49560.0,38821.0,42665.0,23140.0,17332.0
2026-05-06 16:25:17.499060,806214,1609506980910991,4580823518,0.4392,-0.6344,-0.431392,4.68125,-54.18,29.9075,-20.672,-9.744,-95.768005,concentric,7,5.0,35865.0,39118.0,86755.0,75195.0,34551.0,49560.0,38821.0,42665.0,23140.0,17332.0
2026-05-06 16:25:17.501534,806215,1609506980919932,4580832239,0.4392,-0.6344,-0.431392,2.7125,-55.92125,30.38875,-20.672,-9.744,-95.768005,concentric,7,5.0,35865.0,39118.0,86755.0,75195.0,34551.0,49560.0,38821.0,42665.0,23140.0,17332.0
2026-05-06 16:25:17.520584,806216,1609506980934405,4580845202,0.40992,-0.607072,-0.482144,12.2675,-58.49375,33.32875,-20.104,-9.368,-95.104004,concentric,7,5.0,35865.0,39118.0,86755.0,75195.0,34551.0,49560.0,38821.0,42665.0,23140.0,17332.0
2026-05-06 16:25:17.548665,806227,1609506980943882,4580856040,0.40992,-0.607072,-0.482144,17.01875,-59.955,33.5825,-20.104,-9.368,-95.104004,concentric,7,5.0,36712.0,39414.0,87266.0,73847.0,35258.0,49863.0,39131.0,41859.0,23518.0,17492.0
2026-05-06 16:25:17.551437,806228,1609506980953016,4580864949,0.388448,-0.687104,-0.59536,13.69375,-59.68375,35.98875,-18.992,-9.152,-96.392006,concentric,7,5.0,36712.0,39414.0,87266.0,73847.0,35258.0,49863.0,39131.0,41859.0,23518.0,17492.0
2026-05-06 16:25:17.553901,806229,1609506980967575,4580879995,0.431392,-0.747616,-0.488,12.39,-59.63125,41.965,-18.36,-7.864,-97.83201,concentric,7,5.0,36712.0,39414.0,87266.0,73847.0,35258.0,49863.0,39131.0,41859.0,23518.0,17492.0
2026-05-06 16:25:17.557591,806230,1609506980976553,4580888752,0.431392,-0.747616,-0.488,8.16375,-60.095,44.5375,-18.36,-7.864,-97.83201,concentric,7,5.0,36712.0,39414.0,87266.0,73847.0,35258.0,49863.0,39131.0,41859.0,23518.0,17492.0
2026-05-06 16:25:17.591407,806231,1609506980991094,4580903750,0.386496,-0.67344,-0.532896,6.3525,-60.978752,44.835,-17.52,-7.968,-96.368004,concentric,7,5.0,36712.0,39414.0,87266.0,73847.0,35258.0,49863.0,39131.0,41859.0,23518.0,17492.0
2026-05-06 16:25:17.594035,806232,1609506981000018,4580912472,0.386496,-0.67344,-0.532896,14.105001,-63.02625,45.325,-17.52,-7.968,-96.368004,concentric,7,5.0,36712.0,39414.0,87266.0,73847.0,35258.0,49863.0,39131.0,41859.0,23518.0,17492.0
2026-05-06 16:25:17.596547,806233,1609506981008954,4580921220,0.36112,-0.716384,-0.519232,17.38625,-62.99125,44.40625,-16.312,-6.784,-97.192,concentric,7,5.0,36712.0,39414.0,87266.0,73847.0,35258.0,49863.0,39131.0,41859.0,23518.0,17492.0
2026-05-06 16:25:17.621396,806234,1609506981023483,4580936107,0.36112,-0.716384,-0.519232,14.035,-63.420002,45.5175,-16.312,-6.784,-97.192,concentric,7,5.0,36712.0,39414.0,87266.0,73847.0,35258.0,49863.0,39131.0,41859.0,23518.0,17492.0
2026-05-06 16:25:17.646444,806235,1609506981032430,4580944991,0.337696,-0.798368,-0.581696,10.64,-63.56875,49.455,-15.432001,-6.464,-98.44,concentric,7,5.0,36712.0,39414.0,87266.0,73847.0,35258.0,49863.0,39131.0,41859.0,23518.0,17492.0
2026-05-06 16:25:17.680255,806246,1609506981047075,4580958465,0.337696,-0.798368,-0.581696,4.96125,-63.0875,50.63625,-15.432001,-6.464,-98.44,concentric,7,5.0,38552.0,40938.0,88590.0,72638.0,36954.0,51571.0,39868.0,41169.0,24363.0,18182.0
2026-05-06 16:25:17.682854,806247,1609506981056098,4580967197,0.407968,-0.825696,-0.591456,-3.29,-62.3875,49.315,-14.392001,-8.224,-97.552,concentric,7,5.0,38552.0,40938.0,88590.0,72638.0,36954.0,51571.0,39868.0,41169.0,24363.0,18182.0
2026-05-06 16:25:17.685020,806248,1609506981065373,4580978017,0.407968,-0.825696,-0.591456,-3.15875,-61.74875,48.6325,-14.392001,-8.224,-97.552,concentric,7,5.0,38552.0,40938.0,88590.0,72638.0,36954.0,51571.0,39868.0,41169.0,24363.0,18182.0
2026-05-06 16:25:17.687685,806249,1609506981079845,4580990862,0.396256,-0.80032,-0.583648,-2.975,-60.6375,46.87375,-13.56,-5.936,-99.30401,concentric,7,5.0,38552.0,40938.0,88590.0,72638.0,36954.0,51571.0,39868.0,41169.0,24363.0,18182.0
2026-05-06 16:25:17.690101,806250,1609506981089102,4581001729,0.32208,-0.83936,-0.597312,-4.13875,-58.555,44.96625,-12.688001,-5.504,-99.04,concentric,7,5.0,38552.0,40938.0,88590.0,72638.0,36954.0,51571.0,39868.0,41169.0,24363.0,18182.0
2026-05-06 16:25:17.692676,806251,1609506981103633,4581014663,0.32208,-0.83936,-0.597312,-6.51875,-57.56625,44.2575,-12.688001,-5.504,-99.04,concentric,7,5.0,38552.0,40938.0,88590.0,72638.0,36954.0,51571.0,39868.0,41169.0,24363.0,18182.0
2026-05-06 16:25:17.695086,806252,1609506981112848,4581025455,0.267424,-0.853024,-0.628544,-6.51875,-58.0475,46.445,-11.712001,-5.368,-99.84801,concentric,7,5.0,38552.0,40938.0,88590.0,72638.0,36954.0,51571.0,39868.0,41169.0,24363.0,18182.0
2026-05-06 16:25:17.706245,806253,1609506981121818,4581034206,0.267424,-0.853024,-0.628544,-4.4625,-58.33625,48.895,-11.712001,-5.368,-99.84801,concentric,7,5.0,38552.0,40938.0,88590.0,72638.0,36954.0,51571.0,39868.0,41169.0,24363.0,18182.0
2026-05-06 16:25:17.722677,806254,1609506981136382,4581047240,0.27328,-0.876448,-0.628544,-8.085,-57.40875,49.1225,-10.712001,-5.56,-100.216,concentric,7,5.0,38552.0,40938.0,88590.0,72638.0,36954.0,51571.0,39868.0,41169.0,24363.0,18182.0
2026-05-06 16:25:17.749869,806265,1609506981146058,4581058098,0.27328,-0.876448,-0.628544,-14.8225,-55.44,47.985,-10.712001,-5.56,-100.216,concentric,7,5.0,39695.0,42218.0,89786.0,73188.0,38065.0,52929.0,40500.0,41402.0,24885.0,18710.0
2026-05-06 16:25:17.754924,806266,1609506981160685,4581073023,0.288896,-0.847168,-0.651968,-26.355,-52.4125,45.52625,-9.808001,-5.672,-99.424,concentric,7,5.0,39695.0,42218.0,89786.0,73188.0,38065.0,52929.0,40500.0,41402.0,24885.0,18710.0
2026-05-06 16:25:17.757653,806267,1609506981169666,4581081770,0.265472,-0.876448,-0.616832,-27.2475,-50.0325,42.105,-9.528001,-7.424,-100.01601,concentric,7,5.0,39695.0,42218.0,89786.0,73188.0,38065.0,52929.0,40500.0,41402.0,24885.0,18710.0
2026-05-06 16:25:17.760174,806268,1609506981178597,4581090491,0.265472,-0.876448,-0.616832,-26.69625,-49.65625,38.1675,-9.528001,-7.424,-100.01601,concentric,7,5.0,39695.0,42218.0,89786.0,73188.0,38065.0,52929.0,40500.0,41402.0,24885.0,18710.0
2026-05-06 16:25:17.794026,806269,1609506981193220,4581105434,0.16592,-0.817888,-0.646112,-29.42625,-49.3675,37.1525,-8.392,-6.192,-100.776,concentric,7,5.0,39695.0,42218.0,89786.0,73188.0,38065.0,52929.0,40500.0,41402.0,24885.0,18710.0
2026-05-06 16:25:17.796497,806270,1609506981202154,4581114145,0.16592,-0.817888,-0.646112,-25.06,-50.44375,37.66,-8.392,-6.192,-100.776,concentric,7,5.0,39695.0,42218.0,89786.0,73188.0,38065.0,52929.0,40500.0,41402.0,24885.0,18710.0
2026-05-06 16:25:17.799022,806271,1609506981216647,4581129083,0.054656,-0.753472,-0.696864,-22.79375,-51.275,37.16125,-7.2,-6.08,-101.032005,concentric,7,5.0,39695.0,42218.0,89786.0,73188.0,38065.0,52929.0,40500.0,41402.0,24885.0,18710.0
2026-05-06 16:25:17.807741,806272,1609506981225646,4581137853,0.054656,-0.753472,-0.696864,-20.32625,-50.365,36.785,-7.2,-6.08,-101.032005,concentric,7,5.0,39695.0,42218.0,89786.0,73188.0,38065.0,52929.0,40500.0,41402.0,24885.0,18710.0
2026-05-06 16:25:17.850270,806273,1609506981240179,4581152761,0.031232,-0.786656,-0.698816,-20.57125,-48.60625,36.9075,-6.584,-6.976,-100.11201,concentric,7,5.0,39695.0,42218.0,89786.0,73188.0,38065.0,52929.0,40500.0,41402.0,24885.0,18710.0
2026-05-06 16:25:17.877881,806284,1609506981249328,4581161758,0.031232,-0.782752,-0.667584,-25.06,-46.66375,36.11125,-6.584,-6.976,-100.11201,concentric,7,5.0,40133.0,42573.0,90404.0,73730.0,38451.0,53184.0,40802.0,41642.0,25066.0,18840.0
2026-05-06 16:25:17.880063,806285,1609506981258295,4581170506,0.021472,-0.782752,-0.667584,-28.411251,-46.13,34.44875,-5.768,-6.944,-99.37601,concentric,7,5.0,40133.0,42573.0,90404.0,73730.0,38451.0,53184.0,40802.0,41642.0,25066.0,18840.0
2026-05-06 16:25:17.882573,806286,1609506981272811,4581185449,-0.005856,-0.755424,-0.669536,-17.61375,-47.32875,32.94375,-4.888,-6.376,-101.456,concentric,7,5.0,40133.0,42573.0,90404.0,73730.0,38451.0,53184.0,40802.0,41642.0,25066.0,18840.0
2026-05-06 16:25:17.885056,806287,1609506981281789,4581194174,-0.005856,-0.755424,-0.669536,-10.08875,-48.16,31.465,-4.888,-6.376,-101.456,concentric,7,5.0,40133.0,42573.0,90404.0,73730.0,38451.0,53184.0,40802.0,41642.0,25066.0,18840.0
2026-05-06 16:25:17.887723,806288,1609506981296343,4581207120,-0.046848,-0.745664,-0.679296,-3.9025,-49.5425,31.1675,-4.32,-9.480001,-100.536,concentric,7,5.0,40133.0,42573.0,90404.0,73730.0,38451.0,53184.0,40802.0,41642.0,25066.0,18840.0
2026-05-06 16:25:17.890080,806289,1609506981305673,4581217942,-0.046848,-0.745664,-0.679296,-2.415,-49.79625,30.21375,-4.32,-9.480001,-100.536,concentric,7,5.0,40133.0,42573.0,90404.0,73730.0,38451.0,53184.0,40802.0,41642.0,25066.0,18840.0
2026-05-06 16:25:17.898938,806290,1609506981314731,4581226715,-0.050752,-0.776896,-0.698816,-0.7525,-48.685,30.1175,-3.432,-8.408,-100.79201,concentric,7,5.0,40133.0,42573.0,90404.0,73730.0,38451.0,53184.0,40802.0,41642.0,25066.0,18840.0
2026-05-06 16:25:17.913682,806291,1609506981329278,4581241672,-0.050752,-0.776896,-0.698816,0.46375,-47.48625,30.0825,-3.432,-8.408,-100.79201,concentric,7,5.0,40133.0,42573.0,90404.0,73730.0,38451.0,53184.0,40802.0,41642.0,25066.0,18840.0
2026-05-06 16:25:17.920109,806292,1609506981338265,4581250391,-0.00976,-0.774944,-0.675392,-2.66,-46.165,28.945,-2.592,-7.552001,-102.76,concentric,7,5.0,40133.0,42573.0,90404.0,73730.0,38451.0,53184.0,40802.0,41642.0,25066.0,18840.0
2026-05-06 16:25:17.960287,806303,1609506981352877,4581265513,-0.023424,-0.788608,-0.755424,-3.7975,-44.5375,27.545,-2.08,-6.552001,-102.032005,concentric,7,5.0,41258.0,43471.0,90861.0,74170.0,39662.0,54186.0,41063.0,41884.0,25679.0,19225.0
2026-05-06 16:25:17.962854,806304,1609506981361838,4581274283,-0.023424,-0.788608,-0.755424,2.5025,-43.68875,27.265,-2.08,-6.552001,-102.032005,concentric,7,5.0,41258.0,43471.0,90861.0,74170.0,39662.0,54186.0,41063.0,41884.0,25679.0,19225.0
2026-05-06 16:25:17.965278,806305,1609506981370790,4581283036,-0.042944,-0.79056,-0.769088,3.80625,-41.7725,26.2325,-1.056,-7.496,-101.312004,concentric,7,5.0,41258.0,43471.0,90861.0,74170.0,39662.0,54186.0,41063.0,41884.0,25679.0,19225.0
2026-05-06 16:25:17.993941,806306,1609506981385276,4581297988,-0.042944,-0.79056,-0.769088,4.78625,-40.5475,28.32375,-1.056,-7.496,-101.312004,eccentric,7,5.0,41258.0,43471.0,90861.0,74170.0,39662.0,54186.0,41063.0,41884.0,25679.0,19225.0
2026-05-06 16:25:18.015509,806307,1609506981394214,4581306707,-0.037088,-0.792512,-0.782752,4.71625,-38.78,31.491251,-0.328,-6.208,-102.104004,eccentric,7,5.0,41258.0,43471.0,90861.0,74170.0,39662.0,54186.0,41063.0,41884.0,25679.0,19225.0
2026-05-06 16:25:18.023753,806308,1609506981408820,4581319654,-0.037088,-0.792512,-0.782752,4.57625,-36.575,31.24625,-0.328,-6.208,-102.104004,eccentric,7,5.0,41258.0,43471.0,90861.0,74170.0,39662.0,54186.0,41063.0,41884.0,25679.0,19225.0
2026-05-06 16:25:18.026153,806309,1609506981418242,4581330484,-0.056608,-0.788608,-0.714432,2.94875,-33.94125,29.21625,0.072,-5.528,-101.984,eccentric,7,5.0,41258.0,43471.0,90861.0,74170.0,39662.0,54186.0,41063.0,41884.0,25679.0,19225.0
2026-05-06 16:25:18.031397,806310,1609506981432767,4581345519,-0.093696,-0.784704,-0.75152,4.0775,-30.87,29.3475,0.304,-5.496,-102.30401,eccentric,7,5.0,41258.0,43471.0,90861.0,74170.0,39662.0,54186.0,41063.0,41884.0,25679.0,19225.0
2026-05-06 16:25:18.036214,806311,1609506981441701,4581354224,-0.093696,-0.784704,-0.75152,7.63,-28.0875,31.045,0.304,-5.496,-102.30401,eccentric,7,5.0,41258.0,43471.0,90861.0,74170.0,39662.0,54186.0,41063.0,41884.0,25679.0,19225.0
2026-05-06 16:25:18.065162,806322,1609506981450813,4581363073,-0.093696,-0.89792,-0.728096,10.5,-25.585001,31.5525,0.304,-5.496,-104.352005,eccentric,7,5.0,42708.0,45274.0,91857.0,75311.0,41210.0,56196.0,41628.0,42457.0,26451.0,20011.0
2026-05-06 16:25:18.067685,806323,1609506981465330,4581376158,-0.076128,-0.89792,-0.728096,9.38,-23.8175,30.49375,1.32,-7.448,-102.79201,eccentric,7,5.0,42708.0,45274.0,91857.0,75311.0,41210.0,56196.0,41628.0,42457.0,26451.0,20011.0
2026-05-06 16:25:18.070205,806324,1609506981474582,4581386984,0.044896,-0.89792,-0.720288,-4.41,-22.86375,30.695,1.368,-7.256001,-101.72,eccentric,7,5.0,42708.0,45274.0,91857.0,75311.0,41210.0,56196.0,41628.0,42457.0,26451.0,20011.0
2026-05-06 16:25:18.072834,806325,1609506981489182,4581401964,0.044896,-0.89792,-0.720288,-10.94625,-21.0,29.68875,1.368,-7.256001,-101.72,eccentric,7,5.0,42708.0,45274.0,91857.0,75311.0,41210.0,56196.0,41628.0,42457.0,26451.0,20011.0
2026-05-06 16:25:18.081516,806326,1609506981498141,4581411106,-0.011712,-0.989664,-0.825696,-12.1975,-18.5325,19.6875,1.592,-6.968,-101.728004,eccentric,7,5.0,42708.0,45274.0,91857.0,75311.0,41210.0,56196.0,41628.0,42457.0,26451.0,20011.0
2026-05-06 16:25:18.092405,806327,1609506981507527,4581420081,-0.011712,-0.989664,-0.825696,-14.0525,-14.542501,8.91625,1.592,-6.968,-101.728004,eccentric,7,5.0,42708.0,45274.0,91857.0,75311.0,41210.0,56196.0,41628.0,42457.0,26451.0,20011.0
2026-05-06 16:25:18.103863,806328,1609506981522127,4581433018,-0.122976,-0.989664,-0.854976,-9.54625,-9.38,6.20375,1.304,-7.304,-102.656006,eccentric,7,5.0,42708.0,45274.0,91857.0,75311.0,41210.0,56196.0,41628.0,42457.0,26451.0,20011.0
2026-05-06 16:25:18.115103,806329,1609506981531902,4581443794,-0.060512,-0.89792,-0.757376,-2.8,-3.64,7.5775,1.784,-5.576,-102.856,eccentric,7,5.0,42708.0,45274.0,91857.0,75311.0,41210.0,56196.0,41628.0,42457.0,26451.0,20011.0
2026-05-06 16:25:18.124088,806330,1609506981540820,4581452508,-0.060512,-0.89792,-0.757376,6.06375,1.60125,9.5725,1.784,-5.576,-102.856,eccentric,7,5.0,42708.0,45274.0,91857.0,75311.0,41210.0,56196.0,41628.0,42457.0,26451.0,20011.0
2026-05-06 16:25:18.159029,806342,1609506981555452,4581467555,-0.052704,-0.728096,-0.694912,10.745,5.5475,12.67875,1.8,-5.432,-102.504005,eccentric,7,5.0,43427.0,46035.0,92401.0,76247.0,41890.0,56990.0,41886.0,42923.0,26843.0,20408.0
2026-05-06 16:25:18.161403,806343,1609506981564442,4581476314,-0.052704,-0.728096,-0.694912,9.555,8.84625,12.60875,1.8,-5.432,-102.504005,eccentric,7,5.0,43427.0,46035.0,92401.0,76247.0,41890.0,56990.0,41886.0,42923.0,26843.0,20408.0
2026-05-06 16:25:18.163795,806344,1609506981579158,4581491294,-0.1464,-0.710528,-0.70272,7.07,10.5875,9.89625,1.32,-5.232,-102.344,eccentric,7,5.0,43427.0,46035.0,92401.0,76247.0,41890.0,56990.0,41886.0,42923.0,26843.0,20408.0
2026-05-06 16:25:18.170235,806345,1609506981588384,4581500160,-0.1464,-0.710528,-0.70272,-1.63625,12.145,9.5025,1.32,-5.232,-102.344,eccentric,7,5.0,43427.0,46035.0,92401.0,76247.0,41890.0,56990.0,41886.0,42923.0,26843.0,20408.0
2026-05-06 16:25:18.180664,806346,1609506981597317,4581508883,-0.197152,-0.778848,-0.642208,-7.97125,12.11875,12.39,1.368,-5.528,-102.58401,eccentric,7,5.0,43427.0,46035.0,92401.0,76247.0,41890.0,56990.0,41886.0,42923.0,26843.0,20408.0
2026-05-06 16:25:18.212880,806347,1609506981611864,4581523786,-0.197152,-0.788608,-0.560224,-9.8175,10.36875,13.15125,1.368,-5.528,-102.58401,eccentric,7,5.0,43427.0,46035.0,92401.0,76247.0,41890.0,56990.0,41886.0,42923.0,26843.0,20408.0
2026-05-06 16:25:18.217892,806348,1609506981621077,4581532975,-0.15616,-0.788608,-0.560224,-10.08875,7.5425,12.66125,1.008,-4.984,-102.576004,eccentric,7,5.0,43427.0,46035.0,92401.0,76247.0,41890.0,56990.0,41886.0,42923.0,26843.0,20408.0
2026-05-06 16:25:18.220323,806349,1609506981635596,4581547944,-0.144448,-0.864736,-0.65392,-4.515,4.7075,12.74875,0.984,-5.072,-102.48801,eccentric,7,5.0,43427.0,46035.0,92401.0,76247.0,41890.0,56990.0,41886.0,42923.0,26843.0,20408.0
2026-05-06 16:25:18.226393,806350,1609506981644528,4581556683,-0.144448,-0.864736,-0.65392,-1.63625,1.6625,9.485,0.984,-5.072,-102.48801,eccentric,7,5.0,43427.0,46035.0,92401.0,76247.0,41890.0,56990.0,41886.0,42923.0,26843.0,20408.0
2026-05-06 16:25:18.256457,806361,1609506981659407,4581570251,-0.119072,-0.925248,-0.59536,-4.7425,-1.1025,3.89375,0.976,-7.048,-101.72,eccentric,7,5.0,43927.0,46179.0,92351.0,76326.0,42346.0,57122.0,41871.0,42932.0,27091.0,20448.0
2026-05-06 16:25:18.259019,806362,1609506981668933,4581581087,-0.119072,-0.925248,-0.59536,-13.5275,-4.71625,1.19,0.976,-7.048,-101.72,eccentric,7,5.0,43927.0,46179.0,92351.0,76326.0,42346.0,57122.0,41871.0,42932.0,27091.0,20448.0
2026-05-06 16:25:18.261530,806363,1609506981677925,4581589862,-0.074176,-0.83936,-0.698816,-11.917501,-8.70625,0.41125,0.952,-7.176,-101.08,eccentric,7,5.0,43927.0,46179.0,92351.0,76326.0,42346.0,57122.0,41871.0,42932.0,27091.0,20448.0
2026-05-06 16:25:18.275235,806364,1609506981692482,4581604876,-0.074176,-0.843264,-0.749568,-6.545,-11.80375,-5.32875,0.952,-7.176,-101.08,eccentric,7,5.0,43927.0,46179.0,92351.0,76326.0,42346.0,57122.0,41871.0,42932.0,27091.0,20448.0
2026-05-06 16:25:18.283707,806365,1609506981701443,4581613590,-0.183488,-0.843264,-0.749568,-7.02625,-12.6875,-11.515,1.248,-5.384,-102.56801,eccentric,7,5.0,43927.0,46179.0,92351.0,76326.0,42346.0,57122.0,41871.0,42932.0,27091.0,20448.0
2026-05-06 16:25:18.297661,806366,1609506981715970,4581628510,-0.163968,-0.940864,-0.767136,-8.04125,-11.73375,-12.53,1.296,-5.392,-102.4,eccentric,7,5.0,43927.0,46179.0,92351.0,76326.0,42346.0,57122.0,41871.0,42932.0,27091.0,20448.0
2026-05-06 16:25:18.308668,806367,1609506981724881,4581637247,-0.163968,-0.940864,-0.767136,-8.96875,-9.47625,-13.02875,1.296,-5.392,-102.4,eccentric,7,5.0,43927.0,46179.0,92351.0,76326.0,42346.0,57122.0,41871.0,42932.0,27091.0,20448.0
2026-05-06 16:25:18.315127,806368,1609506981733998,4581646006,-0.042944,-0.80032,-0.704672,-7.6825,-7.6825,-12.31125,1.208,-8.536,-100.608,eccentric,7,5.0,43927.0,46179.0,92351.0,76326.0,42346.0,57122.0,41871.0,42932.0,27091.0,20448.0
2026-05-06 16:25:18.412749,806379,1609506981748736,4581661035,-0.042944,-0.80032,-0.704672,-0.9975,-5.6175,-10.43,1.208,-8.536,-100.608,eccentric,7,5.0,43856.0,46170.0,92636.0,76506.0,42315.0,57130.0,42032.0,43012.0,27075.0,20417.0
2026-05-06 16:25:18.415212,806380,1609506981757874,4581669783,-0.089792,-0.806176,-0.753472,5.76625,-2.1875,-14.20125,1.384,-6.384,-102.520004,eccentric,7,5.0,43856.0,46170.0,92636.0,76506.0,42315.0,57130.0,42032.0,43012.0,27075.0,20417.0
2026-05-06 16:25:18.417784,806381,1609506981772406,4581684791,-0.089792,-0.806176,-0.753472,2.45,1.82875,-20.9125,1.384,-6.384,-102.520004,eccentric,7,5.0,43856.0,46170.0,92636.0,76506.0,42315.0,57130.0,42032.0,43012.0,27075.0,20417.0
2026-05-06 16:25:18.420241,806382,1609506981781359,4581693532,-0.163968,-0.856928,-0.79056,-4.78625,6.67625,-22.88125,1.744,-5.616,-100.216,eccentric,7,5.0,43856.0,46170.0,92636.0,76506.0,42315.0,57130.0,42032.0,43012.0,27075.0,20417.0
2026-05-06 16:25:18.425280,806383,1609506981790252,4581702318,-0.163968,-0.856928,-0.79056,-9.2225,11.261251,-23.82625,1.744,-5.616,-100.216,eccentric,7,5.0,43856.0,46170.0,92636.0,76506.0,42315.0,57130.0,42032.0,43012.0,27075.0,20417.0
2026-05-06 16:25:18.427704,806384,1609506981804728,4581717210,-0.072224,-0.931104,-0.720288,-10.63125,15.67125,-26.48625,0.776,-5.928001,-102.880005,eccentric,7,5.0,43856.0,46170.0,92636.0,76506.0,42315.0,57130.0,42032.0,43012.0,27075.0,20417.0
2026-05-06 16:25:18.430217,806385,1609506981813634,4581725891,-0.017568,-0.862784,-0.76128,-8.855001,20.23875,-26.74,0.776,-5.928001,-103.928,eccentric,7,5.0,43856.0,46170.0,92636.0,76506.0,42315.0,57130.0,42032.0,43012.0,27075.0,20417.0
2026-05-06 16:25:18.432747,806386,1609506981828288,4581740847,-0.017568,-0.862784,-0.76128,1.8375,23.2575,-27.16875,0.584,-5.584,-103.928,eccentric,7,5.0,43856.0,46170.0,92636.0,76506.0,42315.0,57130.0,42032.0,43012.0,27075.0,20417.0
2026-05-06 16:25:18.437809,806387,1609506981837419,4581749592,-0.074176,-0.845216,-0.772992,2.905,25.4625,-33.0925,0.008,-7.04,-101.144005,eccentric,7,5.0,43856.0,46170.0,92636.0,76506.0,42315.0,57130.0,42032.0,43012.0,27075.0,20417.0
2026-05-06 16:25:18.493960,806398,1609506981846521,4581758827,-0.074176,-0.845216,-0.772992,-1.0325,28.7875,-38.47375,0.008,-7.04,-101.144005,eccentric,7,5.0,43751.0,45778.0,93021.0,76979.0,42214.0,56618.0,42142.0,43294.0,27001.0,20178.0
2026-05-06 16:25:18.496419,806399,1609506981861108,4581773788,-0.081984,-0.919392,-0.757376,-2.98375,32.1475,-43.0675,-1.16,-7.552001,-101.44,eccentric,7,5.0,43751.0,45778.0,93021.0,76979.0,42214.0,56618.0,42142.0,43294.0,27001.0,20178.0
2026-05-06 16:25:18.503998,806400,1609506981870046,4581782530,-0.081984,-0.919392,-0.757376,-6.055,35.201252,-46.41,-1.16,-7.552001,-101.44,eccentric,7,5.0,43751.0,45778.0,93021.0,76979.0,42214.0,56618.0,42142.0,43294.0,27001.0,20178.0
2026-05-06 16:25:18.506436,806401,1609506981884535,4581795446,-0.01952,-0.841312,-0.745664,-3.70125,36.89875,-44.170002,-1.424,-5.768,-102.20801,eccentric,7,5.0,43751.0,45778.0,93021.0,76979.0,42214.0,56618.0,42142.0,43294.0,27001.0,20178.0
2026-05-06 16:25:18.508999,806402,1609506981893911,4581806241,-0.01952,-0.856928,-0.769088,3.85875,37.7825,-43.19,-1.424,-5.768,-102.20801,eccentric,7,5.0,43751.0,45778.0,93021.0,76979.0,42214.0,56618.0,42142.0,43294.0,27001.0,20178.0
2026-05-06 16:25:18.511520,806403,1609506981908438,4581821203,0.013664,-0.84912,-0.769088,2.98375,38.33375,-46.935,-2.192,-5.912,-101.816,eccentric,7,5.0,43751.0,45778.0,93021.0,76979.0,42214.0,56618.0,42142.0,43294.0,27001.0,20178.0
2026-05-06 16:25:18.514020,806404,1609506981917469,4581829927,0.023424,-0.886208,-0.677344,-0.525,38.92875,-50.42625,-2.688,-6.208,-102.09601,eccentric,7,5.0,43751.0,45778.0,93021.0,76979.0,42214.0,56618.0,42142.0,43294.0,27001.0,20178.0
2026-05-06 16:25:18.516520,806405,1609506981926422,4581838703,0.023424,-0.886208,-0.677344,-3.89375,40.775,-54.55625,-2.688,-6.208,-102.09601,eccentric,7,5.0,43751.0,45778.0,93021.0,76979.0,42214.0,56618.0,42142.0,43294.0,27001.0,20178.0
2026-05-06 16:25:18.522836,806406,1609506981940973,4581853660,0.0488,-0.93696,-0.70272,-3.40375,43.18125,-58.58125,-3.6,-6.008,-101.880005,eccentric,7,5.0,43751.0,45778.0,93021.0,76979.0,42214.0,56618.0,42142.0,43294.0,27001.0,20178.0
2026-05-06 16:25:18.556345,806417,1609506981950498,4581862467,0.0488,-0.93696,-0.70272,-0.2975,45.01875,-61.03125,-3.6,-6.008,-101.880005,eccentric,7,5.0,43382.0,45342.0,92661.0,77283.0,41801.0,56134.0,41967.0,43458.0,26774.0,19978.0
2026-05-06 16:25:18.560745,806418,1609506981965148,4581877470,0.10736,-0.872544,-0.72224,2.8525,46.47125,-60.83875,-4.44,-6.624001,-101.504005,eccentric,7,5.0,43382.0,45342.0,92661.0,77283.0,41801.0,56134.0,41967.0,43458.0,26774.0,19978.0
2026-05-06 16:25:18.561945,806419,1609506981974176,4581886215,0.10736,-0.872544,-0.72224,9.96625,47.25875,-58.51125,-4.44,-6.624001,-101.504005,eccentric,7,5.0,43382.0,45342.0,92661.0,77283.0,41801.0,56134.0,41967.0,43458.0,26774.0,19978.0
2026-05-06 16:25:18.563802,806420,1609506981983209,4581894927,0.093696,-0.827648,-0.732,12.39,47.495,-58.9575,-5.4,-6.16,-98.928,eccentric,7,5.0,43382.0,45342.0,92661.0,77283.0,41801.0,56134.0,41967.0,43458.0,26774.0,19978.0
2026-05-06 16:25:18.597736,806421,1609506981997738,4581909887,0.081984,-0.827648,-0.71248,11.24375,48.09875,-61.32875,-6.248,-5.752,-101.392006,eccentric,7,5.0,43382.0,45342.0,92661.0,77283.0,41801.0,56134.0,41967.0,43458.0,26774.0,19978.0
2026-05-06 16:25:18.600179,806422,1609506982006710,4581918640,0.081984,-0.827648,-0.71248,8.6625,49.35,-63.56,-6.248,-5.752,-101.392006,eccentric,7,5.0,43382.0,45342.0,92661.0,77283.0,41801.0,56134.0,41967.0,43458.0,26774.0,19978.0
2026-05-06 16:25:18.602786,806423,1609506982021193,4581933543,0.150304,-0.890112,-0.733952,5.425,50.82875,-64.33875,-6.864,-6.104,-100.84801,eccentric,7,5.0,43382.0,45342.0,92661.0,77283.0,41801.0,56134.0,41967.0,43458.0,26774.0,19978.0
2026-05-06 16:25:18.616490,806424,1609506982030105,4581942249,0.150304,-0.890112,-0.733952,4.76875,51.93125,-67.13875,-6.864,-6.104,-100.84801,eccentric,7,5.0,43382.0,45342.0,92661.0,77283.0,41801.0,56134.0,41967.0,43458.0,26774.0,19978.0
2026-05-06 16:25:18.620245,806425,1609506982039106,4581950984,0.220576,-0.808128,-0.66368,3.40375,53.41,-69.7025,-8.072001,-6.328,-101.032005,eccentric,7,5.0,43382.0,45342.0,92661.0,77283.0,41801.0,56134.0,41967.0,43458.0,26774.0,19978.0
2026-05-06 16:25:18.653866,806436,1609506982053801,4581966555,0.220576,-0.808128,-0.66368,9.12625,54.285,-68.1275,-8.072001,-6.328,-101.032005,eccentric,7,5.0,43358.0,45498.0,92347.0,77721.0,41706.0,56311.0,41839.0,43717.0,26736.0,20070.0
2026-05-06 16:25:18.660548,806437,1609506982062761,4581975336,0.244,-0.730048,-0.720288,11.71625,55.8425,-66.8325,-9.320001,-8.360001,-98.608,eccentric,7,5.0,43358.0,45498.0,92347.0,77721.0,41706.0,56311.0,41839.0,43717.0,26736.0,20070.0
2026-05-06 16:25:18.662509,806438,1609506982077272,4581988312,0.265472,-0.765184,-0.681248,12.04,56.53375,-67.26125,-10.744,-9.616,-98.136,eccentric,7,5.0,43358.0,45498.0,92347.0,77721.0,41706.0,56311.0,41839.0,43717.0,26736.0,20070.0
2026-05-06 16:25:18.668868,806439,1609506982086552,4581999160,0.265472,-0.765184,-0.681248,4.2,59.68375,-67.43625,-10.744,-9.616,-98.136,eccentric,7,5.0,43358.0,45498.0,92347.0,77721.0,41706.0,56311.0,41839.0,43717.0,26736.0,20070.0
2026-05-06 16:25:18.680135,806440,1609506982095460,4582007856,0.265472,-0.843264,-0.6832,-5.0575,63.35,-67.025,-10.744,-9.616,-98.136,eccentric,7,5.0,43358.0,45498.0,92347.0,77721.0,41706.0,56311.0,41839.0,43717.0,26736.0,20070.0
2026-05-06 16:25:18.694004,806441,1609506982110123,4582022802,0.251808,-0.8296,-0.6832,-8.33,66.05375,-67.33125,-11.848001,-9.84,-99.200005,eccentric,7,5.0,43358.0,45498.0,92347.0,77721.0,41706.0,56311.0,41839.0,43717.0,26736.0,20070.0
2026-05-06 16:25:18.700232,806442,1609506982119065,4582031484,0.306464,-0.718336,-0.60512,-11.165,67.340004,-67.50625,-12.048,-7.296001,-99.464005,eccentric,7,5.0,43358.0,45498.0,92347.0,77721.0,41706.0,56311.0,41839.0,43717.0,26736.0,20070.0
2026-05-06 16:25:18.725144,806443,1609506982133605,4582044362,0.306464,-0.718336,-0.60512,-5.1975,66.9375,-64.74125,-12.048,-7.296001,-99.464005,eccentric,7,5.0,43358.0,45498.0,92347.0,77721.0,41706.0,56311.0,41839.0,43717.0,26736.0,20070.0
2026-05-06 16:25:18.751010,806444,1609506982142793,4582055118,0.33184,-0.733952,-0.618784,3.7975,67.08625,-65.0125,-13.360001,-8.024,-98.864006,eccentric,7,5.0,43358.0,45498.0,92347.0,77721.0,41706.0,56311.0,41839.0,43717.0,26736.0,20070.0
2026-05-06 16:25:18.792849,806455,1609506982157396,4582070182,0.333792,-0.774944,-0.704672,2.17,68.2675,-67.777504,-14.752001,-8.248,-97.936005,eccentric,7,5.0,43313.0,45933.0,92181.0,78450.0,41547.0,56826.0,41721.0,44160.0,26708.0,20311.0
2026-05-06 16:25:18.795307,806456,1609506982166313,4582078888,0.333792,-0.774944,-0.704672,-1.89,71.02375,-67.13875,-14.752001,-8.248,-97.936005,eccentric,7,5.0,43313.0,45933.0,92181.0,78450.0,41547.0,56826.0,41721.0,44160.0,26708.0,20311.0
2026-05-06 16:25:18.797833,806457,1609506982175219,4582087602,0.333792,-0.774944,-0.704672,-5.0925,74.585,-65.68625,-14.752001,-8.248,-97.936005,eccentric,7,5.0,43313.0,45933.0,92181.0,78450.0,41547.0,56826.0,41721.0,44160.0,26708.0,20311.0
2026-05-06 16:25:18.800258,806458,1609506982189781,4582100567,0.37088,-0.708576,-0.5856,-5.57375,76.44875,-64.933754,-15.696001,-10.032001,-97.256004,eccentric,7,5.0,43313.0,45933.0,92181.0,78450.0,41547.0,56826.0,41721.0,44160.0,26708.0,20311.0
2026-05-06 16:25:18.802801,806459,1609506982199330,4582111378,0.372832,-0.609024,-0.573888,-5.76625,76.88625,-62.93,-17.408,-10.592001,-96.41601,eccentric,7,5.0,43313.0,45933.0,92181.0,78450.0,41547.0,56826.0,41721.0,44160.0,26708.0,20311.0
2026-05-06 16:25:18.805335,806460,1609506982213981,4582126318,0.372832,-0.609024,-0.573888,-3.73625,77.735,-61.1275,-17.408,-10.592001,-96.41601,eccentric,7,5.0,43313.0,45933.0,92181.0,78450.0,41547.0,56826.0,41721.0,44160.0,26708.0,20311.0
2026-05-06 16:25:18.807830,806461,1609506982223042,4582134988,0.386496,-0.671488,-0.636352,-5.95,78.4,-62.57125,-18.336,-10.792001,-95.09601,eccentric,7,5.0,43313.0,45933.0,92181.0,78450.0,41547.0,56826.0,41721.0,44160.0,26708.0,20311.0
2026-05-06 16:25:18.814096,806462,1609506982232103,4582143709,0.386496,-0.671488,-0.636352,-10.22,81.29625,-62.93,-18.336,-10.792001,-95.09601,eccentric,7,5.0,43313.0,45933.0,92181.0,78450.0,41547.0,56826.0,41721.0,44160.0,26708.0,20311.0
2026-05-06 16:25:18.827903,806463,1609506982246600,4582158636,0.411872,-0.778848,-0.776896,-12.62625,84.69125,-60.50625,-19.688002,-11.648001,-95.384,eccentric,7,5.0,43313.0,45933.0,92181.0,78450.0,41547.0,56826.0,41721.0,44160.0,26708.0,20311.0
2026-05-06 16:25:18.855091,806474,1609506982255642,4582167750,0.411872,-0.778848,-0.776896,-9.345,90.125,-56.9975,-19.688002,-11.648001,-95.384,eccentric,7,5.0,42828.0,46300.0,91800.0,79270.0,41042.0,57317.0,41515.0,44626.0,26425.0,20487.0
2026-05-06 16:25:18.857535,806475,1609506982270391,4582182656,0.610976,-0.831552,-0.423584,-8.7675,96.20625,-56.98,-20.568,-13.936001,-93.304,eccentric,7,5.0,42828.0,46300.0,91800.0,79270.0,41042.0,57317.0,41515.0,44626.0,26425.0,20487.0
2026-05-06 16:25:18.863922,806476,1609506982279485,4582191421,0.581696,-0.486048,-0.493856,-14.6825,97.965004,-57.74125,-22.144001,-14.336,-92.632,eccentric,7,5.0,42828.0,46300.0,91800.0,79270.0,41042.0,57317.0,41515.0,44626.0,26425.0,20487.0
2026-05-06 16:25:18.871327,806477,1609506982288615,4582200174,0.581696,-0.486048,-0.493856,-5.74875,97.055,-57.951252,-22.144001,-14.336,-92.632,eccentric,7,5.0,42828.0,46300.0,91800.0,79270.0,41042.0,57317.0,41515.0,44626.0,26425.0,20487.0
2026-05-06 16:25:18.885166,806478,1609506982303129,4582215159,0.607072,-0.597312,-0.571936,-9.31875,99.7325,-63.48125,-23.256,-12.168,-93.688,eccentric,7,5.0,42828.0,46300.0,91800.0,79270.0,41042.0,57317.0,41515.0,44626.0,26425.0,20487.0
2026-05-06 16:25:18.893944,806479,1609506982312096,4582223892,0.607072,-0.597312,-0.571936,-34.6325,105.56875,-68.1975,-23.256,-12.168,-93.688,eccentric,7,5.0,42828.0,46300.0,91800.0,79270.0,41042.0,57317.0,41515.0,44626.0,26425.0,20487.0
2026-05-06 16:25:18.907718,806480,1609506982326631,4582238920,0.587552,-0.698816,-0.5368,-56.1925,112.79625,-65.17,-24.944,-14.864,-91.184006,eccentric,7,5.0,42828.0,46300.0,91800.0,79270.0,41042.0,57317.0,41515.0,44626.0,26425.0,20487.0
2026-05-06 16:25:18.916527,806481,1609506982335546,4582247615,0.587552,-0.698816,-0.5368,-58.8875,116.8125,-65.21375,-24.944,-14.864,-91.184006,eccentric,7,5.0,42828.0,46300.0,91800.0,79270.0,41042.0,57317.0,41515.0,44626.0,26425.0,20487.0
2026-05-06 16:25:18.930888,806482,1609506982344625,4582256305,0.493856,-0.550464,-0.472384,-49.77,117.52125,-68.25875,-26.056002,-16.560001,-93.592,eccentric,7,5.0,42828.0,46300.0,91800.0,79270.0,41042.0,57317.0,41515.0,44626.0,26425.0,20487.0
2026-05-06 16:25:18.965190,806493,1609506982359369,4582271365,0.353312,-0.407968,-0.46848,-30.275,113.23375,-67.13,-26.776001,-15.368001,-91.8,eccentric,7,5.0,42632.0,47921.0,91720.0,81135.0,40944.0,59207.0,41507.0,45693.0,26350.0,21225.0
2026-05-06 16:25:18.967739,806494,1609506982368458,4582280170,0.353312,-0.407968,-0.46848,-19.6175,106.05,-62.2125,-26.776001,-15.368001,-91.8,eccentric,7,5.0,42632.0,47921.0,91720.0,81135.0,40944.0,59207.0,41507.0,45693.0,26350.0,21225.0
2026-05-06 16:25:18.973835,806495,1609506982383076,4582295146,0.511424,-0.40016,-0.427488,-19.845,101.22875,-56.0,-27.584002,-18.176,-88.54401,eccentric,7,5.0,42632.0,47921.0,91720.0,81135.0,40944.0,59207.0,41507.0,45693.0,26350.0,21225.0
2026-05-06 16:25:18.976437,806496,1609506982392037,4582303870,0.511424,-0.40016,-0.427488,-35.6825,100.07375,-54.915,-27.584002,-18.176,-88.54401,eccentric,7,5.0,42632.0,47921.0,91720.0,81135.0,40944.0,59207.0,41507.0,45693.0,26350.0,21225.0
2026-05-06 16:25:18.990161,806497,1609506982406539,4582318787,0.57584,-0.544608,-0.456768,-34.65875,96.17125,-56.07,-28.736002,-17.28,-88.592,eccentric,7,5.0,42632.0,47921.0,91720.0,81135.0,40944.0,59207.0,41507.0,45693.0,26350.0,21225.0
2026-05-06 16:25:18.999015,806498,1609506982415445,4582327489,0.57584,-0.544608,-0.456768,-28.630001,94.5,-58.00375,-28.736002,-17.28,-88.592,eccentric,7,5.0,42632.0,47921.0,91720.0,81135.0,40944.0,59207.0,41507.0,45693.0,26350.0,21225.0
2026-05-06 16:25:19.005325,806499,1609506982424394,4582336246,0.636352,-0.480192,-0.32208,-29.05875,93.4675,-58.4675,-29.328001,-18.264,-87.568,eccentric,7,5.0,42632.0,47921.0,91720.0,81135.0,40944.0,59207.0,41507.0,45693.0,26350.0,21225.0
2026-05-06 16:25:19.024169,806500,1609506982438964,4582351188,0.618784,-0.482144,-0.447008,-14.49875,86.275,-55.46625,-30.056002,-19.232,-87.032005,eccentric,7,5.0,42632.0,47921.0,91720.0,81135.0,40944.0,59207.0,41507.0,45693.0,26350.0,21225.0
2026-05-06 16:25:19.031067,806501,1609506982448055,4582359932,0.618784,-0.482144,-0.447008,-2.0125,79.30125,-53.19125,-30.056002,-19.232,-87.032005,eccentric,7,5.0,42632.0,47921.0,91720.0,81135.0,40944.0,59207.0,41507.0,45693.0,26350.0,21225.0
2026-05-06 16:25:19.064037,806512,1609506982462666,4582375115,0.806176,-0.472384,-0.325984,-4.71625,78.51375,-52.87625,-30.560001,-19.2,-86.024,eccentric,7,5.0,40622.0,47954.0,91166.0,81166.0,39082.0,59296.0,41198.0,45725.0,25258.0,21197.0
2026-05-06 16:25:19.066516,806513,1609506982471640,4582383904,0.806176,-0.472384,-0.325984,-8.4,79.09125,-55.5275,-30.560001,-19.2,-86.024,eccentric,7,5.0,40622.0,47954.0,91166.0,81166.0,39082.0,59296.0,41198.0,45725.0,25258.0,21197.0
2026-05-06 16:25:19.091416,806514,1609506982480625,4582392654,0.732,-0.464576,-0.275232,2.905,78.225,-58.14375,-31.160002,-21.720001,-82.384,eccentric,7,5.0,40622.0,47954.0,91166.0,81166.0,39082.0,59296.0,41198.0,45725.0,25258.0,21197.0
2026-05-06 16:25:19.125670,806515,1609506982495130,4582407592,0.732,-0.464576,-0.275232,6.9825,77.945,-60.78625,-31.160002,-21.720001,-82.384,eccentric,7,5.0,40622.0,47954.0,91166.0,81166.0,39082.0,59296.0,41198.0,45725.0,25258.0,21197.0
2026-05-06 16:25:19.149942,806516,1609506982504069,4582416323,0.726144,-0.421632,-0.27328,15.05875,75.1625,-58.9925,-30.856,-20.416,-84.776,eccentric,7,5.0,40622.0,47954.0,91166.0,81166.0,39082.0,59296.0,41198.0,45725.0,25258.0,21197.0
2026-05-06 16:25:19.165187,806517,1609506982518612,4582431299,0.726144,-0.452864,-0.33184,13.83375,71.98625,-57.63625,-30.856,-20.416,-84.776,eccentric,7,5.0,40622.0,47954.0,91166.0,81166.0,39082.0,59296.0,41198.0,45725.0,25258.0,21197.0
2026-05-06 16:25:19.167758,806518,1609506982527551,4582440038,0.730048,-0.441152,-0.33184,13.877501,68.8975,-55.2475,-31.448002,-21.064001,-83.920006,eccentric,7,5.0,40622.0,47954.0,91166.0,81166.0,39082.0,59296.0,41198.0,45725.0,25258.0,21197.0
2026-05-06 16:25:19.170254,806519,1609506982542039,4582452889,0.876448,-0.441152,-0.232288,9.9925,69.2125,-55.50125,-31.568,-21.176,-83.44,eccentric,7,5.0,40622.0,47954.0,91166.0,81166.0,39082.0,59296.0,41198.0,45725.0,25258.0,21197.0
2026-05-06 16:25:19.200236,806530,1609506982551405,4582463746,0.876448,-0.441152,-0.232288,6.43125,71.2425,-60.6375,-31.568,-21.176,-83.44,eccentric,7,5.0,39180.0,47600.0,90512.0,80503.0,37784.0,58953.0,40872.0,45336.0,24561.0,21018.0
2026-05-06 16:25:19.202851,806531,1609506982560438,4582472503,0.691008,-0.365024,-0.23424,14.81375,71.0325,-65.68625,-31.824001,-22.432001,-82.392006,eccentric,7,5.0,39180.0,47600.0,90512.0,80503.0,37784.0,58953.0,40872.0,45336.0,24561.0,21018.0
2026-05-06 16:25:19.205307,806532,1609506982574968,4582487675,0.691008,-0.365024,-0.23424,20.83375,68.652504,-70.21,-31.824001,-22.432001,-82.392006,eccentric,7,5.0,39180.0,47600.0,90512.0,80503.0,37784.0,58953.0,40872.0,45336.0,24561.0,21018.0
2026-05-06 16:25:19.207714,806533,1609506982583890,4582496385,0.69296,-0.3904,-0.240096,24.605,64.4175,-67.59375,-31.576002,-23.216002,-82.104004,eccentric,7,5.0,39180.0,47600.0,90512.0,80503.0,37784.0,58953.0,40872.0,45336.0,24561.0,21018.0
2026-05-06 16:25:19.210372,806534,1609506982598605,4582509484,0.69296,-0.3904,-0.240096,17.3075,62.3175,-63.35,-31.576002,-23.216002,-82.104004,eccentric,7,5.0,39180.0,47600.0,90512.0,80503.0,37784.0,58953.0,40872.0,45336.0,24561.0,21018.0
2026-05-06 16:25:19.214183,806535,1609506982608069,4582520401,0.704672,-0.247904,-0.138592,8.12875,63.32375,-62.2475,-32.448,-26.768002,-81.496,eccentric,7,5.0,39180.0,47600.0,90512.0,80503.0,37784.0,58953.0,40872.0,45336.0,24561.0,21018.0
2026-05-06 16:25:19.214991,806536,1609506982617046,4582529180,0.704672,-0.247904,-0.138592,11.05125,59.8675,-62.15125,-32.448,-26.768002,-81.496,eccentric,7,5.0,39180.0,47600.0,90512.0,80503.0,37784.0,58953.0,40872.0,45336.0,24561.0,21018.0
2026-05-06 16:25:19.218543,806537,1609506982631592,4582544158,0.720288,-0.355264,-0.249856,20.27375,54.69625,-60.541252,-32.104,-26.28,-80.768005,eccentric,7,5.0,39180.0,47600.0,90512.0,80503.0,37784.0,58953.0,40872.0,45336.0,24561.0,21018.0
2026-05-06 16:25:19.223643,806538,1609506982640558,4582552869,0.79056,-0.3904,-0.08784,16.77375,56.603752,-56.9625,-32.08,-25.824001,-80.272,eccentric,7,5.0,39180.0,47600.0,90512.0,80503.0,37784.0,58953.0,40872.0,45336.0,24561.0,21018.0
2026-05-06 16:25:19.260279,806549,1609506982655967,4582568075,0.79056,-0.3904,-0.08784,11.96125,58.65125,-53.59375,-32.08,-25.824001,-80.272,eccentric,7,5.0,38522.0,47550.0,89743.0,79834.0,37220.0,58981.0,40516.0,44946.0,24282.0,21053.0
2026-05-06 16:25:19.262831,806550,1609506982664949,4582576888,0.509472,-0.36112,-0.327936,24.29875,52.920002,-51.9575,-31.944002,-25.768002,-79.58401,eccentric,7,5.0,38522.0,47550.0,89743.0,79834.0,37220.0,58981.0,40516.0,44946.0,24282.0,21053.0
2026-05-06 16:25:19.265297,806551,1609506982674028,4582585665,0.509472,-0.36112,-0.327936,30.31875,46.025,-46.96125,-31.944002,-25.768002,-79.58401,eccentric,7,5.0,38522.0,47550.0,89743.0,79834.0,37220.0,58981.0,40516.0,44946.0,24282.0,21053.0
2026-05-06 16:25:19.271541,806552,1609506982688614,4582600569,1.077504,-0.40992,-0.095648,21.49,47.92375,-39.48875,-32.128002,-26.04,-79.240005,eccentric,7,5.0,38522.0,47550.0,89743.0,79834.0,37220.0,58981.0,40516.0,44946.0,24282.0,21053.0
2026-05-06 16:25:19.277805,806553,1609506982697722,4582609342,1.077504,-0.40992,-0.095648,21.5775,51.205,-41.27375,-32.128002,-26.04,-79.240005,eccentric,7,5.0,38522.0,47550.0,89743.0,79834.0,37220.0,58981.0,40516.0,44946.0,24282.0,21053.0
2026-05-06 16:25:19.295166,806554,1609506982712233,4582624266,0.698816,-0.16592,-0.035136,36.155,49.315,-48.30875,-31.808,-24.480001,-80.032005,eccentric,7,5.0,38522.0,47550.0,89743.0,79834.0,37220.0,58981.0,40516.0,44946.0,24282.0,21053.0
2026-05-06 16:25:19.304169,806555,1609506982721149,4582633022,0.685152,-0.23424,-0.013664,40.5825,45.675,-47.43375,-31.848001,-24.744001,-79.912,eccentric,7,5.0,38522.0,47550.0,89743.0,79834.0,37220.0,58981.0,40516.0,44946.0,24282.0,21053.0
2026-05-06 16:25:19.310080,806556,1609506982730159,4582641688,0.685152,-0.23424,-0.013664,30.24875,41.99125,-44.86125,-31.848001,-24.744001,-79.912,eccentric,7,5.0,38522.0,47550.0,89743.0,79834.0,37220.0,58981.0,40516.0,44946.0,24282.0,21053.0
2026-05-06 16:25:19.343959,806557,1609506982744672,4582656701,0.991616,-0.655872,-0.023424,18.31375,36.82875,-41.15125,-31.992,-26.856,-79.08,eccentric,7,5.0,38522.0,47550.0,89743.0,79834.0,37220.0,58981.0,40516.0,44946.0,24282.0,21053.0
2026-05-06 16:25:19.375065,806568,1609506982753765,4582665395,0.991616,-0.655872,-0.023424,5.03125,34.02,-29.84625,-31.992,-26.856,-79.08,eccentric,7,5.0,37915.0,46773.0,89918.0,79231.0,36656.0,58103.0,40575.0,44635.0,23990.0,20695.0
2026-05-06 16:25:19.377653,806569,1609506982768506,4582680334,0.815936,-0.212768,0.062464,-4.17375,39.45375,-29.925,-31.568,-25.344002,-79.12,eccentric,7,5.0,37915.0,46773.0,89918.0,79231.0,36656.0,58103.0,40575.0,44635.0,23990.0,20695.0
2026-05-06 16:25:19.380087,806570,1609506982777453,4582689163,0.815936,-0.212768,0.062464,17.56125,37.8875,-33.005,-31.568,-25.344002,-79.12,eccentric,7,5.0,37915.0,46773.0,89918.0,79231.0,36656.0,58103.0,40575.0,44635.0,23990.0,20695.0
2026-05-06 16:25:19.382559,806571,1609506982786416,4582698017,0.571936,-0.064416,-0.054656,34.97375,31.29875,-37.47625,-31.880001,-28.296001,-78.256004,eccentric,7,5.0,37915.0,46773.0,89918.0,79231.0,36656.0,58103.0,40575.0,44635.0,23990.0,20695.0
2026-05-06 16:25:19.384976,806572,1609506982800953,4582712963,0.853024,-0.493856,-0.080032,32.235,27.13375,-39.03375,-31.880001,-28.296001,-80.304,eccentric,7,5.0,37915.0,46773.0,89918.0,79231.0,36656.0,58103.0,40575.0,44635.0,23990.0,20695.0
2026-05-06 16:25:19.392546,806573,1609506982810080,4582721848,0.853024,-0.493856,-0.080032,13.69375,25.76,-33.6875,-31.376001,-25.504002,-80.176,eccentric,7,5.0,37915.0,46773.0,89918.0,79231.0,36656.0,58103.0,40575.0,44635.0,23990.0,20695.0
2026-05-06 16:25:19.410240,806574,1609506982824595,4582736792,0.837408,-0.325984,0.066368,0.14875,23.975,-21.0,-31.608002,-25.312,-78.79201,eccentric,7,5.0,37915.0,46773.0,89918.0,79231.0,36656.0,58103.0,40575.0,44635.0,23990.0,20695.0
2026-05-06 16:25:19.413802,806575,1609506982833560,4582745515,0.837408,-0.325984,0.066368,-2.44125,23.8,-14.0175,-31.608002,-25.312,-78.79201,eccentric,7,5.0,37915.0,46773.0,89918.0,79231.0,36656.0,58103.0,40575.0,44635.0,23990.0,20695.0
2026-05-06 16:25:19.453877,806576,1609506982848088,4582760444,0.737856,-0.080032,0.0976,4.33125,23.66,-13.1075,-31.640001,-26.464,-79.208,eccentric,7,5.0,37915.0,46773.0,89918.0,79231.0,36656.0,58103.0,40575.0,44635.0,23990.0,20695.0
2026-05-06 16:25:19.561419,806587,1609506982857548,4582769268,0.737856,-0.080032,0.0976,5.0925,22.04125,-19.11875,-31.640001,-26.464,-79.208,eccentric,7,5.0,37745.0,46508.0,89576.0,78851.0,36594.0,57927.0,40411.0,44383.0,23969.0,20658.0
2026-05-06 16:25:19.563716,806588,1609506982866531,4582778077,0.80032,-0.402112,-0.189344,7.76125,14.525,-16.2925,-31.176,-26.232,-78.68,eccentric,7,5.0,37745.0,46508.0,89576.0,78851.0,36594.0,57927.0,40411.0,44383.0,23969.0,20658.0
2026-05-06 16:25:19.566267,806589,1609506982881024,4582793008,0.80032,-0.402112,0.154208,2.51125,11.27,-13.7375,-31.176,-26.232,-78.68,eccentric,7,5.0,37745.0,46508.0,89576.0,78851.0,36594.0,57927.0,40411.0,44383.0,23969.0,20658.0
2026-05-06 16:25:19.568816,806590,1609506982890143,4582801853,1.04432,-0.226432,0.140544,-3.49125,19.18875,-17.68375,-31.104002,-25.736002,-77.912,eccentric,7,5.0,37745.0,46508.0,89576.0,78851.0,36594.0,57927.0,40411.0,44383.0,23969.0,20658.0
2026-05-06 16:25:19.575260,806591,1609506982904627,4582816835,0.714432,0.119072,0.111264,14.77875,21.88375,-13.1775,-31.664001,-26.128002,-78.44,eccentric,7,5.0,37745.0,46508.0,89576.0,78851.0,36594.0,57927.0,40411.0,44383.0,23969.0,20658.0
2026-05-06 16:25:19.579495,806592,1609506982913646,4582825527,0.714432,0.119072,0.111264,25.03375,15.54,-11.698751,-31.664001,-26.128002,-78.44,eccentric,7,5.0,37745.0,46508.0,89576.0,78851.0,36594.0,57927.0,40411.0,44383.0,23969.0,20658.0
2026-05-06 16:25:19.580168,806593,1609506982922585,4582834222,0.708576,-0.601216,-0.083936,1.67125,10.99,-15.74125,-31.568,-25.936,-79.728004,eccentric,7,5.0,37745.0,46508.0,89576.0,78851.0,36594.0,57927.0,40411.0,44383.0,23969.0,20658.0
2026-05-06 16:25:19.582593,806594,1609506982937068,4582849162,0.708576,-0.601216,-0.083936,-15.5925,5.27625,-11.19125,-31.568,-25.936,-79.728004,eccentric,7,5.0,37745.0,46508.0,89576.0,78851.0,36594.0,57927.0,40411.0,44383.0,23969.0,20658.0
2026-05-06 16:25:19.585670,806595,1609506982945975,4582857872,1.050176,-0.343552,0.21472,-10.77125,3.465,-3.35125,-31.464,-25.528002,-78.776,eccentric,7,5.0,37745.0,46508.0,89576.0,78851.0,36594.0,57927.0,40411.0,44383.0,23969.0,20658.0
