pc_time,serial_num,sensor_ts,host_ts,ax,ay,az,gx,gy,gz,mx,my,mz,phase,rpe,weight_kg,ppg_a,ppg_b,ppg_c,ppg_d,ppg_e,ppg_f,ppg_g,ppg_h,ppg_i,ppg_j
2026-05-06 16:05:03.947307,577861,1609505767396154,3367307689,-1.075552,0.03904,-0.03904,17.3075,6.7025,-5.3025,37.632,-42.120003,-52.248,inter_set_rest,4,5.0,15967.0,21575.0,67072.0,76938.0,16475.0,30606.0,28471.0,44380.0,12117.0,8905.0
2026-05-06 16:05:03.949982,577862,1609505767410721,3367322659,-1.067744,0.044896,-0.062464,15.89,6.965,-5.55625,37.832,-41.816,-52.136,inter_set_rest,4,5.0,15967.0,21575.0,67072.0,76938.0,16475.0,30606.0,28471.0,44380.0,12117.0,8905.0
2026-05-06 16:05:03.952296,577863,1609505767419781,3367331443,-1.065792,0.031232,-0.070272,15.09375,7.175,-5.74,38.184002,-43.696003,-52.096,inter_set_rest,4,5.0,15967.0,21575.0,67072.0,76938.0,16475.0,30606.0,28471.0,44380.0,12117.0,8905.0
2026-05-06 16:05:03.968881,577864,1609505767434461,3367346430,-1.065792,0.031232,-0.070272,13.02,7.35,-6.97375,38.184002,-43.696003,-52.096,inter_set_rest,4,5.0,15967.0,21575.0,67072.0,76938.0,16475.0,30606.0,28471.0,44380.0,12117.0,8905.0
2026-05-06 16:05:03.976207,577865,1609505767443383,3367355146,-1.079456,0.056608,-0.023424,12.39,6.95625,-8.75,38.440002,-42.056004,-52.776,inter_set_rest,4,5.0,15967.0,21575.0,67072.0,76938.0,16475.0,30606.0,28471.0,44380.0,12117.0,8905.0
2026-05-06 16:05:03.987420,577866,1609505767452387,3367363886,-1.079456,0.056608,-0.023424,12.60875,5.8625,-9.6425,38.440002,-42.056004,-52.776,inter_set_rest,4,5.0,15967.0,21575.0,67072.0,76938.0,16475.0,30606.0,28471.0,44380.0,12117.0,8905.0
2026-05-06 16:05:04.020448,577877,1609505767467462,3367379043,-1.077504,0.046848,-0.00976,10.29875,5.39875,-9.7825,38.480003,-41.848003,-52.824,inter_set_rest,4,5.0,15968.0,21618.0,67068.0,76824.0,16483.0,30626.0,28468.0,44333.0,12136.0,8938.0
2026-05-06 16:05:04.026052,577878,1609505767476457,3367387802,-1.077504,0.046848,-0.00976,7.04375,5.4075,-9.16125,38.480003,-41.848003,-52.824,inter_set_rest,4,5.0,15968.0,21618.0,67068.0,76824.0,16483.0,30626.0,28468.0,44333.0,12136.0,8938.0
2026-05-06 16:05:04.028778,577879,1609505767491086,3367402781,-1.10288,-0.001952,-0.0488,4.55875,5.11,-10.29875,39.032,-42.072002,-52.936,inter_set_rest,4,5.0,15968.0,21618.0,67068.0,76824.0,16483.0,30626.0,28468.0,44333.0,12136.0,8938.0
2026-05-06 16:05:04.031262,577880,1609505767500018,3367411591,-1.097024,0.027328,-0.03904,3.31625,4.68125,-10.94625,38.624,-44.104004,-49.600002,inter_set_rest,4,5.0,15968.0,21618.0,67068.0,76824.0,16483.0,30626.0,28468.0,44333.0,12136.0,8938.0
2026-05-06 16:05:04.045137,577881,1609505767509131,3367420323,-1.097024,0.027328,-0.03904,3.57875,4.865,-9.38875,38.624,-44.104004,-49.600002,inter_set_rest,4,5.0,15968.0,21618.0,67068.0,76824.0,16483.0,30626.0,28468.0,44333.0,12136.0,8938.0
2026-05-06 16:05:04.058802,577882,1609505767524117,3367435246,-1.120448,0.076128,-0.044896,6.01125,4.83875,-8.61875,38.84,-41.352,-53.112003,inter_set_rest,4,5.0,15968.0,21618.0,67068.0,76824.0,16483.0,30626.0,28468.0,44333.0,12136.0,8938.0
2026-05-06 16:05:04.067632,577883,1609505767533429,3367446061,-1.120448,0.076128,-0.044896,5.1625,4.38375,-10.386251,38.84,-41.352,-53.112003,inter_set_rest,4,5.0,15968.0,21618.0,67068.0,76824.0,16483.0,30626.0,28468.0,44333.0,12136.0,8938.0
2026-05-06 16:05:04.081418,577884,1609505767548056,3367458955,-1.110688,0.046848,-0.060512,1.14625,4.095,-11.9,39.216003,-42.048,-52.840004,inter_set_rest,4,5.0,15968.0,21618.0,67068.0,76824.0,16483.0,30626.0,28468.0,44333.0,12136.0,8938.0
2026-05-06 16:05:04.093965,577885,1609505767557401,3367469717,-1.110688,0.046848,-0.060512,-2.52,3.1675,-11.9875,39.216003,-42.048,-52.840004,inter_set_rest,4,5.0,15968.0,21618.0,67068.0,76824.0,16483.0,30626.0,28468.0,44333.0,12136.0,8938.0
2026-05-06 16:05:04.186293,577896,1609505767566436,3367478504,-1.085312,-0.011712,-0.054656,-3.63125,2.73875,-10.7975,39.048,-41.312,-53.000004,inter_set_rest,4,5.0,16045.0,21664.0,67061.0,76883.0,16543.0,30715.0,28477.0,44361.0,12176.0,8951.0
2026-05-06 16:05:04.188876,577897,1609505767581031,3367493541,-1.079456,0.035136,-0.011712,-5.3025,2.09125,-9.58125,39.296,-42.616,-51.136,inter_set_rest,4,5.0,16045.0,21664.0,67061.0,76883.0,16543.0,30715.0,28477.0,44361.0,12176.0,8951.0
2026-05-06 16:05:04.195212,577898,1609505767589963,3367502293,-1.079456,0.035136,-0.011712,-4.47125,1.5925,-8.35625,39.296,-42.616,-51.136,inter_set_rest,4,5.0,16045.0,21664.0,67061.0,76883.0,16543.0,30715.0,28477.0,44361.0,12176.0,8951.0
2026-05-06 16:05:04.197638,577899,1609505767604467,3367515263,-1.097024,0.054656,-0.066368,-4.24375,0.805,-7.7,38.952003,-40.952003,-52.904003,inter_set_rest,4,5.0,16045.0,21664.0,67061.0,76883.0,16543.0,30715.0,28477.0,44361.0,12176.0,8951.0
2026-05-06 16:05:04.200232,577900,1609505767613709,3367526008,-1.097024,0.054656,-0.066368,-7.1575,1.2075,-8.435,38.952003,-40.952003,-52.904003,inter_set_rest,4,5.0,16045.0,21664.0,67061.0,76883.0,16543.0,30715.0,28477.0,44361.0,12176.0,8951.0
2026-05-06 16:05:04.202616,577901,1609505767624680,3367535923,-1.108736,0.01952,-0.080032,-9.10875,1.26,-8.65375,39.496002,-41.472,-53.2,inter_set_rest,4,5.0,16045.0,21664.0,67061.0,76883.0,16543.0,30715.0,28477.0,44361.0,12176.0,8951.0
2026-05-06 16:05:04.208790,577902,1609505767634116,3367544912,-1.108736,0.01952,-0.080032,-8.715,0.74375,-10.33375,39.496002,-41.472,-53.2,inter_set_rest,4,5.0,16045.0,21664.0,67061.0,76883.0,16543.0,30715.0,28477.0,44361.0,12176.0,8951.0
2026-05-06 16:05:04.209070,577903,1609505767648920,3367559848,-1.097024,0.0,-0.062464,-5.4775,-0.00875,-10.35125,39.552002,-40.808002,-53.008003,inter_set_rest,4,5.0,16045.0,21664.0,67061.0,76883.0,16543.0,30715.0,28477.0,44361.0,12176.0,8951.0
2026-05-06 16:05:04.209947,577904,1609505767658360,3367570713,-1.097024,0.0,-0.062464,-1.14625,-0.7175,-8.91625,39.552002,-40.808002,-53.008003,inter_set_rest,4,5.0,16045.0,21664.0,67061.0,76883.0,16543.0,30715.0,28477.0,44361.0,12176.0,8951.0
2026-05-06 16:05:04.237558,577915,1609505767673048,3367585680,-1.065792,0.035136,-0.033184,2.3275,-0.6825,-7.245,39.664,-41.032,-53.312004,inter_set_rest,4,5.0,16099.0,21713.0,67057.0,77068.0,16601.0,30778.0,28477.0,44445.0,12207.0,8960.0
2026-05-06 16:05:04.240221,577916,1609505767682096,3367594441,-1.100928,0.06832,-0.03904,1.75875,0.0,-6.50125,39.368,-43.856003,-50.624,inter_set_rest,4,5.0,16099.0,21713.0,67057.0,77068.0,16601.0,30778.0,28477.0,44445.0,12207.0,8960.0
2026-05-06 16:05:04.242618,577917,1609505767691063,3367603321,-1.100928,0.06832,-0.03904,-2.1875,1.4,-7.06125,39.368,-43.856003,-50.624,inter_set_rest,4,5.0,16099.0,21713.0,67057.0,77068.0,16601.0,30778.0,28477.0,44445.0,12207.0,8960.0
2026-05-06 16:05:04.245168,577918,1609505767705616,3367618307,-1.10288,0.021472,-0.08784,-5.92375,2.0475,-8.51375,39.664,-43.832,-50.520004,inter_set_rest,4,5.0,16099.0,21713.0,67057.0,77068.0,16601.0,30778.0,28477.0,44445.0,12207.0,8960.0
2026-05-06 16:05:04.247620,577919,1609505767714542,3367627096,-1.10288,0.021472,-0.08784,-9.8875,2.47625,-8.58375,39.664,-43.832,-50.520004,inter_set_rest,4,5.0,16099.0,21713.0,67057.0,77068.0,16601.0,30778.0,28477.0,44445.0,12207.0,8960.0
2026-05-06 16:05:04.268826,577920,1609505767729352,3367642058,-1.065792,-0.007808,-0.042944,-9.37125,2.345,-8.05,39.912003,-42.544003,-51.544003,inter_set_rest,4,5.0,16099.0,21713.0,67057.0,77068.0,16601.0,30778.0,28477.0,44445.0,12207.0,8960.0
2026-05-06 16:05:04.271274,577921,1609505767738321,3367650777,-1.065792,-0.007808,-0.042944,-5.32,1.44375,-7.0875,39.912003,-42.544003,-51.544003,inter_set_rest,4,5.0,16099.0,21713.0,67057.0,77068.0,16601.0,30778.0,28477.0,44445.0,12207.0,8960.0
2026-05-06 16:05:04.280306,577922,1609505767747271,3367659519,-1.0736,-0.001952,-0.081984,-1.365,1.2775,-5.25,39.504,-40.848003,-55.256004,inter_set_rest,4,5.0,16099.0,21713.0,67057.0,77068.0,16601.0,30778.0,28477.0,44445.0,12207.0,8960.0
2026-05-06 16:05:04.303974,577923,1609505767761748,3367674443,-1.03456,0.035136,-0.013664,0.5075,1.3825,-3.84125,39.504,-41.992,-52.072002,inter_set_rest,4,5.0,16099.0,21713.0,67057.0,77068.0,16601.0,30778.0,28477.0,44445.0,12207.0,8960.0
2026-05-06 16:05:04.331126,577934,1609505767770787,3367683410,-1.03456,0.035136,-0.013664,0.46375,1.44375,-2.87,39.504,-41.992,-52.072002,inter_set_rest,4,5.0,16164.0,21786.0,67102.0,77130.0,16652.0,30851.0,28493.0,44491.0,12232.0,9015.0
2026-05-06 16:05:04.333825,577935,1609505767785555,3367696346,-1.057984,0.044896,-0.07808,-0.09625,1.75875,-2.82625,40.0,-42.216003,-51.376003,inter_set_rest,4,5.0,16164.0,21786.0,67102.0,77130.0,16652.0,30851.0,28493.0,44491.0,12232.0,9015.0
2026-05-06 16:05:04.336276,577936,1609505767794944,3367707217,-1.057984,0.044896,-0.07808,-0.3675,1.715,-4.40125,40.0,-42.216003,-51.376003,inter_set_rest,4,5.0,16164.0,21786.0,67102.0,77130.0,16652.0,30851.0,28493.0,44491.0,12232.0,9015.0
2026-05-06 16:05:04.338876,577937,1609505767803995,3367716058,-1.081408,0.025376,-0.0976,-0.56,1.56625,-6.06375,39.744003,-43.112003,-51.728,inter_set_rest,4,5.0,16164.0,21786.0,67102.0,77130.0,16652.0,30851.0,28493.0,44491.0,12232.0,9015.0
2026-05-06 16:05:04.352671,577938,1609505767818527,3367731011,-1.081408,0.025376,-0.0976,1.96875,1.995,-7.3675,39.744003,-43.112003,-51.728,inter_set_rest,4,5.0,16164.0,21786.0,67102.0,77130.0,16652.0,30851.0,28493.0,44491.0,12232.0,9015.0
2026-05-06 16:05:04.361389,577939,1609505767827560,3367739770,-1.059936,-0.023424,-0.050752,4.2175,1.47,-7.25375,39.816,-40.896004,-53.160004,inter_set_rest,4,5.0,16164.0,21786.0,67102.0,77130.0,16652.0,30851.0,28493.0,44491.0,12232.0,9015.0
2026-05-06 16:05:04.375213,577940,1609505767842087,3367754739,-1.036512,-0.005856,-0.052704,5.7225,0.86625,-3.89375,39.904003,-40.864002,-55.776,inter_set_rest,4,5.0,16164.0,21786.0,67102.0,77130.0,16652.0,30851.0,28493.0,44491.0,12232.0,9015.0
2026-05-06 16:05:04.406566,577941,1609505767850994,3367763497,-1.036512,-0.005856,-0.052704,7.72625,1.40875,-0.4025,39.904003,-40.864002,-55.776,inter_set_rest,4,5.0,16164.0,21786.0,67102.0,77130.0,16652.0,30851.0,28493.0,44491.0,12232.0,9015.0
2026-05-06 16:05:04.410099,577942,1609505767859975,3367772222,-1.036512,-0.005856,-0.052704,7.32375,2.07375,0.0525,39.904003,-40.864002,-55.776,inter_set_rest,4,5.0,16164.0,21786.0,67102.0,77130.0,16652.0,30851.0,28493.0,44491.0,12232.0,9015.0
2026-05-06 16:05:04.437489,577953,1609505767874567,3367787370,-1.061888,0.0488,-0.052704,7.00875,3.0275,-0.65625,40.288002,-40.672,-53.376003,inter_set_rest,4,5.0,16227.0,21793.0,67184.0,77011.0,16673.0,30862.0,28544.0,44408.0,12268.0,9037.0
2026-05-06 16:05:04.440206,577954,1609505767883498,3367796176,-1.06384,0.072224,-0.080032,4.6725,3.78875,-1.4175,40.320004,-41.184002,-52.832,inter_set_rest,4,5.0,16227.0,21793.0,67184.0,77011.0,16673.0,30862.0,28544.0,44408.0,12268.0,9037.0
2026-05-06 16:05:04.442608,577955,1609505767898655,3367811159,-1.06384,0.072224,-0.080032,2.73875,3.3775,-2.33625,40.320004,-41.184002,-52.832,inter_set_rest,4,5.0,16227.0,21793.0,67184.0,77011.0,16673.0,30862.0,28544.0,44408.0,12268.0,9037.0
2026-05-06 16:05:04.445189,577956,1609505767907757,3367820317,-1.057984,0.017568,-0.07808,2.30125,2.70375,-3.40375,40.352,-42.512,-52.968002,inter_set_rest,4,5.0,16227.0,21793.0,67184.0,77011.0,16673.0,30862.0,28544.0,44408.0,12268.0,9037.0
2026-05-06 16:05:04.451334,577957,1609505767916701,3367829022,-1.057984,0.017568,-0.07808,1.56625,2.33625,-4.48875,40.352,-42.512,-52.968002,inter_set_rest,4,5.0,16227.0,21793.0,67184.0,77011.0,16673.0,30862.0,28544.0,44408.0,12268.0,9037.0
2026-05-06 16:05:04.465287,577958,1609505767931299,3367843944,-1.032608,-0.00976,-0.062464,3.4825,2.2225,-3.3425,40.616,-42.312,-52.216003,inter_set_rest,4,5.0,16227.0,21793.0,67184.0,77011.0,16673.0,30862.0,28544.0,44408.0,12268.0,9037.0
2026-05-06 16:05:04.473890,577959,1609505767940240,3367852702,-1.032608,-0.00976,-0.062464,5.1975,2.16125,-2.135,40.616,-42.312,-52.216003,inter_set_rest,4,5.0,16227.0,21793.0,67184.0,77011.0,16673.0,30862.0,28544.0,44408.0,12268.0,9037.0
2026-05-06 16:05:04.506175,577960,1609505767954723,3367865739,-1.01504,0.015616,-0.076128,6.16,2.0475,-1.4,40.280003,-42.416,-53.288002,inter_set_rest,4,5.0,16227.0,21793.0,67184.0,77011.0,16673.0,30862.0,28544.0,44408.0,12268.0,9037.0
2026-05-06 16:05:04.531325,577961,1609505767963909,3367876516,-1.030656,0.064416,-0.025376,4.47125,2.765,-1.6275,40.328003,-41.256,-53.672,inter_set_rest,4,5.0,16227.0,21793.0,67184.0,77011.0,16673.0,30862.0,28544.0,44408.0,12268.0,9037.0
2026-05-06 16:05:04.599362,577972,1609505767978507,3367889424,-1.030656,0.064416,-0.025376,3.52625,2.65125,-2.42375,40.328003,-41.256,-53.672,inter_set_rest,4,5.0,16322.0,21871.0,67250.0,76965.0,16740.0,30913.0,28565.0,44391.0,12310.0,9061.0
2026-05-06 16:05:04.602201,577973,1609505767987865,3367900222,-1.036512,0.011712,-0.103456,1.37375,2.09125,-3.94625,40.480003,-40.816,-53.624004,inter_set_rest,4,5.0,16322.0,21871.0,67250.0,76965.0,16740.0,30913.0,28565.0,44391.0,12310.0,9061.0
2026-05-06 16:05:04.603493,577974,1609505767996804,3367908925,-1.036512,0.011712,-0.103456,-1.6275,1.23375,-4.0425,40.480003,-40.816,-53.624004,inter_set_rest,4,5.0,16322.0,21871.0,67250.0,76965.0,16740.0,30913.0,28565.0,44391.0,12310.0,9061.0
2026-05-06 16:05:04.606350,577975,1609505768011327,3367923838,-1.020896,-0.011712,-0.064416,-0.74375,0.35875,-3.45625,40.424004,-41.536003,-53.224003,inter_set_rest,4,5.0,16322.0,21871.0,67250.0,76965.0,16740.0,30913.0,28565.0,44391.0,12310.0,9061.0
2026-05-06 16:05:04.608826,577976,1609505768020300,3367932537,-1.020896,-0.011712,-0.064416,4.445,-0.28,-2.00375,40.424004,-41.536003,-53.224003,inter_set_rest,4,5.0,16322.0,21871.0,67250.0,76965.0,16740.0,30913.0,28565.0,44391.0,12310.0,9061.0
2026-05-06 16:05:04.611286,577977,1609505768034873,3367947536,-0.981856,0.003904,0.007808,9.625,-1.07625,-0.53375,40.624,-40.992,-52.344,inter_set_rest,4,5.0,16322.0,21871.0,67250.0,76965.0,16740.0,30913.0,28565.0,44391.0,12310.0,9061.0
2026-05-06 16:05:04.616343,577978,1609505768043795,3367956272,-0.970144,0.050752,-0.027328,12.495,-0.62125,0.83125,40.384003,-41.584003,-53.952003,inter_set_rest,4,5.0,16322.0,21871.0,67250.0,76965.0,16740.0,30913.0,28565.0,44391.0,12310.0,9061.0
2026-05-06 16:05:04.618910,577979,1609505768052797,3367964977,-0.970144,0.050752,-0.027328,11.99625,-0.1575,1.7675,40.384003,-41.584003,-53.952003,inter_set_rest,4,5.0,16322.0,21871.0,67250.0,76965.0,16740.0,30913.0,28565.0,44391.0,12310.0,9061.0
2026-05-06 16:05:04.648542,577991,1609505768067341,3367980090,-0.942816,0.081984,-0.011712,5.74875,0.95375,1.3475,40.448,-41.816,-53.760002,inter_set_rest,4,5.0,16436.0,21963.0,67259.0,77017.0,16844.0,30997.0,28598.0,44404.0,12404.0,9096.0
2026-05-06 16:05:04.651108,577992,1609505768076948,3367988854,-0.942816,0.081984,-0.011712,-3.91125,1.4525,-0.2275,40.448,-41.816,-53.760002,inter_set_rest,4,5.0,16436.0,21963.0,67259.0,77017.0,16844.0,30997.0,28598.0,44404.0,12404.0,9096.0
2026-05-06 16:05:04.653600,577993,1609505768091559,3368003868,-0.983808,0.042944,-0.081984,-7.14,0.41125,-3.24625,40.640003,-41.832,-52.624004,inter_set_rest,4,5.0,16436.0,21963.0,67259.0,77017.0,16844.0,30997.0,28598.0,44404.0,12404.0,9096.0
2026-05-06 16:05:04.656082,577994,1609505768100585,3368012646,-0.983808,0.042944,-0.081984,-3.9375,0.8925,-6.0025,40.640003,-41.832,-52.624004,inter_set_rest,4,5.0,16436.0,21963.0,67259.0,77017.0,16844.0,30997.0,28598.0,44404.0,12404.0,9096.0
2026-05-06 16:05:04.658574,577995,1609505768109621,3368021431,-1.013088,-0.033184,-0.091744,-0.315,0.27125,-8.26875,40.616,-43.032,-52.424004,inter_set_rest,4,5.0,16436.0,21963.0,67259.0,77017.0,16844.0,30997.0,28598.0,44404.0,12404.0,9096.0
2026-05-06 16:05:04.661080,577996,1609505768124113,3368036512,-0.954528,-0.001952,-0.031232,3.91125,0.46375,-8.60125,40.88,-43.2,-51.960003,inter_set_rest,4,5.0,16436.0,21963.0,67259.0,77017.0,16844.0,30997.0,28598.0,44404.0,12404.0,9096.0
2026-05-06 16:05:04.667384,577997,1609505768133401,3368045275,-0.954528,-0.001952,-0.031232,11.47125,-0.5425,-6.5625,40.88,-43.2,-51.960003,inter_set_rest,4,5.0,16436.0,21963.0,67259.0,77017.0,16844.0,30997.0,28598.0,44404.0,12404.0,9096.0
2026-05-06 16:05:04.701345,577998,1609505768147930,3368060280,-0.940864,0.081984,-0.046848,14.315001,-1.225,-5.4075,40.824,-41.280003,-53.688004,inter_set_rest,4,5.0,16436.0,21963.0,67259.0,77017.0,16844.0,30997.0,28598.0,44404.0,12404.0,9096.0
2026-05-06 16:05:04.703535,577999,1609505768156813,3368068985,-0.940864,0.081984,-0.046848,9.87875,-0.6825,-4.2875,40.824,-41.280003,-53.688004,inter_set_rest,4,5.0,16436.0,21963.0,67259.0,77017.0,16844.0,30997.0,28598.0,44404.0,12404.0,9096.0
2026-05-06 16:05:04.706066,578000,1609505768165743,3368077714,-0.954528,0.021472,-0.054656,-1.16375,0.60375,-4.795,41.24,-41.440002,-53.352,inter_set_rest,4,5.0,16436.0,21963.0,67259.0,77017.0,16844.0,30997.0,28598.0,44404.0,12404.0,9096.0
2026-05-06 16:05:04.736296,578011,1609505768180432,3368092749,-0.954528,0.021472,-0.054656,-12.99375,1.015,-6.64125,41.24,-41.440002,-53.352,inter_set_rest,4,5.0,16699.0,22194.0,67408.0,77371.0,17074.0,31208.0,28669.0,44627.0,12553.0,9202.0
2026-05-06 16:05:04.738686,578012,1609505768189408,3368101507,-1.01504,-0.113216,-0.150304,-16.73,1.44375,-7.6825,41.344,-44.768,-51.136,inter_set_rest,4,5.0,16699.0,22194.0,67408.0,77371.0,17074.0,31208.0,28669.0,44627.0,12553.0,9202.0
2026-05-06 16:05:04.741289,578013,1609505768203946,3368116579,-1.01504,-0.062464,-0.07808,-12.3025,0.525,-7.1575,41.344,-44.768,-53.184002,inter_set_rest,4,5.0,16699.0,22194.0,67408.0,77371.0,17074.0,31208.0,28669.0,44627.0,12553.0,9202.0
2026-05-06 16:05:04.747663,578014,1609505768212898,3368125277,-1.001376,-0.062464,-0.07808,-0.56875,-2.1525,-3.68375,41.088,-44.504,-51.352,inter_set_rest,4,5.0,16699.0,22194.0,67408.0,77371.0,17074.0,31208.0,28669.0,44627.0,12553.0,9202.0
2026-05-06 16:05:04.760983,578015,1609505768227441,3368138254,-0.940864,0.072224,-0.040992,13.7375,-4.73375,0.9275,41.216003,-41.216003,-53.336002,inter_set_rest,4,5.0,16699.0,22194.0,67408.0,77371.0,17074.0,31208.0,28669.0,44627.0,12553.0,9202.0
2026-05-06 16:05:04.769748,578016,1609505768236661,3368149030,-0.940864,0.072224,-0.040992,20.265,-5.915,3.2375,41.216003,-41.216003,-53.336002,inter_set_rest,4,5.0,16699.0,22194.0,67408.0,77371.0,17074.0,31208.0,28669.0,44627.0,12553.0,9202.0
2026-05-06 16:05:04.779654,578017,1609505768245918,3368157827,-0.95648,0.064416,-0.105408,16.0825,-4.41,2.89625,41.816,-41.800003,-52.752003,inter_set_rest,4,5.0,16699.0,22194.0,67408.0,77371.0,17074.0,31208.0,28669.0,44627.0,12553.0,9202.0
2026-05-06 16:05:04.812500,578018,1609505768260504,3368172876,-0.95648,0.064416,-0.105408,2.37125,-1.39125,-1.54875,41.816,-41.800003,-52.752003,inter_set_rest,4,5.0,16699.0,22194.0,67408.0,77371.0,17074.0,31208.0,28669.0,44627.0,12553.0,9202.0
2026-05-06 16:05:04.843766,578029,1609505768269465,3368182172,-0.968192,0.02928,-0.06832,-15.68,0.53375,-6.93875,41.808002,-41.904003,-52.976,inter_set_rest,4,5.0,16988.0,22451.0,67629.0,77572.0,17289.0,31463.0,28780.0,44777.0,12693.0,9309.0
2026-05-06 16:05:04.846000,578030,1609505768284051,3368195136,-0.968192,0.02928,-0.052704,-22.9075,0.3675,-9.91375,41.808002,-41.904003,-52.976,inter_set_rest,4,5.0,16988.0,22451.0,67629.0,77572.0,17289.0,31463.0,28780.0,44777.0,12693.0,9309.0
2026-05-06 16:05:04.872087,578031,1609505768293326,3368205953,-0.989664,-0.01952,-0.05856,-19.705,-0.44625,-11.2175,42.088,-41.416,-54.544003,inter_set_rest,4,5.0,16988.0,22451.0,67629.0,77572.0,17289.0,31463.0,28780.0,44777.0,12693.0,9309.0
2026-05-06 16:05:04.896274,578032,1609505768302266,3368214714,-0.989664,-0.01952,-0.05856,-14.0525,-3.01875,-11.82125,42.088,-41.416,-54.544003,inter_set_rest,4,5.0,16988.0,22451.0,67629.0,77572.0,17289.0,31463.0,28780.0,44777.0,12693.0,9309.0
2026-05-06 16:05:04.901268,578033,1609505768316839,3368227670,-0.974048,-0.01952,-0.05856,-10.2375,-4.34875,-10.115,42.176003,-42.736004,-52.504,inter_set_rest,4,5.0,16988.0,22451.0,67629.0,77572.0,17289.0,31463.0,28780.0,44777.0,12693.0,9309.0
2026-05-06 16:05:04.903577,578034,1609505768326090,3368238428,-0.981856,-0.046848,-0.064416,-5.92375,-4.85625,-8.015,42.568,-41.624,-51.632004,inter_set_rest,4,5.0,16988.0,22451.0,67629.0,77572.0,17289.0,31463.0,28780.0,44777.0,12693.0,9309.0
2026-05-06 16:05:04.906312,578035,1609505768340635,3368253377,-0.981856,-0.046848,-0.064416,-5.74,-4.05125,-8.19,42.568,-41.624,-51.632004,inter_set_rest,4,5.0,16988.0,22451.0,67629.0,77572.0,17289.0,31463.0,28780.0,44777.0,12693.0,9309.0
2026-05-06 16:05:04.908796,578036,1609505768349601,3368262107,-1.032608,-0.021472,-0.150304,-11.45375,-3.43875,-10.63125,43.232002,-42.032,-51.800003,inter_set_rest,4,5.0,16988.0,22451.0,67629.0,77572.0,17289.0,31463.0,28780.0,44777.0,12693.0,9309.0
2026-05-06 16:05:04.911356,578037,1609505768358531,3368270808,-1.032608,-0.021472,-0.150304,-10.98125,-3.43,-11.76875,43.232002,-42.032,-51.800003,inter_set_rest,4,5.0,16988.0,22451.0,67629.0,77572.0,17289.0,31463.0,28780.0,44777.0,12693.0,9309.0
2026-05-06 16:05:04.941449,578048,1609505768373518,3368285764,-1.001376,-0.033184,-0.13664,-11.36625,-4.78625,-10.745,43.384003,-41.152,-51.696003,inter_set_rest,4,5.0,17068.0,22505.0,67781.0,77298.0,17357.0,31516.0,28838.0,44691.0,12737.0,9349.0
2026-05-06 16:05:04.943929,578049,1609505768382533,3368294543,-1.001376,-0.033184,-0.13664,-16.72125,-5.78375,-10.10625,43.384003,-41.152,-51.696003,inter_set_rest,4,5.0,17068.0,22505.0,67781.0,77298.0,17357.0,31516.0,28838.0,44691.0,12737.0,9349.0
2026-05-06 16:05:04.946384,578050,1609505768397029,3368309514,-1.065792,-0.037088,-0.070272,-15.61,-6.3,-10.167501,43.744003,-41.528004,-51.056004,inter_set_rest,4,5.0,17068.0,22505.0,67781.0,77298.0,17357.0,31516.0,28838.0,44691.0,12737.0,9349.0
2026-05-06 16:05:04.948933,578051,1609505768406022,3368318257,-1.130208,-0.066368,-0.00976,-9.58125,-6.44,-9.31,43.752003,-41.584003,-51.2,inter_set_rest,4,5.0,17068.0,22505.0,67781.0,77298.0,17357.0,31516.0,28838.0,44691.0,12737.0,9349.0
2026-05-06 16:05:04.951407,578052,1609505768414962,3368326976,-1.130208,-0.066368,-0.00976,-4.48,-6.23,-7.2975,43.752003,-41.584003,-51.2,inter_set_rest,4,5.0,17068.0,22505.0,67781.0,77298.0,17357.0,31516.0,28838.0,44691.0,12737.0,9349.0
2026-05-06 16:05:04.966137,578053,1609505768429530,3368341987,-1.085312,0.01952,-0.070272,2.4325,-5.71375,-5.01375,43.68,-42.904003,-49.488003,inter_set_rest,4,5.0,17068.0,22505.0,67781.0,77298.0,17357.0,31516.0,28838.0,44691.0,12737.0,9349.0
2026-05-06 16:05:04.971091,578054,1609505768438509,3368350715,-1.085312,0.01952,-0.070272,6.57125,-4.06,-4.99625,43.68,-42.904003,-49.488003,inter_set_rest,4,5.0,17068.0,22505.0,67781.0,77298.0,17357.0,31516.0,28838.0,44691.0,12737.0,9349.0
2026-05-06 16:05:05.005184,578055,1609505768453036,3368365618,-1.163392,0.109312,-0.162016,3.29,-1.8025,-8.085,44.248,-43.440002,-49.496002,inter_set_rest,4,5.0,17068.0,22505.0,67781.0,77298.0,17357.0,31516.0,28838.0,44691.0,12737.0,9349.0
2026-05-06 16:05:05.007588,578056,1609505768461958,3368374347,-1.163392,0.109312,-0.162016,-5.22375,-0.84875,-12.67,44.248,-43.440002,-49.496002,inter_set_rest,4,5.0,17068.0,22505.0,67781.0,77298.0,17357.0,31516.0,28838.0,44691.0,12737.0,9349.0
2026-05-06 16:05:05.066752,578067,1609505768476593,3368387524,-1.1712,-0.023424,-0.197152,-22.3475,-0.7525,-16.58125,44.584003,-41.216003,-49.984,inter_set_rest,4,5.0,17098.0,22472.0,67771.0,77031.0,17374.0,31479.0,28828.0,44542.0,12746.0,9317.0
2026-05-06 16:05:05.068993,578068,1609505768486195,3368398372,-1.10288,-0.160064,-0.132736,-35.69125,-1.49625,-16.45,44.584003,-41.216003,-49.832,inter_set_rest,4,5.0,17098.0,22472.0,67771.0,77031.0,17374.0,31479.0,28828.0,44542.0,12746.0,9317.0
2026-05-06 16:05:05.071120,578069,1609505768495378,3368407159,-1.10288,-0.160064,-0.132736,-37.56375,-3.2725,-13.877501,45.160004,-41.336002,-49.832,inter_set_rest,4,5.0,17098.0,22472.0,67771.0,77031.0,17374.0,31479.0,28828.0,44542.0,12746.0,9317.0
2026-05-06 16:05:05.073729,578070,1609505768509878,3368422072,-1.10288,-0.119072,-0.076128,-29.02375,-3.82375,-10.57,45.152,-41.288002,-49.048004,inter_set_rest,4,5.0,17098.0,22472.0,67771.0,77031.0,17374.0,31479.0,28828.0,44542.0,12746.0,9317.0
2026-05-06 16:05:05.076269,578071,1609505768518820,3368430783,-1.10288,-0.119072,-0.076128,-14.455,-3.80625,-7.84875,45.152,-41.288002,-49.048004,inter_set_rest,4,5.0,17098.0,22472.0,67771.0,77031.0,17374.0,31479.0,28828.0,44542.0,12746.0,9317.0
2026-05-06 16:05:05.078731,578072,1609505768533400,3368445710,-1.177056,0.042944,-0.017568,0.2275,-4.4625,-6.20375,44.936,-44.480003,-45.816,inter_set_rest,4,5.0,17098.0,22472.0,67771.0,77031.0,17374.0,31479.0,28828.0,44542.0,12746.0,9317.0
2026-05-06 16:05:05.081211,578073,1609505768542405,3368454484,-1.177056,0.042944,-0.017568,7.97125,-4.1825,-5.67875,44.936,-44.480003,-45.816,inter_set_rest,4,5.0,17098.0,22472.0,67771.0,77031.0,17374.0,31479.0,28828.0,44542.0,12746.0,9317.0
2026-05-06 16:05:05.083709,578074,1609505768551372,3368463221,-1.235616,0.01952,-0.162016,3.01875,-3.325,-7.3675,45.936,-43.664,-47.432003,inter_set_rest,4,5.0,17098.0,22472.0,67771.0,77031.0,17374.0,31479.0,28828.0,44542.0,12746.0,9317.0
2026-05-06 16:05:05.117641,578075,1609505768565823,3368478265,-1.235616,0.01952,-0.162016,-9.8525,-2.52,-10.1325,45.936,-43.664,-47.432003,inter_set_rest,4,5.0,17098.0,22472.0,67771.0,77031.0,17374.0,31479.0,28828.0,44542.0,12746.0,9317.0
2026-05-06 16:05:05.147556,578086,1609505768575046,3368487075,-1.241472,-0.121024,-0.183488,-20.772501,-1.7325,-11.5325,46.384003,-41.160004,-47.784,inter_set_rest,4,5.0,16903.0,22128.0,67526.0,76499.0,17212.0,31150.0,28673.0,44296.0,12617.0,9176.0
2026-05-06 16:05:05.150150,578087,1609505768589603,3368501995,-1.18096,-0.095648,-0.056608,-23.205,-0.9275,-9.5375,46.264004,-41.08,-47.504,inter_set_rest,4,5.0,16903.0,22128.0,67526.0,76499.0,17212.0,31150.0,28673.0,44296.0,12617.0,9176.0
2026-05-06 16:05:05.152452,578088,1609505768598641,3368510775,-1.18096,-0.095648,-0.056608,-18.01625,-0.7875,-6.51875,46.264004,-41.08,-47.504,inter_set_rest,4,5.0,16903.0,22128.0,67526.0,76499.0,17212.0,31150.0,28673.0,44296.0,12617.0,9176.0
2026-05-06 16:05:05.156030,578089,1609505768607730,3368519570,-1.182912,0.050752,-0.00976,-7.1925,-0.21,-3.00125,46.280003,-42.808002,-47.512,inter_set_rest,4,5.0,16903.0,22128.0,67526.0,76499.0,17212.0,31150.0,28673.0,44296.0,12617.0,9176.0
2026-05-06 16:05:05.157355,578090,1609505768622276,3368534565,-1.182912,0.050752,-0.00976,-2.3275,0.72625,-3.85,46.280003,-42.808002,-47.512,inter_set_rest,4,5.0,16903.0,22128.0,67526.0,76499.0,17212.0,31150.0,28673.0,44296.0,12617.0,9176.0
2026-05-06 16:05:05.165004,578091,1609505768631243,3368543304,-1.227808,0.062464,-0.150304,-7.46375,1.81125,-7.42875,46.424004,-43.264004,-45.920002,inter_set_rest,4,5.0,16903.0,22128.0,67526.0,76499.0,17212.0,31150.0,28673.0,44296.0,12617.0,9176.0
2026-05-06 16:05:05.197631,578092,1609505768645734,3368558323,-1.227808,0.062464,-0.150304,-16.625,2.275,-10.57,46.424004,-43.264004,-45.920002,inter_set_rest,4,5.0,16903.0,22128.0,67526.0,76499.0,17212.0,31150.0,28673.0,44296.0,12617.0,9176.0
2026-05-06 16:05:05.200198,578093,1609505768654649,3368567044,-1.214144,-0.052704,-0.091744,-28.2975,1.96,-12.52125,46.912003,-40.72,-44.448,inter_set_rest,4,5.0,16903.0,22128.0,67526.0,76499.0,17212.0,31150.0,28673.0,44296.0,12617.0,9176.0
2026-05-06 16:05:05.202535,578094,1609505768669109,3368579889,-1.247328,-0.160064,-0.150304,-33.29375,2.0825,-12.985,47.216003,-40.824,-46.208004,inter_set_rest,4,5.0,16903.0,22128.0,67526.0,76499.0,17212.0,31150.0,28673.0,44296.0,12617.0,9176.0
2026-05-06 16:05:05.291120,578105,1609505768678501,3368590845,-1.247328,-0.160064,-0.150304,-31.56125,2.275,-12.69625,47.216003,-40.824,-46.208004,inter_set_rest,4,5.0,16802.0,21962.0,67335.0,76118.0,17074.0,30947.0,28563.0,44037.0,12536.0,9064.0
2026-05-06 16:05:05.293629,578106,1609505768687464,3368599669,-1.247328,-0.122976,-0.115168,-27.08125,1.575,-10.15875,47.216003,-40.824,-46.208004,inter_set_rest,4,5.0,16802.0,21962.0,67335.0,76118.0,17074.0,30947.0,28563.0,44037.0,12536.0,9064.0
2026-05-06 16:05:05.296191,578107,1609505768702033,3368614651,-1.196576,-0.122976,-0.115168,-19.73125,1.435,-5.3025,47.416,-44.392002,-43.768,inter_set_rest,4,5.0,16802.0,21962.0,67335.0,76118.0,17074.0,30947.0,28563.0,44037.0,12536.0,9064.0
2026-05-06 16:05:05.298558,578108,1609505768711127,3368623358,-1.167296,-0.02928,-0.021472,-10.3425,1.46125,-1.75875,47.352,-41.640003,-46.088,inter_set_rest,4,5.0,16802.0,21962.0,67335.0,76118.0,17074.0,30947.0,28563.0,44037.0,12536.0,9064.0
2026-05-06 16:05:05.301398,578109,1609505768725639,3368638419,-1.167296,-0.02928,-0.021472,-3.6225,2.0825,-0.175,47.352,-41.640003,-46.088,inter_set_rest,4,5.0,16802.0,21962.0,67335.0,76118.0,17074.0,30947.0,28563.0,44037.0,12536.0,9064.0
2026-05-06 16:05:05.303769,578110,1609505768734560,3368647123,-1.194624,0.02928,-0.021472,-4.43625,3.01,-1.365,48.120003,-40.856003,-45.856003,inter_set_rest,4,5.0,16802.0,21962.0,67335.0,76118.0,17074.0,30947.0,28563.0,44037.0,12536.0,9064.0
2026-05-06 16:05:05.306180,578111,1609505768743493,3368655815,-1.194624,0.02928,-0.021472,-8.68,3.99,-3.5875,48.120003,-40.856003,-45.856003,inter_set_rest,4,5.0,16802.0,21962.0,67335.0,76118.0,17074.0,30947.0,28563.0,44037.0,12536.0,9064.0
2026-05-06 16:05:05.308662,578112,1609505768757998,3368670725,-1.208288,0.017568,-0.121024,-14.74375,4.235,-5.8275,47.912003,-40.984,-45.576004,inter_set_rest,4,5.0,16802.0,21962.0,67335.0,76118.0,17074.0,30947.0,28563.0,44037.0,12536.0,9064.0
2026-05-06 16:05:05.311220,578113,1609505768767027,3368679508,-1.208288,0.017568,-0.121024,-19.15375,4.3225,-9.12625,47.912003,-40.984,-45.576004,inter_set_rest,4,5.0,16802.0,21962.0,67335.0,76118.0,17074.0,30947.0,28563.0,44037.0,12536.0,9064.0
2026-05-06 16:05:05.338907,578124,1609505768781780,3368694547,-1.216096,-0.046848,-0.105408,-20.4225,3.675,-12.64375,48.288002,-42.448,-45.504,inter_set_rest,4,5.0,16738.0,21944.0,67253.0,75968.0,17023.0,30937.0,28513.0,43884.0,12485.0,9068.0
2026-05-06 16:05:05.341341,578125,1609505768790803,3368703300,-1.196576,-0.07808,-0.050752,-15.5925,3.0975,-12.2325,48.504,-42.408,-44.056004,inter_set_rest,4,5.0,16738.0,21944.0,67253.0,75968.0,17023.0,30937.0,28513.0,43884.0,12485.0,9068.0
2026-05-06 16:05:05.343874,578126,1609505768799925,3368712057,-1.196576,-0.07808,-0.050752,-12.32,3.12375,-10.07125,48.504,-42.408,-44.056004,inter_set_rest,4,5.0,16738.0,21944.0,67253.0,75968.0,17023.0,30937.0,28513.0,43884.0,12485.0,9068.0
2026-05-06 16:05:05.348908,578127,1609505768814497,3368726990,-1.25904,-0.042944,-0.099552,-12.46875,3.815,-8.68875,49.016003,-41.712,-43.952003,inter_set_rest,4,5.0,16738.0,21944.0,67253.0,75968.0,17023.0,30937.0,28513.0,43884.0,12485.0,9068.0
2026-05-06 16:05:05.357567,578128,1609505768823440,3368735766,-1.25904,-0.042944,-0.099552,-16.2575,4.92625,-9.49375,49.016003,-41.712,-43.952003,inter_set_rest,4,5.0,16738.0,21944.0,67253.0,75968.0,17023.0,30937.0,28513.0,43884.0,12485.0,9068.0
2026-05-06 16:05:05.373803,578129,1609505768837934,3368750674,-1.301984,-0.0976,-0.177632,-20.755,4.83875,-9.4675,49.216003,-40.296,-44.88,inter_set_rest,4,5.0,16738.0,21944.0,67253.0,75968.0,17023.0,30937.0,28513.0,43884.0,12485.0,9068.0
2026-05-06 16:05:05.380066,578130,1609505768846842,3368759371,-1.301984,-0.0976,-0.177632,-22.1725,3.78875,-8.75875,49.216003,-40.296,-44.88,inter_set_rest,4,5.0,16738.0,21944.0,67253.0,75968.0,17023.0,30937.0,28513.0,43884.0,12485.0,9068.0
2026-05-06 16:05:05.401375,578131,1609505768861373,3368772232,-1.290272,-0.12688,-0.119072,-18.82125,1.8375,-7.65625,49.08,-43.640003,-43.016003,inter_set_rest,4,5.0,16738.0,21944.0,67253.0,75968.0,17023.0,30937.0,28513.0,43884.0,12485.0,9068.0
2026-05-06 16:05:05.428881,578142,1609505768870827,3368783558,-1.22976,-0.040992,0.080032,-6.23,0.32375,-3.70125,49.272003,-40.440002,-42.952003,inter_set_rest,4,5.0,16679.0,21924.0,67170.0,76033.0,17012.0,30886.0,28471.0,43920.0,12487.0,9042.0
2026-05-06 16:05:05.431259,578143,1609505768879811,3368792329,-1.22976,-0.040992,0.080032,6.09,-0.4025,-0.00875,49.272003,-40.440002,-42.952003,inter_set_rest,4,5.0,16679.0,21924.0,67170.0,76033.0,17012.0,30886.0,28471.0,43920.0,12487.0,9042.0
2026-05-06 16:05:05.433630,578144,1609505768894477,3368805275,-1.270752,0.056608,-0.044896,7.72625,0.67375,1.3475,48.944004,-42.992,-44.184002,inter_set_rest,4,5.0,16679.0,21924.0,67170.0,76033.0,17012.0,30886.0,28471.0,43920.0,12487.0,9042.0
2026-05-06 16:05:05.436192,578145,1609505768903735,3368816126,-1.270752,0.056608,-0.044896,1.93375,2.16125,0.55125,48.944004,-42.992,-44.184002,inter_set_rest,4,5.0,16679.0,21924.0,67170.0,76033.0,17012.0,30886.0,28471.0,43920.0,12487.0,9042.0
2026-05-06 16:05:05.450063,578146,1609505768918244,3368829154,-1.3176,-0.025376,-0.1464,-11.515,3.36,-2.19625,49.104004,-42.000004,-43.496002,inter_set_rest,4,5.0,16679.0,21924.0,67170.0,76033.0,17012.0,30886.0,28471.0,43920.0,12487.0,9042.0
2026-05-06 16:05:05.463782,578147,1609505768927586,3368839933,-1.3176,-0.025376,-0.1464,-26.11,4.5325,-6.13375,49.104004,-42.000004,-43.496002,inter_set_rest,4,5.0,16679.0,21924.0,67170.0,76033.0,17012.0,30886.0,28471.0,43920.0,12487.0,9042.0
2026-05-06 16:05:05.469852,578148,1609505768936521,3368848761,-1.311744,-0.171776,-0.119072,-33.04,3.77125,-6.97375,49.552002,-40.160004,-44.608,inter_set_rest,4,5.0,16679.0,21924.0,67170.0,76033.0,17012.0,30886.0,28471.0,43920.0,12487.0,9042.0
2026-05-06 16:05:05.485103,578149,1609505768951158,3368863662,-1.294176,-0.201056,-0.083936,-27.65,1.49625,-2.9575,49.144,-40.024002,-44.192,inter_set_rest,4,5.0,16679.0,21924.0,67170.0,76033.0,17012.0,30886.0,28471.0,43920.0,12487.0,9042.0
2026-05-06 16:05:05.492391,578150,1609505768960160,3368872447,-1.294176,-0.201056,-0.083936,-18.1825,0.25375,2.6775,49.144,-40.024002,-44.192,inter_set_rest,4,5.0,16679.0,21924.0,67170.0,76033.0,17012.0,30886.0,28471.0,43920.0,12487.0,9042.0
2026-05-06 16:05:05.531379,578161,1609505768975270,3368887456,-1.342976,-0.099552,-0.130784,-7.65625,-0.455,7.70875,48.992,-40.224003,-44.288002,inter_set_rest,4,5.0,16579.0,21829.0,67049.0,75950.0,16906.0,30819.0,28409.0,43854.0,12418.0,8987.0
2026-05-06 16:05:05.533898,578162,1609505768984284,3368896258,-1.342976,-0.099552,-0.130784,1.54,-0.2975,10.167501,48.992,-40.224003,-44.288002,inter_set_rest,4,5.0,16579.0,21829.0,67049.0,75950.0,16906.0,30819.0,28409.0,43854.0,12418.0,8987.0
2026-05-06 16:05:05.536317,578163,1609505768993214,3368905152,-1.331264,0.015616,-0.070272,3.05375,-0.595,11.40125,48.856003,-40.504,-44.368004,inter_set_rest,4,5.0,16579.0,21829.0,67049.0,75950.0,16906.0,30819.0,28409.0,43854.0,12418.0,8987.0
2026-05-06 16:05:05.543005,578164,1609505769007724,3368920108,-1.331264,0.015616,-0.070272,1.42625,-1.35625,12.5475,48.856003,-40.504,-44.368004,inter_set_rest,4,5.0,16579.0,21829.0,67049.0,75950.0,16906.0,30819.0,28409.0,43854.0,12418.0,8987.0
2026-05-06 16:05:05.549353,578165,1609505769016645,3368928897,-1.305888,-0.021472,-0.07808,-3.35125,-1.70625,11.13,48.384003,-40.84,-44.672,inter_set_rest,4,5.0,16579.0,21829.0,67049.0,75950.0,16906.0,30819.0,28409.0,43854.0,12418.0,8987.0
2026-05-06 16:05:05.566224,578166,1609505769031296,3368943934,-1.319552,-0.093696,-0.12688,-8.47875,-2.02125,9.0825,48.328003,-40.728,-46.000004,inter_set_rest,4,5.0,16579.0,21829.0,67049.0,75950.0,16906.0,30819.0,28409.0,43854.0,12418.0,8987.0
2026-05-06 16:05:05.574874,578167,1609505769040419,3368952657,-1.319552,-0.093696,-0.12688,-12.425,-1.855,8.61,48.328003,-40.728,-46.000004,inter_set_rest,4,5.0,16579.0,21829.0,67049.0,75950.0,16906.0,30819.0,28409.0,43854.0,12418.0,8987.0
2026-05-06 16:05:05.606414,578168,1609505769049380,3368961399,-1.319552,-0.093696,-0.12688,-14.096251,-1.995,8.6625,48.328003,-40.728,-46.000004,inter_set_rest,4,5.0,16579.0,21829.0,67049.0,75950.0,16906.0,30819.0,28409.0,43854.0,12418.0,8987.0
2026-05-06 16:05:05.631382,578169,1609505769063885,3368976327,-1.309792,-0.10736,-0.08784,-9.54625,-2.205,9.31,47.576004,-42.184002,-44.496002,inter_set_rest,4,5.0,16579.0,21829.0,67049.0,75950.0,16906.0,30819.0,28409.0,43854.0,12418.0,8987.0
2026-05-06 16:05:05.700230,578180,1609505769072778,3368985137,-1.282464,-0.064416,-0.089792,-6.43125,-2.40625,9.75625,47.496002,-40.656002,-44.552002,inter_set_rest,4,5.0,16387.0,21650.0,66993.0,75899.0,16746.0,30644.0,28383.0,43845.0,12307.0,8904.0
2026-05-06 16:05:05.702601,578181,1609505769087295,3369000055,-1.282464,-0.064416,-0.089792,-3.26375,-3.15,10.36875,47.496002,-40.656002,-44.552002,inter_set_rest,4,5.0,16387.0,21650.0,66993.0,75899.0,16746.0,30644.0,28383.0,43845.0,12307.0,8904.0
2026-05-06 16:05:05.705206,578182,1609505769096247,3369008783,-1.272704,-0.025376,-0.042944,-2.07375,-2.905,9.91375,47.056004,-41.088,-44.896004,inter_set_rest,4,5.0,16387.0,21650.0,66993.0,75899.0,16746.0,30644.0,28383.0,43845.0,12307.0,8904.0
2026-05-06 16:05:05.710228,578183,1609505769110911,3369021664,-1.270752,-0.046848,-0.091744,-4.13,-2.09125,10.43875,47.056004,-41.088,-43.744003,inter_set_rest,4,5.0,16387.0,21650.0,66993.0,75899.0,16746.0,30644.0,28383.0,43845.0,12307.0,8904.0
2026-05-06 16:05:05.712427,578184,1609505769120257,3369032490,-1.270752,-0.046848,-0.091744,-7.84,-1.7675,10.71875,46.648003,-41.072002,-43.744003,inter_set_rest,4,5.0,16387.0,21650.0,66993.0,75899.0,16746.0,30644.0,28383.0,43845.0,12307.0,8904.0
2026-05-06 16:05:05.714843,578185,1609505769129347,3369041184,-1.270752,-0.046848,-0.091744,-10.49125,-2.0125,11.31375,46.648003,-41.072002,-43.744003,inter_set_rest,4,5.0,16387.0,21650.0,66993.0,75899.0,16746.0,30644.0,28383.0,43845.0,12307.0,8904.0
2026-05-06 16:05:05.717353,578186,1609505769143855,3369056165,-1.2688,-0.0976,-0.15616,-10.535,-1.40875,11.34,46.248,-41.928,-46.328003,inter_set_rest,4,5.0,16387.0,21650.0,66993.0,75899.0,16746.0,30644.0,28383.0,43845.0,12307.0,8904.0
2026-05-06 16:05:05.720041,578187,1609505769152768,3369064855,-1.262944,-0.013664,-0.101504,-8.225,-1.0325,9.45,46.056004,-40.896004,-45.232002,inter_set_rest,4,5.0,16387.0,21650.0,66993.0,75899.0,16746.0,30644.0,28383.0,43845.0,12307.0,8904.0
2026-05-06 16:05:05.722398,578188,1609505769167357,3369079770,-1.262944,-0.013664,-0.101504,1.1025,-1.6975,8.88125,46.056004,-40.896004,-45.232002,inter_set_rest,4,5.0,16387.0,21650.0,66993.0,75899.0,16746.0,30644.0,28383.0,43845.0,12307.0,8904.0
2026-05-06 16:05:05.750095,578199,1609505769176868,3369088577,-1.25904,0.007808,-0.05856,11.76,-2.0125,8.30375,45.648003,-41.528004,-45.432003,inter_set_rest,4,5.0,16295.0,21630.0,66998.0,75835.0,16689.0,30612.0,28383.0,43791.0,12266.0,8910.0
2026-05-06 16:05:05.752445,578200,1609505769185959,3369097435,-1.25904,0.007808,-0.05856,7.9275,-1.8025,7.18375,45.648003,-41.528004,-45.432003,inter_set_rest,4,5.0,16295.0,21630.0,66998.0,75835.0,16689.0,30612.0,28383.0,43791.0,12266.0,8910.0
2026-05-06 16:05:05.755052,578201,1609505769200513,3369112417,-1.20048,-0.035136,-0.066368,0.55125,-1.6975,8.12,45.112003,-41.312,-45.824,inter_set_rest,4,5.0,16295.0,21630.0,66998.0,75835.0,16689.0,30612.0,28383.0,43791.0,12266.0,8910.0
2026-05-06 16:05:05.757571,578202,1609505769209546,3369121262,-1.20048,-0.035136,-0.066368,-5.215,-1.11125,8.75,45.112003,-41.312,-45.824,inter_set_rest,4,5.0,16295.0,21630.0,66998.0,75835.0,16689.0,30612.0,28383.0,43791.0,12266.0,8910.0
2026-05-06 16:05:05.762415,578203,1609505769224101,3369136220,-1.19072,-0.050752,-0.13664,-6.79875,-0.86625,8.28625,44.608,-40.904003,-45.592003,inter_set_rest,4,5.0,16295.0,21630.0,66998.0,75835.0,16689.0,30612.0,28383.0,43791.0,12266.0,8910.0
2026-05-06 16:05:05.765205,578204,1609505769233036,3369144937,-1.237568,-0.02928,-0.111264,-2.87875,-0.84,7.6825,44.256,-41.144,-43.328003,inter_set_rest,4,5.0,16295.0,21630.0,66998.0,75835.0,16689.0,30612.0,28383.0,43791.0,12266.0,8910.0
2026-05-06 16:05:05.773554,578205,1609505769241987,3369153657,-1.237568,-0.02928,-0.111264,-1.995,-1.35625,6.32625,44.256,-41.144,-43.328003,inter_set_rest,4,5.0,16295.0,21630.0,66998.0,75835.0,16689.0,30612.0,28383.0,43791.0,12266.0,8910.0
2026-05-06 16:05:05.807477,578206,1609505769256466,3369168609,-1.16144,-0.017568,-0.03904,4.655,-2.5025,8.14625,43.776,-42.672,-45.136,inter_set_rest,4,5.0,16295.0,21630.0,66998.0,75835.0,16689.0,30612.0,28383.0,43791.0,12266.0,8910.0
2026-05-06 16:05:05.810128,578207,1609505769265405,3369177308,-1.16144,-0.017568,-0.03904,8.9075,-2.8875,10.45625,43.776,-42.672,-45.136,inter_set_rest,4,5.0,16295.0,21630.0,66998.0,75835.0,16689.0,30612.0,28383.0,43791.0,12266.0,8910.0
2026-05-06 16:05:05.837457,578218,1609505769280346,3369192388,-1.138016,0.021472,-0.142496,7.48125,-2.59875,13.1075,43.352,-41.168003,-46.800003,inter_set_rest,4,5.0,16473.0,21916.0,67229.0,76057.0,16879.0,30922.0,28493.0,43919.0,12394.0,9039.0
2026-05-06 16:05:05.840088,578219,1609505769289318,3369201185,-1.138016,0.021472,-0.142496,4.4275,-2.345,14.02625,43.352,-41.168003,-46.800003,inter_set_rest,4,5.0,16473.0,21916.0,67229.0,76057.0,16879.0,30922.0,28493.0,43919.0,12394.0,9039.0
2026-05-06 16:05:05.842503,578220,1609505769298595,3369210038,-1.179008,0.02928,-0.132736,0.58625,-2.00375,12.32,42.864002,-43.472004,-45.688004,inter_set_rest,4,5.0,16473.0,21916.0,67229.0,76057.0,16879.0,30922.0,28493.0,43919.0,12394.0,9039.0
2026-05-06 16:05:05.846255,578221,1609505769313130,3369224990,-1.139968,-0.017568,-0.11712,-4.41,-1.89875,8.3825,42.568,-43.008003,-44.456,inter_set_rest,4,5.0,16473.0,21916.0,67229.0,76057.0,16879.0,30922.0,28493.0,43919.0,12394.0,9039.0
2026-05-06 16:05:05.855014,578222,1609505769322118,3369233719,-1.139968,-0.017568,-0.11712,-5.97625,-2.12625,6.7725,42.568,-43.008003,-44.456,inter_set_rest,4,5.0,16473.0,21916.0,67229.0,76057.0,16879.0,30922.0,28493.0,43919.0,12394.0,9039.0
2026-05-06 16:05:05.871260,578223,1609505769336648,3369248694,-1.061888,-0.023424,-0.080032,-5.7225,-2.87875,9.14375,41.84,-42.896004,-45.952003,inter_set_rest,4,5.0,16473.0,21916.0,67229.0,76057.0,16879.0,30922.0,28493.0,43919.0,12394.0,9039.0
2026-05-06 16:05:05.880175,578224,1609505769345600,3369257381,-1.061888,-0.023424,-0.080032,-0.86625,-3.955,11.01625,41.84,-42.896004,-45.952003,inter_set_rest,4,5.0,16473.0,21916.0,67229.0,76057.0,16879.0,30922.0,28493.0,43919.0,12394.0,9039.0
2026-05-06 16:05:05.888905,578225,1609505769354519,3369266115,-1.081408,-0.027328,-0.10736,5.57375,-4.87375,11.917501,41.848003,-42.176003,-47.424004,inter_set_rest,4,5.0,16473.0,21916.0,67229.0,76057.0,16879.0,30922.0,28493.0,43919.0,12394.0,9039.0
2026-05-06 16:05:05.902572,578226,1609505769369021,3369281165,-1.081408,-0.027328,-0.10736,8.09375,-4.75125,12.0925,41.848003,-42.176003,-47.424004,inter_set_rest,4,5.0,16473.0,21916.0,67229.0,76057.0,16879.0,30922.0,28493.0,43919.0,12394.0,9039.0
2026-05-06 16:05:05.931153,578237,1609505769378039,3369289952,-1.061888,0.033184,-0.160064,8.67125,-5.17125,13.3525,41.280003,-42.008003,-47.896004,inter_set_rest,4,5.0,16458.0,21968.0,67251.0,76193.0,16904.0,31013.0,28554.0,44006.0,12396.0,9071.0
2026-05-06 16:05:05.933746,578238,1609505769392801,3369304951,-1.061888,0.033184,-0.113216,8.7675,-5.985,14.0525,41.280003,-42.008003,-47.896004,inter_set_rest,4,5.0,16458.0,21968.0,67251.0,76193.0,16904.0,31013.0,28554.0,44006.0,12396.0,9071.0
2026-05-06 16:05:05.936155,578239,1609505769401902,3369313753,-1.061888,0.033184,-0.113216,6.86,-6.6325,11.5675,40.488003,-41.960003,-48.064003,inter_set_rest,4,5.0,16458.0,21968.0,67251.0,76193.0,16904.0,31013.0,28554.0,44006.0,12396.0,9071.0
2026-05-06 16:05:05.950131,578240,1609505769416455,3369328691,-1.052128,0.027328,-0.00976,5.04,-7.7175,8.35625,40.496002,-42.712,-47.152,inter_set_rest,4,5.0,16458.0,21968.0,67251.0,76193.0,16904.0,31013.0,28554.0,44006.0,12396.0,9071.0
2026-05-06 16:05:05.975233,578241,1609505769425395,3369337406,-1.052128,0.027328,-0.00976,8.49625,-8.70625,8.09375,40.496002,-42.712,-47.152,inter_set_rest,4,5.0,16458.0,21968.0,67251.0,76193.0,16904.0,31013.0,28554.0,44006.0,12396.0,9071.0
2026-05-06 16:05:06.000081,578242,1609505769434424,3369346213,-1.020896,0.02928,-0.074176,14.81375,-9.59875,8.7325,39.904003,-42.56,-48.336002,inter_set_rest,4,5.0,16458.0,21968.0,67251.0,76193.0,16904.0,31013.0,28554.0,44006.0,12396.0,9071.0
2026-05-06 16:05:06.016667,578243,1609505769448911,3369361151,-1.020896,0.02928,-0.074176,17.43875,-10.26375,10.29875,39.904003,-42.56,-48.336002,inter_set_rest,4,5.0,16458.0,21968.0,67251.0,76193.0,16904.0,31013.0,28554.0,44006.0,12396.0,9071.0
2026-05-06 16:05:06.020030,578244,1609505769457889,3369369868,-1.009184,0.052704,-0.08784,14.533751,-9.70375,10.94625,39.488003,-42.72,-48.656002,inter_set_rest,4,5.0,16458.0,21968.0,67251.0,76193.0,16904.0,31013.0,28554.0,44006.0,12396.0,9071.0
2026-05-06 16:05:06.022304,578245,1609505769472450,3369384789,-1.009184,0.052704,-0.08784,11.480001,-9.3625,8.7675,39.488003,-42.72,-48.656002,inter_set_rest,4,5.0,16458.0,21968.0,67251.0,76193.0,16904.0,31013.0,28554.0,44006.0,12396.0,9071.0
2026-05-06 16:05:06.050170,578256,1609505769481630,3369393608,-1.00528,0.013664,-0.07808,8.295,-9.58125,6.86875,39.312,-42.160004,-49.600002,inter_set_rest,4,5.0,16393.0,22040.0,67374.0,76690.0,16871.0,31148.0,28631.0,44289.0,12366.0,9111.0
2026-05-06 16:05:06.052527,578257,1609505769490702,3369402503,-1.00528,0.013664,-0.07808,6.88625,-10.535,7.0875,39.312,-42.160004,-49.600002,inter_set_rest,4,5.0,16393.0,22040.0,67374.0,76690.0,16871.0,31148.0,28631.0,44289.0,12366.0,9111.0
2026-05-06 16:05:06.055181,578258,1609505769505356,3369417464,-0.968192,0.021472,-0.03904,9.3275,-11.261251,8.6275,38.768,-42.72,-48.664,inter_set_rest,4,5.0,16393.0,22040.0,67374.0,76690.0,16871.0,31148.0,28631.0,44289.0,12366.0,9111.0
2026-05-06 16:05:06.057671,578259,1609505769514291,3369426175,-0.948672,0.089792,-0.013664,11.698751,-11.7075,8.65375,38.168003,-43.024002,-47.896004,inter_set_rest,4,5.0,16393.0,22040.0,67374.0,76690.0,16871.0,31148.0,28631.0,44289.0,12366.0,9111.0
2026-05-06 16:05:06.061239,578260,1609505769528880,3369441141,-0.948672,0.089792,-0.013664,14.2275,-12.15375,7.23625,38.168003,-43.024002,-47.896004,inter_set_rest,4,5.0,16393.0,22040.0,67374.0,76690.0,16871.0,31148.0,28631.0,44289.0,12366.0,9111.0
2026-05-06 16:05:06.071412,578261,1609505769537877,3369449887,-0.98576,0.148352,-0.072224,14.8225,-13.09875,5.53875,38.296,-43.096,-49.72,inter_set_rest,4,5.0,16393.0,22040.0,67374.0,76690.0,16871.0,31148.0,28631.0,44289.0,12366.0,9111.0
2026-05-06 16:05:06.105746,578262,1609505769552425,3369464840,-0.98576,0.148352,-0.072224,11.76875,-13.55375,3.465,38.296,-43.096,-49.72,inter_set_rest,4,5.0,16393.0,22040.0,67374.0,76690.0,16871.0,31148.0,28631.0,44289.0,12366.0,9111.0
2026-05-06 16:05:06.107438,578263,1609505769561527,3369473538,-1.028704,0.042944,-0.111264,8.91625,-14.5075,0.595,38.160004,-42.848003,-47.800003,inter_set_rest,4,5.0,16393.0,22040.0,67374.0,76690.0,16871.0,31148.0,28631.0,44289.0,12366.0,9111.0
2026-05-06 16:05:06.110020,578264,1609505769570632,3369482269,-1.028704,0.042944,-0.111264,7.5075,-15.715,-2.8,38.160004,-42.848003,-47.800003,inter_set_rest,4,5.0,16393.0,22040.0,67374.0,76690.0,16871.0,31148.0,28631.0,44289.0,12366.0,9111.0
2026-05-06 16:05:06.139843,578275,1609505769585585,3369497285,-0.997472,0.015616,-0.089792,13.09,-16.59875,-4.1475,37.864002,-43.04,-49.936,inter_set_rest,4,5.0,16271.0,22054.0,67492.0,77350.0,16788.0,31208.0,28691.0,44605.0,12313.0,9130.0
2026-05-06 16:05:06.142268,578276,1609505769594629,3369506085,-0.950624,0.074176,-0.035136,26.635,-17.12375,-4.7775,37.864002,-44.056004,-49.096,inter_set_rest,4,5.0,16271.0,22054.0,67492.0,77350.0,16788.0,31208.0,28691.0,44605.0,12313.0,9130.0
2026-05-06 16:05:06.145015,578277,1609505769603611,3369514829,-0.950624,0.074176,-0.035136,36.82,-18.17375,-7.14,37.432003,-44.056004,-49.096,inter_set_rest,4,5.0,16271.0,22054.0,67492.0,77350.0,16788.0,31208.0,28691.0,44605.0,12313.0,9130.0
2026-05-06 16:05:06.151323,578278,1609505769618756,3369529905,-0.960384,0.101504,-0.050752,45.71875,-18.375,-9.63375,37.088,-44.288002,-50.08,inter_set_rest,4,5.0,16271.0,22054.0,67492.0,77350.0,16788.0,31208.0,28691.0,44605.0,12313.0,9130.0
2026-05-06 16:05:06.165083,578279,1609505769628238,3369540733,-0.960384,0.101504,-0.050752,48.7725,-18.095,-14.28875,37.088,-44.288002,-50.08,inter_set_rest,4,5.0,16271.0,22054.0,67492.0,77350.0,16788.0,31208.0,28691.0,44605.0,12313.0,9130.0
2026-05-06 16:05:06.175230,578280,1609505769642781,3369553647,-0.921344,0.162016,0.037088,42.46375,-17.75375,-16.51125,37.320004,-42.432003,-51.504,inter_set_rest,4,5.0,16271.0,22054.0,67492.0,77350.0,16788.0,31208.0,28691.0,44605.0,12313.0,9130.0
2026-05-06 16:05:06.188911,578281,1609505769652258,3369564470,-0.921344,0.162016,0.037088,34.18625,-16.68625,-13.8425,37.320004,-42.432003,-51.504,inter_set_rest,4,5.0,16271.0,22054.0,67492.0,77350.0,16788.0,31208.0,28691.0,44605.0,12313.0,9130.0
2026-05-06 16:05:06.195245,578282,1609505769661288,3369573178,-0.964288,0.05856,-0.013664,23.52,-14.875,-14.00875,37.320004,-42.568,-51.520004,inter_set_rest,4,5.0,16271.0,22054.0,67492.0,77350.0,16788.0,31208.0,28691.0,44605.0,12313.0,9130.0
2026-05-06 16:05:06.233764,578293,1609505769675789,3369588297,-0.958432,-0.050752,-0.031232,13.9475,-12.62625,-17.7975,37.064003,-42.024002,-51.320004,inter_set_rest,4,5.0,16295.0,22132.0,67451.0,80608.0,16825.0,31287.0,28711.0,46453.0,12335.0,9193.0
2026-05-06 16:05:06.236179,578294,1609505769684772,3369597033,-0.958432,-0.050752,-0.031232,12.5825,-12.34625,-18.865,37.064003,-42.024002,-51.320004,inter_set_rest,4,5.0,16295.0,22132.0,67451.0,80608.0,16825.0,31287.0,28711.0,46453.0,12335.0,9193.0
2026-05-06 16:05:06.238861,578295,1609505769699275,3369611983,-0.89792,0.003904,-0.001952,19.7225,-14.0175,-15.995,37.152,-42.656002,-52.528004,inter_set_rest,4,5.0,16295.0,22132.0,67451.0,80608.0,16825.0,31287.0,28711.0,46453.0,12335.0,9193.0
2026-05-06 16:05:06.241375,578296,1609505769708203,3369620748,-0.89792,0.003904,-0.001952,30.38875,-16.19625,-11.75125,37.152,-42.656002,-52.528004,inter_set_rest,4,5.0,16295.0,22132.0,67451.0,80608.0,16825.0,31287.0,28711.0,46453.0,12335.0,9193.0
2026-05-06 16:05:06.250209,578297,1609505769717201,3369629475,-0.882304,0.111264,0.023424,40.38125,-18.45375,-8.5925,36.912003,-42.304,-52.480003,inter_set_rest,4,5.0,16295.0,22132.0,67451.0,80608.0,16825.0,31287.0,28711.0,46453.0,12335.0,9193.0
2026-05-06 16:05:06.277577,578298,1609505769731748,3369644381,-0.882304,0.111264,0.023424,43.68875,-18.17375,-7.805,36.912003,-42.304,-52.480003,inter_set_rest,4,5.0,16295.0,22132.0,67451.0,80608.0,16825.0,31287.0,28711.0,46453.0,12335.0,9193.0
2026-05-06 16:05:06.279992,578299,1609505769740687,3369653100,-0.935008,0.101504,0.037088,40.92375,-18.03375,-10.465,37.0,-42.432003,-52.744003,inter_set_rest,4,5.0,16295.0,22132.0,67451.0,80608.0,16825.0,31287.0,28711.0,46453.0,12335.0,9193.0
2026-05-06 16:05:06.286206,578300,1609505769755208,3369666095,-0.935008,0.101504,0.037088,38.3075,-18.92625,-10.61375,37.0,-42.432003,-52.744003,inter_set_rest,4,5.0,16295.0,22132.0,67451.0,80608.0,16825.0,31287.0,28711.0,46453.0,12335.0,9193.0
2026-05-06 16:05:06.325239,578301,1609505769764600,3369676925,-0.931104,0.044896,0.037088,41.2125,-20.772501,-5.69625,37.024002,-44.008003,-49.768,inter_set_rest,4,5.0,16295.0,22132.0,67451.0,80608.0,16825.0,31287.0,28711.0,46453.0,12335.0,9193.0
2026-05-06 16:05:06.350274,578302,1609505769773510,3369685619,-0.931104,0.044896,0.037088,49.07875,-22.75,0.39375,37.024002,-44.008003,-49.768,inter_set_rest,4,5.0,16295.0,22132.0,67451.0,80608.0,16825.0,31287.0,28711.0,46453.0,12335.0,9193.0
2026-05-06 16:05:06.418487,578313,1609505769788223,3369700642,-0.903776,0.101504,0.103456,60.138752,-24.57,4.2,36.68,-42.992,-54.904003,inter_set_rest,4,5.0,16212.0,22075.0,67379.0,81421.0,16763.0,31255.0,28676.0,46951.0,12306.0,9193.0
2026-05-06 16:05:06.421033,578314,1609505769797140,3369709326,-0.942816,0.128832,0.070272,75.25875,-26.6175,6.65,36.336002,-42.768,-56.312004,inter_set_rest,4,5.0,16212.0,22075.0,67379.0,81421.0,16763.0,31255.0,28676.0,46951.0,12306.0,9193.0
2026-05-06 16:05:06.423814,578315,1609505769811651,3369724259,-0.942816,0.128832,0.070272,87.82375,-27.8075,6.965,36.336002,-42.768,-56.312004,inter_set_rest,4,5.0,16212.0,22075.0,67379.0,81421.0,16763.0,31255.0,28676.0,46951.0,12306.0,9193.0
2026-05-06 16:05:06.426366,578316,1609505769820616,3369732984,-0.964288,0.091744,0.064416,94.92875,-29.46125,7.30625,36.2,-42.944,-55.888004,inter_set_rest,4,5.0,16212.0,22075.0,67379.0,81421.0,16763.0,31255.0,28676.0,46951.0,12306.0,9193.0
2026-05-06 16:05:06.428835,578317,1609505769835116,3369745889,-0.964288,0.091744,0.064416,98.11375,-30.21375,8.855001,36.2,-42.944,-55.888004,inter_set_rest,4,5.0,16212.0,22075.0,67379.0,81421.0,16763.0,31255.0,28676.0,46951.0,12306.0,9193.0
2026-05-06 16:05:06.431262,578318,1609505769844322,3369756689,-0.981856,0.113216,0.085888,100.03875,-29.93375,9.4675,35.848003,-43.344,-56.056004,inter_set_rest,4,5.0,16212.0,22075.0,67379.0,81421.0,16763.0,31255.0,28676.0,46951.0,12306.0,9193.0
2026-05-06 16:05:06.433755,578319,1609505769853245,3369765396,-0.981856,0.113216,0.085888,107.61625,-30.56375,8.645,35.848003,-43.344,-56.056004,inter_set_rest,4,5.0,16212.0,22075.0,67379.0,81421.0,16763.0,31255.0,28676.0,46951.0,12306.0,9193.0
2026-05-06 16:05:06.436182,578320,1609505769867802,3369780454,-1.04432,0.001952,0.031232,113.277504,-30.73,7.16625,35.568,-43.608,-57.712,inter_set_rest,4,5.0,16212.0,22075.0,67379.0,81421.0,16763.0,31255.0,28676.0,46951.0,12306.0,9193.0
2026-05-06 16:05:06.463932,578331,1609505769876751,3369789460,-1.036512,-0.033184,0.162016,109.75125,-30.616251,7.805,35.568,-43.88,-58.000004,inter_set_rest,4,5.0,16258.0,22024.0,67251.0,80876.0,16791.0,31152.0,28616.0,46659.0,12350.0,9157.0
2026-05-06 16:05:06.466412,578332,1609505769891475,3369802341,-1.036512,-0.033184,0.162016,101.19375,-31.92,9.56375,35.192,-43.88,-58.000004,inter_set_rest,4,5.0,16258.0,22024.0,67251.0,80876.0,16791.0,31152.0,28616.0,46659.0,12350.0,9157.0
2026-05-06 16:05:06.468843,578333,1609505769900907,3369813169,-1.048224,0.023424,0.28304,92.72375,-33.90625,8.98625,35.136,-45.352,-58.688004,inter_set_rest,4,5.0,16258.0,22024.0,67251.0,80876.0,16791.0,31152.0,28616.0,46659.0,12350.0,9157.0
2026-05-06 16:05:06.471356,578334,1609505769909910,3369821926,-1.048224,0.023424,0.28304,87.26375,-35.44625,6.4225,35.136,-45.352,-58.688004,inter_set_rest,4,5.0,16258.0,22024.0,67251.0,80876.0,16791.0,31152.0,28616.0,46659.0,12350.0,9157.0
2026-05-06 16:05:06.473884,578335,1609505769924458,3369836903,-1.116544,0.0,0.173728,80.35125,-36.6275,3.85,34.856003,-45.304,-59.344,inter_set_rest,4,5.0,16258.0,22024.0,67251.0,80876.0,16791.0,31152.0,28616.0,46659.0,12350.0,9157.0
2026-05-06 16:05:06.476391,578336,1609505769933469,3369845681,-1.116544,0.0,0.173728,69.72,-37.45875,4.92625,34.856003,-45.304,-59.344,inter_set_rest,4,5.0,16258.0,22024.0,67251.0,80876.0,16791.0,31152.0,28616.0,46659.0,12350.0,9157.0
2026-05-06 16:05:06.482338,578337,1609505769948133,3369860562,-1.030656,0.040992,0.187392,63.822502,-38.7625,9.68625,34.712,-45.976,-59.192,inter_set_rest,4,5.0,16258.0,22024.0,67251.0,80876.0,16791.0,31152.0,28616.0,46659.0,12350.0,9157.0
2026-05-06 16:05:06.491573,578338,1609505769957065,3369869288,-1.077504,0.091744,0.021472,61.76625,-38.87625,12.32,34.712,-45.976,-61.24,inter_set_rest,4,5.0,16258.0,22024.0,67251.0,80876.0,16791.0,31152.0,28616.0,46659.0,12350.0,9157.0
2026-05-06 16:05:06.500048,578339,1609505769966075,3369878018,-1.071648,0.091744,0.021472,62.90375,-37.80875,11.480001,34.272003,-45.760002,-59.992004,inter_set_rest,4,5.0,16258.0,22024.0,67251.0,80876.0,16791.0,31152.0,28616.0,46659.0,12350.0,9157.0
2026-05-06 16:05:06.538901,578350,1609505769981361,3369893005,-1.09312,0.091744,-0.05856,66.29875,-36.96875,10.2375,34.768,-44.056004,-61.912003,inter_set_rest,4,5.0,16319.0,22078.0,67094.0,80985.0,16829.0,31195.0,28520.0,46680.0,12364.0,9169.0
2026-05-06 16:05:06.541421,578351,1609505769990518,3369901815,-1.09312,0.091744,-0.05856,67.4275,-37.5025,10.99,34.768,-44.056004,-61.912003,inter_set_rest,4,5.0,16319.0,22078.0,67094.0,80985.0,16829.0,31195.0,28520.0,46680.0,12364.0,9169.0
2026-05-06 16:05:06.543933,578352,1609505770005097,3369916832,-1.059936,0.160064,0.081984,66.14125,-38.21125,12.27625,33.952003,-44.456,-62.304005,inter_set_rest,4,5.0,16319.0,22078.0,67094.0,80985.0,16829.0,31195.0,28520.0,46680.0,12364.0,9169.0
2026-05-06 16:05:06.546391,578353,1609505770014041,3369925580,-1.059936,0.160064,0.081984,65.75625,-37.70375,11.69,33.952003,-44.456,-62.304005,inter_set_rest,4,5.0,16319.0,22078.0,67094.0,80985.0,16829.0,31195.0,28520.0,46680.0,12364.0,9169.0
2026-05-06 16:05:06.555251,578354,1609505770023019,3369934433,-1.061888,0.199104,0.115168,67.655,-36.21625,9.2225,34.176003,-44.640003,-62.808002,inter_set_rest,4,5.0,16319.0,22078.0,67094.0,80985.0,16829.0,31195.0,28520.0,46680.0,12364.0,9169.0
2026-05-06 16:05:06.588690,578355,1609505770037536,3369949395,-1.061888,0.167872,0.072224,68.20625,-35.21875,6.6675,34.176003,-44.640003,-62.808002,inter_set_rest,4,5.0,16319.0,22078.0,67094.0,80985.0,16829.0,31195.0,28520.0,46680.0,12364.0,9169.0
2026-05-06 16:05:06.591319,578356,1609505770046454,3369958113,-1.071648,0.167872,0.072224,69.7025,-33.57375,3.89375,34.224003,-44.456,-61.648003,inter_set_rest,4,5.0,16319.0,22078.0,67094.0,80985.0,16829.0,31195.0,28520.0,46680.0,12364.0,9169.0
2026-05-06 16:05:06.593742,578357,1609505770060896,3369973049,-1.048224,0.089792,0.046848,73.675,-31.99875,0.93625,33.992,-43.928,-64.536,inter_set_rest,4,5.0,16319.0,22078.0,67094.0,80985.0,16829.0,31195.0,28520.0,46680.0,12364.0,9169.0
2026-05-06 16:05:06.602389,578358,1609505770069860,3369981765,-1.048224,0.089792,0.046848,81.585,-30.87875,-1.05,33.992,-43.928,-64.536,inter_set_rest,4,5.0,16319.0,22078.0,67094.0,80985.0,16829.0,31195.0,28520.0,46680.0,12364.0,9169.0
2026-05-06 16:05:06.643925,578369,1609505770084530,3369997004,-0.999424,0.163968,0.074176,87.7625,-29.942501,-1.33875,34.112003,-45.280003,-63.984,inter_set_rest,4,5.0,16187.0,21982.0,67025.0,81221.0,16717.0,31087.0,28495.0,46870.0,12305.0,9133.0
2026-05-06 16:05:06.646450,578370,1609505770093519,3370005785,-0.999424,0.163968,0.074176,92.435,-28.32375,-4.06,34.112003,-45.280003,-63.984,inter_set_rest,4,5.0,16187.0,21982.0,67025.0,81221.0,16717.0,31087.0,28495.0,46870.0,12305.0,9133.0
2026-05-06 16:05:06.648974,578371,1609505770102656,3370014563,-1.05408,0.212768,0.128832,99.8025,-27.055,-7.58625,34.248,-45.464,-64.944,inter_set_rest,4,5.0,16187.0,21982.0,67025.0,81221.0,16717.0,31087.0,28495.0,46870.0,12305.0,9133.0
2026-05-06 16:05:06.651435,578372,1609505770117231,3370029515,-1.05408,0.212768,0.128832,98.49875,-24.8325,-10.50875,34.248,-45.464,-64.944,inter_set_rest,4,5.0,16187.0,21982.0,67025.0,81221.0,16717.0,31087.0,28495.0,46870.0,12305.0,9133.0
2026-05-06 16:05:06.660233,578373,1609505770126184,3370038273,-1.042368,0.158112,0.1464,90.22125,-22.49625,-13.1775,34.968002,-44.584003,-67.144005,inter_set_rest,4,5.0,16187.0,21982.0,67025.0,81221.0,16717.0,31087.0,28495.0,46870.0,12305.0,9133.0
2026-05-06 16:05:06.674393,578374,1609505770140682,3370053204,-1.028704,0.037088,0.052704,85.07625,-21.35,-15.09375,34.696003,-42.696003,-68.416,inter_set_rest,4,5.0,16187.0,21982.0,67025.0,81221.0,16717.0,31087.0,28495.0,46870.0,12305.0,9133.0
2026-05-06 16:05:06.682560,578375,1609505770149814,3370061920,-1.028704,0.037088,0.052704,88.59375,-21.14,-16.12625,34.696003,-42.696003,-68.416,inter_set_rest,4,5.0,16187.0,21982.0,67025.0,81221.0,16717.0,31087.0,28495.0,46870.0,12305.0,9133.0
2026-05-06 16:05:06.710205,578376,1609505770158730,3370070631,-0.999424,0.05856,0.050752,97.90375,-21.7525,-16.12625,34.696003,-42.696003,-70.616005,inter_set_rest,4,5.0,16187.0,21982.0,67025.0,81221.0,16717.0,31087.0,28495.0,46870.0,12305.0,9133.0
2026-05-06 16:05:06.735092,578377,1609505770173246,3370085522,-0.999424,0.05856,0.050752,111.90375,-22.3475,-13.29125,35.16,-41.976,-70.616005,inter_set_rest,4,5.0,16187.0,21982.0,67025.0,81221.0,16717.0,31087.0,28495.0,46870.0,12305.0,9133.0
2026-05-06 16:05:06.773047,578388,1609505770182680,3370094288,-1.009184,0.18544,0.152256,117.71375,-21.63875,-13.16,35.376003,-41.376003,-70.784004,inter_set_rest,4,5.0,16123.0,21894.0,66928.0,80780.0,16644.0,30984.0,28437.0,46679.0,12243.0,9069.0
2026-05-06 16:05:06.775401,578389,1609505770197271,3370109239,-1.009184,0.18544,0.152256,115.45625,-20.83375,-17.03625,35.376003,-41.376003,-70.784004,inter_set_rest,4,5.0,16123.0,21894.0,66928.0,80780.0,16644.0,30984.0,28437.0,46679.0,12243.0,9069.0
2026-05-06 16:05:06.777672,578390,1609505770206221,3370117971,-1.013088,0.22448,0.10736,112.245,-20.22125,-19.11,36.032,-40.984,-74.816,inter_set_rest,4,5.0,16123.0,21894.0,66928.0,80780.0,16644.0,30984.0,28437.0,46679.0,12243.0,9069.0
2026-05-06 16:05:06.780081,578391,1609505770215165,3370126788,-1.013088,0.22448,0.10736,103.67,-18.97875,-20.265,36.032,-40.984,-74.816,inter_set_rest,4,5.0,16123.0,21894.0,66928.0,80780.0,16644.0,30984.0,28437.0,46679.0,12243.0,9069.0
2026-05-06 16:05:06.782509,578392,1609505770229693,3370141782,-1.018944,0.154208,0.138592,94.683754,-17.94625,-23.72125,36.320004,-40.24,-72.840004,inter_set_rest,4,5.0,16123.0,21894.0,66928.0,80780.0,16644.0,30984.0,28437.0,46679.0,12243.0,9069.0
2026-05-06 16:05:06.785079,578393,1609505770238642,3370150612,-1.018944,0.154208,0.091744,93.19625,-17.3425,-26.1625,36.320004,-40.24,-72.840004,inter_set_rest,4,5.0,16123.0,21894.0,66928.0,80780.0,16644.0,30984.0,28437.0,46679.0,12243.0,9069.0
2026-05-06 16:05:06.787508,578394,1609505770253276,3370165618,-1.038464,0.089792,0.083936,93.808754,-16.94875,-26.880001,37.2,-39.232002,-75.0,inter_set_rest,4,5.0,16123.0,21894.0,66928.0,80780.0,16644.0,30984.0,28437.0,46679.0,12243.0,9069.0
2026-05-06 16:05:06.797627,578395,1609505770262350,3370174397,-1.04432,0.12688,0.113216,96.66125,-16.45875,-27.265,37.272003,-40.112003,-73.200005,inter_set_rest,4,5.0,16123.0,21894.0,66928.0,80780.0,16644.0,30984.0,28437.0,46679.0,12243.0,9069.0
2026-05-06 16:05:06.811438,578396,1609505770276857,3370189333,-1.04432,0.12688,0.113216,102.0075,-16.80875,-29.225,37.272003,-40.112003,-73.200005,inter_set_rest,4,5.0,16123.0,21894.0,66928.0,80780.0,16644.0,30984.0,28437.0,46679.0,12243.0,9069.0
2026-05-06 16:05:06.841212,578408,1609505770285881,3370198398,-1.032608,0.162016,0.122976,106.61875,-17.21125,-31.29875,38.016003,-37.288002,-75.552,inter_set_rest,4,5.0,15971.0,21728.0,66776.0,80142.0,16524.0,30803.0,28345.0,46365.0,12153.0,8997.0
2026-05-06 16:05:06.843684,578409,1609505770294881,3370207277,-1.032608,0.162016,0.122976,107.16125,-17.85875,-31.5525,38.016003,-37.288002,-75.552,inter_set_rest,4,5.0,15971.0,21728.0,66776.0,80142.0,16524.0,30803.0,28345.0,46365.0,12153.0,8997.0
2026-05-06 16:05:06.846048,578410,1609505770309399,3370220196,-1.028704,0.179584,0.099552,102.68125,-17.9375,-32.235,38.304,-38.192,-76.336006,inter_set_rest,4,5.0,15971.0,21728.0,66776.0,80142.0,16524.0,30803.0,28345.0,46365.0,12153.0,8997.0
2026-05-06 16:05:06.854753,578411,1609505770318658,3370231002,-1.028704,0.179584,0.099552,95.80375,-17.2375,-35.665,38.304,-38.192,-76.336006,inter_set_rest,4,5.0,15971.0,21728.0,66776.0,80142.0,16524.0,30803.0,28345.0,46365.0,12153.0,8997.0
2026-05-06 16:05:06.886184,578412,1609505770333310,3370245943,-1.110688,0.138592,0.072224,91.7175,-16.00375,-40.04875,39.600002,-35.104,-77.512,inter_set_rest,4,5.0,15971.0,21728.0,66776.0,80142.0,16524.0,30803.0,28345.0,46365.0,12153.0,8997.0
2026-05-06 16:05:06.888828,578413,1609505770342259,3370254821,-1.11264,0.081984,0.091744,90.22125,-15.18125,-42.60375,39.712,-34.248,-77.952,inter_set_rest,4,5.0,15971.0,21728.0,66776.0,80142.0,16524.0,30803.0,28345.0,46365.0,12153.0,8997.0
2026-05-06 16:05:06.891340,578414,1609505770351183,3370263522,-1.11264,0.081984,0.091744,90.7025,-14.91875,-41.97375,39.712,-34.248,-77.952,inter_set_rest,4,5.0,15971.0,21728.0,66776.0,80142.0,16524.0,30803.0,28345.0,46365.0,12153.0,8997.0
2026-05-06 16:05:06.897636,578415,1609505770365691,3370276449,-1.085312,0.095648,0.040992,93.35375,-15.015,-40.451252,40.664,-32.784,-78.64001,inter_set_rest,4,5.0,15971.0,21728.0,66776.0,80142.0,16524.0,30803.0,28345.0,46365.0,12153.0,8997.0
2026-05-06 16:05:06.908916,578416,1609505770374874,3370287270,-1.085312,0.095648,0.040992,96.1975,-14.58625,-39.1125,40.664,-32.784,-78.64001,inter_set_rest,4,5.0,15971.0,21728.0,66776.0,80142.0,16524.0,30803.0,28345.0,46365.0,12153.0,8997.0
