pc_time,serial_num,sensor_ts,host_ts,ax,ay,az,gx,gy,gz,mx,my,mz,phase,rpe,weight_kg,ppg_a,ppg_b,ppg_c,ppg_d,ppg_e
2026-04-14 18:06:04.175030,739810,1609507457813506,5057783820,0.26352,-0.753472,-0.75152,-29.67125,0.1225,2.31,18.336,22.952002,-21.936,none,4,3.0,72710.0,261328.0,141375.0,247832.0,153236.0
2026-04-14 18:06:04.182592,739811,1609507457822434,5057792532,0.35136,-0.944768,-0.798368,-38.31625,7.875,-1.3475,18.68,22.528002,-22.264002,none,4,3.0,72710.0,261328.0,141375.0,247832.0,153236.0
2026-04-14 18:06:04.192652,739812,1609507457831475,5057801228,0.35136,-0.944768,-0.798368,-43.5225,17.71875,-4.7425,18.68,22.528002,-22.264002,none,4,3.0,72710.0,261328.0,141375.0,247832.0,153236.0
2026-04-14 18:06:04.207715,739813,1609507457846029,5057816245,0.337696,-0.817888,-0.743712,-28.4375,26.55625,-5.18,17.456001,23.208,-21.84,none,4,3.0,72710.0,261328.0,141375.0,247832.0,153236.0
2026-04-14 18:06:04.215193,739814,1609507457854951,5057824950,0.337696,-0.817888,-0.743712,-7.98875,36.54875,-4.62875,17.456001,23.208,-21.84,none,4,3.0,72710.0,261328.0,141375.0,247832.0,153236.0
2026-04-14 18:06:04.273106,739825,1609507457869555,5057839897,0.236192,-0.882304,-0.54656,2.52875,46.9525,-5.67875,17.904001,23.024,-23.104002,none,4,3.0,74203.0,251234.0,144090.0,238762.0,156220.0
2026-04-14 18:06:04.284103,739826,1609507457878513,5057848608,0.236192,-0.882304,-0.54656,14.63875,52.9725,-6.81625,17.904001,23.024,-23.104002,none,4,3.0,74203.0,251234.0,144090.0,238762.0,156220.0
2026-04-14 18:06:04.295046,739827,1609507457893107,5057861582,0.281088,-0.864736,-0.689056,36.645,58.4325,-9.54625,15.720001,23.648,-20.928001,none,4,3.0,74203.0,251234.0,144090.0,238762.0,156220.0
2026-04-14 18:06:04.295145,739828,1609507457902490,5057872379,0.242048,-0.396256,-0.804224,57.0325,58.80875,-12.145,15.424001,23.472002,-21.584002,none,4,3.0,74203.0,251234.0,144090.0,238762.0,156220.0
2026-04-14 18:06:04.295208,739829,1609507457911425,5057881065,0.242048,-0.396256,-0.804224,42.98875,51.065,-12.32875,15.424001,23.472002,-21.584002,none,4,3.0,74203.0,251234.0,144090.0,238762.0,156220.0
2026-04-14 18:06:04.295268,739830,1609507457925912,5057895945,0.33184,-0.714432,-0.548512,-1.11125,42.0,-12.845,15.712001,23.584002,-22.464,none,4,3.0,74203.0,251234.0,144090.0,238762.0,156220.0
2026-04-14 18:06:04.295328,739831,1609507457934900,5057904674,0.33184,-0.714432,-0.548512,-33.53,42.875,-17.01,15.712001,23.584002,-22.464,none,4,3.0,74203.0,251234.0,144090.0,238762.0,156220.0
2026-04-14 18:06:04.310171,739832,1609507457949458,5057919677,0.509472,-0.944768,-0.437248,-37.0125,44.49375,-19.495,16.152,23.408,-22.696001,none,4,3.0,74203.0,251234.0,144090.0,238762.0,156220.0
2026-04-14 18:06:04.393908,739843,1609507457958484,5057928748,0.509472,-0.944768,-0.437248,-16.05625,43.435,-13.4925,16.152,23.408,-22.696001,none,4,3.0,88328.0,255875.0,160674.0,243651.0,172935.0
2026-04-14 18:06:04.396367,739844,1609507457967417,5057937508,0.491904,-0.84912,-0.677344,6.9825,41.29125,-12.83625,15.720001,23.272001,-21.144001,none,4,3.0,88328.0,255875.0,160674.0,243651.0,172935.0
2026-04-14 18:06:04.398751,739845,1609507457982047,5057950475,0.470432,-0.534848,-0.710528,27.65875,38.15875,-14.385,14.536,23.952002,-20.432001,none,4,3.0,88328.0,255875.0,160674.0,243651.0,172935.0
2026-04-14 18:06:04.401382,739846,1609507457991542,5057961283,0.470432,-0.534848,-0.710528,33.95,33.46,-12.4775,14.536,23.952002,-20.432001,none,4,3.0,88328.0,255875.0,160674.0,243651.0,172935.0
2026-04-14 18:06:04.403860,739847,1609507458006045,5057976164,0.45872,-0.44896,-0.67344,17.3075,27.098751,-10.5875,14.336,23.736002,-22.648,none,4,3.0,88328.0,255875.0,160674.0,243651.0,172935.0
2026-04-14 18:06:04.407934,739848,1609507458014990,5057984859,0.45872,-0.44896,-0.67344,-11.55875,19.85375,-8.89,14.336,23.736002,-22.648,none,4,3.0,88328.0,255875.0,160674.0,243651.0,172935.0
2026-04-14 18:06:04.410575,739849,1609507458023951,5057993598,0.50752,-0.67344,-0.532896,-36.86375,11.71625,-7.39375,14.288001,23.76,-22.904001,none,4,3.0,88328.0,255875.0,160674.0,243651.0,172935.0
2026-04-14 18:06:04.412486,739850,1609507458038625,5058008531,0.50752,-0.67344,-0.532896,-54.53875,2.9575,-7.90125,14.288001,23.76,-22.904001,none,4,3.0,88328.0,255875.0,160674.0,243651.0,172935.0
2026-04-14 18:06:04.414973,739851,1609507458047569,5058017241,0.45872,-0.681248,-0.359168,-56.945,-4.6375,-7.6825,14.800001,23.696001,-22.392,none,4,3.0,88328.0,255875.0,160674.0,243651.0,172935.0
2026-04-14 18:06:04.445042,739862,1609507458062522,5058032238,0.337696,-0.577792,-0.52704,-44.52,-10.54375,-4.4275,14.096001,23.696001,-22.192001,none,4,3.0,79698.0,255942.0,149927.0,243767.0,161531.0
2026-04-14 18:06:04.447563,739863,1609507458071569,5058041015,0.337696,-0.577792,-0.52704,-35.86625,-16.09125,-1.21625,14.096001,23.696001,-22.192001,none,4,3.0,79698.0,255942.0,149927.0,243767.0,161531.0
2026-04-14 18:06:04.451022,739864,1609507458080595,5058049721,0.337696,-0.577792,-0.2928,-37.5375,-21.06125,1.6625,14.096001,23.696001,-22.192001,none,4,3.0,79698.0,255942.0,149927.0,243767.0,161531.0
2026-04-14 18:06:04.456709,739865,1609507458095126,5058064692,0.325984,-0.558272,-0.2928,-40.62625,-26.985,3.78,15.712001,22.704,-23.920002,none,4,3.0,79698.0,255942.0,149927.0,243767.0,161531.0
2026-04-14 18:06:04.464239,739866,1609507458104072,5058073384,0.316224,-0.550464,-0.337696,-41.65,-33.915,6.3,16.184,21.84,-24.792002,none,4,3.0,79698.0,255942.0,149927.0,243767.0,161531.0
2026-04-14 18:06:04.479366,739867,1609507458118651,5058088310,0.316224,-0.550464,-0.337696,-39.55,-40.83625,6.72875,16.184,21.84,-24.792002,none,4,3.0,79698.0,255942.0,149927.0,243767.0,161531.0
2026-04-14 18:06:04.489369,739868,1609507458127597,5058097042,0.33184,-0.599264,-0.413824,-40.69625,-49.62125,7.60375,16.744001,22.064001,-24.728,none,4,3.0,79698.0,255942.0,149927.0,243767.0,161531.0
2026-04-14 18:06:04.503254,739869,1609507458142123,5058111943,0.281088,-0.66368,-0.388448,-44.42375,-56.7,10.78875,17.192001,21.920002,-25.12,none,4,3.0,79698.0,255942.0,149927.0,243767.0,161531.0
2026-04-14 18:06:04.512015,739870,1609507458151018,5058120635,0.281088,-0.66368,-0.388448,-41.23875,-60.1825,11.5325,17.192001,21.920002,-25.12,none,4,3.0,79698.0,255942.0,149927.0,243767.0,161531.0
2026-04-14 18:06:04.546844,739881,1609507458160516,5058129873,0.281088,-0.66368,-0.388448,-31.272501,-63.27125,9.511251,17.192001,21.920002,-25.12,none,4,3.0,68610.0,250131.0,136067.0,238814.0,147406.0
2026-04-14 18:06:04.547214,739882,1609507458175097,5058144885,0.218624,-0.609024,-0.69296,-19.39875,-66.15,11.89125,17.68,21.576,-27.016,none,4,3.0,68610.0,250131.0,136067.0,238814.0,147406.0
2026-04-14 18:06:04.549012,739883,1609507458184046,5058153579,0.357216,-0.59536,-0.562176,-12.25875,-68.425,15.42625,17.656,21.696001,-24.008001,none,4,3.0,68610.0,250131.0,136067.0,238814.0,147406.0
2026-04-14 18:06:04.559139,739884,1609507458198709,5058168503,0.357216,-0.59536,-0.562176,-9.87,-70.20125,17.7275,17.656,21.696001,-24.008001,none,4,3.0,68610.0,250131.0,136067.0,238814.0,147406.0
2026-04-14 18:06:04.566856,739885,1609507458207714,5058177190,0.288896,-0.642208,-0.564128,-10.5,-72.38875,18.6025,19.080002,20.856,-23.568,none,4,3.0,68610.0,250131.0,136067.0,238814.0,147406.0
2026-04-14 18:06:04.579466,739886,1609507458216639,5058185884,0.288896,-0.642208,-0.564128,-16.72125,-76.2825,18.34875,19.080002,20.856,-23.568,none,4,3.0,68610.0,250131.0,136067.0,238814.0,147406.0
2026-04-14 18:06:04.594534,739887,1609507458231253,5058200791,0.4392,-0.821792,-0.571936,-17.8675,-76.58875,18.2175,19.976002,20.968,-23.576,none,4,3.0,68610.0,250131.0,136067.0,238814.0,147406.0
2026-04-14 18:06:04.602008,739888,1609507458240378,5058209484,0.4392,-0.821792,-0.571936,-1.37375,-70.1575,18.78625,19.976002,20.968,-23.576,none,4,3.0,68610.0,250131.0,136067.0,238814.0,147406.0
2026-04-14 18:06:04.614488,739889,1609507458254895,5058224439,0.363072,-0.747616,-0.806176,27.62375,-60.24375,19.39875,20.136002,20.936,-23.624,none,4,3.0,68610.0,250131.0,136067.0,238814.0,147406.0
2026-04-14 18:06:04.642822,739900,1609507458264081,5058233318,0.271328,-0.5856,-0.960384,45.99875,-54.52125,20.57125,20.704,21.328001,-22.36,none,4,3.0,57722.0,243185.0,119702.0,230459.0,131489.0
2026-04-14 18:06:04.649087,739901,1609507458273240,5058242059,0.271328,-0.5856,-0.960384,44.40625,-51.5025,20.3875,20.704,21.328001,-22.36,none,4,3.0,57722.0,243185.0,119702.0,230459.0,131489.0
2026-04-14 18:06:04.649292,739902,1609507458288217,5058257108,0.33184,-0.6344,-0.632448,28.18375,-49.90125,19.678751,19.192001,21.568,-20.76,none,4,3.0,57722.0,243185.0,119702.0,230459.0,131489.0
2026-04-14 18:06:04.657729,739903,1609507458297156,5058265817,0.33184,-0.6344,-0.632448,3.0275,-51.1,17.57875,19.192001,21.568,-20.76,none,4,3.0,57722.0,243185.0,119702.0,230459.0,131489.0
2026-04-14 18:06:04.670744,739904,1609507458311988,5058280777,0.290848,-0.726144,-0.74176,-11.585,-50.37375,15.7325,21.344002,20.896002,-22.024,none,4,3.0,57722.0,243185.0,119702.0,230459.0,131489.0
2026-04-14 18:06:04.682013,739905,1609507458321367,5058291538,0.290848,-0.726144,-0.74176,-12.83625,-49.97125,13.93,21.344002,20.896002,-22.024,none,4,3.0,57722.0,243185.0,119702.0,230459.0,131489.0
2026-04-14 18:06:04.710781,739906,1609507458330306,5058300259,0.310368,-0.743712,-0.657824,-7.385,-47.5475,13.0725,22.2,20.480001,-22.776001,none,4,3.0,57722.0,243185.0,119702.0,230459.0,131489.0
2026-04-14 18:06:04.713286,739907,1609507458344936,5058315186,0.212768,-0.763232,-0.894016,-4.29625,-44.73875,11.13875,21.392,20.968,-20.152,none,4,3.0,57722.0,243185.0,119702.0,230459.0,131489.0
2026-04-14 18:06:04.715789,739908,1609507458353886,5058323884,0.212768,-0.763232,-0.894016,-1.79375,-42.55125,11.45375,21.392,20.968,-20.152,none,4,3.0,57722.0,243185.0,119702.0,230459.0,131489.0
2026-04-14 18:06:04.773930,739919,1609507458368568,5058337221,0.181536,-0.708576,-0.774944,5.32,-38.8325,10.99,21.592001,20.992,-19.952002,none,4,3.0,51411.0,232712.0,109971.0,222228.0,120884.0
2026-04-14 18:06:04.776610,739920,1609507458377764,5058348011,0.181536,-0.708576,-0.774944,10.31625,-36.1025,10.3425,21.592001,20.992,-19.952002,none,4,3.0,51411.0,232712.0,109971.0,222228.0,120884.0
2026-04-14 18:06:04.779148,739921,1609507458386685,5058356736,0.124928,-0.704672,-0.83936,10.56125,-34.02875,10.63125,21.952002,20.896002,-19.736,none,4,3.0,51411.0,232712.0,109971.0,222228.0,120884.0
2026-04-14 18:06:04.782031,739922,1609507458401194,5058369610,0.124928,-0.704672,-0.83936,11.01625,-30.21375,8.88125,21.952002,20.896002,-19.736,none,4,3.0,51411.0,232712.0,109971.0,222228.0,120884.0
2026-04-14 18:06:04.784201,739923,1609507458410663,5058380511,0.132736,-0.728096,-0.763232,13.965,-27.9475,7.315,22.208,20.960001,-19.472,none,4,3.0,51411.0,232712.0,109971.0,222228.0,120884.0
2026-04-14 18:06:04.787027,739924,1609507458419756,5058389308,0.132736,-0.728096,-0.763232,18.4975,-25.54125,10.08,22.208,20.960001,-19.472,none,4,3.0,51411.0,232712.0,109971.0,222228.0,120884.0
2026-04-14 18:06:04.795773,739925,1609507458434381,5058404246,0.167872,-0.72224,-0.64416,21.60375,-24.31625,11.50625,22.344002,20.648,-19.256,none,4,3.0,51411.0,232712.0,109971.0,222228.0,120884.0
2026-04-14 18:06:04.807162,739926,1609507458443321,5058412936,0.163968,-0.737856,-0.665632,21.91,-23.37125,12.005,22.344002,20.648,-19.808,none,4,3.0,51411.0,232712.0,109971.0,222228.0,120884.0
2026-04-14 18:06:04.819528,739927,1609507458457800,5058427810,0.163968,-0.737856,-0.665632,23.07375,-21.98,12.705,23.12,20.6,-19.808,none,4,3.0,51411.0,232712.0,109971.0,222228.0,120884.0
2026-04-14 18:06:04.862276,739938,1609507458466812,5058436634,0.01952,-0.669536,-0.788608,25.865,-21.25375,11.82125,23.184002,20.888,-19.272001,none,4,3.0,42234.0,206178.0,94911.0,202367.0,104426.0
2026-04-14 18:06:04.868461,739939,1609507458481367,5058451627,0.01952,-0.669536,-0.788608,27.41375,-22.1725,12.71375,23.184002,20.888,-19.272001,none,4,3.0,42234.0,206178.0,94911.0,202367.0,104426.0
2026-04-14 18:06:04.869400,739940,1609507458490368,5058460343,0.128832,-0.696864,-0.6832,25.01625,-24.4825,14.11375,22.144001,21.176,-16.928001,none,4,3.0,42234.0,206178.0,94911.0,202367.0,104426.0
2026-04-14 18:06:04.870284,739941,1609507458499472,5058469037,0.128832,-0.696864,-0.6832,17.815,-25.7075,14.3675,22.144001,21.176,-16.928001,none,4,3.0,42234.0,206178.0,94911.0,202367.0,104426.0
2026-04-14 18:06:04.873822,739942,1609507458514036,5058483901,0.21472,-0.823744,-0.749568,12.355001,-23.94875,15.1375,24.048,20.52,-19.104,none,4,3.0,42234.0,206178.0,94911.0,202367.0,104426.0
2026-04-14 18:06:04.908842,739943,1609507458523062,5058492602,0.21472,-0.823744,-0.749568,15.25125,-21.91,14.14,24.048,20.52,-19.104,none,4,3.0,42234.0,206178.0,94911.0,202367.0,104426.0
2026-04-14 18:06:04.921548,739944,1609507458537532,5058507497,0.13664,-0.80032,-0.638304,22.2425,-21.18375,13.9475,23.912,20.320002,-17.336,none,4,3.0,42234.0,206178.0,94911.0,202367.0,104426.0
2026-04-14 18:06:04.924418,739945,1609507458546438,5058516194,0.121024,-0.825696,-0.88816,26.2675,-20.69375,15.190001,23.664001,20.904001,-17.544,none,4,3.0,42234.0,206178.0,94911.0,202367.0,104426.0
2026-04-14 18:06:04.951272,739956,1609507458560907,5058531164,0.121024,-0.825696,-0.88816,25.90875,-21.866251,15.627501,23.664001,20.904001,-17.544,none,4,3.0,36104.0,189458.0,83513.0,190737.0,91467.0
2026-04-14 18:06:04.953720,739957,1609507458570628,5058539985,0.220576,-0.769088,-0.665632,22.25125,-22.88125,17.01,23.944,20.888,-17.064001,none,4,3.0,36104.0,189458.0,83513.0,190737.0,91467.0
2026-04-14 18:06:04.956237,739958,1609507458579585,5058548773,0.220576,-0.769088,-0.665632,21.315,-19.46875,17.8675,23.944,20.888,-17.064001,none,4,3.0,36104.0,189458.0,83513.0,190737.0,91467.0
2026-04-14 18:06:04.958740,739959,1609507458594239,5058563683,0.17568,-0.767136,-0.778848,22.522501,-15.82875,15.9425,23.864,20.848001,-17.936,none,4,3.0,36104.0,189458.0,83513.0,190737.0,91467.0
2026-04-14 18:06:04.963719,739960,1609507458603302,5058572365,0.17568,-0.767136,-0.778848,20.25625,-13.83375,15.5225,23.864,20.848001,-17.936,none,4,3.0,36104.0,189458.0,83513.0,190737.0,91467.0
2026-04-14 18:06:04.971878,739961,1609507458612251,5058581103,0.15616,-0.80032,-0.665632,14.595,-12.20625,14.91875,25.048,20.6,-18.104,none,4,3.0,36104.0,189458.0,83513.0,190737.0,91467.0
2026-04-14 18:06:04.988297,739962,1609507458626922,5058596009,0.119072,-0.786656,-0.806176,10.64875,-11.57625,13.48375,25.312,19.984001,-17.648,none,4,3.0,36104.0,189458.0,83513.0,190737.0,91467.0
2026-04-14 18:06:04.995341,739963,1609507458635844,5058604708,0.119072,-0.786656,-0.806176,9.1175,-12.8275,13.62375,25.312,19.984001,-17.648,none,4,3.0,36104.0,189458.0,83513.0,190737.0,91467.0
2026-04-14 18:06:05.011486,739964,1609507458650565,5058619586,0.128832,-0.788608,-0.72224,7.035,-12.27625,15.1375,25.328001,20.632002,-16.792002,none,4,3.0,36104.0,189458.0,83513.0,190737.0,91467.0
2026-04-14 18:06:05.017688,739965,1609507458659489,5058628330,0.128832,-0.788608,-0.72224,3.5875,-9.8,13.34375,25.328001,20.632002,-16.792002,none,4,3.0,36104.0,189458.0,83513.0,190737.0,91467.0
2026-04-14 18:06:05.072105,739977,1609507458674112,5058643281,0.0488,-0.763232,-0.569984,3.045,-8.9775,12.3725,23.856,20.848001,-15.352001,none,4,3.0,34138.0,185873.0,79709.0,188178.0,86912.0
2026-04-14 18:06:05.097036,739978,1609507458683208,5058652039,0.0488,-0.763232,-0.569984,5.25875,-9.38875,13.39625,23.856,20.848001,-15.352001,none,4,3.0,34138.0,185873.0,79709.0,188178.0,86912.0
2026-04-14 18:06:05.111629,739979,1609507458692670,5058662839,0.0488,-0.743712,-0.523136,6.5975,-10.77125,14.4375,25.808,20.296001,-19.448002,none,4,3.0,34138.0,185873.0,79709.0,188178.0,86912.0
2026-04-14 18:06:05.119474,739980,1609507458707211,5058675695,-0.021472,-0.749568,-0.70272,5.5825,-12.075,15.95125,25.672,19.744001,-17.408,none,4,3.0,34138.0,185873.0,79709.0,188178.0,86912.0
2026-04-14 18:06:05.119572,739981,1609507458716504,5058686622,-0.021472,-0.749568,-0.70272,4.445,-12.6875,15.89,25.672,19.744001,-17.408,none,4,3.0,34138.0,185873.0,79709.0,188178.0,86912.0
2026-04-14 18:06:05.119630,739982,1609507458725512,5058695306,0.130784,-0.737856,-0.50752,3.35125,-14.18375,15.9075,25.888,19.424002,-16.112001,none,4,3.0,34138.0,185873.0,79709.0,188178.0,86912.0
2026-04-14 18:06:05.124076,739983,1609507458740027,5058710254,0.130784,-0.737856,-0.50752,1.0675,-15.505,17.1675,25.888,19.424002,-16.112001,none,4,3.0,34138.0,185873.0,79709.0,188178.0,86912.0
2026-04-14 18:06:05.126926,739984,1609507458748949,5058718937,0.064416,-0.856928,-0.696864,-5.495,-16.31875,16.9925,25.840002,19.560001,-16.184,none,4,3.0,34138.0,185873.0,79709.0,188178.0,86912.0
2026-04-14 18:06:05.154469,739995,1609507458764015,5058733858,0.064416,-0.856928,-0.696864,-4.9175,-16.58125,17.10625,25.840002,19.560001,-16.184,none,4,3.0,33186.0,185429.0,77849.0,187907.0,84698.0
2026-04-14 18:06:05.156644,739996,1609507458773388,5058742817,0.0976,-0.81008,-0.571936,2.94,-16.54625,18.3575,25.368002,20.240002,-16.016,none,4,3.0,33186.0,185429.0,77849.0,187907.0,84698.0
2026-04-14 18:06:05.159014,739997,1609507458782344,5058751649,0.0976,-0.81008,-0.571936,7.62125,-17.2025,19.31125,25.368002,20.240002,-16.016,none,4,3.0,33186.0,185429.0,77849.0,187907.0,84698.0
2026-04-14 18:06:05.162090,739998,1609507458796863,5058766642,0.07808,-0.806176,-0.732,3.94625,-19.90625,19.71375,25.528002,19.488,-16.088001,none,4,3.0,33186.0,185429.0,77849.0,187907.0,84698.0
2026-04-14 18:06:05.167004,739999,1609507458805809,5058775374,0.160064,-0.88816,-0.733952,-4.20875,-23.65125,19.18,26.080002,19.648,-16.288,none,4,3.0,33186.0,185429.0,77849.0,187907.0,84698.0
2026-04-14 18:06:05.180791,740000,1609507458820321,5058790224,0.160064,-0.88816,-0.733952,-9.58125,-24.6925,19.565,26.080002,19.648,-16.288,none,4,3.0,33186.0,185429.0,77849.0,187907.0,84698.0
2026-04-14 18:06:05.190780,740001,1609507458829268,5058798931,0.11712,-0.864736,-0.60512,-8.82875,-22.015,19.85375,27.000002,18.960001,-16.048,none,4,3.0,33186.0,185429.0,77849.0,187907.0,84698.0
2026-04-14 18:06:05.206540,740002,1609507458843773,5058813833,0.11712,-0.864736,-0.60512,-5.39875,-19.7925,19.460001,27.000002,18.960001,-16.048,none,4,3.0,33186.0,185429.0,77849.0,187907.0,84698.0
2026-04-14 18:06:05.217392,740003,1609507458852734,5058822559,-0.011712,-0.767136,-0.728096,-2.89625,-19.18875,20.08125,26.744001,18.808,-15.112,none,4,3.0,33186.0,185429.0,77849.0,187907.0,84698.0
2026-04-14 18:06:05.221884,740004,1609507458861680,5058831270,-0.011712,-0.767136,-0.728096,-6.93,-18.17375,19.62625,26.744001,18.808,-15.112,none,4,3.0,33186.0,185429.0,77849.0,187907.0,84698.0
2026-04-14 18:06:05.252076,740015,1609507458876271,5058846216,0.027328,-0.86864,-0.784704,-11.8825,-16.695,18.55,27.544,18.504002,-16.048,none,4,3.0,32861.0,187255.0,77097.0,189619.0,83812.0
2026-04-14 18:06:05.254563,740016,1609507458885333,5058854922,0.027328,-0.86864,-0.784704,-15.0325,-16.07375,16.21375,27.544,18.504002,-16.048,none,4,3.0,32861.0,187255.0,77097.0,189619.0,83812.0
2026-04-14 18:06:05.262073,740017,1609507458899850,5058869877,0.05856,-0.804224,-0.626592,-10.8325,-14.25375,17.07125,25.960001,18.688002,-14.376,none,4,3.0,32861.0,187255.0,77097.0,189619.0,83812.0
2026-04-14 18:06:05.269455,740018,1609507458908779,5058878694,-0.052704,-0.862784,-0.806176,-8.16375,-12.8625,18.82125,27.632002,18.264,-16.656,none,4,3.0,32861.0,187255.0,77097.0,189619.0,83812.0
2026-04-14 18:06:05.284619,740019,1609507458923273,5058893612,-0.052704,-0.862784,-0.806176,-13.46625,-10.9025,16.38875,27.632002,18.264,-16.656,none,4,3.0,32861.0,187255.0,77097.0,189619.0,83812.0
2026-04-14 18:06:05.292984,740020,1609507458932221,5058902302,-0.064416,-0.845216,-0.796416,-11.165,-8.04125,13.72875,27.656002,18.240002,-16.272001,none,4,3.0,32861.0,187255.0,77097.0,189619.0,83812.0
2026-04-14 18:06:05.302962,740021,1609507458941244,5058911130,-0.064416,-0.845216,-0.796416,-4.235,-7.49,14.8225,27.656002,18.240002,-16.272001,none,4,3.0,32861.0,187255.0,77097.0,189619.0,83812.0
2026-04-14 18:06:05.319387,740022,1609507458955765,5058926016,-0.109312,-0.735904,-0.67344,0.23625,-7.455,13.22125,27.768002,18.096,-15.208001,none,4,3.0,32861.0,187255.0,77097.0,189619.0,83812.0
2026-04-14 18:06:05.350453,740033,1609507458965427,5058934782,-0.109312,-0.735904,-0.67344,-1.75875,-7.91,12.705,27.768002,18.096,-15.208001,none,4,3.0,33455.0,190386.0,77945.0,192450.0,84911.0
2026-04-14 18:06:05.353354,740034,1609507458974738,5058943569,-0.105408,-0.763232,-0.591456,-7.30625,-8.4525,10.15875,27.36,17.672,-14.904,none,4,3.0,33455.0,190386.0,77945.0,192450.0,84911.0
2026-04-14 18:06:05.355801,740035,1609507458989717,5058958467,-0.083936,-0.79056,-0.552416,-9.205,-8.88125,8.95125,27.184002,17.640001,-15.032001,none,4,3.0,33455.0,190386.0,77945.0,192450.0,84911.0
2026-04-14 18:06:05.359118,740036,1609507458999020,5058969269,-0.083936,-0.79056,-0.552416,-6.405,-8.82875,8.7325,27.184002,17.640001,-15.032001,none,4,3.0,33455.0,190386.0,77945.0,192450.0,84911.0
2026-04-14 18:06:05.374185,740037,1609507459013552,5058982113,-0.1464,-0.74176,-0.577792,-0.8575,-9.54625,8.1725,28.256,17.344002,-17.128,none,4,3.0,33455.0,190386.0,77945.0,192450.0,84911.0
2026-04-14 18:06:05.385792,740038,1609507459023145,5058992866,-0.1464,-0.74176,-0.577792,3.15,-11.36625,8.65375,28.256,17.344002,-17.128,none,4,3.0,33455.0,190386.0,77945.0,192450.0,84911.0
2026-04-14 18:06:05.394862,740039,1609507459032098,5059001585,-0.144448,-0.80032,-0.71248,1.96,-12.95,7.07,28.168001,17.528002,-15.040001,none,4,3.0,33455.0,190386.0,77945.0,192450.0,84911.0
2026-04-14 18:06:05.409132,740040,1609507459046606,5059016489,-0.144448,-0.80032,-0.597312,-1.015,-15.05,5.075,28.168001,17.528002,-15.040001,none,4,3.0,33455.0,190386.0,77945.0,192450.0,84911.0
2026-04-14 18:06:05.417844,740041,1609507459055555,5059025182,-0.052704,-0.774944,-0.597312,-1.63625,-15.645,6.4925,27.912,17.656,-12.648001,none,4,3.0,33455.0,190386.0,77945.0,192450.0,84911.0
2026-04-14 18:06:05.511649,740052,1609507459070118,5059040205,-0.0488,-0.763232,-0.577792,-0.7175,-13.69375,5.99375,28.880001,17.12,-15.800001,none,4,3.0,33262.0,190038.0,77570.0,192054.0,84565.0
2026-04-14 18:06:05.514239,740053,1609507459079041,5059048944,-0.0488,-0.763232,-0.577792,-0.63875,-12.76625,4.73375,28.880001,17.12,-15.800001,none,4,3.0,33262.0,190038.0,77570.0,192054.0,84565.0
2026-04-14 18:06:05.516002,740054,1609507459087939,5059057606,-0.046848,-0.784704,-0.603168,-2.31875,-12.705,4.5675,26.680002,17.424002,-14.672001,none,4,3.0,33262.0,190038.0,77570.0,192054.0,84565.0
2026-04-14 18:06:05.519181,740055,1609507459102445,5059072515,-0.046848,-0.784704,-0.603168,-5.81,-12.1625,3.395,26.680002,17.424002,-14.672001,none,4,3.0,33262.0,190038.0,77570.0,192054.0,84565.0
2026-04-14 18:06:05.521175,740056,1609507459111422,5059081183,-0.02928,-0.8296,-0.646112,-7.86625,-11.05125,2.6425,27.912,17.240002,-14.616001,none,4,3.0,33262.0,190038.0,77570.0,192054.0,84565.0
2026-04-14 18:06:05.545315,740057,1609507459126076,5059096143,-0.02928,-0.8296,-0.646112,-8.65375,-9.91375,2.1,27.912,17.240002,-14.616001,none,4,3.0,33262.0,190038.0,77570.0,192054.0,84565.0
2026-04-14 18:06:05.557820,740058,1609507459135212,5059104845,-0.001952,-0.835456,-0.622688,-5.57375,-6.5975,3.36875,27.824001,17.424002,-15.008,none,4,3.0,33262.0,190038.0,77570.0,192054.0,84565.0
2026-04-14 18:06:05.560459,740059,1609507459149713,5059119758,-0.101504,-0.825696,-0.808128,-2.63375,-2.4675,1.925,28.12,17.224,-14.664001,none,4,3.0,33262.0,190038.0,77570.0,192054.0,84565.0
2026-04-14 18:06:05.562938,740060,1609507459158658,5059128460,-0.101504,-0.825696,-0.808128,0.35875,0.76125,1.4875,28.12,17.224,-14.664001,none,4,3.0,33262.0,190038.0,77570.0,192054.0,84565.0
2026-04-14 18:06:05.592995,740071,1609507459168223,5059137195,-0.08784,-0.823744,-0.825696,2.975,2.52,1.1725,27.888,17.016,-17.264,none,4,3.0,32975.0,189595.0,77054.0,191795.0,83991.0
2026-04-14 18:06:05.593438,740072,1609507459182768,5059152079,-0.08784,-0.823744,-0.825696,1.19,2.52,-0.1575,27.888,17.016,-17.264,none,4,3.0,32975.0,189595.0,77054.0,191795.0,83991.0
2026-04-14 18:06:05.595175,740073,1609507459191713,5059160834,0.046848,-0.851072,-0.679296,-4.795,1.5225,-1.5575,28.856,17.12,-15.728001,none,4,3.0,32975.0,189595.0,77054.0,191795.0,83991.0
2026-04-14 18:06:05.604188,740074,1609507459206386,5059175802,0.046848,-0.851072,-0.679296,-8.58375,2.7475,-1.89,28.856,17.12,-15.728001,none,4,3.0,32975.0,189595.0,77054.0,191795.0,83991.0
2026-04-14 18:06:05.604288,740075,1609507459215530,5059184592,-0.0488,-0.794464,-0.659776,-8.28625,4.8125,-4.01625,28.840002,16.864,-16.640001,none,4,3.0,32975.0,189595.0,77054.0,191795.0,83991.0
2026-04-14 18:06:05.605246,740076,1609507459224557,5059193362,-0.0488,-0.794464,-0.659776,-7.55125,5.94125,-4.6725,28.840002,16.864,-16.640001,none,4,3.0,32975.0,189595.0,77054.0,191795.0,83991.0
2026-04-14 18:06:05.605345,740077,1609507459239548,5059208434,0.001952,-0.853024,-0.681248,-9.33625,6.65875,-5.92375,28.424002,17.096,-15.856001,none,4,3.0,32975.0,189595.0,77054.0,191795.0,83991.0
2026-04-14 18:06:05.607707,740078,1609507459248491,5059217156,-0.011712,-0.8296,-0.685152,-8.18125,7.28,-6.6325,28.424002,16.976002,-16.832,none,4,3.0,32975.0,189595.0,77054.0,191795.0,83991.0
2026-04-14 18:06:05.617935,740079,1609507459257721,5059227890,-0.011712,-0.8296,-0.685152,-5.25875,6.65875,-6.95625,28.304,16.976002,-16.832,none,4,3.0,32975.0,189595.0,77054.0,191795.0,83991.0
2026-04-14 18:06:05.652961,740090,1609507459272338,5059240800,-0.119072,-0.769088,-0.786656,-2.45,6.2125,-7.14,27.672,17.272001,-16.256,none,4,3.0,33949.0,194271.0,78699.0,195479.0,85920.0
2026-04-14 18:06:05.655786,740091,1609507459281787,5059251638,-0.119072,-0.769088,-0.786656,-1.9775,5.4075,-7.07875,27.672,17.272001,-16.256,none,4,3.0,33949.0,194271.0,78699.0,195479.0,85920.0
2026-04-14 18:06:05.657902,740092,1609507459296417,5059266618,-0.02928,-0.749568,-0.554368,-3.08875,4.73375,-7.2625,28.696001,17.008001,-15.904,none,4,3.0,33949.0,194271.0,78699.0,195479.0,85920.0
2026-04-14 18:06:05.665758,740093,1609507459305383,5059275335,-0.02928,-0.749568,-0.554368,-3.5,4.24375,-7.48125,28.696001,17.008001,-15.904,none,4,3.0,33949.0,194271.0,78699.0,195479.0,85920.0
2026-04-14 18:06:05.674026,740094,1609507459314335,5059284024,-0.025376,-0.765184,-0.534848,-4.38375,2.52875,-8.295,28.448002,17.160002,-15.952001,none,4,3.0,33949.0,194271.0,78699.0,195479.0,85920.0
2026-04-14 18:06:05.690447,740095,1609507459328812,5059299001,-0.02928,-0.75152,-0.52704,-5.6525,0.21,-8.2775,28.448002,17.160002,-14.616001,none,4,3.0,33949.0,194271.0,78699.0,195479.0,85920.0
2026-04-14 18:06:05.700149,740096,1609507459337742,5059307691,-0.02928,-0.75152,-0.52704,-4.34875,-0.385,-8.33875,28.448002,17.224,-14.616001,none,4,3.0,33949.0,194271.0,78699.0,195479.0,85920.0
2026-04-14 18:06:05.712857,740097,1609507459352278,5059322622,-0.056608,-0.76128,-0.75152,-1.715,-0.2625,-8.26,27.800001,17.76,-15.072001,none,4,3.0,33949.0,194271.0,78699.0,195479.0,85920.0
2026-04-14 18:06:05.721689,740098,1609507459361220,5059331338,-0.056608,-0.76128,-0.75152,0.60375,0.2275,-7.69125,27.800001,17.76,-15.072001,none,4,3.0,33949.0,194271.0,78699.0,195479.0,85920.0
2026-04-14 18:06:05.755163,740109,1609507459375810,5059344310,-0.06832,-0.724192,-0.57584,2.205,1.26875,-7.07875,27.52,17.752,-16.176,none,4,3.0,34114.0,194523.0,78929.0,195518.0,86260.0
2026-04-14 18:06:05.757806,740110,1609507459385143,5059355122,-0.06832,-0.724192,-0.57584,1.5925,1.505,-6.79,27.52,17.752,-16.176,none,4,3.0,34114.0,194523.0,78929.0,195518.0,86260.0
2026-04-14 18:06:05.760117,740111,1609507459394102,5059363948,-0.013664,-0.772992,-0.562176,-0.7175,1.35625,-6.335,27.728,17.76,-15.160001,none,4,3.0,34114.0,194523.0,78929.0,195518.0,86260.0
2026-04-14 18:06:05.768935,740112,1609507459408678,5059378973,-0.013664,-0.772992,-0.562176,-2.205,1.91625,-5.45125,27.728,17.76,-15.160001,none,4,3.0,34114.0,194523.0,78929.0,195518.0,86260.0
2026-04-14 18:06:05.778852,740113,1609507459417673,5059387671,-0.052704,-0.763232,-0.622688,-1.23375,2.23125,-4.48875,28.52,17.448,-16.768002,none,4,3.0,34114.0,194523.0,78929.0,195518.0,86260.0
2026-04-14 18:06:05.817720,740114,1609507459432201,5059400559,-0.070272,-0.767136,-0.825696,0.69125,2.835,-3.29,28.376001,17.016,-15.472001,none,4,3.0,34114.0,194523.0,78929.0,195518.0,86260.0
2026-04-14 18:06:05.819763,740115,1609507459441351,5059411333,-0.070272,-0.767136,-0.825696,1.23375,2.86125,-1.435,28.376001,17.016,-15.472001,none,4,3.0,34114.0,194523.0,78929.0,195518.0,86260.0
2026-04-14 18:06:05.821612,740116,1609507459450286,5059420053,0.003904,-0.821792,-0.720288,-0.76125,3.255,-0.945,28.024002,17.52,-16.576,none,4,3.0,34114.0,194523.0,78929.0,195518.0,86260.0
2026-04-14 18:06:05.886377,740127,1609507459464798,5059435362,0.003904,-0.821792,-0.720288,-2.61625,3.38625,-0.5075,28.024002,17.52,-16.576,none,4,3.0,34392.0,196865.0,79393.0,197161.0,86856.0
2026-04-14 18:06:05.889053,740128,1609507459473842,5059444079,-0.06832,-0.757376,-0.677344,-1.9075,3.07125,0.06125,28.064001,17.36,-16.088001,none,4,3.0,34392.0,196865.0,79393.0,197161.0,86856.0
2026-04-14 18:06:05.891402,740129,1609507459488385,5059456961,-0.06832,-0.757376,-0.677344,-0.875,2.38875,0.90125,28.064001,17.36,-16.088001,none,4,3.0,34392.0,196865.0,79393.0,197161.0,86856.0
2026-04-14 18:06:05.894216,740130,1609507459497870,5059467746,0.007808,-0.798368,-0.716384,-2.2575,2.10875,1.02375,28.224,17.304,-15.832001,none,4,3.0,34392.0,196865.0,79393.0,197161.0,86856.0
2026-04-14 18:06:05.896688,740131,1609507459506840,5059476429,0.007808,-0.798368,-0.716384,-5.10125,1.26,0.18375,28.224,17.304,-15.832001,none,4,3.0,34392.0,196865.0,79393.0,197161.0,86856.0
2026-04-14 18:06:05.899228,740132,1609507459521393,5059491509,-0.044896,-0.77104,-0.603168,-6.83375,0.53375,-0.77875,28.320002,17.168001,-16.192001,none,4,3.0,34392.0,196865.0,79393.0,197161.0,86856.0
2026-04-14 18:06:05.901557,740133,1609507459530335,5059500316,-0.0976,-0.772992,-0.79056,-6.65,0.55125,-0.875,28.320002,17.592001,-13.432001,none,4,3.0,34392.0,196865.0,79393.0,197161.0,86856.0
2026-04-14 18:06:05.906505,740134,1609507459544993,5059515342,-0.0976,-0.772992,-0.79056,-5.60875,0.6125,-1.14625,28.496002,17.592001,-13.432001,none,4,3.0,34392.0,196865.0,79393.0,197161.0,86856.0
2026-04-14 18:06:05.915684,740135,1609507459553979,5059524094,-0.080032,-0.782752,-0.813984,-5.41625,0.60375,-0.97125,27.760002,17.624,-15.096001,none,4,3.0,34392.0,196865.0,79393.0,197161.0,86856.0
2026-04-14 18:06:05.952080,740146,1609507459568674,5059539221,-0.080032,-0.782752,-0.813984,-5.60875,0.6125,-1.12,27.760002,17.624,-15.096001,none,4,3.0,35236.0,201270.0,80748.0,200055.0,88391.0
2026-04-14 18:06:05.957124,740147,1609507459577816,5059547962,-0.083936,-0.798368,-0.792512,-6.67625,0.39375,-0.9275,28.400002,17.344002,-15.824,none,4,3.0,35236.0,201270.0,80748.0,200055.0,88391.0
2026-04-14 18:06:05.959005,740148,1609507459586818,5059556716,-0.083936,-0.798368,-0.792512,-5.62625,1.505,-0.58625,28.400002,17.344002,-15.824,none,4,3.0,35236.0,201270.0,80748.0,200055.0,88391.0
2026-04-14 18:06:05.961660,740149,1609507459601310,5059571592,-0.021472,-0.788608,-0.757376,-3.1325,3.21125,-0.91,27.016,17.672,-15.68,none,4,3.0,35236.0,201270.0,80748.0,200055.0,88391.0
2026-04-14 18:06:05.972436,740150,1609507459610242,5059580399,-0.021472,-0.772992,-0.806176,-1.72375,4.38375,-0.665,27.016,17.672,-15.68,none,4,3.0,35236.0,201270.0,80748.0,200055.0,88391.0
2026-04-14 18:06:05.983943,740151,1609507459624773,5059593248,-0.111264,-0.769088,-0.806176,-3.29,4.8475,-1.855,28.36,16.872002,-17.376001,none,4,3.0,35236.0,201270.0,80748.0,200055.0,88391.0
2026-04-14 18:06:05.995237,740152,1609507459634275,5059604030,-0.01952,-0.821792,-0.743712,-4.34875,4.9525,-2.56375,27.416,17.720001,-14.160001,none,4,3.0,35236.0,201270.0,80748.0,200055.0,88391.0
2026-04-14 18:06:06.005365,740153,1609507459643221,5059612774,-0.01952,-0.821792,-0.743712,-3.15,4.725,-2.45875,27.416,17.720001,-14.160001,none,4,3.0,35236.0,201270.0,80748.0,200055.0,88391.0
2026-04-14 18:06:06.018160,740154,1609507459657751,5059627767,0.003904,-0.788608,-0.665632,-1.8725,4.6025,-1.88125,28.056002,17.272001,-16.12,none,4,3.0,35236.0,201270.0,80748.0,200055.0,88391.0
2026-04-14 18:06:06.052995,740165,1609507459666700,5059636503,0.003904,-0.788608,-0.665632,-1.365,4.8475,-2.35375,28.056002,17.272001,-16.12,none,4,3.0,35770.0,203524.0,81665.0,201551.0,89435.0
2026-04-14 18:06:06.055764,740166,1609507459681225,5059651440,-0.06832,-0.763232,-0.689056,-1.86375,4.445,-3.10625,28.024002,16.992,-16.488,none,4,3.0,35770.0,203524.0,81665.0,201551.0,89435.0
2026-04-14 18:06:06.060313,740167,1609507459690173,5059660181,-0.06832,-0.763232,-0.689056,-2.03,4.06875,-3.98125,28.024002,16.992,-16.488,none,4,3.0,35770.0,203524.0,81665.0,201551.0,89435.0
2026-04-14 18:06:06.062808,740168,1609507459699159,5059668916,-0.00976,-0.788608,-0.638304,-1.16375,4.2525,-4.89125,28.344002,17.248001,-18.784,none,4,3.0,35770.0,203524.0,81665.0,201551.0,89435.0
2026-04-14 18:06:06.076601,740169,1609507459713722,5059683932,-0.03904,-0.788608,-0.788608,0.9975,4.06875,-5.705,28.056002,17.008001,-16.92,none,4,3.0,35770.0,203524.0,81665.0,201551.0,89435.0
2026-04-14 18:06:06.083267,740170,1609507459722662,5059692647,-0.03904,-0.788608,-0.788608,2.87,3.885,-5.845,28.056002,17.008001,-16.92,none,4,3.0,35770.0,203524.0,81665.0,201551.0,89435.0
2026-04-14 18:06:06.099542,740171,1609507459737292,5059707525,-0.072224,-0.782752,-0.765184,1.58375,3.01,-6.02,28.024002,17.848001,-15.832001,none,4,3.0,35770.0,203524.0,81665.0,201551.0,89435.0
2026-04-14 18:06:06.107768,740172,1609507459746395,5059716226,-0.072224,-0.782752,-0.765184,-0.805,2.695,-6.5975,28.024002,17.848001,-15.832001,none,4,3.0,35770.0,203524.0,81665.0,201551.0,89435.0
2026-04-14 18:06:06.122988,740173,1609507459760908,5059731126,-0.021472,-0.812032,-0.812032,-1.77625,2.275,-6.8775,27.44,17.856,-15.552001,none,4,3.0,35770.0,203524.0,81665.0,201551.0,89435.0
2026-04-14 18:06:06.156798,740184,1609507459769871,5059739865,-0.021472,-0.812032,-0.812032,-0.91875,2.77375,-6.79,27.44,17.856,-15.552001,none,4,3.0,35654.0,202757.0,81440.0,200885.0,89247.0
2026-04-14 18:06:06.179436,740185,1609507459778913,5059748707,-0.08784,-0.765184,-0.802272,-0.77875,3.045,-7.0875,27.656002,17.616001,-15.944001,none,4,3.0,35654.0,202757.0,81440.0,200885.0,89247.0
2026-04-14 18:06:06.204418,740186,1609507459793499,5059763647,-0.035136,-0.812032,-0.806176,-0.105,3.21125,-7.385,28.312002,17.504002,-18.784,none,4,3.0,35654.0,202757.0,81440.0,200885.0,89247.0
2026-04-14 18:06:06.229546,740187,1609507459802429,5059772357,-0.035136,-0.812032,-0.806176,-1.33875,3.40375,-7.4375,28.312002,17.504002,-18.784,none,4,3.0,35654.0,202757.0,81440.0,200885.0,89247.0
2026-04-14 18:06:06.246660,740188,1609507459816940,5059787225,-0.033184,-0.763232,-0.640256,-1.8375,3.33375,-7.65625,28.2,17.664001,-16.624,none,4,3.0,35654.0,202757.0,81440.0,200885.0,89247.0
2026-04-14 18:06:06.250732,740189,1609507459826048,5059795939,-0.033184,-0.763232,-0.640256,0.62125,3.465,-6.9825,28.2,17.664001,-16.624,none,4,3.0,35654.0,202757.0,81440.0,200885.0,89247.0
2026-04-14 18:06:06.254505,740190,1609507459835023,5059804638,-0.0488,-0.730048,-0.6832,1.715,3.42125,-7.1575,28.000002,17.904001,-16.776001,none,4,3.0,35654.0,202757.0,81440.0,200885.0,89247.0
2026-04-14 18:06:06.254601,740191,1609507459849531,5059819530,-0.0488,-0.730048,-0.6832,-0.77875,4.0075,-7.07875,28.000002,17.904001,-16.776001,none,4,3.0,35654.0,202757.0,81440.0,200885.0,89247.0
2026-04-14 18:06:06.256462,740192,1609507459858466,5059828202,-0.023424,-0.772992,-0.609024,-3.3075,4.15625,-8.636251,27.744001,17.616001,-16.712,none,4,3.0,35654.0,202757.0,81440.0,200885.0,89247.0
2026-04-14 18:06:06.289482,740203,1609507459873100,5059843120,0.003904,-0.804224,-0.76128,-3.05375,3.87625,-8.3475,28.008001,17.568,-16.792002,none,4,3.0,35926.0,204632.0,81908.0,202264.0,89768.0
2026-04-14 18:06:06.291761,740204,1609507459882041,5059851794,0.003904,-0.804224,-0.76128,-2.205,3.115,-7.60375,28.008001,17.568,-16.792002,none,4,3.0,35926.0,204632.0,81908.0,202264.0,89768.0
2026-04-14 18:06:06.294533,740205,1609507459896752,5059866742,0.033184,-0.7808,-0.59536,-3.4475,2.45,-7.49,27.816002,17.504002,-17.152,none,4,3.0,35926.0,204632.0,81908.0,202264.0,89768.0
2026-04-14 18:06:06.297079,740206,1609507459905716,5059875454,0.033184,-0.7808,-0.59536,-2.33625,2.82625,-7.13125,27.816002,17.504002,-17.152,none,4,3.0,35926.0,204632.0,81908.0,202264.0,89768.0
2026-04-14 18:06:06.299577,740207,1609507459914763,5059884173,-0.056608,-0.74176,-0.646112,-0.7525,2.45,-6.7725,27.992,17.816,-16.424002,none,4,3.0,35926.0,204632.0,81908.0,202264.0,89768.0
2026-04-14 18:06:06.302091,740208,1609507459929326,5059899140,-0.056608,-0.74176,-0.646112,-0.9975,1.79375,-5.71375,27.992,17.816,-16.424002,none,4,3.0,35926.0,204632.0,81908.0,202264.0,89768.0
2026-04-14 18:06:06.304684,740209,1609507459938316,5059907841,-0.0488,-0.798368,-0.804224,-1.42625,1.46125,-5.50375,27.080002,18.272001,-15.960001,none,4,3.0,35926.0,204632.0,81908.0,202264.0,89768.0
2026-04-14 18:06:06.315859,740210,1609507459952880,5059922779,0.011712,-0.745664,-0.538752,-1.0675,0.5075,-5.7575,27.080002,18.272001,-17.696001,none,4,3.0,35926.0,204632.0,81908.0,202264.0,89768.0
2026-04-14 18:06:06.322924,740211,1609507459961792,5059931580,0.011712,-0.745664,-0.538752,0.44625,0.02625,-4.87375,26.952002,17.616001,-17.696001,none,4,3.0,35926.0,204632.0,81908.0,202264.0,89768.0
2026-04-14 18:06:06.353818,740222,1609507459971023,5059940391,0.011712,-0.745664,-0.538752,0.8925,0.035,-5.13625,26.952002,17.616001,-17.696001,none,4,3.0,36711.0,208301.0,83284.0,204790.0,91210.0
2026-04-14 18:06:06.357001,740223,1609507459985678,5059955437,-0.025376,-0.76128,-0.79056,-1.575,-0.62125,-4.61125,27.400002,17.824001,-17.160002,none,4,3.0,36711.0,208301.0,83284.0,204790.0,91210.0
2026-04-14 18:06:06.359430,740224,1609507459994765,5059964191,0.056608,-0.81008,-0.665632,-5.71375,-1.00625,-4.66375,27.352001,18.28,-16.256,none,4,3.0,36711.0,208301.0,83284.0,204790.0,91210.0
2026-04-14 18:06:06.370684,740225,1609507460009359,5059979172,0.056608,-0.81008,-0.665632,-7.945,-1.39125,-4.20875,27.352001,18.28,-16.256,none,4,3.0,36711.0,208301.0,83284.0,204790.0,91210.0
2026-04-14 18:06:06.379351,740226,1609507460018305,5059987858,0.046848,-0.774944,-0.589504,-8.32125,-1.72375,-5.3025,27.680002,18.144001,-16.056002,none,4,3.0,36711.0,208301.0,83284.0,204790.0,91210.0
2026-04-14 18:06:06.389482,740227,1609507460027232,5059996552,0.046848,-0.774944,-0.589504,-7.035,-2.24875,-4.445,27.680002,18.144001,-16.056002,none,4,3.0,36711.0,208301.0,83284.0,204790.0,91210.0
2026-04-14 18:06:06.402065,740228,1609507460041741,5060011561,0.03904,-0.753472,-0.568032,-7.6125,-3.07125,-4.76,27.216002,18.336,-16.408,none,4,3.0,36711.0,208301.0,83284.0,204790.0,91210.0
2026-04-14 18:06:06.412040,740229,1609507460050676,5060020291,0.03904,-0.753472,-0.568032,-9.42375,-2.66875,-4.43625,27.216002,18.336,-16.408,none,4,3.0,36711.0,208301.0,83284.0,204790.0,91210.0
2026-04-14 18:06:06.428310,740230,1609507460065261,5060035187,-0.015616,-0.753472,-0.55632,-10.05375,-3.42125,-4.01625,26.944002,18.12,-16.864,none,4,3.0,36711.0,208301.0,83284.0,204790.0,91210.0
2026-04-14 18:06:06.455633,740241,1609507460074362,5060043935,-0.017568,-0.739808,-0.5368,-9.17,-4.06875,-3.64,27.680002,17.888,-16.616001,none,4,3.0,36802.0,207908.0,83511.0,204520.0,91503.0
2026-04-14 18:06:06.457859,740242,1609507460088921,5060058838,-0.017568,-0.739808,-0.5368,-6.9125,-4.1475,-2.275,27.680002,17.888,-16.616001,none,4,3.0,36802.0,207908.0,83511.0,204520.0,91503.0
2026-04-14 18:06:06.460702,740243,1609507460097914,5060067526,0.015616,-0.757376,-0.648064,-5.29375,-4.62,-1.60125,27.552002,17.656,-16.896,none,4,3.0,36802.0,207908.0,83511.0,204520.0,91503.0
2026-04-14 18:06:06.468164,740244,1609507460106965,5060076286,0.015616,-0.757376,-0.648064,-3.78875,-4.8125,-0.8575,27.552002,17.656,-16.896,none,4,3.0,36802.0,207908.0,83511.0,204520.0,91503.0
2026-04-14 18:06:06.484540,740245,1609507460121457,5060091251,-0.056608,-0.757376,-0.767136,-2.12625,-4.96125,-0.4725,27.784,17.92,-15.992001,none,4,3.0,36802.0,207908.0,83511.0,204520.0,91503.0
2026-04-14 18:06:06.490836,740246,1609507460130426,5060099937,-0.056608,-0.757376,-0.767136,-2.0825,-5.41625,0.035,27.784,17.92,-15.992001,none,4,3.0,36802.0,207908.0,83511.0,204520.0,91503.0
2026-04-14 18:06:06.507027,740247,1609507460145007,5060114878,0.003904,-0.74176,-0.528992,-0.175,-5.01375,1.37375,27.848001,18.152,-16.536001,none,4,3.0,36802.0,207908.0,83511.0,204520.0,91503.0
2026-04-14 18:06:06.514573,740248,1609507460153929,5060123635,0.003904,-0.753472,-0.569984,0.69125,-4.9175,1.26,27.848001,18.152,-14.488001,none,4,3.0,36802.0,207908.0,83511.0,204520.0,91503.0
2026-04-14 18:06:06.546869,740249,1609507460168422,5060138577,0.015616,-0.753472,-0.569984,1.3475,-5.285,2.45,27.536001,17.672,-14.408001,none,4,3.0,36802.0,207908.0,83511.0,204520.0,91503.0
2026-04-14 18:06:06.617070,740260,1609507460177374,5060147335,-0.072224,-0.763232,-0.788608,2.38875,-6.1075,2.905,27.976002,17.720001,-16.528,none,4,3.0,36615.0,206711.0,83162.0,203519.0,91185.0
2026-04-14 18:06:06.621273,740261,1609507460186341,5060156028,-0.072224,-0.763232,-0.788608,2.7475,-7.1925,3.71875,27.976002,17.720001,-16.528,none,4,3.0,36615.0,206711.0,83162.0,203519.0,91185.0
2026-04-14 18:06:06.621625,740262,1609507460200842,5060170922,0.062464,-0.812032,-0.671488,2.07375,-8.42625,4.47125,28.144001,17.744001,-16.864,none,4,3.0,36615.0,206711.0,83162.0,203519.0,91185.0
2026-04-14 18:06:06.623853,740263,1609507460209792,5060179610,0.062464,-0.812032,-0.671488,1.21625,-9.3275,4.50625,28.144001,17.744001,-16.864,none,4,3.0,36615.0,206711.0,83162.0,203519.0,91185.0
2026-04-14 18:06:06.627226,740264,1609507460224301,5060194661,-0.007808,-0.835456,-0.841312,-0.1925,-8.75,4.19125,28.328001,17.768002,-16.432001,none,4,3.0,36615.0,206711.0,83162.0,203519.0,91185.0
2026-04-14 18:06:06.629216,740265,1609507460233177,5060203369,-0.007808,-0.835456,-0.841312,-1.96875,-8.91625,4.01625,28.328001,17.768002,-16.432001,none,4,3.0,36615.0,206711.0,83162.0,203519.0,91185.0
2026-04-14 18:06:06.631948,740266,1609507460247699,5060216219,-0.01952,-0.83936,-0.798368,-2.51125,-8.88125,4.47125,28.064001,17.344002,-15.672001,none,4,3.0,36615.0,206711.0,83162.0,203519.0,91185.0
2026-04-14 18:06:06.633943,740267,1609507460257243,5060226993,0.044896,-0.845216,-0.733952,-3.56125,-8.8375,4.24375,28.480001,17.584002,-16.288,none,4,3.0,36615.0,206711.0,83162.0,203519.0,91185.0
2026-04-14 18:06:06.636350,740268,1609507460266228,5060235824,0.044896,-0.845216,-0.733952,-3.5,-8.4,4.3225,28.480001,17.584002,-16.288,none,4,3.0,36615.0,206711.0,83162.0,203519.0,91185.0
2026-04-14 18:06:06.664549,740279,1609507460280891,5060250827,-0.085888,-0.79056,-0.81008,-3.78,-7.49,3.57875,28.2,17.288,-16.264,none,4,3.0,36529.0,207323.0,83030.0,203944.0,91098.0
2026-04-14 18:06:06.667049,740280,1609507460289977,5060259536,-0.085888,-0.79056,-0.81008,-4.97875,-7.28,3.10625,28.2,17.288,-16.264,none,4,3.0,36529.0,207323.0,83030.0,203944.0,91098.0
2026-04-14 18:06:06.669535,740281,1609507460304524,5060274547,-0.083936,-0.812032,-0.841312,-7.4375,-6.15125,1.96,28.408,17.640001,-15.768001,none,4,3.0,36529.0,207323.0,83030.0,203944.0,91098.0
2026-04-14 18:06:06.674131,740282,1609507460313482,5060283243,-0.083936,-0.812032,-0.841312,-8.7325,-4.935,1.18125,28.408,17.640001,-15.768001,none,4,3.0,36529.0,207323.0,83030.0,203944.0,91098.0
2026-04-14 18:06:06.683043,740283,1609507460322414,5060291936,-0.080032,-0.772992,-0.657824,-8.61,-3.465,0.385,28.344002,17.808,-13.328001,none,4,3.0,36529.0,207323.0,83030.0,203944.0,91098.0
2026-04-14 18:06:06.699556,740284,1609507460336867,5060306813,-0.052704,-0.776896,-0.726144,-7.805,-2.30125,-0.74375,27.480001,17.68,-17.496,none,4,3.0,36529.0,207323.0,83030.0,203944.0,91098.0
2026-04-14 18:06:06.705779,740285,1609507460345804,5060315512,-0.052704,-0.776896,-0.726144,-6.3875,-1.26,-1.6275,27.480001,17.68,-17.496,none,4,3.0,36529.0,207323.0,83030.0,203944.0,91098.0
2026-04-14 18:06:06.722025,740286,1609507460360477,5060330451,-0.138592,-0.755424,-0.835456,-4.69875,0.0,-3.325,28.232002,17.12,-16.288,none,4,3.0,36529.0,207323.0,83030.0,203944.0,91098.0
2026-04-14 18:06:06.730667,740287,1609507460369550,5060339141,-0.138592,-0.755424,-0.835456,-3.22,1.05875,-4.57625,28.232002,17.12,-16.288,none,4,3.0,36529.0,207323.0,83030.0,203944.0,91098.0
2026-04-14 18:06:06.758025,740298,1609507460378531,5060347903,-0.1464,-0.749568,-0.681248,-2.94875,1.26875,-5.01375,28.392002,17.12,-16.224,none,4,3.0,36848.0,208278.0,83678.0,204613.0,91736.0
2026-04-14 18:06:06.760440,740299,1609507460393192,5060362976,-0.1464,-0.749568,-0.681248,-3.15,0.86625,-5.83625,28.392002,17.12,-16.224,none,4,3.0,36848.0,208278.0,83678.0,204613.0,91736.0
2026-04-14 18:06:06.763297,740300,1609507460402134,5060371777,-0.101504,-0.732,-0.554368,-1.1725,0.6475,-5.99375,28.712002,17.352001,-16.424002,none,4,3.0,36848.0,208278.0,83678.0,204613.0,91736.0
2026-04-14 18:06:06.776515,740301,1609507460416690,5060386697,-0.017568,-0.755424,-0.573888,2.1175,0.5425,-6.265,27.464,17.776001,-16.272001,none,4,3.0,36848.0,208278.0,83678.0,204613.0,91736.0
2026-04-14 18:06:06.786649,740302,1609507460425592,5060395416,-0.017568,-0.755424,-0.573888,3.38625,-0.49875,-5.67875,27.464,17.776001,-16.272001,none,4,3.0,36848.0,208278.0,83678.0,204613.0,91736.0
2026-04-14 18:06:06.805154,740303,1609507460440110,5060410310,-0.091744,-0.749568,-0.64416,3.5,-0.7175,-4.62875,27.664001,17.184,-16.408,none,4,3.0,36848.0,208278.0,83678.0,204613.0,91736.0
2026-04-14 18:06:06.826631,740304,1609507460449215,5060419018,-0.091744,-0.749568,-0.64416,3.66625,-0.27125,-4.87375,27.664001,17.184,-16.408,none,4,3.0,36848.0,208278.0,83678.0,204613.0,91736.0
2026-04-14 18:06:06.836631,740305,1609507460458216,5060427733,-0.0976,-0.77104,-0.774944,4.7425,-0.665,-4.50625,27.512001,17.576,-15.56,none,4,3.0,36848.0,208278.0,83678.0,204613.0,91736.0
2026-04-14 18:06:06.864215,740316,1609507460472784,5060443157,-0.0976,-0.77104,-0.774944,5.845,-0.6475,-3.955,27.512001,17.576,-15.56,none,4,3.0,36298.0,205356.0,82700.0,202432.0,90776.0
2026-04-14 18:06:06.866660,740317,1609507460481779,5060451890,0.037088,-0.806176,-0.601216,5.80125,-0.035,-3.99,27.2,18.032001,-15.248001,none,4,3.0,36298.0,205356.0,82700.0,202432.0,90776.0
2026-04-14 18:06:06.869250,740318,1609507460496353,5060464762,-0.005856,-0.806176,-0.796416,4.96125,0.53375,-3.96375,27.2,18.032001,-14.448001,none,4,3.0,36298.0,205356.0,82700.0,202432.0,90776.0
2026-04-14 18:06:06.871763,740319,1609507460505607,5060475554,-0.005856,-0.806176,-0.796416,5.53,1.65375,-3.185,27.504002,18.112001,-14.448001,none,4,3.0,36298.0,205356.0,82700.0,202432.0,90776.0
2026-04-14 18:06:06.875415,740320,1609507460514553,5060484274,-0.005856,-0.806176,-0.796416,6.57125,2.59875,-2.52875,27.504002,18.112001,-14.448001,none,4,3.0,36298.0,205356.0,82700.0,202432.0,90776.0
2026-04-14 18:06:06.890585,740321,1609507460529149,5060499304,-0.044896,-0.759328,-0.64416,4.095,2.2225,-3.03625,27.352001,17.800001,-14.56,none,4,3.0,36298.0,205356.0,82700.0,202432.0,90776.0
2026-04-14 18:06:06.915362,740322,1609507460538186,5060508010,-0.064416,-0.804224,-0.745664,0.49,2.05625,-3.14125,27.512001,17.84,-15.184001,none,4,3.0,36298.0,205356.0,82700.0,202432.0,90776.0
2026-04-14 18:06:06.940466,740323,1609507460552747,5060523004,-0.064416,-0.804224,-0.745664,-2.2575,2.835,-3.15875,27.512001,17.84,-15.184001,none,4,3.0,36298.0,205356.0,82700.0,202432.0,90776.0
2026-04-14 18:06:06.960474,740324,1609507460561676,5060531721,0.013664,-0.776896,-0.564128,-2.3975,2.485,-2.8525,27.272001,18.0,-15.280001,none,4,3.0,36298.0,205356.0,82700.0,202432.0,90776.0
2026-04-14 18:06:06.963043,740325,1609507460570639,5060540437,0.013664,-0.776896,-0.564128,-2.17,3.10625,-1.75875,27.272001,18.0,-15.280001,none,4,3.0,36298.0,205356.0,82700.0,202432.0,90776.0
2026-04-14 18:06:06.992668,740336,1609507460585179,5060555397,-0.060512,-0.747616,-0.655872,-2.625,3.73625,-1.995,27.176,17.712,-14.744,none,4,3.0,36318.0,206039.0,82782.0,203117.0,90832.0
2026-04-14 18:06:06.993132,740337,1609507460594138,5060564076,-0.060512,-0.747616,-0.655872,-5.075,3.5,-1.81125,27.176,17.712,-14.744,none,4,3.0,36318.0,206039.0,82782.0,203117.0,90832.0
2026-04-14 18:06:06.995219,740338,1609507460608766,5060579109,-0.042944,-0.778848,-0.640256,-7.98875,2.7475,-1.42625,27.256,18.08,-14.120001,none,4,3.0,36318.0,206039.0,82782.0,203117.0,90832.0
2026-04-14 18:06:07.000590,740339,1609507460617979,5060587863,-0.046848,-0.747616,-0.593408,-9.09125,2.21375,-1.47875,26.464,18.384,-14.328001,none,4,3.0,36318.0,206039.0,82782.0,203117.0,90832.0
2026-04-14 18:06:07.003307,740340,1609507460632571,5060602779,-0.046848,-0.747616,-0.593408,-7.6475,2.52,-1.155,26.464,18.384,-14.328001,none,4,3.0,36318.0,206039.0,82782.0,203117.0,90832.0
2026-04-14 18:06:07.005335,740341,1609507460641569,5060611524,-0.083936,-0.749568,-0.784704,-6.265,2.96625,-1.09375,26.136002,17.768002,-15.192,none,4,3.0,36318.0,206039.0,82782.0,203117.0,90832.0
2026-04-14 18:06:07.011576,740342,1609507460650581,5060620289,-0.083936,-0.749568,-0.784704,-6.43125,2.86125,-0.98875,26.136002,17.768002,-15.192,none,4,3.0,36318.0,206039.0,82782.0,203117.0,90832.0
2026-04-14 18:06:07.025263,740343,1609507460665084,5060635247,-0.00976,-0.788608,-0.636352,-7.09625,1.82875,-1.04125,28.184002,17.432001,-16.784,none,4,3.0,36318.0,206039.0,82782.0,203117.0,90832.0
2026-04-14 18:06:07.057990,740354,1609507460674549,5060644211,-0.00976,-0.788608,-0.636352,-8.77625,0.98875,-1.75,28.184002,17.432001,-16.784,none,4,3.0,37265.0,210879.0,84439.0,206615.0,92544.0
2026-04-14 18:06:07.060824,740355,1609507460689205,5060659157,-0.007808,-0.802272,-0.67344,-8.4875,0.74375,-1.09375,28.400002,17.480001,-16.52,none,4,3.0,37265.0,210879.0,84439.0,206615.0,92544.0
2026-04-14 18:06:07.063360,740356,1609507460698166,5060667948,-0.052704,-0.755424,-0.704672,-6.09875,0.67375,-1.96,27.04,17.616001,-15.400001,none,4,3.0,37265.0,210879.0,84439.0,206615.0,92544.0
2026-04-14 18:06:07.068963,740357,1609507460707099,5060676649,-0.052704,-0.755424,-0.704672,-2.5725,0.6825,-0.735,27.04,17.616001,-15.400001,none,4,3.0,37265.0,210879.0,84439.0,206615.0,92544.0
2026-04-14 18:06:07.086486,740358,1609507460721766,5060691570,-0.074176,-0.77104,-0.804224,-0.665,0.83125,-1.155,27.216002,17.376001,-16.584002,none,4,3.0,37265.0,210879.0,84439.0,206615.0,92544.0
2026-04-14 18:06:07.090358,740359,1609507460730847,5060700302,-0.074176,-0.77104,-0.804224,-1.19,0.21,-1.82,27.216002,17.376001,-16.584002,none,4,3.0,37265.0,210879.0,84439.0,206615.0,92544.0
2026-04-14 18:06:07.105637,740360,1609507460745321,5060715199,0.015616,-0.815936,-0.655872,-2.73875,-1.04125,-1.79375,28.136002,16.904001,-16.240002,none,4,3.0,37265.0,210879.0,84439.0,206615.0,92544.0
2026-04-14 18:06:07.114051,740361,1609507460754246,5060723916,0.015616,-0.815936,-0.655872,-3.57875,-1.60125,-1.9425,28.136002,16.904001,-16.240002,none,4,3.0,37265.0,210879.0,84439.0,206615.0,92544.0
2026-04-14 18:06:07.125283,740362,1609507460763183,5060732623,-0.06832,-0.757376,-0.694912,-1.715,-1.47875,-2.275,28.384,17.52,-16.480001,none,4,3.0,37265.0,210879.0,84439.0,206615.0,92544.0
2026-04-14 18:06:07.160471,740373,1609507460777970,5060747712,-0.06832,-0.772992,-0.83936,-0.35875,-1.44375,-2.75625,28.384,17.52,-16.480001,none,4,3.0,37558.0,211479.0,84926.0,206926.0,93123.0
2026-04-14 18:06:07.163305,740374,1609507460786935,5060756438,-0.066368,-0.776896,-0.83936,-0.2625,-1.19875,-2.7125,28.008001,17.560001,-15.096001,none,4,3.0,37558.0,211479.0,84926.0,206926.0,93123.0
2026-04-14 18:06:07.165809,740375,1609507460801475,5060771383,-0.001952,-0.81984,-0.743712,-1.51375,-1.00625,-3.6575,28.024002,17.28,-16.216002,none,4,3.0,37558.0,211479.0,84926.0,206926.0,93123.0
2026-04-14 18:06:07.170799,740376,1609507460810495,5060780129,-0.001952,-0.81984,-0.743712,-3.52625,-1.225,-4.095,28.024002,17.28,-16.216002,none,4,3.0,37558.0,211479.0,84926.0,206926.0,93123.0
2026-04-14 18:06:07.186320,740377,1609507460824983,5060795025,-0.064416,-0.808128,-0.833504,-4.15625,-1.47875,-4.71625,27.784,17.304,-16.232,none,4,3.0,37558.0,211479.0,84926.0,206926.0,93123.0
2026-04-14 18:06:07.193983,740378,1609507460833939,5060803718,-0.064416,-0.808128,-0.833504,-2.24875,-1.28625,-4.27,27.784,17.304,-16.232,none,4,3.0,37558.0,211479.0,84926.0,206926.0,93123.0
2026-04-14 18:06:07.204401,740379,1609507460842985,5060812421,-0.081984,-0.74176,-0.69296,-0.35875,-1.4175,-3.94625,28.024002,17.104,-16.432001,none,4,3.0,37558.0,211479.0,84926.0,206926.0,93123.0
2026-04-14 18:06:07.221431,740380,1609507460857477,5060827383,-0.081984,-0.74176,-0.69296,-0.2975,-0.90125,-4.1475,28.024002,17.104,-16.432001,none,4,3.0,37558.0,211479.0,84926.0,206926.0,93123.0
2026-04-14 18:06:07.226929,740381,1609507460866376,5060836081,-0.081984,-0.77104,-0.827648,-1.74125,-1.26,-4.4275,28.176,17.536001,-15.6,none,4,3.0,37558.0,211479.0,84926.0,206926.0,93123.0
2026-04-14 18:06:07.306998,740392,1609507460881045,5060849473,-0.05856,-0.7808,-0.813984,-1.95125,-1.33,-4.8825,28.024002,17.432001,-15.536001,none,4,3.0,37369.0,210087.0,84595.0,205850.0,92816.0
2026-04-14 18:06:07.309452,740393,1609507460890494,5060860363,-0.05856,-0.7808,-0.813984,-2.52875,-1.1025,-5.50375,28.024002,17.432001,-15.536001,none,4,3.0,37369.0,210087.0,84595.0,205850.0,92816.0
2026-04-14 18:06:07.311555,740394,1609507460899500,5060869112,-0.017568,-0.784704,-0.650016,-4.26125,-1.61875,-5.495,27.480001,17.536001,-13.992001,none,4,3.0,37369.0,210087.0,84595.0,205850.0,92816.0
2026-04-14 18:06:07.314495,740395,1609507460914050,5060883991,-0.017568,-0.784704,-0.650016,-4.06,-0.6475,-5.55625,27.480001,17.536001,-13.992001,none,4,3.0,37369.0,210087.0,84595.0,205850.0,92816.0
2026-04-14 18:06:07.317046,740396,1609507460922996,5060892676,-0.005856,-0.753472,-0.577792,-2.0475,-0.6125,-5.5125,27.384,17.76,-16.752,none,4,3.0,37369.0,210087.0,84595.0,205850.0,92816.0
2026-04-14 18:06:07.322066,740397,1609507460937532,5060907667,-0.005856,-0.753472,-0.577792,-0.5425,-0.35,-4.935,27.384,17.76,-16.752,none,4,3.0,37369.0,210087.0,84595.0,205850.0,92816.0
2026-04-14 18:06:07.324013,740398,1609507460946466,5060916360,-0.06832,-0.778848,-0.831552,-0.3325,-0.07875,-5.145,27.992,17.640001,-14.856001,none,4,3.0,37369.0,210087.0,84595.0,205850.0,92816.0
2026-04-14 18:06:07.326964,740399,1609507460961031,5060931257,-0.027328,-0.757376,-0.587552,-1.23375,-0.2625,-5.075,28.12,17.28,-16.448,none,4,3.0,37369.0,210087.0,84595.0,205850.0,92816.0
2026-04-14 18:06:07.330254,740400,1609507460970037,5060939987,-0.027328,-0.757376,-0.587552,-0.81375,-0.70875,-4.94375,28.12,17.28,-16.448,none,4,3.0,37369.0,210087.0,84595.0,205850.0,92816.0
2026-04-14 18:06:07.364293,740411,1609507460979168,5060948783,-0.027328,-0.757376,-0.769088,-0.04375,-0.67375,-4.96125,28.12,17.28,-16.448,none,4,3.0,37371.0,210096.0,84641.0,205853.0,92870.0
2026-04-14 18:06:07.364675,740412,1609507460993850,5060963779,-0.021472,-0.772992,-0.769088,1.53125,-0.49,-4.13875,26.856,18.264,-14.648001,none,4,3.0,37371.0,210096.0,84641.0,205853.0,92870.0
2026-04-14 18:06:07.366544,740413,1609507461002882,5060972657,-0.054656,-0.737856,-0.599264,1.89,-0.35,-4.305,27.904001,17.68,-16.544,none,4,3.0,37371.0,210096.0,84641.0,205853.0,92870.0
2026-04-14 18:06:07.378884,740414,1609507461017411,5060987589,-0.054656,-0.737856,-0.599264,1.015,-0.09625,-4.50625,27.904001,17.68,-16.544,none,4,3.0,37371.0,210096.0,84641.0,205853.0,92870.0
2026-04-14 18:06:07.389202,740415,1609507461026341,5060996322,-0.001952,-0.767136,-0.568032,0.91875,0.21875,-4.7075,28.2,17.488,-14.616001,none,4,3.0,37371.0,210096.0,84641.0,205853.0,92870.0
2026-04-14 18:06:07.395463,740416,1609507461035277,5061005093,-0.001952,-0.767136,-0.568032,1.84625,0.13125,-4.17375,28.2,17.488,-14.616001,none,4,3.0,37371.0,210096.0,84641.0,205853.0,92870.0
2026-04-14 18:06:07.411794,740417,1609507461049784,5061019983,-0.054656,-0.728096,-0.581696,1.84625,-0.51625,-3.91125,27.816002,17.696001,-16.52,none,4,3.0,37371.0,210096.0,84641.0,205853.0,92870.0
2026-04-14 18:06:07.419063,740418,1609507461058746,5061028716,-0.054656,-0.728096,-0.581696,2.02125,-0.315,-3.68375,27.816002,17.696001,-16.52,none,4,3.0,37371.0,210096.0,84641.0,205853.0,92870.0
2026-04-14 18:06:07.435472,740419,1609507461073263,5061043619,-0.076128,-0.74176,-0.679296,1.085,-1.16375,-3.38625,28.384,17.776001,-16.768002,none,4,3.0,37371.0,210096.0,84641.0,205853.0,92870.0
2026-04-14 18:06:07.487987,740430,1609507461082458,5061052387,0.00976,-0.776896,-0.552416,-0.21875,-1.26,-2.70375,28.296001,17.696001,-16.560001,none,4,3.0,37398.0,210133.0,84706.0,205820.0,92962.0
2026-04-14 18:06:07.490528,740431,1609507461091456,5061061154,0.00976,-0.776896,-0.552416,-1.86375,-1.575,-2.415,28.296001,17.696001,-16.560001,none,4,3.0,37398.0,210133.0,84706.0,205820.0,92962.0
2026-04-14 18:06:07.493046,740432,1609507461105978,5061076058,0.044896,-0.794464,-0.593408,-2.7125,-2.00375,-2.10875,27.2,18.032001,-15.752001,none,4,3.0,37398.0,210133.0,84706.0,205820.0,92962.0
2026-04-14 18:06:07.495505,740433,1609507461115022,5061084745,0.044896,-0.794464,-0.593408,-2.24875,-1.86375,-1.23375,27.2,18.032001,-15.752001,none,4,3.0,37398.0,210133.0,84706.0,205820.0,92962.0
2026-04-14 18:06:07.498049,740434,1609507461129563,5061099658,0.00976,-0.796416,-0.757376,-1.225,-0.86625,-1.32125,27.528002,17.848001,-16.248001,none,4,3.0,37398.0,210133.0,84706.0,205820.0,92962.0
2026-04-14 18:06:07.500485,740435,1609507461138537,5061108343,0.00976,-0.796416,-0.757376,-0.65625,-0.60375,-1.1025,27.528002,17.848001,-16.248001,none,4,3.0,37398.0,210133.0,84706.0,205820.0,92962.0
2026-04-14 18:06:07.513083,740436,1609507461153261,5061123305,-0.042944,-0.749568,-0.591456,-2.2225,-0.62125,-1.53125,27.984001,17.696001,-16.480001,none,4,3.0,37398.0,210133.0,84706.0,205820.0,92962.0
2026-04-14 18:06:07.524474,740437,1609507461162410,5061132026,0.00976,-0.788608,-0.6344,-4.61125,-0.5075,-1.575,28.04,17.672,-15.880001,none,4,3.0,37398.0,210133.0,84706.0,205820.0,92962.0
2026-04-14 18:06:07.531737,740438,1609507461171448,5061140721,0.00976,-0.788608,-0.6344,-5.425,-0.69125,-1.3475,28.04,17.672,-15.880001,none,4,3.0,37398.0,210133.0,84706.0,205820.0,92962.0
2026-04-14 18:06:07.563164,740449,1609507461186050,5061155743,0.013664,-0.784704,-0.616832,-5.11875,-0.5075,-1.1375,26.632002,18.160002,-14.176001,none,4,3.0,37612.0,211125.0,85075.0,206543.0,93370.0
2026-04-14 18:06:07.565324,740450,1609507461195053,5061164492,0.013664,-0.784704,-0.616832,-4.87375,-0.14875,-1.365,26.632002,18.160002,-14.176001,none,4,3.0,37612.0,211125.0,85075.0,206543.0,93370.0
2026-04-14 18:06:07.570669,740451,1609507461209617,5061179424,-0.066368,-0.79056,-0.825696,-4.85625,0.09625,-0.62125,28.064001,17.488,-16.576,none,4,3.0,37612.0,211125.0,85075.0,206543.0,93370.0
2026-04-14 18:06:07.581981,740452,1609507461218625,5061188106,-0.066368,-0.79056,-0.825696,-3.8325,0.595,-0.51625,28.064001,17.488,-16.576,none,4,3.0,37612.0,211125.0,85075.0,206543.0,93370.0
2026-04-14 18:06:07.588257,740453,1609507461227564,5061196819,-0.076128,-0.769088,-0.737856,-2.30125,1.4525,-0.5775,28.128002,17.584002,-17.552,none,4,3.0,37612.0,211125.0,85075.0,206543.0,93370.0
2026-04-14 18:06:07.602046,740454,1609507461242035,5061211862,-0.07808,-0.76128,-0.733952,-2.82625,1.23375,-1.19875,28.240002,17.704,-15.384001,none,4,3.0,37612.0,211125.0,85075.0,206543.0,93370.0
2026-04-14 18:06:07.611775,740455,1609507461251050,5061220573,-0.07808,-0.76128,-0.733952,-2.40625,1.28625,-1.19,28.240002,17.704,-15.384001,none,4,3.0,37612.0,211125.0,85075.0,206543.0,93370.0
2026-04-14 18:06:07.658259,740456,1609507461265554,5061235559,-0.050752,-0.782752,-0.81984,-0.63,1.645,-1.0675,28.160002,17.464,-16.432001,none,4,3.0,37612.0,211125.0,85075.0,206543.0,93370.0
2026-04-14 18:06:07.658385,740457,1609507461274482,5061244264,-0.050752,-0.782752,-0.81984,-1.9425,1.42625,-1.1025,28.160002,17.464,-16.432001,none,4,3.0,37612.0,211125.0,85075.0,206543.0,93370.0
2026-04-14 18:06:07.727051,740468,1609507461289011,5061259203,-0.06832,-0.765184,-0.66368,-3.05375,1.72375,-0.8925,27.368002,18.088001,-15.896001,none,4,3.0,38129.0,212903.0,85965.0,207917.0,94376.0
2026-04-14 18:06:07.729545,740469,1609507461297924,5061267862,-0.06832,-0.765184,-0.66368,-2.35375,2.26625,-0.9275,27.368002,18.088001,-15.896001,none,4,3.0,38129.0,212903.0,85965.0,207917.0,94376.0
2026-04-14 18:06:07.732055,740470,1609507461306947,5061276578,0.0,-0.772992,-0.571936,-0.77875,2.02125,-0.74375,27.304,17.864,-16.544,none,4,3.0,38129.0,212903.0,85965.0,207917.0,94376.0
2026-04-14 18:06:07.734570,740471,1609507461321436,5061291593,0.0,-0.772992,-0.710528,0.91,2.135,-1.61,27.304,17.864,-16.544,none,4,3.0,38129.0,212903.0,85965.0,207917.0,94376.0
2026-04-14 18:06:07.736768,740472,1609507461330398,5061300337,-0.042944,-0.772992,-0.710528,1.77625,2.17,-1.995,27.656002,17.536001,-14.992001,none,4,3.0,38129.0,212903.0,85965.0,207917.0,94376.0
2026-04-14 18:06:07.741082,740473,1609507461344911,5061315225,-0.011712,-0.769088,-0.564128,2.52,2.12625,-1.8025,28.088001,17.064001,-16.688002,none,4,3.0,38129.0,212903.0,85965.0,207917.0,94376.0
2026-04-14 18:06:07.741380,740474,1609507461353880,5061323969,-0.011712,-0.769088,-0.564128,3.31625,3.045,-2.03,28.088001,17.064001,-16.688002,none,4,3.0,38129.0,212903.0,85965.0,207917.0,94376.0
2026-04-14 18:06:07.743955,740475,1609507461368469,5061336839,0.015616,-0.792512,-0.657824,3.535,3.5175,-2.19625,28.240002,17.768002,-16.384,none,4,3.0,38129.0,212903.0,85965.0,207917.0,94376.0
2026-04-14 18:06:07.774071,740486,1609507461377742,5061348109,0.015616,-0.792512,-0.657824,2.4675,3.2375,-2.54625,28.240002,17.768002,-16.384,none,4,3.0,38505.0,213573.0,86660.0,208423.0,95184.0
2026-04-14 18:06:07.777054,740487,1609507461386776,5061356865,-0.046848,-0.767136,-0.659776,0.455,2.765,-3.33375,27.976002,17.624,-16.592001,none,4,3.0,38505.0,213573.0,86660.0,208423.0,95184.0
2026-04-14 18:06:07.779539,740488,1609507461401340,5061369899,-0.046848,-0.767136,-0.659776,-0.65625,2.9925,-3.84125,27.976002,17.624,-16.592001,none,4,3.0,38505.0,213573.0,86660.0,208423.0,95184.0
2026-04-14 18:06:07.781596,740489,1609507461410774,5061380721,-0.07808,-0.786656,-0.788608,-1.295,2.485,-4.47125,28.008001,17.640001,-15.848001,none,4,3.0,38505.0,213573.0,86660.0,208423.0,95184.0
2026-04-14 18:06:07.784135,740490,1609507461419779,5061389419,-0.07808,-0.786656,-0.788608,-1.35625,2.2575,-4.3575,28.008001,17.640001,-15.848001,none,4,3.0,38505.0,213573.0,86660.0,208423.0,95184.0
2026-04-14 18:06:07.794528,740491,1609507461434328,5061404395,-0.017568,-0.77104,-0.587552,-1.505,2.765,-4.17375,28.080002,17.640001,-16.736,none,4,3.0,38505.0,213573.0,86660.0,208423.0,95184.0
2026-04-14 18:06:07.802956,740492,1609507461443403,5061413100,-0.076128,-0.77104,-0.755424,-1.12875,2.905,-4.06,27.896002,17.456001,-17.776001,none,4,3.0,38505.0,213573.0,86660.0,208423.0,95184.0
2026-04-14 18:06:07.819567,740493,1609507461457872,5061427995,-0.076128,-0.77104,-0.755424,-1.56625,3.21125,-4.06,27.896002,17.456001,-17.776001,none,4,3.0,38505.0,213573.0,86660.0,208423.0,95184.0
2026-04-14 18:06:07.828068,740494,1609507461466820,5061436698,-0.060512,-0.765184,-0.661728,-1.72375,4.3225,-3.815,28.152,17.704,-15.912001,none,4,3.0,38505.0,213573.0,86660.0,208423.0,95184.0
2026-04-14 18:06:07.867879,740505,1609507461481695,5061451637,-0.060512,-0.765184,-0.661728,-2.0125,4.41875,-4.13875,28.152,17.704,-15.912001,none,4,3.0,38813.0,214171.0,87250.0,208873.0,95883.0
2026-04-14 18:06:07.870731,740506,1609507461490771,5061460434,-0.001952,-0.788608,-0.630496,-2.0125,3.64875,-4.13,27.448002,18.088001,-15.096001,none,4,3.0,38813.0,214171.0,87250.0,208873.0,95883.0
2026-04-14 18:06:07.873235,740507,1609507461499725,5061469144,-0.001952,-0.788608,-0.630496,-1.4875,3.78,-3.9725,27.448002,18.088001,-15.096001,none,4,3.0,38813.0,214171.0,87250.0,208873.0,95883.0
2026-04-14 18:06:07.875275,740508,1609507461514244,5061484081,0.0,-0.7808,-0.687104,-0.9625,3.87625,-3.7625,26.944002,18.352001,-16.848001,none,4,3.0,38813.0,214171.0,87250.0,208873.0,95883.0
2026-04-14 18:06:07.884530,740509,1609507461523273,5061492773,0.015616,-0.796416,-0.620736,-1.855,3.045,-3.98125,27.728,17.696001,-14.200001,none,4,3.0,38813.0,214171.0,87250.0,208873.0,95883.0
2026-04-14 18:06:07.898322,740510,1609507461537767,5061507732,0.015616,-0.796416,-0.620736,-2.9925,3.36,-3.9375,27.728,17.696001,-14.200001,none,4,3.0,38813.0,214171.0,87250.0,208873.0,95883.0
2026-04-14 18:06:07.907948,740511,1609507461546678,5061516632,0.025376,-0.813984,-0.759328,-3.9025,3.0275,-4.5675,27.864002,17.52,-16.936,none,4,3.0,38813.0,214171.0,87250.0,208873.0,95883.0
2026-04-14 18:06:07.915808,740512,1609507461555761,5061525332,0.025376,-0.813984,-0.759328,-1.96,3.2375,-3.5875,27.864002,17.52,-16.936,none,4,3.0,38813.0,214171.0,87250.0,208873.0,95883.0
2026-04-14 18:06:07.931540,740513,1609507461570259,5061540240,-0.023424,-0.767136,-0.739808,-0.34125,4.06875,-4.235,27.872002,17.568,-17.568,none,4,3.0,38813.0,214171.0,87250.0,208873.0,95883.0
2026-04-14 18:06:07.964556,740524,1609507461579729,5061549393,-0.023424,-0.767136,-0.739808,-0.2275,4.48,-3.94625,27.872002,17.568,-17.568,none,4,3.0,39005.0,214736.0,87605.0,209301.0,96299.0
2026-04-14 18:06:07.969517,740525,1609507461594415,5061564366,0.003904,-0.796416,-0.710528,-1.7325,3.77125,-4.17375,26.248001,18.472,-14.888001,none,4,3.0,39005.0,214736.0,87605.0,209301.0,96299.0
2026-04-14 18:06:07.971601,740526,1609507461603342,5061573028,-0.011712,-0.796416,-0.747616,-4.12125,2.8,-4.1475,26.248001,18.472,-15.688001,none,4,3.0,39005.0,214736.0,87605.0,209301.0,96299.0
2026-04-14 18:06:07.974082,740527,1609507461612348,5061581737,-0.005856,-0.796416,-0.747616,-4.5325,2.35375,-3.57875,26.2,18.712002,-15.688001,none,4,3.0,39005.0,214736.0,87605.0,209301.0,96299.0
2026-04-14 18:06:07.988002,740528,1609507461626850,5061596669,-0.0488,-0.77104,-0.739808,-4.75125,2.30125,-3.03625,27.832,17.456001,-16.696001,none,4,3.0,39005.0,214736.0,87605.0,209301.0,96299.0
2026-04-14 18:06:08.021639,740529,1609507461635778,5061605349,-0.0488,-0.77104,-0.739808,-5.01375,1.9075,-2.8175,27.832,17.456001,-16.696001,none,4,3.0,39005.0,214736.0,87605.0,209301.0,96299.0
2026-04-14 18:06:08.022004,740530,1609507461650279,5061620344,0.023424,-0.804224,-0.71248,-5.04,1.28625,-2.345,27.208002,18.0,-16.008001,none,4,3.0,39005.0,214736.0,87605.0,209301.0,96299.0
2026-04-14 18:06:08.046510,740531,1609507461659205,5061629006,0.023424,-0.804224,-0.71248,-4.9525,0.62125,-2.3625,27.208002,18.0,-16.008001,none,4,3.0,39005.0,214736.0,87605.0,209301.0,96299.0
2026-04-14 18:06:08.072008,740532,1609507461673755,5061643912,0.046848,-0.80032,-0.657824,-5.285,0.1575,-1.82,26.904001,18.0,-15.384001,none,4,3.0,39005.0,214736.0,87605.0,209301.0,96299.0
2026-04-14 18:06:08.126570,740543,1609507461683062,5061652697,0.046848,-0.80032,-0.657824,-4.865,-0.35,-1.28625,26.904001,18.0,-15.384001,none,4,3.0,39214.0,215534.0,87915.0,209915.0,96669.0
2026-04-14 18:06:08.139266,740544,1609507461692019,5061661426,-0.037088,-0.737856,-0.620736,-4.22625,-0.7875,-1.015,26.640001,17.664001,-15.840001,none,4,3.0,39214.0,215534.0,87915.0,209915.0,96669.0
2026-04-14 18:06:08.139624,740545,1609507461706591,5061676323,-0.001952,-0.77104,-0.694912,-4.36625,-1.05875,-0.46375,27.12,17.616001,-17.12,none,4,3.0,39214.0,215534.0,87915.0,209915.0,96669.0
2026-04-14 18:06:08.139703,740546,1609507461715603,5061685162,-0.001952,-0.77104,-0.694912,-6.29125,-1.49625,-0.28,27.12,17.616001,-17.12,none,4,3.0,39214.0,215534.0,87915.0,209915.0,96669.0
2026-04-14 18:06:08.139974,740547,1609507461730144,5061700169,0.0,-0.792512,-0.659776,-9.21375,-2.56375,-0.14,27.136002,17.76,-17.128,none,4,3.0,39214.0,215534.0,87915.0,209915.0,96669.0
2026-04-14 18:06:08.140209,740548,1609507461739070,5061708852,0.0,-0.792512,-0.659776,-10.3775,-2.6425,0.21875,27.136002,17.76,-17.128,none,4,3.0,39214.0,215534.0,87915.0,209915.0,96669.0
2026-04-14 18:06:08.142533,740549,1609507461747979,5061717545,-0.052704,-0.765184,-0.62464,-7.95375,-1.855,0.53375,28.072,17.464,-17.04,none,4,3.0,39214.0,215534.0,87915.0,209915.0,96669.0
2026-04-14 18:06:08.145065,740550,1609507461762528,5061732613,-0.052704,-0.765184,-0.62464,-3.80625,-1.67125,1.19875,28.072,17.464,-17.04,none,4,3.0,39214.0,215534.0,87915.0,209915.0,96669.0
2026-04-14 18:06:08.147570,740551,1609507461771655,5061741350,0.013664,-0.776896,-0.630496,-1.155,-1.33875,1.89875,27.720001,17.448,-16.272001,none,4,3.0,39214.0,215534.0,87915.0,209915.0,96669.0
2026-04-14 18:06:08.179215,740562,1609507461786390,5061756559,-0.0488,-0.767136,-0.74176,0.13125,-0.595,1.46125,27.800001,17.744001,-16.856,none,4,3.0,38983.0,214287.0,87542.0,208838.0,96307.0
2026-04-14 18:06:08.181743,740563,1609507461795446,5061765266,-0.0488,-0.767136,-0.74176,0.04375,-0.49875,0.70875,27.800001,17.744001,-16.856,none,4,3.0,38983.0,214287.0,87542.0,208838.0,96307.0
2026-04-14 18:06:08.184275,740564,1609507461810003,5061780313,-0.013664,-0.772992,-0.626592,-0.7175,-0.2275,-0.2975,28.12,17.392,-17.056002,none,4,3.0,38983.0,214287.0,87542.0,208838.0,96307.0
2026-04-14 18:06:08.186627,740565,1609507461818926,5061789056,-0.013664,-0.772992,-0.626592,-0.49,0.56875,-0.9975,28.12,17.392,-17.056002,none,4,3.0,38983.0,214287.0,87542.0,208838.0,96307.0
2026-04-14 18:06:08.189180,740566,1609507461827840,5061797788,-0.037088,-0.796416,-0.76128,-0.1575,1.0325,-1.8025,27.592001,17.720001,-17.016,none,4,3.0,38983.0,214287.0,87542.0,208838.0,96307.0
2026-04-14 18:06:08.204057,740567,1609507461842514,5061812705,-0.037088,-0.796416,-0.76128,0.35875,0.5075,-2.2925,27.592001,17.720001,-17.016,none,4,3.0,38983.0,214287.0,87542.0,208838.0,96307.0
2026-04-14 18:06:08.211754,740568,1609507461851602,5061821455,-0.013664,-0.8296,-0.860832,0.0875,0.315,-3.9725,27.840002,17.224,-17.408,none,4,3.0,38983.0,214287.0,87542.0,208838.0,96307.0
2026-04-14 18:06:08.229790,740569,1609507461866280,5061836362,-0.003904,-0.825696,-0.759328,0.18375,0.48125,-4.64625,27.816002,17.616001,-16.112001,none,4,3.0,38983.0,214287.0,87542.0,208838.0,96307.0
2026-04-14 18:06:08.235208,740570,1609507461875230,5061845057,-0.003904,-0.825696,-0.759328,-1.785,0.7875,-5.73125,27.816002,17.616001,-16.112001,none,4,3.0,38983.0,214287.0,87542.0,208838.0,96307.0
2026-04-14 18:06:08.264184,740581,1609507461884540,5061854027,-0.003904,-0.825696,-0.759328,-1.295,1.89,-6.0025,27.816002,17.616001,-16.112001,none,4,3.0,39191.0,215694.0,87894.0,210025.0,96680.0
2026-04-14 18:06:08.266617,740582,1609507461899033,5061868969,-0.040992,-0.792512,-0.802272,-0.79625,2.21375,-6.90375,27.488,17.6,-16.16,none,4,3.0,39191.0,215694.0,87894.0,210025.0,96680.0
2026-04-14 18:06:08.271751,740583,1609507461907922,5061877650,0.005856,-0.831552,-0.607072,-1.79375,2.51125,-8.18125,26.832,17.800001,-15.792001,none,4,3.0,39191.0,215694.0,87894.0,210025.0,96680.0
2026-04-14 18:06:08.284097,740584,1609507461922463,5061892530,0.005856,-0.831552,-0.607072,-4.13,2.89625,-10.08875,26.832,17.800001,-15.792001,none,4,3.0,39191.0,215694.0,87894.0,210025.0,96680.0
2026-04-14 18:06:08.291695,740585,1609507461931449,5061901326,-0.03904,-0.833504,-0.7808,-3.00125,2.77375,-10.85875,27.776001,17.848001,-17.112001,none,4,3.0,39191.0,215694.0,87894.0,210025.0,96680.0
2026-04-14 18:06:08.303262,740586,1609507461940411,5061910042,-0.03904,-0.833504,-0.7808,-0.44625,3.33375,-12.0925,27.776001,17.848001,-17.112001,none,4,3.0,39191.0,215694.0,87894.0,210025.0,96680.0
2026-04-14 18:06:08.316601,740587,1609507461954933,5061924932,0.05856,-0.837408,-0.733952,0.67375,4.85625,-13.2475,27.36,18.048,-16.912,none,4,3.0,39191.0,215694.0,87894.0,210025.0,96680.0
2026-04-14 18:06:08.324018,740588,1609507461963852,5061933604,0.05856,-0.837408,-0.733952,-2.02125,6.09,-16.37125,27.36,18.048,-16.912,none,4,3.0,39191.0,215694.0,87894.0,210025.0,96680.0
2026-04-14 18:06:08.339190,740589,1609507461978341,5061948514,0.0976,-0.872544,-0.769088,-5.4425,8.2425,-18.19125,27.528002,18.168001,-17.232,none,4,3.0,39191.0,215694.0,87894.0,210025.0,96680.0
2026-04-14 18:06:08.421906,740600,1609507461987369,5061957317,0.076128,-0.8784,-0.755424,-6.615,10.73625,-21.37625,25.872002,18.848001,-16.344,none,4,3.0,40752.0,222294.0,90477.0,215341.0,99458.0
2026-04-14 18:06:08.424105,740601,1609507462001865,5061970313,0.076128,-0.8784,-0.755424,-6.4925,12.76625,-23.59875,25.872002,18.848001,-16.344,none,4,3.0,40752.0,222294.0,90477.0,215341.0,99458.0
2026-04-14 18:06:08.426388,740602,1609507462011201,5061981027,0.130784,-0.9272,-0.710528,-8.35625,13.825,-25.3575,25.536001,18.656,-15.568001,none,4,3.0,40752.0,222294.0,90477.0,215341.0,99458.0
2026-04-14 18:06:08.429500,740603,1609507462020107,5061989730,0.130784,-0.9272,-0.710528,-12.32,14.8925,-28.105,25.536001,18.656,-15.568001,none,4,3.0,40752.0,222294.0,90477.0,215341.0,99458.0
2026-04-14 18:06:08.431986,740604,1609507462034771,5062004622,0.103456,-0.950624,-0.802272,-14.542501,15.47,-30.625,25.240002,18.984001,-16.896,none,4,3.0,40752.0,222294.0,90477.0,215341.0,99458.0
2026-04-14 18:06:08.434356,740605,1609507462043859,5062013365,0.103456,-0.950624,-0.802272,-15.77625,16.275,-33.46875,25.240002,18.984001,-16.896,none,4,3.0,40752.0,222294.0,90477.0,215341.0,99458.0
2026-04-14 18:06:08.436996,740606,1609507462058380,5062028408,0.171776,-0.909632,-0.745664,-15.42625,17.52625,-34.8425,25.776001,19.160002,-16.656,none,4,3.0,40752.0,222294.0,90477.0,215341.0,99458.0
2026-04-14 18:06:08.439561,740607,1609507462067317,5062037115,0.16592,-0.884256,-0.909632,-12.985,21.245,-36.855,25.008001,19.704,-17.568,none,4,3.0,40752.0,222294.0,90477.0,215341.0,99458.0
2026-04-14 18:06:08.441535,740608,1609507462076321,5062045827,0.16592,-0.884256,-0.909632,-12.0225,25.1125,-40.3725,25.008001,19.704,-17.568,none,4,3.0,40752.0,222294.0,90477.0,215341.0,99458.0
2026-04-14 18:06:08.469598,740619,1609507462090968,5062060933,0.189344,-0.884256,-0.870592,-12.573751,29.3825,-43.11125,25.024002,19.696001,-17.44,none,4,3.0,42997.0,228455.0,94317.0,220296.0,103699.0
2026-04-14 18:06:08.471726,740620,1609507462099906,5062069705,0.189344,-0.884256,-0.870592,-11.2175,34.16875,-46.2875,25.024002,19.696001,-17.44,none,4,3.0,42997.0,228455.0,94317.0,220296.0,103699.0
2026-04-14 18:06:08.480794,740621,1609507462114428,5062084612,0.181536,-0.91744,-0.905728,-10.325,38.54375,-48.55375,24.008001,20.44,-17.712,none,4,3.0,42997.0,228455.0,94317.0,220296.0,103699.0
2026-04-14 18:06:08.483303,740622,1609507462123401,5062093337,0.181536,-0.91744,-0.905728,-8.6625,43.085,-51.45,24.008001,20.44,-17.712,none,4,3.0,42997.0,228455.0,94317.0,220296.0,103699.0
2026-04-14 18:06:08.498057,740623,1609507462137837,5062106204,0.191296,-0.905728,-0.940864,-6.23,45.84125,-54.215,24.04,20.536001,-18.064001,none,4,3.0,42997.0,228455.0,94317.0,220296.0,103699.0
2026-04-14 18:06:08.509442,740624,1609507462147073,5062116956,0.173728,-0.831552,-0.923296,-4.5325,48.13375,-56.166252,23.880001,20.608002,-21.456001,none,4,3.0,42997.0,228455.0,94317.0,220296.0,103699.0
2026-04-14 18:06:08.516895,740625,1609507462156032,5062125648,0.173728,-0.831552,-0.923296,-4.6725,51.5725,-58.10875,23.880001,20.608002,-21.456001,none,4,3.0,42997.0,228455.0,94317.0,220296.0,103699.0
2026-04-14 18:06:08.530930,740626,1609507462170511,5062140575,0.320128,-0.88816,-0.804224,-8.11125,54.6175,-61.81,23.112001,21.088001,-20.032001,none,4,3.0,42997.0,228455.0,94317.0,220296.0,103699.0
2026-04-14 18:06:08.540242,740627,1609507462179465,5062149285,0.320128,-0.88816,-0.804224,-10.815,57.00625,-64.295,23.112001,21.088001,-20.032001,concentric,4,3.0,42997.0,228455.0,94317.0,220296.0,103699.0
2026-04-14 18:06:08.568161,740638,1609507462194027,5062164256,0.325984,-0.835456,-0.72224,-12.0225,60.41,-65.47625,21.112001,21.832,-18.144001,concentric,4,3.0,47506.0,237457.0,101955.0,227733.0,112381.0
2026-04-14 18:06:08.570693,740639,1609507462203142,5062172988,0.325984,-0.835456,-0.72224,-13.011251,64.12,-67.48,21.112001,21.832,-18.144001,concentric,4,3.0,47506.0,237457.0,101955.0,227733.0,112381.0
2026-04-14 18:06:08.573158,740640,1609507462212199,5062181703,0.279136,-0.763232,-0.714432,-10.43875,67.558754,-69.95625,19.800001,22.704,-18.76,concentric,4,3.0,47506.0,237457.0,101955.0,227733.0,112381.0
2026-04-14 18:06:08.590523,740641,1609507462226702,5062196635,0.279136,-0.763232,-0.706624,-11.9875,69.51,-71.96,19.800001,22.704,-18.76,concentric,4,3.0,47506.0,237457.0,101955.0,227733.0,112381.0
2026-04-14 18:06:08.596504,740642,1609507462235626,5062205334,0.378688,-0.808128,-0.706624,-16.4675,71.11125,-73.96375,20.76,22.320002,-22.76,concentric,4,3.0,47506.0,237457.0,101955.0,227733.0,112381.0
2026-04-14 18:06:08.611958,740643,1609507462250187,5062220276,0.37088,-0.802272,-0.81984,-24.8675,73.03625,-76.23875,19.608002,22.528002,-22.112001,concentric,4,3.0,47506.0,237457.0,101955.0,227733.0,112381.0
2026-04-14 18:06:08.619236,740644,1609507462259158,5062229149,0.37088,-0.802272,-0.81984,-24.7275,77.6825,-76.965004,19.608002,22.528002,-22.112001,concentric,4,3.0,47506.0,237457.0,101955.0,227733.0,112381.0
2026-04-14 18:06:08.635800,740645,1609507462273710,5062244049,0.425536,-0.792512,-0.894016,-19.64375,83.335,-80.255,18.720001,22.920002,-21.984001,concentric,4,3.0,47506.0,237457.0,101955.0,227733.0,112381.0
2026-04-14 18:06:08.667088,740656,1609507462282793,5062253132,0.425536,-0.792512,-0.894016,-14.91875,88.2,-82.775,18.720001,22.920002,-21.984001,concentric,4,3.0,58498.0,253077.0,120053.0,240421.0,131971.0
2026-04-14 18:06:08.669619,740657,1609507462291814,5062261896,0.530944,-0.704672,-0.84912,-15.75,92.82,-82.5825,17.08,23.584002,-21.896002,concentric,4,3.0,58498.0,253077.0,120053.0,240421.0,131971.0
2026-04-14 18:06:08.672088,740658,1609507462306437,5062274811,0.530944,-0.704672,-0.84912,-20.1425,96.17125,-83.308754,17.08,23.584002,-21.896002,concentric,4,3.0,58498.0,253077.0,120053.0,240421.0,131971.0
2026-04-14 18:06:08.678056,740659,1609507462315792,5062285637,0.489952,-0.708576,-0.726144,-20.81625,97.9125,-86.31,15.072001,23.992,-22.800001,concentric,4,3.0,58498.0,253077.0,120053.0,240421.0,131971.0
2026-04-14 18:06:08.690306,740660,1609507462330289,5062300590,0.415776,-0.571936,-0.610976,-16.42375,100.275,-94.1325,14.880001,24.000002,-23.928001,concentric,4,3.0,58498.0,253077.0,120053.0,240421.0,131971.0
2026-04-14 18:06:08.701919,740661,1609507462339213,5062309433,0.415776,-0.571936,-0.610976,-18.52375,99.6275,-95.6025,14.880001,24.000002,-23.928001,concentric,4,3.0,58498.0,253077.0,120053.0,240421.0,131971.0
2026-04-14 18:06:08.711637,740662,1609507462348297,5062318130,0.37088,-0.583648,-0.772992,-29.16375,96.17125,-92.19,12.328001,24.784,-24.328001,concentric,4,3.0,58498.0,253077.0,120053.0,240421.0,131971.0
2026-04-14 18:06:08.749569,740663,1609507462362807,5062333015,0.37088,-0.583648,-0.772992,-34.0375,96.50375,-92.70625,12.328001,24.784,-24.328001,concentric,4,3.0,58498.0,253077.0,120053.0,240421.0,131971.0
2026-04-14 18:06:08.752089,740664,1609507462371755,5062341718,0.398208,-0.591456,-0.560224,-34.44,98.1925,-91.34125,11.952001,24.552002,-23.936,concentric,4,3.0,58498.0,253077.0,120053.0,240421.0,131971.0
2026-04-14 18:06:08.827083,740675,1609507462386908,5062356710,0.398208,-0.591456,-0.560224,-30.9225,99.12875,-87.29,11.952001,24.552002,-23.936,concentric,4,3.0,106675.0,269746.0,184973.0,253749.0,197679.0
2026-04-14 18:06:08.831747,740676,1609507462396005,5062365516,0.435296,-0.40992,-0.610976,-19.74,101.35125,-85.98625,9.184,25.008001,-23.592001,concentric,4,3.0,106675.0,269746.0,184973.0,253749.0,197679.0
2026-04-14 18:06:08.834544,740677,1609507462405006,5062374219,0.435296,-0.40992,-0.610976,-24.29,103.25875,-87.8325,9.184,25.008001,-23.592001,concentric,4,3.0,106675.0,269746.0,184973.0,253749.0,197679.0
2026-04-14 18:06:08.837085,740678,1609507462419523,5062389098,0.421632,-0.384544,-0.610976,-31.325,101.70125,-87.89375,7.368001,25.000002,-23.488,concentric,4,3.0,106675.0,269746.0,184973.0,253749.0,197679.0
2026-04-14 18:06:08.839171,740679,1609507462428620,5062397796,0.388448,-0.329888,-0.74176,-43.88125,99.496254,-86.58125,7.368001,24.560001,-26.288002,concentric,4,3.0,106675.0,269746.0,184973.0,253749.0,197679.0
2026-04-14 18:06:08.841883,740680,1609507462443105,5062412762,0.388448,-0.329888,-0.74176,-47.39875,97.615,-82.4775,5.784,24.560001,-26.288002,concentric,4,3.0,106675.0,269746.0,184973.0,253749.0,197679.0
2026-04-14 18:06:08.844350,740681,1609507462452072,5062421520,0.355264,-0.425536,-0.650016,-61.232502,96.39,-85.00625,5.528,24.392002,-25.936,concentric,4,3.0,106675.0,269746.0,184973.0,253749.0,197679.0
2026-04-14 18:06:08.846600,740682,1609507462466697,5062436454,0.355264,-0.425536,-0.650016,-64.51375,95.5675,-82.775,5.528,24.392002,-25.936,concentric,4,3.0,106675.0,269746.0,184973.0,253749.0,197679.0
2026-04-14 18:06:08.849563,740683,1609507462475666,5062445152,0.378688,-0.50752,-0.49776,-51.10875,98.5075,-74.777504,4.208,24.032001,-25.656002,concentric,4,3.0,106675.0,269746.0,184973.0,253749.0,197679.0
2026-04-14 18:06:08.876929,740694,1609507462485013,5062454367,0.378688,-0.50752,-0.49776,-42.1925,98.06125,-70.56875,4.208,24.032001,-25.656002,concentric,4,3.0,145806.0,279654.0,232263.0,262720.0,245345.0
2026-04-14 18:06:08.879346,740695,1609507462499762,5062469309,0.431392,-0.591456,-0.50752,-16.415,93.84375,-74.121254,2.968,24.144001,-25.952002,concentric,4,3.0,145806.0,279654.0,232263.0,262720.0,245345.0
2026-04-14 18:06:08.881920,740696,1609507462508779,5062478052,0.431392,-0.47824,-0.470432,-0.28875,91.70875,-77.3675,2.968,24.144001,-25.952002,concentric,4,3.0,145806.0,279654.0,232263.0,262720.0,245345.0
2026-04-14 18:06:08.884346,740697,1609507462523282,5062492999,0.568032,-0.47824,-0.470432,16.00375,86.7125,-76.58875,1.544,24.400002,-27.224,concentric,4,3.0,145806.0,279654.0,232263.0,262720.0,245345.0
2026-04-14 18:06:08.893040,740698,1609507462532210,5062501677,0.49776,-0.179584,-0.349408,28.2275,79.42375,-73.92875,1.352,24.296001,-27.024002,concentric,4,3.0,145806.0,279654.0,232263.0,262720.0,245345.0
2026-04-14 18:06:08.904462,740699,1609507462541136,5062510453,0.49776,-0.179584,-0.349408,29.16375,67.1475,-71.42625,1.352,24.296001,-27.024002,concentric,4,3.0,145806.0,279654.0,232263.0,262720.0,245345.0
2026-04-14 18:06:08.915711,740700,1609507462555653,5062525440,0.454816,0.064416,-0.298656,45.61375,62.50125,-68.871254,0.528,24.832,-26.640001,concentric,4,3.0,145806.0,279654.0,232263.0,262720.0,245345.0
2026-04-14 18:06:08.927017,740701,1609507462564607,5062534149,0.454816,0.064416,-0.298656,44.54625,63.7175,-75.635,0.528,24.832,-26.640001,concentric,4,3.0,145806.0,279654.0,232263.0,262720.0,245345.0
2026-04-14 18:06:08.940795,740702,1609507462579170,5062549077,0.59536,-0.480192,-0.501664,18.40125,54.76625,-78.89,-0.544,24.952002,-25.648,concentric,4,3.0,145806.0,279654.0,232263.0,262720.0,245345.0
2026-04-14 18:06:08.971165,740713,1609507462588227,5062557828,0.59536,-0.480192,-0.501664,-20.09875,35.2975,-61.670002,-0.544,24.952002,-25.648,concentric,4,3.0,160326.0,294296.0,249786.0,276366.0,261432.0
2026-04-14 18:06:08.973173,740714,1609507462597313,5062566589,0.76128,-0.482144,-0.23424,-25.8825,24.08,-48.825,-1.896,24.912,-27.288002,concentric,4,3.0,160326.0,294296.0,249786.0,276366.0,261432.0
2026-04-14 18:06:08.975678,740715,1609507462611820,5062581581,0.774944,-0.232288,-0.1952,-1.00625,39.655,-52.8325,-3.512,25.664001,-25.456001,concentric,4,3.0,160326.0,294296.0,249786.0,276366.0,261432.0
2026-04-14 18:06:08.980704,740716,1609507462620882,5062590392,0.774944,-0.232288,-0.1952,18.83,46.27875,-59.15875,-3.512,25.664001,-25.456001,concentric,4,3.0,160326.0,294296.0,249786.0,276366.0,261432.0
2026-04-14 18:06:08.995765,740717,1609507462635368,5062605300,0.679296,-0.130784,-0.269376,46.36625,46.36625,-53.760002,-2.472,25.208002,-25.6,concentric,4,3.0,160326.0,294296.0,249786.0,276366.0,261432.0
2026-04-14 18:06:09.007063,740718,1609507462644381,5062613998,0.679296,-0.130784,-0.269376,41.16,47.3025,-59.5875,-2.472,25.208002,-25.6,concentric,4,3.0,160326.0,294296.0,249786.0,276366.0,261432.0
2026-04-14 18:06:09.020845,740719,1609507462658880,5062628916,0.630496,-0.316224,-0.366976,21.385,42.3325,-54.4425,-3.0,25.264002,-25.904001,concentric,4,3.0,160326.0,294296.0,249786.0,276366.0,261432.0
2026-04-14 18:06:09.028343,740720,1609507462667898,5062637692,0.630496,-0.316224,-0.366976,-14.4375,31.01875,-43.77625,-3.0,25.264002,-25.904001,concentric,4,3.0,160326.0,294296.0,249786.0,276366.0,261432.0
2026-04-14 18:06:09.037044,740721,1609507462676850,5062646486,0.74176,-0.160064,-0.226432,-13.7725,31.605,-42.21875,-3.408,25.088001,-25.696001,concentric,4,3.0,160326.0,294296.0,249786.0,276366.0,261432.0
2026-04-14 18:06:09.071994,740732,1609507462691426,5062661641,0.64416,-0.011712,-0.066368,-9.24875,32.9525,-49.63,-5.288,25.424002,-24.384,concentric,4,3.0,169450.0,319266.0,260652.0,300438.0,269822.0
2026-04-14 18:06:09.072103,740733,1609507462700377,5062670424,0.64416,-0.011712,-0.066368,-14.74375,30.4325,-51.905,-5.288,25.424002,-24.384,concentric,4,3.0,169450.0,319266.0,260652.0,300438.0,269822.0
2026-04-14 18:06:09.073956,740734,1609507462714947,5062683317,0.667584,-0.464576,-0.407968,-21.4725,28.735,-49.28,-5.376,25.264002,-25.424002,concentric,4,3.0,169450.0,319266.0,260652.0,300438.0,269822.0
2026-04-14 18:06:09.085697,740735,1609507462724264,5062694079,0.667584,-0.464576,-0.407968,-34.72875,24.94625,-42.385,-5.376,25.264002,-25.424002,concentric,4,3.0,169450.0,319266.0,260652.0,300438.0,269822.0
2026-04-14 18:06:09.095746,740736,1609507462733226,5062702780,0.798368,-0.737856,-0.099552,-46.06,21.37625,-29.1725,-4.96,24.632002,-26.384,concentric,4,3.0,169450.0,319266.0,260652.0,300438.0,269822.0
2026-04-14 18:06:09.120814,740737,1609507462747733,5062717714,0.798368,-0.737856,-0.099552,-31.43875,12.03125,-11.34,-4.96,24.632002,-26.384,concentric,4,3.0,169450.0,319266.0,260652.0,300438.0,269822.0
2026-04-14 18:06:09.145844,740738,1609507462756651,5062726401,0.786656,0.124928,-0.03904,21.46375,9.625,-6.51875,-4.952,25.304,-25.432001,concentric,4,3.0,169450.0,319266.0,260652.0,300438.0,269822.0
2026-04-14 18:06:09.155387,740739,1609507462771150,5062741291,0.694912,0.327936,-0.115168,51.205,11.6725,-10.66625,-5.456,25.456001,-27.792002,concentric,4,3.0,169450.0,319266.0,260652.0,300438.0,269822.0
2026-04-14 18:06:09.157862,740740,1609507462780079,5062749962,0.694912,0.327936,-0.115168,35.98,20.5625,-12.39,-5.456,25.456001,-27.792002,concentric,4,3.0,169450.0,319266.0,260652.0,300438.0,269822.0
2026-04-14 18:06:09.188239,740751,1609507462794701,5062764988,0.864736,-0.626592,-0.476288,2.84375,25.01625,-8.89875,-5.272,24.920002,-26.304,concentric,4,3.0,179324.0,330646.0,271699.0,311470.0,278520.0
2026-04-14 18:06:09.190746,740752,1609507462803681,5062773705,0.864736,-0.626592,-0.476288,-31.29875,17.7975,-2.5725,-5.272,24.920002,-26.304,concentric,4,3.0,179324.0,330646.0,271699.0,311470.0,278520.0
2026-04-14 18:06:09.193296,740753,1609507462812613,5062782420,0.89792,-0.394304,-0.236192,-49.86625,0.455,12.87125,-5.424,24.936,-26.224,concentric,4,3.0,179324.0,330646.0,271699.0,311470.0,278520.0
2026-04-14 18:06:09.195810,740754,1609507462827334,5062797409,0.89792,-0.394304,-0.236192,-1.37375,-0.4725,12.69625,-5.424,24.936,-26.224,concentric,4,3.0,179324.0,330646.0,271699.0,311470.0,278520.0
2026-04-14 18:06:09.197887,740755,1609507462836323,5062806167,0.950624,0.089792,-0.076128,47.36375,2.835,1.05875,-5.416,24.888,-26.296001,concentric,4,3.0,179324.0,330646.0,271699.0,311470.0,278520.0
2026-04-14 18:06:09.211641,740756,1609507462850896,5062821220,0.950624,-0.206912,-0.425536,45.5525,5.7225,-0.1575,-5.416,24.888,-26.296001,concentric,4,3.0,179324.0,330646.0,271699.0,311470.0,278520.0
2026-04-14 18:06:09.221668,740757,1609507462859844,5062829916,0.901824,-0.212768,-0.425536,20.44875,3.325,-3.29,-5.176,25.208002,-25.016,concentric,4,3.0,179324.0,330646.0,271699.0,311470.0,278520.0
2026-04-14 18:06:09.230805,740758,1609507462868783,5062838641,0.901824,-0.212768,-0.425536,-12.83625,-3.535,-1.19875,-5.176,25.208002,-25.016,concentric,4,3.0,179324.0,330646.0,271699.0,311470.0,278520.0
2026-04-14 18:06:09.247731,740759,1609507462883295,5062853490,0.856928,-0.357216,-0.343552,-22.3475,-7.0525,1.855,-5.568,25.320002,-24.920002,concentric,4,3.0,179324.0,330646.0,271699.0,311470.0,278520.0
2026-04-14 18:06:09.273204,740770,1609507462892242,5062862254,0.817888,-0.060512,-0.251808,-10.3425,-7.385,-3.7975,-6.104,25.608002,-25.496,concentric,4,3.0,168639.0,328833.0,258603.0,309499.0,267309.0
2026-04-14 18:06:09.275463,740771,1609507462906753,5062875119,0.817888,-0.060512,-0.251808,6.2825,-3.82375,-11.71625,-6.104,25.608002,-25.496,concentric,4,3.0,168639.0,328833.0,258603.0,309499.0,267309.0
2026-04-14 18:06:09.278302,740772,1609507462916315,5062885919,0.821792,-0.158112,-0.372832,7.455,-0.48125,-16.905,-6.376,25.856,-24.648,concentric,4,3.0,168639.0,328833.0,258603.0,309499.0,267309.0
2026-04-14 18:06:09.285731,740773,1609507462925415,5062894645,0.821792,-0.158112,-0.372832,-4.585,0.55125,-15.61,-6.376,25.856,-24.648,concentric,4,3.0,168639.0,328833.0,258603.0,309499.0,267309.0
2026-04-14 18:06:09.300502,740774,1609507462939951,5062909572,0.81008,-0.452864,-0.447008,-16.275,-2.2925,-11.92625,-6.232,25.36,-25.12,concentric,4,3.0,168639.0,328833.0,258603.0,309499.0,267309.0
2026-04-14 18:06:09.310827,740775,1609507462949015,5062918259,0.81008,-0.452864,-0.447008,-15.96,-5.4775,-4.75125,-6.232,25.36,-25.12,concentric,4,3.0,168639.0,328833.0,258603.0,309499.0,267309.0
2026-04-14 18:06:09.325797,740776,1609507462963492,5062933131,0.806176,-0.179584,-0.27328,-1.1375,-4.01625,0.1225,-5.424,25.240002,-25.216002,concentric,4,3.0,168639.0,328833.0,258603.0,309499.0,267309.0
2026-04-14 18:06:09.333106,740777,1609507462972442,5062941844,0.77104,-0.00976,-0.257664,12.5125,1.4175,-2.0475,-6.608,26.400002,-26.032001,concentric,4,3.0,168639.0,328833.0,258603.0,309499.0,267309.0
2026-04-14 18:06:09.395831,740788,1609507462987480,5062957064,0.77104,-0.00976,-0.257664,13.58875,5.81875,-5.94125,-6.608,26.400002,-26.032001,concentric,4,3.0,160592.0,329197.0,249850.0,310186.0,259628.0
2026-04-14 18:06:09.398176,740789,1609507462996598,5062965897,0.851072,-0.290848,-0.421632,5.43375,8.02375,-7.77,-7.112001,25.36,-24.000002,concentric,4,3.0,160592.0,329197.0,249850.0,310186.0,259628.0
2026-04-14 18:06:09.400459,740790,1609507463005845,5062974666,0.851072,-0.290848,-0.421632,-4.57625,5.8975,-7.60375,-7.112001,25.36,-24.000002,concentric,4,3.0,160592.0,329197.0,249850.0,310186.0,259628.0
2026-04-14 18:06:09.403295,740791,1609507463020844,5062989710,0.933056,-0.30256,-0.179584,-14.805,1.42625,-4.66375,-7.232,25.464,-24.752,concentric,4,3.0,160592.0,329197.0,249850.0,310186.0,259628.0
2026-04-14 18:06:09.405769,740792,1609507463029775,5062998415,0.933056,-0.30256,-0.179584,-9.63375,2.05625,1.8025,-7.232,25.464,-24.752,concentric,4,3.0,160592.0,329197.0,249850.0,310186.0,259628.0
2026-04-14 18:06:09.407896,740793,1609507463039047,5063009170,0.854976,-0.212768,-0.396256,0.6475,5.8975,2.2225,-6.432,25.152,-24.840002,concentric,4,3.0,160592.0,329197.0,249850.0,310186.0,259628.0
2026-04-14 18:06:09.413335,740794,1609507463053587,5063022060,0.769088,-0.236192,-0.445056,-1.65375,8.35625,2.42375,-6.576,25.704,-23.352001,concentric,4,3.0,160592.0,329197.0,249850.0,310186.0,259628.0
2026-04-14 18:06:09.427075,740795,1609507463063030,5063032850,0.769088,-0.236192,-0.445056,-2.1875,7.245,2.2575,-6.576,25.704,-23.352001,concentric,4,3.0,160592.0,329197.0,249850.0,310186.0,259628.0
2026-04-14 18:06:09.438914,740796,1609507463077541,5063047865,0.8784,-0.247904,-0.13664,-0.51625,2.59,0.34125,-6.608,25.560001,-25.240002,concentric,4,3.0,160592.0,329197.0,249850.0,310186.0,259628.0
2026-04-14 18:06:09.516655,740807,1609507463086489,5063056524,0.8784,-0.247904,-0.13664,-0.34125,-2.59875,1.6975,-6.608,25.560001,-25.240002,concentric,4,3.0,158627.0,328746.0,247447.0,309953.0,257434.0
2026-04-14 18:06:09.521743,740808,1609507463096051,5063065263,0.911584,-0.13664,-0.169824,4.97875,-3.2025,3.78,-6.344,25.752,-24.784,concentric,4,3.0,158627.0,328746.0,247447.0,309953.0,257434.0
2026-04-14 18:06:09.522337,740809,1609507463110733,5063080202,0.911584,-0.13664,-0.169824,2.6075,-1.6975,3.73625,-6.344,25.752,-24.784,concentric,4,3.0,158627.0,328746.0,247447.0,309953.0,257434.0
2026-04-14 18:06:09.524004,740810,1609507463119669,5063088886,0.899872,-0.18544,-0.290848,-3.885,-0.72625,4.57625,-6.216,25.464,-23.256,concentric,4,3.0,158627.0,328746.0,247447.0,309953.0,257434.0
2026-04-14 18:06:09.531976,740811,1609507463134235,5063103785,0.890112,-0.288896,-0.171776,-8.70625,-1.575,4.095,-6.056,25.256,-25.320002,concentric,4,3.0,158627.0,328746.0,247447.0,309953.0,257434.0
2026-04-14 18:06:09.536623,740812,1609507463143205,5063112551,0.890112,-0.288896,-0.171776,-14.37625,-3.675,4.06875,-6.056,25.256,-25.320002,concentric,4,3.0,158627.0,328746.0,247447.0,309953.0,257434.0
2026-04-14 18:06:09.539079,740813,1609507463152144,5063121260,0.890112,-0.288896,-0.171776,-16.9225,-5.41625,5.83625,-6.056,25.256,-25.320002,concentric,4,3.0,158627.0,328746.0,247447.0,309953.0,257434.0
2026-04-14 18:06:09.541552,740814,1609507463166800,5063136167,0.909632,-0.25376,-0.148352,-12.792501,-4.795,7.07875,-6.208,25.472002,-21.528002,concentric,4,3.0,158627.0,328746.0,247447.0,309953.0,257434.0
2026-04-14 18:06:09.544112,740815,1609507463175738,5063144855,0.806176,-0.189344,-0.27328,-9.63375,-3.5525,6.88625,-7.04,25.920002,-24.728,concentric,4,3.0,158627.0,328746.0,247447.0,309953.0,257434.0
2026-04-14 18:06:09.571766,740826,1609507463190823,5063160329,0.806176,-0.189344,-0.27328,-6.1425,-3.3075,7.63,-7.04,25.920002,-24.728,concentric,4,3.0,157060.0,326898.0,245929.0,308384.0,255968.0
2026-04-14 18:06:09.574160,740827,1609507463199943,5063169103,0.860832,-0.296704,-0.23424,-4.69,-3.85875,8.23375,-6.688,25.616001,-24.840002,concentric,4,3.0,157060.0,326898.0,245929.0,308384.0,255968.0
2026-04-14 18:06:09.576769,740828,1609507463208965,5063177856,0.860832,-0.296704,-0.23424,-5.95,-5.76625,8.58375,-6.688,25.616001,-24.840002,concentric,4,3.0,157060.0,326898.0,245929.0,308384.0,255968.0
2026-04-14 18:06:09.584247,740829,1609507463223479,5063192754,0.739808,-0.216672,-0.343552,-1.505,-5.88875,9.730001,-5.704001,25.296001,-24.920002,concentric,4,3.0,157060.0,326898.0,245929.0,308384.0,255968.0
2026-04-14 18:06:09.591773,740830,1609507463232419,5063201565,0.739808,-0.216672,-0.343552,-0.72625,-4.76875,10.2025,-5.704001,25.296001,-24.920002,concentric,4,3.0,157060.0,326898.0,245929.0,308384.0,255968.0
2026-04-14 18:06:09.606793,740831,1609507463247075,5063216494,0.835456,-0.212768,-0.257664,-4.43625,-2.87875,13.27375,-4.624,25.400002,-25.496,concentric,4,3.0,157060.0,326898.0,245929.0,308384.0,255968.0
2026-04-14 18:06:09.617961,740832,1609507463256027,5063225179,0.831552,-0.394304,-0.486048,-7.175,-1.8375,16.44125,-5.480001,25.288002,-25.480001,concentric,4,3.0,157060.0,326898.0,245929.0,308384.0,255968.0
2026-04-14 18:06:09.625647,740833,1609507463264979,5063233854,0.831552,-0.394304,-0.486048,-11.06,-3.82375,19.495,-5.480001,25.288002,-25.480001,concentric,4,3.0,157060.0,326898.0,245929.0,308384.0,255968.0
2026-04-14 18:06:09.638997,740834,1609507463279529,5063248779,0.835456,-0.37088,-0.298656,-19.6,-10.2725,22.12875,-5.0,25.288002,-26.528002,eccentric,4,3.0,157060.0,326898.0,245929.0,308384.0,255968.0
2026-04-14 18:06:09.671688,740845,1609507463288616,5063257523,0.835456,-0.37088,-0.298656,-8.16375,-12.85375,26.81875,-5.0,25.288002,-26.528002,eccentric,4,3.0,151863.0,320659.0,239544.0,302349.0,249931.0
2026-04-14 18:06:09.674031,740846,1609507463303275,5063272505,0.835456,-0.23424,-0.197152,8.60125,-10.98125,24.7625,-4.064,25.128,-26.152,eccentric,4,3.0,151863.0,320659.0,239544.0,302349.0,249931.0
2026-04-14 18:06:09.676513,740847,1609507463312290,5063281253,0.835456,-0.23424,-0.197152,18.19125,-6.23875,22.00625,-4.064,25.128,-26.152,eccentric,4,3.0,151863.0,320659.0,239544.0,302349.0,249931.0
2026-04-14 18:06:09.686666,740848,1609507463326946,5063296149,0.700768,-0.111264,-0.32208,22.4175,-1.6975,23.44125,-3.88,25.384,-28.28,eccentric,4,3.0,151863.0,320659.0,239544.0,302349.0,249931.0
2026-04-14 18:06:09.696627,740849,1609507463335884,5063304848,0.813984,-0.314272,-0.218624,19.95875,-0.07,25.97,-3.184,24.960001,-25.848001,eccentric,4,3.0,151863.0,320659.0,239544.0,302349.0,249931.0
2026-04-14 18:06:09.703957,740850,1609507463344825,5063313597,0.813984,-0.314272,-0.218624,8.68,-3.0275,31.8675,-3.184,24.960001,-25.848001,eccentric,4,3.0,151863.0,320659.0,239544.0,302349.0,249931.0
2026-04-14 18:06:09.719283,740851,1609507463359766,5063328503,0.804224,-0.528992,-0.265472,-13.16,-10.185,36.785,-2.808,25.144001,-26.480001,eccentric,4,3.0,151863.0,320659.0,239544.0,302349.0,249931.0
2026-04-14 18:06:09.730458,740852,1609507463369048,5063339233,0.804224,-0.528992,-0.265472,-26.215,-18.10375,40.66125,-2.808,25.144001,-26.480001,eccentric,4,3.0,151863.0,320659.0,239544.0,302349.0,249931.0
2026-04-14 18:06:09.742775,740853,1609507463383555,5063352103,0.776896,-0.269376,-0.1952,-21.04375,-24.33375,44.93125,-3.072,24.976002,-26.064001,eccentric,4,3.0,151863.0,320659.0,239544.0,302349.0,249931.0
2026-04-14 18:06:09.773034,740864,1609507463393182,5063362969,0.776896,-0.269376,-0.1952,1.4525,-22.21625,45.5,-3.072,24.976002,-26.064001,eccentric,4,3.0,141735.0,311498.0,227670.0,294052.0,238596.0
2026-04-14 18:06:09.775362,740865,1609507463402298,5063371751,0.650016,-0.160064,-0.203008,18.4275,-16.6775,42.07,-3.432,25.840002,-25.048,eccentric,4,3.0,141735.0,311498.0,227670.0,294052.0,238596.0
2026-04-14 18:06:09.777974,740866,1609507463416858,5063386748,0.812032,-0.466528,-0.277184,21.13125,-14.096251,42.8925,-1.928,25.488,-25.248001,eccentric,4,3.0,141735.0,311498.0,227670.0,294052.0,238596.0
2026-04-14 18:06:09.788006,740867,1609507463425806,5063395445,0.812032,-0.466528,-0.277184,7.84875,-18.165,49.51625,-1.928,25.488,-25.248001,eccentric,4,3.0,141735.0,311498.0,227670.0,294052.0,238596.0
2026-04-14 18:06:09.795527,740868,1609507463434742,5063404168,0.812032,-0.396256,-0.13664,-18.55875,-28.20125,54.43375,-1.928,25.488,-25.248001,eccentric,4,3.0,141735.0,311498.0,227670.0,294052.0,238596.0
2026-04-14 18:06:09.810304,740869,1609507463449268,5063419181,0.835456,-0.396256,-0.13664,-21.84,-34.39625,59.12375,-1.544,25.784,-25.880001,eccentric,4,3.0,141735.0,311498.0,227670.0,294052.0,238596.0
2026-04-14 18:06:09.819564,740870,1609507463458207,5063427928,0.739808,-0.183488,-0.226432,-1.12,-33.03125,60.375,-0.032,25.6,-26.080002,eccentric,4,3.0,141735.0,311498.0,227670.0,294052.0,238596.0
2026-04-14 18:06:09.856741,740871,1609507463472884,5063442823,0.739808,-0.183488,-0.226432,11.13875,-28.25375,53.59375,-0.032,25.6,-26.080002,eccentric,4,3.0,141735.0,311498.0,227670.0,294052.0,238596.0
2026-04-14 18:06:09.859260,740872,1609507463481837,5063451513,0.55632,-0.22448,-0.240096,9.5375,-25.5325,51.61625,0.168,25.52,-25.976002,eccentric,4,3.0,141735.0,311498.0,227670.0,294052.0,238596.0
2026-04-14 18:06:09.914526,740884,1609507463496493,5063466511,0.70272,-0.525088,-0.288896,2.54625,-26.775,59.12375,0.384,25.472002,-28.192001,eccentric,4,3.0,127730.0,298390.0,211384.0,281899.0,223373.0
2026-04-14 18:06:09.916599,740885,1609507463505470,5063475211,0.70272,-0.525088,-0.288896,-15.365,-33.04,66.71,0.384,25.472002,-28.192001,eccentric,4,3.0,127730.0,298390.0,211384.0,281899.0,223373.0
2026-04-14 18:06:09.918984,740886,1609507463514380,5063483909,0.70272,-0.525088,-0.288896,-42.30625,-42.98875,67.89125,0.384,25.472002,-28.192001,eccentric,4,3.0,127730.0,298390.0,211384.0,281899.0,223373.0
2026-04-14 18:06:09.921447,740887,1609507463528876,5063498800,0.743712,-0.464576,-0.203008,-39.76875,-49.00875,71.5925,1.712,25.208002,-24.920002,eccentric,4,3.0,127730.0,298390.0,211384.0,281899.0,223373.0
2026-04-14 18:06:09.923800,740888,1609507463537833,5063507588,0.587552,-0.38064,-0.374784,-24.17625,-49.95375,71.9075,2.128,25.168001,-24.992,eccentric,4,3.0,127730.0,298390.0,211384.0,281899.0,223373.0
2026-04-14 18:06:09.926397,740889,1609507463552559,5063522528,0.587552,-0.38064,-0.374784,-12.775,-47.425,69.615,2.128,25.168001,-24.992,eccentric,4,3.0,127730.0,298390.0,211384.0,281899.0,223373.0
2026-04-14 18:06:09.928716,740890,1609507463561560,5063531272,0.577792,-0.528992,-0.482144,-5.80125,-47.5825,69.23,2.84,25.008001,-25.088001,eccentric,4,3.0,127730.0,298390.0,211384.0,281899.0,223373.0
2026-04-14 18:06:09.938946,740891,1609507463576069,5063546226,0.599264,-0.57584,-0.552416,-3.49125,-50.82875,71.3125,2.84,24.832,-27.456001,eccentric,4,3.0,127730.0,298390.0,211384.0,281899.0,223373.0
2026-04-14 18:06:09.946573,740892,1609507463584987,5063554895,0.599264,-0.57584,-0.552416,-12.66125,-56.245,73.36875,3.744,24.832,-27.456001,eccentric,4,3.0,127730.0,298390.0,211384.0,281899.0,223373.0
2026-04-14 18:06:09.976671,740903,1609507463594013,5063563637,0.599264,-0.57584,-0.552416,-15.75875,-61.81,77.49875,3.744,24.832,-27.456001,eccentric,4,3.0,106426.0,282536.0,185564.0,266965.0,197885.0
2026-04-14 18:06:09.979564,740904,1609507463608544,5063578594,0.64416,-0.366976,-0.35136,-3.92,-62.67625,76.615,5.832,24.928001,-27.688002,eccentric,4,3.0,106426.0,282536.0,185564.0,266965.0,197885.0
2026-04-14 18:06:09.981964,740905,1609507463617625,5063587351,0.46848,-0.374784,-0.573888,4.5675,-60.47125,68.39875,6.68,24.720001,-26.376001,eccentric,4,3.0,106426.0,282536.0,185564.0,266965.0,197885.0
2026-04-14 18:06:09.995981,740906,1609507463632109,5063602246,0.46848,-0.374784,-0.573888,7.07,-60.29625,63.857502,6.68,24.720001,-26.376001,eccentric,4,3.0,106426.0,282536.0,185564.0,266965.0,197885.0
2026-04-14 18:06:10.002518,740907,1609507463641182,5063610925,0.46848,-0.56608,-0.612928,2.5375,-64.23375,62.5975,8.376,24.2,-25.672,eccentric,4,3.0,106426.0,282536.0,185564.0,266965.0,197885.0
2026-04-14 18:06:10.029834,740908,1609507463650263,5063619612,0.46848,-0.56608,-0.612928,-9.72125,-67.24375,64.155,8.376,24.2,-25.672,eccentric,4,3.0,106426.0,282536.0,185564.0,266965.0,197885.0
2026-04-14 18:06:10.032029,740909,1609507463664776,5063634566,0.60512,-0.66368,-0.488,-17.96375,-69.405,68.39875,9.056001,23.6,-26.008001,eccentric,4,3.0,106426.0,282536.0,185564.0,266965.0,197885.0
2026-04-14 18:06:10.034558,740910,1609507463673704,5063643266,0.60512,-0.66368,-0.488,-12.845,-71.3475,66.14125,9.056001,23.6,-26.008001,eccentric,4,3.0,106426.0,282536.0,185564.0,266965.0,197885.0
2026-04-14 18:06:10.049408,740911,1609507463688385,5063658196,0.530944,-0.562176,-0.61488,-0.6125,-71.35625,60.6025,10.032001,23.376001,-26.496002,eccentric,4,3.0,106426.0,282536.0,185564.0,266965.0,197885.0
2026-04-14 18:06:10.082098,740922,1609507463697385,5063666969,0.540704,-0.52704,-0.398208,13.16,-70.91875,58.9225,11.608001,23.912,-25.776001,eccentric,4,3.0,73801.0,262622.0,144894.0,249942.0,156380.0
2026-04-14 18:06:10.084604,740923,1609507463711936,5063681894,0.540704,-0.52704,-0.398208,12.41625,-71.77625,55.85125,11.608001,23.912,-25.776001,eccentric,4,3.0,73801.0,262622.0,144894.0,249942.0,156380.0
2026-04-14 18:06:10.089542,740924,1609507463720901,5063690606,0.56608,-0.735904,-0.69296,-1.42625,-71.0675,53.4975,12.768001,23.272001,-25.824001,eccentric,4,3.0,73801.0,262622.0,144894.0,249942.0,156380.0
2026-04-14 18:06:10.090183,740925,1609507463729854,5063699421,0.56608,-0.735904,-0.69296,-3.15875,-69.58,57.60125,12.768001,23.272001,-25.824001,eccentric,4,3.0,73801.0,262622.0,144894.0,249942.0,156380.0
2026-04-14 18:06:10.105676,740926,1609507463744386,5063714378,0.51728,-0.651968,-0.612928,9.1,-68.0225,58.03875,12.736001,23.704,-23.552002,eccentric,4,3.0,73801.0,262622.0,144894.0,249942.0,156380.0
2026-04-14 18:06:10.115676,740927,1609507463753472,5063723092,0.51728,-0.651968,-0.612928,24.75375,-66.80625,53.66375,12.736001,23.704,-23.552002,eccentric,4,3.0,73801.0,262622.0,144894.0,249942.0,156380.0
2026-04-14 18:06:10.128174,740928,1609507463767976,5063738026,0.493856,-0.64416,-0.708576,23.56375,-66.325,48.5975,13.496,23.544,-25.216002,eccentric,4,3.0,73801.0,262622.0,144894.0,249942.0,156380.0
2026-04-14 18:06:10.138322,740929,1609507463776939,5063746732,0.493856,-0.732,-0.56608,14.00875,-68.20625,46.38375,13.496,23.544,-25.216002,eccentric,4,3.0,73801.0,262622.0,144894.0,249942.0,156380.0
2026-04-14 18:06:10.147072,740930,1609507463785890,5063755442,0.528992,-0.732,-0.56608,1.26875,-69.51,44.75625,15.248001,22.800001,-26.720001,eccentric,4,3.0,73801.0,262622.0,144894.0,249942.0,156380.0
2026-04-14 18:06:10.179564,740941,1609507463800447,5063770542,0.544608,-0.708576,-0.462624,2.75625,-68.27625,46.87375,16.08,22.592001,-24.52,eccentric,4,3.0,56627.0,246643.0,120243.0,236395.0,131209.0
2026-04-14 18:06:10.183689,740942,1609507463809467,5063779330,0.544608,-0.708576,-0.462624,11.55,-65.3625,46.7425,16.08,22.592001,-24.52,eccentric,4,3.0,56627.0,246643.0,120243.0,236395.0,131209.0
2026-04-14 18:06:10.186510,740943,1609507463824216,5063794227,0.392352,-0.710528,-0.696864,16.485,-64.1725,45.03625,16.560001,22.728,-22.768002,eccentric,4,3.0,56627.0,246643.0,120243.0,236395.0,131209.0
2026-04-14 18:06:10.194873,740944,1609507463833146,5063802914,0.392352,-0.710528,-0.696864,15.09375,-65.10875,42.95375,16.560001,22.728,-22.768002,eccentric,4,3.0,56627.0,246643.0,120243.0,236395.0,131209.0
2026-04-14 18:06:10.235021,740945,1609507463847695,5063817859,0.384544,-0.74176,-0.70272,4.69875,-67.795,41.4225,17.368,22.432001,-24.072,eccentric,4,3.0,56627.0,246643.0,120243.0,236395.0,131209.0
2026-04-14 18:06:10.237117,740946,1609507463856595,5063826547,0.384544,-0.74176,-0.70272,3.08,-68.88,43.7675,17.368,22.432001,-24.072,eccentric,4,3.0,56627.0,246643.0,120243.0,236395.0,131209.0
2026-04-14 18:06:10.239626,740947,1609507463865481,5063835228,0.298656,-0.69296,-0.632448,7.67375,-68.59125,42.14,17.448,22.576,-22.952002,eccentric,4,3.0,56627.0,246643.0,120243.0,236395.0,131209.0
2026-04-14 18:06:10.261634,740948,1609507463879963,5063850155,0.353312,-0.767136,-0.804224,10.47375,-68.0925,42.44625,18.776001,22.240002,-23.096,eccentric,4,3.0,56627.0,246643.0,120243.0,236395.0,131209.0
2026-04-14 18:06:10.264531,740949,1609507463889068,5063858893,0.353312,-0.767136,-0.804224,9.975,-67.52375,41.79,18.776001,22.240002,-23.096,eccentric,4,3.0,56627.0,246643.0,120243.0,236395.0,131209.0
2026-04-14 18:06:10.297671,740960,1609507463903819,5063873811,0.445056,-0.802272,-0.56608,-2.79125,-68.53875,40.04,18.816,21.984001,-21.752,eccentric,4,3.0,46459.0,227243.0,103243.0,220392.0,112817.0
2026-04-14 18:06:10.302661,740961,1609507463912867,5063882525,0.445056,-0.802272,-0.56608,-7.2625,-66.47375,41.895,18.816,21.984001,-21.752,eccentric,4,3.0,46459.0,227243.0,103243.0,220392.0,112817.0
2026-04-14 18:06:10.305284,740962,1609507463921905,5063891237,0.413824,-0.80032,-0.573888,-2.96625,-63.6475,38.66625,19.36,21.736002,-20.528002,eccentric,4,3.0,46459.0,227243.0,103243.0,220392.0,112817.0
2026-04-14 18:06:10.306509,740963,1609507463936452,5063906282,0.413824,-0.80032,-0.573888,3.4125,-62.93,36.86375,19.36,21.736002,-20.528002,eccentric,4,3.0,46459.0,227243.0,103243.0,220392.0,112817.0
2026-04-14 18:06:10.308978,740964,1609507463945365,5063915121,0.284992,-0.671488,-0.616832,8.46125,-61.6875,38.19375,19.584002,22.048,-20.04,eccentric,4,3.0,46459.0,227243.0,103243.0,220392.0,112817.0
2026-04-14 18:06:10.320731,740965,1609507463959898,5063930053,0.203008,-0.735904,-0.778848,6.86875,-60.38375,36.86375,20.52,21.552002,-21.504002,eccentric,4,3.0,46459.0,227243.0,103243.0,220392.0,112817.0
2026-04-14 18:06:10.332055,740966,1609507463968878,5063938757,0.203008,-0.735904,-0.778848,1.505,-60.9175,35.67375,20.52,21.552002,-21.504002,eccentric,4,3.0,46459.0,227243.0,103243.0,220392.0,112817.0
2026-04-14 18:06:10.344590,740967,1609507463983564,5063953658,0.191296,-0.813984,-0.665632,-3.605,-61.53875,34.615,20.816002,21.144001,-20.368,eccentric,4,3.0,46459.0,227243.0,103243.0,220392.0,112817.0
2026-04-14 18:06:10.378069,740978,1609507463993133,5063962742,0.191296,-0.813984,-0.665632,-9.38,-62.4575,33.83625,20.816002,21.144001,-20.368,eccentric,4,3.0,40075.0,204113.0,91523.0,203323.0,99866.0
2026-04-14 18:06:10.380341,740979,1609507464002235,5063971510,0.290848,-0.86864,-0.724192,-11.0075,-61.013752,35.16625,22.632002,20.6,-21.080002,eccentric,4,3.0,40075.0,204113.0,91523.0,203323.0,99866.0
2026-04-14 18:06:10.386609,740980,1609507464016752,5063986558,0.290848,-0.86864,-0.724192,-5.95,-58.695,34.1775,22.632002,20.6,-21.080002,eccentric,4,3.0,40075.0,204113.0,91523.0,203323.0,99866.0
2026-04-14 18:06:10.386709,740981,1609507464025828,5063995452,0.230336,-0.720288,-0.5856,3.24625,-57.12,33.8975,23.304,20.712002,-20.328001,eccentric,4,3.0,40075.0,204113.0,91523.0,203323.0,99866.0
2026-04-14 18:06:10.395761,740982,1609507464034783,5064004154,0.230336,-0.720288,-0.5856,6.16875,-56.34125,31.473751,23.304,20.712002,-20.328001,eccentric,4,3.0,40075.0,204113.0,91523.0,203323.0,99866.0
2026-04-14 18:06:10.411987,740983,1609507464049386,5064019032,0.105408,-0.735904,-0.743712,4.34875,-55.78125,30.4325,23.648,20.528002,-19.2,eccentric,4,3.0,40075.0,204113.0,91523.0,203323.0,99866.0
2026-04-14 18:06:10.419488,740984,1609507464058327,5064027713,0.105408,-0.735904,-0.743712,0.3675,-56.2275,28.866251,23.648,20.528002,-19.2,eccentric,4,3.0,40075.0,204113.0,91523.0,203323.0,99866.0
2026-04-14 18:06:10.434543,740985,1609507464072947,5064042643,0.210816,-0.77104,-0.650016,-0.51625,-56.00875,31.605,23.400002,20.136002,-20.952002,eccentric,4,3.0,40075.0,204113.0,91523.0,203323.0,99866.0
2026-04-14 18:06:10.441674,740986,1609507464082097,5064051458,0.208864,-0.864736,-0.812032,-2.03,-54.7225,29.61,24.672,19.52,-19.528002,eccentric,4,3.0,40075.0,204113.0,91523.0,203323.0,99866.0
2026-04-14 18:06:10.476409,740997,1609507464096733,5064066494,0.208864,-0.864736,-0.812032,-6.36125,-54.3025,28.04375,24.672,19.52,-19.528002,eccentric,4,3.0,35142.0,183960.0,82315.0,188841.0,88702.0
2026-04-14 18:06:10.478898,740998,1609507464105725,5064075183,0.228384,-0.841312,-0.675392,-3.75375,-52.84125,27.23875,25.144001,19.576,-19.240002,eccentric,4,3.0,35142.0,183960.0,82315.0,188841.0,88702.0
2026-04-14 18:06:10.481488,740999,1609507464114688,5064083938,0.228384,-0.841312,-0.675392,-1.37375,-52.3425,24.22,25.144001,19.576,-19.240002,eccentric,4,3.0,35142.0,183960.0,82315.0,188841.0,88702.0
2026-04-14 18:06:10.489446,741000,1609507464129327,5064098900,0.152256,-0.833504,-0.772992,-1.9075,-51.44125,22.47875,25.6,19.536001,-18.888,eccentric,4,3.0,35142.0,183960.0,82315.0,188841.0,88702.0
2026-04-14 18:06:10.499425,741001,1609507464138278,5064107572,0.152256,-0.833504,-0.772992,-3.3775,-50.35625,22.44375,25.6,19.536001,-18.888,eccentric,4,3.0,35142.0,183960.0,82315.0,188841.0,88702.0
2026-04-14 18:06:10.515808,741002,1609507464152776,5064122494,0.177632,-0.806176,-0.661728,-5.59125,-48.1425,22.05,25.376001,19.544,-18.128,eccentric,4,3.0,35142.0,183960.0,82315.0,188841.0,88702.0
2026-04-14 18:06:10.522057,741003,1609507464161706,5064131231,0.089792,-0.851072,-0.796416,-5.29375,-44.98375,21.428751,25.472002,18.896002,-18.320002,eccentric,4,3.0,35142.0,183960.0,82315.0,188841.0,88702.0
2026-04-14 18:06:10.530832,741004,1609507464170722,5064139932,0.089792,-0.851072,-0.796416,-6.48375,-42.638752,19.25875,25.472002,18.896002,-18.320002,eccentric,4,3.0,35142.0,183960.0,82315.0,188841.0,88702.0
2026-04-14 18:06:10.545821,741005,1609507464185373,5064154853,0.037088,-0.876448,-0.931104,-7.735,-39.9175,17.99875,26.624,18.560001,-18.320002,eccentric,4,3.0,35142.0,183960.0,82315.0,188841.0,88702.0
2026-04-14 18:06:10.628374,741016,1609507464194501,5064163893,0.037088,-0.876448,-0.931104,-6.8775,-37.28375,16.8,26.624,18.560001,-18.320002,eccentric,4,3.0,33031.0,183325.0,78296.0,188888.0,83483.0
2026-04-14 18:06:10.630822,741017,1609507464209102,5064178869,0.072224,-0.843264,-0.940864,-6.405,-34.763752,16.7825,25.728,18.720001,-16.616001,eccentric,4,3.0,33031.0,183325.0,78296.0,188888.0,83483.0
2026-04-14 18:06:10.633330,741018,1609507464218069,5064187564,0.072224,-0.843264,-0.940864,-7.56875,-32.8825,15.56625,25.728,18.720001,-16.616001,eccentric,4,3.0,33031.0,183325.0,78296.0,188888.0,83483.0
2026-04-14 18:06:10.635802,741019,1609507464232602,5064202449,0.109312,-0.837408,-0.671488,-10.22875,-30.58125,13.95625,25.904001,18.552,-16.640001,eccentric,4,3.0,33031.0,183325.0,78296.0,188888.0,83483.0
2026-04-14 18:06:10.638417,741020,1609507464241633,5064211149,0.07808,-0.804224,-0.642208,-7.315,-25.90875,14.30625,26.44,18.352001,-16.616001,eccentric,4,3.0,33031.0,183325.0,78296.0,188888.0,83483.0
2026-04-14 18:06:10.640566,741021,1609507464250602,5064219967,0.07808,-0.804224,-0.642208,-2.77375,-20.8775,13.685,26.44,18.352001,-16.616001,eccentric,4,3.0,33031.0,183325.0,78296.0,188888.0,83483.0
2026-04-14 18:06:10.668125,741022,1609507464265157,5064234906,0.037088,-0.823744,-0.788608,-0.0525,-16.7475,13.20375,26.328001,18.048,-17.544,eccentric,4,3.0,33031.0,183325.0,78296.0,188888.0,83483.0
2026-04-14 18:06:10.670834,741023,1609507464274100,5064243611,0.037088,-0.823744,-0.788608,1.07625,-13.39625,12.2675,26.328001,18.048,-17.544,eccentric,4,3.0,33031.0,183325.0,78296.0,188888.0,83483.0
2026-04-14 18:06:10.673116,741024,1609507464288609,5064258495,-0.017568,-0.778848,-0.65392,0.00875,-11.4975,10.815,27.112001,17.824001,-17.592001,eccentric,4,3.0,33031.0,183325.0,78296.0,188888.0,83483.0
2026-04-14 18:06:10.705760,741035,1609507464297664,5064267310,-0.017568,-0.778848,-0.65392,1.2425,-9.2575,9.54625,27.112001,17.824001,-17.592001,eccentric,4,3.0,32838.0,183064.0,77677.0,188839.0,82587.0
2026-04-14 18:06:10.707886,741036,1609507464306577,5064276030,0.037088,-0.794464,-0.806176,1.54875,-8.505,8.0675,27.416,17.576,-17.28,eccentric,4,3.0,32838.0,183064.0,77677.0,188839.0,82587.0
2026-04-14 18:06:10.710449,741037,1609507464321115,5064290979,-0.005856,-0.745664,-0.650016,1.19875,-6.93,7.28875,27.400002,17.896,-17.672,eccentric,4,3.0,32838.0,183064.0,77677.0,188839.0,82587.0
2026-04-14 18:06:10.713034,741038,1609507464330110,5064299693,-0.005856,-0.745664,-0.650016,-0.42875,-4.92625,6.1075,27.400002,17.896,-17.672,eccentric,4,3.0,32838.0,183064.0,77677.0,188839.0,82587.0
2026-04-14 18:06:10.715821,741039,1609507464344638,5064314656,0.027328,-0.808128,-0.601216,-1.47,-3.36875,4.50625,27.736002,17.624,-17.496,eccentric,4,3.0,32838.0,183064.0,77677.0,188839.0,82587.0
2026-04-14 18:06:10.718334,741040,1609507464353739,5064323364,0.027328,-0.808128,-0.601216,0.18375,-1.5575,4.025,27.736002,17.624,-17.496,eccentric,4,3.0,32838.0,183064.0,77677.0,188839.0,82587.0
2026-04-14 18:06:10.729633,741041,1609507464368297,5064338261,-0.03904,-0.792512,-0.827648,3.64,-0.35,3.535,27.616001,17.544,-16.936,eccentric,4,3.0,32838.0,183064.0,77677.0,188839.0,82587.0
2026-04-14 18:06:10.740697,741042,1609507464377267,5064346974,-0.03904,-0.792512,-0.827648,5.76625,-0.6475,3.31625,27.616001,17.544,-16.936,eccentric,4,3.0,32838.0,183064.0,77677.0,188839.0,82587.0
2026-04-14 18:06:10.747232,741043,1609507464386187,5064355671,-0.017568,-0.769088,-0.794464,5.2675,-0.58625,2.975,27.704,17.728,-16.76,eccentric,4,3.0,32838.0,183064.0,77677.0,188839.0,82587.0
2026-04-14 18:06:10.778327,741054,1609507464400783,5064370656,-0.017568,-0.769088,-0.667584,5.4425,-0.1225,1.4175,27.704,17.728,-16.76,eccentric,4,3.0,32664.0,183270.0,77188.0,189232.0,81968.0
2026-04-14 18:06:10.780828,741055,1609507464409780,5064379367,0.05856,-0.788608,-0.667584,2.66,-0.4375,0.74375,27.680002,17.68,-15.68,eccentric,4,3.0,32664.0,183270.0,77188.0,189232.0,81968.0
2026-04-14 18:06:10.785833,741056,1609507464424314,5064394258,0.046848,-0.821792,-0.745664,1.155,-0.23625,0.98875,27.688002,17.864,-16.28,eccentric,4,3.0,32664.0,183270.0,77188.0,189232.0,81968.0
2026-04-14 18:06:10.792973,741057,1609507464433342,5064402989,0.046848,-0.821792,-0.745664,-2.0475,0.2625,-0.41125,27.688002,17.864,-16.28,eccentric,4,3.0,32664.0,183270.0,77188.0,189232.0,81968.0
2026-04-14 18:06:10.804624,741058,1609507464442375,5064411718,0.02928,-0.808128,-0.601216,-3.815,0.49,-1.02375,26.920002,17.816,-19.392,eccentric,4,3.0,32664.0,183270.0,77188.0,189232.0,81968.0
2026-04-14 18:06:10.819607,741059,1609507464456887,5064426642,0.02928,-0.808128,-0.601216,-4.29625,0.90125,-1.5925,26.920002,17.816,-19.392,eccentric,4,3.0,32664.0,183270.0,77188.0,189232.0,81968.0
2026-04-14 18:06:10.826668,741060,1609507464465899,5064435334,-0.001952,-0.763232,-0.6344,-1.925,1.3125,-1.6975,26.552002,17.088001,-17.456001,eccentric,4,3.0,32664.0,183270.0,77188.0,189232.0,81968.0
2026-04-14 18:06:10.844581,741061,1609507464480433,5064450301,-0.001952,-0.763232,-0.6344,-0.04375,1.89875,-1.96,26.552002,17.088001,-17.456001,eccentric,4,3.0,32664.0,183270.0,77188.0,189232.0,81968.0
2026-04-14 18:06:10.850633,741062,1609507464489383,5064459050,0.056608,-0.786656,-0.62464,-0.4025,1.995,-2.1875,27.792002,18.016,-17.296001,eccentric,4,3.0,32664.0,183270.0,77188.0,189232.0,81968.0
2026-04-14 18:06:10.878858,741073,1609507464504107,5064474350,-0.011712,-0.794464,-0.825696,0.81375,2.00375,-2.5375,27.240002,17.736,-17.384,eccentric,4,3.0,32466.0,183951.0,76634.0,190026.0,81277.0
2026-04-14 18:06:10.881320,741074,1609507464513037,5064483077,-0.011712,-0.794464,-0.825696,0.41125,2.38875,-2.73875,27.240002,17.736,-17.384,eccentric,4,3.0,32466.0,183951.0,76634.0,190026.0,81277.0
2026-04-14 18:06:10.883928,741075,1609507464522101,5064491787,-0.007808,-0.796416,-0.815936,-1.3825,3.73625,-3.955,27.240002,18.008001,-17.76,eccentric,4,3.0,32466.0,183951.0,76634.0,190026.0,81277.0
2026-04-14 18:06:10.898015,741076,1609507464536612,5064506661,-0.007808,-0.796416,-0.815936,-1.1725,4.095,-4.45375,27.840002,18.008001,-17.76,eccentric,4,3.0,32466.0,183951.0,76634.0,190026.0,81277.0
2026-04-14 18:06:10.910483,741077,1609507464545624,5064515409,-0.01952,-0.796416,-0.8296,-0.84875,4.76,-4.8475,27.544,17.824001,-17.208,eccentric,4,3.0,32466.0,183951.0,76634.0,190026.0,81277.0
2026-04-14 18:06:10.921765,741078,1609507464560124,5064530341,-0.01952,-0.796416,-0.8296,0.3325,5.52125,-5.0925,27.544,17.824001,-17.208,eccentric,4,3.0,32466.0,183951.0,76634.0,190026.0,81277.0
2026-04-14 18:06:10.930375,741079,1609507464569094,5064539062,-0.02928,-0.759328,-0.735904,2.84375,5.66125,-5.215,27.328001,17.688002,-15.744,eccentric,4,3.0,32466.0,183951.0,76634.0,190026.0,81277.0
2026-04-14 18:06:10.959208,741080,1609507464583786,5064553940,0.035136,-0.80032,-0.67344,4.9525,5.7575,-4.82125,27.392002,17.504002,-18.432001,eccentric,4,3.0,32466.0,183951.0,76634.0,190026.0,81277.0
2026-04-14 18:06:10.982977,741081,1609507464592887,5064562654,0.035136,-0.80032,-0.67344,4.2,5.1975,-5.38125,27.392002,17.504002,-18.432001,eccentric,4,3.0,32466.0,183951.0,76634.0,190026.0,81277.0
2026-04-14 18:06:11.015472,741092,1609507464601873,5064571477,0.035136,-0.80032,-0.704672,4.52375,4.865,-5.5475,27.392002,17.504002,-18.432001,eccentric,4,3.0,32507.0,183540.0,76516.0,189652.0,81128.0
2026-04-14 18:06:11.018044,741093,1609507464616411,5064586337,0.046848,-0.77104,-0.716384,6.86875,4.94375,-5.46,27.088001,18.128,-15.816001,eccentric,4,3.0,32507.0,183540.0,76516.0,189652.0,81128.0
2026-04-14 18:06:11.020527,741094,1609507464625408,5064595055,-0.031232,-0.796416,-0.772992,5.46875,5.39875,-4.41,26.704,18.304,-16.624,eccentric,4,3.0,32507.0,183540.0,76516.0,189652.0,81128.0
2026-04-14 18:06:11.023047,741095,1609507464639987,5064610116,-0.031232,-0.796416,-0.772992,5.0925,6.08125,-5.34625,26.704,18.304,-16.624,eccentric,4,3.0,32507.0,183540.0,76516.0,189652.0,81128.0
2026-04-14 18:06:11.025553,741096,1609507464648934,5064618820,0.003904,-0.77104,-0.763232,7.58625,5.83625,-4.80375,26.624,18.04,-17.424002,eccentric,4,3.0,32507.0,183540.0,76516.0,189652.0,81128.0
2026-04-14 18:06:11.027983,741097,1609507464657851,5064627758,0.003904,-0.77104,-0.763232,6.2125,4.3225,-4.725,26.624,18.04,-17.424002,eccentric,4,3.0,32507.0,183540.0,76516.0,189652.0,81128.0
2026-04-14 18:06:11.034305,741098,1609507464672495,5064642681,0.037088,-0.755424,-0.548512,1.2075,2.3975,-5.48625,27.432001,17.808,-16.984001,eccentric,4,3.0,32507.0,183540.0,76516.0,189652.0,81128.0
