pc_time,serial_num,sensor_ts,host_ts,ax,ay,az,gx,gy,gz,mx,my,mz,phase,rpe,weight_kg,ppg_a,ppg_b,ppg_c,ppg_d,ppg_e
2026-04-14 18:06:28.711738,744420,1609507482320766,5082290168,0.484096,-0.378688,-0.632448,-14.27125,103.76625,-58.170002,6.104,19.6,-28.352001,concentric,4,3.0,57653.0,295624.0,120738.0,287509.0,126983.0
2026-04-14 18:06:28.716358,744421,1609507482329693,5082298933,0.484096,-0.378688,-0.632448,-13.76375,101.4475,-62.8775,6.104,19.6,-28.352001,concentric,4,3.0,57653.0,295624.0,120738.0,287509.0,126983.0
2026-04-14 18:06:28.719619,744422,1609507482344317,5082313861,0.447008,-0.37088,-0.650016,-17.73625,100.47625,-64.4525,4.528,19.896002,-28.312002,concentric,4,3.0,57653.0,295624.0,120738.0,287509.0,126983.0
2026-04-14 18:06:28.720242,744423,1609507482353328,5082322591,0.447008,-0.37088,-0.650016,-10.66625,98.621254,-60.322502,4.528,19.896002,-28.312002,concentric,4,3.0,57653.0,295624.0,120738.0,287509.0,126983.0
2026-04-14 18:06:28.730843,744424,1609507482367841,5082337475,0.538752,-0.324032,-0.394304,-12.4075,94.56125,-61.451252,2.336,20.160002,-28.648,concentric,4,3.0,57653.0,295624.0,120738.0,287509.0,126983.0
2026-04-14 18:06:28.739203,744425,1609507482376796,5082346176,0.593408,-0.353312,-0.583648,-16.625,88.7425,-62.30875,2.336,20.160002,-31.28,concentric,4,3.0,57653.0,295624.0,120738.0,287509.0,126983.0
2026-04-14 18:06:28.745602,744426,1609507482385725,5082354916,0.593408,-0.353312,-0.583648,-24.045,83.67625,-57.14625,1.904,19.496,-31.28,concentric,4,3.0,57653.0,295624.0,120738.0,287509.0,126983.0
2026-04-14 18:06:28.780575,744437,1609507482400360,5082370421,0.689056,-0.333792,-0.476288,-36.3475,81.10375,-54.73125,2.472,18.648,-31.144001,concentric,4,3.0,130226.0,329288.0,223545.0,316853.0,232848.0
2026-04-14 18:06:28.783071,744438,1609507482409358,5082379126,0.689056,-0.333792,-0.476288,-31.9375,75.0925,-54.08375,2.472,18.648,-31.144001,concentric,4,3.0,130226.0,329288.0,223545.0,316853.0,232848.0
2026-04-14 18:06:28.785589,744439,1609507482423949,5082394095,0.659776,-0.275232,-0.324032,-39.52375,72.7475,-58.58125,0.48,18.720001,-30.376001,concentric,4,3.0,130226.0,329288.0,223545.0,316853.0,232848.0
2026-04-14 18:06:28.796956,744440,1609507482432900,5082402753,0.659776,-0.275232,-0.324032,-36.23375,70.30625,-60.43625,0.48,18.720001,-30.376001,concentric,4,3.0,130226.0,329288.0,223545.0,316853.0,232848.0
2026-04-14 18:06:28.803090,744441,1609507482441830,5082411458,0.577792,-0.20496,-0.382592,-25.59375,64.7325,-59.89375,0.384,18.736,-30.128002,concentric,4,3.0,130226.0,329288.0,223545.0,316853.0,232848.0
2026-04-14 18:06:28.821119,744442,1609507482456410,5082426358,0.577792,-0.20496,-0.382592,-28.44625,60.9175,-63.665,0.384,18.736,-30.128002,concentric,4,3.0,130226.0,329288.0,223545.0,316853.0,232848.0
2026-04-14 18:06:28.826572,744443,1609507482465386,5082435050,0.577792,-0.20496,-0.339648,-22.33875,55.58,-63.0525,-1.088,18.448,-32.176003,concentric,4,3.0,130226.0,329288.0,223545.0,316853.0,232848.0
2026-04-14 18:06:28.843005,744444,1609507482479968,5082450028,0.70272,-0.259616,-0.30256,-20.29125,51.2575,-62.43125,-1.408,17.968,-31.272001,concentric,4,3.0,130226.0,329288.0,223545.0,316853.0,232848.0
2026-04-14 18:06:28.850640,744445,1609507482488944,5082458731,0.70272,-0.259616,-0.30256,-17.73625,52.78875,-63.7875,-1.408,17.968,-31.272001,concentric,4,3.0,130226.0,329288.0,223545.0,316853.0,232848.0
2026-04-14 18:06:28.880665,744456,1609507482503596,5082473710,0.726144,-0.359168,-0.548512,-14.91,54.775,-63.98875,-1.776,18.056002,-31.432001,concentric,4,3.0,178494.0,344234.0,279897.0,330189.0,282763.0
2026-04-14 18:06:28.883099,744457,1609507482512642,5082482492,0.726144,-0.359168,-0.548512,-16.5375,54.60875,-60.48875,-1.776,18.056002,-31.432001,concentric,4,3.0,178494.0,344234.0,279897.0,330189.0,282763.0
2026-04-14 18:06:28.885635,744458,1609507482521623,5082491238,0.77104,0.023424,-0.16592,-3.28125,55.06375,-58.23125,-2.768,18.36,-31.504002,concentric,4,3.0,178494.0,344234.0,279897.0,330189.0,282763.0
2026-04-14 18:06:28.898137,744459,1609507482536188,5082506150,0.77104,0.023424,-0.16592,17.26375,54.90625,-58.485,-2.768,18.36,-31.504002,concentric,4,3.0,178494.0,344234.0,279897.0,330189.0,282763.0
2026-04-14 18:06:28.909573,744460,1609507482545183,5082514865,0.642208,-0.031232,-0.36112,19.775,53.41875,-61.7575,-3.808,18.848001,-33.672,concentric,4,3.0,178494.0,344234.0,279897.0,330189.0,282763.0
2026-04-14 18:06:28.920495,744461,1609507482559704,5082529805,0.657824,-0.447008,-0.493856,-11.24375,47.005,-57.041252,-4.832,18.6,-30.464,concentric,4,3.0,178494.0,344234.0,279897.0,330189.0,282763.0
2026-04-14 18:06:28.929246,744462,1609507482568628,5082538482,0.657824,-0.447008,-0.493856,-28.55125,40.20625,-41.06375,-4.832,18.6,-30.464,concentric,4,3.0,178494.0,344234.0,279897.0,330189.0,282763.0
2026-04-14 18:06:28.939600,744463,1609507482577594,5082547229,0.657824,-0.447008,-0.267424,-31.535,34.83375,-33.705,-4.832,18.6,-30.464,concentric,4,3.0,178494.0,344234.0,279897.0,330189.0,282763.0
2026-04-14 18:06:28.965906,744464,1609507482592074,5082562098,0.769088,-0.472384,-0.267424,-13.22125,32.4275,-32.375,-4.104,17.960001,-30.816002,concentric,4,3.0,178494.0,344234.0,279897.0,330189.0,282763.0
2026-04-14 18:06:29.033211,744476,1609507482601132,5082571024,0.794464,0.064416,-0.27328,8.53125,38.19375,-36.09375,-5.0,18.792002,-31.080002,concentric,4,3.0,195386.0,352643.0,301316.0,338976.0,296634.0
2026-04-14 18:06:29.035513,744477,1609507482615882,5082585936,0.794464,0.064416,-0.27328,31.7275,40.565,-41.0025,-5.0,18.792002,-31.080002,concentric,4,3.0,195386.0,352643.0,301316.0,338976.0,296634.0
2026-04-14 18:06:29.038454,744478,1609507482624930,5082594789,0.685152,-0.154208,-0.25376,22.5575,42.455,-46.55,-5.32,18.448,-30.648,concentric,4,3.0,195386.0,352643.0,301316.0,338976.0,296634.0
2026-04-14 18:06:29.040578,744479,1609507482639424,5082609711,0.452864,-0.218624,-0.15616,12.18875,53.6375,-38.73625,-6.064,19.064001,-31.160002,concentric,4,3.0,195386.0,352643.0,301316.0,338976.0,296634.0
2026-04-14 18:06:29.043141,744480,1609507482648493,5082618443,0.452864,-0.218624,-0.15616,-6.08125,40.670002,-24.50875,-6.064,19.064001,-31.160002,concentric,4,3.0,195386.0,352643.0,301316.0,338976.0,296634.0
2026-04-14 18:06:29.045584,744481,1609507482657408,5082627124,0.452864,-0.218624,-0.15616,8.70625,25.4975,2.05625,-6.064,19.064001,-31.160002,concentric,4,3.0,195386.0,352643.0,301316.0,338976.0,296634.0
2026-04-14 18:06:29.048468,744482,1609507482671921,5082642067,0.763232,-0.06832,-0.503616,40.0925,21.97125,-23.397501,-6.864,18.904001,-27.568,concentric,4,3.0,195386.0,352643.0,301316.0,338976.0,296634.0
2026-04-14 18:06:29.050457,744483,1609507482680875,5082650767,0.903776,-0.392352,-0.23424,-29.9775,9.5025,-1.6625,-6.984,18.536001,-29.888,concentric,4,3.0,195386.0,352643.0,301316.0,338976.0,296634.0
2026-04-14 18:06:29.084864,744494,1609507482695482,5082665798,0.903776,-0.392352,-0.23424,-49.11375,9.03875,21.51625,-6.984,18.536001,-29.888,concentric,4,3.0,192987.0,355400.0,298136.0,341520.0,294468.0
2026-04-14 18:06:29.085227,744495,1609507482704431,5082674546,0.942816,-0.171776,-0.054656,-9.24,16.765,3.57875,-6.488,18.704,-30.872002,concentric,4,3.0,192987.0,355400.0,298136.0,341520.0,294468.0
2026-04-14 18:06:29.086790,744496,1609507482719006,5082687461,0.864736,-0.050752,-0.40016,23.54625,23.30125,-6.53625,-6.488,18.656,-31.864002,concentric,4,3.0,192987.0,355400.0,298136.0,341520.0,294468.0
2026-04-14 18:06:29.092476,744497,1609507482728303,5082698310,0.864736,-0.050752,-0.40016,24.96375,23.91375,-9.205,-6.752,18.656,-31.864002,concentric,4,3.0,192987.0,355400.0,298136.0,341520.0,294468.0
2026-04-14 18:06:29.099146,744498,1609507482737258,5082707030,0.864736,-0.050752,-0.40016,11.1825,20.04625,-5.50375,-6.752,18.656,-31.864002,concentric,4,3.0,192987.0,355400.0,298136.0,341520.0,294468.0
2026-04-14 18:06:29.115427,744499,1609507482751837,5082722030,0.950624,-0.122976,-0.080032,-8.015,14.02625,-2.23125,-7.488,19.216002,-29.016,concentric,4,3.0,192987.0,355400.0,298136.0,341520.0,294468.0
2026-04-14 18:06:29.122898,744500,1609507482760762,5082730790,0.968192,-0.197152,-0.021472,-11.9875,9.61625,-0.14,-6.84,18.488,-32.616,concentric,4,3.0,192987.0,355400.0,298136.0,341520.0,294468.0
2026-04-14 18:06:29.137154,744501,1609507482775313,5082743682,0.968192,-0.197152,-0.021472,-11.62,9.4675,-6.93,-6.84,18.488,-32.616,concentric,4,3.0,192987.0,355400.0,298136.0,341520.0,294468.0
2026-04-14 18:06:29.146800,744502,1609507482784592,5082754452,0.841312,-0.244,-0.17568,-15.995,9.485,-4.0775,-6.952,18.408,-31.016,concentric,4,3.0,192987.0,355400.0,298136.0,341520.0,294468.0
2026-04-14 18:06:29.154377,744503,1609507482793633,5082763167,0.841312,-0.244,-0.17568,-10.73625,7.13125,-0.28,-6.952,18.408,-31.016,concentric,4,3.0,192987.0,355400.0,298136.0,341520.0,294468.0
2026-04-14 18:06:29.185940,744514,1609507482808272,5082778220,0.81984,-0.17568,-0.415776,-3.78875,3.0275,-2.33625,-7.112001,18.504002,-30.640001,concentric,4,3.0,183021.0,356194.0,285901.0,342257.0,285082.0
2026-04-14 18:06:29.188303,744515,1609507482817222,5082786918,0.81984,-0.17568,-0.415776,-2.1525,-1.925,-2.2925,-7.112001,18.504002,-30.640001,concentric,4,3.0,183021.0,356194.0,285901.0,342257.0,285082.0
2026-04-14 18:06:29.194351,744516,1609507482831824,5082801838,0.911584,-0.066368,-0.216672,-0.2625,-3.91125,-3.01,-7.024,18.84,-29.888,concentric,4,3.0,183021.0,356194.0,285901.0,342257.0,285082.0
2026-04-14 18:06:29.202186,744517,1609507482840766,5082810586,0.827648,-0.187392,-0.316224,-6.11625,-2.61625,-6.3875,-7.336,18.544,-30.784002,concentric,4,3.0,183021.0,356194.0,285901.0,342257.0,285082.0
2026-04-14 18:06:29.230929,744518,1609507482849735,5082819291,0.827648,-0.187392,-0.316224,-13.74625,-1.015,-6.1075,-7.336,18.544,-30.784002,concentric,4,3.0,183021.0,356194.0,285901.0,342257.0,285082.0
2026-04-14 18:06:29.233431,744519,1609507482864181,5082834215,0.837408,-0.167872,-0.279136,-11.165,-0.20125,-4.71625,-7.520001,18.456001,-31.128002,concentric,4,3.0,183021.0,356194.0,285901.0,342257.0,285082.0
2026-04-14 18:06:29.235500,744520,1609507482873101,5082842883,0.837408,-0.167872,-0.279136,-2.17,-2.38,-2.98375,-7.520001,18.456001,-31.128002,concentric,4,3.0,183021.0,356194.0,285901.0,342257.0,285082.0
2026-04-14 18:06:29.253164,744521,1609507482887628,5082857832,0.817888,-0.080032,-0.384544,-1.155,-5.45125,-0.9625,-6.76,18.12,-30.952002,concentric,4,3.0,183021.0,356194.0,285901.0,342257.0,285082.0
2026-04-14 18:06:29.286591,744532,1609507482896554,5082866896,0.817888,-0.080032,-0.384544,-3.9025,-7.02625,2.1875,-6.76,18.12,-30.952002,concentric,4,3.0,183556.0,356220.0,286570.0,342287.0,285331.0
2026-04-14 18:06:29.289270,744533,1609507482911117,5082879793,0.833504,-0.183488,-0.40992,-5.53,-6.16,1.37375,-6.968,18.048,-30.944002,concentric,4,3.0,183556.0,356220.0,286570.0,342287.0,285331.0
2026-04-14 18:06:29.291497,744534,1609507482920487,5082890683,0.913536,-0.183488,-0.18544,-7.455,-5.13625,0.875,-7.528,19.096,-29.864002,concentric,4,3.0,183556.0,356220.0,286570.0,342287.0,285331.0
2026-04-14 18:06:29.294529,744535,1609507482929586,5082899378,0.913536,-0.183488,-0.18544,-0.6475,-4.865,1.04125,-7.528,19.096,-29.864002,concentric,4,3.0,183556.0,356220.0,286570.0,342287.0,285331.0
2026-04-14 18:06:29.306937,744536,1609507482944101,5082914266,0.9272,-0.144448,-0.320128,7.4025,-5.46875,0.0525,-7.928001,18.912,-28.936,concentric,4,3.0,183556.0,356220.0,286570.0,342287.0,285331.0
2026-04-14 18:06:29.332106,744537,1609507482953061,5082922975,0.9272,-0.144448,-0.320128,7.44625,-6.32625,0.23625,-7.928001,18.912,-28.936,concentric,4,3.0,183556.0,356220.0,286570.0,342287.0,285331.0
2026-04-14 18:06:29.357189,744538,1609507482967548,5082937863,0.882304,-0.167872,-0.394304,3.7625,-5.90625,1.07625,-7.952,19.104,-29.856,concentric,4,3.0,183556.0,356220.0,286570.0,342287.0,285331.0
2026-04-14 18:06:29.359254,744539,1609507482976493,5082946556,0.882304,-0.167872,-0.394304,0.77,-4.2875,1.5925,-7.952,19.104,-29.856,concentric,4,3.0,183556.0,356220.0,286570.0,342287.0,285331.0
2026-04-14 18:06:29.361842,744540,1609507482985383,5082955243,0.831552,-0.183488,-0.33184,-0.34125,-2.66875,2.63375,-7.36,18.800001,-29.888,concentric,4,3.0,183556.0,356220.0,286570.0,342287.0,285331.0
2026-04-14 18:06:29.392793,744551,1609507483000211,5082970306,0.831552,-0.183488,-0.33184,3.57,-2.0125,2.70375,-7.36,18.800001,-29.888,concentric,4,3.0,185188.0,356163.0,288645.0,342259.0,287078.0
2026-04-14 18:06:29.395355,744552,1609507483009274,5082979055,0.9272,-0.154208,-0.245952,9.23125,-2.05625,2.0125,-7.400001,19.272001,-33.896,concentric,4,3.0,185188.0,356163.0,288645.0,342259.0,287078.0
2026-04-14 18:06:29.397813,744553,1609507483023785,5082993995,0.847168,-0.13664,-0.327936,9.91375,-3.185,2.65125,-7.344,19.096,-29.928001,concentric,4,3.0,185188.0,356163.0,288645.0,342259.0,287078.0
2026-04-14 18:06:29.400281,744554,1609507483032736,5083002748,0.847168,-0.13664,-0.327936,5.64375,-3.3775,3.395,-7.344,19.096,-29.928001,concentric,4,3.0,185188.0,356163.0,288645.0,342259.0,287078.0
2026-04-14 18:06:29.409014,744555,1609507483047345,5083017665,0.80032,-0.212768,-0.402112,2.14375,-2.47625,4.62,-7.288001,18.928001,-29.776001,concentric,4,3.0,185188.0,356163.0,288645.0,342259.0,287078.0
2026-04-14 18:06:29.417970,744556,1609507483056478,5083026366,0.80032,-0.212768,-0.402112,2.54625,-1.21625,5.64375,-7.288001,18.928001,-29.776001,concentric,4,3.0,185188.0,356163.0,288645.0,342259.0,287078.0
2026-04-14 18:06:29.428128,744557,1609507483065445,5083035046,0.841312,-0.130784,-0.173728,6.72,-1.0325,5.74875,-7.144001,18.720001,-30.920002,concentric,4,3.0,185188.0,356163.0,288645.0,342259.0,287078.0
2026-04-14 18:06:29.440442,744558,1609507483080011,5083049988,0.841312,-0.130784,-0.173728,10.33375,-1.4525,5.32,-7.144001,18.720001,-30.920002,concentric,4,3.0,185188.0,356163.0,288645.0,342259.0,287078.0
2026-04-14 18:06:29.450611,744559,1609507483089110,5083058734,0.802272,-0.169824,-0.40016,9.86125,-2.1,5.565,-6.464,18.944,-31.312002,concentric,4,3.0,185188.0,356163.0,288645.0,342259.0,287078.0
2026-04-14 18:06:29.486897,744570,1609507483103796,5083073754,0.753472,-0.199104,-0.267424,6.29125,-3.22875,7.35,-6.072001,18.952002,-30.792002,concentric,4,3.0,178127.0,355796.0,279755.0,341800.0,280024.0
2026-04-14 18:06:29.489275,744571,1609507483112752,5083082523,0.753472,-0.199104,-0.267424,3.56125,-4.4625,10.535,-6.072001,18.952002,-30.792002,concentric,4,3.0,178127.0,355796.0,279755.0,341800.0,280024.0
2026-04-14 18:06:29.491579,744572,1609507483121796,5083091292,0.853024,-0.288896,-0.335744,3.15,-5.6875,13.83375,-5.864,18.824001,-30.712002,concentric,4,3.0,178127.0,355796.0,279755.0,341800.0,280024.0
2026-04-14 18:06:29.498084,744573,1609507483136345,5083106222,0.853024,-0.288896,-0.335744,3.10625,-7.39375,17.96375,-5.864,18.824001,-30.712002,concentric,4,3.0,178127.0,355796.0,279755.0,341800.0,280024.0
2026-04-14 18:06:29.506691,744574,1609507483145288,5083114941,0.812032,-0.18544,-0.0976,4.4975,-8.785,21.7875,-6.56,19.752,-29.816002,concentric,4,3.0,178127.0,355796.0,279755.0,341800.0,280024.0
2026-04-14 18:06:29.520594,744575,1609507483159811,5083129865,0.812032,-0.18544,-0.0976,10.19375,-9.84375,22.93375,-6.56,19.752,-29.816002,concentric,4,3.0,178127.0,355796.0,279755.0,341800.0,280024.0
2026-04-14 18:06:29.529460,744576,1609507483168744,5083138587,0.767136,-0.191296,-0.113216,11.40125,-10.5175,22.3125,-6.664001,19.232,-30.704002,concentric,4,3.0,178127.0,355796.0,279755.0,341800.0,280024.0
2026-04-14 18:06:29.539496,744577,1609507483177745,5083147290,0.767136,-0.191296,-0.113216,11.34,-11.5675,23.84375,-6.664001,19.232,-30.704002,concentric,4,3.0,178127.0,355796.0,279755.0,341800.0,280024.0
2026-04-14 18:06:29.555691,744578,1609507483192261,5083162170,0.681248,-0.163968,-0.269376,12.10125,-12.88,27.64125,-5.248,19.472,-30.408,concentric,4,3.0,178127.0,355796.0,279755.0,341800.0,280024.0
2026-04-14 18:06:29.584201,744589,1609507483201316,5083170898,0.681248,-0.163968,-0.191296,12.97625,-15.93375,31.85,-5.248,19.472,-30.408,concentric,4,3.0,162561.0,352921.0,260907.0,339003.0,264648.0
2026-04-14 18:06:29.586736,744590,1609507483215917,5083185835,0.798368,-0.216672,-0.189344,7.9625,-20.34375,37.45875,-5.472,19.504002,-29.568,concentric,4,3.0,162561.0,352921.0,260907.0,339003.0,264648.0
2026-04-14 18:06:29.589307,744591,1609507483224873,5083194562,0.718336,-0.230336,-0.152256,-2.415,-24.6225,43.49625,-4.008,19.544,-29.552002,concentric,4,3.0,162561.0,352921.0,260907.0,339003.0,264648.0
2026-04-14 18:06:29.601937,744592,1609507483239386,5083209468,0.718336,-0.230336,-0.152256,-8.1725,-28.6125,47.95875,-4.008,19.544,-29.552002,concentric,4,3.0,162561.0,352921.0,260907.0,339003.0,264648.0
2026-04-14 18:06:29.609233,744593,1609507483248365,5083218191,0.708576,-0.27328,-0.286944,-7.02625,-30.6775,49.97125,-3.88,19.696001,-29.984001,concentric,4,3.0,162561.0,352921.0,260907.0,339003.0,264648.0
2026-04-14 18:06:29.618147,744594,1609507483257418,5083227020,0.708576,-0.27328,-0.286944,-1.09375,-31.7625,51.5725,-3.88,19.696001,-29.984001,concentric,4,3.0,162561.0,352921.0,260907.0,339003.0,264648.0
2026-04-14 18:06:29.634669,744595,1609507483271939,5083241931,0.739808,-0.255712,-0.240096,5.31125,-32.3925,53.6725,-3.624,19.624,-30.832,concentric,4,3.0,162561.0,352921.0,260907.0,339003.0,264648.0
2026-04-14 18:06:29.641619,744596,1609507483280927,5083250652,0.739808,-0.255712,-0.240096,8.25125,-34.78125,56.97125,-3.624,19.624,-30.832,concentric,4,3.0,162561.0,352921.0,260907.0,339003.0,264648.0
2026-04-14 18:06:29.656678,744597,1609507483295408,5083265561,0.774944,-0.2928,-0.398208,4.515,-38.9375,60.75125,-2.368,19.768002,-30.648,concentric,4,3.0,162561.0,352921.0,260907.0,339003.0,264648.0
2026-04-14 18:06:29.738479,744608,1609507483304585,5083274296,0.812032,-0.288896,-0.298656,0.18375,-42.4725,61.5475,-2.192,20.296001,-29.216002,concentric,4,3.0,135030.0,340093.0,227641.0,326955.0,234723.0
2026-04-14 18:06:29.744309,744609,1609507483313591,5083283119,0.812032,-0.288896,-0.298656,0.0525,-44.6775,60.7075,-2.192,20.296001,-29.216002,concentric,4,3.0,135030.0,340093.0,227641.0,326955.0,234723.0
2026-04-14 18:06:29.744742,744610,1609507483328131,5083298020,0.753472,-0.31232,-0.304512,-3.56125,-45.1675,57.67125,-0.848,19.712002,-31.000002,concentric,4,3.0,135030.0,340093.0,227641.0,326955.0,234723.0
2026-04-14 18:06:29.745361,744611,1609507483337044,5083306705,0.753472,-0.31232,-0.304512,-1.0325,-45.45625,58.21375,-0.848,19.712002,-31.000002,concentric,4,3.0,135030.0,340093.0,227641.0,326955.0,234723.0
2026-04-14 18:06:29.747935,744612,1609507483351649,5083321577,0.691008,-0.298656,-0.445056,2.87875,-48.02875,59.47375,-0.024,19.896002,-30.776001,concentric,4,3.0,135030.0,340093.0,227641.0,326955.0,234723.0
2026-04-14 18:06:29.753482,744613,1609507483360618,5083330294,0.691008,-0.298656,-0.445056,2.3275,-51.0475,60.06,-0.024,19.896002,-30.776001,concentric,4,3.0,135030.0,340093.0,227641.0,326955.0,234723.0
2026-04-14 18:06:29.755279,744614,1609507483375123,5083345187,0.706624,-0.413824,-0.525088,0.53375,-54.3725,63.4025,1.288,19.472,-31.624,concentric,4,3.0,135030.0,340093.0,227641.0,326955.0,234723.0
2026-04-14 18:06:29.755456,744615,1609507483384100,5083353883,0.685152,-0.415776,-0.433344,-7.25375,-58.5375,64.25125,1.872,19.352001,-31.960001,concentric,4,3.0,135030.0,340093.0,227641.0,326955.0,234723.0
2026-04-14 18:06:29.757820,744616,1609507483393058,5083362587,0.685152,-0.415776,-0.433344,-5.64375,-63.18375,63.81375,1.872,19.352001,-31.960001,concentric,4,3.0,135030.0,340093.0,227641.0,326955.0,234723.0
2026-04-14 18:06:29.788460,744627,1609507483407795,5083378029,0.568032,-0.304512,-0.40992,1.86375,-67.40125,63.175,2.792,19.712002,-30.912,concentric,4,3.0,97094.0,313952.0,181008.0,303029.0,188529.0
2026-04-14 18:06:29.790411,744628,1609507483416782,5083386738,0.568032,-0.304512,-0.40992,3.22875,-70.7175,60.025,2.792,19.712002,-30.912,concentric,4,3.0,97094.0,313952.0,181008.0,303029.0,188529.0
2026-04-14 18:06:29.792939,744629,1609507483431290,5083399762,0.525088,-0.365024,-0.581696,5.74,-74.9875,59.3425,4.152,19.84,-29.744001,concentric,4,3.0,97094.0,313952.0,181008.0,303029.0,188529.0
2026-04-14 18:06:29.804687,744630,1609507483440677,5083410524,0.525088,-0.365024,-0.581696,2.80875,-78.18125,60.47125,4.152,19.84,-29.744001,concentric,4,3.0,97094.0,313952.0,181008.0,303029.0,188529.0
2026-04-14 18:06:29.810624,744631,1609507483449596,5083419249,0.612928,-0.411872,-0.560224,-5.53875,-82.92375,62.7025,4.688,19.448002,-30.536001,concentric,4,3.0,97094.0,313952.0,181008.0,303029.0,188529.0
2026-04-14 18:06:29.825458,744632,1609507483464111,5083434170,0.622688,-0.466528,-0.544608,-8.88125,-87.955,64.67125,5.856,18.960001,-31.016,concentric,4,3.0,97094.0,313952.0,181008.0,303029.0,188529.0
2026-04-14 18:06:29.834693,744633,1609507483473059,5083442870,0.622688,-0.466528,-0.544608,-10.7975,-91.42,62.7025,5.856,18.960001,-31.016,concentric,4,3.0,97094.0,313952.0,181008.0,303029.0,188529.0
2026-04-14 18:06:29.867886,744634,1609507483487710,5083457846,0.61488,-0.460672,-0.538752,-12.792501,-93.45,59.00125,7.384,18.952002,-30.320002,concentric,4,3.0,97094.0,313952.0,181008.0,303029.0,188529.0
2026-04-14 18:06:29.870849,744635,1609507483496643,5083466521,0.61488,-0.460672,-0.538752,-4.0775,-94.49125,58.16125,7.384,18.952002,-30.320002,concentric,4,3.0,97094.0,313952.0,181008.0,303029.0,188529.0
2026-04-14 18:06:29.898432,744646,1609507483511355,5083481458,0.493856,-0.433344,-0.65392,-1.84625,-96.69625,53.83,7.520001,19.384,-28.432001,concentric,4,3.0,63072.0,270976.0,133787.0,266887.0,141388.0
2026-04-14 18:06:29.900621,744647,1609507483520426,5083490219,0.493856,-0.433344,-0.65392,-2.94,-99.4875,48.60625,7.520001,19.384,-28.432001,concentric,4,3.0,63072.0,270976.0,133787.0,266887.0,141388.0
2026-04-14 18:06:29.903403,744648,1609507483529483,5083498988,0.470432,-0.40016,-0.630496,-6.965,-102.558754,48.6325,8.696,19.248001,-27.928001,concentric,4,3.0,63072.0,270976.0,133787.0,266887.0,141388.0
2026-04-14 18:06:29.905463,744649,1609507483544026,5083513925,0.486048,-0.45872,-0.599264,-11.06,-105.86625,52.66625,8.696,19.248001,-28.464,concentric,4,3.0,63072.0,270976.0,133787.0,266887.0,141388.0
2026-04-14 18:06:29.914674,744650,1609507483553063,5083522661,0.49776,-0.45872,-0.599264,-19.1975,-108.21125,55.1425,9.952001,19.024,-28.464,concentric,4,3.0,63072.0,270976.0,133787.0,266887.0,141388.0
2026-04-14 18:06:29.929205,744651,1609507483567567,5083537547,0.484096,-0.622688,-0.54656,-23.38,-106.68875,53.54125,12.456,17.864,-29.672,concentric,4,3.0,63072.0,270976.0,133787.0,266887.0,141388.0
2026-04-14 18:06:29.938328,744652,1609507483576529,5083546261,0.484096,-0.622688,-0.54656,-19.99375,-105.5075,50.715,12.456,17.864,-29.672,concentric,4,3.0,63072.0,270976.0,133787.0,266887.0,141388.0
2026-04-14 18:06:29.955670,744653,1609507483585469,5083554980,0.431392,-0.548512,-0.636352,-10.36875,-109.13875,49.84875,12.744,18.064001,-28.984001,concentric,4,3.0,63072.0,270976.0,133787.0,266887.0,141388.0
2026-04-14 18:06:29.962850,744654,1609507483599951,5083569875,0.431392,-0.548512,-0.636352,1.3475,-109.97875,50.35625,12.744,18.064001,-28.984001,concentric,4,3.0,63072.0,270976.0,133787.0,266887.0,141388.0
2026-04-14 18:06:29.989061,744665,1609507483608956,5083578705,0.445056,-0.462624,-0.675392,15.68875,-109.0775,48.055,15.088,17.744001,-27.648,concentric,4,3.0,44611.0,202529.0,100741.0,209604.0,105237.0
2026-04-14 18:06:29.991609,744666,1609507483623511,5083593650,0.445056,-0.462624,-0.675392,19.15375,-106.9775,46.24375,15.088,17.744001,-27.648,concentric,4,3.0,44611.0,202529.0,100741.0,209604.0,105237.0
2026-04-14 18:06:29.994053,744667,1609507483632561,5083602370,0.462624,-0.612928,-0.853024,9.93125,-102.83875,49.53375,15.456,17.592001,-27.936,concentric,4,3.0,44611.0,202529.0,100741.0,209604.0,105237.0
2026-04-14 18:06:30.007935,744668,1609507483647127,5083617384,0.394304,-0.733952,-0.714432,0.79625,-99.058754,50.37375,16.408,17.192001,-27.928001,concentric,4,3.0,44611.0,202529.0,100741.0,209604.0,105237.0
2026-04-14 18:06:30.018142,744669,1609507483656067,5083626087,0.394304,-0.733952,-0.714432,-2.52,-97.76375,46.8475,16.408,17.192001,-27.928001,concentric,4,3.0,44611.0,202529.0,100741.0,209604.0,105237.0
2026-04-14 18:06:30.029250,744670,1609507483665016,5083634796,0.464576,-0.650016,-0.788608,6.02875,-95.9875,46.40125,16.408,17.288,-26.960001,concentric,4,3.0,44611.0,202529.0,100741.0,209604.0,105237.0
2026-04-14 18:06:30.041573,744671,1609507483679510,5083649662,0.464576,-0.650016,-0.788608,20.9475,-94.17625,44.59,18.176,17.288,-26.960001,concentric,4,3.0,44611.0,202529.0,100741.0,209604.0,105237.0
2026-04-14 18:06:30.066878,744672,1609507483688456,5083658378,0.396256,-0.60512,-0.882304,28.5425,-92.96875,39.8825,19.080002,17.112001,-26.264002,eccentric,4,3.0,44611.0,202529.0,100741.0,209604.0,105237.0
2026-04-14 18:06:30.133109,744683,1609507483703168,5083673394,0.396256,-0.60512,-0.882304,27.62375,-89.76625,41.755,19.080002,17.112001,-26.264002,eccentric,4,3.0,36736.0,200448.0,84494.0,207500.0,87117.0
2026-04-14 18:06:30.136074,744684,1609507483712133,5083682196,0.3904,-0.689056,-0.67344,20.755,-87.21125,44.52875,18.808,17.896,-26.448002,eccentric,4,3.0,36736.0,200448.0,84494.0,207500.0,87117.0
2026-04-14 18:06:30.137969,744685,1609507483721106,5083690931,0.3904,-0.689056,-0.67344,16.65125,-86.02125,45.185,18.808,17.896,-26.448002,eccentric,4,3.0,36736.0,200448.0,84494.0,207500.0,87117.0
2026-04-14 18:06:30.140330,744686,1609507483735613,5083705849,0.304512,-0.720288,-0.767136,15.61875,-85.12875,43.9075,18.696001,17.344002,-23.704,eccentric,4,3.0,36736.0,200448.0,84494.0,207500.0,87117.0
2026-04-14 18:06:30.142878,744687,1609507483744521,5083714584,0.304512,-0.720288,-0.767136,18.03375,-84.0,39.7775,18.696001,17.344002,-23.704,eccentric,4,3.0,36736.0,200448.0,84494.0,207500.0,87117.0
2026-04-14 18:06:30.145509,744688,1609507483759031,5083727538,0.343552,-0.720288,-0.720288,16.905,-84.81375,38.045002,19.960001,17.096,-24.28,eccentric,4,3.0,36736.0,200448.0,84494.0,207500.0,87117.0
2026-04-14 18:06:30.147934,744689,1609507483768364,5083738286,0.320128,-0.778848,-1.007232,18.5325,-80.185,41.615,22.208,16.704,-24.392002,eccentric,4,3.0,36736.0,200448.0,84494.0,207500.0,87117.0
2026-04-14 18:06:30.150546,744690,1609507483782893,5083751265,0.320128,-0.778848,-1.007232,18.33125,-76.2475,39.8825,22.208,16.704,-24.392002,eccentric,4,3.0,36736.0,200448.0,84494.0,207500.0,87117.0
2026-04-14 18:06:30.152999,744691,1609507483792125,5083762049,0.310368,-0.774944,-0.909632,20.3875,-73.8675,37.5025,22.912,16.768002,-23.672,eccentric,4,3.0,36736.0,200448.0,84494.0,207500.0,87117.0
2026-04-14 18:06:30.163009,744692,1609507483801056,5083770790,0.310368,-0.774944,-0.909632,24.5525,-68.915,36.93375,22.912,16.768002,-23.672,eccentric,4,3.0,36736.0,200448.0,84494.0,207500.0,87117.0
2026-04-14 18:06:30.190464,744703,1609507483815774,5083785813,0.2928,-0.747616,-0.798368,27.265,-66.3425,37.345,24.008001,16.480001,-23.320002,eccentric,4,3.0,34462.0,202656.0,79861.0,209213.0,81675.0
2026-04-14 18:06:30.193417,744704,1609507483824749,5083794520,0.2928,-0.747616,-0.798368,29.47,-66.91125,40.145,24.008001,16.480001,-23.320002,eccentric,4,3.0,34462.0,202656.0,79861.0,209213.0,81675.0
2026-04-14 18:06:30.201881,744705,1609507483839282,5083809502,0.0488,-0.671488,-0.732,23.345,-64.21625,35.32375,23.616001,16.632,-20.128,eccentric,4,3.0,34462.0,202656.0,79861.0,209213.0,81675.0
2026-04-14 18:06:30.209333,744706,1609507483848306,5083818286,0.05856,-0.757376,-0.806176,16.975,-64.07625,29.77625,24.816002,16.008001,-22.304,eccentric,4,3.0,34462.0,202656.0,79861.0,209213.0,81675.0
2026-04-14 18:06:30.220484,744707,1609507483857303,5083826970,0.05856,-0.757376,-0.806176,10.99875,-62.2125,28.77875,24.816002,16.008001,-22.304,eccentric,4,3.0,34462.0,202656.0,79861.0,209213.0,81675.0
2026-04-14 18:06:30.238398,744708,1609507483871891,5083841855,0.240096,-0.77104,-0.743712,9.695,-61.53875,30.2925,25.160002,15.960001,-22.208,eccentric,4,3.0,34462.0,202656.0,79861.0,209213.0,81675.0
2026-04-14 18:06:30.244522,744709,1609507483880965,5083850540,0.240096,-0.77104,-0.743712,12.6875,-61.43375,31.89375,25.160002,15.960001,-22.208,eccentric,4,3.0,34462.0,202656.0,79861.0,209213.0,81675.0
2026-04-14 18:06:30.257176,744710,1609507483895507,5083865510,0.140544,-0.733952,-0.687104,14.07875,-55.475,30.0125,25.472002,16.08,-20.656,eccentric,4,3.0,34462.0,202656.0,79861.0,209213.0,81675.0
2026-04-14 18:06:30.288373,744721,1609507483904829,5083874475,0.140544,-0.733952,-0.687104,14.86625,-50.2075,27.08125,25.472002,16.08,-20.656,eccentric,4,3.0,33566.0,203066.0,78327.0,210472.0,79401.0
2026-04-14 18:06:30.290551,744722,1609507483914141,5083883213,0.027328,-0.706624,-0.806176,13.85125,-49.28,25.19125,26.36,15.736001,-21.432001,eccentric,4,3.0,33566.0,203066.0,78327.0,210472.0,79401.0
2026-04-14 18:06:30.293465,744723,1609507483928682,5083898234,0.050752,-0.739808,-0.802272,12.1625,-49.27125,25.01625,24.992,15.960001,-18.976002,eccentric,4,3.0,33566.0,203066.0,78327.0,210472.0,79401.0
2026-04-14 18:06:30.298144,744724,1609507483937676,5083906984,0.050752,-0.739808,-0.802272,9.00375,-48.58875,21.3675,24.992,15.960001,-18.976002,eccentric,4,3.0,33566.0,203066.0,78327.0,210472.0,79401.0
2026-04-14 18:06:30.314694,744725,1609507483952193,5083921938,0.050752,-0.769088,-0.765184,5.01375,-45.9025,20.71125,26.608002,15.376,-20.320002,eccentric,4,3.0,33566.0,203066.0,78327.0,210472.0,79401.0
2026-04-14 18:06:30.323633,744726,1609507483961240,5083930639,0.050752,-0.769088,-0.765184,-0.98,-45.57875,19.075,26.608002,15.376,-20.320002,eccentric,4,3.0,33566.0,203066.0,78327.0,210472.0,79401.0
2026-04-14 18:06:30.330817,744727,1609507483970204,5083939344,0.017568,-0.784704,-1.00528,-2.695,-43.4175,18.1825,26.960001,15.072001,-19.816002,eccentric,4,3.0,33566.0,203066.0,78327.0,210472.0,79401.0
2026-04-14 18:06:30.345905,744728,1609507483984706,5083954232,0.017568,-0.784704,-1.00528,-2.14375,-40.10125,17.50875,26.960001,15.072001,-19.816002,eccentric,4,3.0,33566.0,203066.0,78327.0,210472.0,79401.0
2026-04-14 18:06:30.355919,744729,1609507483993659,5083962916,0.089792,-0.786656,-0.901824,-1.56625,-37.2575,15.89875,27.04,15.368001,-19.024,eccentric,4,3.0,33566.0,203066.0,78327.0,210472.0,79401.0
2026-04-14 18:06:30.389221,744740,1609507484008261,5083978052,0.06832,-0.821792,-0.808128,-3.00125,-32.97,15.435,27.240002,15.072001,-18.832,eccentric,4,3.0,33014.0,202662.0,77209.0,210799.0,78177.0
2026-04-14 18:06:30.392098,744741,1609507484017187,5083986800,0.06832,-0.821792,-0.808128,-5.1625,-29.07625,12.8275,27.240002,15.072001,-18.832,eccentric,4,3.0,33014.0,202662.0,77209.0,210799.0,78177.0
2026-04-14 18:06:30.394720,744742,1609507484031832,5084001871,0.027328,-0.812032,-0.796416,-6.08125,-25.3575,12.573751,27.352001,14.792001,-18.304,eccentric,4,3.0,33014.0,202662.0,77209.0,210799.0,78177.0
2026-04-14 18:06:30.404663,744743,1609507484040869,5084010566,0.027328,-0.812032,-0.796416,-5.4425,-22.12875,12.355001,27.352001,14.792001,-18.304,eccentric,4,3.0,33014.0,202662.0,77209.0,210799.0,78177.0
2026-04-14 18:06:30.410354,744744,1609507484049984,5084019300,-0.054656,-0.749568,-0.935008,-2.87,-19.241251,12.2675,27.824001,14.584001,-19.472,eccentric,4,3.0,33014.0,202662.0,77209.0,210799.0,78177.0
2026-04-14 18:06:30.435695,744745,1609507484064516,5084034250,-0.054656,-0.749568,-0.935008,1.96,-15.225,11.515,27.824001,14.584001,-19.472,eccentric,4,3.0,33014.0,202662.0,77209.0,210799.0,78177.0
2026-04-14 18:06:30.460918,744746,1609507484073546,5084042930,-0.062464,-0.753472,-0.940864,1.82,-11.4975,10.49125,28.056002,14.368001,-19.104,eccentric,4,3.0,33014.0,202662.0,77209.0,210799.0,78177.0
2026-04-14 18:06:30.480965,744747,1609507484088024,5084057805,-0.042944,-0.782752,-0.94672,-4.1125,-8.4875,9.3275,28.080002,14.304001,-16.880001,eccentric,4,3.0,33014.0,202662.0,77209.0,210799.0,78177.0
2026-04-14 18:06:30.510906,744748,1609507484096948,5084066517,-0.042944,-0.782752,-0.94672,-7.3325,-6.23875,8.11125,28.080002,14.304001,-16.880001,eccentric,4,3.0,33014.0,202662.0,77209.0,210799.0,78177.0
2026-04-14 18:06:30.548473,744759,1609507484106242,5084075647,-0.042944,-0.782752,-0.94672,-8.91625,-4.305,6.5625,28.080002,14.304001,-16.880001,eccentric,4,3.0,32671.0,201073.0,76412.0,209172.0,77513.0
2026-04-14 18:06:30.550983,744760,1609507484120888,5084090596,-0.035136,-0.730048,-0.716384,-8.37375,-2.275,4.8825,27.912,14.320001,-19.080002,eccentric,4,3.0,32671.0,201073.0,76412.0,209172.0,77513.0
2026-04-14 18:06:30.556006,744761,1609507484129827,5084099303,-0.015616,-0.755424,-0.677344,-8.05,-0.3325,3.80625,28.248001,14.016001,-19.048,eccentric,4,3.0,32671.0,201073.0,76412.0,209172.0,77513.0
2026-04-14 18:06:30.558433,744762,1609507484144482,5084114271,-0.015616,-0.755424,-0.677344,-5.62625,1.0325,3.01875,28.248001,14.016001,-19.048,eccentric,4,3.0,32671.0,201073.0,76412.0,209172.0,77513.0
2026-04-14 18:06:30.560416,744763,1609507484153399,5084122951,-0.013664,-0.720288,-0.769088,1.51375,3.07125,2.2575,28.104002,13.848001,-19.008001,eccentric,4,3.0,32671.0,201073.0,76412.0,209172.0,77513.0
2026-04-14 18:06:30.562925,744764,1609507484167896,5084137861,-0.013664,-0.70272,-0.88816,5.2675,5.31125,1.2075,28.104002,13.848001,-19.008001,eccentric,4,3.0,32671.0,201073.0,76412.0,209172.0,77513.0
2026-04-14 18:06:30.568021,744765,1609507484176876,5084146709,-0.124928,-0.70272,-0.88816,2.3625,6.44,0.175,28.072,14.088,-18.376001,eccentric,4,3.0,32671.0,201073.0,76412.0,209172.0,77513.0
2026-04-14 18:06:30.570903,744766,1609507484185851,5084155463,-0.124928,-0.70272,-0.88816,-2.9925,6.32625,-1.0675,28.072,14.088,-18.376001,eccentric,4,3.0,32671.0,201073.0,76412.0,209172.0,77513.0
2026-04-14 18:06:30.573455,744767,1609507484200353,5084170390,-0.01952,-0.749568,-0.841312,-3.91125,6.46625,-1.75,27.816002,14.6,-18.328001,eccentric,4,3.0,32671.0,201073.0,76412.0,209172.0,77513.0
2026-04-14 18:06:30.603390,744778,1609507484209447,5084179163,-0.099552,-0.679296,-0.755424,-0.27125,7.735,-2.31875,26.952002,14.728001,-19.44,eccentric,4,3.0,32549.0,200051.0,76083.0,208075.0,77191.0
2026-04-14 18:06:30.605087,744779,1609507484224197,5084194135,-0.099552,-0.679296,-0.755424,2.625,8.23375,-3.395,26.952002,14.728001,-19.44,eccentric,4,3.0,32549.0,200051.0,76083.0,208075.0,77191.0
2026-04-14 18:06:30.605172,744780,1609507484233210,5084202826,-0.080032,-0.685152,-0.648064,4.31375,7.84875,-3.52625,27.080002,14.488001,-18.528002,eccentric,4,3.0,32549.0,200051.0,76083.0,208075.0,77191.0
2026-04-14 18:06:30.607947,744781,1609507484242421,5084211565,-0.080032,-0.685152,-0.648064,4.43625,7.84,-3.64,27.080002,14.488001,-18.528002,eccentric,4,3.0,32549.0,200051.0,76083.0,208075.0,77191.0
2026-04-14 18:06:30.619590,744782,1609507484256994,5084226581,-0.08784,-0.706624,-0.841312,5.57375,7.8575,-3.6575,26.768002,14.728001,-18.568,eccentric,4,3.0,32549.0,200051.0,76083.0,208075.0,77191.0
2026-04-14 18:06:30.627125,744783,1609507484265945,5084235270,-0.08784,-0.706624,-0.841312,7.7,8.60125,-3.99,26.768002,14.728001,-18.568,eccentric,4,3.0,32549.0,200051.0,76083.0,208075.0,77191.0
2026-04-14 18:06:30.641779,744784,1609507484280450,5084250201,-0.03904,-0.667584,-0.671488,7.4375,8.6275,-4.54125,27.712002,14.696001,-18.976002,eccentric,4,3.0,32549.0,200051.0,76083.0,208075.0,77191.0
2026-04-14 18:06:30.649416,744785,1609507484289411,5084258930,-0.0488,-0.70272,-0.685152,4.55875,7.2975,-4.83875,27.760002,14.360001,-18.0,eccentric,4,3.0,32549.0,200051.0,76083.0,208075.0,77191.0
2026-04-14 18:06:30.660955,744786,1609507484298331,5084267635,-0.0488,-0.70272,-0.685152,2.75625,5.4075,-4.585,27.760002,14.360001,-18.0,eccentric,4,3.0,32549.0,200051.0,76083.0,208075.0,77191.0
2026-04-14 18:06:30.690437,744797,1609507484312882,5084282957,-0.023424,-0.757376,-0.847168,4.10375,3.9375,-3.92875,26.920002,14.824,-19.52,eccentric,4,3.0,32535.0,200013.0,75981.0,208331.0,77154.0
2026-04-14 18:06:30.692977,744798,1609507484321896,5084291657,-0.023424,-0.757376,-0.847168,4.69875,3.64,-3.68375,26.920002,14.824,-19.52,eccentric,4,3.0,32535.0,200013.0,75981.0,208331.0,77154.0
2026-04-14 18:06:30.699200,744799,1609507484336630,5084306579,-0.081984,-0.69296,-0.763232,5.59125,3.40375,-3.05375,26.008001,14.752001,-18.28,eccentric,4,3.0,32535.0,200013.0,75981.0,208331.0,77154.0
2026-04-14 18:06:30.707167,744800,1609507484345798,5084315283,-0.081984,-0.69296,-0.763232,6.195,2.9225,-2.8525,26.008001,14.752001,-18.28,eccentric,4,3.0,32535.0,200013.0,75981.0,208331.0,77154.0
2026-04-14 18:06:30.722026,744801,1609507484360276,5084330198,-0.0976,-0.681248,-0.815936,5.22375,2.19625,-2.56375,27.832,14.736001,-19.392,eccentric,4,3.0,32535.0,200013.0,75981.0,208331.0,77154.0
2026-04-14 18:06:30.732883,744802,1609507484369208,5084338883,-0.0976,-0.691008,-0.716384,2.77375,0.88375,-1.53125,27.832,14.736001,-19.392,eccentric,4,3.0,32535.0,200013.0,75981.0,208331.0,77154.0
2026-04-14 18:06:30.739813,744803,1609507484378137,5084347577,-0.042944,-0.691008,-0.716384,0.41125,-0.5425,-0.77,27.776001,14.752001,-18.464,eccentric,4,3.0,32535.0,200013.0,75981.0,208331.0,77154.0
2026-04-14 18:06:30.756005,744804,1609507484392766,5084362466,0.001952,-0.743712,-0.745664,-1.89875,-1.35625,-0.48125,27.832,14.904,-19.368,eccentric,4,3.0,32535.0,200013.0,75981.0,208331.0,77154.0
2026-04-14 18:06:30.763492,744805,1609507484401735,5084371180,0.001952,-0.743712,-0.745664,-3.36,-2.73875,-0.0875,27.832,14.904,-19.368,eccentric,4,3.0,32535.0,200013.0,75981.0,208331.0,77154.0
2026-04-14 18:06:30.835974,744816,1609507484416368,5084386188,-0.064416,-0.714432,-0.817888,-4.585,-4.0075,0.65625,27.128002,14.416,-19.288,eccentric,4,3.0,32440.0,199115.0,75698.0,207573.0,76949.0
2026-04-14 18:06:30.838342,744817,1609507484425541,5084394916,-0.064416,-0.714432,-0.817888,-4.935,-4.1825,1.23375,27.128002,14.416,-19.288,eccentric,4,3.0,32440.0,199115.0,75698.0,207573.0,76949.0
2026-04-14 18:06:30.840542,744818,1609507484434597,5084403592,-0.089792,-0.694912,-0.733952,-4.80375,-4.43625,1.6975,27.784,14.216001,-19.336,eccentric,4,3.0,32440.0,199115.0,75698.0,207573.0,76949.0
2026-04-14 18:06:30.843313,744819,1609507484449084,5084418496,-0.089792,-0.694912,-0.733952,-4.85625,-5.53875,2.205,27.784,14.216001,-19.336,eccentric,4,3.0,32440.0,199115.0,75698.0,207573.0,76949.0
2026-04-14 18:06:30.845994,744820,1609507484458032,5084427161,-0.056608,-0.687104,-0.71248,-4.9525,-6.15125,2.5725,27.848001,14.288001,-17.592001,eccentric,4,3.0,32440.0,199115.0,75698.0,207573.0,76949.0
2026-04-14 18:06:30.851062,744821,1609507484472595,5084442202,-0.017568,-0.71248,-0.628544,-5.69625,-6.16875,1.98625,28.128002,14.136001,-19.560001,eccentric,4,3.0,32440.0,199115.0,75698.0,207573.0,76949.0
2026-04-14 18:06:30.853509,744822,1609507484481627,5084450901,-0.017568,-0.71248,-0.628544,-7.49875,-5.4775,1.86375,28.128002,14.136001,-19.560001,eccentric,4,3.0,32440.0,199115.0,75698.0,207573.0,76949.0
2026-04-14 18:06:30.858440,744823,1609507484496225,5084465908,-0.060512,-0.735904,-0.835456,-8.61875,-5.6525,1.77625,27.848001,14.272,-19.456001,eccentric,4,3.0,32440.0,199115.0,75698.0,207573.0,76949.0
2026-04-14 18:06:30.867241,744824,1609507484505221,5084474652,-0.060512,-0.735904,-0.835456,-8.19,-5.88875,1.75,27.848001,14.272,-19.456001,eccentric,4,3.0,32440.0,199115.0,75698.0,207573.0,76949.0
2026-04-14 18:06:30.897075,744835,1609507484514274,5084483396,-0.023424,-0.732,-0.815936,-6.825,-5.635,1.7325,27.664001,14.160001,-19.384,eccentric,4,3.0,32336.0,198020.0,75351.0,206305.0,76658.0
2026-04-14 18:06:30.899580,744836,1609507484528826,5084498491,-0.023424,-0.732,-0.815936,-5.7225,-6.0725,1.19,27.664001,14.160001,-19.384,eccentric,4,3.0,32336.0,198020.0,75351.0,206305.0,76658.0
2026-04-14 18:06:30.907122,744837,1609507484537815,5084507207,-0.081984,-0.706624,-0.72224,-6.48375,-5.64375,1.04125,27.136002,14.360001,-18.328001,eccentric,4,3.0,32336.0,198020.0,75351.0,206305.0,76658.0
2026-04-14 18:06:30.914434,744838,1609507484552334,5084522106,0.001952,-0.767136,-0.80032,-7.315,-5.31125,0.58625,27.968,14.536,-19.248001,eccentric,4,3.0,32336.0,198020.0,75351.0,206305.0,76658.0
2026-04-14 18:06:30.921770,744839,1609507484561382,5084530849,0.001952,-0.767136,-0.80032,-6.2475,-5.3025,0.32375,27.968,14.536,-19.248001,eccentric,4,3.0,32336.0,198020.0,75351.0,206305.0,76658.0
2026-04-14 18:06:30.932228,744840,1609507484570326,5084539564,0.001952,-0.767136,-0.714432,-4.0775,-4.585,-0.11375,27.968,14.536,-19.248001,eccentric,4,3.0,32336.0,198020.0,75351.0,206305.0,76658.0
2026-04-14 18:06:30.947226,744841,1609507484584795,5084554441,0.025376,-0.749568,-0.714432,-1.19875,-2.75625,-1.155,27.752,13.704,-18.608002,eccentric,4,3.0,32336.0,198020.0,75351.0,206305.0,76658.0
2026-04-14 18:06:30.956022,744842,1609507484593802,5084563133,-0.0976,-0.720288,-0.860832,0.72625,-1.19875,-2.31875,27.480001,14.664001,-18.960001,eccentric,4,3.0,32336.0,198020.0,75351.0,206305.0,76658.0
2026-04-14 18:06:30.994728,744853,1609507484608858,5084578270,-0.0976,-0.720288,-0.860832,2.26625,-0.0175,-3.255,27.480001,14.664001,-18.960001,eccentric,4,3.0,32294.0,197985.0,75267.0,206316.0,76583.0
2026-04-14 18:06:30.997158,744854,1609507484617905,5084587019,-0.113216,-0.716384,-0.812032,1.93375,0.7,-4.0075,27.624,13.960001,-19.088001,eccentric,4,3.0,32294.0,197985.0,75267.0,206316.0,76583.0
2026-04-14 18:06:30.999574,744855,1609507484626821,5084595746,-0.113216,-0.716384,-0.812032,1.505,1.23375,-4.61125,27.624,13.960001,-19.088001,eccentric,4,3.0,32294.0,197985.0,75267.0,206316.0,76583.0
2026-04-14 18:06:31.002198,744856,1609507484641347,5084610740,-0.109312,-0.72224,-0.813984,1.225,1.54,-4.99625,27.784,14.112,-19.288,eccentric,4,3.0,32294.0,197985.0,75267.0,206316.0,76583.0
2026-04-14 18:06:31.013476,744857,1609507484650284,5084619468,-0.109312,-0.72224,-0.813984,2.05625,1.23375,-4.9175,27.784,14.112,-19.288,eccentric,4,3.0,32294.0,197985.0,75267.0,206316.0,76583.0
2026-04-14 18:06:31.027199,744858,1609507484664877,5084634457,0.035136,-0.763232,-0.739808,2.14375,1.505,-5.6875,28.12,14.512001,-18.560001,eccentric,4,3.0,32294.0,197985.0,75267.0,206316.0,76583.0
2026-04-14 18:06:31.034782,744859,1609507484673880,5084643267,-0.07808,-0.728096,-0.837408,3.0275,3.19375,-6.265,27.192001,14.712001,-18.160002,eccentric,4,3.0,32294.0,197985.0,75267.0,206316.0,76583.0
2026-04-14 18:06:31.052260,744860,1609507484688391,5084658308,-0.07808,-0.728096,-0.837408,3.7625,4.85625,-7.21,27.192001,14.712001,-18.160002,eccentric,4,3.0,32294.0,197985.0,75267.0,206316.0,76583.0
2026-04-14 18:06:31.059818,744861,1609507484697415,5084667001,-0.023424,-0.71248,-0.628544,3.8325,6.7025,-8.37375,26.808,14.648001,-19.624,eccentric,4,3.0,32294.0,197985.0,75267.0,206316.0,76583.0
2026-04-14 18:06:31.068016,744862,1609507484706547,5084675737,-0.023424,-0.71248,-0.628544,3.5875,7.4725,-8.68,26.808,14.648001,-19.624,eccentric,4,3.0,32294.0,197985.0,75267.0,206316.0,76583.0
2026-04-14 18:06:31.105917,744873,1609507484721145,5084690747,-0.074176,-0.687104,-0.70272,2.26625,7.385,-9.30125,27.496002,14.480001,-19.104,eccentric,4,3.0,32270.0,197567.0,75108.0,205757.0,76435.0
2026-04-14 18:06:31.108035,744874,1609507484730117,5084699525,-0.074176,-0.687104,-0.70272,-0.28875,7.455,-9.3975,27.496002,14.480001,-19.104,eccentric,4,3.0,32270.0,197567.0,75108.0,205757.0,76435.0
2026-04-14 18:06:31.110961,744875,1609507484744737,5084714458,-0.044896,-0.765184,-0.90768,-2.16125,7.49,-9.59,26.920002,14.784,-18.952002,eccentric,4,3.0,32270.0,197567.0,75108.0,205757.0,76435.0
2026-04-14 18:06:31.115955,744876,1609507484753698,5084723164,0.013664,-0.730048,-0.632448,-2.87875,7.18375,-10.4825,26.896002,15.296001,-18.504002,eccentric,4,3.0,32270.0,197567.0,75108.0,205757.0,76435.0
2026-04-14 18:06:31.148419,744877,1609507484762776,5084731868,0.013664,-0.730048,-0.632448,-1.61,7.34125,-10.167501,26.896002,15.296001,-18.504002,eccentric,4,3.0,32270.0,197567.0,75108.0,205757.0,76435.0
2026-04-14 18:06:31.173368,744878,1609507484777278,5084746856,-0.025376,-0.747616,-0.872544,-1.2775,8.77625,-11.48875,26.656002,14.784,-18.424002,eccentric,4,3.0,32270.0,197567.0,75108.0,205757.0,76435.0
2026-04-14 18:06:31.200847,744879,1609507484786230,5084755555,-0.025376,-0.747616,-0.872544,-0.4375,9.84375,-11.94375,26.656002,14.784,-18.424002,eccentric,4,3.0,32270.0,197567.0,75108.0,205757.0,76435.0
2026-04-14 18:06:31.202944,744880,1609507484800737,5084770475,-0.007808,-0.70272,-0.66368,-2.07375,9.835,-11.83875,26.944002,14.688001,-19.856,eccentric,4,3.0,32270.0,197567.0,75108.0,205757.0,76435.0
2026-04-14 18:06:31.230942,744891,1609507484809905,5084779310,-0.007808,-0.70272,-0.66368,-2.87875,9.4675,-11.50625,26.944002,14.688001,-19.856,eccentric,4,3.0,32233.0,196656.0,75014.0,204399.0,76350.0
2026-04-14 18:06:31.233422,744892,1609507484824446,5084794218,-0.015616,-0.747616,-0.895968,-1.8725,10.675,-12.27625,27.36,14.728001,-18.448,eccentric,4,3.0,32233.0,196656.0,75014.0,204399.0,76350.0
2026-04-14 18:06:31.235457,744893,1609507484833442,5084802916,-0.062464,-0.732,-0.86864,-0.735,11.90875,-12.495,27.36,14.920001,-20.624,eccentric,4,3.0,32233.0,196656.0,75014.0,204399.0,76350.0
2026-04-14 18:06:31.238440,744894,1609507484842378,5084811611,-0.062464,-0.732,-0.86864,-1.54875,12.5475,-12.20625,27.36,14.920001,-20.624,eccentric,4,3.0,32233.0,196656.0,75014.0,204399.0,76350.0
2026-04-14 18:06:31.240522,744895,1609507484857056,5084826567,-0.035136,-0.763232,-0.913536,-2.8875,12.73125,-12.573751,27.336,15.296001,-20.184,eccentric,4,3.0,32233.0,196656.0,75014.0,204399.0,76350.0
2026-04-14 18:06:31.243504,744896,1609507484866153,5084835285,-0.035136,-0.763232,-0.913536,-4.13875,13.65,-13.545,27.336,15.296001,-20.184,eccentric,4,3.0,32233.0,196656.0,75014.0,204399.0,76350.0
2026-04-14 18:06:31.245848,744897,1609507484880649,5084850223,0.13664,-0.81984,-0.813984,-6.01125,13.97375,-13.78125,27.432001,15.080001,-20.088001,eccentric,4,3.0,32233.0,196656.0,75014.0,204399.0,76350.0
2026-04-14 18:06:31.251571,744898,1609507484889693,5084859092,0.13664,-0.81984,-0.813984,-10.28125,14.42875,-14.4725,27.432001,15.080001,-20.088001,eccentric,4,3.0,32233.0,196656.0,75014.0,204399.0,76350.0
2026-04-14 18:06:31.259578,744899,1609507484898756,5084867813,0.0488,-0.81008,-0.974048,-11.48875,17.8325,-15.54875,26.720001,14.784,-20.176,eccentric,4,3.0,32233.0,196656.0,75014.0,204399.0,76350.0
2026-04-14 18:06:31.294402,744910,1609507484913467,5084882782,0.060512,-0.749568,-0.745664,-10.5875,21.647501,-16.2225,26.528002,15.432001,-20.536001,eccentric,4,3.0,32330.0,195227.0,75058.0,202075.0,76305.0
2026-04-14 18:06:31.307087,744911,1609507484922470,5084891584,0.060512,-0.749568,-0.745664,-10.2375,23.9925,-17.115,26.528002,15.432001,-20.536001,eccentric,4,3.0,32330.0,195227.0,75058.0,202075.0,76305.0
2026-04-14 18:06:31.307446,744912,1609507484937109,5084906558,0.081984,-0.806176,-0.95648,-13.34375,25.08625,-18.165,25.744001,15.936001,-19.656,eccentric,4,3.0,32330.0,195227.0,75058.0,202075.0,76305.0
2026-04-14 18:06:31.307944,744913,1609507484946087,5084915294,0.081984,-0.806176,-0.95648,-16.35375,26.22375,-19.01375,25.744001,15.936001,-19.656,eccentric,4,3.0,32330.0,195227.0,75058.0,202075.0,76305.0
2026-04-14 18:06:31.315616,744914,1609507484955128,5084923993,0.113216,-0.792512,-0.894016,-17.08,29.015,-20.3525,26.528002,15.56,-20.720001,eccentric,4,3.0,32330.0,195227.0,75058.0,202075.0,76305.0
2026-04-14 18:06:31.330649,744915,1609507484969704,5084938864,0.113216,-0.792512,-0.894016,-15.81125,31.70125,-21.48125,26.528002,15.56,-20.720001,eccentric,4,3.0,32330.0,195227.0,75058.0,202075.0,76305.0
2026-04-14 18:06:31.341884,744916,1609507484978629,5084947546,0.119072,-0.831552,-0.911584,-15.6975,35.98875,-23.05625,25.072,15.632001,-20.68,eccentric,4,3.0,32330.0,195227.0,75058.0,202075.0,76305.0
2026-04-14 18:06:31.352950,744917,1609507484993163,5084962498,0.119072,-0.749568,-1.001376,-17.08,39.41875,-26.39875,25.072,15.632001,-20.68,eccentric,4,3.0,32330.0,195227.0,75058.0,202075.0,76305.0
2026-04-14 18:06:31.364368,744918,1609507485002157,5084971200,0.044896,-0.749568,-1.001376,-14.3325,43.54,-28.34125,24.472002,15.808001,-21.76,eccentric,4,3.0,32330.0,195227.0,75058.0,202075.0,76305.0
2026-04-14 18:06:31.395621,744929,1609507485016754,5084986591,0.17568,-0.724192,-0.75152,-13.335,46.795002,-29.7675,24.608002,15.704,-22.344002,eccentric,4,3.0,33275.0,193189.0,76354.0,199264.0,78005.0
2026-04-14 18:06:31.398177,744930,1609507485025847,5084995488,0.17568,-0.724192,-0.75152,-16.275,51.975,-30.51125,24.608002,15.704,-22.344002,eccentric,4,3.0,33275.0,193189.0,76354.0,199264.0,78005.0
2026-04-14 18:06:31.400609,744931,1609507485034818,5085004171,0.08784,-0.749568,-0.853024,-18.83,57.4,-31.94625,23.528002,16.400002,-21.048,eccentric,4,3.0,33275.0,193189.0,76354.0,199264.0,78005.0
2026-04-14 18:06:31.410652,744932,1609507485049456,5085019130,0.08784,-0.749568,-0.853024,-18.165,60.7775,-34.326252,23.528002,16.400002,-21.048,eccentric,4,3.0,33275.0,193189.0,76354.0,199264.0,78005.0
2026-04-14 18:06:31.419383,744933,1609507485058530,5085027810,0.226432,-0.853024,-0.851072,-15.925,61.8625,-35.93625,23.512001,16.528,-22.408,eccentric,4,3.0,33275.0,193189.0,76354.0,199264.0,78005.0
2026-04-14 18:06:31.435777,744934,1609507485073010,5085042740,0.226432,-0.853024,-0.851072,-11.80375,63.0,-37.86125,23.512001,16.528,-22.408,eccentric,4,3.0,33275.0,193189.0,76354.0,199264.0,78005.0
2026-04-14 18:06:31.446457,744935,1609507485081941,5085051515,0.25376,-0.782752,-1.013088,-3.38625,65.6425,-38.05375,22.448002,16.416,-22.488,eccentric,4,3.0,33275.0,193189.0,76354.0,199264.0,78005.0
2026-04-14 18:06:31.453974,744936,1609507485090953,5085060237,0.25376,-0.782752,-1.013088,2.17,69.7375,-39.50625,22.448002,16.416,-22.488,eccentric,4,3.0,33275.0,193189.0,76354.0,199264.0,78005.0
2026-04-14 18:06:31.466838,744937,1609507485105457,5085075151,0.310368,-0.704672,-0.700768,0.1925,71.84625,-43.63625,21.752,16.736,-24.04,eccentric,4,3.0,33275.0,193189.0,76354.0,199264.0,78005.0
2026-04-14 18:06:31.495528,744948,1609507485114554,5085083982,0.20496,-0.708576,-0.925248,-7.3325,73.12375,-45.19375,21.712002,16.936,-24.944,eccentric,4,3.0,35705.0,190197.0,80491.0,196124.0,83083.0
2026-04-14 18:06:31.497867,744949,1609507485129105,5085098963,0.20496,-0.708576,-0.925248,-16.205,74.06,-47.8975,21.712002,16.936,-24.944,eccentric,4,3.0,35705.0,190197.0,80491.0,196124.0,83083.0
2026-04-14 18:06:31.500684,744950,1609507485138077,5085107661,0.177632,-0.65392,-0.81008,-22.8025,73.56125,-49.91,19.832,17.536001,-24.184002,eccentric,4,3.0,35705.0,190197.0,80491.0,196124.0,83083.0
2026-04-14 18:06:31.513151,744951,1609507485152557,5085122571,0.177632,-0.65392,-0.81008,-24.99875,72.94875,-50.46125,19.832,17.536001,-24.184002,eccentric,4,3.0,35705.0,190197.0,80491.0,196124.0,83083.0
2026-04-14 18:06:31.538327,744952,1609507485161493,5085131270,0.251808,-0.622688,-0.69296,-24.00125,71.44375,-51.3975,20.320002,17.528002,-25.704,eccentric,4,3.0,35705.0,190197.0,80491.0,196124.0,83083.0
2026-04-14 18:06:31.562909,744953,1609507485170455,5085140142,0.251808,-0.622688,-0.69296,-22.522501,69.5975,-52.21125,20.320002,17.528002,-25.704,eccentric,4,3.0,35705.0,190197.0,80491.0,196124.0,83083.0
2026-04-14 18:06:31.565865,744954,1609507485184981,5085155022,0.2928,-0.650016,-0.833504,-22.155,67.29625,-52.61375,18.328001,17.576,-25.480001,eccentric,4,3.0,35705.0,190197.0,80491.0,196124.0,83083.0
2026-04-14 18:06:31.568015,744955,1609507485194033,5085163916,0.2928,-0.650016,-0.833504,-24.675,64.86375,-51.03875,18.328001,17.576,-25.480001,eccentric,4,3.0,35705.0,190197.0,80491.0,196124.0,83083.0
2026-04-14 18:06:31.595801,744966,1609507485208539,5085179252,0.294752,-0.638304,-0.886208,-26.01375,65.40625,-50.54875,18.096,17.776001,-27.072,eccentric,4,3.0,38548.0,184670.0,85532.0,190960.0,88837.0
2026-04-14 18:06:31.598338,744967,1609507485217721,5085188003,0.450912,-0.64416,-0.718336,-30.26625,65.79125,-53.7425,17.448,17.640001,-26.672,eccentric,4,3.0,38548.0,184670.0,85532.0,190960.0,88837.0
2026-04-14 18:06:31.600836,744968,1609507485226732,5085196792,0.450912,-0.64416,-0.718336,-25.445,68.4425,-54.57375,17.448,17.640001,-26.672,eccentric,4,3.0,38548.0,184670.0,85532.0,190960.0,88837.0
2026-04-14 18:06:31.603257,744969,1609507485241229,5085209667,0.437248,-0.573888,-0.642208,-21.69125,71.61875,-55.08125,17.024,17.648,-27.504002,eccentric,4,3.0,38548.0,184670.0,85532.0,190960.0,88837.0
2026-04-14 18:06:31.616867,744970,1609507485250524,5085220461,0.437248,-0.573888,-0.642208,-16.6075,72.61625,-56.21875,17.024,17.648,-27.504002,eccentric,4,3.0,38548.0,184670.0,85532.0,190960.0,88837.0
2026-04-14 18:06:31.628476,744971,1609507485265169,5085235395,0.353312,-0.554368,-0.884256,-16.26625,72.8175,-56.62125,16.064001,18.248001,-26.736002,eccentric,4,3.0,38548.0,184670.0,85532.0,190960.0,88837.0
2026-04-14 18:06:31.635349,744972,1609507485274101,5085244189,0.353312,-0.554368,-0.884256,-18.2875,72.2925,-54.80125,16.064001,18.248001,-26.736002,eccentric,4,3.0,38548.0,184670.0,85532.0,190960.0,88837.0
2026-04-14 18:06:31.650813,744973,1609507485288767,5085259075,0.443104,-0.56608,-0.759328,-22.46125,70.98,-50.8725,14.536,18.2,-26.344002,eccentric,4,3.0,38548.0,184670.0,85532.0,190960.0,88837.0
2026-04-14 18:06:31.659612,744974,1609507485297713,5085267761,0.573888,-0.564128,-0.581696,-24.535,71.54875,-47.50375,14.160001,18.128,-28.856,eccentric,4,3.0,38548.0,184670.0,85532.0,190960.0,88837.0
2026-04-14 18:06:31.668496,744975,1609507485306776,5085276458,0.573888,-0.564128,-0.581696,-24.82375,74.4625,-44.45,14.160001,18.128,-28.856,eccentric,4,3.0,38548.0,184670.0,85532.0,190960.0,88837.0
2026-04-14 18:06:31.695998,744986,1609507485321329,5085291458,0.532896,-0.579744,-0.579744,-22.4175,77.07,-44.607502,13.192,18.264,-29.184002,eccentric,4,3.0,44605.0,237741.0,96541.0,239632.0,100527.0
2026-04-14 18:06:31.698061,744987,1609507485330290,5085300190,0.532896,-0.579744,-0.579744,-21.35875,78.77625,-46.62,13.192,18.264,-29.184002,eccentric,4,3.0,44605.0,237741.0,96541.0,239632.0,100527.0
2026-04-14 18:06:31.705966,744988,1609507485344873,5085315151,0.470432,-0.530944,-0.540704,-16.45875,79.00375,-46.1475,12.544001,17.992,-29.392002,eccentric,4,3.0,44605.0,237741.0,96541.0,239632.0,100527.0
2026-04-14 18:06:31.716910,744989,1609507485353830,5085323841,0.470432,-0.530944,-0.540704,-8.65375,79.45875,-45.29,12.544001,17.992,-29.392002,eccentric,4,3.0,44605.0,237741.0,96541.0,239632.0,100527.0
2026-04-14 18:06:31.724771,744990,1609507485362765,5085332523,0.51728,-0.51728,-0.552416,-3.19375,78.07625,-45.1675,11.704,18.240002,-29.44,eccentric,4,3.0,44605.0,237741.0,96541.0,239632.0,100527.0
2026-04-14 18:06:31.739618,744991,1609507485377287,5085347401,0.540704,-0.51728,-0.597312,-3.89375,76.43125,-45.17625,10.312,18.552,-28.368002,eccentric,4,3.0,44605.0,237741.0,96541.0,239632.0,100527.0
2026-04-14 18:06:31.748406,744992,1609507485386312,5085356120,0.540704,-0.51728,-0.597312,-4.61125,77.00875,-43.1725,10.312,18.552,-28.368002,eccentric,4,3.0,44605.0,237741.0,96541.0,239632.0,100527.0
2026-04-14 18:06:31.762179,744993,1609507485400810,5085371051,0.642208,-0.593408,-0.534848,-7.25375,78.496254,-41.2125,9.120001,18.728,-30.088001,eccentric,4,3.0,44605.0,237741.0,96541.0,239632.0,100527.0
2026-04-14 18:06:31.789767,744994,1609507485409792,5085379756,0.642208,-0.593408,-0.534848,-0.20125,82.41625,-38.12375,9.120001,18.728,-30.088001,eccentric,4,3.0,44605.0,237741.0,96541.0,239632.0,100527.0
2026-04-14 18:06:31.816718,745005,1609507485424343,5085394728,0.665632,-0.599264,-0.530944,15.81125,88.340004,-38.71,8.76,19.216002,-30.528002,eccentric,4,3.0,72925.0,310482.0,145265.0,297744.0,153896.0
2026-04-14 18:06:31.819648,745006,1609507485433277,5085403415,0.665632,-0.599264,-0.530944,30.205,88.4275,-44.8525,8.76,19.216002,-30.528002,eccentric,4,3.0,72925.0,310482.0,145265.0,297744.0,153896.0
2026-04-14 18:06:31.822151,745007,1609507485442307,5085412145,0.616832,-0.47824,-0.5856,42.16625,87.14125,-48.81625,7.576,19.304,-30.032001,eccentric,4,3.0,72925.0,310482.0,145265.0,297744.0,153896.0
2026-04-14 18:06:31.824225,745008,1609507485457006,5085427093,0.59536,-0.347456,-0.679296,39.80375,85.53125,-50.19875,6.976,20.024,-30.688002,eccentric,4,3.0,72925.0,310482.0,145265.0,297744.0,153896.0
2026-04-14 18:06:31.826972,745009,1609507485465963,5085435801,0.59536,-0.347456,-0.679296,31.535,81.90875,-50.96875,6.976,20.024,-30.688002,eccentric,4,3.0,72925.0,310482.0,145265.0,297744.0,153896.0
2026-04-14 18:06:31.843496,745010,1609507485480575,5085450689,0.622688,-0.290848,-0.589504,16.178751,78.75,-53.34,5.544,19.92,-30.240002,eccentric,4,3.0,72925.0,310482.0,145265.0,297744.0,153896.0
2026-04-14 18:06:31.851906,745011,1609507485489587,5085459470,0.622688,-0.290848,-0.589504,0.16625,76.72,-56.25375,5.544,19.92,-30.240002,eccentric,4,3.0,72925.0,310482.0,145265.0,297744.0,153896.0
2026-04-14 18:06:31.859774,745012,1609507485498674,5085468239,0.642208,-0.421632,-0.398208,-19.678751,77.455,-60.96125,4.272,20.128,-30.264002,eccentric,4,3.0,72925.0,310482.0,145265.0,297744.0,153896.0
