pc_time,serial_num,sensor_ts,host_ts,ax,ay,az,gx,gy,gz,mx,my,mz,phase,rpe,weight_kg,ppg_a,ppg_b,ppg_c,ppg_d,ppg_e
2026-04-14 18:16:26.996071,856878,1609508080537675,5680507151,0.70272,-0.070272,0.355264,-13.74625,-10.4125,12.31125,-7.776001,24.800001,22.472,concentric,4,7.0,139639.0,342498.0,229492.0,333924.0,239807.0
2026-04-14 18:16:26.998445,856879,1609508080552225,5680522124,0.749568,-0.103456,0.443104,-13.16,-9.9925,12.73125,-7.328001,24.928001,20.272001,concentric,4,7.0,139639.0,342498.0,229492.0,333924.0,239807.0
2026-04-14 18:16:27.000884,856880,1609508080561153,5680530826,0.749568,-0.103456,0.443104,-10.68375,-9.17875,13.93875,-7.328001,24.928001,20.272001,concentric,4,7.0,139639.0,342498.0,229492.0,333924.0,239807.0
2026-04-14 18:16:27.004515,856881,1609508080570092,5680539573,0.685152,-0.072224,0.386496,-10.01875,-9.1875,15.54,-7.032001,24.736002,21.192001,concentric,4,7.0,139639.0,342498.0,229492.0,333924.0,239807.0
2026-04-14 18:16:27.005729,856882,1609508080584681,5680554514,0.685152,-0.072224,0.386496,-10.35125,-9.80875,17.1325,-7.032001,24.736002,21.192001,concentric,4,7.0,139639.0,342498.0,229492.0,333924.0,239807.0
2026-04-14 18:16:27.011244,856883,1609508080593745,5680563225,0.757376,-0.042944,0.493856,-8.72375,-11.305,18.01625,-6.992,25.064001,20.424002,concentric,4,7.0,139639.0,342498.0,229492.0,333924.0,239807.0
2026-04-14 18:16:27.011351,856884,1609508080608227,5680578112,0.757376,-0.042944,0.493856,-6.6675,-12.66125,15.82875,-6.992,25.064001,20.424002,concentric,4,7.0,139639.0,342498.0,229492.0,333924.0,239807.0
2026-04-14 18:16:27.013151,856885,1609508080617139,5680586802,0.726144,-0.080032,0.376736,-5.01375,-14.14875,13.265,-7.208,25.088001,21.472,concentric,4,7.0,139639.0,342498.0,229492.0,333924.0,239807.0
2026-04-14 18:16:27.015752,856886,1609508080626113,5680595498,0.726144,-0.080032,0.376736,-7.16625,-14.56,12.1275,-7.208,25.088001,21.472,concentric,4,7.0,139639.0,342498.0,229492.0,333924.0,239807.0
2026-04-14 18:16:27.043286,856897,1609508080640976,5680610500,0.651968,-0.144448,0.316224,-9.9575,-13.16,13.29125,-7.056,24.992,20.872002,concentric,4,7.0,129411.0,336370.0,217117.0,328697.0,227893.0
2026-04-14 18:16:27.046306,856898,1609508080649973,5680619213,0.573888,-0.081984,0.388448,-10.21125,-11.0075,14.18375,-7.056,25.344002,21.416,concentric,4,7.0,129411.0,336370.0,217117.0,328697.0,227893.0
2026-04-14 18:16:27.048761,856899,1609508080664682,5680634231,0.573888,-0.081984,0.388448,-7.28,-8.785,14.315001,-7.648,25.344002,21.416,concentric,4,7.0,129411.0,336370.0,217117.0,328697.0,227893.0
2026-04-14 18:16:27.053201,856900,1609508080673730,5680642959,0.573888,-0.080032,0.197152,-4.0075,-7.6475,14.533751,-7.576,25.000002,21.000002,concentric,4,7.0,129411.0,336370.0,217117.0,328697.0,227893.0
2026-04-14 18:16:27.068394,856901,1609508080688212,5680657847,0.573888,-0.080032,0.197152,-3.955,-7.9625,14.5075,-7.576,25.000002,21.000002,concentric,4,7.0,129411.0,336370.0,217117.0,328697.0,227893.0
2026-04-14 18:16:27.076494,856902,1609508080697194,5680666532,0.636352,-0.099552,0.300608,-4.8125,-8.8375,14.665,-6.528,24.864,19.768002,concentric,4,7.0,129411.0,336370.0,217117.0,328697.0,227893.0
2026-04-14 18:16:27.086431,856903,1609508080706125,5680675250,0.636352,-0.099552,0.300608,-6.04625,-10.395,14.63,-6.528,24.864,19.768002,concentric,4,7.0,129411.0,336370.0,217117.0,328697.0,227893.0
2026-04-14 18:16:27.102268,856904,1609508080720647,5680690173,0.579744,-0.12688,0.26352,-8.09375,-11.865,13.81625,-6.456,25.240002,20.720001,concentric,4,7.0,129411.0,336370.0,217117.0,328697.0,227893.0
2026-04-14 18:16:27.111958,856905,1609508080729577,5680698856,0.579744,-0.12688,0.26352,-9.33625,-11.865,13.22125,-6.456,25.240002,20.720001,concentric,4,7.0,129411.0,336370.0,217117.0,328697.0,227893.0
2026-04-14 18:16:27.138553,856916,1609508080744892,5680713864,0.49776,-0.12688,0.187392,-8.417501,-10.465,11.22625,-6.808,25.312,19.344002,concentric,4,7.0,113996.0,323858.0,198718.0,318104.0,209775.0
2026-04-14 18:16:27.141150,856917,1609508080753960,5680722652,0.46848,-0.103456,0.144448,-3.38625,-9.275,9.5025,-7.960001,25.856,21.776001,concentric,4,7.0,113996.0,323858.0,198718.0,318104.0,209775.0
2026-04-14 18:16:27.146442,856918,1609508080763807,5680733919,0.46848,-0.103456,0.144448,0.72625,-7.70875,8.5225,-7.960001,25.856,21.776001,concentric,4,7.0,113996.0,323858.0,198718.0,318104.0,209775.0
2026-04-14 18:16:27.158948,856919,1609508080778280,5680746749,0.443104,-0.103456,0.279136,2.345,-7.245,8.575,-5.736,25.032001,19.768002,concentric,4,7.0,113996.0,323858.0,198718.0,318104.0,209775.0
2026-04-14 18:16:27.167269,856920,1609508080787561,5680757553,0.443104,-0.103456,0.279136,1.75,-7.62125,11.165,-5.736,25.032001,19.768002,concentric,4,7.0,113996.0,323858.0,198718.0,318104.0,209775.0
2026-04-14 18:16:27.177724,856921,1609508080796486,5680766246,0.51728,-0.103456,0.435296,-0.74375,-7.53375,14.0875,-5.960001,24.872002,19.864,concentric,4,7.0,113996.0,323858.0,198718.0,318104.0,209775.0
2026-04-14 18:16:27.193939,856922,1609508080811065,5680781168,0.482144,-0.054656,0.261568,-1.86375,-6.3525,15.1375,-5.960001,25.000002,18.504002,concentric,4,7.0,113996.0,323858.0,198718.0,318104.0,209775.0
2026-04-14 18:16:27.203345,856923,1609508080820094,5680789890,0.482144,-0.054656,0.261568,-1.14625,-5.27625,15.28625,-5.64,25.000002,18.504002,concentric,4,7.0,113996.0,323858.0,198718.0,318104.0,209775.0
2026-04-14 18:16:27.285150,856934,1609508080834781,5680804838,0.52704,-0.052704,0.3416,-0.67375,-5.46875,13.965,-6.224001,25.312,20.472,concentric,4,7.0,108072.0,315302.0,191909.0,311395.0,203211.0
2026-04-14 18:16:27.287145,856935,1609508080843908,5680813546,0.52704,-0.052704,0.3416,-1.085,-7.0875,12.53875,-6.224001,25.312,20.472,concentric,4,7.0,108072.0,315302.0,191909.0,311395.0,203211.0
2026-04-14 18:16:27.289713,856936,1609508080852945,5680822344,0.509472,-0.070272,0.33184,-1.47,-8.9075,12.74,-6.216,25.000002,19.728,concentric,4,7.0,108072.0,315302.0,191909.0,311395.0,203211.0
2026-04-14 18:16:27.292276,856937,1609508080867448,5680837253,0.509472,-0.070272,0.33184,-1.68,-11.3575,13.2825,-6.216,25.000002,19.728,concentric,4,7.0,108072.0,315302.0,191909.0,311395.0,203211.0
2026-04-14 18:16:27.296498,856938,1609508080876355,5680845975,0.5368,-0.093696,0.242048,-3.28125,-12.48625,12.88,-6.152,25.152,20.44,concentric,4,7.0,108072.0,315302.0,191909.0,311395.0,203211.0
2026-04-14 18:16:27.297014,856939,1609508080890844,5680861015,0.5368,-0.093696,0.421632,-5.24125,-11.87375,13.335,-6.152,25.152,20.44,concentric,4,7.0,108072.0,315302.0,191909.0,311395.0,203211.0
2026-04-14 18:16:27.299563,856940,1609508080899851,5680869733,0.62464,-0.052704,0.421632,-3.605,-10.00125,12.9675,-6.032,25.376001,20.736,concentric,4,7.0,108072.0,315302.0,191909.0,311395.0,203211.0
2026-04-14 18:16:27.303065,856941,1609508080914372,5680884630,0.569984,-0.0488,0.216672,-1.89,-8.365,9.975,-6.192,25.496,21.480001,concentric,4,7.0,108072.0,315302.0,191909.0,311395.0,203211.0
2026-04-14 18:16:27.307061,856942,1609508080923473,5680893371,0.569984,-0.0488,0.216672,-1.49625,-8.49625,6.4925,-6.192,25.496,21.480001,concentric,4,7.0,108072.0,315302.0,191909.0,311395.0,203211.0
2026-04-14 18:16:27.312777,856943,1609508080932531,5680902128,0.696864,-0.128832,0.365024,-2.26625,-10.823751,5.0925,-6.952,25.608002,21.824001,concentric,4,7.0,108072.0,315302.0,191909.0,311395.0,203211.0
2026-04-14 18:16:27.339810,856954,1609508080947126,5680917208,0.696864,-0.128832,0.365024,-4.61125,-12.9325,4.725,-6.952,25.608002,21.824001,concentric,4,7.0,106571.0,319772.0,189643.0,315140.0,200826.0
2026-04-14 18:16:27.342350,856955,1609508080956165,5680925926,0.612928,-0.11712,0.294752,-6.71125,-13.667501,4.55875,-7.168,25.576002,21.104,concentric,4,7.0,106571.0,319772.0,189643.0,315140.0,200826.0
2026-04-14 18:16:27.351153,856956,1609508080970702,5680940965,0.612928,-0.11712,0.294752,-8.18125,-13.06375,3.8325,-7.168,25.576002,21.104,concentric,4,7.0,106571.0,319772.0,189643.0,315140.0,200826.0
2026-04-14 18:16:27.361162,856957,1609508080979690,5680949654,0.708576,-0.130784,0.3416,-6.74625,-11.82125,3.31625,-5.664,24.904001,17.144001,concentric,4,7.0,106571.0,319772.0,189643.0,315140.0,200826.0
2026-04-14 18:16:27.369650,856958,1609508080988609,5680958375,0.708576,-0.130784,0.3416,-2.09125,-9.975,3.03625,-5.664,24.904001,17.144001,concentric,4,7.0,106571.0,319772.0,189643.0,315140.0,200826.0
2026-04-14 18:16:27.384831,856959,1609508081003135,5680973264,0.704672,-0.093696,0.413824,1.72375,-7.98875,1.505,-5.776001,25.032001,19.584002,concentric,4,7.0,106571.0,319772.0,189643.0,315140.0,200826.0
2026-04-14 18:16:27.392173,856960,1609508081012146,5680981990,0.733952,-0.12688,0.42944,1.95125,-7.49875,0.07,-5.776001,25.032001,20.944,concentric,4,7.0,106571.0,319772.0,189643.0,315140.0,200826.0
2026-04-14 18:16:27.409671,856961,1609508081026803,5680996904,0.733952,-0.12688,0.42944,-0.06125,-7.4375,0.16625,-6.704001,25.544,20.944,concentric,4,7.0,106571.0,319772.0,189643.0,315140.0,200826.0
2026-04-14 18:16:27.441131,856972,1609508081035799,5681005626,0.798368,-0.119072,0.499712,-0.455,-6.79875,-0.02625,-5.736,25.048,19.344002,concentric,4,7.0,109127.0,327968.0,192532.0,321634.0,203752.0
2026-04-14 18:16:27.443496,856973,1609508081050373,5681020561,0.798368,-0.119072,0.499712,-0.53375,-5.8975,-1.8025,-5.736,25.048,19.344002,concentric,4,7.0,109127.0,327968.0,192532.0,321634.0,203752.0
2026-04-14 18:16:27.446131,856974,1609508081059319,5681029269,0.784704,-0.160064,0.31232,-1.16375,-4.9875,-2.2575,-6.712,25.312,21.272001,concentric,4,7.0,109127.0,327968.0,192532.0,321634.0,203752.0
2026-04-14 18:16:27.448566,856975,1609508081068339,5681037970,0.784704,-0.160064,0.31232,0.1575,-3.9375,-2.12625,-6.712,25.312,21.272001,concentric,4,7.0,109127.0,327968.0,192532.0,321634.0,203752.0
2026-04-14 18:16:27.463583,856976,1609508081082890,5681052885,0.81008,-0.160064,0.404064,1.56625,-3.465,-1.8025,-6.504,25.2,20.296001,concentric,4,7.0,109127.0,327968.0,192532.0,321634.0,203752.0
2026-04-14 18:16:27.473616,856977,1609508081091801,5681061575,0.81008,-0.160064,0.404064,1.925,-2.91375,-2.59,-6.504,25.2,20.296001,concentric,4,7.0,109127.0,327968.0,192532.0,321634.0,203752.0
2026-04-14 18:16:27.487225,856978,1609508081106569,5681076447,0.757376,-0.132736,0.349408,2.68625,-2.03875,-2.835,-5.528,24.808,19.832,concentric,4,7.0,109127.0,327968.0,192532.0,321634.0,203752.0
2026-04-14 18:16:27.496814,856979,1609508081115554,5681085193,0.755424,-0.111264,0.333792,3.49125,-1.3125,-2.91375,-5.584,24.928001,20.648,concentric,4,7.0,109127.0,327968.0,192532.0,321634.0,203752.0
2026-04-14 18:16:27.503381,856980,1609508081124525,5681093907,0.755424,-0.111264,0.333792,4.31375,-1.4,-3.8675,-5.584,24.928001,20.648,concentric,4,7.0,109127.0,327968.0,192532.0,321634.0,203752.0
2026-04-14 18:16:27.541048,856991,1609508081139092,5681108844,0.767136,-0.115168,0.417728,3.9025,-1.6275,-3.66625,-6.496,25.36,20.128,concentric,4,7.0,116847.0,334925.0,201899.0,327458.0,213124.0
2026-04-14 18:16:27.543538,856992,1609508081148258,5681117573,0.767136,-0.115168,0.417728,1.89875,-1.4525,-3.4475,-6.496,25.36,20.128,concentric,4,7.0,116847.0,334925.0,201899.0,327458.0,213124.0
2026-04-14 18:16:27.545964,856993,1609508081162792,5681132552,0.7808,-0.13664,0.277184,1.75,-0.4375,-3.185,-7.76,25.52,21.52,concentric,4,7.0,116847.0,334925.0,201899.0,327458.0,213124.0
2026-04-14 18:16:27.552285,856994,1609508081171803,5681141302,0.7808,-0.13664,0.277184,2.065,0.74375,-3.71,-7.76,25.52,21.52,concentric,4,7.0,116847.0,334925.0,201899.0,327458.0,213124.0
2026-04-14 18:16:27.559758,856995,1609508081180754,5681149997,0.851072,-0.173728,0.349408,1.75,0.83125,-4.10375,-6.736001,24.928001,20.576,concentric,4,7.0,116847.0,334925.0,201899.0,327458.0,213124.0
2026-04-14 18:16:27.574868,856996,1609508081195351,5681164978,0.786656,-0.124928,0.421632,1.4175,0.875,-3.2725,-5.456,24.928001,19.544,concentric,4,7.0,116847.0,334925.0,201899.0,327458.0,213124.0
2026-04-14 18:16:27.588684,856997,1609508081204478,5681173684,0.786656,-0.124928,0.421632,2.72125,0.67375,-2.47625,-5.456,24.928001,19.544,concentric,4,7.0,116847.0,334925.0,201899.0,327458.0,213124.0
2026-04-14 18:16:27.602667,856998,1609508081219005,5681188715,0.864736,-0.150304,0.40016,3.22,0.9975,-2.07375,-6.888001,24.720001,21.248001,concentric,4,7.0,116847.0,334925.0,201899.0,327458.0,213124.0
2026-04-14 18:16:27.638452,856999,1609508081227936,5681197452,0.864736,-0.150304,0.40016,0.9275,0.455,-1.96875,-6.888001,24.720001,21.248001,concentric,4,7.0,116847.0,334925.0,201899.0,327458.0,213124.0
2026-04-14 18:16:27.711432,857010,1609508081242645,5681212414,0.774944,-0.103456,0.411872,-2.31875,0.83125,-2.05625,-5.728,24.584002,19.84,concentric,4,7.0,120591.0,339155.0,206259.0,330860.0,217276.0
2026-04-14 18:16:27.713898,857011,1609508081251593,5681221153,0.774944,-0.103456,0.411872,-3.4825,2.1,-2.66,-5.728,24.584002,19.84,concentric,4,7.0,120591.0,339155.0,206259.0,330860.0,217276.0
2026-04-14 18:16:27.718413,857012,1609508081260527,5681229824,0.8296,-0.179584,0.265472,-2.5025,1.4875,-3.29,-6.008,24.688002,19.008001,concentric,4,7.0,120591.0,339155.0,206259.0,330860.0,217276.0
2026-04-14 18:16:27.721464,857013,1609508081275004,5681244801,0.851072,-0.1952,0.310368,-1.35625,-0.1575,-3.64875,-5.68,24.888,20.272001,concentric,4,7.0,120591.0,339155.0,206259.0,330860.0,217276.0
2026-04-14 18:16:27.723463,857014,1609508081283950,5681253487,0.851072,-0.1952,0.310368,-1.39125,-1.39125,-2.2925,-5.68,24.888,20.272001,concentric,4,7.0,120591.0,339155.0,206259.0,330860.0,217276.0
2026-04-14 18:16:27.726487,857015,1609508081298647,5681268395,0.8784,-0.18544,0.394304,-2.625,-1.8025,-0.665,-5.512,24.52,19.608002,concentric,4,7.0,120591.0,339155.0,206259.0,330860.0,217276.0
2026-04-14 18:16:27.728965,857016,1609508081307560,5681277094,0.8784,-0.18544,0.394304,-4.08625,-1.02375,0.39375,-5.512,24.52,19.608002,concentric,4,7.0,120591.0,339155.0,206259.0,330860.0,217276.0
2026-04-14 18:16:27.731216,857017,1609508081322064,5681291996,0.774944,-0.119072,0.40992,-4.76,-0.28,0.6825,-5.424,25.104002,19.576,concentric,4,7.0,120591.0,339155.0,206259.0,330860.0,217276.0
2026-04-14 18:16:27.733933,857018,1609508081331052,5681300704,0.774944,-0.119072,0.40992,-4.71625,-0.0875,0.525,-5.424,25.104002,19.576,concentric,4,7.0,120591.0,339155.0,206259.0,330860.0,217276.0
2026-04-14 18:16:27.761357,857029,1609508081340115,5681309484,0.806176,-0.171776,0.314272,-5.1975,-0.28875,-0.20125,-5.624,24.864,19.640001,concentric,4,7.0,116991.0,337865.0,201772.0,329691.0,212854.0
2026-04-14 18:16:27.763900,857030,1609508081354874,5681324532,0.870592,-0.206912,0.404064,-5.95875,0.735,-0.55125,-5.552,25.096,17.848001,concentric,4,7.0,116991.0,337865.0,201772.0,329691.0,212854.0
2026-04-14 18:16:27.767860,857031,1609508081363987,5681333222,0.870592,-0.206912,0.404064,-6.755,1.00625,0.09625,-5.552,25.096,17.848001,concentric,4,7.0,116991.0,337865.0,201772.0,329691.0,212854.0
2026-04-14 18:16:27.768320,857032,1609508081378593,5681348196,0.786656,-0.16592,0.472384,-5.8625,0.5075,-0.00875,-5.352,24.888,19.712002,concentric,4,7.0,116991.0,337865.0,201772.0,329691.0,212854.0
2026-04-14 18:16:27.770906,857033,1609508081387565,5681356901,0.786656,-0.16592,0.472384,-3.96375,0.35,0.13125,-5.352,24.888,19.712002,concentric,4,7.0,116991.0,337865.0,201772.0,329691.0,212854.0
2026-04-14 18:16:27.777413,857034,1609508081396577,5681365685,0.843264,-0.173728,0.476288,-2.7825,1.05,0.77,-5.408001,24.576,20.04,concentric,4,7.0,116991.0,337865.0,201772.0,329691.0,212854.0
2026-04-14 18:16:27.791391,857035,1609508081411053,5681380647,0.843264,-0.173728,0.476288,-3.465,1.9075,0.49,-5.408001,24.576,20.04,concentric,4,7.0,116991.0,337865.0,201772.0,329691.0,212854.0
2026-04-14 18:16:27.801438,857036,1609508081419975,5681389348,0.825696,-0.181536,0.365024,-3.87625,2.42375,-0.18375,-5.768,24.904001,20.712002,concentric,4,7.0,116991.0,337865.0,201772.0,329691.0,212854.0
2026-04-14 18:16:27.815098,857037,1609508081434462,5681404243,0.825696,-0.181536,0.521184,-3.00125,2.695,-1.26,-5.768,24.904001,20.712002,concentric,4,7.0,116991.0,337865.0,201772.0,329691.0,212854.0
2026-04-14 18:16:27.847666,857048,1609508081443583,5681413073,0.808128,-0.187392,0.521184,-2.17875,2.63375,-2.4325,-6.2,24.984001,17.464,concentric,4,7.0,116731.0,339680.0,201521.0,331117.0,212595.0
2026-04-14 18:16:27.850081,857049,1609508081452598,5681421833,0.808128,-0.187392,0.521184,-2.2575,3.5525,-2.38875,-6.2,24.984001,17.464,concentric,4,7.0,116731.0,339680.0,201521.0,331117.0,212595.0
2026-04-14 18:16:27.852708,857050,1609508081467111,5681436897,0.815936,-0.216672,0.366976,-1.21625,4.0425,-2.16125,-6.176,24.912,19.752,concentric,4,7.0,116731.0,339680.0,201521.0,331117.0,212595.0
2026-04-14 18:16:27.857710,857051,1609508081476190,5681445632,0.772992,-0.197152,0.257664,-0.39375,4.025,-2.65125,-5.264,24.664001,20.968,concentric,4,7.0,116731.0,339680.0,201521.0,331117.0,212595.0
2026-04-14 18:16:27.870990,857052,1609508081490758,5681460602,0.772992,-0.197152,0.257664,-0.9625,3.815,-2.3975,-5.264,24.664001,20.968,concentric,4,7.0,116731.0,339680.0,201521.0,331117.0,212595.0
2026-04-14 18:16:27.881263,857053,1609508081499706,5681469323,0.772992,-0.171776,0.49776,-1.3125,4.06875,-1.37375,-5.328,24.736002,20.528002,concentric,4,7.0,116731.0,339680.0,201521.0,331117.0,212595.0
2026-04-14 18:16:27.895028,857054,1609508081514238,5681484223,0.772992,-0.171776,0.49776,-0.63875,4.45375,-0.2275,-5.328,24.736002,20.528002,concentric,4,7.0,116731.0,339680.0,201521.0,331117.0,212595.0
2026-04-14 18:16:27.904804,857055,1609508081523321,5681493039,0.80032,-0.222528,0.394304,-1.30375,5.17125,0.23625,-5.960001,25.248001,19.104,concentric,4,7.0,116731.0,339680.0,201521.0,331117.0,212595.0
2026-04-14 18:16:27.913902,857056,1609508081532248,5681501717,0.80032,-0.222528,0.394304,-0.8925,6.335,-0.0525,-5.960001,25.248001,19.104,concentric,4,7.0,116731.0,339680.0,201521.0,331117.0,212595.0
2026-04-14 18:16:27.946440,857067,1609508081546852,5681516711,0.749568,-0.220576,0.314272,0.805,7.07,-0.67375,-6.096,24.768002,19.824001,concentric,4,7.0,124346.0,345572.0,210933.0,335895.0,221749.0
2026-04-14 18:16:27.948888,857068,1609508081555856,5681525458,0.677344,-0.189344,0.220576,3.22,7.65625,-0.79625,-6.784,24.976002,20.816002,concentric,4,7.0,124346.0,345572.0,210933.0,335895.0,221749.0
2026-04-14 18:16:27.951307,857069,1609508081570403,5681540431,0.677344,-0.189344,0.220576,4.83,7.98875,-0.105,-6.784,24.976002,20.816002,concentric,4,7.0,124346.0,345572.0,210933.0,335895.0,221749.0
2026-04-14 18:16:27.962472,857070,1609508081579361,5681549105,0.62464,-0.16592,0.245952,4.2875,6.8075,0.37625,-5.936,25.192001,20.968,concentric,4,7.0,124346.0,345572.0,210933.0,335895.0,221749.0
2026-04-14 18:16:27.968759,857071,1609508081588339,5681557805,0.62464,-0.16592,0.245952,3.01,4.52375,0.0875,-5.936,25.192001,20.968,concentric,4,7.0,124346.0,345572.0,210933.0,335895.0,221749.0
2026-04-14 18:16:27.993861,857072,1609508081602822,5681572737,0.716384,-0.1464,0.411872,5.25875,2.87875,-1.6975,-6.032,24.808,21.224,concentric,4,7.0,124346.0,345572.0,210933.0,335895.0,221749.0
2026-04-14 18:16:28.018886,857073,1609508081611744,5681581429,0.716384,-0.1464,0.411872,8.75875,1.65375,-4.725,-6.032,24.808,21.224,concentric,4,7.0,124346.0,345572.0,210933.0,335895.0,221749.0
2026-04-14 18:16:28.028872,857074,1609508081626284,5681596300,0.60512,-0.1464,0.21472,11.235,-0.21875,-7.5075,-5.984,24.896002,21.272001,concentric,4,7.0,124346.0,345572.0,210933.0,335895.0,221749.0
2026-04-14 18:16:28.031479,857075,1609508081635223,5681605063,0.60512,-0.1464,0.21472,11.585,-0.9625,-8.8025,-5.984,24.896002,21.272001,concentric,4,7.0,124346.0,345572.0,210933.0,335895.0,221749.0
2026-04-14 18:16:28.060881,857086,1609508081649833,5681620112,0.655872,-0.081984,0.427488,12.11875,0.07875,-10.99875,-6.016,24.44,18.528002,concentric,4,7.0,121139.0,341972.0,207225.0,332881.0,218060.0
2026-04-14 18:16:28.063803,857087,1609508081658986,5681628820,0.659776,-0.13664,0.27328,11.655,0.1225,-14.1225,-5.24,24.256,20.144001,concentric,4,7.0,121139.0,341972.0,207225.0,332881.0,218060.0
2026-04-14 18:16:28.066400,857088,1609508081668038,5681637726,0.659776,-0.13664,0.27328,10.823751,-0.245,-17.15,-5.24,24.256,20.144001,concentric,4,7.0,121139.0,341972.0,207225.0,332881.0,218060.0
2026-04-14 18:16:28.068433,857089,1609508081682608,5681652696,0.562176,-0.076128,0.335744,11.29625,0.455,-19.67,-5.4,24.224,20.352001,concentric,4,7.0,121139.0,341972.0,207225.0,332881.0,218060.0
2026-04-14 18:16:28.073896,857090,1609508081691669,5681661418,0.562176,-0.076128,0.335744,12.705,1.5575,-21.09625,-5.4,24.224,20.352001,concentric,4,7.0,121139.0,341972.0,207225.0,332881.0,218060.0
2026-04-14 18:16:28.086437,857091,1609508081706313,5681676383,0.67344,-0.083936,0.447008,11.15625,3.3075,-20.405,-5.448,24.208002,20.392,concentric,4,7.0,121139.0,341972.0,207225.0,332881.0,218060.0
2026-04-14 18:16:28.095179,857092,1609508081715425,5681685098,0.67344,-0.083936,0.447008,6.8425,5.6525,-18.2175,-5.448,24.208002,20.392,concentric,4,7.0,121139.0,341972.0,207225.0,332881.0,218060.0
2026-04-14 18:16:28.105151,857093,1609508081724384,5681693788,0.620736,-0.144448,0.220576,1.0675,7.455,-16.00375,-6.496,24.376001,21.504002,concentric,4,7.0,121139.0,341972.0,207225.0,332881.0,218060.0
2026-04-14 18:16:28.121449,857094,1609508081738983,5681708683,0.681248,-0.111264,0.40016,0.06125,9.2225,-15.05,-6.184001,23.544,20.792002,concentric,4,7.0,121139.0,341972.0,207225.0,332881.0,218060.0
2026-04-14 18:16:28.153420,857105,1609508081748058,5681717408,0.681248,-0.111264,0.40016,5.425,10.92,-15.8725,-6.184001,23.544,20.792002,concentric,4,7.0,125019.0,342287.0,212215.0,333309.0,223329.0
2026-04-14 18:16:28.155945,857106,1609508081762606,5681732307,0.691008,-0.015616,0.484096,11.55,13.09,-17.68375,-5.768,23.664001,20.504002,concentric,4,7.0,125019.0,342287.0,212215.0,333309.0,223329.0
2026-04-14 18:16:28.158836,857107,1609508081771531,5681741016,0.691008,-0.015616,0.484096,9.6775,15.0675,-17.815,-5.768,23.664001,20.504002,concentric,4,7.0,125019.0,342287.0,212215.0,333309.0,223329.0
2026-04-14 18:16:28.166429,857108,1609508081786136,5681756038,0.609024,-0.091744,0.247904,-2.12625,16.975,-15.085,-5.952,23.832,20.744001,concentric,4,7.0,125019.0,342287.0,212215.0,333309.0,223329.0
2026-04-14 18:16:28.177658,857109,1609508081795115,5681764734,0.609024,-0.091744,0.247904,-12.285,19.55625,-9.5375,-5.952,23.832,20.744001,concentric,4,7.0,125019.0,342287.0,212215.0,333309.0,223329.0
2026-04-14 18:16:28.185153,857110,1609508081804139,5681773415,0.716384,-0.132736,0.431392,-12.8275,21.07,-7.42875,-5.488,24.048,21.424002,concentric,4,7.0,125019.0,342287.0,212215.0,333309.0,223329.0
2026-04-14 18:16:28.198502,857111,1609508081818668,5681788401,0.607072,-0.05856,0.261568,-7.1575,20.825,-8.8725,-6.392,24.384,20.608002,concentric,4,7.0,125019.0,342287.0,212215.0,333309.0,223329.0
2026-04-14 18:16:28.208545,857112,1609508081827724,5681797100,0.607072,-0.05856,0.261568,3.54375,19.17125,-10.815,-6.392,24.384,20.608002,concentric,4,7.0,125019.0,342287.0,212215.0,333309.0,223329.0
2026-04-14 18:16:28.246281,857123,1609508081842538,5681812191,0.679296,-0.035136,0.515328,10.61375,16.73875,-14.00875,-5.992,23.808,20.936,concentric,4,7.0,142203.0,351905.0,232757.0,341139.0,242684.0
2026-04-14 18:16:28.284226,857124,1609508081851543,5681820966,0.679296,-0.035136,0.515328,12.08375,15.56625,-15.26,-5.992,23.808,20.936,concentric,4,7.0,142203.0,351905.0,232757.0,341139.0,242684.0
2026-04-14 18:16:28.286148,857125,1609508081860491,5681829755,0.583648,-0.046848,0.38064,8.295,15.3125,-16.00375,-6.32,24.456001,22.376001,concentric,4,7.0,142203.0,351905.0,232757.0,341139.0,242684.0
2026-04-14 18:16:28.288416,857126,1609508081875107,5681844671,0.583648,-0.046848,0.38064,1.53125,14.3675,-16.0475,-6.32,24.456001,22.376001,concentric,4,7.0,142203.0,351905.0,232757.0,341139.0,242684.0
2026-04-14 18:16:28.291430,857127,1609508081884045,5681853411,0.579744,-0.062464,0.308416,-2.07375,13.93875,-15.04125,-6.392,24.328001,22.856,concentric,4,7.0,142203.0,351905.0,232757.0,341139.0,242684.0
2026-04-14 18:16:28.293923,857128,1609508081898677,5681868294,0.659776,-0.06832,0.396256,-1.05,13.51875,-15.37375,-7.392,24.2,22.608002,concentric,4,7.0,142203.0,351905.0,232757.0,341139.0,242684.0
2026-04-14 18:16:28.296436,857129,1609508081907758,5681876989,0.659776,-0.06832,0.396256,3.92875,14.0175,-17.21125,-7.392,24.2,22.608002,concentric,4,7.0,142203.0,351905.0,232757.0,341139.0,242684.0
2026-04-14 18:16:28.298896,857130,1609508081916630,5681885739,0.659776,-0.06832,0.396256,8.68,13.90375,-20.02,-7.392,24.2,22.608002,concentric,4,7.0,142203.0,351905.0,232757.0,341139.0,242684.0
2026-04-14 18:16:28.311452,857131,1609508081931136,5681900746,0.6832,-0.076128,0.495808,11.025,12.66125,-21.25375,-7.432,24.080002,24.744001,concentric,4,7.0,142203.0,351905.0,232757.0,341139.0,242684.0
2026-04-14 18:16:28.320717,857132,1609508081940067,5681909436,0.607072,-0.0488,0.460672,12.94125,11.042501,-20.895,-7.192,23.6,22.704,concentric,4,7.0,142203.0,351905.0,232757.0,341139.0,242684.0
2026-04-14 18:16:28.396376,857143,1609508081954836,5681924458,0.607072,-0.0488,0.460672,14.11375,10.17625,-19.635,-7.192,23.6,22.704,concentric,4,7.0,145496.0,355793.0,236265.0,343975.0,245994.0
2026-04-14 18:16:28.398953,857144,1609508081963812,5681933177,0.685152,-0.021472,0.435296,13.9125,11.10375,-18.6725,-6.792,23.528002,22.920002,concentric,4,7.0,145496.0,355793.0,236265.0,343975.0,245994.0
2026-04-14 18:16:28.401118,857145,1609508081978291,5681948066,0.696864,-0.037088,0.52704,10.7275,12.60875,-18.655,-6.792,23.528002,22.816002,concentric,4,7.0,145496.0,355793.0,236265.0,343975.0,245994.0
2026-04-14 18:16:28.403539,857146,1609508081987390,5681956781,0.696864,-0.037088,0.52704,7.83125,12.22375,-17.64875,-7.008,23.536001,22.816002,concentric,4,7.0,145496.0,355793.0,236265.0,343975.0,245994.0
2026-04-14 18:16:28.406475,857147,1609508081996449,5681965477,0.696864,-0.037088,0.52704,8.5925,11.62875,-17.3075,-7.008,23.536001,22.816002,concentric,4,7.0,145496.0,355793.0,236265.0,343975.0,245994.0
2026-04-14 18:16:28.408958,857148,1609508082010953,5681980352,0.636352,0.011712,0.366976,14.245,11.6375,-19.4775,-6.912,23.472002,24.376001,concentric,4,7.0,145496.0,355793.0,236265.0,343975.0,245994.0
2026-04-14 18:16:28.414446,857149,1609508082020008,5681989136,0.679296,0.00976,0.528992,17.80625,11.515,-21.62125,-7.16,23.12,22.816002,concentric,4,7.0,145496.0,355793.0,236265.0,343975.0,245994.0
2026-04-14 18:16:28.415924,857150,1609508082034543,5682004068,0.679296,0.00976,0.528992,18.305,11.05125,-21.16625,-7.16,23.12,22.816002,concentric,4,7.0,145496.0,355793.0,236265.0,343975.0,245994.0
2026-04-14 18:16:28.448629,857161,1609508082043995,5682013275,0.704672,0.005856,0.378688,18.97875,10.73625,-20.86,-6.32,22.656,22.192001,concentric,4,7.0,158768.0,361283.0,251948.0,348068.0,259999.0
2026-04-14 18:16:28.450838,857162,1609508082053029,5682022034,0.704672,0.005856,0.378688,18.6725,10.5875,-22.085001,-6.32,22.656,22.192001,concentric,4,7.0,158768.0,361283.0,251948.0,348068.0,259999.0
2026-04-14 18:16:28.455845,857163,1609508082067685,5682037074,0.757376,0.01952,0.482144,16.10875,11.305,-23.07375,-6.616,22.928001,21.872002,concentric,4,7.0,158768.0,361283.0,251948.0,348068.0,259999.0
2026-04-14 18:16:28.458330,857164,1609508082076747,5682045845,0.757376,0.01952,0.482144,9.292501,13.23875,-23.205,-6.616,22.928001,21.872002,concentric,4,7.0,158768.0,361283.0,251948.0,348068.0,259999.0
2026-04-14 18:16:28.470899,857165,1609508082091241,5682060771,0.776896,-0.035136,0.525088,7.3675,14.455,-22.23375,-6.456,22.400002,22.448002,concentric,4,7.0,158768.0,361283.0,251948.0,348068.0,259999.0
2026-04-14 18:16:28.482485,857166,1609508082100226,5682069456,0.74176,0.023424,0.505568,11.76875,13.51,-21.18375,-6.792,22.032001,22.912,concentric,4,7.0,158768.0,361283.0,251948.0,348068.0,259999.0
2026-04-14 18:16:28.488283,857167,1609508082109255,5682078178,0.74176,0.023424,0.505568,18.8825,11.1825,-18.87375,-6.792,22.032001,22.912,concentric,4,7.0,158768.0,361283.0,251948.0,348068.0,259999.0
2026-04-14 18:16:28.505139,857168,1609508082123756,5682093083,0.76128,0.037088,0.445056,22.4525,9.66875,-18.3925,-7.304,21.928001,22.808,concentric,4,7.0,158768.0,361283.0,251948.0,348068.0,259999.0
2026-04-14 18:16:28.512866,857169,1609508082132722,5682101805,0.76128,0.037088,0.445056,19.17125,8.636251,-17.92,-7.304,21.928001,22.808,concentric,4,7.0,158768.0,361283.0,251948.0,348068.0,259999.0
2026-04-14 18:16:28.548916,857180,1609508082147423,5682116722,0.757376,0.044896,0.482144,14.60375,8.51375,-17.94625,-7.528,22.272001,23.936,concentric,4,7.0,165199.0,361958.0,259608.0,348546.0,266445.0
2026-04-14 18:16:28.551455,857181,1609508082156429,5682125539,0.757376,0.044896,0.482144,12.25875,9.45,-18.865,-7.528,22.272001,23.936,concentric,4,7.0,165199.0,361958.0,259608.0,348546.0,266445.0
2026-04-14 18:16:28.553555,857182,1609508082171183,5682140469,0.747616,0.027328,0.374784,10.05375,9.555,-19.04875,-6.960001,21.888,23.208,concentric,4,7.0,165199.0,361958.0,259608.0,348546.0,266445.0
2026-04-14 18:16:28.561464,857183,1609508082180251,5682149210,0.80032,0.011712,0.616832,9.72125,8.84625,-17.89375,-6.8,22.192001,23.880001,concentric,4,7.0,165199.0,361958.0,259608.0,348546.0,266445.0
2026-04-14 18:16:28.567700,857184,1609508082189197,5682157951,0.80032,0.011712,0.616832,8.86375,6.58875,-16.73,-6.8,22.192001,23.880001,concentric,4,7.0,165199.0,361958.0,259608.0,348546.0,266445.0
2026-04-14 18:16:28.583819,857185,1609508082204087,5682172916,0.726144,0.095648,0.581696,8.295,4.7775,-15.16375,-7.904,22.312,24.112001,concentric,4,7.0,165199.0,361958.0,259608.0,348546.0,266445.0
2026-04-14 18:16:28.592700,857186,1609508082213052,5682181785,0.726144,0.095648,0.581696,10.01,4.15625,-14.48125,-7.904,22.312,24.112001,concentric,4,7.0,165199.0,361958.0,259608.0,348546.0,266445.0
2026-04-14 18:16:28.603543,857187,1609508082222426,5682192563,0.825696,0.033184,0.550464,9.38,3.96375,-14.455,-7.648,21.712002,23.416,concentric,4,7.0,165199.0,361958.0,259608.0,348546.0,266445.0
2026-04-14 18:16:28.618862,857188,1609508082236924,5682205395,0.825696,0.033184,0.550464,7.46375,5.01375,-14.49,-7.648,21.712002,23.416,concentric,4,7.0,165199.0,361958.0,259608.0,348546.0,266445.0
2026-04-14 18:16:28.647578,857199,1609508082246843,5682216649,0.76128,0.08784,0.554368,8.5225,6.02875,-15.89875,-7.128,21.936,23.312,concentric,4,7.0,166411.0,361678.0,261083.0,348291.0,267821.0
2026-04-14 18:16:28.650166,857200,1609508082261385,5682231559,0.823744,0.056608,0.460672,10.78,6.86,-18.41,-7.528,21.408,23.312,concentric,4,7.0,166411.0,361678.0,261083.0,348291.0,267821.0
2026-04-14 18:16:28.652739,857201,1609508082270377,5682240273,0.823744,0.056608,0.460672,10.91125,7.28875,-19.53,-7.528,21.408,23.312,concentric,4,7.0,166411.0,361678.0,261083.0,348291.0,267821.0
2026-04-14 18:16:28.663656,857202,1609508082279463,5682249022,0.823744,0.056608,0.460672,9.765,7.91875,-19.88875,-7.528,21.408,23.312,concentric,4,7.0,166411.0,361678.0,261083.0,348291.0,267821.0
2026-04-14 18:16:28.675175,857203,1609508082293984,5682263916,0.7808,0.113216,0.5856,6.86875,7.5775,-19.495,-7.6,21.288,23.744001,concentric,4,7.0,166411.0,361678.0,261083.0,348291.0,267821.0
2026-04-14 18:16:28.685173,857204,1609508082302912,5682272620,0.825696,0.062464,0.716384,2.0475,7.21875,-18.31375,-8.264,22.248001,23.912,concentric,4,7.0,166411.0,361678.0,261083.0,348291.0,267821.0
2026-04-14 18:16:28.698550,857205,1609508082317367,5682287519,0.825696,0.062464,0.716384,-0.70875,7.9625,-16.765,-8.264,22.248001,23.912,concentric,4,7.0,166411.0,361678.0,261083.0,348291.0,267821.0
2026-04-14 18:16:28.733453,857206,1609508082326347,5682296277,0.794464,0.074176,0.450912,-0.20125,8.16375,-16.1175,-7.896,21.584002,23.656002,eccentric,4,7.0,166411.0,361678.0,261083.0,348291.0,267821.0
2026-04-14 18:16:28.735748,857207,1609508082340859,5682311180,0.89792,0.072224,0.603168,3.64,8.18125,-16.03,-9.944,22.368002,25.12,eccentric,4,7.0,166411.0,361678.0,261083.0,348291.0,267821.0
2026-04-14 18:16:28.793440,857218,1609508082350013,5682319875,0.89792,0.072224,0.603168,5.80125,6.9125,-15.9775,-8.648001,22.368002,25.12,eccentric,4,7.0,170015.0,362396.0,265333.0,348794.0,271384.0
2026-04-14 18:16:28.802583,857219,1609508082358967,5682328685,0.89792,0.072224,0.603168,8.39125,5.0925,-15.5925,-8.648001,22.368002,25.12,eccentric,4,7.0,170015.0,362396.0,265333.0,348794.0,271384.0
2026-04-14 18:16:28.802777,857220,1609508082373468,5682343582,0.847168,0.11712,0.6832,7.7875,4.24375,-14.5775,-8.504001,21.672,25.264002,eccentric,4,7.0,170015.0,362396.0,265333.0,348794.0,271384.0
2026-04-14 18:16:28.802871,857221,1609508082382381,5682352415,0.91744,0.050752,0.671488,4.15625,4.24375,-13.15125,-8.672001,22.168001,25.288002,eccentric,4,7.0,170015.0,362396.0,265333.0,348794.0,271384.0
2026-04-14 18:16:28.803063,857222,1609508082396919,5682365314,0.91744,0.050752,0.671488,-0.28875,4.9525,-12.10125,-8.672001,22.168001,25.288002,eccentric,4,7.0,170015.0,362396.0,265333.0,348794.0,271384.0
2026-04-14 18:16:28.803998,857223,1609508082406202,5682376301,0.931104,0.093696,0.642208,-1.645,5.90625,-11.9875,-8.96,22.104002,24.776001,eccentric,4,7.0,170015.0,362396.0,265333.0,348794.0,271384.0
2026-04-14 18:16:28.804083,857224,1609508082415205,5682385017,0.931104,0.093696,0.642208,0.2975,5.67,-11.96125,-8.96,22.104002,24.776001,eccentric,4,7.0,170015.0,362396.0,265333.0,348794.0,271384.0
2026-04-14 18:16:28.815365,857225,1609508082429782,5682399962,0.93696,0.089792,0.560224,2.8525,4.83875,-11.41875,-8.04,22.04,24.016,eccentric,4,7.0,170015.0,362396.0,265333.0,348794.0,271384.0
2026-04-14 18:16:28.819483,857226,1609508082438880,5682408711,0.93696,0.089792,0.560224,6.51,3.70125,-11.94375,-8.04,22.04,24.016,eccentric,4,7.0,170015.0,362396.0,265333.0,348794.0,271384.0
2026-04-14 18:16:28.849597,857237,1609508082453906,5682423929,0.85888,0.13664,0.610976,7.8925,2.10875,-13.27375,-8.120001,21.632002,23.472002,eccentric,4,7.0,175225.0,363524.0,271700.0,349681.0,276386.0
2026-04-14 18:16:28.852226,857238,1609508082462905,5682432716,0.854976,0.183488,0.622688,8.365,1.1375,-15.3125,-9.120001,21.784,25.712002,eccentric,4,7.0,175225.0,363524.0,271700.0,349681.0,276386.0
2026-04-14 18:16:28.854782,857239,1609508082471951,5682441431,0.854976,0.183488,0.622688,3.85875,2.07375,-16.45,-9.120001,21.784,25.712002,eccentric,4,7.0,175225.0,363524.0,271700.0,349681.0,276386.0
2026-04-14 18:16:28.867333,857240,1609508082486483,5682456325,0.938912,0.140544,0.733952,-1.26,4.03375,-15.505,-9.824,22.288,26.12,eccentric,4,7.0,175225.0,363524.0,271700.0,349681.0,276386.0
2026-04-14 18:16:28.876023,857241,1609508082495499,5682465067,0.938912,0.140544,0.733952,-2.31,5.2675,-13.99125,-9.824,22.288,26.12,eccentric,4,7.0,175225.0,363524.0,271700.0,349681.0,276386.0
2026-04-14 18:16:28.909715,857242,1609508082510015,5682479975,0.9272,0.181536,0.687104,0.4375,5.38125,-13.230001,-8.216001,21.688002,24.032001,eccentric,4,7.0,175225.0,363524.0,271700.0,349681.0,276386.0
2026-04-14 18:16:28.917204,857243,1609508082519101,5682488726,0.9272,0.181536,0.687104,4.17375,4.47125,-12.792501,-8.216001,21.688002,24.032001,eccentric,4,7.0,175225.0,363524.0,271700.0,349681.0,276386.0
2026-04-14 18:16:28.919493,857244,1609508082528031,5682497414,0.919392,0.163968,0.650016,7.0525,2.03,-13.78125,-9.376,21.6,25.568,eccentric,4,7.0,175225.0,363524.0,271700.0,349681.0,276386.0
2026-04-14 18:16:28.922326,857245,1609508082542665,5682512283,1.003328,0.238144,0.728096,11.4975,-0.56,-15.1375,-9.352,21.448002,26.352001,eccentric,4,7.0,175225.0,363524.0,271700.0,349681.0,276386.0
2026-04-14 18:16:28.949786,857256,1609508082551741,5682521066,1.003328,0.238144,0.728096,17.57875,-2.93125,-16.625,-9.352,21.448002,26.352001,eccentric,4,7.0,190288.0,364020.0,290824.0,349933.0,291108.0
2026-04-14 18:16:28.952405,857257,1609508082566351,5682536032,0.999424,0.216672,0.65392,21.13125,-2.38875,-18.865,-9.552,21.136002,25.52,eccentric,4,7.0,190288.0,364020.0,290824.0,349933.0,291108.0
2026-04-14 18:16:28.954645,857258,1609508082575331,5682544849,0.999424,0.216672,0.65392,15.3825,-0.69125,-16.37125,-9.552,21.136002,25.52,eccentric,4,7.0,190288.0,364020.0,290824.0,349933.0,291108.0
2026-04-14 18:16:28.971132,857259,1609508082589845,5682559738,1.104832,0.216672,0.890112,7.07,2.2575,-11.480001,-9.52,21.264002,25.624,eccentric,4,7.0,190288.0,364020.0,290824.0,349933.0,291108.0
2026-04-14 18:16:28.984783,857260,1609508082598795,5682568472,1.104832,0.216672,0.890112,4.2875,5.145,-9.72125,-9.52,21.264002,25.624,eccentric,4,7.0,190288.0,364020.0,290824.0,349933.0,291108.0
2026-04-14 18:16:28.988272,857261,1609508082607790,5682577170,1.007232,0.290848,0.808128,3.78,7.245,-9.38875,-9.944,20.944,24.808,eccentric,4,7.0,190288.0,364020.0,290824.0,349933.0,291108.0
2026-04-14 18:16:29.002219,857262,1609508082622302,5682592072,1.05408,0.21472,0.609024,1.925,8.46125,-10.535,-9.944,20.944,22.76,eccentric,4,7.0,190288.0,364020.0,290824.0,349933.0,291108.0
2026-04-14 18:16:29.012386,857263,1609508082631405,5682600747,1.052128,0.21472,0.609024,0.3325,8.2075,-11.33125,-8.888001,20.888,23.816002,eccentric,4,7.0,190288.0,364020.0,290824.0,349933.0,291108.0
2026-04-14 18:16:29.053471,857274,1609508082645905,5682615680,1.089216,0.17568,0.716384,0.53375,6.965,-10.115,-8.544001,20.76,24.640001,eccentric,4,7.0,197493.0,362408.0,298980.0,348335.0,296117.0
2026-04-14 18:16:29.056447,857275,1609508082655306,5682624428,1.089216,0.17568,0.716384,-0.98875,6.16875,-7.81375,-8.544001,20.76,24.640001,eccentric,4,7.0,197493.0,362408.0,298980.0,348335.0,296117.0
2026-04-14 18:16:29.058933,857276,1609508082664279,5682633181,1.022848,0.220576,0.726144,-2.8525,6.72875,-6.685,-9.320001,21.320002,26.992,eccentric,4,7.0,197493.0,362408.0,298980.0,348335.0,296117.0
2026-04-14 18:16:29.061239,857277,1609508082678979,5682648099,1.022848,0.220576,0.726144,-4.22625,7.62125,-6.29125,-9.320001,21.320002,26.992,eccentric,4,7.0,197493.0,362408.0,298980.0,348335.0,296117.0
2026-04-14 18:16:29.068469,857278,1609508082687968,5682656776,0.999424,0.201056,0.739808,-3.92,8.3475,-6.39625,-10.336,21.368002,26.44,eccentric,4,7.0,197493.0,362408.0,298980.0,348335.0,296117.0
2026-04-14 18:16:29.116382,857279,1609508082703094,5682671760,0.98576,0.210816,0.669536,-2.12625,7.035,-5.69625,-8.288,20.536001,26.752,eccentric,4,7.0,197493.0,362408.0,298980.0,348335.0,296117.0
2026-04-14 18:16:29.118808,857280,1609508082712388,5682682510,0.98576,0.210816,0.669536,-0.49875,4.76,-4.94375,-9.416,20.536001,26.752,eccentric,4,7.0,197493.0,362408.0,298980.0,348335.0,296117.0
2026-04-14 18:16:29.121040,857281,1609508082721300,5682691183,0.98576,0.210816,0.669536,1.11125,3.31625,-4.19125,-9.416,20.536001,26.752,eccentric,4,7.0,197493.0,362408.0,298980.0,348335.0,296117.0
2026-04-14 18:16:29.123490,857282,1609508082735781,5682706070,1.091168,0.152256,0.7808,0.665,1.75,-3.22,-9.568001,20.880001,24.824001,eccentric,4,7.0,197493.0,362408.0,298980.0,348335.0,296117.0
2026-04-14 18:16:29.126401,857283,1609508082744737,5682714784,0.935008,0.240096,0.753472,1.7675,0.1575,-2.84375,-9.52,20.776001,25.256,eccentric,4,7.0,197493.0,362408.0,298980.0,348335.0,296117.0
2026-04-14 18:16:29.153372,857294,1609508082759344,5682727783,0.935008,0.240096,0.753472,3.61375,-0.48125,-2.07375,-9.52,20.776001,25.256,eccentric,4,7.0,195454.0,361944.0,296358.0,347858.0,294780.0
2026-04-14 18:16:29.155871,857295,1609508082768673,5682738601,0.91744,0.177632,0.609024,3.3075,-1.61875,-1.02375,-9.136001,20.576,25.856,eccentric,4,7.0,195454.0,361944.0,296358.0,347858.0,294780.0
2026-04-14 18:16:29.158939,857296,1609508082777740,5682747275,0.91744,0.177632,0.609024,2.86125,-4.3925,0.65625,-9.136001,20.576,25.856,eccentric,4,7.0,195454.0,361944.0,296358.0,347858.0,294780.0
2026-04-14 18:16:29.172704,857297,1609508082792261,5682762204,0.970144,0.226432,0.802272,2.52,-7.7525,1.9425,-9.616,20.400002,25.696001,eccentric,4,7.0,195454.0,361944.0,296358.0,347858.0,294780.0
2026-04-14 18:16:29.182199,857298,1609508082801345,5682770915,0.970144,0.226432,0.802272,0.34125,-9.63375,3.15875,-9.616,20.400002,25.696001,eccentric,4,7.0,195454.0,361944.0,296358.0,347858.0,294780.0
2026-04-14 18:16:29.197617,857299,1609508082815831,5682786007,0.948672,0.212768,0.628544,-1.82,-8.8025,3.01875,-9.088,20.128,24.872002,eccentric,4,7.0,195454.0,361944.0,296358.0,347858.0,294780.0
2026-04-14 18:16:29.206382,857300,1609508082824766,5682794707,0.948672,0.218624,0.698816,-2.905,-6.88625,3.43875,-9.192,20.704,24.896002,eccentric,4,7.0,195454.0,361944.0,296358.0,347858.0,294780.0
2026-04-14 18:16:29.213839,857301,1609508082833719,5682803423,0.948672,0.218624,0.698816,-4.59375,-4.73375,3.40375,-9.192,20.704,24.896002,eccentric,4,7.0,195454.0,361944.0,296358.0,347858.0,294780.0
2026-04-14 18:16:29.252378,857312,1609508082848628,5682818390,0.856928,0.222528,0.667584,-6.0025,-4.90875,3.185,-8.392,20.272001,24.584002,eccentric,4,7.0,193541.0,362654.0,293997.0,348581.0,293917.0
2026-04-14 18:16:29.254757,857313,1609508082857777,5682827208,0.856928,0.222528,0.667584,-7.49,-6.965,4.29625,-8.392,20.272001,24.584002,eccentric,4,7.0,193541.0,362654.0,293997.0,348581.0,293917.0
2026-04-14 18:16:29.257660,857314,1609508082872300,5682842207,0.921344,0.177632,0.620736,-7.88375,-9.8175,5.66125,-9.184,20.472,26.808,eccentric,4,7.0,193541.0,362654.0,293997.0,348581.0,293917.0
2026-04-14 18:16:29.262674,857315,1609508082881204,5682850902,0.921344,0.177632,0.620736,-9.17,-12.67875,7.035,-9.184,20.472,26.808,eccentric,4,7.0,193541.0,362654.0,293997.0,348581.0,293917.0
2026-04-14 18:16:29.270171,857316,1609508082890194,5682859618,0.890112,0.216672,0.62464,-11.935,-12.01375,7.49,-10.264001,21.176,26.080002,eccentric,4,7.0,193541.0,362654.0,293997.0,348581.0,293917.0
2026-04-14 18:16:29.284962,857317,1609508082904708,5682874530,0.83936,0.140544,0.544608,-14.18375,-8.715,7.77,-8.696,20.144001,23.920002,eccentric,4,7.0,193541.0,362654.0,293997.0,348581.0,293917.0
2026-04-14 18:16:29.294663,857318,1609508082913680,5682883223,0.83936,0.140544,0.544608,-16.0825,-5.32875,6.9475,-8.696,20.144001,23.920002,eccentric,4,7.0,193541.0,362654.0,293997.0,348581.0,293917.0
2026-04-14 18:16:29.309830,857319,1609508082928332,5682898155,0.89792,0.150304,0.687104,-16.94,-4.4625,7.07875,-8.408,20.36,24.472002,eccentric,4,7.0,193541.0,362654.0,293997.0,348581.0,293917.0
2026-04-14 18:16:29.317648,857320,1609508082937276,5682906895,0.89792,0.150304,0.687104,-14.84875,-6.755,8.00625,-8.408,20.36,24.472002,eccentric,4,7.0,193541.0,362654.0,293997.0,348581.0,293917.0
2026-04-14 18:16:29.352726,857331,1609508082952023,5682921846,0.890112,0.148352,0.757376,-14.69125,-8.84625,9.49375,-8.976001,20.928001,25.792002,eccentric,4,7.0,189888.0,363358.0,289446.0,349187.0,290721.0
2026-04-14 18:16:29.356969,857332,1609508082961167,5682930652,0.890112,0.148352,0.757376,-18.38375,-9.415,11.61125,-8.976001,20.928001,25.792002,eccentric,4,7.0,189888.0,363358.0,289446.0,349187.0,290721.0
2026-04-14 18:16:29.357505,857333,1609508082970187,5682939382,0.843264,0.11712,0.61488,-20.64125,-9.26625,12.50375,-9.024,21.032001,24.912,eccentric,4,7.0,189888.0,363358.0,289446.0,349187.0,290721.0
2026-04-14 18:16:29.364637,857334,1609508082984753,5682954281,0.872544,0.052704,0.632448,-20.51,-7.42,12.94125,-9.024,21.032001,21.824001,eccentric,4,7.0,189888.0,363358.0,289446.0,349187.0,290721.0
2026-04-14 18:16:29.375097,857335,1609508082993682,5682962964,0.872544,0.052704,0.632448,-21.035,-6.3,13.9475,-8.696,21.136002,21.824001,eccentric,4,7.0,189888.0,363358.0,289446.0,349187.0,290721.0
2026-04-14 18:16:29.388556,857336,1609508083008192,5682977984,0.786656,0.113216,0.618784,-18.52375,-6.92125,15.33875,-8.184,20.832,23.608002,eccentric,4,7.0,189888.0,363358.0,289446.0,349187.0,290721.0
2026-04-14 18:16:29.398869,857337,1609508083017146,5682986708,0.786656,0.113216,0.618784,-14.7,-9.5025,16.14375,-8.184,20.832,23.608002,eccentric,4,7.0,189888.0,363358.0,289446.0,349187.0,290721.0
2026-04-14 18:16:29.406020,857338,1609508083026053,5682995396,0.841312,0.0976,0.685152,-15.190001,-12.3025,16.91375,-8.624001,21.072,24.52,eccentric,4,7.0,189888.0,363358.0,289446.0,349187.0,290721.0
2026-04-14 18:16:29.420934,857339,1609508083040574,5683010356,0.841312,0.0976,0.685152,-16.17,-13.34375,17.84125,-8.624001,21.072,24.52,eccentric,4,7.0,189888.0,363358.0,289446.0,349187.0,290721.0
2026-04-14 18:16:29.497651,857350,1609508083050013,5683019384,0.749568,0.105408,0.59536,-16.26625,-13.50125,17.3075,-7.696001,20.688002,24.248001,eccentric,4,7.0,184167.0,363869.0,282344.0,349643.0,285609.0
2026-04-14 18:16:29.500168,857351,1609508083064912,5683034422,0.749568,0.042944,0.61488,-17.4825,-13.55375,16.975,-7.696001,20.688002,24.248001,eccentric,4,7.0,184167.0,363869.0,282344.0,349643.0,285609.0
2026-04-14 18:16:29.502735,857352,1609508083073871,5683043161,0.802272,0.033184,0.61488,-18.29625,-13.965,16.38,-7.688,21.216002,23.064001,eccentric,4,7.0,184167.0,363869.0,282344.0,349643.0,285609.0
2026-04-14 18:16:29.504662,857353,1609508083082767,5683051887,0.802272,0.033184,0.61488,-17.52625,-16.31,16.45875,-7.688,21.216002,23.064001,eccentric,4,7.0,184167.0,363869.0,282344.0,349643.0,285609.0
2026-04-14 18:16:29.507042,857354,1609508083097240,5683066774,0.782752,-0.015616,0.603168,-14.20125,-19.8275,17.36875,-7.544,20.896002,23.224,eccentric,4,7.0,184167.0,363869.0,282344.0,349643.0,285609.0
2026-04-14 18:16:29.510085,857355,1609508083106137,5683075448,0.67344,0.081984,0.394304,-9.14375,-22.4,17.12375,-7.496,21.696001,22.936,eccentric,4,7.0,184167.0,363869.0,282344.0,349643.0,285609.0
2026-04-14 18:16:29.512574,857356,1609508083120691,5683090427,0.67344,0.081984,0.394304,-5.08375,-23.24875,16.05625,-7.496,21.696001,22.936,eccentric,4,7.0,184167.0,363869.0,282344.0,349643.0,285609.0
2026-04-14 18:16:29.514999,857357,1609508083129742,5683099156,0.700768,0.060512,0.503616,-8.74125,-22.04125,14.3325,-7.504,21.240002,22.856,eccentric,4,7.0,184167.0,363869.0,282344.0,349643.0,285609.0
2026-04-14 18:16:29.526417,857358,1609508083144299,5683114060,0.700768,0.060512,0.503616,-10.70125,-20.78125,13.13375,-7.504,21.240002,22.856,eccentric,4,7.0,184167.0,363869.0,282344.0,349643.0,285609.0
