pc_time,serial_num,sensor_ts,host_ts,ax,ay,az,gx,gy,gz,mx,my,mz,phase,rpe,weight_kg,ppg_a,ppg_b,ppg_c,ppg_d,ppg_e
2026-04-14 18:16:15.965981,854799,1609508069478041,5669447819,0.778848,0.070272,0.532896,2.1525,10.64,-25.095,-7.032001,21.504002,23.720001,eccentric,4,7.0,172735.0,356129.0,270410.0,343873.0,276399.0
2026-04-14 18:16:15.968150,854800,1609508069487045,5669456551,0.710528,0.113216,0.581696,4.01625,9.66875,-23.77375,-8.088,21.608002,27.024002,eccentric,4,7.0,172735.0,356129.0,270410.0,343873.0,276399.0
2026-04-14 18:16:15.970743,854801,1609508069501592,5669471458,0.714432,0.1952,0.57584,5.43375,8.07625,-22.95125,-8.240001,21.376001,25.216002,eccentric,4,7.0,172735.0,356129.0,270410.0,343873.0,276399.0
2026-04-14 18:16:15.973219,854802,1609508069510625,5669480170,0.714432,0.1952,0.57584,7.1225,7.16625,-23.1,-8.240001,21.376001,25.216002,eccentric,4,7.0,172735.0,356129.0,270410.0,343873.0,276399.0
2026-04-14 18:16:15.975577,854803,1609508069525137,5669495189,0.806176,0.144448,0.638304,6.2125,6.0375,-24.66625,-8.424001,21.328001,23.928001,eccentric,4,7.0,172735.0,356129.0,270410.0,343873.0,276399.0
2026-04-14 18:16:15.978417,854804,1609508069534077,5669503889,0.806176,0.144448,0.638304,5.81875,5.04875,-26.81,-8.424001,21.328001,23.928001,eccentric,4,7.0,172735.0,356129.0,270410.0,343873.0,276399.0
2026-04-14 18:16:15.980822,854805,1609508069548563,5669518770,0.749568,0.189344,0.562176,6.2825,4.2525,-27.67625,-7.944,21.088001,23.848001,eccentric,4,7.0,172735.0,356129.0,270410.0,343873.0,276399.0
2026-04-14 18:16:15.983394,854806,1609508069557495,5669527443,0.749568,0.189344,0.562176,8.225,4.3575,-27.51,-7.944,21.088001,23.848001,eccentric,4,7.0,172735.0,356129.0,270410.0,343873.0,276399.0
2026-04-14 18:16:15.986014,854807,1609508069566442,5669536165,0.794464,0.169824,0.460672,5.145,4.68125,-27.9475,-8.088,21.136002,21.984001,eccentric,4,7.0,172735.0,356129.0,270410.0,343873.0,276399.0
2026-04-14 18:16:16.014577,854818,1609508069581058,5669551312,0.776896,0.15616,0.445056,-0.21875,4.06,-26.99375,-8.056001,20.944,23.408,eccentric,4,7.0,174945.0,355802.0,272804.0,343410.0,277946.0
2026-04-14 18:16:16.024874,854819,1609508069590020,5669560116,0.776896,0.15616,0.445056,-1.23375,1.00625,-26.04875,-8.056001,20.944,23.408,eccentric,4,7.0,174945.0,355802.0,272804.0,343410.0,277946.0
2026-04-14 18:16:16.026283,854820,1609508069604552,5669572982,0.860832,0.119072,0.534848,1.3825,-2.19625,-24.605,-8.392,20.720001,24.088001,eccentric,4,7.0,174945.0,355802.0,272804.0,343410.0,277946.0
2026-04-14 18:16:16.026373,854821,1609508069613967,5669583753,0.860832,0.119072,0.534848,3.745,-4.69875,-22.82,-8.392,20.720001,24.088001,eccentric,4,7.0,174945.0,355802.0,272804.0,343410.0,277946.0
2026-04-14 18:16:16.026431,854822,1609508069623036,5669592554,0.894016,0.148352,0.56608,4.97,-6.4575,-20.86875,-9.096001,20.912,24.272001,eccentric,4,7.0,174945.0,355802.0,272804.0,343410.0,277946.0
2026-04-14 18:16:16.028334,854823,1609508069637606,5669607664,0.894016,0.148352,0.56608,4.48875,-7.77,-18.54125,-9.096001,20.912,24.272001,eccentric,4,7.0,174945.0,355802.0,272804.0,343410.0,277946.0
2026-04-14 18:16:16.030938,854824,1609508069646614,5669616414,0.831552,0.203008,0.538752,1.21625,-8.015,-16.7475,-9.048,20.824001,24.080002,eccentric,4,7.0,174945.0,355802.0,272804.0,343410.0,277946.0
2026-04-14 18:16:16.042100,854825,1609508069661169,5669631301,0.89792,0.16592,0.581696,-3.71875,-7.1925,-16.38875,-9.096001,20.848001,23.568,eccentric,4,7.0,174945.0,355802.0,272804.0,343410.0,277946.0
2026-04-14 18:16:16.053164,854826,1609508069670139,5669639987,0.89792,0.16592,0.581696,-5.5825,-6.83375,-17.43,-9.096001,20.848001,23.568,eccentric,4,7.0,174945.0,355802.0,272804.0,343410.0,277946.0
2026-04-14 18:16:16.080905,854837,1609508069684735,5669654977,0.874496,0.15616,0.523136,-3.2025,-6.4925,-18.655,-9.360001,21.2,24.888,eccentric,4,7.0,173489.0,355332.0,271021.0,343111.0,276740.0
2026-04-14 18:16:16.083487,854838,1609508069693721,5669663911,0.874496,0.15616,0.523136,-0.20125,-5.71375,-18.0075,-9.360001,21.2,24.888,eccentric,4,7.0,173489.0,355332.0,271021.0,343111.0,276740.0
2026-04-14 18:16:16.086183,854839,1609508069702726,5669672605,0.915488,0.152256,0.767136,-1.40875,-5.04875,-13.71125,-10.448001,21.400002,24.976002,eccentric,4,7.0,173489.0,355332.0,271021.0,343111.0,276740.0
2026-04-14 18:16:16.114674,854840,1609508069717212,5669687540,0.915488,0.152256,0.767136,-2.58125,-2.94,-10.5875,-10.448001,21.400002,24.976002,eccentric,4,7.0,173489.0,355332.0,271021.0,343111.0,276740.0
2026-04-14 18:16:16.117099,854841,1609508069726108,5669696226,0.938912,0.20496,0.636352,-4.4275,-0.14,-9.49375,-9.992001,21.168001,24.04,eccentric,4,7.0,173489.0,355332.0,271021.0,343111.0,276740.0
2026-04-14 18:16:16.119554,854842,1609508069740558,5669709042,0.94672,0.17568,0.530944,-6.90375,2.345,-10.045,-9.992001,21.192001,22.584002,eccentric,4,7.0,173489.0,355332.0,271021.0,343111.0,276740.0
2026-04-14 18:16:16.133396,854843,1609508069749926,5669719807,0.94672,0.17568,0.530944,-6.93875,3.745,-11.20875,-9.744,21.192001,22.584002,eccentric,4,7.0,173489.0,355332.0,271021.0,343111.0,276740.0
2026-04-14 18:16:16.138475,854844,1609508069758871,5669728513,0.94672,0.17568,0.530944,-4.9525,3.15,-11.76875,-9.744,21.192001,22.584002,eccentric,4,7.0,173489.0,355332.0,271021.0,343111.0,276740.0
2026-04-14 18:16:16.179744,854855,1609508069773478,5669743355,1.030656,0.113216,0.648064,-3.1675,1.65375,-9.52875,-10.488001,21.984001,24.624,eccentric,4,7.0,175534.0,356133.0,273542.0,343789.0,278524.0
2026-04-14 18:16:16.184768,854856,1609508069782608,5669752109,0.968192,0.191296,0.655872,-4.92625,1.47,-4.8125,-9.584001,21.304,25.920002,eccentric,4,7.0,175534.0,356133.0,273542.0,343789.0,278524.0
2026-04-14 18:16:16.185275,854857,1609508069797120,5669767033,0.968192,0.191296,0.655872,-7.04375,3.115,-2.58125,-9.584001,21.304,25.920002,eccentric,4,7.0,175534.0,356133.0,273542.0,343789.0,278524.0
2026-04-14 18:16:16.186995,854858,1609508069806100,5669775755,1.011136,0.240096,0.767136,-7.455,4.76875,-2.695,-9.592,21.312,24.064001,eccentric,4,7.0,175534.0,356133.0,273542.0,343789.0,278524.0
2026-04-14 18:16:16.194904,854859,1609508069815193,5669784459,1.011136,0.240096,0.767136,-6.86875,3.7975,-4.1475,-9.592,21.312,24.064001,eccentric,4,7.0,175534.0,356133.0,273542.0,343789.0,278524.0
2026-04-14 18:16:16.209908,854860,1609508069829625,5669799391,0.962336,0.244,0.700768,-4.375,1.68,-5.88,-9.656,21.856,24.008001,eccentric,4,7.0,175534.0,356133.0,273542.0,343789.0,278524.0
2026-04-14 18:16:16.237135,854861,1609508069838553,5669808060,0.962336,0.244,0.700768,-2.87,-1.95125,-6.01125,-9.656,21.856,24.008001,eccentric,4,7.0,175534.0,356133.0,273542.0,343789.0,278524.0
2026-04-14 18:16:16.259668,854862,1609508069853078,5669822966,1.071648,0.191296,0.71248,-3.5525,-4.76,-4.43625,-9.608001,21.496,24.704,eccentric,4,7.0,175534.0,356133.0,273542.0,343789.0,278524.0
2026-04-14 18:16:16.262003,854863,1609508069862043,5669831659,1.013088,0.281088,0.876448,-6.65875,-6.30875,-3.66625,-9.76,21.704,23.816002,eccentric,4,7.0,175534.0,356133.0,273542.0,343789.0,278524.0
2026-04-14 18:16:16.289337,854874,1609508069876642,5669846597,1.013088,0.281088,0.876448,-7.65625,-6.0725,-4.15625,-9.76,21.704,23.816002,eccentric,4,7.0,175095.0,355958.0,272502.0,343447.0,277366.0
2026-04-14 18:16:16.292384,854875,1609508069885806,5669855412,0.960384,0.226432,0.655872,-6.0725,-5.145,-5.71375,-10.208,21.920002,24.816002,eccentric,4,7.0,175095.0,355958.0,272502.0,343447.0,277366.0
2026-04-14 18:16:16.294944,854876,1609508069894834,5669864111,0.960384,0.226432,0.655872,-1.39125,-5.99375,-6.11625,-10.208,21.920002,24.816002,eccentric,4,7.0,175095.0,355958.0,272502.0,343447.0,277366.0
2026-04-14 18:16:16.297338,854877,1609508069909351,5669879036,1.052128,0.21472,0.640256,3.0275,-6.825,-6.46625,-11.160001,22.168001,24.784,eccentric,4,7.0,175095.0,355958.0,272502.0,343447.0,277366.0
2026-04-14 18:16:16.302453,854878,1609508069918305,5669887799,1.052128,0.21472,0.640256,-1.00625,-7.2975,-5.425,-11.160001,22.168001,24.784,eccentric,4,7.0,175095.0,355958.0,272502.0,343447.0,277366.0
2026-04-14 18:16:16.312456,854879,1609508069932986,5669902769,0.989664,0.247904,0.774944,-9.7475,-6.23875,-3.6575,-11.128,22.320002,24.840002,eccentric,4,7.0,175095.0,355958.0,272502.0,343447.0,277366.0
2026-04-14 18:16:16.322034,854880,1609508069941910,5669911458,1.065792,0.251808,0.833504,-13.58,-3.50875,-3.59625,-10.048,21.872002,23.296001,eccentric,4,7.0,175095.0,355958.0,272502.0,343447.0,277366.0
2026-04-14 18:16:16.337145,854881,1609508069956516,5669926346,1.065792,0.251808,0.833504,-12.43375,-1.54,-4.66375,-10.048,21.872002,23.296001,eccentric,4,7.0,175095.0,355958.0,272502.0,343447.0,277366.0
2026-04-14 18:16:16.346795,854882,1609508069965511,5669935028,1.050176,0.150304,0.581696,-8.4,-0.72625,-5.55625,-10.504001,21.784,24.336,eccentric,4,7.0,175095.0,355958.0,272502.0,343447.0,277366.0
2026-04-14 18:16:16.353384,854883,1609508069974488,5669943798,1.050176,0.150304,0.581696,-5.425,-2.1,-4.10375,-10.504001,21.784,24.336,eccentric,4,7.0,175095.0,355958.0,272502.0,343447.0,277366.0
2026-04-14 18:16:16.380936,854894,1609508069989068,5669958746,1.05408,0.230336,0.866688,-4.87375,-3.3775,-2.1175,-10.248,21.696001,23.704,eccentric,4,7.0,174911.0,355620.0,272339.0,343070.0,277630.0
2026-04-14 18:16:16.383384,854895,1609508069997984,5669967440,1.05408,0.230336,0.866688,-6.475,-3.17625,-1.61875,-10.248,21.696001,23.704,eccentric,4,7.0,174911.0,355620.0,272339.0,343070.0,277630.0
2026-04-14 18:16:16.393819,854896,1609508070012565,5669982373,0.954528,0.210816,0.687104,-8.82875,-1.98625,-1.89,-9.944,21.968,23.464,eccentric,4,7.0,174911.0,355620.0,272339.0,343070.0,277630.0
2026-04-14 18:16:16.403178,854897,1609508070021616,5669991161,0.954528,0.210816,0.61488,-8.015,-1.25125,-2.98375,-9.944,21.968,23.464,eccentric,4,7.0,174911.0,355620.0,272339.0,343070.0,277630.0
2026-04-14 18:16:16.410085,854898,1609508070030569,5669999963,1.040416,0.122976,0.61488,-6.685,-0.6475,-3.84125,-10.064,21.976002,23.488,eccentric,4,7.0,174911.0,355620.0,272339.0,343070.0,277630.0
2026-04-14 18:16:16.426317,854899,1609508070045188,5670015001,1.061888,0.11712,0.6832,-4.2,-2.21375,-1.47875,-9.856001,21.816002,23.208,eccentric,4,7.0,174911.0,355620.0,272339.0,343070.0,277630.0
2026-04-14 18:16:16.435075,854900,1609508070054322,5670023709,1.061888,0.11712,0.6832,-3.0625,-3.01875,1.6975,-9.856001,21.816002,23.208,eccentric,4,7.0,174911.0,355620.0,272339.0,343070.0,277630.0
2026-04-14 18:16:16.455053,854901,1609508070068790,5670038619,1.042368,0.152256,0.69296,-3.43,-3.49125,4.0075,-10.808001,21.984001,24.696001,eccentric,4,7.0,174911.0,355620.0,272339.0,343070.0,277630.0
2026-04-14 18:16:16.482253,854912,1609508070077902,5670047402,1.042368,0.152256,0.69296,-4.2525,-3.675,5.11875,-10.808001,21.984001,24.696001,eccentric,4,7.0,175458.0,354829.0,273299.0,342486.0,278976.0
2026-04-14 18:16:16.484669,854913,1609508070086893,5670056135,0.997472,0.16592,0.700768,-3.0275,-2.54625,4.83,-10.616,21.944,24.448002,eccentric,4,7.0,175458.0,354829.0,273299.0,342486.0,278976.0
2026-04-14 18:16:16.486958,854914,1609508070101573,5670071097,0.997472,0.16592,0.700768,-1.04125,-1.77625,4.1475,-10.616,21.944,24.448002,eccentric,4,7.0,175458.0,354829.0,273299.0,342486.0,278976.0
2026-04-14 18:16:16.489529,854915,1609508070110592,5670079815,0.981856,0.1464,0.755424,-0.5775,-1.75875,4.1125,-10.784,21.800001,25.752,eccentric,4,7.0,175458.0,354829.0,273299.0,342486.0,278976.0
2026-04-14 18:16:16.504355,854916,1609508070125123,5670094719,0.972096,0.171776,0.735904,-0.7175,-2.6425,3.99875,-9.456,21.240002,23.192001,eccentric,4,7.0,175458.0,354829.0,273299.0,342486.0,278976.0
2026-04-14 18:16:16.514580,854917,1609508070134092,5670103427,0.972096,0.171776,0.735904,0.16625,-3.43,5.71375,-9.456,21.240002,23.192001,eccentric,4,7.0,175458.0,354829.0,273299.0,342486.0,278976.0
2026-04-14 18:16:16.528373,854918,1609508070148599,5670118398,0.88816,0.169824,0.534848,-2.51125,-4.90875,7.63,-9.864,21.400002,23.592001,eccentric,4,7.0,175458.0,354829.0,273299.0,342486.0,278976.0
2026-04-14 18:16:16.538300,854919,1609508070157523,5670127081,0.88816,0.169824,0.534848,-5.31125,-4.9,9.59875,-9.864,21.400002,23.592001,eccentric,4,7.0,175458.0,354829.0,273299.0,342486.0,278976.0
2026-04-14 18:16:16.546043,854920,1609508070166511,5670135776,0.856928,0.210816,0.677344,-5.67,-3.35125,9.79125,-9.528001,21.720001,24.496,eccentric,4,7.0,175458.0,354829.0,273299.0,342486.0,278976.0
2026-04-14 18:16:16.648489,854931,1609508070181183,5670150754,0.856928,0.210816,0.677344,-8.74125,-2.19625,9.1875,-9.528001,21.720001,24.496,eccentric,4,7.0,175382.0,354709.0,273368.0,342468.0,279103.0
2026-04-14 18:16:16.651092,854932,1609508070190239,5670159518,0.9272,0.142496,0.603168,-10.6575,-1.3475,9.135,-11.016001,22.272001,25.376001,eccentric,4,7.0,175382.0,354709.0,273368.0,342468.0,279103.0
2026-04-14 18:16:16.653297,854933,1609508070204847,5670174435,0.884256,0.10736,0.49776,-11.2875,-1.44375,9.24875,-10.632001,22.184002,25.624,eccentric,4,7.0,175382.0,354709.0,273368.0,342468.0,279103.0
2026-04-14 18:16:16.657515,854934,1609508070213935,5670183135,0.884256,0.10736,0.49776,-12.25,-3.395,10.52625,-10.632001,22.184002,25.624,eccentric,4,7.0,175382.0,354709.0,273368.0,342468.0,279103.0
2026-04-14 18:16:16.658171,854935,1609508070222874,5670191842,0.884256,0.10736,0.64416,-11.66375,-4.78625,12.90625,-10.632001,22.184002,25.624,eccentric,4,7.0,175382.0,354709.0,273368.0,342468.0,279103.0
2026-04-14 18:16:16.665005,854936,1609508070237484,5670206756,0.892064,0.132736,0.64416,-11.78625,-5.565,15.47875,-10.472,21.880001,25.080002,eccentric,4,7.0,175382.0,354709.0,273368.0,342468.0,279103.0
2026-04-14 18:16:16.665123,854937,1609508070246458,5670215468,0.835456,0.132736,0.491904,-13.32625,-5.5825,17.15875,-9.88,21.848001,24.240002,eccentric,4,7.0,175382.0,354709.0,273368.0,342468.0,279103.0
2026-04-14 18:16:16.668141,854938,1609508070260916,5670230366,0.835456,0.132736,0.491904,-14.88375,-5.775,17.82375,-9.88,21.848001,24.240002,eccentric,4,7.0,175382.0,354709.0,273368.0,342468.0,279103.0
2026-04-14 18:16:16.670837,854939,1609508070269844,5670239065,0.767136,0.160064,0.488,-15.11125,-6.25625,16.765,-9.672001,21.936,24.224,eccentric,4,7.0,175382.0,354709.0,273368.0,342468.0,279103.0
2026-04-14 18:16:16.698479,854950,1609508070284522,5670254054,0.726144,0.140544,0.450912,-14.41125,-7.665,15.00625,-9.176001,21.752,23.704,eccentric,4,7.0,172407.0,354984.0,269818.0,342877.0,276242.0
2026-04-14 18:16:16.701035,854951,1609508070293525,5670262812,0.726144,0.140544,0.450912,-13.9825,-8.68875,13.6325,-9.176001,21.752,23.704,eccentric,4,7.0,172407.0,354984.0,269818.0,342877.0,276242.0
2026-04-14 18:16:16.703254,854952,1609508070302485,5670271585,0.726144,0.140544,0.450912,-14.02625,-9.415,13.1425,-9.176001,21.752,23.704,eccentric,4,7.0,172407.0,354984.0,269818.0,342877.0,276242.0
2026-04-14 18:16:16.705877,854953,1609508070317043,5670286609,0.745664,0.044896,0.388448,-16.625,-10.00125,14.83125,-9.280001,22.032001,20.232,eccentric,4,7.0,172407.0,354984.0,269818.0,342877.0,276242.0
2026-04-14 18:16:16.708556,854954,1609508070326005,5670295327,0.720288,0.083936,0.386496,-18.41,-9.695,17.82375,-8.392,21.568,22.080002,eccentric,4,7.0,172407.0,354984.0,269818.0,342877.0,276242.0
2026-04-14 18:16:16.720978,854955,1609508070340514,5670310285,0.720288,0.083936,0.386496,-16.8525,-9.2225,19.635,-8.392,21.568,22.080002,eccentric,4,7.0,172407.0,354984.0,269818.0,342877.0,276242.0
2026-04-14 18:16:16.752138,854956,1609508070349447,5670318990,0.6832,0.154208,0.509472,-14.945,-8.5925,19.5475,-8.112,22.312,22.176,eccentric,4,7.0,172407.0,354984.0,269818.0,342877.0,276242.0
2026-04-14 18:16:16.754507,854957,1609508070363967,5670333888,0.6832,0.02928,0.396256,-13.4225,-8.37375,19.075,-8.112,22.312,22.176,eccentric,4,7.0,172407.0,354984.0,269818.0,342877.0,276242.0
2026-04-14 18:16:16.757907,854958,1609508070372939,5670342589,0.724192,0.023424,0.396256,-12.8975,-8.3125,17.85,-8.944,22.44,24.472002,eccentric,4,7.0,172407.0,354984.0,269818.0,342877.0,276242.0
2026-04-14 18:16:16.787025,854969,1609508070382133,5670351354,0.724192,0.023424,0.396256,-14.595,-9.24875,18.05125,-8.944,22.44,24.472002,eccentric,4,7.0,164528.0,354401.0,260344.0,342700.0,268267.0
2026-04-14 18:16:16.789499,854970,1609508070396742,5670366307,0.745664,0.001952,0.488,-14.761251,-10.10625,19.1975,-9.536,22.776001,23.856,eccentric,4,7.0,164528.0,354401.0,260344.0,342700.0,268267.0
2026-04-14 18:16:16.791973,854971,1609508070405837,5670375037,0.642208,0.052704,0.396256,-13.58875,-10.3775,20.9825,-9.328,22.848001,23.464,eccentric,4,7.0,164528.0,354401.0,260344.0,342700.0,268267.0
2026-04-14 18:16:16.800096,854972,1609508070420328,5670390154,0.642208,0.052704,0.396256,-13.18625,-10.386251,21.76125,-9.328,22.848001,23.464,eccentric,4,7.0,164528.0,354401.0,260344.0,342700.0,268267.0
2026-04-14 18:16:16.808820,854973,1609508070429276,5670398851,0.618784,0.046848,0.374784,-12.8975,-9.765,22.11125,-7.272,22.416,22.112001,eccentric,4,7.0,164528.0,354401.0,260344.0,342700.0,268267.0
2026-04-14 18:16:16.818839,854974,1609508070438219,5670407543,0.618784,0.046848,0.374784,-12.25,-9.30125,21.49875,-7.272,22.416,22.112001,eccentric,4,7.0,164528.0,354401.0,260344.0,342700.0,268267.0
2026-04-14 18:16:16.835087,854975,1609508070452837,5670422494,0.638304,0.013664,0.347456,-11.83875,-9.31,20.64125,-7.128,22.408,22.224,eccentric,4,7.0,164528.0,354401.0,260344.0,342700.0,268267.0
2026-04-14 18:16:16.841009,854976,1609508070461814,5670431200,0.638304,0.013664,0.347456,-10.64,-9.82625,19.32875,-7.128,22.408,22.224,eccentric,4,7.0,164528.0,354401.0,260344.0,342700.0,268267.0
2026-04-14 18:16:16.857796,854977,1609508070476323,5670446085,0.581696,0.011712,0.347456,-7.88375,-10.6575,18.31375,-7.248,22.728,22.704,concentric,4,7.0,164528.0,354401.0,260344.0,342700.0,268267.0
2026-04-14 18:16:16.886960,854988,1609508070485312,5670454864,0.579744,-0.01952,0.267424,-7.18375,-10.6225,17.08,-7.872,23.392,22.192001,concentric,4,7.0,151858.0,351906.0,245394.0,341058.0,254839.0
2026-04-14 18:16:16.889960,854989,1609508070499858,5670469818,0.579744,-0.01952,0.267424,-8.14625,-9.87,16.73875,-7.872,23.392,22.192001,concentric,4,7.0,151858.0,351906.0,245394.0,341058.0,254839.0
2026-04-14 18:16:16.892567,854990,1609508070508796,5670478500,0.54656,-0.031232,0.279136,-9.765,-8.95125,16.9575,-7.8,23.064001,21.344002,concentric,4,7.0,151858.0,351906.0,245394.0,341058.0,254839.0
2026-04-14 18:16:16.897234,854991,1609508070517750,5670487211,0.54656,-0.031232,0.279136,-9.61625,-7.6475,17.01,-7.8,23.064001,21.344002,concentric,4,7.0,151858.0,351906.0,245394.0,341058.0,254839.0
2026-04-14 18:16:16.913568,854992,1609508070532256,5670502125,0.622688,-0.001952,0.392352,-6.2475,-7.49875,17.36,-6.76,22.848001,21.76,concentric,4,7.0,151858.0,351906.0,245394.0,341058.0,254839.0
2026-04-14 18:16:16.920835,854993,1609508070541166,5670510835,0.622688,-0.001952,0.392352,-3.7975,-8.295,15.2075,-6.76,22.848001,21.76,concentric,4,7.0,151858.0,351906.0,245394.0,341058.0,254839.0
2026-04-14 18:16:16.940442,854994,1609508070555719,5670525720,0.65392,-0.007808,0.275232,-4.27,-10.045,13.02,-6.36,22.6,21.432001,concentric,4,7.0,151858.0,351906.0,245394.0,341058.0,254839.0
2026-04-14 18:16:16.946052,854995,1609508070564649,5670534492,0.65392,-0.007808,0.275232,-6.2475,-13.32625,12.6525,-6.36,22.6,21.432001,concentric,4,7.0,151858.0,351906.0,245394.0,341058.0,254839.0
2026-04-14 18:16:17.017609,855006,1609508070579539,5670549920,0.552416,-0.052704,0.245952,-11.34875,-15.8375,12.0225,-6.432,22.720001,21.720001,concentric,4,7.0,146180.0,348653.0,239468.0,338622.0,249412.0
2026-04-14 18:16:17.019787,855007,1609508070588583,5670558672,0.538752,-0.046848,0.454816,-12.7575,-14.70875,11.89125,-6.392,22.704,21.472,concentric,4,7.0,146180.0,348653.0,239468.0,338622.0,249412.0
2026-04-14 18:16:17.024184,855008,1609508070597531,5670567450,0.538752,-0.046848,0.454816,-11.24375,-10.70125,11.2525,-6.392,22.704,21.472,concentric,4,7.0,146180.0,348653.0,239468.0,338622.0,249412.0
2026-04-14 18:16:17.024527,855009,1609508070612048,5670580426,0.579744,-0.0488,0.415776,-5.85375,-6.81625,10.17625,-6.224001,22.592001,21.424002,concentric,4,7.0,146180.0,348653.0,239468.0,338622.0,249412.0
2026-04-14 18:16:17.027024,855010,1609508070621232,5670591276,0.579744,-0.0488,0.415776,0.6125,-3.78875,8.9775,-6.224001,22.592001,21.424002,concentric,4,7.0,146180.0,348653.0,239468.0,338622.0,249412.0
2026-04-14 18:16:17.030126,855011,1609508070635797,5670604170,0.474336,-0.033184,0.230336,2.59,-2.1875,9.31875,-6.216,22.656,21.264002,concentric,4,7.0,146180.0,348653.0,239468.0,338622.0,249412.0
2026-04-14 18:16:17.034478,855012,1609508070645007,5670614932,0.474336,-0.033184,0.230336,0.5775,-2.61625,12.69625,-6.216,22.656,21.264002,concentric,4,7.0,146180.0,348653.0,239468.0,338622.0,249412.0
2026-04-14 18:16:17.034564,855013,1609508070653972,5670623595,0.47824,-0.076128,0.17568,-3.15,-3.0275,17.14125,-5.888001,22.736002,21.464,concentric,4,7.0,146180.0,348653.0,239468.0,338622.0,249412.0
2026-04-14 18:16:17.049451,855014,1609508070668554,5670638503,0.491904,-0.072224,0.193248,-6.5975,-3.36,21.2275,-5.664,23.448002,21.792002,concentric,4,7.0,146180.0,348653.0,239468.0,338622.0,249412.0
2026-04-14 18:16:17.058859,855015,1609508070677619,5670647388,0.491904,-0.072224,0.193248,-4.97,-4.2875,24.43,-5.664,23.448002,21.792002,concentric,4,7.0,146180.0,348653.0,239468.0,338622.0,249412.0
2026-04-14 18:16:17.086196,855026,1609508070692186,5670662439,0.474336,0.007808,0.343552,1.89,-5.11,25.165,-6.544,23.352001,21.384,concentric,4,7.0,138028.0,340841.0,230138.0,332096.0,240608.0
2026-04-14 18:16:17.093832,855027,1609508070701156,5670671141,0.474336,0.007808,0.343552,7.7175,-5.90625,23.24875,-6.544,23.352001,21.384,concentric,4,7.0,138028.0,340841.0,230138.0,332096.0,240608.0
2026-04-14 18:16:17.096310,855028,1609508070710153,5670679892,0.591456,-0.013664,0.411872,9.44125,-7.14,22.12,-6.4,22.632002,21.264002,concentric,4,7.0,138028.0,340841.0,230138.0,332096.0,240608.0
2026-04-14 18:16:17.107568,855029,1609508070724686,5670694839,0.591456,-0.013664,0.411872,8.98625,-8.1025,20.86875,-6.4,22.632002,21.264002,concentric,4,7.0,138028.0,340841.0,230138.0,332096.0,240608.0
2026-04-14 18:16:17.113838,855030,1609508070733714,5670703579,0.609024,-0.01952,0.460672,7.00875,-9.47625,19.0575,-5.392,22.656,20.888,concentric,4,7.0,138028.0,340841.0,230138.0,332096.0,240608.0
2026-04-14 18:16:17.130667,855031,1609508070748264,5670718510,0.550464,-0.050752,0.265472,5.0925,-10.77125,17.66625,-5.456,22.832,22.2,concentric,4,7.0,138028.0,340841.0,230138.0,332096.0,240608.0
2026-04-14 18:16:17.136830,855032,1609508070757204,5670727184,0.550464,-0.050752,0.265472,3.47375,-11.095,16.63375,-5.456,22.832,22.2,concentric,4,7.0,138028.0,340841.0,230138.0,332096.0,240608.0
2026-04-14 18:16:17.147491,855033,1609508070766252,5670735882,0.550464,-0.050752,0.265472,3.6225,-10.815,14.51625,-5.456,22.832,22.2,concentric,4,7.0,138028.0,340841.0,230138.0,332096.0,240608.0
2026-04-14 18:16:17.183837,855044,1609508070781324,5670750990,0.60512,-0.025376,0.3416,4.17375,-9.905,11.445,-5.888001,22.792002,23.536001,concentric,4,7.0,129929.0,338712.0,220087.0,330252.0,230557.0
2026-04-14 18:16:17.186294,855045,1609508070790332,5670759728,0.632448,-0.007808,0.462624,2.40625,-10.12375,8.1025,-5.664,22.808,21.216002,concentric,4,7.0,129929.0,338712.0,220087.0,330252.0,230557.0
2026-04-14 18:16:17.188347,855046,1609508070804911,5670774733,0.632448,-0.007808,0.462624,-2.345,-9.93125,5.36375,-5.664,22.808,21.216002,concentric,4,7.0,129929.0,338712.0,220087.0,330252.0,230557.0
2026-04-14 18:16:17.196337,855047,1609508070813926,5670783440,0.691008,-0.101504,0.404064,-6.65875,-9.66875,3.77125,-5.096,22.608002,21.712002,concentric,4,7.0,129929.0,338712.0,220087.0,330252.0,230557.0
2026-04-14 18:16:17.202708,855048,1609508070822956,5670792116,0.691008,-0.101504,0.404064,-7.875,-9.5725,2.87875,-5.096,22.608002,21.712002,concentric,4,7.0,129929.0,338712.0,220087.0,330252.0,230557.0
2026-04-14 18:16:17.218826,855049,1609508070837510,5670806987,0.650016,-0.111264,0.316224,-4.9525,-8.96,2.26625,-5.768,22.776001,21.192001,concentric,4,7.0,129929.0,338712.0,220087.0,330252.0,230557.0
2026-04-14 18:16:17.224677,855050,1609508070846551,5670815694,0.650016,-0.111264,0.316224,0.81375,-7.14,2.2575,-5.768,22.776001,21.192001,concentric,4,7.0,129929.0,338712.0,220087.0,330252.0,230557.0
2026-04-14 18:16:17.241250,855051,1609508070861055,5670830833,0.728096,-0.046848,0.534848,3.24625,-5.3375,1.33875,-5.096,22.872002,21.432001,concentric,4,7.0,129929.0,338712.0,220087.0,330252.0,230557.0
2026-04-14 18:16:17.249992,855052,1609508070869975,5670839514,0.77104,-0.099552,0.355264,-0.2275,-4.90875,0.55125,-5.568,23.2,22.256,concentric,4,7.0,129929.0,338712.0,220087.0,330252.0,230557.0
2026-04-14 18:16:17.285087,855063,1609508070884895,5670854463,0.77104,-0.099552,0.355264,-5.08375,-4.75125,1.4175,-5.568,23.2,22.256,concentric,4,7.0,125192.0,339029.0,214163.0,330430.0,224958.0
2026-04-14 18:16:17.287024,855064,1609508070894006,5670863280,0.74176,-0.093696,0.355264,-8.81125,-4.94375,1.82875,-6.232,23.584002,21.84,concentric,4,7.0,125192.0,339029.0,214163.0,330430.0,224958.0
2026-04-14 18:16:17.289520,855065,1609508070903030,5670872022,0.74176,-0.093696,0.355264,-9.38,-5.85375,1.015,-6.232,23.584002,21.84,concentric,4,7.0,125192.0,339029.0,214163.0,330430.0,224958.0
2026-04-14 18:16:17.296359,855066,1609508070917744,5670886967,0.733952,-0.076128,0.474336,-7.13125,-7.28875,0.56,-6.08,22.776001,21.216002,concentric,4,7.0,125192.0,339029.0,214163.0,330430.0,224958.0
2026-04-14 18:16:17.308904,855067,1609508070926811,5670895694,0.733952,-0.076128,0.474336,-3.08875,-8.11125,-0.105,-6.08,22.776001,21.216002,concentric,4,7.0,125192.0,339029.0,214163.0,330430.0,224958.0
2026-04-14 18:16:17.352357,855068,1609508070941291,5670910625,0.755424,-0.05856,0.491904,-1.4,-8.37375,-1.1375,-5.56,22.784,19.496,concentric,4,7.0,125192.0,339029.0,214163.0,330430.0,224958.0
2026-04-14 18:16:17.363685,855069,1609508070950189,5670919326,0.75152,-0.099552,0.304512,-3.0275,-8.60125,-1.6975,-6.552001,23.560001,22.992,concentric,4,7.0,125192.0,339029.0,214163.0,330430.0,224958.0
2026-04-14 18:16:17.365976,855070,1609508070959105,5670927984,0.75152,-0.099552,0.304512,-3.57,-9.3625,-1.96,-6.552001,23.560001,22.992,concentric,4,7.0,125192.0,339029.0,214163.0,330430.0,224958.0
2026-04-14 18:16:17.393881,855071,1609508070973595,5670942889,0.77104,-0.130784,0.304512,-2.1525,-10.71875,-1.51375,-7.472,23.536001,23.352001,concentric,4,7.0,125192.0,339029.0,214163.0,330430.0,224958.0
2026-04-14 18:16:17.423425,855082,1609508070982670,5670952072,0.77104,-0.130784,0.304512,-1.16375,-11.3575,-1.1375,-7.472,23.536001,23.352001,concentric,4,7.0,125701.0,339294.0,214834.0,330633.0,225723.0
2026-04-14 18:16:17.426256,855083,1609508070997252,5670967007,0.739808,-0.085888,0.398208,-1.5575,-11.4275,0.11375,-7.656,23.344002,22.44,concentric,4,7.0,125701.0,339294.0,214834.0,330633.0,225723.0
2026-04-14 18:16:17.428790,855084,1609508071006189,5670975706,0.739808,-0.085888,0.398208,-2.52,-10.14125,2.14375,-7.656,23.344002,22.44,concentric,4,7.0,125701.0,339294.0,214834.0,330633.0,225723.0
2026-04-14 18:16:17.431209,855085,1609508071015121,5670984443,0.833504,-0.095648,0.406016,-3.36,-8.3475,2.93125,-6.592001,23.240002,23.888,concentric,4,7.0,125701.0,339294.0,214834.0,330633.0,225723.0
2026-04-14 18:16:17.433300,855086,1609508071029745,5670999435,0.860832,-0.122976,0.54656,-4.025,-6.34375,2.47625,-6.608,23.2,21.512001,concentric,4,7.0,125701.0,339294.0,214834.0,330633.0,225723.0
2026-04-14 18:16:17.435955,855087,1609508071038715,5671008236,0.860832,-0.122976,0.54656,-3.29,-4.865,2.59875,-6.608,23.2,21.512001,concentric,4,7.0,125701.0,339294.0,214834.0,330633.0,225723.0
2026-04-14 18:16:17.438749,855088,1609508071053209,5671023191,0.81008,-0.130784,0.347456,-1.855,-3.56125,3.73625,-6.504,23.424002,22.160002,concentric,4,7.0,125701.0,339294.0,214834.0,330633.0,225723.0
2026-04-14 18:16:17.442506,855089,1609508071062147,5671031884,0.81008,-0.130784,0.347456,-2.1875,-1.91625,4.69875,-6.504,23.424002,22.160002,concentric,4,7.0,125701.0,339294.0,214834.0,330633.0,225723.0
2026-04-14 18:16:17.458739,855090,1609508071076730,5671046789,0.759328,-0.015616,0.493856,-3.94625,-0.21875,5.3725,-6.144,22.992,22.184002,concentric,4,7.0,125701.0,339294.0,214834.0,330633.0,225723.0
2026-04-14 18:16:17.485978,855101,1609508071085826,5671055565,0.759328,-0.015616,0.493856,-5.2675,1.7675,4.13875,-6.144,22.992,22.184002,concentric,4,7.0,126132.0,338014.0,215510.0,329817.0,226283.0
2026-04-14 18:16:17.488855,855102,1609508071095047,5671064321,0.792512,-0.089792,0.329888,-7.21875,3.68375,2.44125,-6.776001,23.128,21.296001,concentric,4,7.0,126132.0,338014.0,215510.0,329817.0,226283.0
2026-04-14 18:16:17.491338,855103,1609508071109587,5671079315,0.74176,-0.089792,0.345504,-7.945,3.71,0.4375,-5.576,23.000002,21.048,concentric,4,7.0,126132.0,338014.0,215510.0,329817.0,226283.0
2026-04-14 18:16:17.499666,855104,1609508071118539,5671088025,0.74176,-0.089792,0.345504,-6.93,2.40625,-0.84,-5.576,23.000002,21.048,concentric,4,7.0,126132.0,338014.0,215510.0,329817.0,226283.0
2026-04-14 18:16:17.514892,855105,1609508071133068,5671102959,0.778848,-0.054656,0.443104,-8.1025,1.33875,-0.9975,-5.592001,23.320002,21.400002,concentric,4,7.0,126132.0,338014.0,215510.0,329817.0,226283.0
2026-04-14 18:16:17.522255,855106,1609508071142070,5671111662,0.778848,-0.054656,0.443104,-11.89125,0.91,-1.19875,-5.592001,23.320002,21.400002,concentric,4,7.0,126132.0,338014.0,215510.0,329817.0,226283.0
2026-04-14 18:16:17.532438,855107,1609508071151001,5671120388,0.757376,-0.07808,0.33184,-16.8,0.0,-1.19875,-6.672,24.080002,23.056002,concentric,4,7.0,126132.0,338014.0,215510.0,329817.0,226283.0
2026-04-14 18:16:17.546307,855108,1609508071165508,5671135429,0.757376,-0.07808,0.33184,-20.04625,0.525,-1.7325,-6.672,24.080002,23.056002,concentric,4,7.0,126132.0,338014.0,215510.0,329817.0,226283.0
2026-04-14 18:16:17.556323,855109,1609508071174459,5671144156,0.854976,-0.130784,0.474336,-18.43625,1.16375,-2.77375,-6.24,23.808,21.144001,concentric,4,7.0,126132.0,338014.0,215510.0,329817.0,226283.0
2026-04-14 18:16:17.587129,855120,1609508071189049,5671159429,0.854976,-0.130784,0.376736,-14.13125,1.84625,-4.64625,-6.24,23.808,21.144001,concentric,4,7.0,128030.0,340598.0,217740.0,331963.0,228485.0
2026-04-14 18:16:17.592364,855121,1609508071198064,5671168135,0.843264,-0.160064,0.376736,-13.57125,1.6975,-5.17125,-7.464,24.264002,23.608002,concentric,4,7.0,128030.0,340598.0,217740.0,331963.0,228485.0
2026-04-14 18:16:17.592736,855122,1609508071212583,5671180986,0.786656,-0.111264,0.482144,-13.79,1.155,-4.19125,-6.84,23.696001,21.856,concentric,4,7.0,128030.0,340598.0,217740.0,331963.0,228485.0
2026-04-14 18:16:17.602589,855123,1609508071221864,5671191787,0.786656,-0.111264,0.482144,-15.2775,0.88375,-3.71,-6.84,23.696001,21.856,concentric,4,7.0,128030.0,340598.0,217740.0,331963.0,228485.0
2026-04-14 18:16:17.611174,855124,1609508071230805,5671200495,0.815936,-0.163968,0.345504,-15.49625,0.53375,-3.15,-6.256001,24.096,22.752,concentric,4,7.0,128030.0,340598.0,217740.0,331963.0,228485.0
2026-04-14 18:16:17.626236,855125,1609508071245456,5671215389,0.815936,-0.163968,0.345504,-14.21875,0.88375,-2.8875,-6.256001,24.096,22.752,concentric,4,7.0,128030.0,340598.0,217740.0,331963.0,228485.0
2026-04-14 18:16:17.633387,855126,1609508071254408,5671224071,0.825696,-0.154208,0.3904,-12.7225,1.155,-3.0975,-5.664,24.248001,21.216002,concentric,4,7.0,128030.0,340598.0,217740.0,331963.0,228485.0
2026-04-14 18:16:17.650129,855127,1609508071268984,5671238960,0.825696,-0.154208,0.3904,-9.44125,1.2075,-3.99,-5.664,24.248001,21.216002,concentric,4,7.0,128030.0,340598.0,217740.0,331963.0,228485.0
2026-04-14 18:16:17.660061,855128,1609508071277931,5671247653,0.837408,-0.148352,0.466528,-7.1575,1.2075,-4.82125,-6.376,24.2,21.168001,concentric,4,7.0,128030.0,340598.0,217740.0,331963.0,228485.0
2026-04-14 18:16:17.737185,855139,1609508071287025,5671256424,0.837408,-0.148352,0.466528,-7.2625,0.93625,-5.845,-6.376,24.2,21.168001,concentric,4,7.0,126087.0,340479.0,215431.0,331883.0,226326.0
2026-04-14 18:16:17.740137,855140,1609508071301586,5671271365,0.837408,-0.163968,0.437248,-6.475,0.46375,-6.3525,-6.6,23.768002,20.464,concentric,4,7.0,126087.0,340479.0,215431.0,331883.0,226326.0
2026-04-14 18:16:17.742619,855141,1609508071310658,5671280094,0.774944,-0.150304,0.3416,-5.7225,0.6825,-7.20125,-5.648,24.04,20.800001,concentric,4,7.0,126087.0,340479.0,215431.0,331883.0,226326.0
2026-04-14 18:16:17.745016,855142,1609508071325133,5671294992,0.774944,-0.150304,0.3416,-5.41625,1.3825,-7.49875,-5.648,24.04,20.800001,concentric,4,7.0,126087.0,340479.0,215431.0,331883.0,226326.0
2026-04-14 18:16:17.747284,855143,1609508071334097,5671303744,0.804224,-0.160064,0.452864,-5.6,2.065,-8.295,-5.712,23.920002,20.256,concentric,4,7.0,126087.0,340479.0,215431.0,331883.0,226326.0
2026-04-14 18:16:17.750101,855144,1609508071348605,5671318648,0.804224,-0.160064,0.452864,-4.05125,3.7975,-9.03,-5.712,23.920002,20.256,concentric,4,7.0,126087.0,340479.0,215431.0,331883.0,226326.0
2026-04-14 18:16:17.752706,855145,1609508071357566,5671327337,0.794464,-0.12688,0.480192,-0.6125,4.83,-10.05375,-5.704001,24.28,20.136002,concentric,4,7.0,126087.0,340479.0,215431.0,331883.0,226326.0
2026-04-14 18:16:17.755095,855146,1609508071366562,5671336060,0.794464,-0.12688,0.480192,3.0275,4.68125,-11.31375,-5.704001,24.28,20.136002,concentric,4,7.0,126087.0,340479.0,215431.0,331883.0,226326.0
2026-04-14 18:16:17.760875,855147,1609508071381103,5671350997,0.70272,-0.12688,0.300608,5.38125,4.17375,-11.66375,-5.664,23.6,20.168001,concentric,4,7.0,126087.0,340479.0,215431.0,331883.0,226326.0
2026-04-14 18:16:17.789602,855158,1609508071390055,5671359783,0.70272,-0.12688,0.300608,5.74875,3.64,-11.7775,-5.664,23.6,20.168001,concentric,4,7.0,127990.0,340636.0,217909.0,332156.0,228880.0
2026-04-14 18:16:17.790638,855159,1609508071404575,5671374759,0.774944,-0.130784,0.534848,3.84125,3.3775,-11.01625,-7.848001,24.368002,19.784,concentric,4,7.0,127990.0,340636.0,217909.0,332156.0,228880.0
2026-04-14 18:16:17.793334,855160,1609508071413535,5671383472,0.724192,-0.11712,0.398208,2.49375,3.73625,-10.85875,-6.736001,24.152,21.776001,concentric,4,7.0,127990.0,340636.0,217909.0,332156.0,228880.0
2026-04-14 18:16:17.812130,855161,1609508071428067,5671398384,0.724192,-0.11712,0.398208,2.6075,4.935,-10.29875,-6.736001,24.152,21.776001,concentric,4,7.0,127990.0,340636.0,217909.0,332156.0,228880.0
2026-04-14 18:16:17.818241,855162,1609508071437056,5671407103,0.655872,-0.081984,0.41968,3.2025,6.335,-9.03,-5.84,23.624,20.6,concentric,4,7.0,127990.0,340636.0,217909.0,332156.0,228880.0
2026-04-14 18:16:17.825929,855163,1609508071446171,5671415802,0.655872,-0.081984,0.41968,2.12625,7.3325,-8.47875,-5.84,23.624,20.6,concentric,4,7.0,127990.0,340636.0,217909.0,332156.0,228880.0
2026-04-14 18:16:17.841095,855164,1609508071460884,5671430719,0.728096,-0.103456,0.45872,1.3825,7.1925,-7.37625,-6.6,23.880001,21.880001,concentric,4,7.0,127990.0,340636.0,217909.0,332156.0,228880.0
2026-04-14 18:16:17.849736,855165,1609508071469857,5671439407,0.728096,-0.103456,0.45872,1.855,5.705,-7.105,-6.6,23.880001,21.880001,concentric,4,7.0,127990.0,340636.0,217909.0,332156.0,228880.0
2026-04-14 18:16:17.887004,855176,1609508071484653,5671455013,0.728096,-0.08784,0.443104,3.0625,3.115,-8.00625,-6.544,23.792002,20.68,concentric,4,7.0,129208.0,340722.0,219422.0,332522.0,230361.0
2026-04-14 18:16:17.889556,855177,1609508071493702,5671463730,0.677344,-0.042944,0.50752,4.095,0.28875,-9.37125,-6.728,23.976002,21.704,concentric,4,7.0,129208.0,340722.0,219422.0,332522.0,230361.0
2026-04-14 18:16:17.892139,855178,1609508071502647,5671472612,0.677344,-0.042944,0.50752,3.89375,-1.46125,-11.5675,-6.728,23.976002,21.704,concentric,4,7.0,129208.0,340722.0,219422.0,332522.0,230361.0
2026-04-14 18:16:17.897136,855179,1609508071517189,5671487574,0.708576,-0.083936,0.37088,3.15875,-1.61,-13.06375,-7.144001,23.848001,21.84,concentric,4,7.0,129208.0,340722.0,219422.0,332522.0,230361.0
2026-04-14 18:16:17.908470,855180,1609508071526236,5671496357,0.708576,-0.083936,0.37088,2.7125,-0.70875,-14.761251,-7.144001,23.848001,21.84,concentric,4,7.0,129208.0,340722.0,219422.0,332522.0,230361.0
2026-04-14 18:16:17.919778,855181,1609508071540732,5671509186,0.757376,-0.12688,0.427488,1.89875,0.18375,-16.24,-6.256001,23.472002,21.640001,concentric,4,7.0,129208.0,340722.0,219422.0,332522.0,230361.0
2026-04-14 18:16:17.929638,855182,1609508071550064,5671519979,0.757376,-0.12688,0.427488,0.84875,0.3325,-16.3625,-6.256001,23.472002,21.640001,concentric,4,7.0,129208.0,340722.0,219422.0,332522.0,230361.0
2026-04-14 18:16:17.938532,855183,1609508071559122,5671528707,0.671488,-0.124928,0.294752,1.1375,-0.30625,-16.28375,-6.472,23.12,18.728,concentric,4,7.0,129208.0,340722.0,219422.0,332522.0,230361.0
2026-04-14 18:16:17.954782,855184,1609508071573668,5671543607,0.730048,-0.0976,0.347456,2.8,-0.74375,-17.0975,-7.136,23.032001,20.384,concentric,4,7.0,129208.0,340722.0,219422.0,332522.0,230361.0
2026-04-14 18:16:17.964393,855185,1609508071582598,5671552386,0.730048,-0.0976,0.347456,5.425,-0.23625,-17.17625,-7.136,23.032001,20.384,concentric,4,7.0,129208.0,340722.0,219422.0,332522.0,230361.0
2026-04-14 18:16:17.990991,855196,1609508071597265,5671567469,0.76128,-0.089792,0.44896,8.0325,0.97125,-16.49375,-6.304,23.456001,21.048,concentric,4,7.0,129041.0,339641.0,219013.0,331926.0,229969.0
2026-04-14 18:16:17.993331,855197,1609508071606220,5671576183,0.76128,-0.089792,0.44896,9.87,2.0475,-16.1875,-6.304,23.456001,21.048,concentric,4,7.0,129041.0,339641.0,219013.0,331926.0,229969.0
2026-04-14 18:16:17.996024,855198,1609508071615169,5671584941,0.737856,-0.095648,0.427488,9.44125,3.0275,-15.12,-6.864,23.008001,21.192001,concentric,4,7.0,129041.0,339641.0,219013.0,331926.0,229969.0
2026-04-14 18:16:18.034782,855199,1609508071629683,5671599854,0.737856,-0.095648,0.427488,6.95625,4.585,-14.46375,-6.864,23.008001,21.192001,concentric,4,7.0,129041.0,339641.0,219013.0,331926.0,229969.0
2026-04-14 18:16:18.037217,855200,1609508071638596,5671608559,0.62464,-0.044896,0.308416,6.16,6.06375,-14.5775,-7.016,22.992,22.016,concentric,4,7.0,129041.0,339641.0,219013.0,331926.0,229969.0
2026-04-14 18:16:18.039706,855201,1609508071653093,5671623433,0.735904,-0.013664,0.421632,7.14,6.08125,-13.72875,-7.808001,22.768002,22.304,concentric,4,7.0,129041.0,339641.0,219013.0,331926.0,229969.0
2026-04-14 18:16:18.042269,855202,1609508071662043,5671632159,0.735904,-0.013664,0.421632,11.235,5.8975,-12.2325,-7.808001,22.768002,22.304,concentric,4,7.0,129041.0,339641.0,219013.0,331926.0,229969.0
2026-04-14 18:16:18.083914,855203,1609508071676564,5671645001,0.679296,-0.027328,0.27328,13.79,4.08625,-10.56125,-7.024,22.544,21.080002,concentric,4,7.0,129041.0,339641.0,219013.0,331926.0,229969.0
2026-04-14 18:16:18.125074,855214,1609508071686491,5671656090,0.679296,-0.027328,0.27328,14.1575,3.64,-8.84625,-7.024,22.544,21.080002,concentric,4,7.0,132592.0,339252.0,223372.0,331780.0,234146.0
2026-04-14 18:16:18.127568,855215,1609508071695510,5671664775,0.675392,-0.050752,0.31232,10.8675,4.48875,-8.75,-6.752,22.232,21.52,concentric,4,7.0,132592.0,339252.0,223372.0,331780.0,234146.0
2026-04-14 18:16:18.130070,855216,1609508071710015,5671679689,0.675392,-0.050752,0.31232,6.5975,5.6,-10.08875,-6.752,22.232,21.52,concentric,4,7.0,132592.0,339252.0,223372.0,331780.0,234146.0
2026-04-14 18:16:18.137104,855217,1609508071718971,5671688460,0.71248,0.01952,0.47824,4.445,6.67625,-11.08625,-6.76,22.264002,21.752,concentric,4,7.0,132592.0,339252.0,223372.0,331780.0,234146.0
2026-04-14 18:16:18.140070,855218,1609508071733507,5671703430,0.714432,-0.040992,0.404064,7.63,8.56625,-9.625,-6.768,22.480001,20.464,concentric,4,7.0,132592.0,339252.0,223372.0,331780.0,234146.0
2026-04-14 18:16:18.142576,855219,1609508071742736,5671712158,0.714432,-0.040992,0.404064,8.5575,9.205,-8.25125,-6.768,22.480001,20.464,concentric,4,7.0,132592.0,339252.0,223372.0,331780.0,234146.0
2026-04-14 18:16:18.145069,855220,1609508071751750,5671720844,0.714432,-0.040992,0.404064,4.19125,10.15875,-5.6175,-6.768,22.480001,20.464,concentric,4,7.0,132592.0,339252.0,223372.0,331780.0,234146.0
2026-04-14 18:16:18.147581,855221,1609508071766280,5671735799,0.698816,-0.05856,0.308416,1.02375,10.91125,-3.24625,-7.168,22.144001,22.928001,concentric,4,7.0,132592.0,339252.0,223372.0,331780.0,234146.0
2026-04-14 18:16:18.154714,855222,1609508071775199,5671744498,0.685152,0.02928,0.525088,2.86125,10.40375,-4.2175,-6.704001,22.256,22.824001,concentric,4,7.0,132592.0,339252.0,223372.0,331780.0,234146.0
2026-04-14 18:16:18.189653,855233,1609508071790046,5671759412,0.685152,0.02928,0.525088,7.455,9.82625,-5.425,-6.704001,22.256,22.824001,concentric,4,7.0,132204.0,337754.0,222957.0,330371.0,233708.0
2026-04-14 18:16:18.192582,855234,1609508071799095,5671768202,0.579744,0.046848,0.384544,8.7325,10.325,-6.85125,-6.712,22.496,21.960001,concentric,4,7.0,132204.0,337754.0,222957.0,330371.0,233708.0
2026-04-14 18:16:18.195116,855235,1609508071808068,5671776908,0.579744,0.046848,0.384544,4.78625,10.99875,-6.825,-6.712,22.496,21.960001,concentric,4,7.0,132204.0,337754.0,222957.0,330371.0,233708.0
2026-04-14 18:16:18.202619,855236,1609508071822615,5671791829,0.65392,0.003904,0.407968,2.31875,13.1425,-6.65,-6.688,22.000002,22.712002,concentric,4,7.0,132204.0,337754.0,222957.0,330371.0,233708.0
2026-04-14 18:16:18.210936,855237,1609508071831565,5671800513,0.65392,0.003904,0.407968,-0.945,14.07,-6.92125,-6.688,22.000002,22.712002,concentric,4,7.0,132204.0,337754.0,222957.0,330371.0,233708.0
2026-04-14 18:16:18.226369,855238,1609508071846063,5671815487,0.689056,-0.011712,0.511424,-2.7825,14.69125,-6.895,-6.872,22.400002,21.04,concentric,4,7.0,132204.0,337754.0,222957.0,330371.0,233708.0
2026-04-14 18:16:18.233850,855239,1609508071854987,5671824201,0.609024,0.031232,0.480192,-1.0325,14.4025,-7.18375,-7.488,22.416,23.176,concentric,4,7.0,132204.0,337754.0,222957.0,330371.0,233708.0
2026-04-14 18:16:18.253297,855240,1609508071869480,5671839119,0.609024,0.031232,0.480192,1.05875,14.23625,-8.47875,-7.488,22.416,23.176,concentric,4,7.0,132204.0,337754.0,222957.0,330371.0,233708.0
2026-04-14 18:16:18.258352,855241,1609508071878445,5671847814,0.67344,0.017568,0.513376,0.27125,14.93625,-9.45875,-6.608,22.416,21.920002,concentric,4,7.0,132204.0,337754.0,222957.0,330371.0,233708.0
2026-04-14 18:16:18.290866,855252,1609508071887817,5671856634,0.67344,0.017568,0.513376,-0.2275,16.2925,-9.1,-6.608,22.416,21.920002,concentric,4,7.0,134492.0,337304.0,225603.0,329877.0,236222.0
2026-04-14 18:16:18.293821,855253,1609508071902431,5671871645,0.694912,-0.017568,0.413824,2.66875,17.38625,-9.14375,-6.704001,21.992,22.312,concentric,4,7.0,134492.0,337304.0,225603.0,329877.0,236222.0
2026-04-14 18:16:18.296359,855254,1609508071911494,5671880341,0.694912,-0.017568,0.413824,3.325,18.0075,-8.56625,-6.704001,21.992,22.312,concentric,4,7.0,134492.0,337304.0,225603.0,329877.0,236222.0
2026-04-14 18:16:18.306337,855255,1609508071926075,5671895302,0.67344,-0.01952,0.347456,1.365,16.94875,-8.1025,-6.176,22.448002,22.04,concentric,4,7.0,134492.0,337304.0,225603.0,329877.0,236222.0
2026-04-14 18:16:18.313747,855256,1609508071934980,5671904120,0.661728,0.03904,0.378688,-1.015,16.17,-8.82875,-6.168,22.44,22.208,concentric,4,7.0,134492.0,337304.0,225603.0,329877.0,236222.0
2026-04-14 18:16:18.323821,855257,1609508071943913,5671912822,0.661728,0.03904,0.378688,-0.1225,16.905,-10.15,-6.168,22.44,22.208,concentric,4,7.0,134492.0,337304.0,225603.0,329877.0,236222.0
2026-04-14 18:16:18.339811,855258,1609508071958557,5671927662,0.632448,0.01952,0.337696,2.17,18.366251,-12.25875,-7.096,22.512001,22.392,concentric,4,7.0,134492.0,337304.0,225603.0,329877.0,236222.0
2026-04-14 18:16:18.345844,855259,1609508071967497,5671936363,0.632448,0.01952,0.337696,3.1675,19.10125,-11.865,-7.096,22.512001,22.392,concentric,4,7.0,134492.0,337304.0,225603.0,329877.0,236222.0
2026-04-14 18:16:18.361563,855260,1609508071982015,5671951271,0.632448,0.0,0.402112,4.10375,19.88,-9.56375,-6.136,22.544,22.104002,concentric,4,7.0,134492.0,337304.0,225603.0,329877.0,236222.0
2026-04-14 18:16:18.392929,855271,1609508071991088,5671960213,0.632448,0.0,0.402112,2.68625,19.73125,-7.2975,-6.136,22.544,22.104002,concentric,4,7.0,138114.0,339617.0,229989.0,331990.0,240492.0
2026-04-14 18:16:18.395014,855272,1609508072000138,5671969042,0.691008,0.040992,0.528992,0.53375,19.0925,-6.09,-6.88,22.44,23.672,concentric,4,7.0,138114.0,339617.0,229989.0,331990.0,240492.0
2026-04-14 18:16:18.397191,855273,1609508072014750,5671983984,0.675392,0.08784,0.583648,-0.07,17.77125,-5.2325,-6.88,22.44,22.712002,concentric,4,7.0,138114.0,339617.0,229989.0,331990.0,240492.0
2026-04-14 18:16:18.403294,855274,1609508072023688,5671992695,0.671488,0.08784,0.583648,2.52,15.365,-5.38125,-6.944,22.920002,22.712002,concentric,4,7.0,138114.0,339617.0,229989.0,331990.0,240492.0
2026-04-14 18:16:18.440664,855275,1609508072038195,5672007694,0.730048,0.025376,0.65392,3.71,14.23625,-5.0575,-5.952,22.536001,22.376001,concentric,4,7.0,138114.0,339617.0,229989.0,331990.0,240492.0
2026-04-14 18:16:18.464944,855276,1609508072047178,5672016387,0.730048,0.025376,0.65392,1.56625,14.91875,-4.03375,-5.952,22.536001,22.376001,concentric,4,7.0,138114.0,339617.0,229989.0,331990.0,240492.0
2026-04-14 18:16:18.467427,855277,1609508072061700,5672031290,0.772992,0.03904,0.642208,-1.40875,15.12875,-3.57875,-6.936,22.816002,22.816002,concentric,4,7.0,138114.0,339617.0,229989.0,331990.0,240492.0
2026-04-14 18:16:18.469675,855278,1609508072070750,5672040046,0.772992,0.03904,0.642208,-1.09375,14.11375,-4.87375,-6.936,22.816002,22.816002,concentric,4,7.0,138114.0,339617.0,229989.0,331990.0,240492.0
2026-04-14 18:16:18.472563,855279,1609508072079690,5672048833,0.708576,0.080032,0.62464,1.44375,13.06375,-7.1225,-5.872,22.6,22.776001,concentric,4,7.0,138114.0,339617.0,229989.0,331990.0,240492.0
2026-04-14 18:16:18.500096,855290,1609508072094491,5672063776,0.708576,0.080032,0.62464,0.72625,12.4775,-9.8175,-5.872,22.6,22.776001,concentric,4,7.0,142656.0,345623.0,235332.0,337030.0,245495.0
2026-04-14 18:16:18.502617,855291,1609508072103611,5672072721,0.714432,0.033184,0.618784,-0.98875,13.43125,-11.5675,-6.048,23.04,22.984001,concentric,4,7.0,142656.0,345623.0,235332.0,337030.0,245495.0
2026-04-14 18:16:18.505114,855292,1609508072118137,5672087679,0.812032,-0.02928,0.607072,-3.99875,14.2275,-11.80375,-5.624,22.648,22.728,concentric,4,7.0,142656.0,345623.0,235332.0,337030.0,245495.0
2026-04-14 18:16:18.507581,855293,1609508072127068,5672096377,0.812032,-0.02928,0.607072,-4.71625,13.99125,-11.03375,-5.624,22.648,22.728,concentric,4,7.0,142656.0,345623.0,235332.0,337030.0,245495.0
2026-04-14 18:16:18.516065,855294,1609508072135985,5672105119,0.806176,0.003904,0.523136,-2.9925,12.81875,-10.36,-6.112001,22.872002,23.160002,concentric,4,7.0,142656.0,345623.0,235332.0,337030.0,245495.0
2026-04-14 18:16:18.531055,855295,1609508072150496,5672120106,0.806176,0.003904,0.523136,1.715,11.1475,-11.76,-6.112001,22.872002,23.160002,concentric,4,7.0,142656.0,345623.0,235332.0,337030.0,245495.0
2026-04-14 18:16:18.538244,855296,1609508072159461,5672128828,0.782752,0.01952,0.609024,5.2325,9.16125,-13.43125,-6.352,22.576,23.144001,concentric,4,7.0,142656.0,345623.0,235332.0,337030.0,245495.0
