pc_time,serial_num,sensor_ts,host_ts,ax,ay,az,gx,gy,gz,mx,my,mz,phase,rpe,weight_kg,ppg_a,ppg_b,ppg_c,ppg_d,ppg_e
2026-04-14 18:16:24.372248,856386,1609508077921902,5677891373,0.778848,0.050752,0.499712,-14.9275,-9.40625,14.5775,-8.232,21.552002,22.304,concentric,4,7.0,155200.0,352085.0,248696.0,342074.0,257795.0
2026-04-14 18:16:24.374553,856387,1609508077936473,5677906280,0.792512,0.027328,0.482144,-16.31,-7.84,15.12875,-8.064,21.416,23.480001,concentric,4,7.0,155200.0,352085.0,248696.0,342074.0,257795.0
2026-04-14 18:16:24.379850,856388,1609508077945409,5677914993,0.792512,0.027328,0.482144,-14.8575,-5.90625,16.51125,-8.064,21.416,23.480001,concentric,4,7.0,155200.0,352085.0,248696.0,342074.0,257795.0
2026-04-14 18:16:24.379971,856389,1609508077960086,5677929924,0.835456,0.021472,0.52704,-12.43375,-5.62625,16.89625,-7.024,21.256,22.992,concentric,4,7.0,155200.0,352085.0,248696.0,342074.0,257795.0
2026-04-14 18:16:24.382294,856390,1609508077969011,5677938631,0.835456,0.021472,0.52704,-13.685,-7.21,17.85875,-7.024,21.256,22.992,concentric,4,7.0,155200.0,352085.0,248696.0,342074.0,257795.0
2026-04-14 18:16:24.384983,856391,1609508077978080,5677947467,0.776896,0.021472,0.413824,-14.84875,-9.765,18.3225,-6.968,21.44,23.272001,concentric,4,7.0,155200.0,352085.0,248696.0,342074.0,257795.0
2026-04-14 18:16:24.387018,856392,1609508077992752,5677962535,0.776896,0.023424,0.534848,-14.72625,-12.2675,18.366251,-6.968,21.44,23.272001,concentric,4,7.0,155200.0,352085.0,248696.0,342074.0,257795.0
2026-04-14 18:16:24.389562,856393,1609508078001897,5677971248,0.788608,0.023424,0.534848,-16.09125,-12.60875,18.235,-6.8,21.640001,22.328001,concentric,4,7.0,155200.0,352085.0,248696.0,342074.0,257795.0
2026-04-14 18:16:24.396984,856394,1609508078016417,5677986345,0.769088,0.052704,0.558272,-17.03625,-11.94375,18.85625,-6.696,21.352001,22.584002,concentric,4,7.0,155200.0,352085.0,248696.0,342074.0,257795.0
2026-04-14 18:16:24.449655,856405,1609508078025713,5677995155,0.769088,0.052704,0.558272,-19.775,-11.55,19.460001,-6.696,21.352001,22.584002,concentric,4,7.0,147719.0,347643.0,240324.0,338217.0,249818.0
2026-04-14 18:16:24.452662,856406,1609508078034679,5678003909,0.691008,0.054656,0.36112,-23.10875,-12.3025,20.01125,-6.568,21.976002,23.352001,concentric,4,7.0,147719.0,347643.0,240324.0,338217.0,249818.0
2026-04-14 18:16:24.454724,856407,1609508078049198,5678018789,0.691008,0.054656,0.36112,-27.25625,-13.58,20.3875,-6.568,21.976002,23.352001,concentric,4,7.0,147719.0,347643.0,240324.0,338217.0,249818.0
2026-04-14 18:16:24.457604,856408,1609508078058138,5678027532,0.745664,0.01952,0.540704,-30.54625,-15.37375,20.265,-6.28,22.232,22.392,concentric,4,7.0,147719.0,347643.0,240324.0,338217.0,249818.0
2026-04-14 18:16:24.459632,856409,1609508078072915,5678042508,0.745664,0.01952,0.540704,-29.89,-17.325,19.3375,-6.28,22.232,22.392,concentric,4,7.0,147719.0,347643.0,240324.0,338217.0,249818.0
2026-04-14 18:16:24.462597,856410,1609508078081915,5678051224,0.689056,0.003904,0.333792,-26.7225,-18.85625,17.03625,-6.6,22.632002,21.952002,concentric,4,7.0,147719.0,347643.0,240324.0,338217.0,249818.0
2026-04-14 18:16:24.472777,856411,1609508078091071,5678059901,0.689056,0.003904,0.333792,-24.14125,-18.655,14.4375,-6.6,22.632002,21.952002,concentric,4,7.0,147719.0,347643.0,240324.0,338217.0,249818.0
2026-04-14 18:16:24.486329,856412,1609508078105569,5678074920,0.628544,0.0,0.423584,-20.825,-17.29875,12.92375,-6.832,23.104002,23.312,concentric,4,7.0,147719.0,347643.0,240324.0,338217.0,249818.0
2026-04-14 18:16:24.493740,856413,1609508078114509,5678083611,0.61488,-0.083936,0.288896,-18.585001,-16.0825,12.9325,-7.328001,22.984001,22.904001,concentric,4,7.0,147719.0,347643.0,240324.0,338217.0,249818.0
2026-04-14 18:16:24.523941,856424,1609508078129495,5678098678,0.61488,-0.083936,0.288896,-19.39875,-14.79625,14.533751,-7.328001,22.984001,22.904001,concentric,4,7.0,150993.0,347451.0,244682.0,337491.0,252683.0
2026-04-14 18:16:24.526301,856425,1609508078138435,5678107433,0.56608,-0.062464,0.28304,-20.20375,-13.11625,17.395,-7.016,22.624,21.696001,concentric,4,7.0,150993.0,347451.0,244682.0,337491.0,252683.0
2026-04-14 18:16:24.528935,856426,1609508078147383,5678116144,0.56608,-0.062464,0.28304,-19.11875,-10.71,19.2325,-7.016,22.624,21.696001,concentric,4,7.0,150993.0,347451.0,244682.0,337491.0,252683.0
2026-04-14 18:16:24.543930,856427,1609508078162401,5678131098,0.648064,-0.08784,0.329888,-17.59625,-9.9575,19.460001,-5.896,22.800001,21.576,concentric,4,7.0,150993.0,347451.0,244682.0,337491.0,252683.0
2026-04-14 18:16:24.556758,856428,1609508078171697,5678141852,0.648064,-0.08784,0.329888,-15.79375,-9.68625,19.1275,-5.896,22.800001,21.576,concentric,4,7.0,150993.0,347451.0,244682.0,337491.0,252683.0
2026-04-14 18:16:24.569294,856429,1609508078186232,5678154729,0.577792,-0.052704,0.230336,-13.37,-10.43875,18.20875,-6.152,23.480001,22.160002,concentric,4,7.0,150993.0,347451.0,244682.0,337491.0,252683.0
2026-04-14 18:16:24.577517,856430,1609508078195605,5678165590,0.573888,-0.109312,0.249856,-13.125,-11.375,17.1325,-5.736,23.368002,20.488,concentric,4,7.0,150993.0,347451.0,244682.0,337491.0,252683.0
2026-04-14 18:16:24.587065,856431,1609508078204567,5678174297,0.573888,-0.109312,0.249856,-15.855001,-10.9375,17.36,-5.736,23.368002,20.488,concentric,4,7.0,150993.0,347451.0,244682.0,337491.0,252683.0
2026-04-14 18:16:24.600084,856432,1609508078219099,5678189193,0.548512,-0.093696,0.445056,-16.8525,-8.82,18.97,-6.792,24.000002,21.848001,concentric,4,7.0,150993.0,347451.0,244682.0,337491.0,252683.0
2026-04-14 18:16:24.628881,856443,1609508078228148,5678197942,0.548512,-0.093696,0.445056,-15.5575,-6.62375,20.0025,-6.792,24.000002,21.848001,concentric,4,7.0,145461.0,344010.0,238239.0,334462.0,246533.0
2026-04-14 18:16:24.631439,856444,1609508078242718,5678213037,0.571936,-0.099552,0.359168,-13.67625,-4.34875,20.57125,-5.096,23.112001,21.12,concentric,4,7.0,145461.0,344010.0,238239.0,334462.0,246533.0
2026-04-14 18:16:24.633853,856445,1609508078251656,5678221752,0.571936,-0.099552,0.359168,-11.3575,-2.94875,21.63875,-5.096,23.112001,21.12,concentric,4,7.0,145461.0,344010.0,238239.0,334462.0,246533.0
2026-04-14 18:16:24.640888,856446,1609508078260598,5678230496,0.52704,-0.083936,0.236192,-8.3825,-2.47625,22.63625,-5.136,23.768002,20.792002,concentric,4,7.0,145461.0,344010.0,238239.0,334462.0,246533.0
2026-04-14 18:16:24.655887,856447,1609508078275125,5678245400,0.552416,-0.109312,0.335744,-6.97375,-3.0975,22.8725,-5.032,23.408,22.344002,concentric,4,7.0,145461.0,344010.0,238239.0,334462.0,246533.0
2026-04-14 18:16:24.688556,856448,1609508078284073,5678254142,0.552416,-0.109312,0.335744,-8.9775,-3.61375,24.01,-5.032,23.408,22.344002,concentric,4,7.0,145461.0,344010.0,238239.0,334462.0,246533.0
2026-04-14 18:16:24.691110,856449,1609508078298535,5678266971,0.45872,-0.095648,0.216672,-10.47375,-4.025,25.03375,-5.248,23.976002,21.800001,concentric,4,7.0,145461.0,344010.0,238239.0,334462.0,246533.0
2026-04-14 18:16:24.716130,856450,1609508078307788,5678277725,0.45872,-0.095648,0.216672,-10.815,-4.38375,24.84125,-5.248,23.976002,21.800001,concentric,4,7.0,145461.0,344010.0,238239.0,334462.0,246533.0
2026-04-14 18:16:24.791091,856461,1609508078322401,5678292778,0.49776,-0.111264,0.18544,-10.15875,-4.92625,23.3625,-4.888,24.104002,21.552002,concentric,4,7.0,139172.0,340244.0,230711.0,331020.0,239536.0
2026-04-14 18:16:24.798459,856462,1609508078331462,5678301495,0.49776,-0.111264,0.18544,-6.3,-5.7925,22.4175,-4.888,24.104002,21.552002,concentric,4,7.0,139172.0,340244.0,230711.0,331020.0,239536.0
2026-04-14 18:16:24.801147,856463,1609508078340488,5678310195,0.47824,-0.083936,0.183488,-3.9025,-7.28875,21.49875,-4.88,24.160002,21.608002,concentric,4,7.0,139172.0,340244.0,230711.0,331020.0,239536.0
2026-04-14 18:16:24.803408,856464,1609508078355015,5678325084,0.47824,-0.081984,0.177632,-4.27,-9.135,20.2825,-4.88,24.160002,19.560001,concentric,4,7.0,139172.0,340244.0,230711.0,331020.0,239536.0
2026-04-14 18:16:24.806119,856465,1609508078364091,5678333804,0.511424,-0.081984,0.177632,-7.02625,-10.29,19.495,-4.736,23.984001,19.2,concentric,4,7.0,139172.0,340244.0,230711.0,331020.0,239536.0
2026-04-14 18:16:24.808601,856466,1609508078378579,5678348753,0.52704,-0.074176,0.245952,-10.28125,-11.05125,16.05625,-4.56,24.456001,22.416,concentric,4,7.0,139172.0,340244.0,230711.0,331020.0,239536.0
2026-04-14 18:16:24.811141,856467,1609508078387502,5678357431,0.52704,-0.074176,0.245952,-10.99875,-9.93125,15.190001,-4.56,24.456001,22.416,concentric,4,7.0,139172.0,340244.0,230711.0,331020.0,239536.0
2026-04-14 18:16:24.813604,856468,1609508078396586,5678366170,0.601216,-0.062464,0.47824,-10.57,-9.835,14.41125,-5.504,24.784,19.944,concentric,4,7.0,139172.0,340244.0,230711.0,331020.0,239536.0
2026-04-14 18:16:24.816038,856469,1609508078411214,5678381067,0.601216,-0.062464,0.47824,-9.6775,-9.8,12.17125,-5.504,24.784,19.944,concentric,4,7.0,139172.0,340244.0,230711.0,331020.0,239536.0
2026-04-14 18:16:24.818616,856470,1609508078420174,5678389836,0.648064,-0.115168,0.452864,-12.6,-10.3425,11.62,-5.456,24.888,21.264002,concentric,4,7.0,139172.0,340244.0,230711.0,331020.0,239536.0
2026-04-14 18:16:24.846953,856481,1609508078434786,5678404832,0.648064,-0.115168,0.452864,-15.575,-11.17375,11.57625,-5.456,24.888,21.264002,concentric,4,7.0,138776.0,339771.0,230116.0,330522.0,238997.0
2026-04-14 18:16:24.848274,856482,1609508078443832,5678413533,0.579744,-0.109312,0.298656,-16.9925,-10.99,11.90875,-4.568,24.616001,22.04,concentric,4,7.0,138776.0,339771.0,230116.0,330522.0,238997.0
2026-04-14 18:16:24.850773,856483,1609508078452818,5678422296,0.579744,-0.109312,0.298656,-17.33375,-10.08,11.6725,-4.568,24.616001,22.04,concentric,4,7.0,138776.0,339771.0,230116.0,330522.0,238997.0
2026-04-14 18:16:24.854582,856484,1609508078467481,5678437271,0.630496,-0.083936,0.368928,-16.65125,-8.75875,11.1125,-4.472,24.984001,21.264002,concentric,4,7.0,138776.0,339771.0,230116.0,330522.0,238997.0
2026-04-14 18:16:24.855953,856485,1609508078476535,5678446041,0.708576,-0.1464,0.249856,-12.9675,-9.065,9.89625,-4.392,24.896002,20.224,concentric,4,7.0,138776.0,339771.0,230116.0,330522.0,238997.0
2026-04-14 18:16:24.872182,856486,1609508078491025,5678460967,0.708576,-0.1464,0.249856,-9.625,-11.19125,8.785,-4.392,24.896002,20.224,concentric,4,7.0,138776.0,339771.0,230116.0,330522.0,238997.0
2026-04-14 18:16:24.881014,856487,1609508078499950,5678469685,0.76128,-0.15616,0.415776,-9.02125,-13.09,8.89875,-4.576,25.184002,20.296001,concentric,4,7.0,138776.0,339771.0,230116.0,330522.0,238997.0
2026-04-14 18:16:24.898585,856488,1609508078514592,5678484685,0.76128,-0.15616,0.415776,-12.635,-14.035,9.26625,-4.576,25.184002,20.296001,concentric,4,7.0,138776.0,339771.0,230116.0,330522.0,238997.0
2026-04-14 18:16:24.927654,856499,1609508078523571,5678493892,0.774944,-0.150304,0.564128,-16.6075,-13.15125,9.9575,-3.712,24.800001,20.928001,concentric,4,7.0,136232.0,341631.0,226513.0,331854.0,235576.0
2026-04-14 18:16:24.930153,856500,1609508078532732,5678502724,0.774944,-0.150304,0.564128,-18.235,-11.19125,10.66625,-3.712,24.800001,20.928001,concentric,4,7.0,136232.0,341631.0,226513.0,331854.0,235576.0
2026-04-14 18:16:24.932695,856501,1609508078547385,5678517658,0.732,-0.134688,0.404064,-16.065,-9.415,10.535,-4.8,25.320002,20.696001,concentric,4,7.0,136232.0,341631.0,226513.0,331854.0,235576.0
2026-04-14 18:16:24.940339,856502,1609508078556482,5678526361,0.841312,-0.191296,0.528992,-11.64625,-10.12375,9.59875,-4.8,25.320002,21.912,concentric,4,7.0,136232.0,341631.0,226513.0,331854.0,235576.0
2026-04-14 18:16:24.952042,856503,1609508078571066,5678541295,0.833504,-0.191296,0.528992,-10.5175,-10.5175,8.88125,-4.384,25.352001,21.912,concentric,4,7.0,136232.0,341631.0,226513.0,331854.0,235576.0
2026-04-14 18:16:24.962472,856504,1609508078580042,5678549965,0.732,-0.210816,0.435296,-12.985,-9.2575,9.12625,-3.808,25.304,20.168001,concentric,4,7.0,136232.0,341631.0,226513.0,331854.0,235576.0
2026-04-14 18:16:24.968246,856505,1609508078589068,5678558755,0.732,-0.210816,0.435296,-13.5625,-6.39625,10.07125,-3.808,25.304,20.168001,concentric,4,7.0,136232.0,341631.0,226513.0,331854.0,235576.0
2026-04-14 18:16:24.984605,856506,1609508078603581,5678573657,0.759328,-0.245952,0.275232,-11.83,-3.15,10.0275,-3.744,25.072,20.432001,concentric,4,7.0,136232.0,341631.0,226513.0,331854.0,235576.0
2026-04-14 18:16:24.993457,856507,1609508078612663,5678582383,0.759328,-0.245952,0.275232,-9.8175,-0.76125,10.3775,-3.744,25.072,20.432001,concentric,4,7.0,136232.0,341631.0,226513.0,331854.0,235576.0
2026-04-14 18:16:25.053246,856518,1609508078627486,5678597272,0.757376,-0.226432,0.452864,-8.3125,0.18375,10.325,-3.256,25.552002,19.320002,concentric,4,7.0,127000.0,341088.0,214920.0,331030.0,224715.0
2026-04-14 18:16:25.078483,856519,1609508078636572,5678606086,0.757376,-0.226432,0.359168,-7.20125,0.3325,10.3425,-3.256,25.552002,19.320002,concentric,4,7.0,127000.0,341088.0,214920.0,331030.0,224715.0
2026-04-14 18:16:25.103465,856520,1609508078645590,5678614807,0.716384,-0.222528,0.365024,-6.64125,0.8575,9.6775,-3.216,25.504002,20.144001,concentric,4,7.0,127000.0,341088.0,214920.0,331030.0,224715.0
2026-04-14 18:16:25.106117,856521,1609508078660097,5678629726,0.827648,-0.267424,0.45872,-6.475,2.03,8.5925,-3.264,25.28,19.584002,concentric,4,7.0,127000.0,341088.0,214920.0,331030.0,224715.0
2026-04-14 18:16:25.111134,856522,1609508078669116,5678638437,0.827648,-0.267424,0.45872,-5.4425,3.52625,7.91875,-3.264,25.28,19.584002,concentric,4,7.0,127000.0,341088.0,214920.0,331030.0,224715.0
2026-04-14 18:16:25.116152,856523,1609508078683688,5678653381,0.726144,-0.245952,0.290848,-2.75625,4.76875,7.13125,-3.288,25.28,19.76,concentric,4,7.0,127000.0,341088.0,214920.0,331030.0,224715.0
2026-04-14 18:16:25.118583,856524,1609508078692717,5678662066,0.726144,-0.245952,0.290848,0.805,4.97875,5.71375,-3.288,25.28,19.76,concentric,4,7.0,127000.0,341088.0,214920.0,331030.0,224715.0
2026-04-14 18:16:25.124034,856525,1609508078701633,5678670755,0.730048,-0.25376,0.284992,0.4025,4.795,4.90875,-3.824,25.904001,20.2,concentric,4,7.0,127000.0,341088.0,214920.0,331030.0,224715.0
2026-04-14 18:16:25.124502,856526,1609508078716264,5678685715,0.730048,-0.25376,0.284992,-0.91875,4.4625,4.89125,-3.824,25.904001,20.2,concentric,4,7.0,127000.0,341088.0,214920.0,331030.0,224715.0
2026-04-14 18:16:25.150935,856537,1609508078725769,5678694970,0.76128,-0.238144,0.464576,-0.46375,3.8675,4.095,-3.704,25.68,19.576,concentric,4,7.0,129060.0,344398.0,217360.0,333716.0,227134.0
2026-04-14 18:16:25.153309,856538,1609508078740290,5678709922,0.806176,-0.23424,0.521184,1.4525,3.045,3.2025,-3.688,25.560001,20.52,concentric,4,7.0,129060.0,344398.0,217360.0,333716.0,227134.0
2026-04-14 18:16:25.156039,856539,1609508078749231,5678718723,0.806176,-0.23424,0.521184,4.10375,2.0825,1.44375,-3.688,25.560001,20.52,concentric,4,7.0,129060.0,344398.0,217360.0,333716.0,227134.0
2026-04-14 18:16:25.158550,856540,1609508078763769,5678733708,0.815936,-0.277184,0.316224,5.0575,0.84,1.19,-3.344,25.984001,21.296001,concentric,4,7.0,129060.0,344398.0,217360.0,333716.0,227134.0
2026-04-14 18:16:25.160997,856541,1609508078772783,5678742420,0.815936,-0.277184,0.316224,3.64,-1.02375,1.70625,-3.344,25.984001,21.296001,concentric,4,7.0,129060.0,344398.0,217360.0,333716.0,227134.0
2026-04-14 18:16:25.163525,856542,1609508078781834,5678751139,0.753472,-0.242048,0.398208,2.24,-2.54625,1.61875,-4.248,25.992,21.712002,concentric,4,7.0,129060.0,344398.0,217360.0,333716.0,227134.0
2026-04-14 18:16:25.178543,856543,1609508078796381,5678766095,0.753472,-0.242048,0.398208,1.855,-2.8,1.4875,-4.248,25.992,21.712002,concentric,4,7.0,129060.0,344398.0,217360.0,333716.0,227134.0
2026-04-14 18:16:25.184815,856544,1609508078805457,5678774827,0.763232,-0.255712,0.288896,2.1,-2.7125,2.0475,-3.64,25.224,19.368,concentric,4,7.0,129060.0,344398.0,217360.0,333716.0,227134.0
2026-04-14 18:16:25.201152,856545,1609508078819978,5678789767,0.831552,-0.27328,0.376736,3.92,-2.8525,1.505,-2.688,25.112001,18.704,concentric,4,7.0,129060.0,344398.0,217360.0,333716.0,227134.0
2026-04-14 18:16:25.233519,856556,1609508078829052,5678798541,0.831552,-0.27328,0.376736,5.17125,-3.71875,1.19,-2.688,25.112001,18.704,concentric,4,7.0,129391.0,345177.0,217768.0,334454.0,227467.0
2026-04-14 18:16:25.236174,856557,1609508078838082,5678807390,0.831552,-0.245952,0.284992,5.355,-5.25875,0.95375,-2.688,25.112001,18.704,concentric,4,7.0,129391.0,345177.0,217768.0,334454.0,227467.0
2026-04-14 18:16:25.238821,856558,1609508078852603,5678822400,0.74176,-0.245952,0.284992,4.80375,-6.48375,0.4725,-3.824,25.320002,19.136002,concentric,4,7.0,129391.0,345177.0,217768.0,334454.0,227467.0
2026-04-14 18:16:25.243878,856559,1609508078861643,5678831127,0.812032,-0.22448,0.558272,3.75375,-7.035,-0.09625,-3.544,25.576002,20.496,concentric,4,7.0,129391.0,345177.0,217768.0,334454.0,227467.0
2026-04-14 18:16:25.256494,856560,1609508078876196,5678845972,0.812032,-0.22448,0.558272,2.33625,-7.035,-0.28,-3.544,25.576002,20.496,concentric,4,7.0,129391.0,345177.0,217768.0,334454.0,227467.0
2026-04-14 18:16:25.266461,856561,1609508078885154,5678854680,0.737856,-0.212768,0.363072,2.0475,-5.635,-0.385,-3.584,25.240002,20.328001,concentric,4,7.0,129391.0,345177.0,217768.0,334454.0,227467.0
2026-04-14 18:16:25.273472,856562,1609508078894143,5678863441,0.737856,-0.212768,0.363072,0.2625,-4.48875,0.16625,-3.584,25.240002,20.328001,concentric,4,7.0,129391.0,345177.0,217768.0,334454.0,227467.0
2026-04-14 18:16:25.290187,856563,1609508078908619,5678878382,0.786656,-0.216672,0.470432,-1.0675,-4.68125,-0.21875,-4.224,25.000002,19.688002,concentric,4,7.0,129391.0,345177.0,217768.0,334454.0,227467.0
2026-04-14 18:16:25.297221,856564,1609508078917571,5678887098,0.786656,-0.216672,0.470432,-0.8575,-5.64375,-0.91875,-4.224,25.000002,19.688002,concentric,4,7.0,129391.0,345177.0,217768.0,334454.0,227467.0
2026-04-14 18:16:25.333256,856576,1609508078932132,5678902341,0.75152,-0.236192,0.27328,-1.30375,-5.635,-2.35375,-2.768,24.992,19.704,concentric,4,7.0,130098.0,344665.0,218754.0,334108.0,228403.0
2026-04-14 18:16:25.336292,856577,1609508078941155,5678911063,0.708576,-0.21472,0.308416,-0.91,-4.97875,-2.59,-2.896,25.072,19.344002,concentric,4,7.0,130098.0,344665.0,218754.0,334108.0,228403.0
2026-04-14 18:16:25.338827,856578,1609508078955814,5678926069,0.708576,-0.21472,0.308416,-1.4,-4.94375,-3.12375,-2.896,25.072,19.344002,concentric,4,7.0,130098.0,344665.0,218754.0,334108.0,228403.0
2026-04-14 18:16:25.345042,856579,1609508078964773,5678934780,0.76128,-0.206912,0.499712,-2.94,-4.3575,-4.33125,-3.04,24.752,19.704,concentric,4,7.0,130098.0,344665.0,218754.0,334108.0,228403.0
2026-04-14 18:16:25.355167,856580,1609508078973803,5678943643,0.76128,-0.206912,0.499712,-5.66125,-3.36,-4.515,-3.04,24.752,19.704,concentric,4,7.0,130098.0,344665.0,218754.0,334108.0,228403.0
2026-04-14 18:16:25.371514,856581,1609508078988477,5678958566,0.689056,-0.20496,0.35136,-8.575,-2.0475,-5.25,-3.664,25.544,20.376001,concentric,4,7.0,130098.0,344665.0,218754.0,334108.0,228403.0
2026-04-14 18:16:25.377197,856582,1609508078997406,5678967259,0.689056,-0.20496,0.35136,-9.3975,-1.07625,-6.3525,-3.664,25.544,20.376001,concentric,4,7.0,130098.0,344665.0,218754.0,334108.0,228403.0
2026-04-14 18:16:25.393939,856583,1609508079011893,5678982153,0.69296,-0.201056,0.365024,-7.09625,-0.5075,-8.225,-3.032,24.904001,20.352001,concentric,4,7.0,130098.0,344665.0,218754.0,334108.0,228403.0
2026-04-14 18:16:25.427582,856584,1609508079020831,5678990857,0.778848,-0.257664,0.415776,-4.80375,-0.58625,-10.12375,-3.288,25.144001,19.528002,concentric,4,7.0,130098.0,344665.0,218754.0,334108.0,228403.0
2026-04-14 18:16:25.477680,856595,1609508079035607,5679005714,0.778848,-0.257664,0.415776,-5.1625,-1.18125,-11.45375,-3.288,25.144001,19.528002,concentric,4,7.0,125972.0,343222.0,213718.0,332960.0,223596.0
2026-04-14 18:16:25.480168,856596,1609508079044587,5679014543,0.675392,-0.218624,0.406016,-5.53875,-1.0675,-11.585,-4.392,25.448002,20.272001,concentric,4,7.0,125972.0,343222.0,213718.0,332960.0,223596.0
2026-04-14 18:16:25.482756,856597,1609508079053571,5679023257,0.675392,-0.218624,0.406016,-5.24125,0.11375,-12.11,-4.392,25.448002,20.272001,concentric,4,7.0,125972.0,343222.0,213718.0,332960.0,223596.0
2026-04-14 18:16:25.485175,856598,1609508079068030,5679038175,0.679296,-0.232288,0.26352,-4.19125,0.72625,-13.20375,-4.352,25.760002,20.656,concentric,4,7.0,125972.0,343222.0,213718.0,332960.0,223596.0
2026-04-14 18:16:25.487301,856599,1609508079076952,5679046852,0.679296,-0.232288,0.26352,-3.29875,1.56625,-14.39375,-4.352,25.760002,20.656,concentric,4,7.0,125972.0,343222.0,213718.0,332960.0,223596.0
2026-04-14 18:16:25.490171,856600,1609508079091466,5679061781,0.67344,-0.206912,0.368928,-3.43,3.24625,-15.505,-4.424,25.544,20.720001,concentric,4,7.0,125972.0,343222.0,213718.0,332960.0,223596.0
2026-04-14 18:16:25.492718,856601,1609508079100435,5679070495,0.671488,-0.247904,0.316224,-3.49125,5.1625,-16.49375,-4.608,25.112001,20.792002,concentric,4,7.0,125972.0,343222.0,213718.0,332960.0,223596.0
2026-04-14 18:16:25.495172,856602,1609508079109445,5679079258,0.671488,-0.247904,0.316224,-1.155,6.3525,-17.3775,-4.608,25.112001,20.792002,concentric,4,7.0,125972.0,343222.0,213718.0,332960.0,223596.0
2026-04-14 18:16:25.504682,856603,1609508079123980,5679094174,0.6344,-0.212768,0.406016,2.975,6.48375,-18.366251,-3.832,25.032001,19.704,concentric,4,7.0,125972.0,343222.0,213718.0,332960.0,223596.0
2026-04-14 18:16:25.540100,856614,1609508079132995,5679102932,0.6344,-0.212768,0.406016,6.04625,6.86,-18.2,-3.832,25.032001,19.704,concentric,4,7.0,120269.0,340562.0,206810.0,330886.0,217033.0
2026-04-14 18:16:25.542603,856615,1609508079147600,5679117851,0.66368,-0.21472,0.33184,7.14875,6.125,-17.99,-3.928,24.864,19.096,concentric,4,7.0,120269.0,340562.0,206810.0,330886.0,217033.0
2026-04-14 18:16:25.545124,856616,1609508079156532,5679126629,0.66368,-0.21472,0.33184,7.67375,5.13625,-18.515,-3.928,24.864,19.096,concentric,4,7.0,120269.0,340562.0,206810.0,330886.0,217033.0
2026-04-14 18:16:25.550134,856617,1609508079171115,5679139496,0.62464,-0.191296,0.281088,7.41125,5.43375,-18.76875,-3.84,24.456001,20.176,concentric,4,7.0,120269.0,340562.0,206810.0,330886.0,217033.0
2026-04-14 18:16:25.561016,856618,1609508079180350,5679150274,0.62464,-0.177632,0.454816,7.0875,6.23,-19.425,-3.84,24.456001,18.128,concentric,4,7.0,120269.0,340562.0,206810.0,330886.0,217033.0
2026-04-14 18:16:25.568895,856619,1609508079189309,5679159002,0.646112,-0.177632,0.454816,10.185,7.7525,-20.01125,-4.928001,24.752,17.944,concentric,4,7.0,120269.0,340562.0,206810.0,330886.0,217033.0
2026-04-14 18:16:25.585204,856620,1609508079203819,5679173893,0.544608,-0.193248,0.269376,13.2475,8.68875,-20.65875,-4.248,24.424002,19.672,concentric,4,7.0,120269.0,340562.0,206810.0,330886.0,217033.0
2026-04-14 18:16:25.595718,856621,1609508079212778,5679182584,0.544608,-0.193248,0.269376,14.5075,8.925,-20.69375,-4.248,24.424002,19.672,concentric,4,7.0,120269.0,340562.0,206810.0,330886.0,217033.0
2026-04-14 18:16:25.631305,856632,1609508079227359,5679197851,0.589504,-0.179584,0.201056,16.21375,8.3475,-19.285,-4.416,24.512001,20.448002,concentric,4,7.0,119798.0,339269.0,206327.0,330057.0,216664.0
2026-04-14 18:16:25.633775,856633,1609508079236462,5679206766,0.589504,-0.179584,0.201056,17.61375,7.595,-18.0075,-4.416,24.512001,20.448002,concentric,4,7.0,119798.0,339269.0,206327.0,330057.0,216664.0
2026-04-14 18:16:25.638943,856634,1609508079245414,5679215501,0.601216,-0.16592,0.208864,19.39875,6.29125,-16.65125,-5.168,24.736002,21.480001,concentric,4,7.0,119798.0,339269.0,206327.0,330057.0,216664.0
2026-04-14 18:16:25.641471,856635,1609508079260062,5679228427,0.601216,-0.16592,0.208864,20.15125,4.9175,-15.33,-5.168,24.736002,21.480001,concentric,4,7.0,119798.0,339269.0,206327.0,330057.0,216664.0
2026-04-14 18:16:25.652388,856636,1609508079269357,5679239211,0.655872,-0.134688,0.404064,20.25625,3.89375,-14.67375,-5.64,24.168001,21.04,concentric,4,7.0,119798.0,339269.0,206327.0,330057.0,216664.0
2026-04-14 18:16:25.665130,856637,1609508079283900,5679254185,0.628544,-0.152256,0.327936,17.99875,3.64,-14.6475,-5.72,24.312,20.656,concentric,4,7.0,119798.0,339269.0,206327.0,330057.0,216664.0
2026-04-14 18:16:25.673898,856638,1609508079292833,5679262890,0.628544,-0.152256,0.327936,14.665,4.66375,-14.875,-5.72,24.312,20.656,concentric,4,7.0,119798.0,339269.0,206327.0,330057.0,216664.0
2026-04-14 18:16:25.683932,856639,1609508079301763,5679271579,0.659776,-0.113216,0.425536,14.35875,6.57125,-14.25375,-4.96,23.592001,20.312,concentric,4,7.0,119798.0,339269.0,206327.0,330057.0,216664.0
2026-04-14 18:16:25.713747,856640,1609508079316278,5679286550,0.659776,-0.113216,0.425536,17.4125,8.16375,-14.23625,-4.96,23.592001,20.312,concentric,4,7.0,119798.0,339269.0,206327.0,330057.0,216664.0
2026-04-14 18:16:25.716313,856641,1609508079325243,5679295250,0.67344,-0.134688,0.372832,19.460001,8.4,-12.4775,-5.048,23.832,21.048,concentric,4,7.0,119798.0,339269.0,206327.0,330057.0,216664.0
2026-04-14 18:16:25.746384,856652,1609508079339780,5679308148,0.67344,-0.134688,0.372832,16.45,7.16625,-11.36625,-5.048,23.832,21.048,concentric,4,7.0,119680.0,338016.0,205939.0,328974.0,216370.0
2026-04-14 18:16:25.748654,856653,1609508079349105,5679318941,0.56608,-0.081984,0.279136,12.01375,5.0925,-10.4475,-4.976,23.512001,21.28,concentric,4,7.0,119680.0,338016.0,205939.0,328974.0,216370.0
2026-04-14 18:16:25.751448,856654,1609508079363659,5679333837,0.65392,-0.099552,0.374784,10.14125,3.40375,-11.2875,-4.984,23.208,21.728,concentric,4,7.0,119680.0,338016.0,205939.0,328974.0,216370.0
2026-04-14 18:16:25.753455,856655,1609508079372603,5679342597,0.65392,-0.099552,0.374784,9.8,2.3625,-13.615,-4.984,23.208,21.728,concentric,4,7.0,119680.0,338016.0,205939.0,328974.0,216370.0
2026-04-14 18:16:25.761451,856656,1609508079381551,5679351345,0.65392,-0.105408,0.333792,9.19625,2.72125,-14.62125,-4.984,23.208,21.728,concentric,4,7.0,119680.0,338016.0,205939.0,328974.0,216370.0
2026-04-14 18:16:25.794560,856657,1609508079396059,5679366225,0.669536,-0.105408,0.333792,8.67125,4.6725,-14.95375,-5.408001,23.696001,21.704,concentric,4,7.0,119680.0,338016.0,205939.0,328974.0,216370.0
2026-04-14 18:16:25.812501,856658,1609508079405036,5679374915,0.632448,-0.076128,0.267424,8.015,6.65,-14.88375,-5.328,23.184002,21.528002,concentric,4,7.0,119680.0,338016.0,205939.0,328974.0,216370.0
2026-04-14 18:16:25.814999,856659,1609508079419551,5679389902,0.632448,-0.076128,0.267424,7.32375,6.9825,-15.1375,-5.328,23.184002,21.528002,concentric,4,7.0,119680.0,338016.0,205939.0,328974.0,216370.0
2026-04-14 18:16:25.842363,856670,1609508079429137,5679398783,0.669536,-0.093696,0.27328,7.07,6.76375,-16.24875,-6.232,23.2,22.464,concentric,4,7.0,117778.0,336496.0,203471.0,327875.0,214059.0
2026-04-14 18:16:25.850150,856671,1609508079438105,5679407592,0.669536,-0.093696,0.27328,8.5575,6.50125,-17.9375,-6.232,23.2,22.464,concentric,4,7.0,117778.0,336496.0,203471.0,327875.0,214059.0
2026-04-14 18:16:25.852619,856672,1609508079452758,5679422617,0.632448,-0.062464,0.339648,7.72625,6.08125,-19.53,-5.960001,23.784,22.76,concentric,4,7.0,117778.0,336496.0,203471.0,327875.0,214059.0
2026-04-14 18:16:25.854641,856673,1609508079461686,5679431315,0.632448,-0.062464,0.511424,6.41375,5.74875,-21.00875,-5.960001,23.784,22.76,concentric,4,7.0,117778.0,336496.0,203471.0,327875.0,214059.0
2026-04-14 18:16:25.857636,856674,1609508079476288,5679446217,0.743712,-0.046848,0.505568,6.08125,6.37875,-22.4525,-6.512,23.312,21.872002,concentric,4,7.0,117778.0,336496.0,203471.0,327875.0,214059.0
2026-04-14 18:16:25.867169,856675,1609508079485271,5679454935,0.691008,-0.056608,0.486048,6.2475,7.49875,-21.9975,-6.960001,22.776001,21.808,concentric,4,7.0,117778.0,336496.0,203471.0,327875.0,214059.0
2026-04-14 18:16:25.873938,856676,1609508079494330,5679463675,0.691008,-0.056608,0.486048,3.7625,7.6475,-21.09625,-6.960001,22.776001,21.808,concentric,4,7.0,117778.0,336496.0,203471.0,327875.0,214059.0
2026-04-14 18:16:25.889504,856677,1609508079508886,5679478571,0.677344,-0.0488,0.407968,1.68875,8.12875,-20.116251,-5.784,22.800001,22.080002,concentric,4,7.0,117778.0,336496.0,203471.0,327875.0,214059.0
2026-04-14 18:16:25.897274,856678,1609508079517807,5679487258,0.677344,-0.0488,0.407968,2.47625,8.33,-21.035,-5.784,22.800001,22.080002,concentric,4,7.0,117778.0,336496.0,203471.0,327875.0,214059.0
2026-04-14 18:16:25.932538,856689,1609508079532472,5679502205,0.774944,-0.040992,0.503616,6.71125,7.4025,-22.81125,-6.208,22.768002,22.088001,concentric,4,7.0,124681.0,339135.0,211754.0,330636.0,222621.0
2026-04-14 18:16:25.935097,856690,1609508079541450,5679511051,0.774944,-0.040992,0.503616,10.70125,6.1425,-23.1875,-6.208,22.768002,22.088001,concentric,4,7.0,124681.0,339135.0,211754.0,330636.0,222621.0
2026-04-14 18:16:25.937255,856691,1609508079556015,5679525961,0.80032,-0.062464,0.573888,11.8125,5.99375,-22.4875,-6.304,23.016,23.720001,concentric,4,7.0,124681.0,339135.0,211754.0,330636.0,222621.0
2026-04-14 18:16:25.948539,856692,1609508079564981,5679534652,0.687104,-0.02928,0.486048,8.11125,5.635,-21.805,-6.36,22.704,22.576,concentric,4,7.0,124681.0,339135.0,211754.0,330636.0,222621.0
2026-04-14 18:16:25.954854,856693,1609508079573931,5679543336,0.687104,-0.02928,0.486048,2.0475,6.895,-20.5275,-6.36,22.704,22.576,concentric,4,7.0,124681.0,339135.0,211754.0,330636.0,222621.0
2026-04-14 18:16:25.968499,856694,1609508079588507,5679558373,0.763232,-0.042944,0.52704,1.1725,8.925,-19.5125,-6.496,23.176,22.352001,concentric,4,7.0,124681.0,339135.0,211754.0,330636.0,222621.0
2026-04-14 18:16:25.978114,856695,1609508079597597,5679567088,0.763232,-0.042944,0.52704,5.0225,10.185,-18.4975,-6.496,23.176,22.352001,concentric,4,7.0,124681.0,339135.0,211754.0,330636.0,222621.0
2026-04-14 18:16:25.992100,856696,1609508079612129,5679582141,0.706624,0.0,0.378688,9.5375,10.7625,-18.6375,-6.408001,22.872002,22.312,eccentric,4,7.0,124681.0,339135.0,211754.0,330636.0,222621.0
2026-04-14 18:16:26.002104,856697,1609508079621059,5679590834,0.706624,0.0,0.378688,10.6925,9.905,-20.01125,-6.408001,22.872002,22.312,eccentric,4,7.0,124681.0,339135.0,211754.0,330636.0,222621.0
2026-04-14 18:16:26.032189,856708,1609508079630633,5679600051,0.804224,-0.03904,0.368928,9.82625,9.205,-20.50125,-6.568,22.720001,23.344002,eccentric,4,7.0,139172.0,349381.0,228886.0,339290.0,239115.0
2026-04-14 18:16:26.034643,856709,1609508079645276,5679615039,0.749568,0.003904,0.55632,9.05625,8.37375,-20.85125,-6.76,22.856,23.800001,eccentric,4,7.0,139172.0,349381.0,228886.0,339290.0,239115.0
2026-04-14 18:16:26.037026,856710,1609508079654371,5679623791,0.749568,0.003904,0.55632,8.61875,8.417501,-21.35,-6.76,22.856,23.800001,eccentric,4,7.0,139172.0,349381.0,228886.0,339290.0,239115.0
2026-04-14 18:16:26.048448,856711,1609508079668927,5679638708,0.767136,0.025376,0.441152,8.56625,9.555,-20.86875,-7.728,22.744001,23.68,eccentric,4,7.0,139172.0,349381.0,228886.0,339290.0,239115.0
2026-04-14 18:16:26.057113,856712,1609508079677902,5679647427,0.767136,0.025376,0.441152,10.73625,10.75375,-20.02,-7.728,22.744001,23.68,eccentric,4,7.0,139172.0,349381.0,228886.0,339290.0,239115.0
2026-04-14 18:16:26.067177,856713,1609508079686885,5679656196,0.774944,0.0976,0.554368,11.445,10.63125,-20.90375,-8.160001,23.160002,23.912,eccentric,4,7.0,139172.0,349381.0,228886.0,339290.0,239115.0
2026-04-14 18:16:26.083423,856714,1609508079701382,5679671137,0.774944,0.0976,0.554368,8.7675,9.98375,-21.95375,-8.160001,23.160002,23.912,eccentric,4,7.0,139172.0,349381.0,228886.0,339290.0,239115.0
2026-04-14 18:16:26.091106,856715,1609508079710336,5679679894,0.821792,0.02928,0.587552,5.11875,8.785,-22.88125,-7.384,22.512001,22.744001,eccentric,4,7.0,139172.0,349381.0,228886.0,339290.0,239115.0
2026-04-14 18:16:26.105954,856716,1609508079724841,5679694821,0.872544,0.001952,0.597312,2.72125,9.63375,-23.24875,-7.12,22.728,24.28,eccentric,4,7.0,139172.0,349381.0,228886.0,339290.0,239115.0
2026-04-14 18:16:26.157366,856727,1609508079734060,5679703547,0.872544,0.001952,0.597312,5.69625,10.14125,-21.0875,-7.12,22.728,24.28,eccentric,4,7.0,150843.0,355795.0,242635.0,344426.0,251759.0
2026-04-14 18:16:26.183302,856728,1609508079748641,5679718624,0.880352,0.074176,0.569984,10.29875,9.30125,-19.87125,-8.68,23.208,25.064001,eccentric,4,7.0,150843.0,355795.0,242635.0,344426.0,251759.0
2026-04-14 18:16:26.197267,856729,1609508079757606,5679727373,0.880352,0.074176,0.569984,11.7075,7.14,-18.20875,-8.68,23.208,25.064001,eccentric,4,7.0,150843.0,355795.0,242635.0,344426.0,251759.0
2026-04-14 18:16:26.199787,856730,1609508079766621,5679736074,0.935008,0.085888,0.642208,7.70875,5.88875,-17.40375,-9.448001,23.064001,24.616001,eccentric,4,7.0,150843.0,355795.0,242635.0,344426.0,251759.0
2026-04-14 18:16:26.202238,856731,1609508079781124,5679750952,0.935008,0.085888,0.642208,1.54875,4.92625,-18.89125,-9.448001,23.064001,24.616001,eccentric,4,7.0,150843.0,355795.0,242635.0,344426.0,251759.0
2026-04-14 18:16:26.204777,856732,1609508079790222,5679759689,0.882304,0.083936,0.493856,0.27125,4.2875,-21.72625,-8.896001,22.824001,24.384,eccentric,4,7.0,150843.0,355795.0,242635.0,344426.0,251759.0
2026-04-14 18:16:26.207148,856733,1609508079804707,5679774584,0.862784,0.113216,0.56608,1.715,3.255,-24.19375,-8.616,23.048,24.512001,eccentric,4,7.0,150843.0,355795.0,242635.0,344426.0,251759.0
2026-04-14 18:16:26.209819,856734,1609508079813659,5679783279,0.862784,0.113216,0.56608,-0.44625,1.6975,-24.465,-8.616,23.048,24.512001,eccentric,4,7.0,150843.0,355795.0,242635.0,344426.0,251759.0
2026-04-14 18:16:26.212309,856735,1609508079822598,5679791975,0.862784,0.113216,0.56608,-10.167501,1.02375,-22.2775,-8.616,23.048,24.512001,eccentric,4,7.0,150843.0,355795.0,242635.0,344426.0,251759.0
2026-04-14 18:16:26.239848,856746,1609508079837191,5679807305,0.874496,0.08784,0.503616,-18.5675,1.1025,-18.7775,-8.888001,23.552002,23.640001,eccentric,4,7.0,160719.0,356257.0,254891.0,344971.0,262822.0
2026-04-14 18:16:26.242687,856747,1609508079846238,5679816098,0.923296,0.140544,0.70272,-20.4925,1.05,-16.42375,-8.928,23.336,24.544,eccentric,4,7.0,160719.0,356257.0,254891.0,344971.0,262822.0
2026-04-14 18:16:26.245179,856748,1609508079860825,5679831003,0.923296,0.140544,0.70272,-18.8125,0.95375,-15.785,-8.928,23.336,24.544,eccentric,4,7.0,160719.0,356257.0,254891.0,344971.0,262822.0
2026-04-14 18:16:26.251513,856749,1609508079869790,5679839713,0.954528,0.124928,0.616832,-15.3475,-0.55125,-15.56625,-9.024,23.664001,22.920002,eccentric,4,7.0,160719.0,356257.0,254891.0,344971.0,262822.0
2026-04-14 18:16:26.266223,856750,1609508079884316,5679854667,0.954528,0.124928,0.616832,-11.55,-3.28125,-14.55125,-9.024,23.664001,22.920002,eccentric,4,7.0,160719.0,356257.0,254891.0,344971.0,262822.0
2026-04-14 18:16:26.276310,856751,1609508079893251,5679863374,0.972096,0.101504,0.870592,-11.24375,-5.1975,-12.1275,-8.616,23.616001,22.68,eccentric,4,7.0,160719.0,356257.0,254891.0,344971.0,262822.0
2026-04-14 18:16:26.283854,856752,1609508079902242,5679872058,0.972096,0.101504,0.870592,-14.70875,-6.01125,-7.95375,-8.616,23.616001,22.68,eccentric,4,7.0,160719.0,356257.0,254891.0,344971.0,262822.0
2026-04-14 18:16:26.298811,856753,1609508079916777,5679887046,0.942816,0.0976,0.67344,-18.73375,-7.0525,-3.535,-8.784,24.104002,22.576,eccentric,4,7.0,160719.0,356257.0,254891.0,344971.0,262822.0
2026-04-14 18:16:26.306446,856754,1609508079925696,5679895737,1.018944,0.154208,0.726144,-22.12875,-7.69125,0.175,-9.552,24.968,23.928001,eccentric,4,7.0,160719.0,356257.0,254891.0,344971.0,262822.0
2026-04-14 18:16:26.360914,856765,1609508079940264,5679908693,1.018944,0.154208,0.726144,-21.9625,-8.68875,1.00625,-9.552,24.968,23.928001,eccentric,4,7.0,158208.0,352428.0,251899.0,342213.0,260265.0
2026-04-14 18:16:26.371023,856766,1609508079949692,5679919503,1.061888,0.070272,0.72224,-19.95875,-10.78,-0.3325,-10.368,24.856,24.024002,eccentric,4,7.0,158208.0,352428.0,251899.0,342213.0,260265.0
2026-04-14 18:16:26.371125,856767,1609508079958602,5679928185,1.061888,0.070272,0.72224,-17.96375,-13.51875,-1.02375,-10.368,24.856,24.024002,eccentric,4,7.0,158208.0,352428.0,251899.0,342213.0,260265.0
2026-04-14 18:16:26.373424,856768,1609508079973160,5679943063,1.007232,0.023424,0.706624,-16.66875,-15.49625,-1.365,-10.016001,25.024002,23.768002,eccentric,4,7.0,158208.0,352428.0,251899.0,342213.0,260265.0
2026-04-14 18:16:26.376272,856769,1609508079982177,5679951760,1.007232,0.023424,0.706624,-15.627501,-15.23375,-0.91875,-10.016001,25.024002,23.768002,eccentric,4,7.0,158208.0,352428.0,251899.0,342213.0,260265.0
2026-04-14 18:16:26.378756,856770,1609508079996754,5679966710,1.106784,0.01952,0.796416,-17.15,-11.4625,0.6125,-10.856001,25.240002,22.76,eccentric,4,7.0,158208.0,352428.0,251899.0,342213.0,260265.0
2026-04-14 18:16:26.386124,856771,1609508080005707,5679975423,1.091168,-0.01952,0.57584,-19.0925,-7.2275,2.2925,-10.856001,25.240002,22.496,eccentric,4,7.0,158208.0,352428.0,251899.0,342213.0,260265.0
2026-04-14 18:16:26.401295,856772,1609508080020215,5679990297,1.081408,-0.01952,0.57584,-18.27,-3.5525,2.61625,-9.752001,25.096,22.496,eccentric,4,7.0,158208.0,352428.0,251899.0,342213.0,260265.0
2026-04-14 18:16:26.410139,856773,1609508080029199,5679999023,1.065792,-0.007808,0.650016,-16.82625,-0.2625,1.00625,-8.96,25.36,21.952002,eccentric,4,7.0,158208.0,352428.0,251899.0,342213.0,260265.0
2026-04-14 18:16:26.437343,856784,1609508080038392,5680007819,1.065792,-0.007808,0.650016,-15.26875,1.1025,-0.28875,-8.96,25.36,21.952002,eccentric,4,7.0,149145.0,351900.0,240736.0,341993.0,250271.0
2026-04-14 18:16:26.440056,856785,1609508080052995,5680022754,1.182912,-0.064416,0.755424,-13.8425,0.04375,-1.70625,-9.872001,25.488,22.624,eccentric,4,7.0,149145.0,351900.0,240736.0,341993.0,250271.0
2026-04-14 18:16:26.442673,856786,1609508080062070,5680031484,1.182912,-0.064416,0.755424,-10.43875,-0.81375,-2.03,-9.872001,25.488,22.624,eccentric,4,7.0,149145.0,351900.0,240736.0,341993.0,250271.0
2026-04-14 18:16:26.457078,856787,1609508080076557,5680046389,1.165344,-0.035136,0.833504,-8.88125,0.21,-2.44125,-9.632001,25.624,22.488,eccentric,4,7.0,149145.0,351900.0,240736.0,341993.0,250271.0
2026-04-14 18:16:26.465859,856788,1609508080085500,5680055080,1.165344,-0.035136,0.833504,-8.70625,2.5025,-3.26375,-9.632001,25.624,22.488,eccentric,4,7.0,149145.0,351900.0,240736.0,341993.0,250271.0
2026-04-14 18:16:26.476275,856789,1609508080094461,5680063962,1.212192,0.007808,0.757376,-7.62125,4.7775,-5.90625,-9.072001,25.344002,22.344002,eccentric,4,7.0,149145.0,351900.0,240736.0,341993.0,250271.0
2026-04-14 18:16:26.488867,856790,1609508080109056,5680078900,1.14192,-0.033184,0.718336,-4.71625,4.19125,-8.21625,-9.0,25.256,21.640001,eccentric,4,7.0,149145.0,351900.0,240736.0,341993.0,250271.0
2026-04-14 18:16:26.498922,856791,1609508080118192,5680087588,1.14192,-0.033184,0.718336,-3.7975,0.42,-10.31625,-9.0,25.256,21.640001,eccentric,4,7.0,149145.0,351900.0,240736.0,341993.0,250271.0
2026-04-14 18:16:26.576344,856802,1609508080133445,5680102835,1.077504,0.027328,0.710528,-5.10125,-1.79375,-10.96375,-8.904,24.992,21.688002,eccentric,4,7.0,153364.0,354719.0,245848.0,344201.0,254836.0
2026-04-14 18:16:26.578800,856803,1609508080142461,5680111604,1.077504,0.027328,0.710528,-4.10375,-2.70375,-12.74875,-8.904,24.992,21.688002,eccentric,4,7.0,153364.0,354719.0,245848.0,344201.0,254836.0
2026-04-14 18:16:26.581332,856804,1609508080151565,5680120347,1.130208,-0.011712,0.610976,-2.84375,-2.7125,-13.125,-8.848001,25.256,21.12,eccentric,4,7.0,153364.0,354719.0,245848.0,344201.0,254836.0
2026-04-14 18:16:26.583873,856805,1609508080166455,5680135253,1.130208,0.003904,0.737856,-1.715,-1.46125,-12.29375,-8.848001,25.256,21.12,eccentric,4,7.0,153364.0,354719.0,245848.0,344201.0,254836.0
2026-04-14 18:16:26.586343,856806,1609508080175832,5680146005,1.087264,0.013664,0.737856,-1.65375,-1.05,-9.87,-9.368,25.024002,23.488,eccentric,4,7.0,153364.0,354719.0,245848.0,344201.0,254836.0
2026-04-14 18:16:26.588329,856807,1609508080184791,5680154707,1.087264,0.013664,0.737856,1.155,-1.74125,-8.12,-9.368,25.024002,23.488,eccentric,4,7.0,153364.0,354719.0,245848.0,344201.0,254836.0
2026-04-14 18:16:26.591338,856808,1609508080199339,5680169691,1.048224,0.056608,0.638304,2.63375,-3.5525,-6.79875,-9.432,24.936,22.088001,eccentric,4,7.0,153364.0,354719.0,245848.0,344201.0,254836.0
2026-04-14 18:16:26.593846,856809,1609508080208293,5680178410,1.032608,0.052704,0.726144,2.03,-5.29375,-4.305,-9.304001,24.592001,21.408,eccentric,4,7.0,153364.0,354719.0,245848.0,344201.0,254836.0
2026-04-14 18:16:26.602726,856810,1609508080222989,5680191346,1.032608,0.052704,0.726144,1.12875,-5.18,-3.3775,-9.304001,24.592001,21.408,eccentric,4,7.0,153364.0,354719.0,245848.0,344201.0,254836.0
2026-04-14 18:16:26.636992,856821,1609508080232177,5680202039,1.00528,0.081984,0.737856,1.365,-3.64,-2.24875,-9.536,24.704,22.648,eccentric,4,7.0,152242.0,350906.0,244676.0,341086.0,254070.0
2026-04-14 18:16:26.639657,856822,1609508080241476,5680210796,1.00528,0.081984,0.737856,2.59,-1.37375,-0.34125,-9.536,24.704,22.648,eccentric,4,7.0,152242.0,350906.0,244676.0,341086.0,254070.0
2026-04-14 18:16:26.646469,856823,1609508080256158,5680225754,0.950624,0.060512,0.65392,0.91875,0.7175,1.16375,-10.248,24.944,22.848001,eccentric,4,7.0,152242.0,350906.0,244676.0,341086.0,254070.0
2026-04-14 18:16:26.646563,856824,1609508080265126,5680234621,0.950624,0.060512,0.65392,-3.01875,1.84625,3.56125,-10.248,24.944,22.848001,eccentric,4,7.0,152242.0,350906.0,244676.0,341086.0,254070.0
2026-04-14 18:16:26.661311,856825,1609508080279672,5680249545,0.925248,0.040992,0.528992,-4.55875,2.42375,4.31375,-9.328,24.784,21.920002,eccentric,4,7.0,152242.0,350906.0,244676.0,341086.0,254070.0
2026-04-14 18:16:26.668356,856826,1609508080288780,5680258210,1.007232,0.06832,0.677344,-4.57625,1.53125,4.1475,-9.96,24.856,23.568,eccentric,4,7.0,152242.0,350906.0,244676.0,341086.0,254070.0
2026-04-14 18:16:26.683892,856827,1609508080303306,5680273099,1.007232,0.06832,0.677344,-4.55875,0.83125,3.9375,-9.96,24.856,23.568,eccentric,4,7.0,152242.0,350906.0,244676.0,341086.0,254070.0
2026-04-14 18:16:26.693907,856828,1609508080312241,5680281782,0.958432,0.02928,0.472384,-3.64,-0.3675,2.93125,-8.712001,24.952002,22.304,eccentric,4,7.0,152242.0,350906.0,244676.0,341086.0,254070.0
2026-04-14 18:16:26.701110,856829,1609508080321256,5680290627,0.958432,0.02928,0.472384,-4.87375,-1.4525,1.6625,-8.712001,24.952002,22.304,eccentric,4,7.0,152242.0,350906.0,244676.0,341086.0,254070.0
2026-04-14 18:16:26.736980,856840,1609508080336415,5680306054,0.981856,0.035136,0.732,-8.16375,-1.575,1.70625,-9.968,25.096,23.656002,eccentric,4,7.0,154497.0,351963.0,247459.0,341882.0,256563.0
2026-04-14 18:16:26.739561,856841,1609508080345472,5680314996,0.981856,0.035136,0.732,-9.84375,-0.97125,1.3125,-9.968,25.096,23.656002,eccentric,4,7.0,154497.0,351963.0,247459.0,341882.0,256563.0
2026-04-14 18:16:26.742483,856842,1609508080354428,5680323721,0.958432,0.037088,0.681248,-11.99625,-1.47875,0.8575,-8.752001,24.856,21.720001,eccentric,4,7.0,154497.0,351963.0,247459.0,341882.0,256563.0
2026-04-14 18:16:26.749989,856843,1609508080368916,5680338757,0.944768,0.0,0.669536,-14.980001,-2.03,1.085,-8.480001,24.584002,21.288,eccentric,4,7.0,154497.0,351963.0,247459.0,341882.0,256563.0
2026-04-14 18:16:26.757486,856844,1609508080377925,5680347470,0.944768,0.0,0.669536,-15.505,-1.925,1.0675,-8.480001,24.584002,21.288,eccentric,4,7.0,154497.0,351963.0,247459.0,341882.0,256563.0
2026-04-14 18:16:26.772255,856845,1609508080392419,5680362378,0.958432,-0.054656,0.501664,-15.39125,-2.135,2.02125,-8.072001,24.496,21.416,eccentric,4,7.0,154497.0,351963.0,247459.0,341882.0,256563.0
2026-04-14 18:16:26.783891,856846,1609508080401511,5680371084,0.958432,-0.054656,0.501664,-15.1375,-2.72125,4.29625,-8.072001,24.496,21.416,eccentric,4,7.0,154497.0,351963.0,247459.0,341882.0,256563.0
2026-04-14 18:16:26.797661,856847,1609508080416026,5680385963,0.901824,-0.044896,0.470432,-14.665,-3.6925,7.0,-8.512,24.456001,21.136002,eccentric,4,7.0,154497.0,351963.0,247459.0,341882.0,256563.0
2026-04-14 18:16:26.804599,856848,1609508080424997,5680394687,0.901824,-0.044896,0.470432,-14.28875,-4.38375,8.0675,-8.512,24.456001,21.136002,eccentric,4,7.0,154497.0,351963.0,247459.0,341882.0,256563.0
2026-04-14 18:16:26.837111,856859,1609508080434165,5680403385,0.88816,-0.013664,0.659776,-14.67375,-4.6375,9.17875,-8.416,24.68,21.320002,eccentric,4,7.0,147669.0,348042.0,239097.0,338587.0,248887.0
2026-04-14 18:16:26.841517,856860,1609508080448758,5680418417,0.870592,-0.070272,0.388448,-16.12625,-4.62,10.6225,-8.416,25.184002,24.176,eccentric,4,7.0,147669.0,348042.0,239097.0,338587.0,248887.0
2026-04-14 18:16:26.841877,856861,1609508080457758,5680427125,0.870592,-0.070272,0.388448,-17.61375,-4.54125,12.29375,-9.200001,25.184002,24.176,eccentric,4,7.0,147669.0,348042.0,239097.0,338587.0,248887.0
2026-04-14 18:16:26.853205,856862,1609508080472273,5680442049,0.772992,-0.037088,0.42944,-16.0125,-5.32875,14.0175,-8.904,24.968,21.800001,eccentric,4,7.0,147669.0,348042.0,239097.0,338587.0,248887.0
2026-04-14 18:16:26.861302,856863,1609508080481259,5680450778,0.772992,-0.037088,0.42944,-13.658751,-6.6675,15.295,-8.904,24.968,21.800001,eccentric,4,7.0,147669.0,348042.0,239097.0,338587.0,248887.0
2026-04-14 18:16:26.896125,856864,1609508080495787,5680465705,0.743712,-0.001952,0.398208,-12.81,-7.95375,16.616251,-7.928001,24.800001,20.584002,eccentric,4,7.0,147669.0,348042.0,239097.0,338587.0,248887.0
2026-04-14 18:16:26.898906,856865,1609508080504705,5680474421,0.743712,-0.001952,0.398208,-11.55,-8.7325,16.765,-7.928001,24.800001,20.584002,eccentric,4,7.0,147669.0,348042.0,239097.0,338587.0,248887.0
2026-04-14 18:16:26.901451,856866,1609508080513687,5680483115,0.776896,-0.021472,0.368928,-11.725,-9.26625,15.085,-7.576,24.480001,20.704,eccentric,4,7.0,147669.0,348042.0,239097.0,338587.0,248887.0
2026-04-14 18:16:26.926296,856867,1609508080528217,5680498061,0.776896,-0.021472,0.368928,-12.39,-10.12375,13.5975,-7.576,24.480001,20.704,eccentric,4,7.0,147669.0,348042.0,239097.0,338587.0,248887.0
