pc_time,serial_num,sensor_ts,host_ts,ax,ay,az,gx,gy,gz,mx,my,mz,phase,rpe,weight_kg,ppg_a,ppg_b,ppg_c,ppg_d,ppg_e
2026-04-14 17:28:34.334682,316879,1609505208044220,2808013748,-0.895968,0.005856,-0.081984,-3.85,-23.625,9.68625,16.184,14.168,24.488,concentric,3,3.0,32522.0,208702.0,74538.0,210937.0,86049.0
2026-04-14 17:28:34.362100,316890,1609505208058773,2808028740,-0.933056,-0.066368,-0.113216,-15.1725,-27.0025,12.11875,15.384001,14.424001,25.056002,concentric,3,3.0,33630.0,210053.0,76582.0,212750.0,88510.0
2026-04-14 17:28:34.364660,316891,1609505208067679,2808037467,-0.933056,-0.066368,0.162016,-11.36625,-27.18625,16.30125,15.384001,14.424001,25.056002,concentric,3,3.0,33630.0,210053.0,76582.0,212750.0,88510.0
2026-04-14 17:28:34.372471,316892,1609505208082189,2808052380,-0.997472,0.001952,0.162016,-0.63875,-27.1425,17.22,13.984,15.168001,26.024002,concentric,3,3.0,33630.0,210053.0,76582.0,212750.0,88510.0
2026-04-14 17:28:34.379579,316893,1609505208091104,2808061149,-0.841312,0.0976,0.167872,10.31625,-28.411251,17.115,15.528001,14.256001,24.336,concentric,3,3.0,33630.0,210053.0,76582.0,212750.0,88510.0
2026-04-14 17:28:34.392813,316894,1609505208105584,2808073987,-0.841312,0.0976,0.167872,10.21125,-29.42625,16.275,15.528001,14.256001,24.336,concentric,3,3.0,33630.0,210053.0,76582.0,212750.0,88510.0
2026-04-14 17:28:34.403950,316895,1609505208114788,2808084740,-0.935008,-0.007808,0.070272,-0.32375,-27.965,13.20375,15.360001,14.328001,24.192001,concentric,3,3.0,33630.0,210053.0,76582.0,212750.0,88510.0
2026-04-14 17:28:34.415253,316896,1609505208123726,2808093438,-0.935008,-0.007808,0.070272,-11.585,-25.31375,11.57625,15.360001,14.328001,24.192001,concentric,3,3.0,33630.0,210053.0,76582.0,212750.0,88510.0
2026-04-14 17:28:34.427353,316897,1609505208138194,2808108257,-0.925248,-0.08784,-0.013664,-10.29,-23.28375,12.4425,15.088,14.456,25.2,concentric,3,3.0,33630.0,210053.0,76582.0,212750.0,88510.0
2026-04-14 17:28:34.435875,316898,1609505208147121,2808116947,-0.925248,-0.08784,-0.013664,4.41,-21.07,11.2175,15.088,14.456,25.2,concentric,3,3.0,33630.0,210053.0,76582.0,212750.0,88510.0
2026-04-14 17:28:34.463578,316909,1609505208161686,2808131875,-0.958432,0.054656,0.025376,20.08125,-18.4275,10.36875,15.248001,14.280001,24.720001,concentric,3,3.0,33739.0,207998.0,76965.0,211447.0,88940.0
2026-04-14 17:28:34.466426,316910,1609505208170718,2808140565,-1.003328,0.089792,0.042944,19.52125,-15.7325,10.01875,14.264001,14.712001,25.088001,concentric,3,3.0,33739.0,207998.0,76965.0,211447.0,88940.0
2026-04-14 17:28:34.490956,316911,1609505208185222,2808155440,-1.003328,0.089792,0.042944,0.79625,-15.46125,8.05875,14.264001,14.712001,25.088001,concentric,3,3.0,33739.0,207998.0,76965.0,211447.0,88940.0
2026-04-14 17:28:34.516749,316912,1609505208194149,2808164117,-0.884256,-0.06832,0.181536,-15.33875,-17.14125,7.65625,15.464001,14.128,23.984001,concentric,3,3.0,33739.0,207998.0,76965.0,211447.0,88940.0
2026-04-14 17:28:34.540926,316913,1609505208203098,2808172793,-0.884256,-0.06832,0.181536,-16.93125,-15.4875,8.54,15.464001,14.128,23.984001,concentric,3,3.0,33739.0,207998.0,76965.0,211447.0,88940.0
2026-04-14 17:28:34.543854,316914,1609505208217561,2808187677,-0.974048,0.011712,0.144448,-4.87375,-13.51875,7.13125,14.200001,14.192,24.976002,concentric,3,3.0,33739.0,207998.0,76965.0,211447.0,88940.0
2026-04-14 17:28:34.546399,316915,1609505208226468,2808196340,-0.974048,0.011712,0.144448,9.94,-11.43625,5.48625,14.200001,14.192,24.976002,concentric,3,3.0,33739.0,207998.0,76965.0,211447.0,88940.0
2026-04-14 17:28:34.548926,316916,1609505208240904,2808211203,-0.983808,0.062464,0.216672,14.6125,-9.17875,4.9875,14.248001,14.128,26.344002,concentric,3,3.0,33739.0,207998.0,76965.0,211447.0,88940.0
2026-04-14 17:28:34.576391,316927,1609505208250033,2808220399,-0.931104,-0.001952,0.040992,8.26875,-8.4875,5.74,13.304001,14.224001,26.216002,concentric,3,3.0,32679.0,203519.0,75202.0,207751.0,86941.0
2026-04-14 17:28:34.578935,316928,1609505208264802,2808233293,-0.931104,-0.001952,0.040992,-1.4,-9.38,6.825,13.304001,14.224001,26.216002,concentric,3,3.0,32679.0,203519.0,75202.0,207751.0,86941.0
2026-04-14 17:28:34.586381,316929,1609505208274213,2808244115,-0.9272,-0.025376,0.228384,-5.41625,-10.49125,7.86625,13.512001,14.456,24.992,concentric,3,3.0,32679.0,203519.0,75202.0,207751.0,86941.0
2026-04-14 17:28:34.588914,316930,1609505208283285,2808252848,-0.9272,-0.025376,0.228384,-4.62875,-9.66,8.4,13.512001,14.456,24.992,concentric,3,3.0,32679.0,203519.0,75202.0,207751.0,86941.0
2026-04-14 17:28:34.591408,316931,1609505208297809,2808267728,-0.987712,0.037088,-0.017568,-0.8575,-9.19625,8.33875,14.456,13.976001,25.368002,concentric,3,3.0,32679.0,203519.0,75202.0,207751.0,86941.0
2026-04-14 17:28:34.596412,316932,1609505208306737,2808276402,-0.987712,0.037088,-0.017568,2.77375,-8.33875,6.93,14.456,13.976001,25.368002,concentric,3,3.0,32679.0,203519.0,75202.0,207751.0,86941.0
2026-04-14 17:28:34.603534,316933,1609505208315683,2808285113,-0.938912,0.074176,0.001952,0.32375,-9.7475,5.64375,14.224001,13.64,25.168001,concentric,3,3.0,32679.0,203519.0,75202.0,207751.0,86941.0
2026-04-14 17:28:34.620019,316934,1609505208330156,2808299984,-0.905728,-0.046848,0.201056,-9.9575,-10.5175,5.67875,14.792001,14.472001,26.104002,concentric,3,3.0,32679.0,203519.0,75202.0,207751.0,86941.0
2026-04-14 17:28:34.652646,316935,1609505208339071,2808308733,-0.905728,-0.046848,0.201056,-17.885,-9.16125,6.29125,14.792001,14.472001,26.104002,concentric,3,3.0,32679.0,203519.0,75202.0,207751.0,86941.0
2026-04-14 17:28:34.679751,316946,1609505208354035,2808323673,-0.938912,-0.001952,0.242048,-15.26875,-5.17125,6.16,14.176001,13.840001,25.032001,concentric,3,3.0,32235.0,204869.0,74217.0,208471.0,85818.0
2026-04-14 17:28:34.687673,316947,1609505208362989,2808332371,-0.938912,-0.001952,0.242048,-3.7975,-3.2375,3.6225,14.176001,13.840001,25.032001,concentric,3,3.0,32235.0,204869.0,74217.0,208471.0,85818.0
2026-04-14 17:28:34.690174,316948,1609505208377477,2808347390,-0.931104,0.101504,0.103456,9.3275,-2.68625,0.09625,14.136001,14.264001,24.984001,concentric,3,3.0,32235.0,204869.0,74217.0,208471.0,85818.0
2026-04-14 17:28:34.692222,316949,1609505208386407,2808356073,-0.931104,0.101504,0.103456,12.53,-2.765,-2.84375,14.136001,14.264001,24.984001,concentric,3,3.0,32235.0,204869.0,74217.0,208471.0,85818.0
2026-04-14 17:28:34.697500,316950,1609505208395343,2808364782,-0.98576,-0.017568,0.052704,2.065,-3.85,-4.12125,14.336,13.648001,25.376001,concentric,3,3.0,32235.0,204869.0,74217.0,208471.0,85818.0
2026-04-14 17:28:34.699848,316951,1609505208409886,2808379644,-0.98576,-0.017568,0.099552,-12.17125,-4.41,-3.96375,14.336,13.648001,25.376001,concentric,3,3.0,32235.0,204869.0,74217.0,208471.0,85818.0
2026-04-14 17:28:34.707271,316952,1609505208418783,2808388335,-1.057984,-0.064416,0.103456,-14.9625,-4.05125,-3.78875,14.056001,14.488001,26.792002,concentric,3,3.0,32235.0,204869.0,74217.0,208471.0,85818.0
2026-04-14 17:28:34.722465,316953,1609505208433267,2808403217,-1.04432,0.0,0.03904,-6.90375,-2.0475,-5.03125,13.992001,14.400001,25.128,concentric,3,3.0,32235.0,204869.0,74217.0,208471.0,85818.0
2026-04-14 17:28:34.731074,316954,1609505208442220,2808411947,-1.04432,0.0,0.03904,5.01375,0.74375,-6.685,13.992001,14.400001,25.128,concentric,3,3.0,32235.0,204869.0,74217.0,208471.0,85818.0
2026-04-14 17:28:34.765013,316965,1609505208456766,2808426874,-1.00528,0.042944,0.105408,10.885,0.21,-8.44375,14.64,13.840001,23.76,concentric,3,3.0,31839.0,203252.0,73593.0,207137.0,84936.0
2026-04-14 17:28:34.767682,316966,1609505208465775,2808435652,-1.00528,0.042944,0.105408,8.715,-0.455,-9.72125,14.64,13.840001,23.76,concentric,3,3.0,31839.0,203252.0,73593.0,207137.0,84936.0
2026-04-14 17:28:34.770163,316967,1609505208474716,2808444346,-0.99552,-0.050752,0.249856,1.19875,-0.6125,-9.8175,12.976001,14.096001,25.272001,concentric,3,3.0,31839.0,203252.0,73593.0,207137.0,84936.0
2026-04-14 17:28:34.778922,316968,1609505208489206,2808459228,-0.99552,-0.050752,0.249856,-4.6025,0.1575,-8.91625,12.976001,14.096001,25.272001,concentric,3,3.0,31839.0,203252.0,73593.0,207137.0,84936.0
2026-04-14 17:28:34.786398,316969,1609505208498162,2808467959,-1.061888,-0.040992,0.238144,-3.0625,1.79375,-8.1025,14.704,14.112,24.952002,concentric,3,3.0,31839.0,203252.0,73593.0,207137.0,84936.0
2026-04-14 17:28:34.801258,316970,1609505208512731,2808482880,-1.046272,0.037088,0.07808,3.19375,2.91375,-7.35875,14.792001,13.648001,24.808,concentric,3,3.0,31839.0,203252.0,73593.0,207137.0,84936.0
2026-04-14 17:28:34.810822,316971,1609505208521667,2808491576,-1.046272,0.037088,0.07808,8.19,3.08875,-7.58625,14.792001,13.648001,24.808,concentric,3,3.0,31839.0,203252.0,73593.0,207137.0,84936.0
2026-04-14 17:28:34.826277,316972,1609505208536182,2808506455,-1.110688,0.072224,0.111264,8.68875,2.73,-8.46125,14.744,13.76,25.184002,concentric,3,3.0,31839.0,203252.0,73593.0,207137.0,84936.0
2026-04-14 17:28:34.834553,316973,1609505208545151,2808515114,-1.110688,0.072224,0.111264,5.24125,1.82875,-8.32125,14.744,13.76,25.184002,concentric,3,3.0,31839.0,203252.0,73593.0,207137.0,84936.0
2026-04-14 17:28:34.905030,316984,1609505208554590,2808524033,-1.032608,-0.007808,0.0976,0.86625,1.2425,-8.86375,13.784,14.064001,24.04,concentric,3,3.0,31738.0,203844.0,73328.0,207638.0,84598.0
2026-04-14 17:28:34.907079,316985,1609505208569117,2808538934,-1.032608,-0.007808,0.0976,-0.90125,1.89875,-8.4875,13.784,14.064001,24.04,concentric,3,3.0,31738.0,203844.0,73328.0,207638.0,84598.0
2026-04-14 17:28:34.910012,316986,1609505208578050,2808547609,-0.979904,-0.007808,0.197152,0.07875,3.40375,-7.875,14.320001,13.704,23.472002,concentric,3,3.0,31738.0,203844.0,73328.0,207638.0,84598.0
2026-04-14 17:28:34.912654,316987,1609505208592503,2808562467,-1.059936,0.005856,-0.011712,2.5725,5.18875,-6.64125,14.592001,13.496,24.240002,concentric,3,3.0,31738.0,203844.0,73328.0,207638.0,84598.0
2026-04-14 17:28:34.915051,316988,1609505208601484,2808571249,-1.059936,0.005856,-0.011712,4.9175,6.81625,-6.85125,14.592001,13.496,24.240002,concentric,3,3.0,31738.0,203844.0,73328.0,207638.0,84598.0
2026-04-14 17:28:34.917070,316989,1609505208610419,2808579931,-1.059936,0.005856,-0.011712,7.34125,7.035,-7.35,14.592001,13.496,24.240002,concentric,3,3.0,31738.0,203844.0,73328.0,207638.0,84598.0
2026-04-14 17:28:34.920048,316990,1609505208624979,2808594842,-1.057984,0.042944,0.021472,8.28625,6.51875,-7.84875,15.224001,13.536,24.336,concentric,3,3.0,31738.0,203844.0,73328.0,207638.0,84598.0
2026-04-14 17:28:34.922546,316991,1609505208633980,2808603620,-0.997472,0.025376,0.179584,6.78125,6.32625,-8.21625,14.752001,13.104001,24.088001,concentric,3,3.0,31738.0,203844.0,73328.0,207638.0,84598.0
2026-04-14 17:28:34.937600,316992,1609505208648483,2808618564,-0.997472,0.025376,0.179584,4.48875,6.0725,-7.76125,14.752001,13.104001,24.088001,concentric,3,3.0,31738.0,203844.0,73328.0,207638.0,84598.0
2026-04-14 17:28:34.966430,317003,1609505208657462,2808627261,-1.036512,-0.040992,0.042944,2.765,6.27375,-7.72625,15.232,13.488001,24.288002,concentric,3,3.0,31992.0,204815.0,73739.0,208624.0,85119.0
2026-04-14 17:28:34.968928,317004,1609505208672000,2808642213,-1.036512,0.007808,0.08784,3.325,6.65875,-6.9825,15.232,13.488001,28.384,concentric,3,3.0,31992.0,204815.0,73739.0,208624.0,85119.0
2026-04-14 17:28:34.971510,317005,1609505208680929,2808650916,-1.104832,0.007808,0.08784,6.53625,7.65625,-6.09,13.776001,13.816001,27.056002,concentric,3,3.0,31992.0,204815.0,73739.0,208624.0,85119.0
2026-04-14 17:28:34.979745,317006,1609505208689837,2808659569,-1.104832,0.007808,0.08784,11.7775,8.47,-5.11,13.776001,13.816001,27.056002,concentric,3,3.0,31992.0,204815.0,73739.0,208624.0,85119.0
2026-04-14 17:28:34.992680,317007,1609505208704345,2808674475,-1.057984,0.06832,0.134688,14.72625,9.625,-5.075,15.456,13.072001,24.872002,concentric,3,3.0,31992.0,204815.0,73739.0,208624.0,85119.0
2026-04-14 17:28:35.002504,317008,1609505208713311,2808683224,-1.052128,0.046848,0.142496,11.4975,9.66875,-5.13625,15.168001,13.008,24.744001,concentric,3,3.0,31992.0,204815.0,73739.0,208624.0,85119.0
2026-04-14 17:28:35.017653,317009,1609505208727767,2808698112,-1.052128,0.046848,0.142496,4.515,10.6575,-5.36375,15.168001,13.008,24.744001,concentric,3,3.0,31992.0,204815.0,73739.0,208624.0,85119.0
2026-04-14 17:28:35.026412,317010,1609505208736743,2808706783,-1.05408,-0.003904,0.203008,-0.79625,11.40125,-5.59125,15.504001,13.000001,24.568,concentric,3,3.0,31992.0,204815.0,73739.0,208624.0,85119.0
2026-04-14 17:28:35.040151,317011,1609505208751216,2808719569,-1.05408,-0.003904,0.203008,-1.81125,11.795,-5.62625,15.504001,13.000001,24.568,concentric,3,3.0,31992.0,204815.0,73739.0,208624.0,85119.0
2026-04-14 17:28:35.067659,317022,1609505208760482,2808730419,-1.042368,0.025376,0.197152,0.88375,12.11875,-5.85375,14.904,12.712001,24.400002,concentric,3,3.0,32539.0,207130.0,74722.0,210838.0,86263.0
2026-04-14 17:28:35.072698,317023,1609505208769492,2808739132,-1.042368,0.025376,0.197152,5.74875,12.6525,-6.67625,14.904,12.712001,24.400002,concentric,3,3.0,32539.0,207130.0,74722.0,210838.0,86263.0
2026-04-14 17:28:35.073165,317024,1609505208784066,2808754059,-0.997472,0.046848,0.10736,8.58375,13.1075,-7.95375,14.976001,13.064001,25.344002,concentric,3,3.0,32539.0,207130.0,74722.0,210838.0,86263.0
2026-04-14 17:28:35.083733,317025,1609505208793006,2808762751,-1.01504,0.015616,0.017568,7.1575,12.73125,-9.05625,14.976001,13.160001,22.696001,concentric,3,3.0,32539.0,207130.0,74722.0,210838.0,86263.0
2026-04-14 17:28:35.097550,317026,1609505208807497,2808777676,-1.01504,0.015616,0.017568,2.66,13.15125,-10.325,16.0,13.160001,22.696001,concentric,3,3.0,32539.0,207130.0,74722.0,210838.0,86263.0
2026-04-14 17:28:35.107528,317027,1609505208816452,2808786364,-0.972096,-0.03904,0.113216,-1.42625,13.57125,-11.7775,15.832001,13.224001,25.456001,concentric,3,3.0,32539.0,207130.0,74722.0,210838.0,86263.0
2026-04-14 17:28:35.113836,317028,1609505208825420,2808795072,-0.972096,-0.03904,0.113216,-1.65375,14.9275,-12.355001,15.832001,13.224001,25.456001,concentric,3,3.0,32539.0,207130.0,74722.0,210838.0,86263.0
2026-04-14 17:28:35.128859,317029,1609505208839969,2808809945,-0.979904,0.01952,0.122976,0.72625,15.91625,-12.81,16.104,13.056001,24.248001,concentric,3,3.0,32539.0,207130.0,74722.0,210838.0,86263.0
2026-04-14 17:28:35.137672,317030,1609505208848895,2808818687,-0.979904,0.01952,0.122976,3.85875,16.975,-13.545,16.104,13.056001,24.248001,concentric,3,3.0,32539.0,207130.0,74722.0,210838.0,86263.0
2026-04-14 17:28:35.166404,317041,1609505208863484,2808832015,-1.007232,0.03904,0.138592,3.22,17.255,-13.9475,15.648001,12.856001,23.880001,concentric,3,3.0,33010.0,207322.0,75586.0,211130.0,87182.0
2026-04-14 17:28:35.168412,317042,1609505208872960,2808842774,-1.007232,0.03904,-0.01952,-2.31,16.4675,-13.58,15.648001,12.856001,23.880001,concentric,3,3.0,33010.0,207322.0,75586.0,211130.0,87182.0
2026-04-14 17:28:35.174219,317043,1609505208882003,2808851527,-1.00528,-0.042944,-0.01952,-6.62375,15.3475,-13.16,16.296001,13.288001,23.104002,concentric,3,3.0,33010.0,207322.0,75586.0,211130.0,87182.0
2026-04-14 17:28:35.185041,317044,1609505208896499,2808866406,-1.01504,-0.023424,0.06832,-6.9475,14.805,-12.43375,16.752,13.216001,24.192001,concentric,3,3.0,33010.0,207322.0,75586.0,211130.0,87182.0
2026-04-14 17:28:35.194500,317045,1609505208905449,2808875090,-1.01504,-0.023424,0.06832,-4.36625,15.4525,-11.73375,16.752,13.216001,24.192001,concentric,3,3.0,33010.0,207322.0,75586.0,211130.0,87182.0
2026-04-14 17:28:35.229739,317046,1609505208919910,2808889948,-1.007232,0.01952,0.0,-1.6625,16.4675,-10.4475,15.872001,13.256001,24.944,concentric,3,3.0,33010.0,207322.0,75586.0,211130.0,87182.0
2026-04-14 17:28:35.233026,317047,1609505208928813,2808898755,-1.007232,0.01952,0.0,-0.63,16.33625,-9.7125,15.872001,13.256001,24.944,concentric,3,3.0,33010.0,207322.0,75586.0,211130.0,87182.0
2026-04-14 17:28:35.235155,317048,1609505208943259,2808911597,-1.08336,0.011712,-0.060512,-4.57625,15.5225,-9.45875,16.176,13.64,24.736002,concentric,3,3.0,33010.0,207322.0,75586.0,211130.0,87182.0
2026-04-14 17:28:35.331411,317059,1609505208952490,2808922339,-1.08336,0.011712,-0.060512,-9.625,14.91875,-9.292501,16.176,13.64,24.736002,concentric,3,3.0,33122.0,208602.0,75744.0,212361.0,87381.0
2026-04-14 17:28:35.333993,317060,1609505208961423,2808931066,-1.038464,0.0,0.173728,-10.91125,15.2425,-8.155,16.392,13.104001,24.184002,concentric,3,3.0,33122.0,208602.0,75744.0,212361.0,87381.0
2026-04-14 17:28:35.336383,317061,1609505208975900,2808945922,-1.022848,0.013664,0.056608,-10.0275,15.0325,-8.015,16.696001,13.672001,24.912,concentric,3,3.0,33122.0,208602.0,75744.0,212361.0,87381.0
2026-04-14 17:28:35.338911,317062,1609505208984917,2808954681,-1.022848,0.013664,0.056608,-8.05875,15.28625,-8.02375,16.696001,13.672001,24.912,concentric,3,3.0,33122.0,208602.0,75744.0,212361.0,87381.0
2026-04-14 17:28:35.341420,317063,1609505208999427,2808969551,-1.001376,0.017568,0.089792,-7.37625,15.60125,-7.81375,16.648,13.832001,25.552002,concentric,3,3.0,33122.0,208602.0,75744.0,212361.0,87381.0
2026-04-14 17:28:35.344239,317064,1609505209008350,2808978266,-1.001376,0.017568,0.089792,-9.45,15.3125,-7.93625,16.648,13.832001,25.552002,concentric,3,3.0,33122.0,208602.0,75744.0,212361.0,87381.0
2026-04-14 17:28:35.346398,317065,1609505209022833,2808993122,-0.997472,-0.007808,0.154208,-11.85625,14.60375,-7.81375,16.552,13.992001,25.768002,concentric,3,3.0,33122.0,208602.0,75744.0,212361.0,87381.0
2026-04-14 17:28:35.349013,317066,1609505209031727,2809001791,-0.997472,-0.007808,0.154208,-14.0,13.85125,-7.39375,16.552,13.992001,25.768002,concentric,3,3.0,33122.0,208602.0,75744.0,212361.0,87381.0
2026-04-14 17:28:35.353835,317067,1609505209040814,2809010560,-0.989664,-0.054656,0.138592,-15.61,13.93,-6.86875,16.016,14.280001,26.144001,concentric,3,3.0,33122.0,208602.0,75744.0,212361.0,87381.0
2026-04-14 17:28:35.378479,317078,1609505209055535,2809025559,-0.989664,-0.052704,0.00976,-13.877501,14.55125,-6.27375,15.952001,14.208001,24.048,concentric,3,3.0,35143.0,217129.0,79342.0,220327.0,91549.0
2026-04-14 17:28:35.381296,317079,1609505209064700,2809034333,-0.989664,-0.052704,0.00976,-10.823751,14.90125,-5.34625,15.952001,14.208001,24.048,concentric,3,3.0,35143.0,217129.0,79342.0,220327.0,91549.0
2026-04-14 17:28:35.383820,317080,1609505209079257,2809049248,-0.98576,-0.01952,0.027328,-9.02125,15.0325,-5.08375,16.880001,14.104001,24.856,concentric,3,3.0,35143.0,217129.0,79342.0,220327.0,91549.0
2026-04-14 17:28:35.386274,317081,1609505209088187,2809057983,-0.98576,-0.01952,0.027328,-12.29375,14.46375,-4.82125,16.880001,14.104001,24.856,concentric,3,3.0,35143.0,217129.0,79342.0,220327.0,91549.0
2026-04-14 17:28:35.388789,317082,1609505209097130,2809066674,-1.065792,-0.035136,0.00976,-18.48,13.92125,-4.585,17.104,14.256001,24.76,concentric,3,3.0,35143.0,217129.0,79342.0,220327.0,91549.0
2026-04-14 17:28:35.399787,317083,1609505209111672,2809081626,-1.065792,-0.035136,0.00976,-22.995,14.8575,-4.71625,17.104,14.256001,24.76,concentric,3,3.0,35143.0,217129.0,79342.0,220327.0,91549.0
2026-04-14 17:28:35.410189,317084,1609505209120589,2809090308,-1.048224,-0.083936,-0.05856,-23.86125,16.03,-4.6375,18.232,13.912001,23.552002,concentric,3,3.0,35143.0,217129.0,79342.0,220327.0,91549.0
2026-04-14 17:28:35.426353,317085,1609505209135068,2809105207,-0.964288,-0.027328,0.064416,-21.25375,17.07125,-5.31125,18.232,15.960001,25.152,concentric,3,3.0,35143.0,217129.0,79342.0,220327.0,91549.0
2026-04-14 17:28:35.433607,317086,1609505209143972,2809113869,-0.964288,-0.027328,0.064416,-16.42375,16.66,-5.97625,17.776001,14.392001,25.152,concentric,3,3.0,35143.0,217129.0,79342.0,220327.0,91549.0
2026-04-14 17:28:35.468533,317097,1609505209158630,2809128786,-1.018944,-0.033184,-0.025376,-13.79875,15.96875,-6.39625,18.088001,14.472001,23.68,concentric,3,3.0,38892.0,227082.0,86141.0,229170.0,99458.0
2026-04-14 17:28:35.470992,317098,1609505209167684,2809137551,-1.018944,-0.033184,-0.025376,-15.9775,14.25375,-6.34375,18.088001,14.472001,23.68,concentric,3,3.0,38892.0,227082.0,86141.0,229170.0,99458.0
2026-04-14 17:28:35.473561,317099,1609505209176639,2809146240,-1.026752,-0.05856,-0.052704,-21.27125,13.08125,-5.7575,18.664001,14.304001,25.488,concentric,3,3.0,38892.0,227082.0,86141.0,229170.0,99458.0
2026-04-14 17:28:35.481073,317100,1609505209191183,2809161144,-1.026752,-0.05856,-0.052704,-24.14125,13.011251,-4.2525,18.664001,14.304001,25.488,concentric,3,3.0,38892.0,227082.0,86141.0,229170.0,99458.0
2026-04-14 17:28:35.488654,317101,1609505209200104,2809169866,-1.040416,-0.062464,-0.035136,-23.2925,13.48375,-3.21125,18.616001,15.080001,24.008001,concentric,3,3.0,38892.0,227082.0,86141.0,229170.0,99458.0
2026-04-14 17:28:35.519875,317102,1609505209214618,2809184767,-1.040416,-0.062464,-0.035136,-20.9475,14.21,-2.79125,18.616001,15.080001,24.008001,concentric,3,3.0,38892.0,227082.0,86141.0,229170.0,99458.0
2026-04-14 17:28:35.522170,317103,1609505209223568,2809193439,-0.981856,-0.011712,0.066368,-16.94875,13.9825,-2.1875,18.504002,14.984001,25.856,concentric,3,3.0,38892.0,227082.0,86141.0,229170.0,99458.0
2026-04-14 17:28:35.529851,317104,1609505209238020,2809208282,-1.003328,0.003904,0.076128,-14.7175,14.0,-2.0475,18.368,14.976001,23.768002,concentric,3,3.0,38892.0,227082.0,86141.0,229170.0,99458.0
2026-04-14 17:28:35.534837,317105,1609505209246962,2809216991,-1.003328,0.003904,0.076128,-16.09125,13.5275,-2.38,18.368,14.976001,23.768002,concentric,3,3.0,38892.0,227082.0,86141.0,229170.0,99458.0
2026-04-14 17:28:35.567336,317116,1609505209256560,2809225903,-1.04432,-0.027328,0.08784,-21.07,13.09875,-2.3275,18.368,15.096001,22.416,concentric,3,3.0,41430.0,231915.0,90675.0,233108.0,104702.0
2026-04-14 17:28:35.569616,317117,1609505209271167,2809240861,-1.04432,-0.027328,0.08784,-25.13875,13.37875,-2.0125,18.416,15.096001,22.416,concentric,3,3.0,41430.0,231915.0,90675.0,233108.0,104702.0
2026-04-14 17:28:35.594791,317118,1609505209280166,2809249559,-1.026752,0.0,0.081984,-23.23125,14.21,-2.12625,17.512001,15.312,24.960001,concentric,3,3.0,41430.0,231915.0,90675.0,233108.0,104702.0
2026-04-14 17:28:35.619835,317119,1609505209294676,2809264427,-1.026752,0.0,0.081984,-16.94875,15.35625,-3.19375,17.512001,15.312,24.960001,concentric,3,3.0,41430.0,231915.0,90675.0,233108.0,104702.0
2026-04-14 17:28:35.644545,317120,1609505209303584,2809273098,-1.001376,0.0,0.027328,-14.18375,15.855001,-4.33125,17.104,15.032001,25.936,concentric,3,3.0,41430.0,231915.0,90675.0,233108.0,104702.0
2026-04-14 17:28:35.647060,317121,1609505209312493,2809281775,-1.001376,0.0,0.027328,-16.52,15.1725,-4.41875,17.104,15.032001,25.936,concentric,3,3.0,41430.0,231915.0,90675.0,233108.0,104702.0
2026-04-14 17:28:35.652236,317122,1609505209326960,2809296679,-0.958432,-0.074176,0.005856,-21.56875,14.8575,-4.13,16.856,15.352001,24.76,concentric,3,3.0,41430.0,231915.0,90675.0,233108.0,104702.0
2026-04-14 17:28:35.654711,317123,1609505209335896,2809305394,-0.958432,-0.074176,0.07808,-24.64,14.175,-3.255,16.856,15.352001,24.76,concentric,3,3.0,41430.0,231915.0,90675.0,233108.0,104702.0
2026-04-14 17:28:35.657193,317124,1609505209350360,2809320279,-0.972096,-0.0488,0.07808,-23.52,13.545,-2.66875,16.616001,15.248001,23.728,concentric,3,3.0,41430.0,231915.0,90675.0,233108.0,104702.0
2026-04-14 17:28:35.685181,317135,1609505209359465,2809328972,-1.032608,-0.021472,-0.103456,-19.52125,12.74875,-1.8725,16.856,15.104001,23.736002,concentric,3,3.0,41162.0,232628.0,90211.0,233245.0,104254.0
2026-04-14 17:28:35.687688,317136,1609505209368437,2809337779,-1.032608,-0.021472,-0.103456,-17.0275,12.53,-2.14375,16.856,15.104001,23.736002,concentric,3,3.0,41162.0,232628.0,90211.0,233245.0,104254.0
2026-04-14 17:28:35.690126,317137,1609505209382955,2809352710,-0.944768,-0.033184,0.081984,-19.215,11.83875,-2.70375,16.288,14.928,22.952002,concentric,3,3.0,41162.0,232628.0,90211.0,233245.0,104254.0
2026-04-14 17:28:35.692734,317138,1609505209391893,2809361430,-0.944768,-0.033184,0.081984,-24.01,11.865,-1.7325,16.288,14.928,22.952002,concentric,3,3.0,41162.0,232628.0,90211.0,233245.0,104254.0
2026-04-14 17:28:35.697704,317139,1609505209406417,2809376394,-1.00528,-0.037088,-0.148352,-25.33125,11.85625,-0.9625,15.592001,14.792001,22.488,concentric,3,3.0,41162.0,232628.0,90211.0,233245.0,104254.0
2026-04-14 17:28:35.704011,317140,1609505209415361,2809385100,-1.00528,-0.037088,-0.148352,-22.19,11.24375,-0.35875,15.592001,14.792001,22.488,concentric,3,3.0,41162.0,232628.0,90211.0,233245.0,104254.0
2026-04-14 17:28:35.720201,317141,1609505209429834,2809399969,-1.040416,0.060512,0.0,-19.3025,10.14125,0.65625,14.848001,14.096001,20.552,concentric,3,3.0,41162.0,232628.0,90211.0,233245.0,104254.0
2026-04-14 17:28:35.727869,317142,1609505209438752,2809408677,-1.032608,0.021472,0.056608,-23.82625,9.12625,1.7325,14.552001,14.464001,20.672,concentric,3,3.0,41162.0,232628.0,90211.0,233245.0,104254.0
2026-04-14 17:28:35.737529,317143,1609505209447671,2809417379,-1.032608,0.021472,0.056608,-38.2725,9.58125,3.01,14.552001,14.464001,20.672,concentric,3,3.0,41162.0,232628.0,90211.0,233245.0,104254.0
2026-04-14 17:28:35.770144,317154,1609505209462300,2809432361,-0.933056,-0.163968,0.005856,-53.87375,11.0075,4.40125,14.64,14.512001,19.464,concentric,3,3.0,40959.0,235758.0,89533.0,234525.0,103607.0
2026-04-14 17:28:35.772259,317155,1609505209471283,2809441103,-0.933056,-0.163968,0.005856,-52.71875,14.91,5.705,14.64,14.512001,19.464,concentric,3,3.0,40959.0,235758.0,89533.0,234525.0,103607.0
2026-04-14 17:28:35.775186,317156,1609505209485807,2809456070,-0.974048,-0.089792,-0.152256,-31.535,18.54125,4.83875,14.280001,13.672001,18.2,concentric,3,3.0,40959.0,235758.0,89533.0,234525.0,103607.0
2026-04-14 17:28:35.786103,317157,1609505209494783,2809464783,-0.974048,-0.089792,-0.152256,-8.75,20.405,3.99,14.280001,13.672001,18.2,concentric,3,3.0,40959.0,235758.0,89533.0,234525.0,103607.0
2026-04-14 17:28:35.797658,317158,1609505209509259,2809477631,-1.085312,0.080032,-0.00976,-2.24875,19.52125,3.15,15.328001,13.400001,17.016,concentric,3,3.0,40959.0,235758.0,89533.0,234525.0,103607.0
2026-04-14 17:28:35.808907,317159,1609505209518572,2809488466,-0.989664,0.031232,-0.130784,-8.7325,18.095,0.9625,15.304001,13.712001,17.104,concentric,3,3.0,40959.0,235758.0,89533.0,234525.0,103607.0
2026-04-14 17:28:35.816433,317160,1609505209527886,2809497560,-0.989664,0.031232,-0.130784,-21.20125,15.9075,-1.8725,15.304001,13.712001,17.104,concentric,3,3.0,40959.0,235758.0,89533.0,234525.0,103607.0
2026-04-14 17:28:35.831382,317161,1609505209542517,2809512552,-1.087264,-0.037088,-0.201056,-27.64125,13.965,-4.2175,16.808,13.432001,14.800001,concentric,3,3.0,40959.0,235758.0,89533.0,234525.0,103607.0
2026-04-14 17:28:35.842166,317162,1609505209551450,2809521235,-1.087264,-0.037088,-0.201056,-27.8425,12.50375,-6.265,16.808,13.432001,14.800001,concentric,3,3.0,40959.0,235758.0,89533.0,234525.0,103607.0
2026-04-14 17:28:35.872099,317173,1609505209566407,2809534819,-1.169248,-0.035136,-0.03904,-24.54375,10.43875,-6.79,17.968,14.048,14.168,concentric,3,3.0,39928.0,232003.0,87989.0,231183.0,101793.0
2026-04-14 17:28:35.875135,317174,1609505209576035,2809545758,-1.169248,-0.035136,-0.03904,-18.69,9.948751,-5.08375,17.968,14.048,14.168,concentric,3,3.0,39928.0,232003.0,87989.0,231183.0,101793.0
2026-04-14 17:28:35.877136,317175,1609505209584989,2809554577,-1.0248,-0.01952,0.027328,-16.5725,11.8475,-3.8675,18.08,14.840001,15.448001,concentric,3,3.0,39928.0,232003.0,87989.0,231183.0,101793.0
2026-04-14 17:28:35.890102,317176,1609505209599469,2809569474,-1.138016,-0.054656,-0.277184,-21.41125,14.13125,-4.4275,20.160002,15.104001,14.696001,concentric,3,3.0,39928.0,232003.0,87989.0,231183.0,101793.0
2026-04-14 17:28:35.899794,317177,1609505209608420,2809578148,-1.138016,-0.054656,-0.277184,-25.78625,15.53125,-4.585,20.160002,15.104001,14.696001,concentric,3,3.0,39928.0,232003.0,87989.0,231183.0,101793.0
2026-04-14 17:28:35.932544,317178,1609505209622897,2809593008,-1.050176,-0.081984,-0.144448,-22.16375,15.47,-5.73125,19.632002,15.920001,15.408001,concentric,3,3.0,39928.0,232003.0,87989.0,231183.0,101793.0
2026-04-14 17:28:35.934719,317179,1609505209631799,2809601720,-1.050176,-0.081984,-0.144448,-13.755,13.23875,-6.55375,19.632002,15.920001,15.408001,concentric,3,3.0,39928.0,232003.0,87989.0,231183.0,101793.0
2026-04-14 17:28:35.937541,317180,1609505209640712,2809610396,-1.046272,-0.017568,-0.249856,-8.18125,10.21125,-6.11625,20.464,15.856001,14.72,concentric,3,3.0,39928.0,232003.0,87989.0,231183.0,101793.0
2026-04-14 17:28:36.018986,317191,1609505209655184,2809625780,-1.046272,-0.017568,-0.249856,-7.90125,7.455,-4.83875,20.464,15.856001,14.72,concentric,3,3.0,37102.0,224550.0,82913.0,223899.0,95884.0
2026-04-14 17:28:36.020793,317192,1609505209664163,2809634518,-1.057984,-0.021472,-0.081984,-12.792501,5.41625,-4.62875,23.232,16.256,14.056001,concentric,3,3.0,37102.0,224550.0,82913.0,223899.0,95884.0
2026-04-14 17:28:36.020874,317193,1609505209678641,2809647344,-1.09312,-0.060512,-0.083936,-20.0025,3.77125,-4.445,23.232,17.112001,14.544001,concentric,3,3.0,37102.0,224550.0,82913.0,223899.0,95884.0
2026-04-14 17:28:36.021877,317194,1609505209687911,2809658078,-1.09312,-0.060512,-0.083936,-24.815,3.56125,-4.50625,22.672,17.112001,14.544001,concentric,3,3.0,37102.0,224550.0,82913.0,223899.0,95884.0
2026-04-14 17:28:36.025060,317195,1609505209696846,2809666765,-1.09312,-0.060512,-0.083936,-21.77,4.15625,-4.40125,22.672,17.112001,14.544001,concentric,3,3.0,37102.0,224550.0,82913.0,223899.0,95884.0
2026-04-14 17:28:36.027189,317196,1609505209711330,2809681637,-1.0248,-0.095648,-0.183488,-13.1425,4.795,-4.165,23.136002,17.712,14.264001,concentric,3,3.0,37102.0,224550.0,82913.0,223899.0,95884.0
2026-04-14 17:28:36.030000,317197,1609505209720261,2809690325,-1.067744,0.033184,-0.093696,-5.1975,4.97875,-4.48,23.28,18.296001,16.488,concentric,3,3.0,37102.0,224550.0,82913.0,223899.0,95884.0
2026-04-14 17:28:36.032507,317198,1609505209734842,2809703195,-1.067744,0.033184,-0.093696,-1.21625,4.06,-4.66375,23.28,18.296001,16.488,concentric,3,3.0,37102.0,224550.0,82913.0,223899.0,95884.0
2026-04-14 17:28:36.035014,317199,1609505209744012,2809713985,-1.155584,0.050752,-0.152256,-3.29,2.45875,-5.92375,24.112001,18.352001,15.488001,concentric,3,3.0,37102.0,224550.0,82913.0,223899.0,95884.0
2026-04-14 17:28:36.074007,317210,1609505209759010,2809729017,-1.155584,0.050752,-0.228384,-11.585,0.3675,-8.35625,24.112001,18.352001,15.488001,concentric,3,3.0,35532.0,222037.0,79935.0,220984.0,92535.0
2026-04-14 17:28:36.076426,317211,1609505209768070,2809737820,-1.065792,-0.134688,-0.228384,-21.84,-1.91625,-9.3975,24.728,18.744001,15.960001,concentric,3,3.0,35532.0,222037.0,79935.0,220984.0,92535.0
2026-04-14 17:28:36.078992,317212,1609505209777015,2809746500,-1.065792,-0.134688,-0.228384,-18.76875,-2.1525,-8.16375,24.728,18.744001,15.960001,concentric,3,3.0,35532.0,222037.0,79935.0,220984.0,92535.0
2026-04-14 17:28:36.081398,317213,1609505209791545,2809761427,-1.087264,-0.08784,-0.212768,-4.76,-0.665,-7.20125,23.944,19.112001,17.432001,concentric,3,3.0,35532.0,222037.0,79935.0,220984.0,92535.0
2026-04-14 17:28:36.088426,317214,1609505209800476,2809770146,-1.128256,0.00976,-0.23424,6.48375,1.505,-7.11375,23.672,19.288,18.952002,concentric,3,3.0,35532.0,222037.0,79935.0,220984.0,92535.0
2026-04-14 17:28:36.104779,317215,1609505209814982,2809785031,-1.128256,0.00976,-0.23424,8.085,3.61375,-6.9475,23.672,19.288,18.952002,concentric,3,3.0,35532.0,222037.0,79935.0,220984.0,92535.0
2026-04-14 17:28:36.115101,317216,1609505209823930,2809793693,-1.130208,0.03904,-0.07808,4.13,5.25,-6.48375,24.448002,19.152,17.272001,concentric,3,3.0,35532.0,222037.0,79935.0,220984.0,92535.0
2026-04-14 17:28:36.121214,317217,1609505209832837,2809802406,-1.130208,0.03904,-0.07808,-7.60375,6.69375,-6.76375,24.448002,19.152,17.272001,concentric,3,3.0,35532.0,222037.0,79935.0,220984.0,92535.0
2026-04-14 17:28:36.137560,317218,1609505209847341,2809817294,-1.052128,-0.105408,-0.081984,-20.265,7.70875,-7.35,24.288002,19.704,18.36,concentric,3,3.0,35532.0,222037.0,79935.0,220984.0,92535.0
2026-04-14 17:28:36.144676,317219,1609505209856257,2809825972,-1.052128,-0.105408,-0.081984,-22.19,7.7175,-6.475,24.288002,19.704,18.36,concentric,3,3.0,35532.0,222037.0,79935.0,220984.0,92535.0
2026-04-14 17:28:36.174808,317230,1609505209870914,2809840936,-0.997472,-0.093696,-0.130784,-14.39375,7.14875,-5.29375,25.552002,19.512001,17.456001,concentric,3,3.0,35129.0,220395.0,79139.0,218941.0,91707.0
2026-04-14 17:28:36.177302,317231,1609505209879848,2809849620,-1.173152,0.05856,-0.220576,-8.1375,6.1075,-4.0425,25.552002,19.512001,19.872002,concentric,3,3.0,35129.0,220395.0,79139.0,218941.0,91707.0
2026-04-14 17:28:36.185180,317232,1609505209894366,2809864555,-1.173152,0.05856,-0.220576,-7.6125,4.83875,-3.36875,25.44,19.688002,19.872002,concentric,3,3.0,35129.0,220395.0,79139.0,218941.0,91707.0
2026-04-14 17:28:36.191425,317233,1609505209903315,2809873259,-1.075552,-0.066368,-0.128832,-13.3,2.73,-2.79125,25.352001,20.36,19.048,concentric,3,3.0,35129.0,220395.0,79139.0,218941.0,91707.0
2026-04-14 17:28:36.203269,317234,1609505209912324,2809881955,-1.075552,-0.066368,-0.128832,-24.6575,1.0325,-2.345,25.352001,20.36,19.048,concentric,3,3.0,35129.0,220395.0,79139.0,218941.0,91707.0
2026-04-14 17:28:36.216285,317235,1609505209926786,2809896824,-1.077504,-0.179584,-0.210816,-28.6125,1.26,-1.4,24.568,20.2,19.336,concentric,3,3.0,35129.0,220395.0,79139.0,218941.0,91707.0
2026-04-14 17:28:36.225712,317236,1609505209935746,2809905504,-1.077504,-0.179584,-0.210816,-14.2975,2.3625,-1.84625,24.568,20.2,19.336,concentric,3,3.0,35129.0,220395.0,79139.0,218941.0,91707.0
2026-04-14 17:28:36.238972,317237,1609505209950212,2809920431,-1.040416,-0.074176,-0.163968,10.87625,4.4275,-2.82625,25.784,19.688002,18.336,concentric,3,3.0,35129.0,220395.0,79139.0,218941.0,91707.0
2026-04-14 17:28:36.275948,317248,1609505209959292,2809929661,-1.040416,-0.074176,-0.163968,26.705,5.88875,-2.44125,25.784,19.688002,18.336,eccentric,3,3.0,34053.0,216176.0,77367.0,215330.0,89538.0
2026-04-14 17:28:36.278529,317249,1609505209973877,2809942532,-1.194624,0.1464,-0.093696,20.97375,5.04875,-2.4325,25.608002,20.016,17.424002,eccentric,3,3.0,34053.0,216176.0,77367.0,215330.0,89538.0
2026-04-14 17:28:36.280780,317250,1609505209983150,2809953268,-1.1712,-0.064416,-0.277184,0.14875,3.38625,-3.2025,25.840002,20.36,18.496,eccentric,3,3.0,34053.0,216176.0,77367.0,215330.0,89538.0
2026-04-14 17:28:36.292461,317251,1609505209992112,2809961984,-1.1712,-0.064416,-0.277184,-25.095,0.5775,-3.61375,25.840002,20.36,18.496,eccentric,3,3.0,34053.0,216176.0,77367.0,215330.0,89538.0
2026-04-14 17:28:36.295729,317252,1609505210006588,2809976875,-1.091168,-0.210816,-0.128832,-36.89875,-1.05875,-3.12375,26.136002,20.576,18.76,eccentric,3,3.0,34053.0,216176.0,77367.0,215330.0,89538.0
2026-04-14 17:28:36.304619,317253,1609505210015510,2809985559,-1.091168,-0.210816,-0.128832,-25.8125,-0.525,-1.75875,26.136002,20.576,18.76,eccentric,3,3.0,34053.0,216176.0,77367.0,215330.0,89538.0
2026-04-14 17:28:36.331122,317254,1609505210030017,2809998387,-1.218048,-0.05856,-0.201056,-1.74125,1.9425,-1.07625,25.176,20.544,19.160002,eccentric,3,3.0,34053.0,216176.0,77367.0,215330.0,89538.0
2026-04-14 17:28:36.333693,317255,1609505210039209,2810009146,-1.218048,-0.05856,-0.201056,17.85875,3.59625,0.77,25.176,20.544,19.160002,eccentric,3,3.0,34053.0,216176.0,77367.0,215330.0,89538.0
2026-04-14 17:28:36.362161,317256,1609505210048110,2810017975,-1.126304,0.033184,-0.20496,18.92625,3.43875,2.485,26.224,20.496,18.808,eccentric,3,3.0,34053.0,216176.0,77367.0,215330.0,89538.0
2026-04-14 17:28:36.399628,317267,1609505210063269,2810032903,-1.169248,-0.00976,-0.021472,5.1975,2.44125,2.905,25.496,20.44,19.544,eccentric,3,3.0,32648.0,213852.0,74626.0,212509.0,86161.0
2026-04-14 17:28:36.402208,317268,1609505210072192,2810041661,-1.169248,-0.00976,-0.021472,-10.73625,1.9775,2.1,25.496,20.44,19.544,eccentric,3,3.0,32648.0,213852.0,74626.0,212509.0,86161.0
2026-04-14 17:28:36.404710,317269,1609505210086684,2810056555,-1.130208,-0.105408,-0.015616,-17.955,1.5575,-0.5425,25.616001,20.992,19.712002,eccentric,3,3.0,32648.0,213852.0,74626.0,212509.0,86161.0
2026-04-14 17:28:36.407289,317270,1609505210095605,2810065230,-1.130208,-0.105408,-0.015616,-12.36375,2.09125,-2.84375,25.616001,20.992,19.712002,eccentric,3,3.0,32648.0,213852.0,74626.0,212509.0,86161.0
2026-04-14 17:28:36.409657,317271,1609505210104549,2810073945,-1.251232,-0.042944,-0.411872,2.19625,2.66,-4.24375,25.528002,20.880001,20.160002,eccentric,3,3.0,32648.0,213852.0,74626.0,212509.0,86161.0
2026-04-14 17:28:36.412233,317272,1609505210119131,2810088891,-1.251232,-0.042944,-0.411872,16.80875,2.87,-4.235,25.528002,20.880001,20.160002,eccentric,3,3.0,32648.0,213852.0,74626.0,212509.0,86161.0
2026-04-14 17:28:36.416073,317273,1609505210128059,2810097596,-1.163392,-0.005856,-0.208864,19.215,0.9625,-3.59625,26.312002,20.424002,19.432001,eccentric,3,3.0,32648.0,213852.0,74626.0,212509.0,86161.0
2026-04-14 17:28:36.432367,317274,1609505210142659,2810112475,-1.1712,-0.109312,-0.201056,6.44875,-1.26,-2.5725,26.568,20.768002,20.136002,eccentric,3,3.0,32648.0,213852.0,74626.0,212509.0,86161.0
2026-04-14 17:28:36.442376,317275,1609505210151689,2810121151,-1.1712,-0.109312,-0.201056,-7.9275,-1.95125,-1.70625,26.568,20.768002,20.136002,eccentric,3,3.0,32648.0,213852.0,74626.0,212509.0,86161.0
2026-04-14 17:28:36.473650,317286,1609505210166418,2810136140,-1.165344,-0.121024,-0.050752,-14.65625,-1.4525,-0.35,27.12,20.632002,19.320002,eccentric,3,3.0,32351.0,215948.0,73813.0,213591.0,85292.0
2026-04-14 17:28:36.478514,317287,1609505210175472,2810144846,-1.165344,-0.121024,-0.050752,-9.86125,-0.42,0.9275,27.12,20.632002,19.320002,eccentric,3,3.0,32351.0,215948.0,73813.0,213591.0,85292.0
2026-04-14 17:28:36.480924,317288,1609505210184400,2810153555,-1.233664,0.007808,-0.20496,2.66,1.085,1.5575,25.400002,20.792002,21.488,eccentric,3,3.0,32351.0,215948.0,73813.0,213591.0,85292.0
2026-04-14 17:28:36.488888,317289,1609505210198979,2810168431,-1.233664,0.007808,-0.20496,12.11875,2.28375,0.74375,25.400002,20.792002,21.488,eccentric,3,3.0,32351.0,215948.0,73813.0,213591.0,85292.0
2026-04-14 17:28:36.495942,317290,1609505210207914,2810177120,-1.22976,0.050752,-0.23424,11.20875,2.5725,-0.6825,26.248001,20.664001,19.208,eccentric,3,3.0,32351.0,215948.0,73813.0,213591.0,85292.0
2026-04-14 17:28:36.510904,317291,1609505210222404,2810191980,-1.163392,-0.033184,-0.027328,2.4325,2.73875,-1.47,27.192001,20.664001,17.064001,eccentric,3,3.0,32351.0,215948.0,73813.0,213591.0,85292.0
2026-04-14 17:28:36.520089,317292,1609505210231356,2810200671,-1.163392,-0.033184,-0.027328,-8.12875,3.19375,-2.9575,27.192001,20.664001,17.064001,eccentric,3,3.0,32351.0,215948.0,73813.0,213591.0,85292.0
2026-04-14 17:28:36.528990,317293,1609505210240309,2810209370,-1.163392,-0.033184,-0.027328,-14.6825,3.50875,-4.13,27.192001,20.664001,17.064001,eccentric,3,3.0,32351.0,215948.0,73813.0,213591.0,85292.0
2026-04-14 17:28:36.544836,317294,1609505210254811,2810224255,-1.243424,-0.115168,-0.306464,-11.15625,4.34875,-3.80625,27.184002,20.616001,19.944,eccentric,3,3.0,32351.0,215948.0,73813.0,213591.0,85292.0
2026-04-14 17:28:36.600802,317305,1609505210264288,2810233295,-1.194624,-0.080032,-0.173728,-0.42875,4.26125,-3.77125,27.512001,20.512001,19.904001,eccentric,3,3.0,32603.0,218454.0,74152.0,215064.0,85669.0
2026-04-14 17:28:36.603941,317306,1609505210278750,2810248187,-1.194624,-0.080032,-0.173728,12.43375,3.395,-3.21125,27.512001,20.512001,19.904001,eccentric,3,3.0,32603.0,218454.0,74152.0,215064.0,85669.0
2026-04-14 17:28:36.606361,317307,1609505210287638,2810256807,-1.245376,0.007808,-0.255712,18.17375,1.855,-1.995,26.432001,21.04,20.76,eccentric,3,3.0,32603.0,218454.0,74152.0,215064.0,85669.0
2026-04-14 17:28:36.608556,317308,1609505210302130,2810271739,-1.245376,-0.054656,-0.187392,11.75125,0.42,-1.60125,26.432001,21.04,20.76,eccentric,3,3.0,32603.0,218454.0,74152.0,215064.0,85669.0
2026-04-14 17:28:36.610963,317309,1609505210311100,2810280440,-1.194624,-0.05856,-0.187392,0.175,0.245,-0.5075,26.400002,20.6,20.160002,eccentric,3,3.0,32603.0,218454.0,74152.0,215064.0,85669.0
2026-04-14 17:28:36.613989,317310,1609505210320156,2810289153,-1.194624,-0.05856,-0.187392,-9.09125,0.72625,-0.49,26.400002,20.6,20.160002,eccentric,3,3.0,32603.0,218454.0,74152.0,215064.0,85669.0
2026-04-14 17:28:36.624010,317311,1609505210334692,2810304054,-1.208288,-0.111264,-0.259616,-8.4525,1.49625,-1.26875,27.296001,20.76,19.528002,eccentric,3,3.0,32603.0,218454.0,74152.0,215064.0,85669.0
2026-04-14 17:28:36.631175,317312,1609505210343644,2810312755,-1.22,-0.027328,-0.13664,0.49,1.49625,-1.82,27.944002,20.296001,19.344002,eccentric,3,3.0,32603.0,218454.0,74152.0,215064.0,85669.0
2026-04-14 17:28:36.646390,317313,1609505210358095,2810327663,-1.22,-0.027328,-0.13664,9.94,1.12,-1.8375,27.944002,20.296001,19.344002,eccentric,3,3.0,32603.0,218454.0,74152.0,215064.0,85669.0
2026-04-14 17:28:36.697941,317324,1609505210367158,2810336413,-1.163392,0.00976,-0.080032,12.9325,0.63875,-2.91375,27.528002,20.112001,19.648,eccentric,3,3.0,32847.0,219411.0,74656.0,215890.0,86185.0
2026-04-14 17:28:36.723058,317325,1609505210376115,2810345083,-1.163392,0.00976,-0.080032,7.30625,0.02625,-4.05125,27.528002,20.112001,19.648,eccentric,3,3.0,32847.0,219411.0,74656.0,215890.0,86185.0
2026-04-14 17:28:36.725184,317326,1609505210390626,2810360089,-1.23952,-0.060512,-0.210816,-2.38,-0.8575,-3.56125,26.024002,20.928001,21.784,eccentric,3,3.0,32847.0,219411.0,74656.0,215890.0,86185.0
2026-04-14 17:28:36.732678,317327,1609505210399577,2810368770,-1.23952,-0.060512,-0.210816,-7.6825,-0.65625,-3.465,26.024002,20.928001,21.784,eccentric,3,3.0,32847.0,219411.0,74656.0,215890.0,86185.0
2026-04-14 17:28:36.735166,317328,1609505210414062,2810383633,-1.214144,-0.081984,-0.144448,-5.04875,0.30625,-3.08875,26.000002,20.720001,20.696001,eccentric,3,3.0,32847.0,219411.0,74656.0,215890.0,86185.0
2026-04-14 17:28:36.737573,317329,1609505210422968,2810392347,-1.214144,-0.003904,-0.105408,3.15,1.155,-2.1,26.000002,20.720001,20.696001,eccentric,3,3.0,32847.0,219411.0,74656.0,215890.0,86185.0
2026-04-14 17:28:36.740196,317330,1609505210437468,2810407233,-1.204384,-0.001952,-0.105408,8.5925,1.5225,-1.37375,27.272001,20.576,21.6,eccentric,3,3.0,32847.0,219411.0,74656.0,215890.0,86185.0
2026-04-14 17:28:36.742184,317331,1609505210446370,2810415911,-1.214144,0.025376,-0.040992,7.07,1.16375,-1.7325,27.056002,20.480001,20.864,eccentric,3,3.0,32847.0,219411.0,74656.0,215890.0,86185.0
2026-04-14 17:28:36.744786,317332,1609505210455304,2810424590,-1.214144,0.025376,-0.040992,0.67375,0.67375,-3.29875,27.056002,20.480001,20.864,eccentric,3,3.0,32847.0,219411.0,74656.0,215890.0,86185.0
2026-04-14 17:28:36.774654,317343,1609505210469935,2810439656,-1.1712,-0.119072,-0.193248,-5.495,1.28625,-4.52375,26.696001,20.320002,20.944,eccentric,3,3.0,33152.0,221380.0,75106.0,217267.0,86696.0
2026-04-14 17:28:36.776992,317344,1609505210478898,2810448440,-1.1712,-0.119072,-0.193248,-5.32,1.61,-4.85625,26.696001,20.320002,20.944,eccentric,3,3.0,33152.0,221380.0,75106.0,217267.0,86696.0
2026-04-14 17:28:36.783737,317345,1609505210493435,2810463326,-1.19072,-0.089792,-0.20496,4.61125,1.63625,-4.87375,26.616001,20.288,20.84,eccentric,3,3.0,33152.0,221380.0,75106.0,217267.0,86696.0
2026-04-14 17:28:36.791291,317346,1609505210502448,2810472021,-1.19072,-0.089792,-0.20496,15.645,0.5425,-4.38375,26.616001,20.288,20.84,eccentric,3,3.0,33152.0,221380.0,75106.0,217267.0,86696.0
2026-04-14 17:28:36.816222,317347,1609505210516919,2810486873,-1.214144,0.02928,-0.148352,17.61375,-1.225,-3.605,26.656002,20.44,20.424002,eccentric,3,3.0,33152.0,221380.0,75106.0,217267.0,86696.0
2026-04-14 17:28:36.816572,317348,1609505210525830,2810495535,-1.194624,-0.074176,-0.226432,8.53125,-3.19375,-3.29875,27.744001,20.328001,20.376001,eccentric,3,3.0,33152.0,221380.0,75106.0,217267.0,86696.0
2026-04-14 17:28:36.822296,317349,1609505210534768,2810504251,-1.194624,-0.074176,-0.226432,-3.57,-4.69,-3.745,27.744001,20.328001,20.376001,eccentric,3,3.0,33152.0,221380.0,75106.0,217267.0,86696.0
2026-04-14 17:28:36.838671,317350,1609505210549245,2810519160,-1.216096,-0.12688,-0.191296,-9.275,-4.76,-3.2375,27.52,19.944,19.832,eccentric,3,3.0,33152.0,221380.0,75106.0,217267.0,86696.0
2026-04-14 17:28:36.847364,317351,1609505210558178,2810527863,-1.216096,-0.12688,-0.191296,-4.71625,-3.05375,-2.42375,27.52,19.944,19.832,eccentric,3,3.0,33152.0,221380.0,75106.0,217267.0,86696.0
2026-04-14 17:28:36.875968,317362,1609505210572770,2810541242,-1.206336,-0.052704,-0.056608,3.33375,-1.28625,-1.8375,27.264002,19.816002,21.024,eccentric,3,3.0,33362.0,222212.0,75450.0,218048.0,87166.0
2026-04-14 17:28:36.878445,317363,1609505210582050,2810552008,-1.206336,-0.052704,-0.056608,9.5375,-0.735,-0.28875,27.264002,19.816002,21.024,eccentric,3,3.0,33362.0,222212.0,75450.0,218048.0,87166.0
2026-04-14 17:28:36.883558,317364,1609505210596538,2810564906,-1.202432,0.00976,-0.050752,10.59625,-1.8725,-0.035,25.720001,20.208,22.320002,eccentric,3,3.0,33362.0,222212.0,75450.0,218048.0,87166.0
2026-04-14 17:28:36.897288,317365,1609505210605739,2810575629,-1.204384,-0.0976,-0.242048,5.78375,-2.63375,-1.26,26.136002,19.712002,21.616001,eccentric,3,3.0,33362.0,222212.0,75450.0,218048.0,87166.0
2026-04-14 17:28:36.903612,317366,1609505210614633,2810584302,-1.204384,-0.0976,-0.242048,-0.8575,-4.3225,-2.31875,26.136002,19.712002,21.616001,eccentric,3,3.0,33362.0,222212.0,75450.0,218048.0,87166.0
2026-04-14 17:28:36.919846,317367,1609505210629081,2810599168,-1.257088,-0.105408,-0.249856,-1.82,-5.17125,-3.08875,27.080002,19.208,20.016,eccentric,3,3.0,33362.0,222212.0,75450.0,218048.0,87166.0
2026-04-14 17:28:36.926126,317368,1609505210637993,2810607875,-1.257088,-0.105408,-0.249856,6.3,-4.27875,-3.17625,27.080002,19.208,20.016,eccentric,3,3.0,33362.0,222212.0,75450.0,218048.0,87166.0
2026-04-14 17:28:36.942352,317369,1609505210652484,2810622756,-1.198528,-0.037088,-0.109312,17.29875,-3.15875,-3.64,26.336,19.336,20.960001,eccentric,3,3.0,33362.0,222212.0,75450.0,218048.0,87166.0
2026-04-14 17:28:36.975978,317380,1609505210661420,2810631434,-1.198528,-0.037088,-0.109312,20.58,-2.56375,-4.48,26.336,19.336,20.960001,eccentric,3,3.0,34264.0,225001.0,77069.0,220612.0,89087.0
2026-04-14 17:28:36.978422,317381,1609505210670464,2810640193,-1.235616,-0.085888,-0.177632,16.1,-4.025,-5.0925,26.864002,18.848001,20.080002,eccentric,3,3.0,34264.0,225001.0,77069.0,220612.0,89087.0
2026-04-14 17:28:36.981008,317382,1609505210685015,2810655223,-1.182912,-0.132736,-0.152256,11.5675,-5.62625,-4.9,26.864002,19.04,17.560001,eccentric,3,3.0,34264.0,225001.0,77069.0,220612.0,89087.0
2026-04-14 17:28:36.983559,317383,1609505210693990,2810663969,-1.182912,-0.132736,-0.152256,13.58875,-7.93625,-4.64625,25.44,19.04,17.560001,eccentric,3,3.0,34264.0,225001.0,77069.0,220612.0,89087.0
2026-04-14 17:28:36.997330,317384,1609505210708473,2810676825,-1.266848,-0.037088,-0.244,23.24875,-8.8025,-4.41,25.104002,18.304,20.216002,eccentric,3,3.0,34264.0,225001.0,77069.0,220612.0,89087.0
2026-04-14 17:28:37.007319,317385,1609505210717623,2810687629,-1.266848,-0.037088,-0.244,33.32,-9.37125,-3.36875,25.104002,18.304,20.216002,eccentric,3,3.0,34264.0,225001.0,77069.0,220612.0,89087.0
2026-04-14 17:28:37.019857,317386,1609505210732091,2810700474,-1.237568,0.007808,-0.25376,32.9,-10.29875,-2.8,25.064001,18.288,22.064001,eccentric,3,3.0,34264.0,225001.0,77069.0,220612.0,89087.0
2026-04-14 17:28:37.031135,317387,1609505210741294,2810711222,-1.237568,0.007808,-0.25376,23.0475,-11.6375,-2.37125,25.064001,18.288,22.064001,eccentric,3,3.0,34264.0,225001.0,77069.0,220612.0,89087.0
2026-04-14 17:28:37.065992,317388,1609505210750237,2810719908,-1.23952,-0.05856,-0.093696,9.38,-12.88875,-2.0125,25.752,18.016,20.976002,eccentric,3,3.0,34264.0,225001.0,77069.0,220612.0,89087.0
2026-04-14 17:28:37.116030,317399,1609505210764763,2810735002,-1.23952,-0.05856,-0.093696,-1.37375,-13.965,-1.26875,25.752,18.016,20.976002,eccentric,3,3.0,38962.0,236154.0,85383.0,230220.0,99186.0
2026-04-14 17:28:37.118632,317400,1609505210773784,2810743680,-1.206336,-0.0976,-0.05856,-2.58125,-12.74,0.62125,25.920002,17.904001,18.248001,eccentric,3,3.0,38962.0,236154.0,85383.0,230220.0,99186.0
2026-04-14 17:28:37.121071,317401,1609505210788286,2810758578,-1.194624,-0.03904,-0.138592,2.93125,-11.515,2.59,25.552002,18.304,20.552,eccentric,3,3.0,38962.0,236154.0,85383.0,230220.0,99186.0
2026-04-14 17:28:37.123704,317402,1609505210797201,2810767249,-1.194624,-0.03904,-0.138592,8.74125,-9.695,3.98125,25.552002,18.304,20.552,eccentric,3,3.0,38962.0,236154.0,85383.0,230220.0,99186.0
2026-04-14 17:28:37.126132,317403,1609505210806137,2810775906,-1.237568,-0.023424,-0.236192,9.1175,-8.91625,4.10375,25.640001,17.976002,18.864,eccentric,3,3.0,38962.0,236154.0,85383.0,230220.0,99186.0
2026-04-14 17:28:37.128460,317404,1609505210820656,2810790928,-1.237568,-0.023424,-0.236192,5.8275,-9.1525,3.255,25.640001,17.976002,18.864,eccentric,3,3.0,38962.0,236154.0,85383.0,230220.0,99186.0
2026-04-14 17:28:37.131117,317405,1609505210829584,2810799632,-1.098976,-0.052704,0.031232,4.62,-9.6425,3.19375,24.888,17.496,20.36,eccentric,3,3.0,38962.0,236154.0,85383.0,230220.0,99186.0
2026-04-14 17:28:37.133661,317406,1609505210844085,2810812481,-1.098976,-0.052704,0.031232,5.7575,-10.465,2.0475,24.888,17.496,20.36,eccentric,3,3.0,38962.0,236154.0,85383.0,230220.0,99186.0
2026-04-14 17:28:37.143635,317407,1609505210853466,2810823268,-1.126304,-0.044896,0.017568,10.605001,-10.15,0.44625,25.024002,17.320002,21.976002,eccentric,3,3.0,38962.0,236154.0,85383.0,230220.0,99186.0
2026-04-14 17:28:37.177108,317418,1609505210868137,2810838192,-1.108736,0.037088,0.017568,17.77125,-9.292501,-0.49,24.624,17.024,21.488,eccentric,3,3.0,43728.0,242790.0,94050.0,236718.0,108752.0
2026-04-14 17:28:37.179774,317419,1609505210877127,2810846936,-1.108736,0.037088,0.017568,19.897501,-9.00375,-1.96875,24.624,17.024,21.488,eccentric,3,3.0,43728.0,242790.0,94050.0,236718.0,108752.0
2026-04-14 17:28:37.182290,317420,1609505210886100,2810855662,-1.09312,-0.031232,-0.138592,10.75375,-9.7825,-3.10625,24.624,17.024,19.44,eccentric,3,3.0,43728.0,242790.0,94050.0,236718.0,108752.0
2026-04-14 17:28:37.213686,317421,1609505210900596,2810870534,-1.09312,-0.031232,-0.138592,-3.54375,-10.80625,-4.2175,23.880001,17.192001,20.464,eccentric,3,3.0,43728.0,242790.0,94050.0,236718.0,108752.0
2026-04-14 17:28:37.224052,317422,1609505210909526,2810879229,-1.153632,-0.095648,-0.12688,-10.5875,-11.83,-4.7775,23.808,17.08,20.312,eccentric,3,3.0,43728.0,242790.0,94050.0,236718.0,108752.0
2026-04-14 17:28:37.226494,317423,1609505210923978,2810894087,-1.153632,-0.095648,-0.12688,-8.25125,-11.22625,-4.55,23.808,17.08,20.312,eccentric,3,3.0,43728.0,242790.0,94050.0,236718.0,108752.0
2026-04-14 17:28:37.228443,317424,1609505210932906,2810902773,-1.192672,-0.044896,-0.152256,0.28,-10.50875,-3.6225,23.464,17.192001,21.512001,eccentric,3,3.0,43728.0,242790.0,94050.0,236718.0,108752.0
2026-04-14 17:28:37.238978,317425,1609505210947396,2810917664,-1.15168,0.044896,-0.11712,12.20625,-9.40625,-3.9025,23.448002,16.76,19.952002,eccentric,3,3.0,43728.0,242790.0,94050.0,236718.0,108752.0
2026-04-14 17:28:37.247200,317426,1609505210956329,2810926360,-1.15168,0.044896,-0.11712,18.27,-8.4525,-4.0775,23.448002,16.76,19.952002,eccentric,3,3.0,43728.0,242790.0,94050.0,236718.0,108752.0
2026-04-14 17:28:37.279616,317438,1609505210965733,2810935123,-1.15168,0.044896,-0.11712,12.565,-7.70875,-4.92625,23.448002,16.76,19.952002,eccentric,3,3.0,43856.0,243239.0,94398.0,237211.0,109110.0
2026-04-14 17:28:37.282030,317439,1609505210980342,2810950103,-1.087264,-0.001952,-0.037088,-0.7,-7.88375,-5.11875,23.68,16.784,23.128,eccentric,3,3.0,43856.0,243239.0,94398.0,237211.0,109110.0
2026-04-14 17:28:37.284544,317440,1609505210989309,2810958816,-1.153632,-0.101504,-0.25376,-11.515,-7.95375,-5.69625,23.696001,16.496,19.656,eccentric,3,3.0,43856.0,243239.0,94398.0,237211.0,109110.0
2026-04-14 17:28:37.293403,317441,1609505211003772,2810973731,-1.153632,-0.101504,-0.25376,-11.917501,-7.875,-6.4575,23.696001,16.496,19.656,eccentric,3,3.0,43856.0,243239.0,94398.0,237211.0,109110.0
2026-04-14 17:28:37.302611,317442,1609505211012801,2810982429,-1.085312,0.003904,-0.095648,-0.105,-7.67375,-6.93,23.52,16.456001,19.744001,eccentric,3,3.0,43856.0,243239.0,94398.0,237211.0,109110.0
2026-04-14 17:28:37.310043,317443,1609505211021759,2810991254,-1.085312,0.003904,-0.095648,11.6725,-6.72,-8.14625,23.52,16.456001,19.744001,eccentric,3,3.0,43856.0,243239.0,94398.0,237211.0,109110.0
2026-04-14 17:28:37.325058,317444,1609505211036228,2811006120,-1.069696,0.054656,-0.03904,9.9575,-7.07,-8.81125,23.720001,16.088001,19.400002,eccentric,3,3.0,43856.0,243239.0,94398.0,237211.0,109110.0
2026-04-14 17:28:37.335187,317445,1609505211045168,2811014802,-1.069696,0.054656,-0.03904,-4.06,-7.51625,-8.98625,23.720001,16.088001,19.400002,eccentric,3,3.0,43856.0,243239.0,94398.0,237211.0,109110.0
2026-04-14 17:28:37.355769,317446,1609505211059649,2811029744,-1.081408,-0.111264,-0.142496,-17.35125,-7.37625,-9.0475,23.096,15.968,18.696001,eccentric,3,3.0,43856.0,243239.0,94398.0,237211.0,109110.0
2026-04-14 17:28:37.378499,317457,1609505211068725,2811038497,-1.057984,-0.119072,-0.040992,-15.96875,-7.0875,-9.5025,22.824001,15.512001,18.472,eccentric,3,3.0,41691.0,238024.0,90462.0,231485.0,105062.0
2026-04-14 17:28:37.381421,317458,1609505211083247,2811053443,-1.057984,-0.119072,-0.040992,0.175,-6.475,-8.54875,22.824001,15.512001,18.472,eccentric,3,3.0,41691.0,238024.0,90462.0,231485.0,105062.0
2026-04-14 17:28:37.383978,317459,1609505211092183,2811062145,-1.059936,-0.015616,-0.064416,14.4725,-6.57125,-6.93875,21.824001,15.52,18.68,eccentric,3,3.0,41691.0,238024.0,90462.0,231485.0,105062.0
2026-04-14 17:28:37.391438,317460,1609505211101190,2811070810,-1.059936,-0.015616,-0.064416,15.82875,-7.30625,-5.38125,21.824001,15.52,18.68,eccentric,3,3.0,41691.0,238024.0,90462.0,231485.0,105062.0
2026-04-14 17:28:37.403993,317461,1609505211115702,2811085721,-1.134112,-0.00976,-0.226432,7.455,-8.07625,-4.01625,22.392,14.648001,17.952002,eccentric,3,3.0,41691.0,238024.0,90462.0,231485.0,105062.0
2026-04-14 17:28:37.430991,317462,1609505211124625,2811094430,-1.134112,-0.00976,-0.226432,-3.08875,-8.3125,-3.75375,22.392,14.648001,17.952002,eccentric,3,3.0,41691.0,238024.0,90462.0,231485.0,105062.0
2026-04-14 17:28:37.456301,317463,1609505211139080,2811109317,-1.085312,-0.076128,-0.091744,-7.67375,-8.9075,-3.52625,21.448002,14.176001,17.296001,eccentric,3,3.0,41691.0,238024.0,90462.0,231485.0,105062.0
2026-04-14 17:28:37.463434,317464,1609505211147982,2811117982,-1.130208,-0.07808,-0.232288,-3.70125,-9.30125,-3.08875,21.448002,14.240001,14.728001,eccentric,3,3.0,41691.0,238024.0,90462.0,231485.0,105062.0
2026-04-14 17:28:37.466366,317465,1609505211162472,2811130833,-1.130208,-0.07808,-0.232288,2.695,-11.2875,-2.49375,20.624,14.240001,14.728001,eccentric,3,3.0,41691.0,238024.0,90462.0,231485.0,105062.0
2026-04-14 17:28:37.493668,317476,1609505211171707,2811141633,-1.087264,-0.040992,-0.025376,8.4525,-13.86,0.04375,19.752,13.304001,16.784,eccentric,3,3.0,39372.0,229875.0,86575.0,224639.0,100718.0
2026-04-14 17:28:37.495923,317477,1609505211180671,2811150351,-1.087264,-0.040992,-0.025376,10.71,-16.94875,2.835,19.752,13.304001,16.784,eccentric,3,3.0,39372.0,229875.0,86575.0,224639.0,100718.0
2026-04-14 17:28:37.499037,317478,1609505211195150,2811165232,-1.052128,0.042944,0.074176,6.79,-18.8125,4.41,18.832,12.912001,16.232,eccentric,3,3.0,39372.0,229875.0,86575.0,224639.0,100718.0
2026-04-14 17:28:37.501463,317479,1609505211204151,2811174003,-1.052128,0.042944,0.074176,-1.91625,-20.69375,4.235,18.832,12.912001,16.232,eccentric,3,3.0,39372.0,229875.0,86575.0,224639.0,100718.0
2026-04-14 17:28:37.509020,317480,1609505211218680,2811188920,-1.038464,-0.02928,0.040992,-11.8825,-21.07,4.0075,17.536001,12.432,16.744001,eccentric,3,3.0,39372.0,229875.0,86575.0,224639.0,100718.0
2026-04-14 17:28:37.517802,317481,1609505211227646,2811197581,-1.038464,-0.02928,0.040992,-21.48125,-20.9475,3.4825,17.536001,12.432,16.744001,eccentric,3,3.0,39372.0,229875.0,86575.0,224639.0,100718.0
2026-04-14 17:28:37.526507,317482,1609505211236637,2811206257,-1.05408,-0.0976,-0.070272,-24.59625,-21.035,4.20875,16.376001,12.768001,15.096001,eccentric,3,3.0,39372.0,229875.0,86575.0,224639.0,100718.0
2026-04-14 17:28:37.541643,317483,1609505211251115,2811221149,-1.118496,-0.11712,-0.236192,-19.705,-21.1925,6.2475,14.912001,12.648001,17.456001,eccentric,3,3.0,39372.0,229875.0,86575.0,224639.0,100718.0
2026-04-14 17:28:37.550010,317484,1609505211260086,2811229830,-1.118496,-0.11712,-0.236192,-8.16375,-21.93625,8.47,14.912001,12.648001,17.456001,eccentric,3,3.0,39372.0,229875.0,86575.0,224639.0,100718.0
2026-04-14 17:28:37.578591,317495,1609505211275134,2811244993,-1.08336,0.0,-0.162016,5.74,-23.12625,10.92875,12.976001,12.752001,18.784,eccentric,3,3.0,39407.0,234632.0,86268.0,229149.0,100589.0
2026-04-14 17:28:37.580878,317496,1609505211284063,2811253770,-1.08336,0.0,-0.162016,14.0525,-23.625,12.573751,12.976001,12.752001,18.784,eccentric,3,3.0,39407.0,234632.0,86268.0,229149.0,100589.0
2026-04-14 17:28:37.583464,317497,1609505211293089,2811262471,-1.071648,0.02928,0.0,9.58125,-22.435,12.59125,12.000001,13.048,20.320002,eccentric,3,3.0,39407.0,234632.0,86268.0,229149.0,100589.0
2026-04-14 17:28:37.595933,317498,1609505211307590,2811277427,-1.071648,0.02928,0.0,-1.74125,-20.991251,11.865,12.000001,13.048,20.320002,eccentric,3,3.0,39407.0,234632.0,86268.0,229149.0,100589.0
2026-04-14 17:28:37.606431,317499,1609505211316498,2811286106,-1.04432,-0.076128,-0.115168,-9.47625,-18.865,10.6575,12.624001,13.152,19.056002,eccentric,3,3.0,39407.0,234632.0,86268.0,229149.0,100589.0
2026-04-14 17:28:37.622843,317500,1609505211330914,2811300974,-1.050176,-0.06832,-0.122976,-7.945,-15.28625,9.31,12.672001,13.992001,22.096,eccentric,3,3.0,39407.0,234632.0,86268.0,229149.0,100589.0
2026-04-14 17:28:37.634768,317501,1609505211339846,2811309648,-1.050176,-0.06832,-0.122976,-3.5175,-14.2275,7.6475,12.672001,13.992001,22.096,eccentric,3,3.0,39407.0,234632.0,86268.0,229149.0,100589.0
2026-04-14 17:28:37.645997,317502,1609505211354319,2811324504,-1.071648,-0.011712,-0.111264,-2.79125,-14.95375,7.72625,13.320001,14.392001,22.344002,eccentric,3,3.0,39407.0,234632.0,86268.0,229149.0,100589.0
2026-04-14 17:28:37.652308,317503,1609505211363254,2811333266,-1.071648,-0.011712,-0.111264,-4.80375,-18.24375,8.5575,13.320001,14.392001,22.344002,eccentric,3,3.0,39407.0,234632.0,86268.0,229149.0,100589.0
2026-04-14 17:28:37.679883,317514,1609505211372286,2811341973,-1.040416,0.091744,0.173728,-11.12125,-22.67125,8.75,13.6,15.160001,23.528002,eccentric,3,3.0,49053.0,254669.0,102880.0,247235.0,119001.0
2026-04-14 17:28:37.682363,317515,1609505211386826,2811356890,-1.040416,0.091744,0.173728,-19.48625,-25.4625,8.53125,13.6,15.160001,23.528002,eccentric,3,3.0,49053.0,254669.0,102880.0,247235.0,119001.0
2026-04-14 17:28:37.684865,317516,1609505211395809,2811365620,-1.098976,-0.037088,0.0976,-22.1725,-26.11,7.5425,14.192,16.216002,23.76,eccentric,3,3.0,49053.0,254669.0,102880.0,247235.0,119001.0
2026-04-14 17:28:37.701110,317517,1609505211410315,2811380510,-0.983808,-0.074176,0.124928,-15.417501,-25.50625,7.69125,15.016001,16.568,24.152,eccentric,3,3.0,49053.0,254669.0,102880.0,247235.0,119001.0
2026-04-14 17:28:37.711314,317518,1609505211419214,2811389188,-0.983808,-0.074176,0.124928,-1.81125,-25.26125,8.74125,15.016001,16.568,24.152,eccentric,3,3.0,49053.0,254669.0,102880.0,247235.0,119001.0
2026-04-14 17:28:37.723409,317519,1609505211433703,2811402052,-0.976,-0.06832,0.074176,6.01125,-25.87375,11.0075,15.608001,16.584002,24.696001,eccentric,3,3.0,49053.0,254669.0,102880.0,247235.0,119001.0
2026-04-14 17:28:37.730997,317520,1609505211442923,2811412869,-0.976,-0.06832,0.074176,3.70125,-28.2975,15.18125,15.608001,16.584002,24.696001,eccentric,3,3.0,49053.0,254669.0,102880.0,247235.0,119001.0
2026-04-14 17:28:37.740970,317521,1609505211451834,2811421540,-1.071648,-0.01952,0.023424,-0.58625,-31.07125,18.1825,15.552001,16.808,25.560001,eccentric,3,3.0,49053.0,254669.0,102880.0,247235.0,119001.0
2026-04-14 17:28:37.823542,317532,1609505211466393,2811436445,-1.071648,-0.01952,0.023424,-0.945,-32.725,20.48375,15.552001,16.808,25.560001,eccentric,3,3.0,55532.0,259488.0,113759.0,253002.0,129565.0
2026-04-14 17:28:37.826045,317533,1609505211475950,2811445260,-0.977952,0.05856,0.101504,1.67125,-32.2875,20.36125,15.848001,17.208,24.312,eccentric,3,3.0,55532.0,259488.0,113759.0,253002.0,129565.0
2026-04-14 17:28:37.851407,317534,1609505211490439,2811460222,-0.952576,0.072224,0.130784,3.36875,-29.14625,16.905,16.264,16.992,25.176,eccentric,3,3.0,55532.0,259488.0,113759.0,253002.0,129565.0
2026-04-14 17:28:37.876438,317535,1609505211499351,2811468888,-0.952576,0.072224,0.130784,3.17625,-26.36375,11.82125,16.264,16.992,25.176,eccentric,3,3.0,55532.0,259488.0,113759.0,253002.0,129565.0
2026-04-14 17:28:37.888998,317536,1609505211508246,2811477531,-0.952576,0.072224,0.130784,-0.0525,-23.397501,6.85125,16.264,16.992,25.176,eccentric,3,3.0,55532.0,259488.0,113759.0,253002.0,129565.0
2026-04-14 17:28:37.891447,317537,1609505211522711,2811492449,-1.022848,-0.00976,-0.0488,-1.645,-21.53375,2.59875,17.328001,17.072,24.76,eccentric,3,3.0,55532.0,259488.0,113759.0,253002.0,129565.0
2026-04-14 17:28:37.893836,317538,1609505211531628,2811501156,-0.9272,-0.06832,0.023424,-0.5775,-20.23875,0.41125,16.560001,17.168001,23.904001,eccentric,3,3.0,55532.0,259488.0,113759.0,253002.0,129565.0
2026-04-14 17:28:37.898701,317539,1609505211546118,2811516042,-0.9272,-0.06832,0.023424,0.035,-22.0675,-1.09375,16.560001,17.168001,23.904001,eccentric,3,3.0,55532.0,259488.0,113759.0,253002.0,129565.0
2026-04-14 17:28:37.899225,317540,1609505211555052,2811524716,-1.011136,0.031232,0.013664,3.605,-24.4825,-0.735,16.992,17.128,23.608002,eccentric,3,3.0,55532.0,259488.0,113759.0,253002.0,129565.0
2026-04-14 17:28:37.926314,317551,1609505211569915,2811539626,-1.011136,0.031232,0.013664,3.57,-25.31375,-1.39125,16.992,17.128,23.608002,eccentric,3,3.0,45617.0,238407.0,98366.0,237189.0,113351.0
2026-04-14 17:28:37.928821,317552,1609505211578916,2811548300,-0.90768,-0.02928,0.300608,-0.69125,-24.85875,-2.70375,16.872002,17.160002,22.376001,eccentric,3,3.0,45617.0,238407.0,98366.0,237189.0,113351.0
2026-04-14 17:28:37.931270,317553,1609505211587815,2811556989,-0.90768,-0.02928,0.300608,-2.3625,-24.7975,-1.56625,16.872002,17.160002,22.376001,eccentric,3,3.0,45617.0,238407.0,98366.0,237189.0,113351.0
2026-04-14 17:28:37.933972,317554,1609505211602255,2811571886,-0.99552,-0.050752,0.12688,2.65125,-23.16125,0.6475,16.608002,17.288,23.552002,eccentric,3,3.0,45617.0,238407.0,98366.0,237189.0,113351.0
2026-04-14 17:28:37.936068,317555,1609505211611187,2811580633,-0.853024,0.003904,0.085888,12.39875,-22.68875,2.3275,16.352001,16.848001,21.728,eccentric,3,3.0,45617.0,238407.0,98366.0,237189.0,113351.0
