pc_time,serial_num,sensor_ts,host_ts,ax,ay,az,gx,gy,gz,mx,my,mz,phase,rpe,weight_kg,ppg_a,ppg_b,ppg_c,ppg_d,ppg_e
2026-04-14 17:28:53.697318,320522,1609505227391350,2827360625,-1.167296,-0.109312,-0.329888,-14.44625,-3.2375,2.24,25.240002,15.080001,20.256,eccentric,3,3.0,54233.0,252718.0,112949.0,248765.0,127542.0
2026-04-14 17:28:53.699633,320523,1609505227405840,2827375582,-1.167296,-0.109312,-0.329888,-16.05625,-3.33375,2.6775,25.320002,14.968,20.256,eccentric,3,3.0,54233.0,252718.0,112949.0,248765.0,127542.0
2026-04-14 17:28:53.705231,320524,1609505227414770,2827384278,-1.020896,-0.035136,-0.007808,-11.06875,-1.81125,2.87875,25.216002,15.040001,20.048,eccentric,3,3.0,54233.0,252718.0,112949.0,248765.0,127542.0
2026-04-14 17:28:53.718350,320525,1609505227429248,2827399187,-1.020896,-0.035136,-0.007808,-2.7475,-0.63875,2.12625,25.216002,15.040001,20.048,eccentric,3,3.0,54233.0,252718.0,112949.0,248765.0,127542.0
2026-04-14 17:28:53.727156,320526,1609505227438186,2827407862,-1.208288,0.066368,-0.177632,5.915,0.0175,-1.42625,25.432001,15.200001,20.496,eccentric,3,3.0,54233.0,252718.0,112949.0,248765.0,127542.0
2026-04-14 17:28:53.742348,320527,1609505227452701,2827422764,-1.095072,0.0,-0.015616,7.7875,0.09625,-5.075,25.392002,14.920001,21.672,eccentric,3,3.0,54233.0,252718.0,112949.0,248765.0,127542.0
2026-04-14 17:28:53.769962,320538,1609505227461728,2827431499,-1.095072,0.0,-0.015616,-1.58375,0.04375,-7.2625,25.392002,14.920001,21.672,eccentric,3,3.0,53679.0,249542.0,112207.0,246509.0,126687.0
2026-04-14 17:28:53.772580,320539,1609505227470731,2827440301,-1.095072,0.0,-0.015616,-13.658751,-0.72625,-7.95375,25.392002,14.920001,21.672,eccentric,3,3.0,53679.0,249542.0,112207.0,246509.0,126687.0
2026-04-14 17:28:53.774994,320540,1609505227485267,2827455200,-1.1712,-0.113216,-0.115168,-19.775,-1.89,-8.417501,25.12,15.68,22.736002,eccentric,3,3.0,53679.0,249542.0,112207.0,246509.0,126687.0
2026-04-14 17:28:53.788080,320541,1609505227494211,2827463872,-1.06384,-0.138592,-0.06832,-14.7175,-1.56625,-7.02625,24.888,15.52,21.880001,eccentric,3,3.0,53679.0,249542.0,112207.0,246509.0,126687.0
2026-04-14 17:28:53.802422,320542,1609505227508665,2827478746,-1.06384,-0.138592,-0.06832,-2.38,-0.23625,-4.89125,24.888,15.52,21.880001,eccentric,3,3.0,53679.0,249542.0,112207.0,246509.0,126687.0
2026-04-14 17:28:53.806094,320543,1609505227517581,2827487440,-1.130208,-0.031232,-0.001952,10.00125,1.0675,-4.6025,25.008001,15.288001,20.808,eccentric,3,3.0,53679.0,249542.0,112207.0,246509.0,126687.0
2026-04-14 17:28:53.816070,320544,1609505227526480,2827496102,-1.130208,-0.031232,-0.001952,15.05875,2.63375,-6.58875,25.008001,15.288001,20.808,eccentric,3,3.0,53679.0,249542.0,112207.0,246509.0,126687.0
2026-04-14 17:28:53.853726,320545,1609505227540930,2827510981,-1.085312,0.013664,-0.02928,11.22625,3.0625,-7.41125,26.072,15.52,21.112001,eccentric,3,3.0,53679.0,249542.0,112207.0,246509.0,126687.0
2026-04-14 17:28:53.856226,320546,1609505227549877,2827519682,-1.085312,0.013664,-0.02928,1.05875,1.6625,-7.81375,26.072,15.52,21.112001,eccentric,3,3.0,53679.0,249542.0,112207.0,246509.0,126687.0
2026-04-14 17:28:53.883471,320557,1609505227564749,2827534631,-1.221952,-0.080032,-0.269376,-9.975,-0.11375,-8.79375,25.608002,15.264001,20.824001,eccentric,3,3.0,53437.0,250108.0,111664.0,246919.0,126247.0
2026-04-14 17:28:53.886453,320558,1609505227573716,2827543332,-1.188768,-0.130784,-0.347456,-12.39,-2.45,-8.44375,25.504002,15.344001,21.592001,eccentric,3,3.0,53437.0,250108.0,111664.0,246919.0,126247.0
2026-04-14 17:28:53.890405,320559,1609505227588374,2827558226,-1.188768,-0.130784,-0.347456,-4.99625,-3.99,-7.8225,25.504002,15.344001,21.592001,eccentric,3,3.0,53437.0,250108.0,111664.0,246919.0,126247.0
2026-04-14 17:28:53.890836,320560,1609505227597446,2827566921,-1.155584,-0.080032,-0.189344,1.86375,-5.04875,-6.09,25.848001,15.752001,21.224,eccentric,3,3.0,53437.0,250108.0,111664.0,246919.0,126247.0
2026-04-14 17:28:53.897387,320561,1609505227606360,2827575630,-1.155584,-0.080032,-0.189344,4.445,-6.20375,-4.725,25.848001,15.752001,21.224,eccentric,3,3.0,53437.0,250108.0,111664.0,246919.0,126247.0
2026-04-14 17:28:53.909821,320562,1609505227620895,2827590551,-1.1224,-0.050752,-0.085888,2.2925,-6.06375,-3.3425,25.352001,15.736001,21.408,eccentric,3,3.0,53437.0,250108.0,111664.0,246919.0,126247.0
2026-04-14 17:28:53.918655,320563,1609505227629858,2827599237,-1.1224,-0.050752,-0.085888,-3.89375,-5.32,-2.275,25.352001,15.736001,21.408,eccentric,3,3.0,53437.0,250108.0,111664.0,246919.0,126247.0
2026-04-14 17:28:53.934068,320564,1609505227644334,2827614100,-1.169248,-0.07808,-0.044896,-9.1175,-4.24375,-1.6975,25.760002,16.04,21.176,eccentric,3,3.0,53437.0,250108.0,111664.0,246919.0,126247.0
2026-04-14 17:28:53.945292,320565,1609505227653239,2827622783,-1.139968,-0.105408,-0.03904,-10.71875,-2.9575,-1.79375,25.760002,15.568001,21.808,eccentric,3,3.0,53437.0,250108.0,111664.0,246919.0,126247.0
2026-04-14 17:28:54.027432,320576,1609505227667767,2827637711,-1.139968,-0.105408,-0.03904,-4.5325,-2.40625,-2.19625,25.808,15.568001,21.808,eccentric,3,3.0,54845.0,254437.0,113656.0,249930.0,128429.0
2026-04-14 17:28:54.030117,320577,1609505227676656,2827646367,-1.163392,0.015616,-0.001952,6.5975,-0.98875,-2.6775,24.912,15.592001,22.616001,eccentric,3,3.0,54845.0,254437.0,113656.0,249930.0,128429.0
2026-04-14 17:28:54.032777,320578,1609505227685557,2827655046,-1.163392,0.015616,-0.001952,14.77,-0.18375,-4.90875,24.912,15.592001,22.616001,eccentric,3,3.0,54845.0,254437.0,113656.0,249930.0,128429.0
2026-04-14 17:28:54.034870,320579,1609505227700014,2827669942,-1.198528,-0.003904,-0.181536,11.97,0.25375,-7.1225,25.048,15.944001,24.12,eccentric,3,3.0,54845.0,254437.0,113656.0,249930.0,128429.0
2026-04-14 17:28:54.037779,320580,1609505227708908,2827678641,-1.198528,-0.003904,-0.181536,1.44375,0.4025,-8.39125,25.048,15.944001,24.12,eccentric,3,3.0,54845.0,254437.0,113656.0,249930.0,128429.0
2026-04-14 17:28:54.040261,320581,1609505227723523,2827693551,-1.231712,-0.111264,-0.191296,-9.17875,0.62125,-10.00125,25.000002,16.184,21.984001,eccentric,3,3.0,54845.0,254437.0,113656.0,249930.0,128429.0
2026-04-14 17:28:54.042796,320582,1609505227732543,2827702244,-1.231712,-0.111264,-0.191296,-9.3625,0.105,-10.61375,25.000002,16.184,21.984001,eccentric,3,3.0,54845.0,254437.0,113656.0,249930.0,128429.0
2026-04-14 17:28:54.045310,320583,1609505227747071,2827717158,-1.20048,-0.121024,-0.119072,-0.67375,-0.0525,-9.54625,26.192001,15.832001,19.216002,eccentric,3,3.0,54845.0,254437.0,113656.0,249930.0,128429.0
2026-04-14 17:28:54.073251,320594,1609505227756070,2827725927,-1.214144,-0.01952,-0.08784,10.4825,-0.21875,-7.63875,25.920002,15.432001,21.832,eccentric,3,3.0,56318.0,256449.0,115970.0,251756.0,130768.0
2026-04-14 17:28:54.074676,320595,1609505227765670,2827734754,-1.214144,-0.01952,-0.08784,13.60625,-0.56875,-5.78375,25.920002,15.432001,21.832,eccentric,3,3.0,56318.0,256449.0,115970.0,251756.0,130768.0
2026-04-14 17:28:54.077576,320596,1609505227780165,2827749660,-1.198528,-0.0488,-0.015616,2.40625,-1.7675,-4.03375,26.032001,15.360001,21.776001,eccentric,3,3.0,56318.0,256449.0,115970.0,251756.0,130768.0
2026-04-14 17:28:54.080056,320597,1609505227789104,2827758368,-1.198528,-0.0488,-0.015616,-13.405,-3.2025,-2.0125,26.032001,15.360001,21.776001,eccentric,3,3.0,56318.0,256449.0,115970.0,251756.0,130768.0
2026-04-14 17:28:54.093724,320598,1609505227803712,2827773234,-1.225856,-0.142496,-0.072224,-20.62375,-4.47125,-1.25125,26.296001,15.808001,21.872002,eccentric,3,3.0,56318.0,256449.0,115970.0,251756.0,130768.0
2026-04-14 17:28:54.101486,320599,1609505227812651,2827781957,-1.225856,-0.142496,-0.072224,-12.69625,-4.515,0.21,26.296001,15.808001,21.872002,eccentric,3,3.0,56318.0,256449.0,115970.0,251756.0,130768.0
2026-04-14 17:28:54.111092,320600,1609505227821623,2827790691,-1.216096,-0.10736,-0.027328,2.45875,-4.20875,2.0825,25.896002,16.104,22.072,eccentric,3,3.0,56318.0,256449.0,115970.0,251756.0,130768.0
2026-04-14 17:28:54.125374,320601,1609505227836104,2827805570,-1.270752,-0.015616,-0.201056,13.92125,-3.955,3.395,26.232,15.760001,22.024,eccentric,3,3.0,56318.0,256449.0,115970.0,251756.0,130768.0
2026-04-14 17:28:54.135339,320602,1609505227845027,2827814249,-1.270752,-0.015616,-0.201056,14.65625,-3.71875,4.31375,26.232,15.760001,22.024,eccentric,3,3.0,56318.0,256449.0,115970.0,251756.0,130768.0
2026-04-14 17:28:54.171345,320613,1609505227860063,2827829176,-1.243424,-0.02928,-0.054656,7.37625,-3.96375,3.42125,25.808,15.400001,22.496,eccentric,3,3.0,55584.0,255963.0,114633.0,250889.0,129410.0
2026-04-14 17:28:54.173945,320614,1609505227869054,2827837988,-1.243424,-0.02928,-0.054656,-3.08,-4.06,1.11125,25.808,15.400001,22.496,eccentric,3,3.0,55584.0,255963.0,114633.0,250889.0,129410.0
2026-04-14 17:28:54.176389,320615,1609505227877980,2827846688,-1.202432,-0.173728,-0.251808,-8.33875,-5.285,-0.11375,25.136002,15.368001,23.296001,eccentric,3,3.0,55584.0,255963.0,114633.0,250889.0,129410.0
2026-04-14 17:28:54.181483,320616,1609505227892818,2827861657,-1.202432,-0.173728,-0.251808,-1.75,-6.0375,0.035,25.136002,15.368001,23.296001,eccentric,3,3.0,55584.0,255963.0,114633.0,250889.0,129410.0
2026-04-14 17:28:54.190945,320617,1609505227901751,2827870354,-1.1712,-0.089792,-0.076128,12.0225,-6.44875,-0.21,25.184002,15.376,20.696001,eccentric,3,3.0,55584.0,255963.0,114633.0,250889.0,129410.0
2026-04-14 17:28:54.204728,320618,1609505227916466,2827885244,-1.225856,-0.013664,-0.05856,18.12125,-6.02,0.34125,25.776001,15.016001,22.336,eccentric,3,3.0,55584.0,255963.0,114633.0,250889.0,129410.0
2026-04-14 17:28:54.216458,320619,1609505227925835,2827895991,-1.225856,-0.013664,-0.05856,11.0775,-5.74,0.4375,25.776001,15.016001,22.336,eccentric,3,3.0,55584.0,255963.0,114633.0,250889.0,129410.0
2026-04-14 17:28:54.223949,320620,1609505227934757,2827904697,-1.163392,-0.11712,-0.011712,-4.235,-4.75125,-0.0875,25.776001,15.016001,21.312,eccentric,3,3.0,55584.0,255963.0,114633.0,250889.0,129410.0
2026-04-14 17:28:54.239007,320621,1609505227949229,2827919573,-1.167296,-0.11712,-0.011712,-17.91125,-3.54375,-0.4025,25.584002,15.104001,21.312,eccentric,3,3.0,55584.0,255963.0,114633.0,250889.0,129410.0
2026-04-14 17:28:54.271424,320632,1609505227958662,2827928316,-1.227808,-0.177632,-0.148352,-19.1275,-3.01,-0.3675,25.432001,15.280001,22.632002,eccentric,3,3.0,55436.0,257159.0,114211.0,251569.0,129037.0
2026-04-14 17:28:54.273808,320633,1609505227973280,2827943314,-1.227808,-0.177632,-0.148352,-5.97625,-1.98625,0.28,25.432001,15.280001,22.632002,eccentric,3,3.0,55436.0,257159.0,114211.0,251569.0,129037.0
2026-04-14 17:28:54.275863,320634,1609505227982240,2827952033,-1.235616,-0.066368,-0.22448,12.01375,-1.54,1.12875,25.68,15.072001,22.488,eccentric,3,3.0,55436.0,257159.0,114211.0,251569.0,129037.0
2026-04-14 17:28:54.281427,320635,1609505227991195,2827960733,-1.235616,-0.066368,-0.22448,18.725,-2.30125,1.3125,25.68,15.072001,22.488,eccentric,3,3.0,55436.0,257159.0,114211.0,251569.0,129037.0
2026-04-14 17:28:54.297493,320636,1609505228005741,2827975629,-1.290272,-0.001952,-0.21472,9.16125,-4.24375,1.28625,25.616001,14.960001,22.28,eccentric,3,3.0,55436.0,257159.0,114211.0,251569.0,129037.0
2026-04-14 17:28:54.305251,320637,1609505228014661,2827984301,-1.290272,-0.001952,-0.21472,-5.31125,-4.9525,0.665,25.616001,14.960001,22.28,eccentric,3,3.0,55436.0,257159.0,114211.0,251569.0,129037.0
2026-04-14 17:28:54.339057,320638,1609505228029136,2827999238,-1.214144,-0.101504,-0.076128,-14.30625,-4.06,-0.51625,24.12,15.528001,23.536001,eccentric,3,3.0,55436.0,257159.0,114211.0,251569.0,129037.0
2026-04-14 17:28:54.354098,320639,1609505228038014,2828007886,-1.257088,-0.142496,-0.119072,-12.9325,-2.28375,-1.39125,25.472002,15.096001,22.192001,eccentric,3,3.0,55436.0,257159.0,114211.0,251569.0,129037.0
2026-04-14 17:28:54.356594,320640,1609505228052487,2828022755,-1.257088,-0.142496,-0.119072,-1.3825,-0.35875,-1.435,25.472002,15.096001,22.192001,eccentric,3,3.0,55436.0,257159.0,114211.0,251569.0,129037.0
2026-04-14 17:28:54.419020,320651,1609505228061944,2828031491,-1.255136,-0.070272,-0.226432,12.5825,0.5075,-0.63875,25.512001,14.696001,22.448002,eccentric,3,3.0,55985.0,256083.0,115318.0,251318.0,130119.0
2026-04-14 17:28:54.421523,320652,1609505228070910,2828040262,-1.255136,-0.070272,-0.226432,17.08,0.53375,-0.06125,25.512001,14.696001,22.448002,eccentric,3,3.0,55985.0,256083.0,115318.0,251318.0,130119.0
2026-04-14 17:28:54.424035,320653,1609505228085391,2828055133,-1.223904,-0.021472,-0.191296,9.84375,-1.855,0.97125,25.000002,14.936001,23.136002,eccentric,3,3.0,55985.0,256083.0,115318.0,251318.0,130119.0
2026-04-14 17:28:54.426681,320654,1609505228094293,2828063799,-1.223904,-0.021472,-0.191296,-2.8875,-4.66375,1.6275,25.000002,14.936001,23.136002,eccentric,3,3.0,55985.0,256083.0,115318.0,251318.0,130119.0
2026-04-14 17:28:54.428590,320655,1609505228108776,2828078668,-1.221952,-0.109312,-0.197152,-12.90625,-6.3875,1.39125,24.528002,15.040001,23.448002,eccentric,3,3.0,55985.0,256083.0,115318.0,251318.0,130119.0
2026-04-14 17:28:54.431604,320656,1609505228117734,2828087405,-1.186816,-0.130784,0.013664,-15.75,-6.97375,1.2775,24.176,14.936001,23.216002,eccentric,3,3.0,55985.0,256083.0,115318.0,251318.0,130119.0
2026-04-14 17:28:54.434086,320657,1609505228126776,2828096099,-1.186816,-0.130784,0.013664,-7.4025,-5.85375,2.1,24.176,14.936001,23.216002,eccentric,3,3.0,55985.0,256083.0,115318.0,251318.0,130119.0
2026-04-14 17:28:54.436582,320658,1609505228141303,2828111016,-1.305888,-0.011712,-0.163968,5.1975,-3.3425,2.63375,23.816002,14.784,23.52,eccentric,3,3.0,55985.0,256083.0,115318.0,251318.0,130119.0
2026-04-14 17:28:54.441601,320659,1609505228150236,2828119721,-1.305888,-0.011712,-0.163968,11.375,-2.70375,2.03875,23.816002,14.784,23.52,eccentric,3,3.0,55985.0,256083.0,115318.0,251318.0,130119.0
2026-04-14 17:28:54.498884,320670,1609505228164909,2828134666,-1.280512,0.021472,-0.111264,8.46125,-2.96625,1.00625,24.872002,14.464001,22.808,eccentric,3,3.0,55093.0,253637.0,114060.0,249788.0,128714.0
2026-04-14 17:28:54.501571,320671,1609505228173875,2828143412,-1.280512,0.021472,-0.111264,-2.24875,-4.31375,-1.07625,24.872002,14.464001,22.808,eccentric,3,3.0,55093.0,253637.0,114060.0,249788.0,128714.0
2026-04-14 17:28:54.504075,320672,1609505228188478,2828158304,-1.290272,-0.06832,-0.115168,-11.29625,-4.24375,-2.47625,22.976002,15.104001,25.840002,eccentric,3,3.0,55093.0,253637.0,114060.0,249788.0,128714.0
2026-04-14 17:28:54.506066,320673,1609505228197380,2828167003,-1.198528,-0.122976,-0.017568,-11.48875,-2.8,-3.52625,23.288002,14.848001,23.640001,eccentric,3,3.0,55093.0,253637.0,114060.0,249788.0,128714.0
2026-04-14 17:28:54.509055,320674,1609505228206292,2828175684,-1.198528,-0.122976,-0.017568,-1.8025,-1.46125,-3.21125,23.288002,14.848001,23.640001,eccentric,3,3.0,55093.0,253637.0,114060.0,249788.0,128714.0
2026-04-14 17:28:54.511082,320675,1609505228220892,2828190570,-1.301984,-0.035136,-0.249856,7.76125,-0.42875,-3.045,23.880001,14.432001,22.656,eccentric,3,3.0,55093.0,253637.0,114060.0,249788.0,128714.0
2026-04-14 17:28:54.520296,320676,1609505228229932,2828199260,-1.301984,-0.035136,-0.249856,8.2775,-0.2625,-1.855,23.880001,14.432001,22.656,eccentric,3,3.0,55093.0,253637.0,114060.0,249788.0,128714.0
2026-04-14 17:28:54.538969,320677,1609505228244424,2828214177,-1.206336,-0.042944,-0.193248,1.42625,-0.56,-1.61875,24.192001,14.208001,21.328001,eccentric,3,3.0,55093.0,253637.0,114060.0,249788.0,128714.0
2026-04-14 17:28:54.544697,320678,1609505228253348,2828222862,-1.206336,-0.042944,-0.193248,-6.44,-2.7125,-1.70625,24.192001,14.208001,21.328001,eccentric,3,3.0,55093.0,253637.0,114060.0,249788.0,128714.0
2026-04-14 17:28:54.572418,320689,1609505228262820,2828231931,-1.266848,-0.083936,-0.144448,-10.26375,-4.585,-1.89875,24.128,14.200001,21.064001,eccentric,3,3.0,52763.0,248834.0,110459.0,245918.0,124945.0
2026-04-14 17:28:54.574830,320690,1609505228277394,2828246854,-1.15168,-0.066368,-0.011712,-6.72,-5.76625,-1.5575,23.576,14.400001,22.464,eccentric,3,3.0,52763.0,248834.0,110459.0,245918.0,124945.0
2026-04-14 17:28:54.577187,320691,1609505228286434,2828255673,-1.15168,-0.066368,-0.011712,4.26125,-6.08125,-1.0675,23.576,14.400001,22.464,eccentric,3,3.0,52763.0,248834.0,110459.0,245918.0,124945.0
2026-04-14 17:28:54.589883,320692,1609505228300878,2828270666,-1.231712,0.0,-0.181536,11.73375,-6.90375,-0.9275,23.408,13.752001,21.056002,eccentric,3,3.0,52763.0,248834.0,110459.0,245918.0,124945.0
2026-04-14 17:28:54.598749,320693,1609505228309818,2828279345,-1.231712,0.0,-0.181536,9.7475,-7.39375,-1.02375,23.408,13.752001,21.056002,eccentric,3,3.0,52763.0,248834.0,110459.0,245918.0,124945.0
2026-04-14 17:28:54.615031,320694,1609505228324326,2828294227,-1.18096,-0.031232,-0.203008,2.9575,-8.0325,-1.995,23.720001,13.592001,20.880001,eccentric,3,3.0,52763.0,248834.0,110459.0,245918.0,124945.0
2026-04-14 17:28:54.625038,320695,1609505228333274,2828302906,-1.18096,-0.031232,-0.203008,-2.1525,-8.417501,-1.995,23.720001,13.592001,20.880001,eccentric,3,3.0,52763.0,248834.0,110459.0,245918.0,124945.0
2026-04-14 17:28:54.631269,320696,1609505228342301,2828311691,-1.163392,-0.072224,-0.121024,-1.365,-8.32125,-2.485,23.488,13.696001,20.568,eccentric,3,3.0,52763.0,248834.0,110459.0,245918.0,124945.0
2026-04-14 17:28:54.647240,320697,1609505228356781,2828326559,-1.163392,-0.072224,-0.121024,2.275,-7.665,-2.73875,23.488,13.696001,20.568,eccentric,3,3.0,52763.0,248834.0,110459.0,245918.0,124945.0
2026-04-14 17:28:54.674860,320708,1609505228365761,2828335399,-1.126304,-0.02928,0.00976,6.34375,-7.97125,-2.9925,23.496,13.568001,20.952002,eccentric,3,3.0,53816.0,247539.0,112356.0,245748.0,126902.0
2026-04-14 17:28:54.677387,320709,1609505228380318,2828350365,-1.095072,-0.027328,-0.12688,7.95375,-7.77875,-3.45625,21.688002,13.944,21.928001,eccentric,3,3.0,53816.0,247539.0,112356.0,245748.0,126902.0
2026-04-14 17:28:54.679875,320710,1609505228389242,2828359050,-1.095072,-0.027328,-0.12688,5.0925,-8.225,-3.92875,21.688002,13.944,21.928001,eccentric,3,3.0,53816.0,247539.0,112356.0,245748.0,126902.0
2026-04-14 17:28:54.705002,320711,1609505228398164,2828367722,-1.08336,-0.035136,-0.023424,1.715,-8.9075,-4.55,21.448002,13.264001,21.256,eccentric,3,3.0,53816.0,247539.0,112356.0,245748.0,126902.0
2026-04-14 17:28:54.729909,320712,1609505228412637,2828382586,-1.08336,-0.035136,-0.023424,0.07,-9.59,-5.6525,21.448002,13.264001,21.256,eccentric,3,3.0,53816.0,247539.0,112356.0,245748.0,126902.0
2026-04-14 17:28:54.737621,320713,1609505228421612,2828391329,-1.11264,-0.103456,-0.230336,1.155,-11.165,-6.30875,21.76,12.816001,20.36,eccentric,3,3.0,53816.0,247539.0,112356.0,245748.0,126902.0
2026-04-14 17:28:54.740015,320714,1609505228436101,2828406193,-1.11264,-0.103456,-0.230336,5.67875,-12.20625,-5.31125,21.76,12.816001,20.36,eccentric,3,3.0,53816.0,247539.0,112356.0,245748.0,126902.0
2026-04-14 17:28:54.747500,320715,1609505228445059,2828414870,-1.139968,-0.023424,-0.05856,12.635,-13.53625,-4.6025,21.184002,12.616,21.208,eccentric,3,3.0,53816.0,247539.0,112356.0,245748.0,126902.0
2026-04-14 17:28:54.775228,320726,1609505228459534,2828429835,-1.130208,-0.00976,-0.124928,17.0975,-14.07875,-3.4125,20.68,11.6,20.352001,eccentric,3,3.0,53875.0,243955.0,112690.0,243648.0,127172.0
2026-04-14 17:28:54.777333,320727,1609505228468968,2828438596,-1.130208,-0.00976,-0.124928,12.005,-14.5075,-2.625,20.68,11.6,20.352001,eccentric,3,3.0,53875.0,243955.0,112690.0,243648.0,127172.0
2026-04-14 17:28:54.780345,320728,1609505228477929,2828447322,-1.130208,-0.040992,0.0976,2.40625,-14.595,-2.5725,20.68,11.6,20.352001,eccentric,3,3.0,53875.0,243955.0,112690.0,243648.0,127172.0
2026-04-14 17:28:54.782743,320729,1609505228492403,2828462231,-1.032608,-0.037088,0.0976,-2.8175,-13.02875,-3.77125,20.272001,11.672001,18.400002,eccentric,3,3.0,53875.0,243955.0,112690.0,243648.0,127172.0
2026-04-14 17:28:54.791603,320730,1609505228501345,2828470920,-1.124352,-0.052704,-0.171776,-1.84625,-11.3925,-5.27625,19.144001,11.320001,17.6,eccentric,3,3.0,53875.0,243955.0,112690.0,243648.0,127172.0
2026-04-14 17:28:54.806602,320731,1609505228515865,2828485820,-1.124352,-0.052704,-0.171776,3.7625,-10.57875,-6.29125,19.144001,11.320001,17.6,eccentric,3,3.0,53875.0,243955.0,112690.0,243648.0,127172.0
2026-04-14 17:28:54.815322,320732,1609505228524823,2828494536,-1.106784,-0.037088,-0.210816,10.4475,-10.7975,-6.9475,19.088001,10.352,17.816,eccentric,3,3.0,53875.0,243955.0,112690.0,243648.0,127172.0
2026-04-14 17:28:54.828598,320733,1609505228539300,2828509416,-1.118496,-0.005856,-0.011712,11.8475,-12.4775,-6.4925,17.744001,10.296001,15.664001,eccentric,3,3.0,53875.0,243955.0,112690.0,243648.0,127172.0
2026-04-14 17:28:54.839069,320734,1609505228548280,2828518084,-1.118496,-0.005856,-0.011712,6.25625,-14.096251,-6.0375,17.744001,10.296001,15.664001,eccentric,3,3.0,53875.0,243955.0,112690.0,243648.0,127172.0
2026-04-14 17:28:54.847041,320735,1609505228557244,2828526862,-1.118496,-0.005856,-0.011712,-0.90125,-15.02375,-5.39,17.744001,10.296001,15.664001,eccentric,3,3.0,53875.0,243955.0,112690.0,243648.0,127172.0
2026-04-14 17:28:54.876480,320746,1609505228571804,2828541810,-1.116544,-0.050752,-0.074176,-4.795,-14.761251,-4.50625,16.192001,10.464001,19.384,eccentric,3,3.0,52349.0,241138.0,110176.0,241252.0,124597.0
2026-04-14 17:28:54.878347,320747,1609505228580877,2828550583,-1.036512,-0.080032,0.03904,-2.84375,-13.48375,-4.01625,13.864,10.736,20.376001,eccentric,3,3.0,52349.0,241138.0,110176.0,241252.0,124597.0
2026-04-14 17:28:54.886424,320748,1609505228595396,2828565543,-1.036512,-0.080032,0.03904,2.135,-11.69,-4.22625,13.864,10.736,20.376001,eccentric,3,3.0,52349.0,241138.0,110176.0,241252.0,124597.0
2026-04-14 17:28:54.893703,320749,1609505228604327,2828574220,-1.061888,-0.070272,-0.187392,6.18625,-11.165,-4.445,14.216001,10.128,19.184,eccentric,3,3.0,52349.0,241138.0,110176.0,241252.0,124597.0
2026-04-14 17:28:54.902809,320750,1609505228613274,2828582904,-1.061888,-0.070272,-0.187392,8.98625,-12.04875,-4.38375,14.216001,10.128,19.184,eccentric,3,3.0,52349.0,241138.0,110176.0,241252.0,124597.0
2026-04-14 17:28:54.917804,320751,1609505228627751,2828597772,-1.018944,-0.007808,-0.025376,10.66625,-13.67625,-4.26125,13.632001,10.144,20.416,eccentric,3,3.0,52349.0,241138.0,110176.0,241252.0,124597.0
2026-04-14 17:28:54.930834,320752,1609505228636664,2828606462,-1.018944,-0.007808,-0.025376,9.9575,-15.47875,-3.955,13.632001,10.144,20.416,eccentric,3,3.0,52349.0,241138.0,110176.0,241252.0,124597.0
2026-04-14 17:28:54.939613,320753,1609505228651148,2828621393,-0.970144,-0.0488,-0.027328,5.8275,-16.8875,-3.73625,13.568001,10.432,21.152,eccentric,3,3.0,52349.0,241138.0,110176.0,241252.0,124597.0
2026-04-14 17:28:54.978618,320764,1609505228660052,2828630073,-0.974048,-0.089792,0.011712,0.27125,-17.64875,-3.22,13.248001,11.272,24.560001,eccentric,3,3.0,51476.0,238443.0,108785.0,239061.0,123201.0
2026-04-14 17:28:54.981238,320765,1609505228674700,2828644972,-0.974048,-0.089792,0.011712,-3.89375,-17.36,-2.66875,13.248001,11.272,24.560001,eccentric,3,3.0,51476.0,238443.0,108785.0,239061.0,123201.0
2026-04-14 17:28:54.984050,320766,1609505228683669,2828653654,-0.989664,-0.05856,0.076128,-0.18375,-15.49625,-2.275,12.784,11.416,24.584002,eccentric,3,3.0,51476.0,238443.0,108785.0,239061.0,123201.0
2026-04-14 17:28:54.986503,320767,1609505228692713,2828662387,-0.989664,-0.05856,0.076128,9.0475,-13.99125,-3.07125,12.784,11.416,24.584002,eccentric,3,3.0,51476.0,238443.0,108785.0,239061.0,123201.0
2026-04-14 17:28:54.996071,320768,1609505228707302,2828677293,-0.958432,-0.011712,-0.027328,16.52875,-12.915,-2.91375,13.496,11.584001,24.088001,eccentric,3,3.0,51476.0,238443.0,108785.0,239061.0,123201.0
2026-04-14 17:28:55.006542,320769,1609505228716238,2828685980,-0.958432,-0.011712,-0.027328,16.47625,-14.04375,-2.7475,13.496,11.584001,24.088001,eccentric,3,3.0,51476.0,238443.0,108785.0,239061.0,123201.0
2026-04-14 17:28:55.022841,320770,1609505228730728,2828700876,-0.921344,-0.042944,0.0488,10.4125,-16.765,-2.65125,14.128,11.824,24.568,eccentric,3,3.0,51476.0,238443.0,108785.0,239061.0,123201.0
2026-04-14 17:28:55.031462,320771,1609505228739630,2828709548,-0.921344,-0.070272,-0.064416,2.73,-19.25875,-0.9625,14.128,11.824,24.568,eccentric,3,3.0,51476.0,238443.0,108785.0,239061.0,123201.0
2026-04-14 17:28:55.044586,320772,1609505228754103,2828724426,-0.983808,-0.070272,-0.064416,-2.70375,-19.69625,-0.09625,13.840001,12.616,27.240002,eccentric,3,3.0,51476.0,238443.0,108785.0,239061.0,123201.0
2026-04-14 17:28:55.160916,320783,1609505228763100,2828733245,-0.99552,-0.033184,0.13664,-2.24875,-18.2175,0.5775,14.904,12.832001,26.376001,concentric,3,3.0,50639.0,234776.0,107365.0,235963.0,121712.0
2026-04-14 17:28:55.163833,320784,1609505228772143,2828741963,-0.99552,-0.033184,0.13664,4.01625,-15.9075,0.69125,14.904,12.832001,26.376001,concentric,3,3.0,50639.0,234776.0,107365.0,235963.0,121712.0
2026-04-14 17:28:55.166044,320785,1609505228786625,2828756864,-0.977952,-0.003904,-0.099552,11.78625,-13.32625,-0.09625,15.752001,12.528001,25.488,concentric,3,3.0,50639.0,234776.0,107365.0,235963.0,121712.0
2026-04-14 17:28:55.169021,320786,1609505228795728,2828765583,-0.977952,-0.003904,-0.099552,18.43625,-12.15375,-1.6625,15.752001,12.528001,25.488,concentric,3,3.0,50639.0,234776.0,107365.0,235963.0,121712.0
2026-04-14 17:28:55.171524,320787,1609505228810238,2828780450,-0.899872,0.013664,0.033184,19.03125,-11.698751,-3.38625,15.888001,12.928,25.208002,concentric,3,3.0,50639.0,234776.0,107365.0,235963.0,121712.0
2026-04-14 17:28:55.173783,320788,1609505228819147,2828789099,-0.899872,0.013664,0.033184,10.78875,-12.355001,-4.48875,15.888001,12.928,25.208002,concentric,3,3.0,50639.0,234776.0,107365.0,235963.0,121712.0
2026-04-14 17:28:55.181516,320789,1609505228833636,2828803986,-0.968192,-0.035136,0.003904,-0.60375,-12.845,-3.63125,15.712001,13.264001,25.624,concentric,3,3.0,50639.0,234776.0,107365.0,235963.0,121712.0
2026-04-14 17:28:55.184067,320790,1609505228842551,2828812661,-0.944768,-0.124928,0.02928,-9.38875,-13.658751,-1.8375,16.528,13.344001,25.400002,concentric,3,3.0,50639.0,234776.0,107365.0,235963.0,121712.0
2026-04-14 17:28:55.186561,320791,1609505228851487,2828821299,-0.944768,-0.124928,0.02928,-10.9725,-12.9675,-0.04375,16.528,13.344001,25.400002,concentric,3,3.0,50639.0,234776.0,107365.0,235963.0,121712.0
2026-04-14 17:28:55.213533,320802,1609505228866171,2828836185,-0.909632,-0.070272,0.121024,-3.99875,-11.73375,1.39125,16.704,13.184001,25.928001,concentric,3,3.0,47456.0,229254.0,101607.0,230807.0,115884.0
2026-04-14 17:28:55.219463,320803,1609505228875142,2828844899,-0.909632,-0.070272,0.121024,6.86,-10.24625,2.38,16.704,13.184001,25.928001,concentric,3,3.0,47456.0,229254.0,101607.0,230807.0,115884.0
2026-04-14 17:28:55.219666,320804,1609505228889650,2828859853,-0.972096,0.021472,-0.10736,16.38,-8.995,3.03625,15.792001,13.080001,25.976002,concentric,3,3.0,47456.0,229254.0,101607.0,230807.0,115884.0
2026-04-14 17:28:55.221545,320805,1609505228898579,2828868565,-0.972096,0.021472,-0.10736,17.28125,-8.70625,2.28375,15.792001,13.080001,25.976002,concentric,3,3.0,47456.0,229254.0,101607.0,230807.0,115884.0
2026-04-14 17:28:55.223920,320806,1609505228913177,2828883495,-0.944768,-0.02928,-0.081984,9.59,-10.14125,1.12875,15.864,13.176001,24.68,concentric,3,3.0,47456.0,229254.0,101607.0,230807.0,115884.0
2026-04-14 17:28:55.226456,320807,1609505228922198,2828892247,-0.948672,-0.099552,0.001952,-0.28,-11.75125,0.95375,15.576001,13.384001,25.736002,concentric,3,3.0,47456.0,229254.0,101607.0,230807.0,115884.0
2026-04-14 17:28:55.228880,320808,1609505228931113,2828900980,-0.948672,-0.099552,0.001952,-4.9525,-13.230001,1.9775,15.576001,13.384001,25.736002,concentric,3,3.0,47456.0,229254.0,101607.0,230807.0,115884.0
2026-04-14 17:28:55.236352,320809,1609505228945647,2828915862,-0.970144,-0.054656,0.12688,-3.64,-13.125,3.45625,15.624001,13.608001,26.584002,concentric,3,3.0,47456.0,229254.0,101607.0,230807.0,115884.0
2026-04-14 17:28:55.243681,320810,1609505228954608,2828924595,-0.970144,-0.054656,0.12688,0.0875,-12.04,4.97,15.624001,13.608001,26.584002,concentric,3,3.0,47456.0,229254.0,101607.0,230807.0,115884.0
2026-04-14 17:28:55.276057,320821,1609505228969145,2828937797,-0.950624,0.011712,0.173728,3.43,-10.94625,6.4225,14.984001,13.64,26.472002,concentric,3,3.0,44253.0,222595.0,95963.0,224761.0,109732.0
2026-04-14 17:28:55.279075,320822,1609505228978393,2828948606,-0.950624,0.011712,0.173728,5.13625,-9.05625,7.20125,14.984001,13.64,26.472002,concentric,3,3.0,44253.0,222595.0,95963.0,224761.0,109732.0
2026-04-14 17:28:55.281525,320823,1609505228987356,2828957346,-0.976,0.013664,0.040992,3.2725,-7.455,6.85125,14.920001,13.368001,26.432001,concentric,3,3.0,44253.0,222595.0,95963.0,224761.0,109732.0
2026-04-14 17:28:55.291567,320824,1609505229001844,2828970229,-0.968192,-0.031232,0.103456,-2.345,-6.3525,6.27375,16.544,13.504001,24.408,concentric,3,3.0,44253.0,222595.0,95963.0,224761.0,109732.0
2026-04-14 17:28:55.304234,320825,1609505229011024,2828981025,-0.968192,-0.031232,0.103456,-7.875,-7.93625,5.43375,16.544,13.504001,24.408,concentric,3,3.0,44253.0,222595.0,95963.0,224761.0,109732.0
2026-04-14 17:28:55.313822,320826,1609505229025541,2828993891,-0.958432,-0.128832,-0.037088,-12.1275,-9.0125,5.15375,16.296001,13.088,24.2,concentric,3,3.0,44253.0,222595.0,95963.0,224761.0,109732.0
2026-04-14 17:28:55.325166,320827,1609505229034721,2829004662,-0.958432,-0.128832,-0.037088,-11.80375,-10.7275,6.2125,16.296001,13.088,24.2,concentric,3,3.0,44253.0,222595.0,95963.0,224761.0,109732.0
2026-04-14 17:28:55.335178,320828,1609505229043724,2829013339,-0.944768,-0.00976,0.132736,-1.02375,-11.76875,8.2425,16.632,12.880001,24.464,concentric,3,3.0,44253.0,222595.0,95963.0,224761.0,109732.0
2026-04-14 17:28:55.347606,320829,1609505229058213,2829028339,-0.944768,-0.00976,0.132736,9.625,-10.99,10.36875,16.632,12.880001,24.464,concentric,3,3.0,44253.0,222595.0,95963.0,224761.0,109732.0
2026-04-14 17:28:55.377409,320840,1609505229067294,2829037083,-0.997472,0.076128,0.0,8.42625,-9.68625,10.63125,16.52,13.344001,23.928001,concentric,3,3.0,43265.0,221351.0,94132.0,223243.0,107725.0
2026-04-14 17:28:55.379804,320841,1609505229081819,2829052026,-0.997472,0.007808,0.154208,-3.99,-9.7125,9.94,16.52,13.344001,23.928001,concentric,3,3.0,43265.0,221351.0,94132.0,223243.0,107725.0
2026-04-14 17:28:55.382300,320842,1609505229090727,2829060710,-0.972096,0.007808,0.154208,-19.45125,-9.8875,10.71,15.736001,13.688001,25.928001,concentric,3,3.0,43265.0,221351.0,94132.0,223243.0,107725.0
2026-04-14 17:28:55.397828,320843,1609505229105256,2829075598,-0.890112,-0.103456,-0.015616,-25.97875,-9.45,11.042501,16.432001,13.456,23.640001,concentric,3,3.0,43265.0,221351.0,94132.0,223243.0,107725.0
2026-04-14 17:28:55.406376,320844,1609505229114196,2829084420,-0.890112,-0.103456,-0.015616,-18.10375,-7.84875,11.095,16.432001,13.456,23.640001,concentric,3,3.0,43265.0,221351.0,94132.0,223243.0,107725.0
2026-04-14 17:28:55.412616,320845,1609505229123129,2829093107,-0.876448,-0.003904,0.162016,-3.59625,-6.29125,11.375,15.768001,13.8,22.632002,concentric,3,3.0,43265.0,221351.0,94132.0,223243.0,107725.0
2026-04-14 17:28:55.440231,320846,1609505229137563,2829105933,-0.876448,-0.003904,0.162016,7.0175,-5.18,11.34875,15.768001,13.8,22.632002,concentric,3,3.0,43265.0,221351.0,94132.0,223243.0,107725.0
2026-04-14 17:28:55.465350,320847,1609505229146738,2829116685,-0.9272,0.093696,0.11712,9.38875,-6.4225,10.6925,15.792001,13.192,25.584002,concentric,3,3.0,43265.0,221351.0,94132.0,223243.0,107725.0
2026-04-14 17:28:55.470367,320848,1609505229161287,2829131547,-0.9272,0.093696,0.11712,5.32,-7.0875,9.9225,15.792001,13.192,25.584002,concentric,3,3.0,43265.0,221351.0,94132.0,223243.0,107725.0
2026-04-14 17:28:55.498146,320859,1609505229170294,2829140282,-0.880352,-0.025376,0.113216,-2.415,-7.25375,8.785,15.360001,13.816001,25.728,concentric,3,3.0,43326.0,225276.0,93968.0,225208.0,107731.0
2026-04-14 17:28:55.502703,320860,1609505229184763,2829153174,-0.970144,-0.072224,0.03904,-7.0175,-7.665,8.1025,14.856001,13.656001,24.888,concentric,3,3.0,43326.0,225276.0,93968.0,225208.0,107731.0
2026-04-14 17:28:55.505137,320861,1609505229193994,2829163956,-0.970144,-0.072224,0.03904,-2.63375,-7.84875,6.4925,14.856001,13.656001,24.888,concentric,3,3.0,43326.0,225276.0,93968.0,225208.0,107731.0
2026-04-14 17:28:55.507430,320862,1609505229202999,2829172672,-0.874496,-0.005856,0.255712,10.75375,-6.51875,3.21125,14.856001,12.792001,24.088001,concentric,3,3.0,43326.0,225276.0,93968.0,225208.0,107731.0
2026-04-14 17:28:55.510280,320863,1609505229217513,2829187566,-0.874496,-0.005856,0.255712,26.0575,-5.705,0.13125,14.968,12.792001,24.088001,concentric,3,3.0,43326.0,225276.0,93968.0,225208.0,107731.0
2026-04-14 17:28:55.517769,320864,1609505229226450,2829196251,-0.911584,0.021472,0.300608,32.54125,-5.075,-3.68375,15.000001,12.616,25.024002,concentric,3,3.0,43326.0,225276.0,93968.0,225208.0,107731.0
2026-04-14 17:28:55.530289,320865,1609505229240892,2829211191,-0.911584,0.021472,0.300608,25.6025,-5.1625,-7.1575,15.000001,12.616,25.024002,concentric,3,3.0,43326.0,225276.0,93968.0,225208.0,107731.0
2026-04-14 17:28:55.538745,320866,1609505229249800,2829219907,-1.026752,-0.05856,0.275232,10.6575,-5.52125,-10.15875,16.264,12.76,23.472002,concentric,3,3.0,43326.0,225276.0,93968.0,225208.0,107731.0
2026-04-14 17:28:55.549055,320867,1609505229258714,2829228622,-1.026752,-0.05856,0.275232,1.72375,-5.10125,-12.06625,16.264,12.76,23.472002,concentric,3,3.0,43326.0,225276.0,93968.0,225208.0,107731.0
2026-04-14 17:28:55.579054,320878,1609505229273723,2829243593,-1.128256,-0.109312,-0.013664,2.10875,-4.27875,-13.5975,16.256,12.184001,24.240002,concentric,3,3.0,42322.0,226966.0,91757.0,225445.0,105437.0
2026-04-14 17:28:55.581555,320879,1609505229282664,2829252281,-1.128256,-0.109312,-0.013664,6.72875,-4.025,-14.14875,16.256,12.184001,24.240002,concentric,3,3.0,42322.0,226966.0,91757.0,225445.0,105437.0
2026-04-14 17:28:55.591436,320880,1609505229297187,2829267234,-1.085312,-0.02928,0.208864,9.8175,-4.375,-14.5775,15.424001,12.464001,25.792002,concentric,3,3.0,42322.0,226966.0,91757.0,225445.0,105437.0
2026-04-14 17:28:55.596381,320881,1609505229306142,2829275910,-1.098976,0.0,0.193248,8.47875,-4.87375,-14.77,15.960001,12.744,24.328001,concentric,3,3.0,42322.0,226966.0,91757.0,225445.0,105437.0
2026-04-14 17:28:55.603811,320882,1609505229315184,2829284639,-1.098976,0.0,0.193248,3.92,-5.04875,-14.1575,15.960001,12.744,24.328001,concentric,3,3.0,42322.0,226966.0,91757.0,225445.0,105437.0
2026-04-14 17:28:55.619024,320883,1609505229329637,2829299531,-1.165344,-0.011712,0.05856,-2.5725,-5.3375,-13.57125,16.008001,12.240001,24.2,concentric,3,3.0,42322.0,226966.0,91757.0,225445.0,105437.0
2026-04-14 17:28:55.627493,320884,1609505229338539,2829308205,-1.165344,-0.011712,0.05856,-5.62625,-4.6725,-12.705,16.008001,12.240001,24.2,concentric,3,3.0,42322.0,226966.0,91757.0,225445.0,105437.0
2026-04-14 17:28:55.643749,320885,1609505229353030,2829323077,-1.0736,-0.013664,0.121024,-4.445,-4.8475,-11.80375,15.536001,12.816001,25.664001,concentric,3,3.0,42322.0,226966.0,91757.0,225445.0,105437.0
2026-04-14 17:28:55.652587,320886,1609505229361939,2829331729,-1.0736,-0.013664,0.121024,-1.51375,-5.11875,-10.57875,15.536001,12.816001,25.664001,concentric,3,3.0,42322.0,226966.0,91757.0,225445.0,105437.0
2026-04-14 17:28:55.679693,320897,1609505229376610,2829346715,-1.118496,0.062464,0.152256,-0.21875,-5.15375,-8.995,14.632001,12.776001,24.512001,concentric,3,3.0,40031.0,220352.0,87714.0,220244.0,100663.0
2026-04-14 17:28:55.685155,320898,1609505229385553,2829355446,-1.089216,0.037088,-0.02928,-3.255,-4.36625,-7.88375,15.776001,12.736001,24.248001,concentric,3,3.0,40031.0,220352.0,87714.0,220244.0,100663.0
2026-04-14 17:28:55.685236,320899,1609505229394494,2829364145,-1.089216,0.037088,-0.02928,-7.32375,-3.7275,-7.0525,15.776001,12.736001,24.248001,concentric,3,3.0,40031.0,220352.0,87714.0,220244.0,100663.0
2026-04-14 17:28:55.698901,320900,1609505229408991,2829379017,-1.108736,0.042944,0.021472,-9.345,-2.2925,-7.0875,15.720001,12.232,24.424002,concentric,3,3.0,40031.0,220352.0,87714.0,220244.0,100663.0
2026-04-14 17:28:55.708919,320901,1609505229417952,2829387690,-1.108736,0.042944,0.021472,-10.21125,-1.5575,-6.92125,15.720001,12.232,24.424002,concentric,3,3.0,40031.0,220352.0,87714.0,220244.0,100663.0
2026-04-14 17:28:55.721573,320902,1609505229432457,2829402613,-1.08336,0.040992,0.0976,-7.805,-1.26,-5.635,15.480001,12.848001,24.296001,concentric,3,3.0,40031.0,220352.0,87714.0,220244.0,100663.0
2026-04-14 17:28:55.732806,320903,1609505229441382,2829411296,-1.08336,0.040992,0.0976,-4.85625,-0.455,-4.76,15.480001,12.848001,24.296001,concentric,3,3.0,40031.0,220352.0,87714.0,220244.0,100663.0
2026-04-14 17:28:55.746557,320904,1609505229455847,2829426177,-0.968192,-0.007808,0.130784,-2.065,0.74375,-4.2525,15.440001,13.072001,25.472002,concentric,3,3.0,40031.0,220352.0,87714.0,220244.0,100663.0
2026-04-14 17:28:55.848641,320915,1609505229464780,2829434885,-0.99552,0.0,0.037088,0.77875,1.54875,-2.93125,14.656001,13.104001,22.096,concentric,3,3.0,40071.0,221132.0,87735.0,220943.0,100746.0
2026-04-14 17:28:55.851563,320916,1609505229474291,2829443641,-0.99552,0.0,0.037088,3.08,3.7975,-2.45875,14.656001,13.104001,22.096,concentric,3,3.0,40071.0,221132.0,87735.0,220943.0,100746.0
2026-04-14 17:28:55.854014,320917,1609505229488749,2829458511,-1.009184,0.027328,-0.003904,4.94375,5.71375,-2.8875,14.872001,12.608001,24.168001,concentric,3,3.0,40071.0,221132.0,87735.0,220943.0,100746.0
2026-04-14 17:28:55.856544,320918,1609505229497712,2829467264,-1.009184,0.027328,-0.003904,4.78625,7.1925,-3.01875,14.872001,12.608001,24.168001,concentric,3,3.0,40071.0,221132.0,87735.0,220943.0,100746.0
2026-04-14 17:28:55.859060,320919,1609505229512190,2829482126,-1.032608,0.033184,0.160064,2.65125,7.8575,-3.8675,16.024,12.504001,24.272001,concentric,3,3.0,40071.0,221132.0,87735.0,220943.0,100746.0
2026-04-14 17:28:55.861480,320920,1609505229521115,2829490793,-1.032608,0.033184,0.160064,0.41125,8.2425,-4.655,16.024,12.504001,24.272001,concentric,3,3.0,40071.0,221132.0,87735.0,220943.0,100746.0
2026-04-14 17:28:55.866827,320921,1609505229535579,2829505737,-1.067744,-0.00976,0.07808,2.2925,8.855001,-4.55,15.664001,12.144001,24.256,concentric,3,3.0,40071.0,221132.0,87735.0,220943.0,100746.0
2026-04-14 17:28:55.867110,320922,1609505229544478,2829514418,-1.067744,-0.00976,0.181536,6.02,9.8525,-4.0075,15.664001,12.144001,24.256,concentric,3,3.0,40071.0,221132.0,87735.0,220943.0,100746.0
2026-04-14 17:28:55.868431,320923,1609505229553410,2829523117,-1.018944,-0.023424,0.181536,8.05875,11.34,-3.71875,15.872001,12.440001,24.456001,concentric,3,3.0,40071.0,221132.0,87735.0,220943.0,100746.0
2026-04-14 17:28:55.896313,320934,1609505229568390,2829538136,-1.08336,0.001952,0.00976,7.76125,12.81,-3.14125,16.240002,12.240001,24.304,concentric,3,3.0,40999.0,224487.0,89214.0,223728.0,102429.0
2026-04-14 17:28:55.898821,320935,1609505229577463,2829546835,-1.08336,0.001952,0.00976,4.935,13.755,-2.66,16.240002,12.240001,24.304,concentric,3,3.0,40999.0,224487.0,89214.0,223728.0,102429.0
2026-04-14 17:28:55.901294,320936,1609505229592000,2829562197,-1.097024,-0.003904,0.007808,1.9075,14.1225,-2.975,16.048,12.184001,24.12,concentric,3,3.0,40999.0,224487.0,89214.0,223728.0,102429.0
2026-04-14 17:28:55.903752,320937,1609505229600922,2829570878,-1.097024,-0.003904,0.007808,-1.37375,13.8425,-3.64,16.048,12.184001,24.12,concentric,3,3.0,40999.0,224487.0,89214.0,223728.0,102429.0
2026-04-14 17:28:55.906112,320938,1609505229609922,2829579584,-1.00528,-0.070272,-0.040992,-3.08,13.60625,-3.78875,16.288,11.976001,24.52,concentric,3,3.0,40999.0,224487.0,89214.0,223728.0,102429.0
2026-04-14 17:28:55.913632,320939,1609505229624488,2829594568,-1.00528,-0.070272,-0.040992,-3.84125,13.81625,-3.94625,16.288,11.976001,24.52,concentric,3,3.0,40999.0,224487.0,89214.0,223728.0,102429.0
2026-04-14 17:28:55.923734,320940,1609505229633403,2829603264,-1.026752,-0.027328,0.02928,-4.08625,14.6125,-4.54125,17.168001,12.536,22.944,concentric,3,3.0,40999.0,224487.0,89214.0,223728.0,102429.0
2026-04-14 17:28:55.938684,320941,1609505229647889,2829618132,-0.960384,-0.025376,0.121024,-4.8475,15.5575,-5.0225,16.568,12.208,24.28,concentric,3,3.0,40999.0,224487.0,89214.0,223728.0,102429.0
2026-04-14 17:28:55.947590,320942,1609505229656806,2829626851,-0.960384,-0.025376,0.121024,-6.1075,16.4325,-5.7925,16.568,12.208,24.28,concentric,3,3.0,40999.0,224487.0,89214.0,223728.0,102429.0
2026-04-14 17:28:55.979835,320953,1609505229671434,2829639806,-1.03456,-0.02928,-0.074176,-8.3825,16.7475,-7.21875,16.264,12.968,24.12,concentric,3,3.0,41762.0,226248.0,90511.0,225677.0,103871.0
2026-04-14 17:28:55.982432,320954,1609505229680635,2829650610,-1.03456,-0.02928,-0.074176,-11.03375,16.58125,-7.5425,16.264,12.968,24.12,concentric,3,3.0,41762.0,226248.0,90511.0,225677.0,103871.0
2026-04-14 17:28:55.984717,320955,1609505229689499,2829659287,-0.94672,-0.033184,0.1464,-13.13375,16.7825,-7.875,16.648,12.608001,23.888,concentric,3,3.0,41762.0,226248.0,90511.0,225677.0,103871.0
2026-04-14 17:28:55.994849,320956,1609505229704007,2829674179,-0.94672,-0.033184,0.1464,-13.6325,16.94,-8.6275,16.648,12.608001,23.888,concentric,3,3.0,41762.0,226248.0,90511.0,225677.0,103871.0
2026-04-14 17:28:56.002473,320957,1609505229712941,2829682928,-0.99552,-0.074176,-0.064416,-12.92375,16.89625,-8.68875,17.352001,13.176001,23.288002,concentric,3,3.0,41762.0,226248.0,90511.0,225677.0,103871.0
2026-04-14 17:28:56.015018,320958,1609505229727433,2829695781,-1.030656,-0.06832,-0.115168,-11.5325,16.94,-7.805,17.512001,13.096001,24.960001,concentric,3,3.0,41762.0,226248.0,90511.0,225677.0,103871.0
2026-04-14 17:28:56.026276,320959,1609505229736589,2829706579,-1.030656,-0.06832,-0.115168,-9.9225,16.77375,-7.63,17.512001,13.096001,24.960001,concentric,3,3.0,41762.0,226248.0,90511.0,225677.0,103871.0
2026-04-14 17:28:56.034946,320960,1609505229745515,2829715243,-1.030656,-0.06832,-0.115168,-7.9625,16.31875,-6.58,17.512001,13.096001,24.960001,concentric,3,3.0,41762.0,226248.0,90511.0,225677.0,103871.0
2026-04-14 17:28:56.049980,320961,1609505229759985,2829730137,-1.03456,-0.042944,-0.054656,-5.0925,16.09125,-5.0575,17.224,13.312,24.624,concentric,3,3.0,41762.0,226248.0,90511.0,225677.0,103871.0
2026-04-14 17:28:56.081032,320972,1609505229769480,2829738915,-0.960384,-0.035136,0.01952,-1.77625,17.00125,-4.55,17.872002,12.752001,23.512001,concentric,3,3.0,41009.0,222527.0,89351.0,223143.0,102456.0
2026-04-14 17:28:56.083502,320973,1609505229784069,2829753890,-0.960384,-0.035136,0.01952,-0.4375,17.325,-4.2,17.872002,12.752001,23.512001,concentric,3,3.0,41009.0,222527.0,89351.0,223143.0,102456.0
2026-04-14 17:28:56.086058,320974,1609505229793002,2829762579,-0.991616,-0.025376,-0.054656,-2.19625,16.72125,-3.80625,16.536001,13.008,24.824001,concentric,3,3.0,41009.0,222527.0,89351.0,223143.0,102456.0
2026-04-14 17:28:56.091065,320975,1609505229801949,2829771260,-0.991616,-0.025376,-0.054656,-7.42,15.98625,-3.98125,16.536001,13.008,24.824001,concentric,3,3.0,41009.0,222527.0,89351.0,223143.0,102456.0
2026-04-14 17:28:56.107503,320976,1609505229816384,2829786142,-0.991616,-0.033184,-0.033184,-12.425,15.05875,-4.06875,18.2,12.824,23.800001,concentric,3,3.0,41009.0,222527.0,89351.0,223143.0,102456.0
2026-04-14 17:28:56.113727,320977,1609505229825337,2829794866,-0.991616,-0.033184,-0.033184,-14.9625,14.7,-4.38375,18.2,12.824,23.800001,concentric,3,3.0,41009.0,222527.0,89351.0,223143.0,102456.0
2026-04-14 17:28:56.135320,320978,1609505229839929,2829809739,-0.970144,-0.072224,0.089792,-15.68,14.595,-4.0075,18.584002,13.448001,23.224,concentric,3,3.0,41009.0,222527.0,89351.0,223143.0,102456.0
2026-04-14 17:28:56.141625,320979,1609505229848853,2829818406,-1.028704,-0.06832,-0.091744,-13.93875,14.27125,-2.61625,18.848001,13.368001,24.048,concentric,3,3.0,41009.0,222527.0,89351.0,223143.0,102456.0
2026-04-14 17:28:56.173643,320980,1609505229863340,2829833265,-1.028704,-0.06832,-0.091744,-11.01625,14.93625,-1.32125,18.848001,13.368001,24.048,concentric,3,3.0,41009.0,222527.0,89351.0,223143.0,102456.0
2026-04-14 17:28:56.236257,320991,1609505229872370,2829842061,-0.989664,-0.021472,0.167872,-10.17625,16.765,-0.3325,18.784,13.088,23.992,concentric,3,3.0,40774.0,221025.0,89057.0,222728.0,102034.0
2026-04-14 17:28:56.238774,320992,1609505229881310,2829850744,-0.989664,-0.021472,0.167872,-14.6125,17.535,-0.6475,18.784,13.088,23.992,concentric,3,3.0,40774.0,221025.0,89057.0,222728.0,102034.0
2026-04-14 17:28:56.241170,320993,1609505229895783,2829865622,-1.040416,0.005856,0.103456,-19.29375,18.655,-0.7525,19.240002,13.064001,23.616001,concentric,3,3.0,40774.0,221025.0,89057.0,222728.0,102034.0
2026-04-14 17:28:56.243695,320994,1609505229904677,2829874309,-1.040416,0.005856,0.103456,-23.42375,19.13625,-1.42625,19.240002,13.064001,23.616001,concentric,3,3.0,40774.0,221025.0,89057.0,222728.0,102034.0
2026-04-14 17:28:56.250527,320995,1609505229919142,2829889179,-1.00528,-0.091744,0.001952,-27.95625,18.8475,-2.3275,19.128,13.6,23.808,concentric,3,3.0,40774.0,221025.0,89057.0,222728.0,102034.0
2026-04-14 17:28:56.251115,320996,1609505229928074,2829897851,-1.085312,-0.089792,-0.083936,-28.210001,17.535,-2.4325,19.528002,13.648001,23.160002,concentric,3,3.0,40774.0,221025.0,89057.0,222728.0,102034.0
2026-04-14 17:28:56.253535,320997,1609505229942705,2829912750,-1.085312,-0.089792,-0.083936,-25.0775,17.2375,-0.1925,19.528002,13.648001,23.160002,concentric,3,3.0,40774.0,221025.0,89057.0,222728.0,102034.0
2026-04-14 17:28:56.260537,320998,1609505229951623,2829921491,-1.028704,-0.074176,-0.080032,-21.1575,17.5,2.07375,19.584002,14.016001,23.560001,concentric,3,3.0,40774.0,221025.0,89057.0,222728.0,102034.0
2026-04-14 17:28:56.260650,320999,1609505229960567,2829930237,-1.028704,-0.074176,-0.080032,-19.10125,18.54125,2.7125,19.584002,14.016001,23.560001,concentric,3,3.0,40774.0,221025.0,89057.0,222728.0,102034.0
2026-04-14 17:28:56.286241,321010,1609505229975150,2829945385,-1.026752,-0.076128,-0.12688,-18.57625,19.85375,2.8525,19.608002,13.944,23.464,concentric,3,3.0,41696.0,224309.0,90543.0,225821.0,103731.0
2026-04-14 17:28:56.288741,321011,1609505229984146,2829954099,-1.026752,-0.076128,-0.12688,-20.3,20.08125,2.37125,19.608002,13.944,23.464,concentric,3,3.0,41696.0,224309.0,90543.0,225821.0,103731.0
2026-04-14 17:28:56.291249,321012,1609505229998647,2829968974,-1.071648,-0.08784,-0.1952,-21.8925,18.69875,2.82625,19.504002,13.960001,23.704,concentric,3,3.0,41696.0,224309.0,90543.0,225821.0,103731.0
2026-04-14 17:28:56.297541,321013,1609505230007640,2829977698,-1.071648,-0.072224,-0.105408,-21.385,16.73,3.71875,19.504002,13.960001,23.704,concentric,3,3.0,41696.0,224309.0,90543.0,225821.0,103731.0
2026-04-14 17:28:56.309806,321014,1609505230022107,2829990534,-0.993568,-0.076128,-0.105408,-21.3325,16.31,4.55875,19.888,14.208001,23.384,concentric,3,3.0,41696.0,224309.0,90543.0,225821.0,103731.0
2026-04-14 17:28:56.321258,321015,1609505230031330,2830001266,-1.03456,-0.017568,0.109312,-23.82625,15.925,4.83875,18.864,14.68,24.408,concentric,3,3.0,41696.0,224309.0,90543.0,225821.0,103731.0
2026-04-14 17:28:56.331248,321016,1609505230040271,2830009953,-1.03456,-0.017568,0.109312,-28.7525,15.2425,5.46,18.864,14.68,24.408,concentric,3,3.0,41696.0,224309.0,90543.0,225821.0,103731.0
2026-04-14 17:28:56.344909,321017,1609505230054747,2830024837,-1.01504,-0.072224,0.113216,-31.22,14.67375,5.90625,18.952002,14.512001,24.952002,concentric,3,3.0,41696.0,224309.0,90543.0,225821.0,103731.0
2026-04-14 17:28:56.353844,321018,1609505230063696,2830033553,-1.01504,-0.072224,0.113216,-28.77,14.7,5.78375,18.952002,14.512001,24.952002,concentric,3,3.0,41696.0,224309.0,90543.0,225821.0,103731.0
2026-04-14 17:28:56.382421,321029,1609505230078250,2830048562,-1.08336,-0.076128,-0.169824,-22.35625,15.1375,4.82125,18.472,13.928,23.576,concentric,3,3.0,42165.0,227852.0,91233.0,228424.0,104534.0
2026-04-14 17:28:56.385328,321030,1609505230087197,2830057252,-1.08336,-0.076128,-0.169824,-12.06625,15.18125,4.90875,18.472,13.928,23.576,concentric,3,3.0,42165.0,227852.0,91233.0,228424.0,104534.0
2026-04-14 17:28:56.411221,321031,1609505230101714,2830070121,-0.962336,-0.044896,-0.062464,-4.92625,14.04375,4.61125,18.792002,14.024001,23.336,concentric,3,3.0,42165.0,227852.0,91233.0,228424.0,104534.0
2026-04-14 17:28:56.414092,321032,1609505230110911,2830080932,-0.99552,0.017568,-0.08784,-6.62375,12.775,2.68625,17.800001,13.808001,24.696001,concentric,3,3.0,42165.0,227852.0,91233.0,228424.0,104534.0
2026-04-14 17:28:56.416200,321033,1609505230119826,2830089600,-0.99552,0.017568,-0.08784,-13.20375,11.3225,0.735,17.800001,13.808001,24.696001,concentric,3,3.0,42165.0,227852.0,91233.0,228424.0,104534.0
2026-04-14 17:28:56.427532,321034,1609505230134372,2830104503,-1.032608,-0.003904,0.025376,-20.7375,9.21375,-0.98875,16.728,14.488001,25.016,concentric,3,3.0,42165.0,227852.0,91233.0,228424.0,104534.0
2026-04-14 17:28:56.438365,321035,1609505230143294,2830113159,-1.032608,-0.003904,0.025376,-27.72875,8.225,-2.135,16.728,14.488001,25.016,concentric,3,3.0,42165.0,227852.0,91233.0,228424.0,104534.0
2026-04-14 17:28:56.447764,321036,1609505230157760,2830128090,-0.977952,-0.13664,-0.08784,-28.875,8.8725,-2.84375,16.352001,14.048,22.512001,concentric,3,3.0,42165.0,227852.0,91233.0,228424.0,104534.0
2026-04-14 17:28:56.457745,321037,1609505230166659,2830136772,-0.977952,-0.13664,-0.08784,-20.615,10.45625,-3.5875,16.352001,14.048,22.512001,concentric,3,3.0,42165.0,227852.0,91233.0,228424.0,104534.0
2026-04-14 17:28:56.490331,321048,1609505230175584,2830145487,-0.938912,-0.05856,0.0,-5.25875,12.45125,-4.2175,17.2,13.128,23.248001,concentric,3,3.0,43339.0,233096.0,93148.0,232638.0,106751.0
2026-04-14 17:28:56.492680,321049,1609505230190100,2830160377,-0.958432,0.089792,-0.00976,7.53375,14.323751,-5.845,16.056002,12.952001,22.920002,concentric,3,3.0,43339.0,233096.0,93148.0,232638.0,106751.0
2026-04-14 17:28:56.495318,321050,1609505230199053,2830169036,-0.958432,0.089792,-0.00976,9.38,13.4575,-7.44625,16.056002,12.952001,22.920002,concentric,3,3.0,43339.0,233096.0,93148.0,232638.0,106751.0
2026-04-14 17:28:56.502584,321051,1609505230213611,2830183948,-0.954528,0.0488,-0.18544,-1.995,10.3775,-8.58375,15.776001,12.856001,21.232,concentric,3,3.0,43339.0,233096.0,93148.0,232638.0,106751.0
2026-04-14 17:28:56.512837,321052,1609505230222530,2830192649,-0.954528,0.0488,-0.18544,-21.72625,6.3175,-10.24625,15.776001,12.856001,21.232,concentric,3,3.0,43339.0,233096.0,93148.0,232638.0,106751.0
2026-04-14 17:28:56.543715,321053,1609505230236981,2830205452,-1.003328,-0.121024,0.076128,-38.482502,2.63375,-10.57875,14.888001,13.288001,20.768002,concentric,3,3.0,43339.0,233096.0,93148.0,232638.0,106751.0
2026-04-14 17:28:56.568043,321054,1609505230246249,2830216189,-1.003328,-0.121024,0.076128,-39.0075,0.665,-10.26375,14.888001,13.288001,20.768002,concentric,3,3.0,43339.0,233096.0,93148.0,232638.0,106751.0
2026-04-14 17:28:56.593191,321055,1609505230255155,2830224879,-0.895968,-0.148352,-0.062464,-16.7825,3.185,-9.66875,14.696001,12.624001,19.808,concentric,3,3.0,43339.0,233096.0,93148.0,232638.0,106751.0
2026-04-14 17:28:56.627302,321066,1609505230269641,2830239795,-0.987712,-0.005856,-0.091744,9.89625,6.195,-8.82875,14.696001,12.624001,19.568,concentric,3,3.0,44344.0,237158.0,95004.0,235650.0,108724.0
2026-04-14 17:28:56.629635,321067,1609505230279022,2830248545,-0.987712,-0.005856,-0.091744,19.17125,8.56625,-6.3525,14.568001,12.712001,19.568,concentric,3,3.0,44344.0,237158.0,95004.0,235650.0,108724.0
2026-04-14 17:28:56.632199,321068,1609505230293509,2830263439,-0.997472,-0.03904,-0.138592,10.45625,9.415,-4.55,14.880001,12.256001,17.536001,concentric,3,3.0,44344.0,237158.0,95004.0,235650.0,108724.0
2026-04-14 17:28:56.634946,321069,1609505230302432,2830272118,-0.997472,-0.03904,-0.138592,-5.3025,10.2025,-3.45625,14.880001,12.256001,17.536001,concentric,3,3.0,44344.0,237158.0,95004.0,235650.0,108724.0
2026-04-14 17:28:56.637656,321070,1609505230311399,2830280870,-1.128256,-0.052704,-0.267424,-14.9275,9.94,-3.57,16.0,12.576,17.624,concentric,3,3.0,44344.0,237158.0,95004.0,235650.0,108724.0
2026-04-14 17:28:56.640151,321071,1609505230325952,2830295765,-1.128256,-0.052704,-0.267424,-11.24375,8.9425,-3.56125,16.0,12.576,17.624,concentric,3,3.0,44344.0,237158.0,95004.0,235650.0,108724.0
2026-04-14 17:28:56.642624,321072,1609505230334893,2830304496,-1.01504,0.027328,-0.01952,1.16375,8.417501,-4.06875,16.2,12.464001,17.048,concentric,3,3.0,44344.0,237158.0,95004.0,235650.0,108724.0
2026-04-14 17:28:56.645008,321073,1609505230349559,2830319420,-1.01504,0.027328,-0.01952,5.9675,7.4725,-5.4775,16.2,12.464001,17.048,concentric,3,3.0,44344.0,237158.0,95004.0,235650.0,108724.0
2026-04-14 17:28:56.647655,321074,1609505230358501,2830328119,-1.065792,0.015616,0.091744,-1.93375,6.2475,-5.985,16.968,12.712001,14.096001,concentric,3,3.0,44344.0,237158.0,95004.0,235650.0,108724.0
2026-04-14 17:28:56.685960,321085,1609505230373546,2830343288,-1.077504,-0.06832,-0.081984,-11.68125,6.41375,-5.915,19.784,12.400001,13.504001,concentric,3,3.0,48910.0,245787.0,103270.0,242725.0,117547.0
2026-04-14 17:28:56.688904,321086,1609505230382606,2830352013,-1.077504,-0.06832,-0.081984,-14.35,7.86625,-7.06125,19.784,12.400001,13.504001,concentric,3,3.0,48910.0,245787.0,103270.0,242725.0,117547.0
2026-04-14 17:28:56.691401,321087,1609505230391687,2830360801,-1.075552,-0.042944,-0.062464,-7.9975,9.61625,-8.11125,21.000002,12.864,13.968,concentric,3,3.0,48910.0,245787.0,103270.0,242725.0,117547.0
2026-04-14 17:28:56.694706,321088,1609505230406167,2830375740,-1.075552,-0.042944,-0.062464,2.94875,10.4825,-8.61875,21.000002,12.864,13.968,concentric,3,3.0,48910.0,245787.0,103270.0,242725.0,117547.0
2026-04-14 17:28:56.705166,321089,1609505230415118,2830384439,-1.110688,0.02928,-0.142496,9.9575,10.52625,-9.03875,22.144001,13.552001,14.68,concentric,3,3.0,48910.0,245787.0,103270.0,242725.0,117547.0
2026-04-14 17:28:56.721141,321090,1609505230429612,2830399342,-1.110688,0.02928,-0.142496,3.21125,8.1025,-9.1175,22.144001,13.552001,14.68,concentric,3,3.0,48910.0,245787.0,103270.0,242725.0,117547.0
2026-04-14 17:28:56.729056,321091,1609505230438512,2830408030,-0.993568,-0.140544,-0.060512,-10.99,5.32875,-8.295,22.312,14.120001,16.416,concentric,3,3.0,48910.0,245787.0,103270.0,242725.0,117547.0
2026-04-14 17:28:56.736394,321092,1609505230447456,2830416714,-0.993568,-0.140544,-0.060512,-18.17375,5.17125,-6.37875,22.312,14.120001,16.416,concentric,3,3.0,48910.0,245787.0,103270.0,242725.0,117547.0
2026-04-14 17:28:56.751521,321093,1609505230461906,2830431642,-1.138016,-0.17568,-0.308416,-12.7225,5.04875,-3.85875,22.976002,14.064001,14.752001,concentric,3,3.0,48910.0,245787.0,103270.0,242725.0,117547.0
2026-04-14 17:28:56.786571,321104,1609505230470854,2830440294,-1.1224,0.037088,-0.134688,2.05625,5.95,-2.56375,22.976002,14.064001,15.104001,concentric,3,3.0,54572.0,251074.0,113271.0,248209.0,128020.0
2026-04-14 17:28:56.789034,321105,1609505230485748,2830455205,-1.118496,0.037088,-0.134688,16.835001,7.0,-2.0125,23.912,14.024001,15.104001,concentric,3,3.0,54572.0,251074.0,113271.0,248209.0,128020.0
2026-04-14 17:28:56.791570,321106,1609505230494669,2830463912,-1.03456,0.072224,0.003904,18.2875,7.14875,-3.57875,23.968,14.792001,16.808,concentric,3,3.0,54572.0,251074.0,113271.0,248209.0,128020.0
2026-04-14 17:28:56.798721,321107,1609505230509118,2830478822,-1.03456,0.072224,0.003904,4.62875,5.92375,-6.85125,23.968,14.792001,16.808,concentric,3,3.0,54572.0,251074.0,113271.0,248209.0,128020.0
2026-04-14 17:28:56.809083,321108,1609505230518116,2830487504,-1.050176,-0.113216,-0.027328,-14.8925,4.83875,-8.68875,24.856,15.152,17.856,concentric,3,3.0,54572.0,251074.0,113271.0,248209.0,128020.0
2026-04-14 17:28:56.814896,321109,1609505230527016,2830496207,-1.050176,-0.113216,-0.027328,-23.1875,4.89125,-8.7675,24.856,15.152,17.856,concentric,3,3.0,54572.0,251074.0,113271.0,248209.0,128020.0
2026-04-14 17:28:56.831428,321110,1609505230541508,2830511096,-1.091168,-0.158112,-0.2928,-14.56875,5.7225,-7.1225,25.2,15.056001,16.936,concentric,3,3.0,54572.0,251074.0,113271.0,248209.0,128020.0
2026-04-14 17:28:56.840153,321111,1609505230550460,2830519791,-1.091168,-0.158112,-0.2928,1.155,6.29125,-5.52125,25.2,15.056001,16.936,concentric,3,3.0,54572.0,251074.0,113271.0,248209.0,128020.0
2026-04-14 17:28:56.855190,321112,1609505230564949,2830534692,-1.061888,-0.02928,-0.076128,10.54375,5.7225,-3.94625,24.696001,15.648001,18.344002,concentric,3,3.0,54572.0,251074.0,113271.0,248209.0,128020.0
2026-04-14 17:28:56.933884,321123,1609505230573973,2830543422,-1.147776,0.027328,-0.128832,9.12625,4.24375,-2.87,25.648,15.336,18.096,concentric,3,3.0,59084.0,254049.0,120909.0,251660.0,135756.0
2026-04-14 17:28:56.950953,321124,1609505230588577,2830558361,-1.147776,0.027328,-0.128832,0.42875,2.86125,-2.205,25.648,15.336,18.096,concentric,3,3.0,59084.0,254049.0,120909.0,251660.0,135756.0
2026-04-14 17:28:56.953581,321125,1609505230597493,2830567091,-1.124352,-0.072224,-0.232288,-6.65,3.2025,-2.275,24.728,15.576001,19.552,concentric,3,3.0,59084.0,254049.0,120909.0,251660.0,135756.0
2026-04-14 17:28:56.955926,321126,1609505230606407,2830575812,-1.124352,-0.072224,-0.232288,-6.7025,3.535,-4.13875,24.728,15.576001,19.552,concentric,3,3.0,59084.0,254049.0,120909.0,251660.0,135756.0
2026-04-14 17:28:56.958408,321127,1609505230620847,2830590669,-1.057984,-0.052704,-0.06832,0.175,4.13,-4.9525,25.048,15.56,19.728,concentric,3,3.0,59084.0,254049.0,120909.0,251660.0,135756.0
2026-04-14 17:28:56.960927,321128,1609505230629782,2830599393,-1.057984,-0.052704,-0.06832,4.865,3.94625,-4.55875,25.048,15.56,19.728,concentric,3,3.0,59084.0,254049.0,120909.0,251660.0,135756.0
2026-04-14 17:28:56.963412,321129,1609505230644255,2830614257,-1.16144,0.017568,-0.15616,-1.51375,2.5375,-4.27875,25.072,16.088001,20.008001,concentric,3,3.0,59084.0,254049.0,120909.0,251660.0,135756.0
2026-04-14 17:28:56.966065,321130,1609505230653180,2830622913,-1.114592,-0.115168,-0.304512,-13.440001,1.32125,-5.04,25.072,16.176,20.888,concentric,3,3.0,59084.0,254049.0,120909.0,251660.0,135756.0
2026-04-14 17:28:56.969060,321131,1609505230667653,2830637809,-1.114592,-0.115168,-0.304512,-18.7775,0.74375,-3.49125,25.072,16.176,20.888,concentric,3,3.0,59084.0,254049.0,120909.0,251660.0,135756.0
2026-04-14 17:28:57.001066,321142,1609505230676745,2830647038,-1.106784,-0.1464,-0.124928,-16.3275,-1.16375,-2.61625,25.400002,15.568001,19.448002,concentric,3,3.0,59185.0,258602.0,120514.0,254299.0,135267.0
2026-04-14 17:28:57.003558,321143,1609505230685741,2830655777,-1.106784,-0.1464,-0.124928,-5.5125,-2.1,-2.6775,25.400002,15.568001,19.448002,concentric,3,3.0,59185.0,258602.0,120514.0,254299.0,135267.0
2026-04-14 17:28:57.008209,321144,1609505230700210,2830668632,-1.16144,0.023424,-0.23424,9.23125,-0.77,-1.19875,26.080002,15.856001,19.664001,concentric,3,3.0,59185.0,258602.0,120514.0,254299.0,135267.0
2026-04-14 17:28:57.010061,321145,1609505230709433,2830679430,-1.16144,0.023424,-0.23424,13.99125,-0.79625,-2.03875,26.080002,15.856001,19.664001,concentric,3,3.0,59185.0,258602.0,120514.0,254299.0,135267.0
2026-04-14 17:28:57.013491,321146,1609505230723947,2830692324,-1.120448,0.023424,-0.189344,6.23,-1.77625,-4.2175,25.896002,16.04,19.584002,concentric,3,3.0,59185.0,258602.0,120514.0,254299.0,135267.0
2026-04-14 17:28:57.023542,321147,1609505230733129,2830703057,-1.095072,-0.160064,-0.203008,-10.36,-3.17625,-4.76875,25.928001,15.792001,21.032001,concentric,3,3.0,59185.0,258602.0,120514.0,254299.0,135267.0
