pc_time,serial_num,sensor_ts,host_ts,ax,ay,az,gx,gy,gz,mx,my,mz,phase,rpe,weight_kg,ppg_a,ppg_b,ppg_c,ppg_d,ppg_e
2026-04-08 21:49:42.585514,239932,1609504154782175,1754748340,0.860832,0.01952,-0.011712,-1.61875,-7.09625,-9.3625,-18.36,20.328001,3.792,concentric,3,3.0,20666.0,143240.0,229962.0,280384.0,263419.0
2026-04-08 21:49:42.587682,239933,1609504154796728,1754763270,0.833504,0.01952,-0.01952,-0.9275,-6.79,-8.35625,-18.512001,19.944,3.944,concentric,3,3.0,20666.0,143240.0,229962.0,280384.0,263419.0
2026-04-08 21:49:42.589743,239934,1609504154805698,1754772063,0.833504,0.01952,-0.01952,-0.97125,-6.85125,-7.6475,-18.512001,19.944,3.944,concentric,3,3.0,20666.0,143240.0,229962.0,280384.0,263419.0
2026-04-08 21:49:42.592209,239935,1609504154820243,1754786990,0.827648,0.005856,0.093696,1.19,-6.195,-7.6475,-18.512001,20.296001,5.152,concentric,3,3.0,20666.0,143240.0,229962.0,280384.0,263419.0
2026-04-08 21:49:42.594817,239936,1609504154829229,1754795686,0.817888,0.01952,0.042944,4.29625,-5.48625,-6.09875,-18.688002,19.896002,5.016,concentric,3,3.0,20666.0,143240.0,229962.0,280384.0,263419.0
2026-04-08 21:49:42.628409,239937,1609504154838149,1754804425,0.817888,0.01952,0.042944,5.73125,-5.60875,-4.9875,-18.688002,19.896002,5.016,concentric,3,3.0,20666.0,143240.0,229962.0,280384.0,263419.0
2026-04-08 21:49:42.632802,239938,1609504154852611,1754819275,0.837408,0.025376,0.052704,4.165,-6.30875,-8.02375,-18.512001,19.928001,4.208,concentric,3,3.0,20666.0,143240.0,229962.0,280384.0,263419.0
2026-04-08 21:49:42.634359,239939,1609504154861559,1754827997,0.837408,0.025376,0.052704,2.8,-5.38125,-11.165,-18.512001,19.928001,4.208,concentric,3,3.0,20666.0,143240.0,229962.0,280384.0,263419.0
2026-04-08 21:49:42.664751,239940,1609504154876057,1754842853,0.749568,0.037088,-0.040992,0.56,-4.66375,-9.38875,-18.864,20.008001,4.112,concentric,3,3.0,20666.0,143240.0,229962.0,280384.0,263419.0
2026-04-08 21:49:42.725803,239951,1609504154885168,1754851527,0.749568,0.037088,-0.040992,-4.445,-4.38375,-7.3675,-18.864,20.008001,4.112,concentric,3,3.0,20578.0,143141.0,230239.0,280718.0,263727.0
2026-04-08 21:49:42.727315,239952,1609504154899648,1754866410,0.745664,0.015616,-0.03904,-6.405,-4.73375,-7.4725,-18.688002,20.016,3.752,concentric,3,3.0,20578.0,143141.0,230239.0,280718.0,263727.0
2026-04-08 21:49:42.731590,239953,1609504154908565,1754875152,0.745664,0.015616,-0.03904,-3.45625,-4.80375,-8.295,-18.688002,20.016,3.752,concentric,3,3.0,20578.0,143141.0,230239.0,280718.0,263727.0
2026-04-08 21:49:42.733286,239954,1609504154917511,1754883831,0.825696,0.005856,0.101504,-1.855,-4.8825,-9.75625,-19.168001,19.464,4.064,concentric,3,3.0,20578.0,143141.0,230239.0,280718.0,263727.0
2026-04-08 21:49:42.734829,239955,1609504154931962,1754898672,0.76128,0.007808,-0.062464,-1.5925,-4.24375,-10.6925,-19.400002,20.088001,3.856,concentric,3,3.0,20578.0,143141.0,230239.0,280718.0,263727.0
2026-04-08 21:49:42.738579,239956,1609504154940887,1754907342,0.76128,0.007808,-0.062464,0.0525,-4.515,-11.3575,-19.400002,20.088001,3.856,concentric,3,3.0,20578.0,143141.0,230239.0,280718.0,263727.0
2026-04-08 21:49:42.739911,239957,1609504154955414,1754922276,0.860832,0.0,0.10736,-0.14875,-5.32875,-11.50625,-19.496,19.672,4.856,concentric,3,3.0,20578.0,143141.0,230239.0,280718.0,263727.0
2026-04-08 21:49:42.743709,239958,1609504154964443,1754930972,0.860832,0.0,0.10736,-0.00875,-5.705,-11.7775,-19.496,19.672,4.856,concentric,3,3.0,20578.0,143141.0,230239.0,280718.0,263727.0
2026-04-08 21:49:42.744829,239959,1609504154978994,1754945873,0.911584,-0.031232,0.035136,2.12625,-5.87125,-12.075,-19.392,19.808,3.616,concentric,3,3.0,20578.0,143141.0,230239.0,280718.0,263727.0
2026-04-08 21:49:42.787328,239970,1609504154987984,1754954622,0.911584,-0.031232,0.035136,2.94,-5.5125,-11.97875,-19.392,19.808,3.616,concentric,3,3.0,20541.0,143125.0,230257.0,280745.0,263718.0
2026-04-08 21:49:42.793641,239971,1609504154996931,1754963284,0.825696,0.03904,0.046848,3.99,-5.39,-11.64625,-19.344002,19.688002,3.776,concentric,3,3.0,20541.0,143125.0,230257.0,280745.0,263718.0
2026-04-08 21:49:42.795999,239972,1609504155011498,1754978266,0.784704,0.031232,-0.056608,9.12625,-5.20625,-11.27875,-19.944,19.536001,5.024,concentric,3,3.0,20541.0,143125.0,230257.0,280745.0,263718.0
2026-04-08 21:49:42.798582,239973,1609504155020394,1754986955,0.784704,0.031232,-0.056608,10.5875,-5.4425,-11.03375,-19.944,19.536001,5.024,concentric,3,3.0,20541.0,143125.0,230257.0,280745.0,263718.0
2026-04-08 21:49:42.801024,239974,1609504155034865,1755001830,0.948672,0.001952,0.005856,6.08125,-6.4925,-11.235,-19.880001,19.112001,3.616,concentric,3,3.0,20541.0,143125.0,230257.0,280745.0,263718.0
2026-04-08 21:49:42.832372,239975,1609504155043820,1755010540,0.948672,0.001952,0.005856,3.115,-5.8275,-11.45375,-19.880001,19.112001,3.616,concentric,3,3.0,20541.0,143125.0,230257.0,280745.0,263718.0
2026-04-08 21:49:42.834886,239976,1609504155052814,1755019202,0.90768,0.001952,-0.027328,1.72375,-5.04875,-11.27875,-20.064001,19.312,3.44,concentric,3,3.0,20541.0,143125.0,230257.0,280745.0,263718.0
2026-04-08 21:49:42.837246,239977,1609504155067315,1755034089,0.90768,0.001952,-0.027328,3.87625,-3.99875,-11.2525,-20.064001,19.312,3.44,concentric,3,3.0,20541.0,143125.0,230257.0,280745.0,263718.0
2026-04-08 21:49:42.843642,239978,1609504155076249,1755042755,0.837408,-0.027328,-0.07808,10.4125,-2.87875,-9.79125,-20.328001,19.112001,3.72,concentric,3,3.0,20541.0,143125.0,230257.0,280745.0,263718.0
2026-04-08 21:49:42.870964,239989,1609504155091126,1755058186,0.9272,0.00976,-0.00976,14.18375,-2.135,-9.65125,-20.688002,18.992,4.296,concentric,3,3.0,20463.0,142923.0,230272.0,280792.0,263764.0
2026-04-08 21:49:42.873509,239990,1609504155100056,1755066900,0.9272,0.00976,-0.00976,13.67625,-0.84,-10.68375,-20.688002,18.992,4.296,concentric,3,3.0,20463.0,142923.0,230272.0,280792.0,263764.0
2026-04-08 21:49:42.879836,239991,1609504155114577,1755079793,0.940864,0.103456,0.031232,13.667501,0.00875,-12.0575,-20.512001,18.704,4.448,concentric,3,3.0,20463.0,142923.0,230272.0,280792.0,263764.0
2026-04-08 21:49:42.910228,239992,1609504155123818,1755090568,0.940864,0.103456,0.031232,16.89625,1.225,-12.53,-20.512001,18.704,4.448,concentric,3,3.0,20463.0,142923.0,230272.0,280792.0,263764.0
2026-04-08 21:49:42.913641,239993,1609504155132814,1755099231,0.90768,0.11712,0.054656,15.3125,2.205,-13.30875,-20.552,18.712002,3.304,concentric,3,3.0,20463.0,142923.0,230272.0,280792.0,263764.0
2026-04-08 21:49:42.915941,239994,1609504155147307,1755114095,0.90768,0.11712,0.054656,9.09125,2.94,-13.1425,-20.552,18.712002,3.304,concentric,3,3.0,20463.0,142923.0,230272.0,280792.0,263764.0
2026-04-08 21:49:42.922292,239995,1609504155156241,1755122761,0.921344,0.064416,0.05856,6.95625,4.095,-12.0925,-20.784,18.472,4.104,concentric,3,3.0,20463.0,142923.0,230272.0,280792.0,263764.0
2026-04-08 21:49:42.952580,239996,1609504155170695,1755137610,0.921344,0.064416,0.001952,8.9775,4.68125,-10.5875,-20.784,18.472,4.104,concentric,3,3.0,20463.0,142923.0,230272.0,280792.0,263764.0
2026-04-08 21:49:42.956089,239997,1609504155179667,1755146279,0.874496,0.074176,0.001952,8.0675,4.08625,-9.91375,-21.152,18.672,3.056,concentric,3,3.0,20463.0,142923.0,230272.0,280792.0,263764.0
2026-04-08 21:49:43.018517,240008,1609504155188778,1755154960,0.874496,0.074176,0.001952,3.9725,3.92875,-9.59,-21.152,18.672,3.056,concentric,3,3.0,20736.0,143782.0,230860.0,281029.0,263796.0
2026-04-08 21:49:43.021071,240009,1609504155203274,1755169865,0.890112,0.076128,-0.103456,1.8025,3.91125,-9.730001,-21.088001,18.712002,4.184,concentric,3,3.0,20736.0,143782.0,230860.0,281029.0,263796.0
2026-04-08 21:49:43.027367,240010,1609504155212356,1755178606,0.851072,0.072224,-0.119072,3.36,4.515,-9.7475,-20.960001,18.488,4.336,concentric,3,3.0,20736.0,143782.0,230860.0,281029.0,263796.0
2026-04-08 21:49:43.029852,240011,1609504155226859,1755193477,0.851072,0.072224,-0.119072,5.075,5.45125,-10.12375,-20.960001,18.488,4.336,concentric,3,3.0,20736.0,143782.0,230860.0,281029.0,263796.0
2026-04-08 21:49:43.032288,240012,1609504155235768,1755202138,0.911584,0.083936,0.060512,6.5975,5.24125,-10.64875,-21.232,18.472,4.176,concentric,3,3.0,20736.0,143782.0,230860.0,281029.0,263796.0
2026-04-08 21:49:43.034840,240013,1609504155250404,1755217122,0.911584,0.083936,0.060512,6.5275,4.9875,-10.5875,-21.232,18.472,4.176,concentric,3,3.0,20736.0,143782.0,230860.0,281029.0,263796.0
2026-04-08 21:49:43.037300,240014,1609504155259340,1755225809,0.954528,0.052704,-0.072224,4.83,4.54125,-11.38375,-21.168001,18.408,3.96,concentric,3,3.0,20736.0,143782.0,230860.0,281029.0,263796.0
2026-04-08 21:49:43.039758,240015,1609504155268344,1755234451,0.954528,0.052704,-0.072224,2.45,4.40125,-12.15375,-21.168001,18.408,3.96,concentric,3,3.0,20736.0,143782.0,230860.0,281029.0,263796.0
2026-04-08 21:49:43.073601,240026,1609504155282845,1755249328,0.944768,0.062464,0.08784,-2.21375,4.52375,-10.8675,-21.584002,18.592001,4.944,concentric,3,3.0,20683.0,143575.0,230697.0,280938.0,263738.0
2026-04-08 21:49:43.076004,240027,1609504155292216,1755258037,0.905728,0.052704,0.044896,-1.53125,4.82125,-8.88125,-21.584002,18.016,5.752,concentric,3,3.0,20683.0,143575.0,230697.0,280938.0,263738.0
2026-04-08 21:49:43.078572,240028,1609504155306748,1755272954,0.905728,0.052704,0.044896,2.87875,4.29625,-9.09125,-21.896002,18.016,5.752,concentric,3,3.0,20683.0,143575.0,230697.0,280938.0,263738.0
2026-04-08 21:49:43.081077,240029,1609504155315675,1755281625,0.981856,0.025376,-0.023424,5.705,3.14125,-10.71,-21.76,17.832,5.256,concentric,3,3.0,20683.0,143575.0,230697.0,280938.0,263738.0
2026-04-08 21:49:43.111171,240030,1609504155324598,1755290279,0.981856,0.025376,-0.023424,6.93,1.79375,-11.795,-21.76,17.832,5.256,concentric,3,3.0,20683.0,143575.0,230697.0,280938.0,263738.0
2026-04-08 21:49:43.118509,240031,1609504155339073,1755305129,0.962336,0.109312,0.03904,6.1425,1.2075,-12.95,-22.256,18.320002,4.072,concentric,3,3.0,20683.0,143575.0,230697.0,280938.0,263738.0
2026-04-08 21:49:43.120990,240032,1609504155348003,1755313804,0.962336,0.109312,0.03904,6.44875,1.98625,-13.72875,-22.256,18.320002,4.072,concentric,3,3.0,20683.0,143575.0,230697.0,280938.0,263738.0
2026-04-08 21:49:43.127251,240033,1609504155362519,1755328674,0.925248,0.074176,-0.091744,8.636251,4.12125,-11.9875,-22.432001,17.744001,4.192,concentric,3,3.0,20683.0,143575.0,230697.0,280938.0,263738.0
2026-04-08 21:49:43.157391,240034,1609504155371773,1755337415,0.925248,0.074176,-0.091744,7.9275,4.2875,-10.40375,-22.432001,17.744001,4.192,concentric,3,3.0,20683.0,143575.0,230697.0,280938.0,263738.0
2026-04-08 21:49:43.160990,240035,1609504155381174,1755348196,0.942816,0.08784,-0.040992,8.1725,3.01,-9.9925,-22.608002,17.92,4.104,concentric,3,3.0,20683.0,143575.0,230697.0,280938.0,263738.0
2026-04-08 21:49:43.188453,240046,1609504155395684,1755361033,0.979904,0.056608,-0.111264,9.5375,1.91625,-10.49125,-22.52,17.936,4.632,concentric,3,3.0,20636.0,143409.0,230496.0,280785.0,263638.0
2026-04-08 21:49:43.190968,240047,1609504155405085,1755371830,0.979904,0.056608,-0.111264,8.00625,1.12,-11.97,-22.52,17.936,4.632,concentric,3,3.0,20636.0,143409.0,230496.0,280785.0,263638.0
2026-04-08 21:49:43.193460,240048,1609504155419602,1755386735,0.954528,0.089792,-0.169824,4.52375,1.56625,-14.2275,-22.968,17.528002,6.608,concentric,3,3.0,20636.0,143409.0,230496.0,280785.0,263638.0
2026-04-08 21:49:43.195967,240049,1609504155428543,1755395420,0.954528,0.089792,-0.169824,0.665,1.8375,-16.45875,-22.968,17.528002,6.608,concentric,3,3.0,20636.0,143409.0,230496.0,280785.0,263638.0
2026-04-08 21:49:43.227015,240050,1609504155443069,1755408298,0.958432,0.138592,0.062464,-3.8325,2.2925,-15.995,-23.184002,17.76,5.568,concentric,3,3.0,20636.0,143409.0,230496.0,280785.0,263638.0
2026-04-08 21:49:43.229686,240051,1609504155452302,1755419020,0.958432,0.138592,0.062464,-3.54375,2.93125,-11.73375,-23.184002,17.76,5.568,concentric,3,3.0,20636.0,143409.0,230496.0,280785.0,263638.0
2026-04-08 21:49:43.232252,240052,1609504155461207,1755427688,0.95648,0.064416,-0.017568,-4.9175,2.35375,-11.725,-23.048,17.816,4.64,concentric,3,3.0,20636.0,143409.0,230496.0,280785.0,263638.0
2026-04-08 21:49:43.262409,240053,1609504155475725,1755442588,0.950624,0.035136,-0.122976,-6.685,1.1725,-13.97375,-23.096,17.528002,4.872,concentric,3,3.0,20636.0,143409.0,230496.0,280785.0,263638.0
2026-04-08 21:49:43.367247,240064,1609504155484757,1755451312,0.950624,0.035136,-0.122976,-0.175,0.2625,-8.295,-23.096,17.528002,4.872,concentric,3,3.0,20606.0,143251.0,230294.0,280609.0,263515.0
2026-04-08 21:49:43.369791,240065,1609504155499299,1755466176,0.954528,0.050752,-0.17568,3.395,-0.67375,-8.67125,-23.424002,17.536001,4.84,concentric,3,3.0,20606.0,143251.0,230294.0,280609.0,263515.0
2026-04-08 21:49:43.372290,240066,1609504155508266,1755474926,0.954528,0.050752,-0.17568,6.32625,-1.07625,-15.00625,-23.424002,17.536001,4.84,concentric,3,3.0,20606.0,143251.0,230294.0,280609.0,263515.0
2026-04-08 21:49:43.374750,240067,1609504155517195,1755483625,0.933056,0.13664,0.056608,12.6,-0.6125,-15.65375,-23.768002,17.168001,5.72,concentric,3,3.0,20606.0,143251.0,230294.0,280609.0,263515.0
2026-04-08 21:49:43.377360,240068,1609504155531635,1755498478,0.933056,0.13664,0.056608,15.190001,-0.20125,-12.8275,-23.768002,17.168001,5.72,concentric,3,3.0,20606.0,143251.0,230294.0,280609.0,263515.0
2026-04-08 21:49:43.379937,240069,1609504155540523,1755507133,0.948672,0.10736,-0.095648,13.37,-0.91875,-13.5275,-23.744001,16.976002,4.832,concentric,3,3.0,20606.0,143251.0,230294.0,280609.0,263515.0
2026-04-08 21:49:43.383228,240070,1609504155555003,1755521999,1.00528,0.099552,0.07808,11.83875,-1.74125,-15.26875,-23.992,16.464,5.04,concentric,3,3.0,20606.0,143251.0,230294.0,280609.0,263515.0
2026-04-08 21:49:43.384799,240071,1609504155563919,1755530667,1.00528,0.099552,0.07808,10.01,-2.72125,-15.23375,-23.992,16.464,5.04,concentric,3,3.0,20606.0,143251.0,230294.0,280609.0,263515.0
2026-04-08 21:49:43.387333,240072,1609504155578386,1755545497,1.032608,0.08784,0.017568,8.995,-2.59,-15.28625,-24.36,16.976002,4.752,concentric,3,3.0,20606.0,143251.0,230294.0,280609.0,263515.0
2026-04-08 21:49:43.418485,240083,1609504155587403,1755552556,1.032608,0.08784,0.017568,5.99375,-1.81125,-15.75,-24.36,16.976002,4.752,concentric,3,3.0,20541.0,143063.0,230145.0,280449.0,263404.0
2026-04-08 21:49:43.421061,240084,1609504155596572,1755563312,0.90768,0.160064,-0.099552,4.865,-0.28875,-15.9075,-24.264002,16.688002,5.136,concentric,3,3.0,20541.0,143063.0,230145.0,280449.0,263404.0
2026-04-08 21:49:43.423529,240085,1609504155611104,1755578266,0.90768,0.160064,-0.099552,7.30625,-0.945,-15.82875,-24.264002,16.688002,5.136,concentric,3,3.0,20541.0,143063.0,230145.0,280449.0,263404.0
2026-04-08 21:49:43.426111,240086,1609504155620095,1755586954,1.056032,0.130784,0.040992,8.785,-2.1175,-15.75,-24.712002,16.456001,5.816001,concentric,3,3.0,20541.0,143063.0,230145.0,280449.0,263404.0
2026-04-08 21:49:43.428529,240087,1609504155634612,1755599779,1.0248,0.1464,-0.0976,8.60125,-3.10625,-14.1925,-25.256,16.464,6.344,concentric,3,3.0,20541.0,143063.0,230145.0,280449.0,263404.0
2026-04-08 21:49:43.431038,240088,1609504155643801,1755610575,1.0248,0.1464,-0.0976,9.1175,-3.21125,-12.59125,-25.256,16.464,6.344,concentric,3,3.0,20541.0,143063.0,230145.0,280449.0,263404.0
2026-04-08 21:49:43.433529,240089,1609504155652922,1755619334,1.0248,0.1464,-0.0976,12.11875,-1.2425,-11.31375,-25.256,16.464,6.344,concentric,3,3.0,20541.0,143063.0,230145.0,280449.0,263404.0
2026-04-08 21:49:43.436053,240090,1609504155667480,1755634300,1.011136,0.187392,-0.1464,13.545,0.9625,-10.33375,-24.784,16.312,5.32,concentric,3,3.0,20541.0,143063.0,230145.0,280449.0,263404.0
2026-04-08 21:49:43.442630,240091,1609504155676378,1755643017,1.028704,0.249856,0.033184,13.877501,0.8575,-8.2425,-24.960001,16.44,4.552,concentric,3,3.0,20541.0,143063.0,230145.0,280449.0,263404.0
2026-04-08 21:49:43.498580,240102,1609504155691019,1755657909,1.028704,0.249856,0.033184,12.03125,-0.6825,-6.08125,-24.960001,16.44,4.552,concentric,3,3.0,20489.0,142859.0,229864.0,280203.0,263249.0
2026-04-08 21:49:43.501098,240103,1609504155699931,1755666600,1.104832,0.16592,0.052704,6.4575,-2.05625,-4.03375,-24.968,16.320002,4.88,concentric,3,3.0,20489.0,142859.0,229864.0,280203.0,263249.0
2026-04-08 21:49:43.503587,240104,1609504155714383,1755681456,1.104832,0.16592,0.050752,0.5075,-3.1325,-3.33375,-24.968,16.320002,4.88,concentric,3,3.0,20489.0,142859.0,229864.0,280203.0,263249.0
2026-04-08 21:49:43.506133,240105,1609504155723321,1755690205,1.169248,0.095648,0.050752,-2.24,-3.21125,-5.0225,-25.28,15.928,5.512,concentric,3,3.0,20489.0,142859.0,229864.0,280203.0,263249.0
2026-04-08 21:49:43.508635,240106,1609504155732313,1755698930,1.169248,0.095648,0.050752,-0.28,-2.52,-7.23625,-25.28,15.928,5.512,concentric,3,3.0,20489.0,142859.0,229864.0,280203.0,263249.0
2026-04-08 21:49:43.513581,240107,1609504155746843,1755713866,1.188768,0.16592,0.017568,3.89375,-2.00375,-10.24625,-25.400002,16.136002,5.92,concentric,3,3.0,20489.0,142859.0,229864.0,280203.0,263249.0
2026-04-08 21:49:43.543770,240108,1609504155755828,1755722588,1.126304,0.249856,-0.08784,7.49875,-2.0125,-10.89375,-25.344002,15.856001,6.888001,concentric,3,3.0,20489.0,142859.0,229864.0,280203.0,263249.0
2026-04-08 21:49:43.547721,240109,1609504155770304,1755737412,1.126304,0.249856,-0.08784,12.74875,-1.785,-9.10875,-25.344002,15.856001,6.888001,concentric,3,3.0,20489.0,142859.0,229864.0,280203.0,263249.0
2026-04-08 21:49:43.550654,240110,1609504155779230,1755746065,1.143872,0.236192,0.056608,14.3325,-1.56625,-6.475,-25.552002,15.784,5.456,concentric,3,3.0,20489.0,142859.0,229864.0,280203.0,263249.0
2026-04-08 21:49:43.612251,240121,1609504155793799,1755758992,1.143872,0.236192,0.056608,9.12625,-1.82875,-4.41875,-25.552002,15.784,5.456,concentric,3,3.0,20440.0,142460.0,229392.0,279769.0,262962.0
2026-04-08 21:49:43.614759,240122,1609504155803120,1755769755,1.128256,0.230336,-0.074176,3.73625,-2.135,-1.4175,-25.376001,16.264,6.624001,concentric,3,3.0,20440.0,142460.0,229392.0,279769.0,262962.0
2026-04-08 21:49:43.617280,240123,1609504155812141,1755778517,1.128256,0.230336,-0.074176,0.70875,-0.9275,1.44375,-25.376001,16.264,6.624001,concentric,3,3.0,20440.0,142460.0,229392.0,279769.0,262962.0
2026-04-08 21:49:43.619795,240124,1609504155826647,1755793385,1.118496,0.203008,0.023424,0.7175,0.49,2.59,-25.44,16.168001,5.264,concentric,3,3.0,20440.0,142460.0,229392.0,279769.0,262962.0
2026-04-08 21:49:43.622221,240125,1609504155835568,1755802048,1.056032,0.193248,-0.095648,-3.77125,1.16375,2.6075,-25.44,16.168001,5.56,concentric,3,3.0,20440.0,142460.0,229392.0,279769.0,262962.0
2026-04-08 21:49:43.624743,240126,1609504155850052,1755816918,1.057984,0.193248,-0.095648,-0.65625,1.18125,3.465,-25.168001,16.368,5.56,concentric,3,3.0,20440.0,142460.0,229392.0,279769.0,262962.0
2026-04-08 21:49:43.629983,240127,1609504155858978,1755825545,1.079456,0.226432,0.121024,5.3725,1.1375,3.6225,-24.776001,16.144001,5.912,concentric,3,3.0,20440.0,142460.0,229392.0,279769.0,262962.0
2026-04-08 21:49:43.633912,240128,1609504155867900,1755834248,1.079456,0.226432,0.121024,7.42875,0.90125,3.8675,-24.776001,16.144001,5.912,concentric,3,3.0,20440.0,142460.0,229392.0,279769.0,262962.0
2026-04-08 21:49:43.663763,240129,1609504155882359,1755849122,1.018944,0.251808,0.003904,7.6825,1.155,5.2675,-25.024002,16.216002,6.928001,concentric,3,3.0,20440.0,142460.0,229392.0,279769.0,262962.0
2026-04-08 21:49:43.696079,240140,1609504155891388,1755858256,1.018944,0.251808,0.003904,6.50125,1.40875,5.1625,-25.024002,16.216002,6.928001,concentric,3,3.0,20483.0,142496.0,229305.0,279645.0,262840.0
2026-04-08 21:49:43.698544,240141,1609504155905878,1755871104,0.972096,0.18544,-0.12688,1.05875,1.925,4.48,-25.168001,16.264,5.6,concentric,3,3.0,20483.0,142496.0,229305.0,279645.0,262840.0
2026-04-08 21:49:43.701078,240142,1609504155915139,1755881867,0.972096,0.18544,-0.12688,-7.3675,1.44375,4.2875,-25.168001,16.264,5.6,concentric,3,3.0,20483.0,142496.0,229305.0,279645.0,262840.0
2026-04-08 21:49:43.703505,240143,1609504155929785,1755896836,1.04432,0.169824,0.08784,-6.46625,0.9975,3.29,-25.240002,16.320002,7.592001,concentric,3,3.0,20483.0,142496.0,229305.0,279645.0,262840.0
2026-04-08 21:49:43.706046,240144,1609504155938791,1755905544,1.032608,0.167872,-0.17568,-0.76125,1.4525,1.82,-25.088001,16.560001,5.552,concentric,3,3.0,20483.0,142496.0,229305.0,279645.0,262840.0
2026-04-08 21:49:43.713552,240145,1609504155947730,1755914212,1.032608,0.167872,-0.17568,3.9725,2.00375,3.07125,-25.088001,16.560001,5.552,concentric,3,3.0,20483.0,142496.0,229305.0,279645.0,262840.0
2026-04-08 21:49:43.743947,240146,1609504155962199,1755929044,1.077504,0.249856,0.017568,11.6375,2.91375,7.0175,-24.352001,16.472,5.824,concentric,3,3.0,20483.0,142496.0,229305.0,279645.0,262840.0
2026-04-08 21:49:43.747287,240147,1609504155971084,1755937689,1.077504,0.249856,0.017568,17.491251,3.82375,9.21375,-24.352001,16.472,5.824,concentric,3,3.0,20483.0,142496.0,229305.0,279645.0,262840.0
2026-04-08 21:49:43.779772,240159,1609504155985544,1755952484,1.028704,0.236192,-0.017568,15.645,4.31375,9.31,-24.52,16.44,5.776001,concentric,3,3.0,20580.0,142678.0,229242.0,279528.0,262715.0
2026-04-08 21:49:43.783167,240160,1609504155994552,1755961195,1.028704,0.236192,-0.017568,5.0225,4.26125,11.96125,-24.52,16.44,5.776001,concentric,3,3.0,20580.0,142678.0,229242.0,279528.0,262715.0
2026-04-08 21:49:43.784748,240161,1609504156009132,1755976146,1.110688,0.134688,-0.001952,-6.51875,4.0425,15.3125,-24.504002,16.720001,6.944,concentric,3,3.0,20580.0,142678.0,229242.0,279528.0,262715.0
2026-04-08 21:49:43.788199,240162,1609504156018065,1755984824,1.056032,0.12688,0.089792,-11.05125,4.34,16.8175,-24.024002,16.688002,5.896,concentric,3,3.0,20580.0,142678.0,229242.0,279528.0,262715.0
2026-04-08 21:49:43.792440,240163,1609504156027178,1755993524,1.056032,0.12688,0.089792,-9.073751,4.8825,16.98375,-24.024002,16.688002,5.896,concentric,3,3.0,20580.0,142678.0,229242.0,279528.0,262715.0
2026-04-08 21:49:43.822420,240164,1609504156041658,1756008391,1.040416,0.150304,-0.119072,-2.70375,5.215,17.70125,-23.512001,17.12,6.176,eccentric,3,3.0,20580.0,142678.0,229242.0,279528.0,262715.0
2026-04-08 21:49:43.825969,240165,1609504156050554,1756017052,1.040416,0.150304,-0.119072,1.84625,5.145,17.0975,-23.512001,17.12,6.176,eccentric,3,3.0,20580.0,142678.0,229242.0,279528.0,262715.0
2026-04-08 21:49:43.830969,240166,1609504156065047,1756032027,1.032608,0.07808,-0.101504,6.95625,5.62625,14.0175,-23.256,17.472,6.096,eccentric,3,3.0,20580.0,142678.0,229242.0,279528.0,262715.0
2026-04-08 21:49:43.861181,240167,1609504156073967,1756040701,1.032608,0.07808,-0.101504,1.12,5.45125,12.85375,-23.256,17.472,6.096,eccentric,3,3.0,20580.0,142678.0,229242.0,279528.0,262715.0
2026-04-08 21:49:43.864806,240168,1609504156082886,1756049388,0.935008,0.132736,-0.152256,-11.47125,5.1975,14.91875,-23.576,17.312,6.592001,eccentric,3,3.0,20580.0,142678.0,229242.0,279528.0,262715.0
2026-04-08 21:49:43.924723,240178,1609504156097464,1756064281,1.003328,0.13664,0.05856,-11.69,5.355,16.8525,-23.576,17.464,6.008,eccentric,3,3.0,20655.0,142958.0,229587.0,279783.0,262872.0
2026-04-08 21:49:43.927267,240179,1609504156106427,1756072934,1.003328,0.13664,0.05856,-8.68875,6.3,17.35125,-23.176,17.464,6.008,eccentric,3,3.0,20655.0,142958.0,229587.0,279783.0,262872.0
2026-04-08 21:49:43.929776,240180,1609504156120931,1756087827,1.01504,0.160064,0.046848,-6.53625,6.58,17.6925,-22.536001,18.192001,6.048,eccentric,3,3.0,20655.0,142958.0,229587.0,279783.0,262872.0
2026-04-08 21:49:43.932286,240181,1609504156129832,1756096481,1.01504,0.160064,0.046848,-3.0625,6.3175,20.6675,-22.536001,18.192001,6.048,eccentric,3,3.0,20655.0,142958.0,229587.0,279783.0,262872.0
2026-04-08 21:49:43.934782,240182,1609504156144288,1756111354,1.01504,0.101504,0.027328,0.1925,6.25625,21.9975,-22.328001,18.08,6.192,eccentric,3,3.0,20655.0,142958.0,229587.0,279783.0,262872.0
2026-04-08 21:49:43.937257,240183,1609504156153225,1756120050,1.01504,0.101504,0.027328,-0.385,6.50125,21.76125,-22.328001,18.08,6.192,eccentric,3,3.0,20655.0,142958.0,229587.0,279783.0,262872.0
2026-04-08 21:49:43.939719,240184,1609504156162143,1756128746,0.987712,0.052704,-0.066368,-11.12125,5.9675,22.95125,-22.12,18.144001,6.288,eccentric,3,3.0,20655.0,142958.0,229587.0,279783.0,262872.0
2026-04-08 21:49:43.942547,240185,1609504156176673,1756143796,0.987712,0.052704,-0.066368,-20.51875,5.45125,25.5675,-22.12,18.144001,6.288,eccentric,3,3.0,20655.0,142958.0,229587.0,279783.0,262872.0
2026-04-08 21:49:43.975052,240186,1609504156185627,1756152501,0.989664,0.03904,0.080032,-19.71375,4.75125,27.44875,-21.696001,18.184,6.144,eccentric,3,3.0,20655.0,142958.0,229587.0,279783.0,262872.0
2026-04-08 21:49:44.006011,240198,1609504156200173,1756165341,0.950624,0.015616,-0.042944,-16.24875,4.24375,23.9925,-21.392,18.944,6.208,eccentric,3,3.0,20664.0,143104.0,229833.0,280081.0,263134.0
2026-04-08 21:49:44.008528,240199,1609504156209329,1756176088,0.950624,0.015616,-0.042944,-11.40125,3.115,18.0425,-21.392,18.944,6.208,eccentric,3,3.0,20664.0,143104.0,229833.0,280081.0,263134.0
2026-04-08 21:49:44.011095,240200,1609504156223819,1756188967,0.925248,0.042944,-0.128832,-2.70375,2.52875,18.34,-21.12,19.0,7.56,eccentric,3,3.0,20664.0,143104.0,229833.0,280081.0,263134.0
2026-04-08 21:49:44.013515,240201,1609504156233125,1756199741,0.925248,0.042944,-0.128832,0.37625,2.31,19.80125,-21.12,19.0,7.56,eccentric,3,3.0,20664.0,143104.0,229833.0,280081.0,263134.0
2026-04-08 21:49:44.016038,240202,1609504156242040,1756208479,0.915488,0.076128,0.066368,-3.14125,2.0825,16.9925,-20.536001,19.112001,7.296001,eccentric,3,3.0,20664.0,143104.0,229833.0,280081.0,263134.0
2026-04-08 21:49:44.022330,240203,1609504156256558,1756223437,0.915488,0.076128,0.066368,-10.386251,2.16125,13.64125,-20.536001,19.112001,7.296001,eccentric,3,3.0,20664.0,143104.0,229833.0,280081.0,263134.0
2026-04-08 21:49:44.052628,240204,1609504156265572,1756232135,0.901824,0.003904,-0.162016,-17.78875,0.735,14.06125,-20.656,19.288,6.376,eccentric,3,3.0,20664.0,143104.0,229833.0,280081.0,263134.0
2026-04-08 21:49:44.056079,240205,1609504156280045,1756246982,0.94672,0.005856,0.03904,-25.19125,-0.035,14.385,-20.176,19.432001,7.816001,eccentric,3,3.0,20664.0,143104.0,229833.0,280081.0,263134.0
2026-04-08 21:49:44.086057,240216,1609504156288992,1756256117,0.94672,0.005856,0.03904,-28.245,-0.2275,12.59125,-20.176,19.432001,7.816001,eccentric,3,3.0,20628.0,143125.0,230039.0,280342.0,263363.0
2026-04-08 21:49:44.088603,240217,1609504156303542,1756268957,0.860832,0.013664,-0.025376,-22.3125,-0.25375,9.89625,-20.080002,19.928001,6.000001,eccentric,3,3.0,20628.0,143125.0,230039.0,280342.0,263363.0
2026-04-08 21:49:44.091023,240218,1609504156312760,1756279732,0.860832,0.013664,-0.025376,-16.1175,-0.00875,8.26875,-20.080002,19.928001,6.000001,eccentric,3,3.0,20628.0,143125.0,230039.0,280342.0,263363.0
2026-04-08 21:49:44.093560,240219,1609504156321681,1756288447,0.83936,0.02928,-0.003904,-13.13375,-0.60375,7.42875,-20.136002,19.736,5.992,eccentric,3,3.0,20628.0,143125.0,230039.0,280342.0,263363.0
2026-04-08 21:49:44.123776,240220,1609504156336192,1756303300,0.83936,0.02928,-0.003904,-11.0075,-1.3475,7.88375,-20.136002,19.736,5.992,eccentric,3,3.0,20628.0,143125.0,230039.0,280342.0,263363.0
2026-04-08 21:49:44.127316,240221,1609504156345102,1756312002,0.837408,0.0488,-0.154208,-11.83,-2.1525,8.225,-19.496,19.704,6.72,eccentric,3,3.0,20628.0,143125.0,230039.0,280342.0,263363.0
2026-04-08 21:49:44.129860,240222,1609504156359580,1756324812,0.862784,0.02928,-0.07808,-12.88,-1.25125,8.505,-19.68,19.848001,6.568,eccentric,3,3.0,20628.0,143125.0,230039.0,280342.0,263363.0
2026-04-08 21:49:44.136111,240223,1609504156368813,1756335548,0.862784,0.02928,-0.07808,-11.78625,-0.9275,9.45,-19.68,19.848001,6.568,eccentric,3,3.0,20628.0,143125.0,230039.0,280342.0,263363.0
2026-04-08 21:49:44.166288,240224,1609504156377779,1756344253,0.862784,0.02928,-0.07808,-13.13375,-1.33,10.99875,-19.68,19.848001,6.568,eccentric,3,3.0,20628.0,143125.0,230039.0,280342.0,263363.0
2026-04-08 21:49:44.236001,240235,1609504156392876,1756359169,0.841312,0.003904,-0.05856,-14.7175,-2.5375,11.7775,-19.432001,20.024,5.480001,eccentric,3,3.0,20724.0,143539.0,230449.0,280657.0,263556.0
2026-04-08 21:49:44.238515,240236,1609504156401806,1756367809,0.817888,0.005856,0.037088,-14.49875,-2.33625,11.55,-19.2,20.072,5.608,eccentric,3,3.0,20724.0,143539.0,230449.0,280657.0,263556.0
2026-04-08 21:49:44.241036,240237,1609504156416321,1756382737,0.817888,0.005856,0.037088,-14.86625,-1.81125,11.1825,-19.2,20.072,5.608,eccentric,3,3.0,20724.0,143539.0,230449.0,280657.0,263556.0
2026-04-08 21:49:44.243567,240238,1609504156425265,1756391413,0.890112,-0.025376,-0.03904,-13.877501,-2.19625,12.0575,-18.880001,20.400002,5.784,eccentric,3,3.0,20724.0,143539.0,230449.0,280657.0,263556.0
2026-04-08 21:49:44.246104,240239,1609504156434157,1756400140,0.890112,-0.025376,-0.03904,-14.7875,-2.45875,13.125,-18.880001,20.400002,5.784,eccentric,3,3.0,20724.0,143539.0,230449.0,280657.0,263556.0
2026-04-08 21:49:44.248531,240240,1609504156448608,1756415037,0.7808,0.00976,-0.050752,-14.2275,-2.5725,13.9125,-18.68,20.28,5.552,eccentric,3,3.0,20724.0,143539.0,230449.0,280657.0,263556.0
2026-04-08 21:49:44.251011,240241,1609504156457600,1756423751,0.7808,0.00976,-0.050752,-10.5875,-2.23125,13.23875,-18.68,20.28,5.552,eccentric,3,3.0,20724.0,143539.0,230449.0,280657.0,263556.0
2026-04-08 21:49:44.253554,240242,1609504156472177,1756438688,0.77104,-0.031232,-0.066368,-9.23125,-2.96625,11.9,-18.992,20.240002,6.512,eccentric,3,3.0,20724.0,143539.0,230449.0,280657.0,263556.0
2026-04-08 21:49:44.256019,240243,1609504156481114,1756447396,0.827648,-0.013664,0.01952,-9.1,-4.375,12.03125,-18.424002,20.448002,7.168,eccentric,3,3.0,20724.0,143539.0,230449.0,280657.0,263556.0
2026-04-08 21:49:44.288548,240254,1609504156495714,1756462387,0.827648,-0.013664,0.01952,-14.0875,-5.8275,9.66,-18.424002,20.448002,7.168,eccentric,3,3.0,20858.0,143986.0,230764.0,280803.0,263596.0
2026-04-08 21:49:44.291032,240255,1609504156504665,1756471069,0.9272,-0.035136,0.070272,-17.96375,-6.44,6.53625,-18.544,20.640001,6.472,eccentric,3,3.0,20858.0,143986.0,230764.0,280803.0,263596.0
2026-04-08 21:49:44.293568,240256,1609504156513599,1756479742,0.9272,-0.035136,0.070272,-19.31125,-6.6325,4.2525,-18.544,20.640001,6.472,eccentric,3,3.0,20858.0,143986.0,230764.0,280803.0,263596.0
2026-04-08 21:49:44.296140,240257,1609504156528110,1756494667,0.79056,-0.03904,-0.052704,-19.39875,-5.9675,3.5,-18.6,20.640001,6.728,eccentric,3,3.0,20858.0,143986.0,230764.0,280803.0,263596.0
2026-04-08 21:49:44.326233,240258,1609504156537171,1756503435,0.79056,-0.03904,-0.052704,-17.36875,-4.4275,3.75375,-18.6,20.640001,6.728,eccentric,3,3.0,20858.0,143986.0,230764.0,280803.0,263596.0
2026-04-08 21:49:44.329876,240259,1609504156551653,1756518422,0.77104,-0.042944,-0.033184,-16.4325,-3.465,3.7275,-18.072,20.776001,6.056,eccentric,3,3.0,20858.0,143986.0,230764.0,280803.0,263596.0
2026-04-08 21:49:44.332374,240260,1609504156560558,1756527076,0.915488,-0.00976,0.070272,-17.3075,-4.69,1.72375,-18.072,20.616001,4.888,eccentric,3,3.0,20858.0,143986.0,230764.0,280803.0,263596.0
2026-04-08 21:49:44.362561,240261,1609504156575028,1756541939,0.915488,-0.00976,0.070272,-18.62875,-6.27375,0.2975,-18.232,20.616001,4.888,eccentric,3,3.0,20858.0,143986.0,230764.0,280803.0,263596.0
2026-04-08 21:49:44.366111,240262,1609504156583986,1756550600,0.913536,-0.025376,-0.025376,-17.045,-7.21875,-1.2075,-17.864,21.112001,4.616,eccentric,3,3.0,20858.0,143986.0,230764.0,280803.0,263596.0
2026-04-08 21:49:44.393729,240273,1609504156593478,1756559813,0.913536,-0.025376,-0.025376,-18.50625,-6.76375,-5.6,-17.864,21.112001,4.616,eccentric,3,3.0,20962.0,144282.0,230934.0,280857.0,263565.0
2026-04-08 21:49:44.396082,240274,1609504156608146,1756574720,0.837408,-0.052704,0.035136,-20.3525,-4.7425,-7.385,-17.952002,20.656,4.256,eccentric,3,3.0,20962.0,144282.0,230934.0,280857.0,263565.0
2026-04-08 21:49:44.398589,240275,1609504156617174,1756583441,0.837408,-0.052704,0.035136,-19.57375,-1.75,-3.3775,-17.952002,20.656,4.256,eccentric,3,3.0,20962.0,144282.0,230934.0,280857.0,263565.0
2026-04-08 21:49:44.401460,240276,1609504156631698,1756598310,0.821792,-0.015616,-0.031232,-20.13375,-0.34125,0.13125,-17.808,21.032001,5.712,eccentric,3,3.0,20962.0,144282.0,230934.0,280857.0,263565.0
2026-04-08 21:49:44.406150,240277,1609504156640639,1756607076,0.821792,-0.001952,-0.07808,-18.147501,-0.455,1.14625,-17.808,21.032001,5.712,eccentric,3,3.0,20962.0,144282.0,230934.0,280857.0,263565.0
2026-04-08 21:49:44.436243,240278,1609504156649565,1756615758,0.831552,-0.001952,-0.07808,-12.8625,0.28,1.47875,-18.072,21.056002,2.912,eccentric,3,3.0,20962.0,144282.0,230934.0,280857.0,263565.0
2026-04-08 21:49:44.439944,240279,1609504156664037,1756630642,0.86864,-0.044896,0.0488,-8.9425,1.295,0.55125,-17.872002,20.976002,4.528,eccentric,3,3.0,20962.0,144282.0,230934.0,280857.0,263565.0
2026-04-08 21:49:44.442432,240280,1609504156672917,1756639275,0.86864,-0.044896,0.0488,-9.86125,1.9425,0.3675,-17.872002,20.976002,4.528,eccentric,3,3.0,20962.0,144282.0,230934.0,280857.0,263565.0
2026-04-08 21:49:44.503484,240281,1609504156687436,1756654126,0.886208,-0.040992,0.091744,-10.66625,2.5025,1.53125,-17.976002,21.184002,5.328,eccentric,3,3.0,20962.0,144282.0,230934.0,280857.0,263565.0
2026-04-08 21:49:44.542288,240292,1609504156696439,1756662911,0.886208,-0.040992,0.091744,-9.3275,3.99,2.6075,-17.976002,21.184002,5.328,eccentric,3,3.0,20931.0,144155.0,230945.0,280927.0,263654.0
2026-04-08 21:49:44.545069,240293,1609504156710932,1756677759,0.77104,-0.011712,-0.03904,-10.9025,5.39875,1.30375,-17.568,21.000002,4.624,eccentric,3,3.0,20931.0,144155.0,230945.0,280927.0,263654.0
2026-04-08 21:49:44.547497,240294,1609504156719841,1756686477,0.77104,-0.011712,-0.03904,-13.62375,6.37,0.2975,-17.568,21.000002,4.624,eccentric,3,3.0,20931.0,144155.0,230945.0,280927.0,263654.0
2026-04-08 21:49:44.549784,240295,1609504156728761,1756695144,0.83936,-0.03904,0.177632,-12.73125,5.97625,2.30125,-17.456001,20.904001,4.368,eccentric,3,3.0,20931.0,144155.0,230945.0,280927.0,263654.0
2026-04-08 21:49:44.552265,240296,1609504156743228,1756710035,0.827648,-0.03904,0.152256,-9.4675,5.46875,4.20875,-17.344002,20.896002,3.816,eccentric,3,3.0,20931.0,144155.0,230945.0,280927.0,263654.0
2026-04-08 21:49:44.554871,240297,1609504156752172,1756718695,0.827648,-0.03904,0.152256,-3.66625,5.43375,3.0275,-17.344002,20.896002,3.816,eccentric,3,3.0,20931.0,144155.0,230945.0,280927.0,263654.0
2026-04-08 21:49:44.557299,240298,1609504156766659,1756733592,0.794464,-0.005856,-0.00976,-0.1575,5.57375,0.97125,-17.320002,21.072,4.704,eccentric,3,3.0,20931.0,144155.0,230945.0,280927.0,263654.0
2026-04-08 21:49:44.559806,240299,1609504156775571,1756742251,0.794464,-0.005856,-0.00976,0.25375,5.88,0.2975,-17.320002,21.072,4.704,eccentric,3,3.0,20931.0,144155.0,230945.0,280927.0,263654.0
2026-04-08 21:49:44.621065,240310,1609504156790300,1756757109,0.786656,-0.005856,-0.001952,-0.98,6.02875,0.30625,-17.616001,20.872002,5.736,eccentric,3,3.0,20625.0,143277.0,230311.0,280670.0,263643.0
2026-04-08 21:49:44.623548,240311,1609504156799406,1756765852,0.786656,-0.005856,-0.001952,-2.33625,6.86,-1.3475,-17.616001,20.872002,5.736,eccentric,3,3.0,20625.0,143277.0,230311.0,280670.0,263643.0
2026-04-08 21:49:44.628689,240312,1609504156808416,1756774548,0.786656,-0.011712,0.06832,-2.54625,7.34125,-0.42875,-17.384,21.328001,5.672,eccentric,3,3.0,20625.0,143277.0,230311.0,280670.0,263643.0
2026-04-08 21:49:44.631070,240313,1609504156822886,1756789483,0.845216,-0.056608,-0.091744,-3.29875,7.4375,0.79625,-17.104,21.160002,2.92,eccentric,3,3.0,20625.0,143277.0,230311.0,280670.0,263643.0
2026-04-08 21:49:44.633579,240314,1609504156831790,1756798153,0.845216,-0.056608,-0.091744,-3.14125,8.3475,-0.06125,-17.104,21.160002,2.92,eccentric,3,3.0,20625.0,143277.0,230311.0,280670.0,263643.0
2026-04-08 21:49:44.636133,240315,1609504156846269,1756812978,0.864736,-0.027328,-0.083936,-3.50875,8.155,-1.46125,-17.272001,20.848001,4.704,eccentric,3,3.0,20625.0,143277.0,230311.0,280670.0,263643.0
2026-04-08 21:49:44.641067,240316,1609504156855207,1756821678,0.864736,-0.027328,-0.083936,-5.18,7.77875,-3.84125,-17.272001,20.848001,4.704,eccentric,3,3.0,20625.0,143277.0,230311.0,280670.0,263643.0
2026-04-08 21:49:44.643649,240317,1609504156864137,1756830376,0.884256,-0.044896,0.01952,-3.59625,7.81375,-5.71375,-17.2,21.104,5.872,eccentric,3,3.0,20625.0,143277.0,230311.0,280670.0,263643.0
2026-04-08 21:49:44.646159,240318,1609504156878676,1756845259,0.884256,-0.044896,0.01952,-5.10125,7.83125,-8.02375,-17.2,21.104,5.872,eccentric,3,3.0,20625.0,143277.0,230311.0,280670.0,263643.0
2026-04-08 21:49:44.677138,240319,1609504156887628,1756853978,0.882304,-0.052704,0.138592,-7.6825,7.84,-8.68,-17.504002,20.640001,5.88,eccentric,3,3.0,20625.0,143277.0,230311.0,280670.0,263643.0
2026-04-08 21:49:44.709539,240330,1609504156902192,1756868908,0.882304,-0.052704,0.066368,-7.5775,7.55125,-6.02875,-17.504002,20.640001,5.88,eccentric,3,3.0,20502.0,142890.0,229994.0,280503.0,263579.0
2026-04-08 21:49:44.712000,240331,1609504156911088,1756877628,0.90768,-0.02928,0.066368,-8.40875,6.71125,-5.41625,-17.464,21.288,4.568,eccentric,3,3.0,20502.0,142890.0,229994.0,280503.0,263579.0
2026-04-08 21:49:44.713627,240332,1609504156925550,1756892495,0.880352,-0.03904,-0.081984,-7.455,5.73125,-7.79625,-17.752,21.240002,5.088,eccentric,3,3.0,20502.0,142890.0,229994.0,280503.0,263579.0
2026-04-08 21:49:44.717930,240333,1609504156934681,1756901211,0.880352,-0.03904,-0.081984,-4.0075,4.375,-11.095,-17.752,21.240002,5.088,eccentric,3,3.0,20502.0,142890.0,229994.0,280503.0,263579.0
2026-04-08 21:49:44.719467,240334,1609504156943616,1756909933,0.880352,-0.044896,-0.089792,-2.16125,3.4125,-11.917501,-17.808,21.056002,4.12,eccentric,3,3.0,20502.0,142890.0,229994.0,280503.0,263579.0
2026-04-08 21:49:44.726553,240335,1609504156958133,1756924906,0.880352,-0.044896,-0.089792,-3.6575,2.66,-12.06625,-17.808,21.056002,4.12,eccentric,3,3.0,20502.0,142890.0,229994.0,280503.0,263579.0
2026-04-08 21:49:44.749511,240336,1609504156967056,1756933650,0.921344,-0.033184,0.072224,-3.94625,2.10875,-12.74875,-17.36,21.008001,4.736,eccentric,3,3.0,20502.0,142890.0,229994.0,280503.0,263579.0
2026-04-08 21:49:44.751392,240337,1609504156981549,1756948561,0.921344,-0.033184,0.072224,-4.10375,1.2075,-11.76,-17.36,21.008001,4.736,eccentric,3,3.0,20502.0,142890.0,229994.0,280503.0,263579.0
2026-04-08 21:49:44.804771,240338,1609504156990452,1756957237,0.952576,-0.01952,0.091744,-4.7425,-0.34125,-11.13875,-17.36,21.192001,7.632,eccentric,3,3.0,20502.0,142890.0,229994.0,280503.0,263579.0
2026-04-08 21:49:44.835926,240349,1609504157005004,1756972146,0.827648,-0.013664,-0.099552,-3.6225,-0.49875,-12.27625,-17.776001,20.576,5.464,eccentric,3,3.0,20578.0,143140.0,230107.0,280484.0,263521.0
2026-04-08 21:49:44.837342,240350,1609504157013896,1756980793,0.827648,-0.013664,-0.099552,-1.8375,-0.9975,-12.285,-17.776001,20.576,5.464,eccentric,3,3.0,20578.0,143140.0,230107.0,280484.0,263521.0
2026-04-08 21:49:44.841653,240351,1609504157022807,1756989448,0.827648,-0.013664,-0.130784,-3.71875,-1.9775,-12.24125,-17.776001,20.576,5.464,eccentric,3,3.0,20578.0,143140.0,230107.0,280484.0,263521.0
2026-04-08 21:49:44.843358,240352,1609504157037232,1757004268,0.837408,-0.001952,-0.132736,-4.445,-2.0475,-13.3,-17.76,20.904001,3.064,eccentric,3,3.0,20578.0,143140.0,230107.0,280484.0,263521.0
2026-04-08 21:49:44.844960,240353,1609504157046158,1757012935,0.876448,0.0,-0.113216,-6.02875,-2.9225,-13.67625,-17.936,20.752,4.8,eccentric,3,3.0,20578.0,143140.0,230107.0,280484.0,263521.0
2026-04-08 21:49:44.849067,240354,1609504157060739,1757027850,0.876448,0.0,-0.113216,-8.6975,-3.19375,-13.3875,-17.936,20.752,4.8,eccentric,3,3.0,20578.0,143140.0,230107.0,280484.0,263521.0
2026-04-08 21:49:44.850783,240355,1609504157069706,1757036581,0.872544,0.025376,0.050752,-10.29,-3.045,-12.52125,-17.992,20.616001,5.496,eccentric,3,3.0,20578.0,143140.0,230107.0,280484.0,263521.0
2026-04-08 21:49:44.852665,240356,1609504157084300,1757049458,0.833504,-0.011712,-0.13664,-10.80625,-3.10625,-12.32875,-18.0,20.256,5.712,eccentric,3,3.0,20578.0,143140.0,230107.0,280484.0,263521.0
