pc_time,serial_num,sensor_ts,host_ts,ax,ay,az,gx,gy,gz,mx,my,mz,phase,rpe,weight_kg,ppg_a,ppg_b,ppg_c,ppg_d,ppg_e,ppg_f,ppg_g,ppg_h,ppg_i,ppg_j
2026-05-06 16:23:11.252883,782450,1609506854582345,4454495378,-1.01504,0.290848,-0.454816,-5.81,-24.12375,-3.01875,42.976,9.304001,-91.448006,concentric,4,5.0,25267.0,29084.0,96037.0,72849.0,24353.0,37766.0,39964.0,41297.0,16690.0,12297.0
2026-05-06 16:23:11.255497,782451,1609506854591414,4454504152,-1.01504,0.290848,-0.454816,-4.3225,-15.155,1.9075,41.432003,9.304001,-91.448006,concentric,4,5.0,25267.0,29084.0,96037.0,72849.0,24353.0,37766.0,39964.0,41297.0,16690.0,12297.0
2026-05-06 16:23:11.257353,782452,1609506854600453,4454513177,-1.01504,0.290848,-0.454816,-8.28625,-7.735,4.8475,41.432003,9.304001,-91.448006,concentric,4,5.0,25267.0,29084.0,96037.0,72849.0,24353.0,37766.0,39964.0,41297.0,16690.0,12297.0
2026-05-06 16:23:11.259837,782453,1609506854615004,4454526068,-1.04432,0.2928,-0.333792,-13.67625,-1.39125,8.44375,41.552002,9.032001,-91.128006,concentric,4,5.0,25267.0,29084.0,96037.0,72849.0,24353.0,37766.0,39964.0,41297.0,16690.0,12297.0
2026-05-06 16:23:11.262456,782454,1609506854624312,4454536824,-1.042368,0.324032,-0.359168,-16.065,5.20625,11.4275,41.408,8.576,-90.20801,concentric,4,5.0,25267.0,29084.0,96037.0,72849.0,24353.0,37766.0,39964.0,41297.0,16690.0,12297.0
2026-05-06 16:23:11.265041,782455,1609506854638836,4454549713,-1.042368,0.324032,-0.359168,-15.575,11.7075,14.35,41.408,8.576,-90.20801,concentric,4,5.0,25267.0,29084.0,96037.0,72849.0,24353.0,37766.0,39964.0,41297.0,16690.0,12297.0
2026-05-06 16:23:11.267569,782456,1609506854648152,4454560501,-1.026752,0.2928,-0.38064,-13.09,17.26375,17.29875,41.464,7.944,-91.232,concentric,4,5.0,25267.0,29084.0,96037.0,72849.0,24353.0,37766.0,39964.0,41297.0,16690.0,12297.0
2026-05-06 16:23:11.270022,782457,1609506854657077,4454569347,-1.026752,0.2928,-0.38064,-12.3725,23.03875,20.79875,41.464,7.944,-91.232,concentric,4,5.0,25267.0,29084.0,96037.0,72849.0,24353.0,37766.0,39964.0,41297.0,16690.0,12297.0
2026-05-06 16:23:11.272567,782458,1609506854671580,4454584274,-1.048224,0.259616,-0.365024,-11.89125,29.067501,24.85,41.04,7.632,-91.992004,concentric,4,5.0,25267.0,29084.0,96037.0,72849.0,24353.0,37766.0,39964.0,41297.0,16690.0,12297.0
2026-05-06 16:23:11.274932,782459,1609506854680548,4454592958,-1.048224,0.259616,-0.365024,-13.86,34.86,27.23875,41.04,7.632,-91.992004,concentric,4,5.0,25267.0,29084.0,96037.0,72849.0,24353.0,37766.0,39964.0,41297.0,16690.0,12297.0
2026-05-06 16:23:11.305139,782470,1609506854695173,4454605939,-1.048224,0.310368,-0.324032,-15.65375,40.53,30.0475,40.776,5.568,-92.90401,concentric,4,5.0,25350.0,29240.0,95786.0,72680.0,24414.0,37937.0,39882.0,41176.0,16737.0,12372.0
2026-05-06 16:23:11.307704,782471,1609506854704578,4454616827,-1.056032,0.35136,-0.366976,-13.265,46.47125,32.83,39.872,6.232,-92.664,concentric,4,5.0,25350.0,29240.0,95786.0,72680.0,24414.0,37937.0,39882.0,41176.0,16737.0,12372.0
2026-05-06 16:23:11.312085,782472,1609506854713534,4454625560,-1.056032,0.35136,-0.366976,-10.89375,52.2725,34.7025,39.872,6.232,-92.664,concentric,4,5.0,25350.0,29240.0,95786.0,72680.0,24414.0,37937.0,39882.0,41176.0,16737.0,12372.0
2026-05-06 16:23:11.312528,782473,1609506854728165,4454640568,-1.042368,0.300608,-0.366976,-11.9525,56.8925,35.525,39.288002,5.832,-93.688,concentric,4,5.0,25350.0,29240.0,95786.0,72680.0,24414.0,37937.0,39882.0,41176.0,16737.0,12372.0
2026-05-06 16:23:11.314908,782474,1609506854737667,4454649388,-1.042368,0.300608,-0.366976,-14.11375,60.83,36.96,39.288002,5.832,-93.688,concentric,4,5.0,25350.0,29240.0,95786.0,72680.0,24414.0,37937.0,39882.0,41176.0,16737.0,12372.0
2026-05-06 16:23:11.324914,782475,1609506854746890,4454658135,-1.036512,0.240096,-0.413824,-13.90375,66.33375,39.27875,38.336002,5.208,-94.600006,concentric,4,5.0,25350.0,29240.0,95786.0,72680.0,24414.0,37937.0,39882.0,41176.0,16737.0,12372.0
2026-05-06 16:23:11.336311,782476,1609506854761977,4454673265,-1.036512,0.240096,-0.413824,-10.29,72.275,42.385,38.336002,5.208,-94.600006,concentric,4,5.0,25350.0,29240.0,95786.0,72680.0,24414.0,37937.0,39882.0,41176.0,16737.0,12372.0
2026-05-06 16:23:11.350128,782477,1609506854771515,4454684069,-1.052128,0.267424,-0.407968,-3.99875,78.26875,45.2025,37.800003,4.336,-96.47201,concentric,4,5.0,25350.0,29240.0,95786.0,72680.0,24414.0,37937.0,39882.0,41176.0,16737.0,12372.0
2026-05-06 16:23:11.391523,782488,1609506854786084,4454696925,-1.059936,0.363072,-0.445056,0.245,83.67625,47.5125,36.664,4.096,-96.864006,concentric,4,5.0,25495.0,29483.0,94061.0,72304.0,24547.0,38261.0,39204.0,40959.0,16850.0,12491.0
2026-05-06 16:23:11.394216,782489,1609506854795283,4454707852,-1.059936,0.363072,-0.445056,2.35375,89.66125,49.0,36.664,4.096,-96.864006,concentric,4,5.0,25495.0,29483.0,94061.0,72304.0,24547.0,38261.0,39204.0,40959.0,16850.0,12491.0
2026-05-06 16:23:11.396452,782490,1609506854804417,4454716643,-1.061888,0.363072,-0.415776,3.50875,96.06625,50.44375,35.128002,1.688,-96.36001,concentric,4,5.0,25495.0,29483.0,94061.0,72304.0,24547.0,38261.0,39204.0,40959.0,16850.0,12491.0
2026-05-06 16:23:11.401063,782491,1609506854818940,4454729702,-1.061888,0.363072,-0.415776,2.40625,101.745,52.36875,35.128002,1.688,-96.36001,concentric,4,5.0,25495.0,29483.0,94061.0,72304.0,24547.0,38261.0,39204.0,40959.0,16850.0,12491.0
2026-05-06 16:23:11.404928,782492,1609506854828156,4454740539,-1.075552,0.320128,-0.394304,2.52,105.840004,54.64375,33.416,1.352,-98.128006,concentric,4,5.0,25495.0,29483.0,94061.0,72304.0,24547.0,38261.0,39204.0,40959.0,16850.0,12491.0
2026-05-06 16:23:11.418820,782493,1609506854842712,4454755456,-1.075552,0.320128,-0.394304,5.145,110.355,57.33,33.416,1.352,-98.128006,concentric,4,5.0,25495.0,29483.0,94061.0,72304.0,24547.0,38261.0,39204.0,40959.0,16850.0,12491.0
2026-05-06 16:23:11.427554,782494,1609506854851649,4454764205,-1.061888,0.35136,-0.50752,10.0975,114.9925,59.15,31.744001,2.224,-99.608,concentric,4,5.0,25495.0,29483.0,94061.0,72304.0,24547.0,38261.0,39204.0,40959.0,16850.0,12491.0
2026-05-06 16:23:11.437611,782495,1609506854860596,4454772889,-1.061888,0.35136,-0.50752,17.07125,120.74125,62.34375,31.744001,2.224,-99.608,concentric,4,5.0,25495.0,29483.0,94061.0,72304.0,24547.0,38261.0,39204.0,40959.0,16850.0,12491.0
2026-05-06 16:23:11.471361,782496,1609506854875104,4454787824,-1.065792,0.464576,-0.650016,23.8875,127.47875,65.2925,29.776001,2.032,-100.648,concentric,4,5.0,25495.0,29483.0,94061.0,72304.0,24547.0,38261.0,39204.0,40959.0,16850.0,12491.0
2026-05-06 16:23:11.473992,782497,1609506854884064,4454796556,-1.065792,0.491904,-0.573888,28.44625,135.1875,69.09875,29.776001,2.032,-100.648,concentric,4,5.0,25495.0,29483.0,94061.0,72304.0,24547.0,38261.0,39204.0,40959.0,16850.0,12491.0
2026-05-06 16:23:11.503816,782508,1609506854898635,4454809469,-1.04432,0.491904,-0.573888,32.445,140.88374,71.00625,27.608002,1.536,-100.032005,concentric,4,5.0,25594.0,29786.0,92768.0,71820.0,24655.0,38585.0,38788.0,40694.0,16905.0,12621.0
2026-05-06 16:23:11.506330,782509,1609506854907976,4454820318,-0.997472,0.445056,-0.583648,30.98375,144.55,72.275,25.744001,1.6,-102.44,concentric,4,5.0,25594.0,29786.0,92768.0,71820.0,24655.0,38585.0,38788.0,40694.0,16905.0,12621.0
2026-05-06 16:23:11.508826,782510,1609506854916994,4454829085,-0.997472,0.445056,-0.583648,26.67,146.5975,73.98125,25.744001,1.6,-102.44,concentric,4,5.0,25594.0,29786.0,92768.0,71820.0,24655.0,38585.0,38788.0,40694.0,16905.0,12621.0
2026-05-06 16:23:11.511388,782511,1609506854931523,4454843999,-1.00528,0.554368,-0.538752,29.63625,150.61375,75.11,23.272001,0.944,-104.08,concentric,4,5.0,25594.0,29786.0,92768.0,71820.0,24655.0,38585.0,38788.0,40694.0,16905.0,12621.0
2026-05-06 16:23:11.517712,782512,1609506854940518,4454852755,-1.00528,0.554368,-0.538752,34.44875,155.67125,75.52125,23.272001,0.944,-104.08,concentric,4,5.0,25594.0,29786.0,92768.0,71820.0,24655.0,38585.0,38788.0,40694.0,16905.0,12621.0
2026-05-06 16:23:11.531503,782513,1609506854955012,4454867691,-0.981856,0.642208,-0.597312,27.5975,159.18001,73.745,20.392,1.032,-104.09601,concentric,4,5.0,25594.0,29786.0,92768.0,71820.0,24655.0,38585.0,38788.0,40694.0,16905.0,12621.0
2026-05-06 16:23:11.542782,782514,1609506854963947,4454876380,-0.981856,0.642208,-0.597312,18.515,161.0175,71.68875,20.392,1.032,-104.09601,concentric,4,5.0,25594.0,29786.0,92768.0,71820.0,24655.0,38585.0,38788.0,40694.0,16905.0,12621.0
2026-05-06 16:23:11.570230,782515,1609506854978547,4454889315,-0.952576,0.55632,-0.757376,12.39,162.95125,71.07625,17.784,1.336,-103.30401,concentric,4,5.0,25594.0,29786.0,92768.0,71820.0,24655.0,38585.0,38788.0,40694.0,16905.0,12621.0
2026-05-06 16:23:11.620169,782526,1609506854988126,4454900229,-0.944768,0.474336,-0.745664,12.985,164.99875,73.7625,14.72,1.304,-105.504005,concentric,4,5.0,25819.0,29766.0,92963.0,72076.0,24885.0,38580.0,38887.0,40842.0,17091.0,12635.0
2026-05-06 16:23:11.622664,782527,1609506854997172,4454909037,-0.944768,0.474336,-0.745664,20.92125,167.51,76.16,14.72,1.304,-105.504005,concentric,4,5.0,25819.0,29766.0,92963.0,72076.0,24885.0,38580.0,38887.0,40842.0,17091.0,12635.0
2026-05-06 16:23:11.625262,782528,1609506855011665,4454924018,-0.8784,0.52704,-0.782752,22.63625,168.95375,76.4575,11.824,1.776,-105.880005,concentric,4,5.0,25819.0,29766.0,92963.0,72076.0,24885.0,38580.0,38887.0,40842.0,17091.0,12635.0
2026-05-06 16:23:11.627542,782529,1609506855020603,4454932721,-0.8784,0.52704,-0.782752,22.505,169.89,77.525,11.824,1.776,-105.880005,concentric,4,5.0,25819.0,29766.0,92963.0,72076.0,24885.0,38580.0,38887.0,40842.0,17091.0,12635.0
2026-05-06 16:23:11.630209,782530,1609506855035147,4454947797,-0.843264,0.5856,-0.812032,22.33,171.4475,77.7175,8.976001,1.544,-105.824005,concentric,4,5.0,25819.0,29766.0,92963.0,72076.0,24885.0,38580.0,38887.0,40842.0,17091.0,12635.0
2026-05-06 16:23:11.632744,782531,1609506855044193,4454956587,-0.843264,0.5856,-0.812032,22.4875,172.9875,78.14625,8.976001,1.544,-105.824005,concentric,4,5.0,25819.0,29766.0,92963.0,72076.0,24885.0,38580.0,38887.0,40842.0,17091.0,12635.0
2026-05-06 16:23:11.635280,782532,1609506855053192,4454965339,-0.823744,0.562176,-0.808128,23.178751,174.1075,78.04125,5.688,2.056,-106.232,concentric,4,5.0,25819.0,29766.0,92963.0,72076.0,24885.0,38580.0,38887.0,40842.0,17091.0,12635.0
2026-05-06 16:23:11.646456,782533,1609506855067745,4454980265,-0.769088,0.51728,-0.794464,25.0775,175.2625,77.183754,2.792,2.744,-105.8,concentric,4,5.0,25819.0,29766.0,92963.0,72076.0,24885.0,38580.0,38887.0,40842.0,17091.0,12635.0
2026-05-06 16:23:11.652694,782534,1609506855076678,4454988988,-0.769088,0.51728,-0.794464,28.93625,176.89,76.746254,2.792,2.744,-105.8,concentric,4,5.0,25819.0,29766.0,92963.0,72076.0,24885.0,38580.0,38887.0,40842.0,17091.0,12635.0
2026-05-06 16:23:11.696519,782545,1609506855091632,4455004240,-0.667584,0.503616,-0.815936,24.7625,177.65125,76.16,0.288,3.216,-105.52801,concentric,4,5.0,26065.0,29565.0,92820.0,72909.0,25215.0,38400.0,38752.0,41308.0,17267.0,12536.0
2026-05-06 16:23:11.697269,782546,1609506855100623,4455013081,-0.667584,0.503616,-0.815936,15.74125,176.39125,77.2975,0.288,3.216,-105.52801,concentric,4,5.0,26065.0,29565.0,92820.0,72909.0,25215.0,38400.0,38752.0,41308.0,17267.0,12536.0
2026-05-06 16:23:11.699808,782547,1609506855109650,4455021807,-0.610976,0.554368,-0.851072,8.015,175.07875,76.2475,-2.68,2.848,-104.62401,concentric,4,5.0,26065.0,29565.0,92820.0,72909.0,25215.0,38400.0,38752.0,41308.0,17267.0,12536.0
2026-05-06 16:23:11.702579,782548,1609506855124203,4455036828,-0.610976,0.554368,-0.851072,7.67375,172.73375,75.57375,-2.68,2.848,-104.62401,concentric,4,5.0,26065.0,29565.0,92820.0,72909.0,25215.0,38400.0,38752.0,41308.0,17267.0,12536.0
2026-05-06 16:23:11.708636,782549,1609506855133196,4455045568,-0.564128,0.544608,-0.862784,7.2625,170.31876,74.94375,-5.024,3.904,-103.600006,concentric,4,5.0,26065.0,29565.0,92820.0,72909.0,25215.0,38400.0,38752.0,41308.0,17267.0,12536.0
2026-05-06 16:23:11.722596,782550,1609506855147675,4455058464,-0.552416,0.443104,-0.845216,13.37875,168.88374,75.31125,-8.216001,2.88,-102.872,concentric,4,5.0,26065.0,29565.0,92820.0,72909.0,25215.0,38400.0,38752.0,41308.0,17267.0,12536.0
2026-05-06 16:23:11.736496,782551,1609506855157194,4455069283,-0.552416,0.443104,-0.845216,16.84375,169.015,74.03375,-8.216001,2.88,-102.872,concentric,4,5.0,26065.0,29565.0,92820.0,72909.0,25215.0,38400.0,38752.0,41308.0,17267.0,12536.0
2026-05-06 16:23:11.768996,782552,1609506855166300,4455078101,-0.45872,0.491904,-0.802272,11.5325,167.615,73.78,-8.216001,2.88,-102.872,concentric,4,5.0,26065.0,29565.0,92820.0,72909.0,25215.0,38400.0,38752.0,41308.0,17267.0,12536.0
2026-05-06 16:23:11.771505,782553,1609506855180799,4455093057,-0.460672,0.491904,-0.802272,5.50375,165.73375,71.58375,-10.224001,4.424,-104.36001,concentric,4,5.0,26065.0,29565.0,92820.0,72909.0,25215.0,38400.0,38752.0,41308.0,17267.0,12536.0
2026-05-06 16:23:11.801282,782564,1609506855190379,4455101852,-0.257664,0.530944,-0.919392,-5.1975,162.3475,70.51625,-12.288,4.672,-101.856,concentric,4,5.0,25947.0,28341.0,88800.0,74069.0,25066.0,37229.0,36846.0,41972.0,17210.0,11969.0
2026-05-06 16:23:11.804011,782565,1609506855205097,4455116881,-0.257664,0.530944,-0.919392,-14.14,159.69624,69.34375,-12.288,4.672,-101.856,concentric,4,5.0,25947.0,28341.0,88800.0,74069.0,25066.0,37229.0,36846.0,41972.0,17210.0,11969.0
2026-05-06 16:23:11.806490,782566,1609506855214178,4455125635,-0.193248,0.521184,-1.0248,-13.93875,157.7625,68.55625,-14.256001,5.208,-101.216,concentric,4,5.0,25947.0,28341.0,88800.0,74069.0,25066.0,37229.0,36846.0,41972.0,17210.0,11969.0
2026-05-06 16:23:11.808801,782567,1609506855223238,4455134365,-0.193248,0.521184,-1.0248,-0.42,158.20876,68.57375,-14.256001,5.208,-101.216,concentric,4,5.0,25947.0,28341.0,88800.0,74069.0,25066.0,37229.0,36846.0,41972.0,17210.0,11969.0
2026-05-06 16:23:11.815139,782568,1609506855238127,4455149296,-0.191296,0.484096,-0.968192,13.055,159.215,68.15375,-16.656,5.064,-99.824005,concentric,4,5.0,25947.0,28341.0,88800.0,74069.0,25066.0,37229.0,36846.0,41972.0,17210.0,11969.0
2026-05-06 16:23:11.823903,782569,1609506855247446,4455160220,-0.144448,0.505568,-0.886208,6.44,157.2025,68.9675,-18.36,2.64,-97.496,concentric,4,5.0,25947.0,28341.0,88800.0,74069.0,25066.0,37229.0,36846.0,41972.0,17210.0,11969.0
2026-05-06 16:23:11.832550,782570,1609506855256444,4455168953,-0.144448,0.505568,-0.886208,5.8275,154.95375,69.79875,-18.36,2.64,-97.496,concentric,4,5.0,25947.0,28341.0,88800.0,74069.0,25066.0,37229.0,36846.0,41972.0,17210.0,11969.0
2026-05-06 16:23:11.846473,782571,1609506855270986,4455181809,-0.076128,0.528992,-0.856928,1.12,153.72,68.18,-20.176,6.712,-97.992004,concentric,4,5.0,25947.0,28341.0,88800.0,74069.0,25066.0,37229.0,36846.0,41972.0,17210.0,11969.0
2026-05-06 16:23:11.858871,782572,1609506855280247,4455192569,-0.076128,0.528992,-0.856928,-8.9775,153.08125,69.1775,-20.176,6.712,-97.992004,concentric,4,5.0,25947.0,28341.0,88800.0,74069.0,25066.0,37229.0,36846.0,41972.0,17210.0,11969.0
2026-05-06 16:23:11.890093,782583,1609506855295037,4455207553,-0.015616,0.472384,-0.823744,-10.84125,149.96625,67.06,-21.744001,7.064,-96.20801,concentric,4,5.0,25697.0,27557.0,86864.0,74488.0,24880.0,36570.0,35909.0,42234.0,17033.0,11648.0
2026-05-06 16:23:11.892450,782584,1609506855304159,4455216447,-0.015616,0.472384,-0.823744,-10.85875,145.8975,66.99,-21.744001,7.064,-96.20801,concentric,4,5.0,25697.0,27557.0,86864.0,74488.0,24880.0,36570.0,35909.0,42234.0,17033.0,11648.0
2026-05-06 16:23:11.895201,782585,1609506855313091,4455225172,0.037088,0.437248,-0.74176,-7.175,142.19624,65.96625,-22.992,5.744,-94.05601,concentric,4,5.0,25697.0,27557.0,86864.0,74488.0,24880.0,36570.0,35909.0,42234.0,17033.0,11648.0
2026-05-06 16:23:11.903943,782586,1609506855327657,4455240278,0.162016,0.456768,-0.950624,-5.27625,138.46875,65.9575,-22.992,7.792,-94.384,concentric,4,5.0,25697.0,27557.0,86864.0,74488.0,24880.0,36570.0,35909.0,42234.0,17033.0,11648.0
2026-05-06 16:23:11.938951,782587,1609506855336731,4455249040,0.162016,0.456768,-0.950624,-5.73125,135.5025,65.42375,-24.536001,6.632,-94.384,concentric,4,5.0,25697.0,27557.0,86864.0,74488.0,24880.0,36570.0,35909.0,42234.0,17033.0,11648.0
2026-05-06 16:23:11.966770,782588,1609506855351254,4455264035,0.191296,0.49776,-0.915488,-10.255,133.80501,67.558754,-25.888,8.536,-92.968,concentric,4,5.0,25697.0,27557.0,86864.0,74488.0,24880.0,36570.0,35909.0,42234.0,17033.0,11648.0
2026-05-06 16:23:11.991512,782589,1609506855360169,4455272745,0.191296,0.49776,-0.915488,-4.6025,133.11375,63.9275,-25.888,8.536,-92.968,concentric,4,5.0,25697.0,27557.0,86864.0,74488.0,24880.0,36570.0,35909.0,42234.0,17033.0,11648.0
2026-05-06 16:23:12.002625,782590,1609506855374658,4455285591,0.105408,0.4392,-0.687104,-1.11125,134.3125,60.87375,-26.472002,9.424001,-91.84801,concentric,4,5.0,25697.0,27557.0,86864.0,74488.0,24880.0,36570.0,35909.0,42234.0,17033.0,11648.0
2026-05-06 16:23:12.005185,782591,1609506855384135,4455296352,0.105408,0.4392,-0.687104,7.00875,130.48875,57.53125,-26.472002,9.424001,-91.84801,concentric,4,5.0,25697.0,27557.0,86864.0,74488.0,24880.0,36570.0,35909.0,42234.0,17033.0,11648.0
2026-05-06 16:23:12.032736,782602,1609506855393245,4455305158,0.212768,0.33184,-0.718336,1.435,123.777504,53.76875,-27.072,9.528001,-90.632,concentric,4,5.0,25775.0,27945.0,87252.0,74226.0,25000.0,37051.0,36062.0,42136.0,17019.0,11841.0
2026-05-06 16:23:12.035215,782603,1609506855407897,4455320102,0.212768,0.363072,-0.74176,2.0825,119.97125,57.076252,-27.072,9.528001,-90.632,concentric,4,5.0,25775.0,27945.0,87252.0,74226.0,25000.0,37051.0,36062.0,42136.0,17019.0,11841.0
2026-05-06 16:23:12.037720,782604,1609506855416851,4455328854,0.324032,0.368928,-0.74176,5.4775,118.475,56.74375,-28.336,10.704,-89.200005,concentric,4,5.0,25775.0,27945.0,87252.0,74226.0,25000.0,37051.0,36062.0,42136.0,17019.0,11841.0
2026-05-06 16:23:12.040047,782605,1609506855431344,4455343749,0.349408,0.45872,-0.776896,1.5225,116.22625,57.74125,-28.800001,11.320001,-88.352005,concentric,4,5.0,25775.0,27945.0,87252.0,74226.0,25000.0,37051.0,36062.0,42136.0,17019.0,11841.0
2026-05-06 16:23:12.042505,782606,1609506855440318,4455352540,0.349408,0.45872,-0.776896,-0.77875,114.082504,59.43,-28.800001,11.320001,-88.352005,concentric,4,5.0,25775.0,27945.0,87252.0,74226.0,25000.0,37051.0,36062.0,42136.0,17019.0,11841.0
2026-05-06 16:23:12.045009,782607,1609506855449276,4455361296,0.384544,0.40016,-0.776896,2.73875,112.0175,57.46125,-29.744001,11.248,-87.560005,concentric,4,5.0,25775.0,27945.0,87252.0,74226.0,25000.0,37051.0,36062.0,42136.0,17019.0,11841.0
2026-05-06 16:23:12.047726,782608,1609506855463869,4455376284,0.384544,0.40016,-0.776896,0.53375,108.64,54.25,-29.744001,11.248,-87.560005,concentric,4,5.0,25775.0,27945.0,87252.0,74226.0,25000.0,37051.0,36062.0,42136.0,17019.0,11841.0
2026-05-06 16:23:12.050134,782609,1609506855472818,4455384987,0.40992,0.415776,-0.628544,-4.55875,106.42625,57.98625,-29.640001,11.184001,-85.128006,concentric,4,5.0,25775.0,27945.0,87252.0,74226.0,25000.0,37051.0,36062.0,42136.0,17019.0,11841.0
2026-05-06 16:23:12.063780,782610,1609506855487348,4455399974,0.40992,0.415776,-0.628544,3.2025,104.965004,57.84625,-29.640001,11.184001,-85.128006,concentric,4,5.0,25775.0,27945.0,87252.0,74226.0,25000.0,37051.0,36062.0,42136.0,17019.0,11841.0
2026-05-06 16:23:12.094918,782621,1609506855496590,4455408803,0.474336,0.333792,-0.659776,2.21375,100.5725,52.185,-30.424002,12.768001,-86.312004,concentric,4,5.0,24774.0,27594.0,87257.0,72226.0,23960.0,36744.0,35893.0,41098.0,16308.0,11698.0
2026-05-06 16:23:12.097364,782622,1609506855505828,4455417575,0.474336,0.333792,-0.659776,-3.9725,96.88875,53.83,-30.424002,12.768001,-86.312004,concentric,4,5.0,24774.0,27594.0,87257.0,72226.0,23960.0,36744.0,35893.0,41098.0,16308.0,11698.0
2026-05-06 16:23:12.100099,782623,1609506855520426,4455432671,0.488,0.3904,-0.569984,-1.89875,94.98125,57.1375,-30.656002,11.104,-83.01601,concentric,4,5.0,24774.0,27594.0,87257.0,72226.0,23960.0,36744.0,35893.0,41098.0,16308.0,11698.0
2026-05-06 16:23:12.106378,782624,1609506855529357,4455441391,0.571936,0.33184,-0.593408,5.6525,91.95375,52.6225,-32.704002,12.312,-81.16,concentric,4,5.0,24774.0,27594.0,87257.0,72226.0,23960.0,36744.0,35893.0,41098.0,16308.0,11698.0
2026-05-06 16:23:12.120195,782625,1609506855543886,4455456458,0.571936,0.33184,-0.593408,0.74375,89.285,49.28875,-31.400002,12.312,-81.16,concentric,4,5.0,24774.0,27594.0,87257.0,72226.0,23960.0,36744.0,35893.0,41098.0,16308.0,11698.0
2026-05-06 16:23:12.133860,782626,1609506855552810,4455465166,0.548512,0.32208,-0.523136,-2.72125,86.02125,51.56375,-31.312002,14.480001,-82.16801,concentric,4,5.0,24774.0,27594.0,87257.0,72226.0,23960.0,36744.0,35893.0,41098.0,16308.0,11698.0
2026-05-06 16:23:12.147521,782627,1609506855567384,4455480048,0.548512,0.32208,-0.523136,1.225,83.2475,47.95875,-31.312002,14.480001,-82.16801,concentric,4,5.0,24774.0,27594.0,87257.0,72226.0,23960.0,36744.0,35893.0,41098.0,16308.0,11698.0
2026-05-06 16:23:12.154104,782628,1609506855576555,4455488800,0.620736,0.329888,-0.587552,-1.16375,79.17875,44.9575,-31.536001,13.184001,-81.008,concentric,4,5.0,24774.0,27594.0,87257.0,72226.0,23960.0,36744.0,35893.0,41098.0,16308.0,11698.0
2026-05-06 16:23:12.162702,782629,1609506855585627,4455497505,0.620736,0.329888,-0.587552,-5.03125,76.5625,47.0925,-31.536001,13.184001,-81.008,concentric,4,5.0,24774.0,27594.0,87257.0,72226.0,23960.0,36744.0,35893.0,41098.0,16308.0,11698.0
2026-05-06 16:23:12.194982,782640,1609506855600212,4455512535,0.591456,0.296704,-0.577792,-1.0675,75.0925,45.7975,-31.616001,15.160001,-80.840004,concentric,4,5.0,23862.0,27895.0,86358.0,70434.0,23079.0,36950.0,35381.0,40093.0,15745.0,11793.0
2026-05-06 16:23:12.197657,782641,1609506855609171,4455521275,0.591456,0.296704,-0.499712,1.86375,73.027504,42.09625,-31.616001,15.160001,-80.840004,concentric,4,5.0,23862.0,27895.0,86358.0,70434.0,23079.0,36950.0,35381.0,40093.0,15745.0,11793.0
2026-05-06 16:23:12.200177,782642,1609506855623774,4455536197,0.636352,0.314272,-0.488,-2.52,70.2275,41.86875,-31.880001,13.440001,-75.616005,concentric,4,5.0,23862.0,27895.0,86358.0,70434.0,23079.0,36950.0,35381.0,40093.0,15745.0,11793.0
2026-05-06 16:23:12.208784,782643,1609506855632723,4455544921,0.669536,0.249856,-0.523136,-2.4325,66.6225,43.951252,-31.912,14.56,-78.744,concentric,4,5.0,23862.0,27895.0,86358.0,70434.0,23079.0,36950.0,35381.0,40093.0,15745.0,11793.0
2026-05-06 16:23:12.217754,782644,1609506855641682,4455553649,0.669536,0.249856,-0.523136,-3.9375,64.1725,39.87375,-31.912,14.56,-78.744,concentric,4,5.0,23862.0,27895.0,86358.0,70434.0,23079.0,36950.0,35381.0,40093.0,15745.0,11793.0
2026-05-06 16:23:12.254964,782645,1609506855656409,4455568632,0.677344,0.257664,-0.456768,-6.0025,61.7225,37.45,-31.752,15.632001,-77.79201,concentric,4,5.0,23862.0,27895.0,86358.0,70434.0,23079.0,36950.0,35381.0,40093.0,15745.0,11793.0
2026-05-06 16:23:12.255803,782646,1609506855665343,4455577345,0.677344,0.257664,-0.456768,-1.12,60.78625,37.45,-31.752,15.632001,-77.79201,concentric,4,5.0,23862.0,27895.0,86358.0,70434.0,23079.0,36950.0,35381.0,40093.0,15745.0,11793.0
2026-05-06 16:23:12.255917,782647,1609506855679811,4455592234,0.724192,0.238144,-0.407968,-1.925,58.17875,33.88,-31.744001,16.976002,-78.232,concentric,4,5.0,23862.0,27895.0,86358.0,70434.0,23079.0,36950.0,35381.0,40093.0,15745.0,11793.0
2026-05-06 16:23:12.266299,782648,1609506855688749,4455600984,0.724192,0.238144,-0.407968,-5.10125,54.355,32.34875,-31.744001,16.976002,-78.232,concentric,4,5.0,23862.0,27895.0,86358.0,70434.0,23079.0,36950.0,35381.0,40093.0,15745.0,11793.0
2026-05-06 16:23:12.361338,782659,1609506855697829,4455609760,0.737856,0.232288,-0.450912,-5.8975,52.4125,32.64625,-31.984001,18.048,-78.44,concentric,4,5.0,23289.0,28487.0,85093.0,69515.0,22667.0,37379.0,34770.0,39545.0,15457.0,11982.0
2026-05-06 16:23:12.363862,782660,1609506855712343,4455624735,0.733952,0.216672,-0.386496,-5.38125,50.77625,28.2275,-31.928001,17.488,-76.968,concentric,4,5.0,23289.0,28487.0,85093.0,69515.0,22667.0,37379.0,34770.0,39545.0,15457.0,11982.0
2026-05-06 16:23:12.366301,782661,1609506855721288,4455633424,0.733952,0.216672,-0.386496,-8.6275,49.4375,25.24375,-31.928001,17.488,-76.968,concentric,4,5.0,23289.0,28487.0,85093.0,69515.0,22667.0,37379.0,34770.0,39545.0,15457.0,11982.0
2026-05-06 16:23:12.368860,782662,1609506855735822,4455648342,0.757376,0.201056,-0.402112,-7.945,48.13375,25.13,-32.16,17.832,-77.008,concentric,4,5.0,23289.0,28487.0,85093.0,69515.0,22667.0,37379.0,34770.0,39545.0,15457.0,11982.0
2026-05-06 16:23:12.371347,782663,1609506855744750,4455657047,0.757376,0.201056,-0.402112,-6.3525,46.445,24.01875,-32.16,17.832,-77.008,concentric,4,5.0,23289.0,28487.0,85093.0,69515.0,22667.0,37379.0,34770.0,39545.0,15457.0,11982.0
2026-05-06 16:23:12.373857,782664,1609506855759245,4455671954,0.75152,0.181536,-0.456768,-4.99625,44.58125,22.49625,-31.488,18.064001,-76.272,concentric,4,5.0,23289.0,28487.0,85093.0,69515.0,22667.0,37379.0,34770.0,39545.0,15457.0,11982.0
2026-05-06 16:23:12.376218,782665,1609506855768148,4455680645,0.75152,0.181536,-0.456768,-6.46625,44.0125,20.3875,-31.488,18.064001,-76.272,concentric,4,5.0,23289.0,28487.0,85093.0,69515.0,22667.0,37379.0,34770.0,39545.0,15457.0,11982.0
2026-05-06 16:23:12.378863,782666,1609506855777084,4455689357,0.774944,0.16592,-0.402112,-6.46625,42.84,19.32875,-32.224003,18.576,-75.672005,concentric,4,5.0,23289.0,28487.0,85093.0,69515.0,22667.0,37379.0,34770.0,39545.0,15457.0,11982.0
2026-05-06 16:23:12.440386,782677,1609506855792213,4455704357,0.806176,0.163968,-0.378688,-4.90875,40.74,17.535,-32.128002,16.896,-74.104004,concentric,4,5.0,23004.0,28913.0,83836.0,68699.0,22343.0,37741.0,34146.0,39103.0,15243.0,12165.0
2026-05-06 16:23:12.442292,782678,1609506855801361,4455713144,0.806176,0.163968,-0.378688,-4.05125,39.0775,17.35125,-32.128002,16.896,-74.104004,concentric,4,5.0,23004.0,28913.0,83836.0,68699.0,22343.0,37741.0,34146.0,39103.0,15243.0,12165.0
2026-05-06 16:23:12.445058,782679,1609506855815979,4455728046,0.772992,0.171776,-0.435296,-2.89625,38.9025,17.325,-32.112003,17.408,-73.80801,concentric,4,5.0,23004.0,28913.0,83836.0,68699.0,22343.0,37741.0,34146.0,39103.0,15243.0,12165.0
2026-05-06 16:23:12.447567,782680,1609506855825060,4455736844,0.772992,0.171776,-0.435296,-6.965,39.64625,18.3225,-32.112003,17.408,-73.80801,concentric,4,5.0,23004.0,28913.0,83836.0,68699.0,22343.0,37741.0,34146.0,39103.0,15243.0,12165.0
2026-05-06 16:23:12.450014,782681,1609506855834078,4455745569,0.79056,0.163968,-0.3904,-7.25375,38.5175,17.928751,-32.04,19.136002,-74.728004,concentric,4,5.0,23004.0,28913.0,83836.0,68699.0,22343.0,37741.0,34146.0,39103.0,15243.0,12165.0
2026-05-06 16:23:12.452574,782682,1609506855848595,4455760481,0.79056,0.163968,-0.3904,-4.585,38.01875,16.19625,-32.04,19.136002,-74.728004,concentric,4,5.0,23004.0,28913.0,83836.0,68699.0,22343.0,37741.0,34146.0,39103.0,15243.0,12165.0
2026-05-06 16:23:12.455068,782683,1609506855857602,4455769296,0.796416,0.177632,-0.335744,-2.9225,37.2575,16.1525,-32.232002,17.336,-73.152,concentric,4,5.0,23004.0,28913.0,83836.0,68699.0,22343.0,37741.0,34146.0,39103.0,15243.0,12165.0
2026-05-06 16:23:12.457572,782684,1609506855872251,4455784279,0.823744,0.183488,-0.462624,-0.4725,36.61,17.29,-32.024002,17.496,-72.648,concentric,4,5.0,23004.0,28913.0,83836.0,68699.0,22343.0,37741.0,34146.0,39103.0,15243.0,12165.0
2026-05-06 16:23:12.459937,782685,1609506855881267,4455793040,0.823744,0.183488,-0.462624,-2.7475,37.23125,18.29625,-32.024002,17.496,-72.648,concentric,4,5.0,23004.0,28913.0,83836.0,68699.0,22343.0,37741.0,34146.0,39103.0,15243.0,12165.0
2026-05-06 16:23:12.496498,782696,1609506855896367,4455808085,0.765184,0.20496,-0.40016,-7.735,36.75,17.84125,-32.272003,16.528,-71.16801,concentric,4,5.0,22520.0,29242.0,82519.0,67702.0,21912.0,37996.0,33475.0,38508.0,14978.0,12293.0
2026-05-06 16:23:12.498982,782697,1609506855905482,4455817093,0.765184,0.20496,-0.40016,-11.095,37.0475,15.89,-32.272003,16.528,-71.16801,concentric,4,5.0,22520.0,29242.0,82519.0,67702.0,21912.0,37996.0,33475.0,38508.0,14978.0,12293.0
2026-05-06 16:23:12.501520,782698,1609506855914447,4455825851,0.841312,0.203008,-0.335744,-15.198751,35.6125,15.5225,-32.144,19.824001,-73.36,concentric,4,5.0,22520.0,29242.0,82519.0,67702.0,21912.0,37996.0,33475.0,38508.0,14978.0,12293.0
2026-05-06 16:23:12.504039,782699,1609506855928979,4455840771,0.841312,0.203008,-0.335744,-20.25625,33.94125,14.455,-32.144,19.824001,-73.36,concentric,4,5.0,22520.0,29242.0,82519.0,67702.0,21912.0,37996.0,33475.0,38508.0,14978.0,12293.0
2026-05-06 16:23:12.512778,782700,1609506855937943,4455849503,0.903776,0.152256,-0.366976,-22.23375,32.1125,12.17125,-31.872002,19.192001,-72.936005,concentric,4,5.0,22520.0,29242.0,82519.0,67702.0,21912.0,37996.0,33475.0,38508.0,14978.0,12293.0
2026-05-06 16:23:12.529496,782701,1609506855946886,4455858190,0.903776,0.152256,-0.366976,-21.42,32.0775,10.2725,-31.872002,19.192001,-72.936005,concentric,4,5.0,22520.0,29242.0,82519.0,67702.0,21912.0,37996.0,33475.0,38508.0,14978.0,12293.0
2026-05-06 16:23:12.540072,782702,1609506855961416,4455873087,0.843264,0.150304,-0.3904,-21.62125,32.4275,11.4625,-32.184002,20.144001,-72.96001,concentric,4,5.0,22520.0,29242.0,82519.0,67702.0,21912.0,37996.0,33475.0,38508.0,14978.0,12293.0
2026-05-06 16:23:12.546336,782703,1609506855970387,4455881824,0.843264,0.150304,-0.3904,-20.46625,31.78,12.71375,-32.184002,20.144001,-72.96001,concentric,4,5.0,22520.0,29242.0,82519.0,67702.0,21912.0,37996.0,33475.0,38508.0,14978.0,12293.0
2026-05-06 16:23:12.560126,782704,1609506855984977,4455896722,0.823744,0.152256,-0.31232,-17.15875,30.52,14.385,-32.112003,17.76,-71.624,concentric,4,5.0,22520.0,29242.0,82519.0,67702.0,21912.0,37996.0,33475.0,38508.0,14978.0,12293.0
2026-05-06 16:23:12.596298,782715,1609506855994443,4455905544,0.915488,0.152256,-0.193248,-16.2225,27.90375,17.77125,-31.808,18.112001,-72.728004,concentric,4,5.0,22483.0,29520.0,82090.0,67489.0,21871.0,38268.0,33284.0,38396.0,14940.0,12436.0
2026-05-06 16:23:12.598702,782716,1609506856003806,4455916388,0.915488,0.152256,-0.193248,-14.3325,25.76875,17.045,-31.808,18.112001,-72.728004,concentric,4,5.0,22483.0,29520.0,82090.0,67489.0,21871.0,38268.0,33284.0,38396.0,14940.0,12436.0
2026-05-06 16:23:12.601193,782717,1609506856018463,4455929327,0.89792,0.138592,-0.300608,-11.7075,24.7625,15.627501,-31.984001,18.864,-71.44,concentric,4,5.0,22483.0,29520.0,82090.0,67489.0,21871.0,38268.0,33284.0,38396.0,14940.0,12436.0
2026-05-06 16:23:12.603860,782718,1609506856027927,4455940148,0.89792,0.138592,-0.300608,-12.425,25.52375,17.35125,-31.984001,18.864,-71.44,concentric,4,5.0,22483.0,29520.0,82090.0,67489.0,21871.0,38268.0,33284.0,38396.0,14940.0,12436.0
2026-05-06 16:23:12.637694,782719,1609506856042466,4455955101,0.812032,0.150304,-0.242048,-16.03875,23.9925,19.241251,-31.480001,18.704,-71.328,concentric,4,5.0,22483.0,29520.0,82090.0,67489.0,21871.0,38268.0,33284.0,38396.0,14940.0,12436.0
2026-05-06 16:23:12.640004,782720,1609506856051416,4455963857,0.812032,0.150304,-0.242048,-16.0825,20.62375,17.3425,-31.480001,18.704,-71.328,concentric,4,5.0,22483.0,29520.0,82090.0,67489.0,21871.0,38268.0,33284.0,38396.0,14940.0,12436.0
2026-05-06 16:23:12.642486,782721,1609506856060345,4455972535,0.866688,0.15616,-0.210816,-16.6775,17.7975,16.87875,-31.704002,20.584002,-71.11201,concentric,4,5.0,22483.0,29520.0,82090.0,67489.0,21871.0,38268.0,33284.0,38396.0,14940.0,12436.0
2026-05-06 16:23:12.671451,782722,1609506856074854,4455987526,0.823744,0.140544,-0.314272,-16.8,15.1725,16.03,-31.432001,20.480001,-72.136,concentric,4,5.0,22483.0,29520.0,82090.0,67489.0,21871.0,38268.0,33284.0,38396.0,14940.0,12436.0
2026-05-06 16:23:12.698755,782723,1609506856083779,4455996223,0.823744,0.140544,-0.314272,-18.73375,15.2425,15.2425,-31.432001,20.480001,-72.136,eccentric,4,5.0,22483.0,29520.0,82090.0,67489.0,21871.0,38268.0,33284.0,38396.0,14940.0,12436.0
2026-05-06 16:23:12.756449,782734,1609506856098585,4456011210,0.782752,0.13664,-0.2928,-22.54875,13.58875,15.89875,-31.408,20.560001,-72.744,eccentric,4,5.0,22379.0,29602.0,82069.0,67039.0,21810.0,38350.0,33246.0,38147.0,14909.0,12495.0
2026-05-06 16:23:12.761486,782735,1609506856107602,4456019972,0.782752,0.13664,-0.2928,-26.52125,10.605001,13.64125,-31.408,20.560001,-72.744,eccentric,4,5.0,22379.0,29602.0,82069.0,67039.0,21810.0,38350.0,33246.0,38147.0,14909.0,12495.0
2026-05-06 16:23:12.763933,782736,1609506856122101,4456032900,0.847168,0.095648,-0.20496,-26.6875,7.2275,11.24375,-31.024002,20.672,-72.576004,eccentric,4,5.0,22379.0,29602.0,82069.0,67039.0,21810.0,38350.0,33246.0,38147.0,14909.0,12495.0
2026-05-06 16:23:12.766464,782737,1609506856131398,4456043682,0.847168,0.095648,-0.20496,-24.54375,4.90875,7.735,-31.024002,20.672,-72.576004,eccentric,4,5.0,22379.0,29602.0,82069.0,67039.0,21810.0,38350.0,33246.0,38147.0,14909.0,12495.0
2026-05-06 16:23:12.769059,782738,1609506856140321,4456052385,0.831552,0.062464,-0.259616,-19.71375,3.7625,3.75375,-31.12,20.632002,-73.256004,eccentric,4,5.0,22379.0,29602.0,82069.0,67039.0,21810.0,38350.0,33246.0,38147.0,14909.0,12495.0
2026-05-06 16:23:12.771468,782739,1609506856154782,4456067279,0.778848,0.10736,-0.261568,-14.63875,3.43875,4.48,-31.072002,20.696001,-73.880005,eccentric,4,5.0,22379.0,29602.0,82069.0,67039.0,21810.0,38350.0,33246.0,38147.0,14909.0,12495.0
2026-05-06 16:23:12.773968,782740,1609506856163705,4456076030,0.778848,0.10736,-0.261568,-12.24125,2.30125,5.53,-31.072002,20.696001,-73.880005,eccentric,4,5.0,22379.0,29602.0,82069.0,67039.0,21810.0,38350.0,33246.0,38147.0,14909.0,12495.0
2026-05-06 16:23:12.776444,782741,1609506856178244,4456089028,0.81008,0.121024,-0.255712,-11.82125,-1.61875,3.87625,-31.288002,19.080002,-71.936005,eccentric,4,5.0,22379.0,29602.0,82069.0,67039.0,21810.0,38350.0,33246.0,38147.0,14909.0,12495.0
2026-05-06 16:23:12.778937,782742,1609506856187499,4456099853,0.81008,0.121024,-0.255712,-11.8475,-4.83875,0.79625,-31.288002,19.080002,-71.936005,eccentric,4,5.0,22379.0,29602.0,82069.0,67039.0,21810.0,38350.0,33246.0,38147.0,14909.0,12495.0
2026-05-06 16:23:12.811501,782753,1609506856196658,4456108661,0.823744,0.072224,-0.249856,-11.3925,-7.67375,-3.59625,-31.096,20.656,-73.4,eccentric,4,5.0,22719.0,29949.0,82121.0,67059.0,22066.0,38673.0,33246.0,38148.0,15066.0,12614.0
2026-05-06 16:23:12.814106,782754,1609506856211346,4456123713,0.823744,0.072224,-0.249856,-8.9075,-10.08,-7.8925,-31.096,20.656,-73.4,eccentric,4,5.0,22719.0,29949.0,82121.0,67059.0,22066.0,38673.0,33246.0,38148.0,15066.0,12614.0
2026-05-06 16:23:12.816054,782755,1609506856220319,4456132494,0.81008,0.056608,-0.26352,-4.62,-11.17375,-9.37125,-31.28,20.872002,-73.496,eccentric,4,5.0,22719.0,29949.0,82121.0,67059.0,22066.0,38673.0,33246.0,38148.0,15066.0,12614.0
2026-05-06 16:23:12.818533,782756,1609506856234864,4456147421,0.821792,0.091744,-0.232288,-2.05625,-12.11,-8.89,-30.880001,20.472,-71.912,eccentric,4,5.0,22719.0,29949.0,82121.0,67059.0,22066.0,38673.0,33246.0,38148.0,15066.0,12614.0
2026-05-06 16:23:12.821396,782757,1609506856243797,4456156148,0.821792,0.091744,-0.232288,0.49875,-14.34125,-9.09125,-30.880001,20.472,-71.912,eccentric,4,5.0,22719.0,29949.0,82121.0,67059.0,22066.0,38673.0,33246.0,38148.0,15066.0,12614.0
2026-05-06 16:23:12.830064,782758,1609506856252782,4456164990,0.821792,0.091744,-0.232288,3.3075,-17.1325,-10.54375,-30.880001,20.472,-71.912,eccentric,4,5.0,22719.0,29949.0,82121.0,67059.0,22066.0,38673.0,33246.0,38148.0,15066.0,12614.0
2026-05-06 16:23:12.843934,782759,1609506856267317,4456179934,0.88816,0.081984,-0.247904,5.81875,-18.61125,-12.95875,-31.056002,20.384,-73.304,eccentric,4,5.0,22719.0,29949.0,82121.0,67059.0,22066.0,38673.0,33246.0,38148.0,15066.0,12614.0
2026-05-06 16:23:12.855196,782760,1609506856276273,4456188678,0.845216,0.081984,-0.298656,7.13125,-19.7925,-16.31,-31.224,20.52,-72.856,eccentric,4,5.0,22719.0,29949.0,82121.0,67059.0,22066.0,38673.0,33246.0,38148.0,15066.0,12614.0
2026-05-06 16:23:12.866436,782761,1609506856290855,4456201678,0.845216,0.081984,-0.298656,8.636251,-20.46625,-17.92,-31.224,20.52,-72.856,eccentric,4,5.0,22719.0,29949.0,82121.0,67059.0,22066.0,38673.0,33246.0,38148.0,15066.0,12614.0
2026-05-06 16:23:12.897821,782772,1609506856300335,4456212527,0.83936,0.105408,-0.25376,7.84,-21.4725,-17.92,-31.376001,20.36,-72.856,eccentric,4,5.0,23027.0,30566.0,82893.0,66617.0,22253.0,39232.0,33668.0,37886.0,15197.0,12856.0
2026-05-06 16:23:12.898256,782773,1609506856309317,4456221299,0.83936,0.105408,-0.25376,7.945,-23.835001,-19.76625,-31.376001,20.36,-72.856,eccentric,4,5.0,23027.0,30566.0,82893.0,66617.0,22253.0,39232.0,33668.0,37886.0,15197.0,12856.0
2026-05-06 16:23:12.900020,782774,1609506856323896,4456236255,0.899872,0.105408,-0.247904,9.8875,-25.87375,-22.49625,-31.184002,18.496,-72.864006,eccentric,4,5.0,23027.0,30566.0,82893.0,66617.0,22253.0,39232.0,33668.0,37886.0,15197.0,12856.0
2026-05-06 16:23:12.910455,782775,1609506856332886,4456245006,0.899872,0.105408,-0.247904,11.01625,-26.34625,-24.10625,-31.184002,18.496,-72.864006,eccentric,4,5.0,23027.0,30566.0,82893.0,66617.0,22253.0,39232.0,33668.0,37886.0,15197.0,12856.0
2026-05-06 16:23:12.926347,782776,1609506856347442,4456259967,0.860832,0.11712,-0.349408,10.71875,-26.075,-25.97,-31.744001,19.416,-72.912,eccentric,4,5.0,23027.0,30566.0,82893.0,66617.0,22253.0,39232.0,33668.0,37886.0,15197.0,12856.0
2026-05-06 16:23:12.937670,782777,1609506856356399,4456268701,0.827648,0.144448,-0.300608,9.52875,-26.3725,-26.7575,-31.304,19.888,-75.264,eccentric,4,5.0,23027.0,30566.0,82893.0,66617.0,22253.0,39232.0,33668.0,37886.0,15197.0,12856.0
2026-05-06 16:23:12.946421,782778,1609506856370909,4456281750,0.827648,0.144448,-0.300608,7.1925,-29.26,-29.47,-31.304,19.888,-75.264,eccentric,4,5.0,23027.0,30566.0,82893.0,66617.0,22253.0,39232.0,33668.0,37886.0,15197.0,12856.0
2026-05-06 16:23:12.960264,782779,1609506856380207,4456292536,0.870592,0.140544,-0.298656,3.45625,-32.2525,-32.61125,-31.776001,19.160002,-73.472,eccentric,4,5.0,23027.0,30566.0,82893.0,66617.0,22253.0,39232.0,33668.0,37886.0,15197.0,12856.0
2026-05-06 16:23:12.966506,782780,1609506856389130,4456301234,0.870592,0.140544,-0.298656,2.72125,-32.64625,-32.97875,-31.776001,19.160002,-73.472,eccentric,4,5.0,23027.0,30566.0,82893.0,66617.0,22253.0,39232.0,33668.0,37886.0,15197.0,12856.0
2026-05-06 16:23:13.002259,782792,1609506856404318,4456316246,0.841312,0.128832,-0.308416,4.06875,-33.36375,-35.14,-32.120003,17.616001,-73.968,eccentric,4,5.0,23651.0,31344.0,83791.0,66504.0,22690.0,40019.0,34125.0,37787.0,15475.0,13200.0
2026-05-06 16:23:13.002396,782793,1609506856413340,4456325003,0.841312,0.128832,-0.308416,5.13625,-34.0375,-35.84875,-32.120003,17.616001,-73.968,eccentric,4,5.0,23651.0,31344.0,83791.0,66504.0,22690.0,40019.0,34125.0,37787.0,15475.0,13200.0
2026-05-06 16:23:13.005021,782794,1609506856427976,4456340129,0.806176,0.154208,-0.333792,8.5575,-35.805,-34.7375,-31.904001,18.560001,-74.784004,eccentric,4,5.0,23651.0,31344.0,83791.0,66504.0,22690.0,40019.0,34125.0,37787.0,15475.0,13200.0
2026-05-06 16:23:13.012350,782795,1609506856437016,4456348859,0.765184,0.206912,-0.3904,10.43875,-35.84875,-34.51,-32.152,18.960001,-76.616005,eccentric,4,5.0,23651.0,31344.0,83791.0,66504.0,22690.0,40019.0,34125.0,37787.0,15475.0,13200.0
2026-05-06 16:23:13.045148,782796,1609506856446437,4456358185,0.765184,0.206912,-0.3904,10.35125,-36.21625,-34.01125,-32.152,18.960001,-76.616005,eccentric,4,5.0,23651.0,31344.0,83791.0,66504.0,22690.0,40019.0,34125.0,37787.0,15475.0,13200.0
2026-05-06 16:23:13.070234,782797,1609506856460932,4456373072,0.808128,0.201056,-0.353312,10.1325,-38.6225,-35.35875,-32.280003,18.624,-76.128006,eccentric,4,5.0,23651.0,31344.0,83791.0,66504.0,22690.0,40019.0,34125.0,37787.0,15475.0,13200.0
2026-05-06 16:23:13.095063,782798,1609506856469859,4456381909,0.808128,0.201056,-0.353312,7.5075,-40.1975,-38.745,-32.280003,18.624,-76.128006,eccentric,4,5.0,23651.0,31344.0,83791.0,66504.0,22690.0,40019.0,34125.0,37787.0,15475.0,13200.0
2026-05-06 16:23:13.110078,782799,1609506856484317,4456396848,0.767136,0.201056,-0.38064,5.985,-42.14875,-40.62625,-32.36,16.16,-75.032005,eccentric,4,5.0,23651.0,31344.0,83791.0,66504.0,22690.0,40019.0,34125.0,37787.0,15475.0,13200.0
2026-05-06 16:23:13.112622,782800,1609506856493214,4456405676,0.767136,0.201056,-0.38064,4.78625,-43.74125,-41.5975,-32.36,16.16,-75.032005,eccentric,4,5.0,23651.0,31344.0,83791.0,66504.0,22690.0,40019.0,34125.0,37787.0,15475.0,13200.0
2026-05-06 16:23:13.142681,782811,1609506856502423,4456414555,0.726144,0.236192,-0.396256,3.185,-45.71,-41.46625,-32.648003,17.424002,-76.84801,eccentric,4,5.0,23686.0,31513.0,84789.0,66500.0,22756.0,40081.0,34622.0,37782.0,15557.0,13234.0
2026-05-06 16:23:13.145175,782812,1609506856516922,4456429482,0.70272,0.255712,-0.382592,1.77625,-47.7225,-41.23875,-32.4,17.416,-77.336006,eccentric,4,5.0,23686.0,31513.0,84789.0,66500.0,22756.0,40081.0,34622.0,37782.0,15557.0,13234.0
2026-05-06 16:23:13.147432,782813,1609506856526008,4456438189,0.70272,0.255712,-0.382592,-0.28875,-50.05875,-42.21875,-32.4,17.416,-77.336006,eccentric,4,5.0,23686.0,31513.0,84789.0,66500.0,22756.0,40081.0,34622.0,37782.0,15557.0,13234.0
2026-05-06 16:23:13.149940,782814,1609506856540576,4456453186,0.753472,0.244,-0.357216,-0.7,-52.9025,-43.6975,-32.784,16.664001,-78.128006,eccentric,4,5.0,23686.0,31513.0,84789.0,66500.0,22756.0,40081.0,34622.0,37782.0,15557.0,13234.0
2026-05-06 16:23:13.152565,782815,1609506856549502,4456462061,0.753472,0.244,-0.357216,-1.4175,-55.15125,-44.765,-32.784,16.664001,-78.128006,eccentric,4,5.0,23686.0,31513.0,84789.0,66500.0,22756.0,40081.0,34622.0,37782.0,15557.0,13234.0
2026-05-06 16:23:13.154958,782816,1609506856558533,4456470798,0.694912,0.249856,-0.435296,-1.49625,-57.2775,-46.43625,-33.152,12.784,-76.48801,eccentric,4,5.0,23686.0,31513.0,84789.0,66500.0,22756.0,40081.0,34622.0,37782.0,15557.0,13234.0
2026-05-06 16:23:13.157752,782817,1609506856573118,4456485779,0.694912,0.249856,-0.435296,-1.1025,-59.465,-48.2125,-33.152,12.784,-76.48801,eccentric,4,5.0,23686.0,31513.0,84789.0,66500.0,22756.0,40081.0,34622.0,37782.0,15557.0,13234.0
2026-05-06 16:23:13.160235,782818,1609506856582088,4456494562,0.630496,0.296704,-0.464576,-2.94,-61.888752,-49.63,-32.656002,11.8,-77.672005,eccentric,4,5.0,23686.0,31513.0,84789.0,66500.0,22756.0,40081.0,34622.0,37782.0,15557.0,13234.0
2026-05-06 16:23:13.198786,782829,1609506856597063,4456509788,0.630496,0.296704,-0.486048,-3.21125,-64.8725,-51.28375,-32.656002,11.8,-77.672005,eccentric,4,5.0,23662.0,31200.0,86048.0,66786.0,22822.0,39764.0,35263.0,37984.0,15631.0,13076.0
2026-05-06 16:23:13.201349,782830,1609506856606198,4456518610,0.648064,0.30256,-0.486048,-0.77,-68.03125,-53.47125,-32.712,14.912001,-80.704,eccentric,4,5.0,23662.0,31200.0,86048.0,66786.0,22822.0,39764.0,35263.0,37984.0,15631.0,13076.0
2026-05-06 16:23:13.203820,782831,1609506856615181,4456527323,0.648064,0.30256,-0.486048,-0.9975,-70.02625,-54.94125,-32.712,14.912001,-80.704,eccentric,4,5.0,23662.0,31200.0,86048.0,66786.0,22822.0,39764.0,35263.0,37984.0,15631.0,13076.0
2026-05-06 16:23:13.206328,782832,1609506856629709,4456542269,0.628544,0.310368,-0.49776,-1.75,-71.82875,-56.455,-32.84,14.160001,-81.512,eccentric,4,5.0,23662.0,31200.0,86048.0,66786.0,22822.0,39764.0,35263.0,37984.0,15631.0,13076.0
2026-05-06 16:23:13.215141,782833,1609506856638672,4456551053,0.636352,0.325984,-0.470432,-1.88125,-74.48875,-59.263752,-32.888,12.536,-81.032005,eccentric,4,5.0,23662.0,31200.0,86048.0,66786.0,22822.0,39764.0,35263.0,37984.0,15631.0,13076.0
2026-05-06 16:23:13.227793,782834,1609506856653204,4456563955,0.636352,0.325984,-0.470432,-5.8275,-77.805,-60.8125,-32.888,12.536,-81.032005,eccentric,4,5.0,23662.0,31200.0,86048.0,66786.0,22822.0,39764.0,35263.0,37984.0,15631.0,13076.0
2026-05-06 16:23:13.241554,782835,1609506856662416,4456574747,0.5856,0.378688,-0.560224,-11.0775,-79.8,-62.335,-32.272003,13.624001,-82.64001,eccentric,4,5.0,23662.0,31200.0,86048.0,66786.0,22822.0,39764.0,35263.0,37984.0,15631.0,13076.0
2026-05-06 16:23:13.255243,782836,1609506856677127,4456589644,0.5856,0.378688,-0.560224,-14.035,-80.7625,-63.875,-32.272003,13.624001,-82.64001,eccentric,4,5.0,23662.0,31200.0,86048.0,66786.0,22822.0,39764.0,35263.0,37984.0,15631.0,13076.0
2026-05-06 16:23:13.261506,782837,1609506856686224,4456598371,0.573888,0.345504,-0.534848,-7.665,-83.308754,-68.0225,-32.440002,12.368001,-84.58401,eccentric,4,5.0,23662.0,31200.0,86048.0,66786.0,22822.0,39764.0,35263.0,37984.0,15631.0,13076.0
2026-05-06 16:23:13.275145,782838,1609506856695264,4456607074,0.573888,0.345504,-0.534848,-5.31125,-85.61875,-69.88625,-32.440002,12.368001,-84.58401,eccentric,4,5.0,23662.0,31200.0,86048.0,66786.0,22822.0,39764.0,35263.0,37984.0,15631.0,13076.0
2026-05-06 16:23:13.305125,782849,1609506856709910,4456622289,0.622688,0.359168,-0.583648,-8.51375,-87.50875,-66.9725,-32.096,11.616,-85.008,eccentric,4,5.0,24197.0,30336.0,86276.0,68370.0,23312.0,39001.0,35517.0,38900.0,15980.0,12717.0
2026-05-06 16:23:13.307579,782850,1609506856718861,4456631087,0.54656,0.402112,-0.677344,-12.20625,-88.305,-65.0125,-31.696001,11.144,-86.16,eccentric,4,5.0,24197.0,30336.0,86276.0,68370.0,23312.0,39001.0,35517.0,38900.0,15980.0,12717.0
2026-05-06 16:23:13.311398,782851,1609506856733410,4456646023,0.54656,0.402112,-0.677344,-11.10375,-89.04875,-66.87625,-31.696001,11.144,-86.16,eccentric,4,5.0,24197.0,30336.0,86276.0,68370.0,23312.0,39001.0,35517.0,38900.0,15980.0,12717.0
2026-05-06 16:23:13.318968,782852,1609506856742407,4456654825,0.491904,0.421632,-0.628544,-9.2575,-88.9,-71.26,-31.408,9.64,-87.07201,eccentric,4,5.0,24197.0,30336.0,86276.0,68370.0,23312.0,39001.0,35517.0,38900.0,15980.0,12717.0
2026-05-06 16:23:13.331465,782853,1609506856751388,4456663592,0.491904,0.421632,-0.628544,-4.75125,-88.97,-72.84375,-31.408,9.64,-87.07201,eccentric,4,5.0,24197.0,30336.0,86276.0,68370.0,23312.0,39001.0,35517.0,38900.0,15980.0,12717.0
2026-05-06 16:23:13.345268,782854,1609506856766027,4456678510,0.495808,0.40992,-0.685152,-1.58375,-89.22375,-72.87,-31.464,9.736,-89.144005,eccentric,4,5.0,24197.0,30336.0,86276.0,68370.0,23312.0,39001.0,35517.0,38900.0,15980.0,12717.0
2026-05-06 16:23:13.351478,782855,1609506856774929,4456687204,0.495808,0.40992,-0.685152,-0.60375,-89.52125,-72.345,-31.464,9.736,-89.144005,eccentric,4,5.0,24197.0,30336.0,86276.0,68370.0,23312.0,39001.0,35517.0,38900.0,15980.0,12717.0
2026-05-06 16:23:13.391187,782856,1609506856789603,4456702106,0.488,0.339648,-0.528992,2.8875,-90.3875,-71.9425,-30.712002,8.944,-88.576004,eccentric,4,5.0,24197.0,30336.0,86276.0,68370.0,23312.0,39001.0,35517.0,38900.0,15980.0,12717.0
2026-05-06 16:23:13.471335,782867,1609506856798946,4456711029,0.488,0.417728,-0.735904,1.8375,-93.135,-77.23625,-30.712002,8.944,-88.576004,eccentric,4,5.0,25568.0,29707.0,87083.0,71742.0,24564.0,38498.0,35915.0,40760.0,16770.0,12516.0
2026-05-06 16:23:13.473822,782868,1609506856807963,4456719847,0.378688,0.417728,-0.735904,-0.91875,-98.035,-81.5675,-30.320002,7.84,-89.728004,eccentric,4,5.0,25568.0,29707.0,87083.0,71742.0,24564.0,38498.0,35915.0,40760.0,16770.0,12516.0
2026-05-06 16:23:13.476203,782869,1609506856822467,4456734864,0.208864,0.462624,-0.679296,13.265,-98.86625,-81.41,-29.328001,8.104,-89.976006,eccentric,4,5.0,25568.0,29707.0,87083.0,71742.0,24564.0,38498.0,35915.0,40760.0,16770.0,12516.0
2026-05-06 16:23:13.478840,782870,1609506856831418,4456743553,0.208864,0.462624,-0.679296,36.9075,-98.595,-81.41,-29.328001,8.104,-89.976006,eccentric,4,5.0,25568.0,29707.0,87083.0,71742.0,24564.0,38498.0,35915.0,40760.0,16770.0,12516.0
2026-05-06 16:23:13.481150,782871,1609506856845886,4456758656,0.25376,0.515328,-0.757376,33.6875,-101.78875,-80.185,-28.784002,7.464,-91.47201,eccentric,4,5.0,25568.0,29707.0,87083.0,71742.0,24564.0,38498.0,35915.0,40760.0,16770.0,12516.0
2026-05-06 16:23:13.483874,782872,1609506856854788,4456767357,0.25376,0.515328,-0.757376,24.21125,-104.58,-72.275,-28.784002,7.464,-91.47201,eccentric,4,5.0,25568.0,29707.0,87083.0,71742.0,24564.0,38498.0,35915.0,40760.0,16770.0,12516.0
2026-05-06 16:23:13.486368,782873,1609506856869463,4456780324,0.232288,0.476288,-0.737856,26.005,-107.14375,-71.785,-27.928001,6.792,-92.560005,eccentric,4,5.0,25568.0,29707.0,87083.0,71742.0,24564.0,38498.0,35915.0,40760.0,16770.0,12516.0
2026-05-06 16:23:13.488900,782874,1609506856878867,4456791097,0.232288,0.538752,-0.886208,17.5,-111.7375,-75.85375,-27.928001,6.792,-92.560005,eccentric,4,5.0,25568.0,29707.0,87083.0,71742.0,24564.0,38498.0,35915.0,40760.0,16770.0,12516.0
2026-05-06 16:23:13.491397,782875,1609506856887959,4456799897,0.210816,0.544608,-0.886208,6.37875,-113.95125,-72.6075,-27.408,6.248,-92.62401,eccentric,4,5.0,25568.0,29707.0,87083.0,71742.0,24564.0,38498.0,35915.0,40760.0,16770.0,12516.0
2026-05-06 16:23:13.521484,782886,1609506856902762,4456814885,0.160064,0.589504,-0.812032,9.86125,-113.6625,-71.7325,-26.312002,5.728,-94.104004,eccentric,4,5.0,26867.0,29883.0,87052.0,73763.0,25721.0,38733.0,35989.0,41824.0,17543.0,12650.0
2026-05-06 16:23:13.523990,782887,1609506856911754,4456823658,0.160064,0.589504,-0.812032,17.59625,-111.55375,-72.1875,-26.312002,5.728,-94.104004,eccentric,4,5.0,26867.0,29883.0,87052.0,73763.0,25721.0,38733.0,35989.0,41824.0,17543.0,12650.0
2026-05-06 16:23:13.526465,782888,1609506856920737,4456832529,0.08784,0.550464,-0.577792,28.210001,-111.0725,-71.70625,-24.960001,5.784,-95.26401,eccentric,4,5.0,26867.0,29883.0,87052.0,73763.0,25721.0,38733.0,35989.0,41824.0,17543.0,12650.0
2026-05-06 16:23:13.528936,782889,1609506856935339,4456847453,0.08784,0.550464,-0.577792,29.65375,-115.75375,-73.045,-24.960001,5.784,-95.26401,eccentric,4,5.0,26867.0,29883.0,87052.0,73763.0,25721.0,38733.0,35989.0,41824.0,17543.0,12650.0
2026-05-06 16:23:13.531512,782890,1609506856944365,4456856168,0.099552,0.513376,-0.81984,20.44875,-124.46,-75.67,-23.992,5.064,-96.32001,eccentric,4,5.0,26867.0,29883.0,87052.0,73763.0,25721.0,38733.0,35989.0,41824.0,17543.0,12650.0
2026-05-06 16:23:13.533978,782891,1609506856958996,4456871121,0.099552,0.513376,-0.81984,1.6975,-130.64626,-76.29125,-23.992,5.064,-96.32001,eccentric,4,5.0,26867.0,29883.0,87052.0,73763.0,25721.0,38733.0,35989.0,41824.0,17543.0,12650.0
2026-05-06 16:23:13.547474,782892,1609506856967941,4456879877,0.05856,0.626592,-0.944768,-5.6875,-129.78,-72.87,-22.416,3.36,-97.83201,eccentric,4,5.0,26867.0,29883.0,87052.0,73763.0,25721.0,38733.0,35989.0,41824.0,17543.0,12650.0
2026-05-06 16:23:13.577577,782893,1609506856982474,4456894847,-0.00976,0.636352,-0.874496,8.88125,-126.621254,-73.84125,-20.856,3.944,-98.312004,eccentric,4,5.0,26867.0,29883.0,87052.0,73763.0,25721.0,38733.0,35989.0,41824.0,17543.0,12650.0
2026-05-06 16:23:13.580106,782894,1609506856991401,4456903516,-0.00976,0.636352,-0.874496,12.005,-126.595,-73.902504,-20.856,3.944,-98.312004,eccentric,4,5.0,26867.0,29883.0,87052.0,73763.0,25721.0,38733.0,35989.0,41824.0,17543.0,12650.0
2026-05-06 16:23:13.607727,782905,1609506857000395,4456912279,-0.119072,0.525088,-0.638304,2.30125,-130.43625,-69.055,-20.856,3.368,-102.43201,eccentric,4,5.0,27256.0,29768.0,87889.0,74876.0,26069.0,38608.0,36438.0,42445.0,17765.0,12592.0
2026-05-06 16:23:13.610276,782906,1609506857015000,4456927301,-0.119072,0.525088,-0.638304,4.05125,-138.18875,-72.09125,-19.016,3.368,-102.43201,eccentric,4,5.0,27256.0,29768.0,87889.0,74876.0,26069.0,38608.0,36438.0,42445.0,17765.0,12592.0
2026-05-06 16:23:13.612792,782907,1609506857023936,4456936063,-0.11712,0.495808,-0.833504,-8.77625,-149.1525,-78.79375,-17.168001,2.24,-100.75201,eccentric,4,5.0,27256.0,29768.0,87889.0,74876.0,26069.0,38608.0,36438.0,42445.0,17765.0,12592.0
2026-05-06 16:23:13.615277,782908,1609506857038575,4456951004,-0.11712,0.495808,-0.833504,-19.460001,-155.67125,-78.575,-17.168001,2.24,-100.75201,eccentric,4,5.0,27256.0,29768.0,87889.0,74876.0,26069.0,38608.0,36438.0,42445.0,17765.0,12592.0
2026-05-06 16:23:13.622650,782909,1609506857047607,4456959794,-0.17568,0.618784,-0.997472,-6.46625,-156.3625,-80.115,-15.168001,2.256,-101.552,eccentric,4,5.0,27256.0,29768.0,87889.0,74876.0,26069.0,38608.0,36438.0,42445.0,17765.0,12592.0
2026-05-06 16:23:13.636541,782910,1609506857056601,4456968631,-0.17568,0.618784,-0.997472,5.1975,-155.33,-81.5325,-15.168001,2.256,-101.552,eccentric,4,5.0,27256.0,29768.0,87889.0,74876.0,26069.0,38608.0,36438.0,42445.0,17765.0,12592.0
2026-05-06 16:23:13.656357,782911,1609506857071112,4456983580,-0.345504,0.599264,-0.759328,16.4325,-156.33626,-82.24125,-12.776001,0.256,-102.648,eccentric,4,5.0,27256.0,29768.0,87889.0,74876.0,26069.0,38608.0,36438.0,42445.0,17765.0,12592.0
2026-05-06 16:23:13.658720,782912,1609506857080477,4456992362,-0.345504,0.599264,-0.603168,12.76625,-161.595,-83.39625,-12.776001,0.256,-102.648,eccentric,4,5.0,27256.0,29768.0,87889.0,74876.0,26069.0,38608.0,36438.0,42445.0,17765.0,12592.0
2026-05-06 16:23:13.686421,782913,1609506857094956,4457007337,-0.476288,0.450912,-0.603168,2.1,-170.52,-85.44375,-9.968,1.232,-101.184006,eccentric,4,5.0,27256.0,29768.0,87889.0,74876.0,26069.0,38608.0,36438.0,42445.0,17765.0,12592.0
2026-05-06 16:23:13.717731,782924,1609506857104071,4457016109,-0.59536,0.406016,-0.870592,-9.52,-178.99,-91.46375,-7.816001,0.448,-103.976006,eccentric,4,5.0,27376.0,29981.0,87615.0,75316.0,26317.0,38856.0,36310.0,42630.0,17910.0,12693.0
2026-05-06 16:23:13.720230,782925,1609506857118690,4457031082,-0.59536,0.406016,-0.870592,-12.32,-181.545,-93.8175,-7.816001,0.448,-103.976006,eccentric,4,5.0,27376.0,29981.0,87615.0,75316.0,26317.0,38856.0,36310.0,42630.0,17910.0,12693.0
2026-05-06 16:23:13.722754,782926,1609506857127927,4457039799,-0.651968,0.488,-0.843264,-0.04375,-178.17625,-91.665,-5.216,-0.792,-103.90401,eccentric,4,5.0,27376.0,29981.0,87615.0,75316.0,26317.0,38856.0,36310.0,42630.0,17910.0,12693.0
2026-05-06 16:23:13.725276,782927,1609506857136913,4457048683,-0.651968,0.488,-0.843264,9.6425,-174.90375,-89.69625,-5.216,-0.792,-103.90401,eccentric,4,5.0,27376.0,29981.0,87615.0,75316.0,26317.0,38856.0,36310.0,42630.0,17910.0,12693.0
2026-05-06 16:23:13.727737,782928,1609506857151525,4457063702,-0.798368,0.501664,-0.769088,15.408751,-171.96375,-86.65125,-2.392,-0.992,-104.232,eccentric,4,5.0,27376.0,29981.0,87615.0,75316.0,26317.0,38856.0,36310.0,42630.0,17910.0,12693.0
2026-05-06 16:23:13.736440,782929,1609506857160606,4457072442,-0.798368,0.501664,-0.769088,14.4725,-169.995,-85.74125,-2.392,-0.992,-104.232,eccentric,4,5.0,27376.0,29981.0,87615.0,75316.0,26317.0,38856.0,36310.0,42630.0,17910.0,12693.0
2026-05-06 16:23:13.796444,782930,1609506857175140,4457087372,-0.835456,0.476288,-0.862784,5.01375,-168.25375,-83.746254,0.952,0.456,-104.76,eccentric,4,5.0,27376.0,29981.0,87615.0,75316.0,26317.0,38856.0,36310.0,42630.0,17910.0,12693.0
2026-05-06 16:23:13.819003,782931,1609506857184033,4457096059,-0.7808,0.44896,-0.782752,0.65625,-165.38374,-82.871254,3.368,0.848,-105.856,eccentric,4,5.0,27376.0,29981.0,87615.0,75316.0,26317.0,38856.0,36310.0,42630.0,17910.0,12693.0
2026-05-06 16:23:13.821523,782932,1609506857192970,4457104823,-0.7808,0.44896,-0.782752,2.1,-162.5575,-83.51875,3.368,0.848,-105.856,eccentric,4,5.0,27376.0,29981.0,87615.0,75316.0,26317.0,38856.0,36310.0,42630.0,17910.0,12693.0
2026-05-06 16:23:13.848575,782943,1609506857207728,4457119842,-0.864736,0.495808,-0.763232,5.38125,-160.44,-83.0375,5.64,0.784,-105.824005,eccentric,4,5.0,27303.0,29981.0,88694.0,75025.0,26162.0,38740.0,36814.0,42440.0,17839.0,12652.0
2026-05-06 16:23:13.851074,782944,1609506857216766,4457128797,-0.864736,0.495808,-0.763232,9.695,-158.3225,-81.71625,5.64,0.784,-105.824005,eccentric,4,5.0,27303.0,29981.0,88694.0,75025.0,26162.0,38740.0,36814.0,42440.0,17839.0,12652.0
2026-05-06 16:23:13.860021,782945,1609506857231259,4457143806,-0.905728,0.50752,-0.737856,15.28625,-156.16125,-80.99,8.792001,1.24,-105.992004,eccentric,4,5.0,27303.0,29981.0,88694.0,75025.0,26162.0,38740.0,36814.0,42440.0,17839.0,12652.0
2026-05-06 16:23:13.862485,782946,1609506857240176,4457152521,-0.905728,0.50752,-0.737856,10.66625,-155.155,-80.15875,8.792001,1.24,-105.992004,eccentric,4,5.0,27303.0,29981.0,88694.0,75025.0,26162.0,38740.0,36814.0,42440.0,17839.0,12652.0
2026-05-06 16:23:13.865209,782947,1609506857249204,4457161289,-0.874496,0.474336,-0.753472,7.79625,-154.4725,-76.72,11.288,1.456,-105.44,eccentric,4,5.0,27303.0,29981.0,88694.0,75025.0,26162.0,38740.0,36814.0,42440.0,17839.0,12652.0
2026-05-06 16:23:13.867739,782948,1609506857263799,4457176385,-0.86864,0.489952,-0.79056,7.035,-153.16875,-76.29125,13.784,1.664,-106.712006,eccentric,4,5.0,27303.0,29981.0,88694.0,75025.0,26162.0,38740.0,36814.0,42440.0,17839.0,12652.0
2026-05-06 16:23:13.870247,782949,1609506857272884,4457185127,-0.86864,0.489952,-0.79056,8.015,-151.795,-76.1775,13.784,1.664,-106.712006,eccentric,4,5.0,27303.0,29981.0,88694.0,75025.0,26162.0,38740.0,36814.0,42440.0,17839.0,12652.0
2026-05-06 16:23:13.872738,782950,1609506857287433,4457200095,-0.915488,0.519232,-0.74176,10.08875,-152.83626,-75.18875,16.592001,2.512,-104.232,eccentric,4,5.0,27303.0,29981.0,88694.0,75025.0,26162.0,38740.0,36814.0,42440.0,17839.0,12652.0
2026-05-06 16:23:13.875253,782951,1609506857296383,4457208899,-0.915488,0.519232,-0.74176,15.77625,-152.74875,-73.465004,16.592001,2.512,-104.232,eccentric,4,5.0,27303.0,29981.0,88694.0,75025.0,26162.0,38740.0,36814.0,42440.0,17839.0,12652.0
2026-05-06 16:23:13.908923,782962,1609506857310975,4457222309,-0.964288,0.445056,-0.718336,18.9875,-151.795,-71.68875,18.808,1.208,-102.784004,eccentric,4,5.0,26940.0,29805.0,91653.0,74425.0,25794.0,38427.0,38089.0,42123.0,17601.0,12539.0
2026-05-06 16:23:13.911501,782963,1609506857319921,4457231095,-0.964288,0.445056,-0.718336,13.04625,-152.5475,-69.97375,18.808,1.208,-102.784004,eccentric,4,5.0,26940.0,29805.0,91653.0,74425.0,25794.0,38427.0,38089.0,42123.0,17601.0,12539.0
2026-05-06 16:23:13.914008,782964,1609506857329505,4457241925,-1.048224,0.489952,-0.694912,8.37375,-155.60126,-68.8625,21.768002,1.464,-102.232,eccentric,4,5.0,26940.0,29805.0,91653.0,74425.0,25794.0,38427.0,38089.0,42123.0,17601.0,12539.0
2026-05-06 16:23:13.920257,782965,1609506857344017,4457254788,-1.077504,0.534848,-0.610976,5.27625,-158.445,-69.5625,23.704,2.536,-101.36001,eccentric,4,5.0,26940.0,29805.0,91653.0,74425.0,25794.0,38427.0,38089.0,42123.0,17601.0,12539.0
2026-05-06 16:23:13.929311,782966,1609506857353300,4457265659,-1.077504,0.534848,-0.610976,0.09625,-159.31125,-68.6875,23.704,2.536,-101.36001,eccentric,4,5.0,26940.0,29805.0,91653.0,74425.0,25794.0,38427.0,38089.0,42123.0,17601.0,12539.0
2026-05-06 16:23:13.942389,782967,1609506857362337,4457274361,-1.077504,0.534848,-0.610976,-5.7925,-158.0775,-66.535,23.704,2.536,-101.36001,eccentric,4,5.0,26940.0,29805.0,91653.0,74425.0,25794.0,38427.0,38089.0,42123.0,17601.0,12539.0
2026-05-06 16:23:13.956155,782968,1609506857376891,4457289356,-1.095072,0.480192,-0.552416,-10.08875,-156.49374,-65.79125,26.328001,4.72,-100.8,eccentric,4,5.0,26940.0,29805.0,91653.0,74425.0,25794.0,38427.0,38089.0,42123.0,17601.0,12539.0
2026-05-06 16:23:13.966418,782969,1609506857385796,4457298068,-1.10288,0.386496,-0.601216,-11.698751,-153.90375,-65.555,28.480001,3.576,-99.768005,eccentric,4,5.0,26940.0,29805.0,91653.0,74425.0,25794.0,38427.0,38089.0,42123.0,17601.0,12539.0
2026-05-06 16:23:13.976473,782970,1609506857400319,4457311078,-1.10288,0.386496,-0.601216,-15.015,-149.98375,-63.58625,28.480001,3.576,-99.768005,eccentric,4,5.0,26940.0,29805.0,91653.0,74425.0,25794.0,38427.0,38089.0,42123.0,17601.0,12539.0
2026-05-06 16:23:14.011525,782981,1609506857409650,4457322008,-1.116544,0.386496,-0.5368,-17.21125,-144.76,-60.2525,30.856,4.92,-99.07201,eccentric,4,5.0,26856.0,30179.0,94401.0,73926.0,25683.0,38676.0,39328.0,41803.0,17525.0,12663.0
2026-05-06 16:23:14.014065,782982,1609506857424215,4457334978,-1.124352,0.402112,-0.505568,-17.5175,-139.16,-58.30125,32.52,5.824,-99.024,eccentric,4,5.0,26856.0,30179.0,94401.0,73926.0,25683.0,38676.0,39328.0,41803.0,17525.0,12663.0
2026-05-06 16:23:14.016504,782983,1609506857433446,4457345799,-1.124352,0.402112,-0.505568,-17.52625,-133.07875,-55.25625,32.52,5.824,-99.024,eccentric,4,5.0,26856.0,30179.0,94401.0,73926.0,25683.0,38676.0,39328.0,41803.0,17525.0,12663.0
2026-05-06 16:23:14.022396,782984,1609506857442455,4457354528,-1.124352,0.402112,-0.505568,-17.77125,-126.4375,-52.605,32.52,5.824,-99.024,eccentric,4,5.0,26856.0,30179.0,94401.0,73926.0,25683.0,38676.0,39328.0,41803.0,17525.0,12663.0
2026-05-06 16:23:14.055071,782985,1609506857456989,4457369480,-1.077504,0.329888,-0.49776,-15.4525,-119.93625,-49.69125,33.792,4.504,-96.712006,eccentric,4,5.0,26856.0,30179.0,94401.0,73926.0,25683.0,38676.0,39328.0,41803.0,17525.0,12663.0
2026-05-06 16:23:14.057666,782986,1609506857465882,4457378191,-1.095072,0.372832,-0.404064,-12.7575,-112.23625,-46.19125,35.608,6.648,-96.664,eccentric,4,5.0,26856.0,30179.0,94401.0,73926.0,25683.0,38676.0,39328.0,41803.0,17525.0,12663.0
2026-05-06 16:23:14.062711,782987,1609506857480562,4457393223,-1.095072,0.372832,-0.404064,-14.18375,-105.07,-42.81375,35.608,6.648,-96.664,eccentric,4,5.0,26856.0,30179.0,94401.0,73926.0,25683.0,38676.0,39328.0,41803.0,17525.0,12663.0
2026-05-06 16:23:14.070250,782988,1609506857489518,4457401930,-1.06384,0.365024,-0.482144,-20.9825,-99.6275,-40.39,36.624,6.688,-95.76,eccentric,4,5.0,26856.0,30179.0,94401.0,73926.0,25683.0,38676.0,39328.0,41803.0,17525.0,12663.0
2026-05-06 16:23:14.073974,782989,1609506857498500,4457410714,-1.06384,0.365024,-0.482144,-26.55625,-95.2175,-38.15875,36.624,6.688,-95.76,eccentric,4,5.0,26856.0,30179.0,94401.0,73926.0,25683.0,38676.0,39328.0,41803.0,17525.0,12663.0
2026-05-06 16:23:14.106503,783000,1609506857513161,4457425955,-1.061888,0.281088,-0.474336,-24.00125,-90.0025,-35.69125,37.72,6.520001,-94.336006,eccentric,4,5.0,26642.0,30081.0,94823.0,73592.0,25489.0,38583.0,39492.0,41629.0,17412.0,12616.0
2026-05-06 16:23:14.108901,783001,1609506857522172,4457434722,-1.061888,0.281088,-0.474336,-16.87,-83.5975,-32.1125,37.72,6.520001,-94.336006,eccentric,4,5.0,26642.0,30081.0,94823.0,73592.0,25489.0,38583.0,39492.0,41629.0,17412.0,12616.0
2026-05-06 16:23:14.111481,783002,1609506857536677,4457447589,-1.081408,0.347456,-0.437248,-12.18,-76.67625,-28.411251,38.472,5.168,-91.912,eccentric,4,5.0,26642.0,30081.0,94823.0,73592.0,25489.0,38583.0,39492.0,41629.0,17412.0,12616.0
2026-05-06 16:23:14.143850,783003,1609506857546079,4457458377,-1.036512,0.37088,-0.413824,-12.7225,-70.16625,-25.1825,39.136,6.904,-93.496,eccentric,4,5.0,26642.0,30081.0,94823.0,73592.0,25489.0,38583.0,39492.0,41629.0,17412.0,12616.0
2026-05-06 16:23:14.168896,783004,1609506857555096,4457467109,-1.036512,0.37088,-0.413824,-19.34625,-65.30125,-22.72375,39.136,6.904,-93.496,eccentric,4,5.0,26642.0,30081.0,94823.0,73592.0,25489.0,38583.0,39492.0,41629.0,17412.0,12616.0
2026-05-06 16:23:14.193984,783005,1609506857569736,4457482019,-1.01504,0.257664,-0.447008,-27.34375,-60.96125,-20.7025,39.736,6.872,-93.024,eccentric,4,5.0,26642.0,30081.0,94823.0,73592.0,25489.0,38583.0,39492.0,41629.0,17412.0,12616.0
2026-05-06 16:23:14.209685,783006,1609506857578675,4457490817,-1.01504,0.257664,-0.447008,-30.79125,-56.1925,-19.22375,39.736,6.872,-93.024,eccentric,4,5.0,26642.0,30081.0,94823.0,73592.0,25489.0,38583.0,39492.0,41629.0,17412.0,12616.0
2026-05-06 16:23:14.210102,783007,1609506857593154,4457505720,-1.038464,0.284992,-0.3904,-28.06125,-49.16625,-15.7675,40.320004,6.496,-92.784004,eccentric,4,5.0,26642.0,30081.0,94823.0,73592.0,25489.0,38583.0,39492.0,41629.0,17412.0,12616.0
2026-05-06 16:23:14.240074,783018,1609506857602137,4457514409,-1.038464,0.284992,-0.3904,-24.61375,-41.51,-12.20625,40.320004,6.496,-92.784004,eccentric,4,5.0,26170.0,29552.0,93715.0,73236.0,25103.0,38055.0,38955.0,41459.0,17158.0,12376.0
2026-05-06 16:23:14.242558,783019,1609506857611577,4457523124,-1.048224,0.31232,-0.40992,-26.0925,-36.365,-9.52,40.424004,5.736,-92.200005,eccentric,4,5.0,26170.0,29552.0,93715.0,73236.0,25103.0,38055.0,38955.0,41459.0,17158.0,12376.0
2026-05-06 16:23:14.245071,783020,1609506857626069,4457538054,-1.048224,0.314272,-0.443104,-29.6275,-31.52625,-7.175,40.616,4.8,-92.41601,eccentric,4,5.0,26170.0,29552.0,93715.0,73236.0,25103.0,38055.0,38955.0,41459.0,17158.0,12376.0
2026-05-06 16:23:14.247586,783021,1609506857635003,4457546757,-1.048224,0.314272,-0.443104,-28.315,-26.1975,-5.3375,40.616,4.8,-92.41601,eccentric,4,5.0,26170.0,29552.0,93715.0,73236.0,25103.0,38055.0,38955.0,41459.0,17158.0,12376.0
2026-05-06 16:23:14.250079,783022,1609506857651567,4457563897,-1.052128,0.296704,-0.411872,-26.6,-20.65875,-2.96625,41.016003,4.288,-90.816,eccentric,4,5.0,26170.0,29552.0,93715.0,73236.0,25103.0,38055.0,38955.0,41459.0,17158.0,12376.0
2026-05-06 16:23:14.252422,783023,1609506857661040,4457572905,-1.052128,0.296704,-0.411872,-27.3525,-16.1525,-0.5425,41.016003,4.288,-90.816,eccentric,4,5.0,26170.0,29552.0,93715.0,73236.0,25103.0,38055.0,38955.0,41459.0,17158.0,12376.0
2026-05-06 16:23:14.255259,783024,1609506857670060,4457581835,-1.067744,0.249856,-0.343552,-30.05625,-12.32,0.93625,41.576,4.256,-92.64001,eccentric,4,5.0,26170.0,29552.0,93715.0,73236.0,25103.0,38055.0,38955.0,41459.0,17158.0,12376.0
2026-05-06 16:23:14.261313,783025,1609506857684634,4457596978,-1.067744,0.249856,-0.343552,-29.40875,-7.7,2.94875,41.576,4.256,-92.64001,eccentric,4,5.0,26170.0,29552.0,93715.0,73236.0,25103.0,38055.0,38955.0,41459.0,17158.0,12376.0
