pc_time,serial_num,sensor_ts,host_ts,ax,ay,az,gx,gy,gz,mx,my,mz,phase,rpe,weight_kg,ppg_a,ppg_b,ppg_c,ppg_d,ppg_e,ppg_f,ppg_g,ppg_h,ppg_i,ppg_j
2026-05-06 16:23:17.372323,783609,1609506860775623,4460688361,-0.983808,0.343552,-0.402112,-24.92,5.48625,11.7775,39.112003,5.104,-95.024,concentric,4,5.0,25711.0,29535.0,93987.0,72720.0,25092.0,38375.0,39335.0,41277.0,17219.0,12511.0
2026-05-06 16:23:17.374957,783610,1609506860784543,4460697112,-0.983808,0.343552,-0.402112,-26.25,10.675,14.2975,39.112003,5.104,-95.024,concentric,4,5.0,25711.0,29535.0,93987.0,72720.0,25092.0,38375.0,39335.0,41277.0,17219.0,12511.0
2026-05-06 16:23:17.377425,783611,1609506860793537,4460705845,-1.001376,0.290848,-0.37088,-19.915,19.29375,20.41375,38.672,4.176,-95.05601,concentric,4,5.0,25711.0,29535.0,93987.0,72720.0,25092.0,38375.0,39335.0,41277.0,17219.0,12511.0
2026-05-06 16:23:17.386435,783612,1609506860808057,4460720793,-1.001376,0.290848,-0.37088,-7.81375,29.2075,28.28,38.672,4.176,-95.05601,concentric,4,5.0,25711.0,29535.0,93987.0,72720.0,25092.0,38375.0,39335.0,41277.0,17219.0,12511.0
2026-05-06 16:23:17.394911,783613,1609506860816984,4460729485,-1.0736,0.343552,-0.394304,-4.96125,37.1,33.0575,38.168003,1.392,-93.616005,concentric,4,5.0,25711.0,29535.0,93987.0,72720.0,25092.0,38375.0,39335.0,41277.0,17219.0,12511.0
2026-05-06 16:23:17.424899,783625,1609506860831819,4460744585,-1.013088,0.443104,-0.42944,-8.1025,41.46625,34.01125,37.632,0.248,-93.80801,concentric,4,5.0,24980.0,28986.0,89118.0,72048.0,24439.0,37842.0,37254.0,40942.0,16805.0,12242.0
2026-05-06 16:23:17.451301,783626,1609506860840794,4460753320,-1.013088,0.443104,-0.42944,-13.79875,43.8025,31.38625,37.632,0.248,-93.80801,concentric,4,5.0,24980.0,28986.0,89118.0,72048.0,24439.0,37842.0,37254.0,40942.0,16805.0,12242.0
2026-05-06 16:23:17.476325,783627,1609506860849825,4460762058,-0.993568,0.394304,-0.484096,-21.5075,45.71875,31.36,37.368,-0.928,-93.75201,concentric,4,5.0,24980.0,28986.0,89118.0,72048.0,24439.0,37842.0,37254.0,40942.0,16805.0,12242.0
2026-05-06 16:23:17.496343,783628,1609506860864395,4460776986,-0.993568,0.394304,-0.484096,-22.37375,48.107502,34.6675,37.368,-0.928,-93.75201,concentric,4,5.0,24980.0,28986.0,89118.0,72048.0,24439.0,37842.0,37254.0,40942.0,16805.0,12242.0
2026-05-06 16:23:17.498608,783629,1609506860873351,4460785714,-1.03456,0.2928,-0.406016,-17.85,50.96,37.07375,36.544003,2.008,-97.11201,concentric,4,5.0,24980.0,28986.0,89118.0,72048.0,24439.0,37842.0,37254.0,40942.0,16805.0,12242.0
2026-05-06 16:23:17.526168,783630,1609506860887834,4460798594,-1.03456,0.2928,-0.406016,-12.635,54.232502,39.165,36.544003,2.008,-97.11201,concentric,4,5.0,24980.0,28986.0,89118.0,72048.0,24439.0,37842.0,37254.0,40942.0,16805.0,12242.0
2026-05-06 16:23:17.528856,783631,1609506860897022,4460809353,-1.042368,0.320128,-0.365024,-8.93375,59.00125,40.74,35.632,1.408,-97.712006,concentric,4,5.0,24980.0,28986.0,89118.0,72048.0,24439.0,37842.0,37254.0,40942.0,16805.0,12242.0
2026-05-06 16:23:17.531384,783632,1609506860911548,4460822337,-1.057984,0.40016,-0.396256,-5.5125,64.015,42.69125,34.84,0.816,-98.392006,concentric,4,5.0,24980.0,28986.0,89118.0,72048.0,24439.0,37842.0,37254.0,40942.0,16805.0,12242.0
2026-05-06 16:23:17.562729,783643,1609506860920768,4460833545,-1.057984,0.40016,-0.396256,-6.545,69.72,45.12375,34.84,0.816,-98.392006,concentric,4,5.0,25037.0,29284.0,87806.0,71675.0,24491.0,38173.0,36708.0,40731.0,16836.0,12404.0
2026-05-06 16:23:17.565302,783644,1609506860929831,4460842266,-1.057984,0.40016,-0.394304,-8.25125,74.90875,47.43375,34.84,0.816,-98.392006,concentric,4,5.0,25037.0,29284.0,87806.0,71675.0,24491.0,38173.0,36708.0,40731.0,16836.0,12404.0
2026-05-06 16:23:17.567748,783645,1609506860944466,4460857162,-1.032608,0.40016,-0.394304,-9.21375,79.58125,48.5975,33.4,-1.76,-98.408005,concentric,4,5.0,25037.0,29284.0,87806.0,71675.0,24491.0,38173.0,36708.0,40731.0,16836.0,12404.0
2026-05-06 16:23:17.570227,783646,1609506860953411,4460866004,-1.030656,0.37088,-0.452864,-10.07125,83.86875,50.732502,32.216003,-0.968,-100.336006,concentric,4,5.0,25037.0,29284.0,87806.0,71675.0,24491.0,38173.0,36708.0,40731.0,16836.0,12404.0
2026-05-06 16:23:17.572765,783647,1609506860967960,4460878942,-1.030656,0.37088,-0.452864,-6.93875,88.558754,52.9025,32.216003,-0.968,-100.336006,concentric,4,5.0,25037.0,29284.0,87806.0,71675.0,24491.0,38173.0,36708.0,40731.0,16836.0,12404.0
2026-05-06 16:23:17.575264,783648,1609506860977436,4460889790,-1.00528,0.372832,-0.501664,-1.49625,93.73,54.46,30.368002,-3.56,-97.54401,concentric,4,5.0,25037.0,29284.0,87806.0,71675.0,24491.0,38173.0,36708.0,40731.0,16836.0,12404.0
2026-05-06 16:23:17.577750,783649,1609506860986486,4460898498,-1.00528,0.372832,-0.501664,4.45375,100.30125,57.33,30.368002,-3.56,-97.54401,concentric,4,5.0,25037.0,29284.0,87806.0,71675.0,24491.0,38173.0,36708.0,40731.0,16836.0,12404.0
2026-05-06 16:23:17.580193,783650,1609506861001003,4460913438,-1.050176,0.38064,-0.452864,13.0375,107.371254,62.65875,28.960001,-2.544,-101.744,concentric,4,5.0,25037.0,29284.0,87806.0,71675.0,24491.0,38173.0,36708.0,40731.0,16836.0,12404.0
2026-05-06 16:23:17.586501,783651,1609506861009908,4460922188,-1.050176,0.38064,-0.452864,12.38125,112.805,65.68625,28.960001,-2.544,-101.744,concentric,4,5.0,25037.0,29284.0,87806.0,71675.0,24491.0,38173.0,36708.0,40731.0,16836.0,12404.0
2026-05-06 16:23:17.625030,783662,1609506861024678,4460937216,-1.046272,0.480192,-0.482144,7.76125,117.32875,67.94375,26.888,-2.168,-102.90401,concentric,4,5.0,25184.0,29862.0,87474.0,71022.0,24583.0,38734.0,36627.0,40345.0,16905.0,12647.0
2026-05-06 16:23:17.627607,783663,1609506861033800,4460945946,-1.007232,0.532896,-0.552416,5.71375,120.91625,68.80125,24.968,-2.824,-103.79201,concentric,4,5.0,25184.0,29862.0,87474.0,71022.0,24583.0,38734.0,36627.0,40345.0,16905.0,12647.0
2026-05-06 16:23:17.630091,783664,1609506861043047,4460954720,-1.007232,0.532896,-0.552416,6.1075,124.31125,69.55375,24.968,-2.824,-103.79201,concentric,4,5.0,25184.0,29862.0,87474.0,71022.0,24583.0,38734.0,36627.0,40345.0,16905.0,12647.0
2026-05-06 16:23:17.633897,783665,1609506861057540,4460969702,-0.972096,0.466528,-0.57584,11.8475,127.53125,72.77375,22.568,-2.704,-103.240005,concentric,4,5.0,25184.0,29862.0,87474.0,71022.0,24583.0,38734.0,36627.0,40345.0,16905.0,12647.0
2026-05-06 16:23:17.642576,783666,1609506861066468,4460978408,-0.972096,0.466528,-0.57584,17.99875,129.94624,76.86875,22.568,-2.704,-103.240005,concentric,4,5.0,25184.0,29862.0,87474.0,71022.0,24583.0,38734.0,36627.0,40345.0,16905.0,12647.0
2026-05-06 16:23:17.665255,783667,1609506861080961,4460993306,-0.942816,0.489952,-0.599264,19.897501,131.36375,79.28375,19.84,-5.184,-103.688,concentric,4,5.0,25184.0,29862.0,87474.0,71022.0,24583.0,38734.0,36627.0,40345.0,16905.0,12647.0
2026-05-06 16:23:17.667751,783668,1609506861089961,4461002042,-0.942816,0.489952,-0.599264,18.9525,133.9625,79.7825,19.84,-5.184,-103.688,concentric,4,5.0,25184.0,29862.0,87474.0,71022.0,24583.0,38734.0,36627.0,40345.0,16905.0,12647.0
2026-05-06 16:23:17.681630,783669,1609506861098904,4461010753,-0.913536,0.593408,-0.659776,21.56875,137.47125,80.4125,17.656,-2.976,-105.144005,concentric,4,5.0,25184.0,29862.0,87474.0,71022.0,24583.0,38734.0,36627.0,40345.0,16905.0,12647.0
2026-05-06 16:23:17.693045,783670,1609506861113446,4461025660,-0.876448,0.609024,-0.71248,21.77,139.41376,80.77125,15.080001,-3.24,-106.20801,concentric,4,5.0,25184.0,29862.0,87474.0,71022.0,24583.0,38734.0,36627.0,40345.0,16905.0,12647.0
2026-05-06 16:23:17.723877,783681,1609506861122417,4461034745,-0.876448,0.609024,-0.71248,18.92625,141.1375,80.78,15.080001,-3.24,-106.20801,concentric,4,5.0,25260.0,29749.0,87145.0,71130.0,24686.0,38637.0,36490.0,40388.0,16970.0,12612.0
2026-05-06 16:23:17.730001,783682,1609506861136933,4461049692,-0.847168,0.5856,-0.665632,14.11375,142.40625,81.9525,12.592001,-3.096,-106.54401,concentric,4,5.0,25260.0,29749.0,87145.0,71130.0,24686.0,38637.0,36490.0,40388.0,16970.0,12612.0
2026-05-06 16:23:17.732595,783683,1609506861145864,4461058481,-0.847168,0.5856,-0.665632,16.07375,143.465,82.53,12.592001,-3.096,-106.54401,concentric,4,5.0,25260.0,29749.0,87145.0,71130.0,24686.0,38637.0,36490.0,40388.0,16970.0,12612.0
2026-05-06 16:23:17.734952,783684,1609506861160389,4461071465,-0.815936,0.577792,-0.6832,14.7175,143.91125,81.52375,9.752001,-3.632,-106.54401,concentric,4,5.0,25260.0,29749.0,87145.0,71130.0,24686.0,38637.0,36490.0,40388.0,16970.0,12612.0
2026-05-06 16:23:17.748897,783685,1609506861169736,4461082260,-0.815936,0.577792,-0.6832,15.44375,145.8275,83.34375,9.752001,-3.632,-106.54401,concentric,4,5.0,25260.0,29749.0,87145.0,71130.0,24686.0,38637.0,36490.0,40388.0,16970.0,12612.0
2026-05-06 16:23:17.757745,783686,1609506861178687,4461090991,-0.759328,0.628544,-0.804224,17.12375,148.68875,83.755,7.152,-3.064,-107.4,concentric,4,5.0,25260.0,29749.0,87145.0,71130.0,24686.0,38637.0,36490.0,40388.0,16970.0,12612.0
2026-05-06 16:23:17.771485,783687,1609506861193399,4461105923,-0.730048,0.651968,-0.776896,15.855001,150.92876,82.0575,4.584,-2.904,-104.784004,concentric,4,5.0,25260.0,29749.0,87145.0,71130.0,24686.0,38637.0,36490.0,40388.0,16970.0,12612.0
2026-05-06 16:23:17.780155,783688,1609506861202329,4461114645,-0.730048,0.651968,-0.776896,16.33625,151.41875,80.29,4.584,-2.904,-104.784004,concentric,4,5.0,25260.0,29749.0,87145.0,71130.0,24686.0,38637.0,36490.0,40388.0,16970.0,12612.0
2026-05-06 16:23:17.820150,783689,1609506861216828,4461129552,-0.720288,0.638304,-0.716384,14.5075,151.865,77.5775,2.072,-4.088,-105.704,concentric,4,5.0,25260.0,29749.0,87145.0,71130.0,24686.0,38637.0,36490.0,40388.0,16970.0,12612.0
2026-05-06 16:23:17.880356,783700,1609506861225804,4461138316,-0.720288,0.638304,-0.716384,14.9625,150.815,77.58625,2.072,-4.088,-105.704,concentric,4,5.0,25287.0,29159.0,87048.0,71809.0,24725.0,38048.0,36378.0,40796.0,17006.0,12372.0
2026-05-06 16:23:17.882331,783701,1609506861235021,4461147101,-0.657824,0.568032,-0.80032,16.1875,151.43625,76.16875,-0.696,-2.344,-106.22401,concentric,4,5.0,25287.0,29159.0,87048.0,71809.0,24725.0,38048.0,36378.0,40796.0,17006.0,12372.0
2026-05-06 16:23:17.887574,783702,1609506861249542,4461162075,-0.657824,0.568032,-0.80032,14.63875,152.9325,76.60625,-0.696,-2.344,-106.22401,concentric,4,5.0,25287.0,29159.0,87048.0,71809.0,24725.0,38048.0,36378.0,40796.0,17006.0,12372.0
2026-05-06 16:23:17.890066,783703,1609506861258481,4461170759,-0.562176,0.62464,-0.817888,9.695,154.41125,77.455,-3.432,-3.304,-105.840004,concentric,4,5.0,25287.0,29159.0,87048.0,71809.0,24725.0,38048.0,36378.0,40796.0,17006.0,12372.0
2026-05-06 16:23:17.892385,783704,1609506861272987,4461185648,-0.54656,0.628544,-0.804224,7.5075,153.01125,77.41125,-5.672,-1.208,-107.504005,concentric,4,5.0,25287.0,29159.0,87048.0,71809.0,24725.0,38048.0,36378.0,40796.0,17006.0,12372.0
2026-05-06 16:23:17.895075,783705,1609506861281933,4461194389,-0.54656,0.628544,-0.804224,5.53875,149.65125,74.935,-5.672,-1.208,-107.504005,concentric,4,5.0,25287.0,29159.0,87048.0,71809.0,24725.0,38048.0,36378.0,40796.0,17006.0,12372.0
2026-05-06 16:23:17.897580,783706,1609506861296492,4461207394,-0.503616,0.5368,-0.704672,7.385,144.4275,73.36875,-8.032001,-0.88,-104.896,concentric,4,5.0,25287.0,29159.0,87048.0,71809.0,24725.0,38048.0,36378.0,40796.0,17006.0,12372.0
2026-05-06 16:23:17.900075,783707,1609506861305844,4461218244,-0.503616,0.5368,-0.704672,13.877501,139.90375,71.16375,-8.032001,-0.88,-104.896,concentric,4,5.0,25287.0,29159.0,87048.0,71809.0,24725.0,38048.0,36378.0,40796.0,17006.0,12372.0
2026-05-06 16:23:17.902602,783708,1609506861314805,4461226995,-0.394304,0.610976,-0.866688,8.37375,136.50874,69.44,-10.016001,-0.296,-103.984,concentric,4,5.0,25287.0,29159.0,87048.0,71809.0,24725.0,38048.0,36378.0,40796.0,17006.0,12372.0
2026-05-06 16:23:17.929997,783719,1609506861329558,4461242219,-0.394304,0.610976,-0.866688,5.22375,138.34625,71.8725,-10.016001,-0.296,-103.984,concentric,4,5.0,25246.0,27942.0,85300.0,73240.0,24692.0,36959.0,35523.0,41614.0,16973.0,11827.0
2026-05-06 16:23:17.932437,783720,1609506861338607,4461251072,-0.26352,0.628544,-0.815936,6.3875,140.44624,72.3625,-12.176001,-0.608,-103.136,concentric,4,5.0,25246.0,27942.0,85300.0,73240.0,24692.0,36959.0,35523.0,41614.0,16973.0,11827.0
2026-05-06 16:23:17.935011,783721,1609506861353133,4461263939,-0.279136,0.603168,-0.83936,2.52,139.20375,70.14875,-12.176001,-0.608,-102.184006,concentric,4,5.0,25246.0,27942.0,85300.0,73240.0,24692.0,36959.0,35523.0,41614.0,16973.0,11827.0
2026-05-06 16:23:17.941490,783722,1609506861362528,4461274780,-0.271328,0.603168,-0.83936,-1.12,135.835,67.9175,-14.136001,0.224,-102.184006,concentric,4,5.0,25246.0,27942.0,85300.0,73240.0,24692.0,36959.0,35523.0,41614.0,16973.0,11827.0
2026-05-06 16:23:17.947752,783723,1609506861371468,4461283511,-0.271328,0.603168,-0.83936,2.485,132.685,67.865,-14.136001,0.224,-102.184006,concentric,4,5.0,25246.0,27942.0,85300.0,73240.0,24692.0,36959.0,35523.0,41614.0,16973.0,11827.0
2026-05-06 16:23:17.963904,783724,1609506861386002,4461298414,-0.183488,0.571936,-0.853024,7.55125,130.13,67.57625,-16.088001,-0.448,-102.984,concentric,4,5.0,25246.0,27942.0,85300.0,73240.0,24692.0,36959.0,35523.0,41614.0,16973.0,11827.0
2026-05-06 16:23:17.972974,783725,1609506861394940,4461307165,-0.1464,0.626592,-0.89792,7.77875,128.8175,67.655,-17.656,1.816,-100.912,concentric,4,5.0,25246.0,27942.0,85300.0,73240.0,24692.0,36959.0,35523.0,41614.0,16973.0,11827.0
2026-05-06 16:23:17.986424,783726,1609506861409435,4461322105,-0.1464,0.626592,-0.89792,5.355,129.675,68.57375,-17.656,1.816,-100.912,concentric,4,5.0,25246.0,27942.0,85300.0,73240.0,24692.0,36959.0,35523.0,41614.0,16973.0,11827.0
2026-05-06 16:23:18.000097,783727,1609506861418408,4461330833,-0.177632,0.5368,-0.716384,10.15875,127.40875,65.5025,-19.296001,1.952,-99.976006,concentric,4,5.0,25246.0,27942.0,85300.0,73240.0,24692.0,36959.0,35523.0,41614.0,16973.0,11827.0
2026-05-06 16:23:18.030231,783738,1609506861427850,4461339617,-0.177632,0.5368,-0.716384,6.22125,122.683754,60.138752,-19.296001,1.952,-99.976006,concentric,4,5.0,25101.0,27418.0,84438.0,73575.0,24587.0,36461.0,35004.0,41811.0,16879.0,11596.0
2026-05-06 16:23:18.032731,783739,1609506861442660,4461354724,-0.101504,0.603168,-0.833504,-7.63875,118.20375,62.41375,-20.568,0.552,-97.912,concentric,4,5.0,25101.0,27418.0,84438.0,73575.0,24587.0,36461.0,35004.0,41811.0,16879.0,11596.0
2026-05-06 16:23:18.035197,783740,1609506861451635,4461363481,-0.101504,0.603168,-0.833504,-9.45,116.488754,64.82875,-20.568,0.552,-97.912,concentric,4,5.0,25101.0,27418.0,84438.0,73575.0,24587.0,36461.0,35004.0,41811.0,16879.0,11596.0
2026-05-06 16:23:18.043792,783741,1609506861466226,4461378423,-0.013664,0.544608,-0.815936,-3.91125,115.246254,62.06375,-21.968,1.136,-96.064,concentric,4,5.0,25101.0,27418.0,84438.0,73575.0,24587.0,36461.0,35004.0,41811.0,16879.0,11596.0
2026-05-06 16:23:18.052779,783742,1609506861475237,4461387171,-0.033184,0.540704,-0.732,-5.775,113.1725,59.745,-23.176,3.592,-95.520004,concentric,4,5.0,25101.0,27418.0,84438.0,73575.0,24587.0,36461.0,35004.0,41811.0,16879.0,11596.0
2026-05-06 16:23:18.062378,783743,1609506861484285,4461395888,-0.033184,0.540704,-0.732,-3.57875,111.125,60.48875,-23.176,3.592,-95.520004,concentric,4,5.0,25101.0,27418.0,84438.0,73575.0,24587.0,36461.0,35004.0,41811.0,16879.0,11596.0
2026-05-06 16:23:18.078927,783744,1609506861498786,4461410938,0.017568,0.532896,-0.720288,2.1875,107.2575,57.916252,-24.232,4.392,-96.424,concentric,4,5.0,25101.0,27418.0,84438.0,73575.0,24587.0,36461.0,35004.0,41811.0,16879.0,11596.0
2026-05-06 16:23:18.082715,783745,1609506861507715,4461419661,0.017568,0.532896,-0.720288,-2.40625,103.565,57.88125,-24.232,4.392,-96.424,concentric,4,5.0,25101.0,27418.0,84438.0,73575.0,24587.0,36461.0,35004.0,41811.0,16879.0,11596.0
2026-05-06 16:23:18.116531,783746,1609506861522223,4461434671,0.122976,0.542656,-0.81008,-9.3975,99.82,58.58125,-25.232,2.248,-94.464005,concentric,4,5.0,25101.0,27418.0,84438.0,73575.0,24587.0,36461.0,35004.0,41811.0,16879.0,11596.0
2026-05-06 16:23:18.191375,783757,1609506861531326,4461443466,0.122976,0.542656,-0.81008,-12.39,95.996254,55.982502,-25.232,2.248,-94.464005,concentric,4,5.0,25319.0,27957.0,85092.0,73142.0,24854.0,37131.0,35301.0,41644.0,17001.0,11883.0
2026-05-06 16:23:18.216140,783758,1609506861540436,4461452249,0.160064,0.523136,-0.677344,-14.7175,94.5525,55.37,-25.784,5.128,-94.72,concentric,4,5.0,25319.0,27957.0,85092.0,73142.0,24854.0,37131.0,35301.0,41644.0,17001.0,11883.0
2026-05-06 16:23:18.241534,783759,1609506861555119,4461467287,0.1952,0.435296,-0.528992,-6.23,90.86,52.71875,-26.720001,4.192,-92.136,concentric,4,5.0,25319.0,27957.0,85092.0,73142.0,24854.0,37131.0,35301.0,41644.0,17001.0,11883.0
2026-05-06 16:23:18.247455,783760,1609506861564241,4461476003,0.1952,0.435296,-0.528992,-9.65125,84.04375,46.62,-26.720001,4.192,-92.136,concentric,4,5.0,25319.0,27957.0,85092.0,73142.0,24854.0,37131.0,35301.0,41644.0,17001.0,11883.0
2026-05-06 16:23:18.251600,783761,1609506861578792,4461491138,0.36112,0.486048,-0.733952,-13.97375,74.27875,47.075,-27.44,5.704001,-93.648,concentric,4,5.0,25319.0,27957.0,85092.0,73142.0,24854.0,37131.0,35301.0,41644.0,17001.0,11883.0
2026-05-06 16:23:18.252414,783762,1609506861587707,4461499844,0.36112,0.486048,-0.733952,-11.45375,68.08375,48.34375,-27.44,5.704001,-93.648,concentric,4,5.0,25319.0,27957.0,85092.0,73142.0,24854.0,37131.0,35301.0,41644.0,17001.0,11883.0
2026-05-06 16:23:18.254758,783763,1609506861602233,4461514806,0.363072,0.52704,-0.767136,-5.73125,67.2525,49.1925,-27.536001,6.176,-93.69601,concentric,4,5.0,25319.0,27957.0,85092.0,73142.0,24854.0,37131.0,35301.0,41644.0,17001.0,11883.0
2026-05-06 16:23:18.257563,783764,1609506861611162,4461523515,0.363072,0.52704,-0.767136,2.52875,67.0425,49.70875,-27.536001,6.176,-93.69601,concentric,4,5.0,25319.0,27957.0,85092.0,73142.0,24854.0,37131.0,35301.0,41644.0,17001.0,11883.0
2026-05-06 16:23:18.259895,783765,1609506861620115,4461532176,0.359168,0.421632,-0.706624,8.7675,63.00875,47.85375,-28.12,6.888001,-92.20801,concentric,4,5.0,25319.0,27957.0,85092.0,73142.0,24854.0,37131.0,35301.0,41644.0,17001.0,11883.0
2026-05-06 16:23:18.290149,783776,1609506861634642,4461547271,0.359168,0.421632,-0.706624,3.64,56.91,49.18375,-28.12,6.888001,-92.20801,concentric,4,5.0,24794.0,27518.0,85840.0,71868.0,24168.0,36940.0,35469.0,41017.0,16479.0,11773.0
2026-05-06 16:23:18.292448,783777,1609506861643607,4461555960,0.454816,0.441152,-0.81008,0.60375,51.485,53.8125,-28.44,7.480001,-91.880005,concentric,4,5.0,24794.0,27518.0,85840.0,71868.0,24168.0,36940.0,35469.0,41017.0,16479.0,11773.0
2026-05-06 16:23:18.295142,783778,1609506861658117,4461568877,0.460672,0.435296,-0.728096,8.12,49.0175,56.035,-28.52,8.456,-91.096,concentric,4,5.0,24794.0,27518.0,85840.0,71868.0,24168.0,36940.0,35469.0,41017.0,16479.0,11773.0
2026-05-06 16:23:18.298981,783779,1609506861667305,4461579666,0.460672,0.435296,-0.728096,17.710001,48.37,53.96125,-28.52,8.456,-91.096,concentric,4,5.0,24794.0,27518.0,85840.0,71868.0,24168.0,36940.0,35469.0,41017.0,16479.0,11773.0
2026-05-06 16:23:18.301491,783780,1609506861681932,4461594657,0.411872,0.491904,-0.71248,18.19125,48.01125,52.8325,-28.536001,8.944,-90.512,concentric,4,5.0,24794.0,27518.0,85840.0,71868.0,24168.0,36940.0,35469.0,41017.0,16479.0,11773.0
2026-05-06 16:23:18.304007,783781,1609506861690883,4461603424,0.411872,0.491904,-0.71248,19.1275,49.90125,54.6,-28.536001,8.944,-90.512,concentric,4,5.0,24794.0,27518.0,85840.0,71868.0,24168.0,36940.0,35469.0,41017.0,16479.0,11773.0
2026-05-06 16:23:18.306442,783782,1609506861699892,4461612171,0.450912,0.503616,-0.726144,12.53875,50.89,52.10625,-28.36,9.480001,-89.936005,concentric,4,5.0,24794.0,27518.0,85840.0,71868.0,24168.0,36940.0,35469.0,41017.0,16479.0,11773.0
2026-05-06 16:23:18.308794,783783,1609506861714551,4461627193,0.450912,0.503616,-0.726144,2.24,51.7125,54.18,-28.36,9.480001,-89.936005,concentric,4,5.0,24794.0,27518.0,85840.0,71868.0,24168.0,36940.0,35469.0,41017.0,16479.0,11773.0
2026-05-06 16:23:18.311179,783784,1609506861723544,4461635986,0.456768,0.486048,-0.76128,-0.41125,53.73375,54.10125,-29.448002,8.864,-86.11201,concentric,4,5.0,24794.0,27518.0,85840.0,71868.0,24168.0,36940.0,35469.0,41017.0,16479.0,11773.0
2026-05-06 16:23:18.341378,783795,1609506861738158,4461649016,0.509472,0.392352,-0.763232,2.2575,56.56,53.45375,-29.312002,9.216001,-88.248,concentric,4,5.0,24151.0,27261.0,85255.0,71059.0,23445.0,36688.0,35073.0,40541.0,15977.0,11651.0
2026-05-06 16:23:18.343723,783796,1609506861747474,4461659825,0.509472,0.392352,-0.763232,7.46375,58.44125,48.69375,-29.312002,9.216001,-88.248,concentric,4,5.0,24151.0,27261.0,85255.0,71059.0,23445.0,36688.0,35073.0,40541.0,15977.0,11651.0
2026-05-06 16:23:18.346165,783797,1609506861756427,4461668605,0.482144,0.464576,-0.7808,3.8675,61.71375,50.365,-29.312002,9.376,-87.824005,concentric,4,5.0,24151.0,27261.0,85255.0,71059.0,23445.0,36688.0,35073.0,40541.0,15977.0,11651.0
2026-05-06 16:23:18.348817,783798,1609506861771044,4461683558,0.482144,0.464576,-0.7808,7.0175,65.2575,52.28125,-29.376001,9.376,-87.824005,concentric,4,5.0,24151.0,27261.0,85255.0,71059.0,23445.0,36688.0,35073.0,40541.0,15977.0,11651.0
2026-05-06 16:23:18.357647,783799,1609506861780028,4461692279,0.472384,0.462624,-0.716384,10.54375,68.5475,48.3,-29.52,12.008,-87.32001,concentric,4,5.0,24151.0,27261.0,85255.0,71059.0,23445.0,36688.0,35073.0,40541.0,15977.0,11651.0
2026-05-06 16:23:18.391517,783800,1609506861794528,4461707215,0.472384,0.462624,-0.716384,10.43875,70.53375,47.6525,-29.52,12.008,-87.32001,concentric,4,5.0,24151.0,27261.0,85255.0,71059.0,23445.0,36688.0,35073.0,40541.0,15977.0,11651.0
2026-05-06 16:23:18.393841,783801,1609506861803460,4461715962,0.540704,0.38064,-0.60512,9.10875,70.805,45.68375,-29.688002,12.384001,-86.688,concentric,4,5.0,24151.0,27261.0,85255.0,71059.0,23445.0,36688.0,35073.0,40541.0,15977.0,11651.0
2026-05-06 16:23:18.396436,783802,1609506861812383,4461724670,0.540704,0.38064,-0.60512,5.95875,70.25375,43.58375,-29.688002,12.384001,-86.688,concentric,4,5.0,24151.0,27261.0,85255.0,71059.0,23445.0,36688.0,35073.0,40541.0,15977.0,11651.0
2026-05-06 16:23:18.429353,783813,1609506861826886,4461739582,0.601216,0.366976,-0.642208,0.875,68.52125,43.30375,-30.216002,12.568001,-85.54401,concentric,4,5.0,23686.0,27275.0,84948.0,70297.0,23007.0,36621.0,34888.0,40108.0,15715.0,11641.0
2026-05-06 16:23:18.429886,783814,1609506861836044,4461748368,0.601216,0.366976,-0.642208,-0.18375,67.01625,43.18125,-30.216002,12.568001,-85.54401,concentric,4,5.0,23686.0,27275.0,84948.0,70297.0,23007.0,36621.0,34888.0,40108.0,15715.0,11641.0
2026-05-06 16:23:18.432530,783815,1609506861850618,4461763368,0.560224,0.36112,-0.698816,4.03375,67.55,41.62375,-30.216002,10.256001,-83.16801,concentric,4,5.0,23686.0,27275.0,84948.0,70297.0,23007.0,36621.0,34888.0,40108.0,15715.0,11641.0
2026-05-06 16:23:18.439582,783816,1609506861859559,4461772070,0.573888,0.327936,-0.59536,5.5125,67.8825,40.145,-30.392002,12.032001,-83.08,concentric,4,5.0,23686.0,27275.0,84948.0,70297.0,23007.0,36621.0,34888.0,40108.0,15715.0,11641.0
2026-05-06 16:23:18.450062,783817,1609506861874115,4461784935,0.573888,0.327936,-0.59536,9.073751,67.66375,39.2525,-30.392002,12.032001,-83.08,concentric,4,5.0,23686.0,27275.0,84948.0,70297.0,23007.0,36621.0,34888.0,40108.0,15715.0,11641.0
2026-05-06 16:23:18.458967,783818,1609506861883503,4461795793,0.626592,0.294752,-0.560224,13.615,66.42125,36.67125,-30.824001,14.328001,-83.192,concentric,4,5.0,23686.0,27275.0,84948.0,70297.0,23007.0,36621.0,34888.0,40108.0,15715.0,11641.0
2026-05-06 16:23:18.472606,783819,1609506861892609,4461804540,0.626592,0.294752,-0.560224,18.45375,64.505,35.81375,-30.824001,14.328001,-83.192,concentric,4,5.0,23686.0,27275.0,84948.0,70297.0,23007.0,36621.0,34888.0,40108.0,15715.0,11641.0
2026-05-06 16:23:18.486376,783820,1609506861907173,4461819479,0.646112,0.288896,-0.54656,25.1125,62.3525,33.81875,-30.856,14.896001,-82.4,concentric,4,5.0,23686.0,27275.0,84948.0,70297.0,23007.0,36621.0,34888.0,40108.0,15715.0,11641.0
2026-05-06 16:23:18.496454,783821,1609506861916087,4461828218,0.646112,0.288896,-0.54656,27.69375,60.92625,30.96625,-30.856,14.896001,-82.4,concentric,4,5.0,23686.0,27275.0,84948.0,70297.0,23007.0,36621.0,34888.0,40108.0,15715.0,11641.0
2026-05-06 16:23:18.552616,783832,1609506861931148,4461843274,0.597312,0.368928,-0.554368,20.23,60.9,31.29875,-31.392002,13.752001,-82.328,concentric,4,5.0,23246.0,27340.0,84584.0,69525.0,22631.0,36634.0,34739.0,39681.0,15473.0,11662.0
2026-05-06 16:23:18.577607,783833,1609506861940210,4461852085,0.603168,0.30256,-0.562176,14.60375,59.29,28.5075,-30.808,15.920001,-81.184006,concentric,4,5.0,23246.0,27340.0,84584.0,69525.0,22631.0,36634.0,34739.0,39681.0,15473.0,11662.0
2026-05-06 16:23:18.590221,783834,1609506861949133,4461860797,0.603168,0.30256,-0.562176,9.6075,56.175,22.925,-30.808,15.920001,-81.184006,concentric,4,5.0,23246.0,27340.0,84584.0,69525.0,22631.0,36634.0,34739.0,39681.0,15473.0,11662.0
2026-05-06 16:23:18.592665,783835,1609506861963679,4461875749,0.646112,0.23424,-0.51728,4.43625,52.605,24.4125,-31.216002,15.904,-80.216,concentric,4,5.0,23246.0,27340.0,84584.0,69525.0,22631.0,36634.0,34739.0,39681.0,15473.0,11662.0
2026-05-06 16:23:18.598981,783836,1609506861972615,4461884445,0.646112,0.23424,-0.51728,5.59125,50.3125,23.30125,-31.216002,15.904,-80.216,concentric,4,5.0,23246.0,27340.0,84584.0,69525.0,22631.0,36634.0,34739.0,39681.0,15473.0,11662.0
2026-05-06 16:23:18.601471,783837,1609506861987124,4461899491,0.659776,0.228384,-0.482144,7.97125,48.11625,21.90125,-31.392002,16.808,-79.872,concentric,4,5.0,23246.0,27340.0,84584.0,69525.0,22631.0,36634.0,34739.0,39681.0,15473.0,11662.0
2026-05-06 16:23:18.603950,783838,1609506861996054,4461908202,0.659776,0.228384,-0.482144,9.730001,45.33375,22.960001,-31.392002,16.808,-79.872,concentric,4,5.0,23246.0,27340.0,84584.0,69525.0,22631.0,36634.0,34739.0,39681.0,15473.0,11662.0
2026-05-06 16:23:18.606492,783839,1609506862004999,4461916918,0.679296,0.245952,-0.519232,13.13375,43.785,23.02125,-31.432001,17.264,-80.22401,concentric,4,5.0,23246.0,27340.0,84584.0,69525.0,22631.0,36634.0,34739.0,39681.0,15473.0,11662.0
2026-05-06 16:23:18.612220,783840,1609506862019491,4461931828,0.691008,0.255712,-0.515328,13.86875,41.74625,23.52875,-31.472002,17.688002,-77.840004,concentric,4,5.0,23246.0,27340.0,84584.0,69525.0,22631.0,36634.0,34739.0,39681.0,15473.0,11662.0
2026-05-06 16:23:18.636338,783851,1609506862028422,4461940744,0.691008,0.255712,-0.515328,11.62,39.54125,23.135,-31.472002,17.688002,-77.840004,concentric,4,5.0,22919.0,28259.0,84137.0,68603.0,22539.0,37428.0,34495.0,39124.0,15413.0,12023.0
2026-05-06 16:23:18.638810,783852,1609506862043064,4461953915,0.710528,0.230336,-0.482144,9.415,37.89625,20.772501,-31.472002,15.952001,-76.784004,concentric,4,5.0,22919.0,28259.0,84137.0,68603.0,22539.0,37428.0,34495.0,39124.0,15413.0,12023.0
2026-05-06 16:23:18.641314,783853,1609506862052378,4461964786,0.710528,0.230336,-0.482144,5.355,37.485,19.78375,-31.472002,15.952001,-76.784004,concentric,4,5.0,22919.0,28259.0,84137.0,68603.0,22539.0,37428.0,34495.0,39124.0,15413.0,12023.0
2026-05-06 16:23:18.643742,783854,1609506862061388,4461973526,0.733952,0.191296,-0.42944,5.985,36.47,18.69875,-31.048002,16.152,-76.568,concentric,4,5.0,22919.0,28259.0,84137.0,68603.0,22539.0,37428.0,34495.0,39124.0,15413.0,12023.0
2026-05-06 16:23:18.657599,783855,1609506862076087,4461988467,0.733952,0.191296,-0.42944,9.2575,35.55125,16.485,-31.048002,16.152,-76.568,concentric,4,5.0,22919.0,28259.0,84137.0,68603.0,22539.0,37428.0,34495.0,39124.0,15413.0,12023.0
2026-05-06 16:23:18.659951,783856,1609506862085032,4461997193,0.743712,0.212768,-0.476288,12.985,34.8425,17.00125,-31.632002,18.232,-77.37601,concentric,4,5.0,22919.0,28259.0,84137.0,68603.0,22539.0,37428.0,34495.0,39124.0,15413.0,12023.0
2026-05-06 16:23:18.693896,783857,1609506862099514,4462012100,0.724192,0.244,-0.505568,15.28625,34.895,17.4825,-31.272001,18.768002,-78.344,concentric,4,5.0,22919.0,28259.0,84137.0,68603.0,22539.0,37428.0,34495.0,39124.0,15413.0,12023.0
2026-05-06 16:23:18.702731,783858,1609506862108443,4462020782,0.724192,0.244,-0.505568,15.89,34.6675,16.5375,-31.272001,18.768002,-78.344,concentric,4,5.0,22919.0,28259.0,84137.0,68603.0,22539.0,37428.0,34495.0,39124.0,15413.0,12023.0
2026-05-06 16:23:18.705246,783859,1609506862122935,4462033705,0.757376,0.247904,-0.50752,13.08125,32.9875,15.46125,-31.232002,19.016,-76.600006,concentric,4,5.0,22919.0,28259.0,84137.0,68603.0,22539.0,37428.0,34495.0,39124.0,15413.0,12023.0
2026-05-06 16:23:18.734911,783870,1609506862132336,4462044590,0.757376,0.247904,-0.50752,8.65375,32.08625,14.70875,-31.232002,19.016,-76.600006,concentric,4,5.0,22300.0,28574.0,83220.0,67557.0,22012.0,37635.0,34025.0,38539.0,15088.0,12134.0
2026-05-06 16:23:18.742445,783871,1609506862141417,4462053351,0.79056,0.212768,-0.466528,4.55,32.2875,13.79875,-31.488,15.912001,-73.824005,concentric,4,5.0,22300.0,28574.0,83220.0,67557.0,22012.0,37635.0,34025.0,38539.0,15088.0,12134.0
2026-05-06 16:23:18.745075,783872,1609506862156005,4462068380,0.79056,0.212768,-0.466528,2.9225,32.2,11.66375,-31.488,15.912001,-73.824005,concentric,4,5.0,22300.0,28574.0,83220.0,67557.0,22012.0,37635.0,34025.0,38539.0,15088.0,12134.0
2026-05-06 16:23:18.747705,783873,1609506862164976,4462077113,0.788608,0.201056,-0.476288,-0.14,32.0425,12.53875,-31.768002,15.704,-73.768005,concentric,4,5.0,22300.0,28574.0,83220.0,67557.0,22012.0,37635.0,34025.0,38539.0,15088.0,12134.0
2026-05-06 16:23:18.756477,783874,1609506862179518,4462092050,0.788608,0.197152,-0.47824,-0.81375,31.605,12.31125,-31.768002,17.752,-71.816,concentric,4,5.0,22300.0,28574.0,83220.0,67557.0,22012.0,37635.0,34025.0,38539.0,15088.0,12134.0
2026-05-06 16:23:18.764039,783875,1609506862188514,4462100798,0.788608,0.197152,-0.47824,-0.07875,31.54375,11.33125,-31.760002,17.560001,-71.816,concentric,4,5.0,22300.0,28574.0,83220.0,67557.0,22012.0,37635.0,34025.0,38539.0,15088.0,12134.0
2026-05-06 16:23:18.777785,783876,1609506862197461,4462109502,0.788608,0.197152,-0.47824,-0.0175,31.15875,13.195,-31.760002,17.560001,-71.816,concentric,4,5.0,22300.0,28574.0,83220.0,67557.0,22012.0,37635.0,34025.0,38539.0,15088.0,12134.0
2026-05-06 16:23:18.802670,783877,1609506862211987,4462124445,0.788608,0.20496,-0.489952,-0.4025,32.01625,13.37,-31.712002,19.816002,-75.824005,concentric,4,5.0,22300.0,28574.0,83220.0,67557.0,22012.0,37635.0,34025.0,38539.0,15088.0,12134.0
2026-05-06 16:23:18.820342,783878,1609506862220955,4462133153,0.80032,0.208864,-0.462624,-0.8925,33.34625,14.18375,-31.536001,19.912,-74.576004,concentric,4,5.0,22300.0,28574.0,83220.0,67557.0,22012.0,37635.0,34025.0,38539.0,15088.0,12134.0
2026-05-06 16:23:18.842424,783889,1609506862235714,4462148182,0.80032,0.208864,-0.462624,-2.47625,35.56,14.761251,-31.536001,19.912,-74.576004,concentric,4,5.0,22020.0,28887.0,82108.0,66893.0,21828.0,37945.0,33522.0,38179.0,14951.0,12301.0
2026-05-06 16:23:18.845094,783890,1609506862244687,4462156980,0.81008,0.199104,-0.45872,-3.78875,36.855,13.9475,-31.680002,19.688002,-73.792,concentric,4,5.0,22020.0,28887.0,82108.0,66893.0,21828.0,37945.0,33522.0,38179.0,14951.0,12301.0
2026-05-06 16:23:18.847611,783891,1609506862259245,4462172009,0.81008,0.199104,-0.45872,-4.445,37.205,13.46625,-31.680002,19.688002,-73.792,concentric,4,5.0,22020.0,28887.0,82108.0,66893.0,21828.0,37945.0,33522.0,38179.0,14951.0,12301.0
2026-05-06 16:23:18.850114,783892,1609506862268227,4462180724,0.833504,0.18544,-0.427488,-5.355,37.93125,13.51,-31.944002,20.392,-77.736,concentric,4,5.0,22020.0,28887.0,82108.0,66893.0,21828.0,37945.0,33522.0,38179.0,14951.0,12301.0
2026-05-06 16:23:18.856393,783893,1609506862277189,4462189433,0.833504,0.18544,-0.427488,-7.2625,38.36875,13.335,-31.944002,20.392,-77.736,concentric,4,5.0,22020.0,28887.0,82108.0,66893.0,21828.0,37945.0,33522.0,38179.0,14951.0,12301.0
2026-05-06 16:23:18.870104,783894,1609506862291734,4462204371,0.815936,0.191296,-0.378688,-8.12,39.69,13.011251,-31.856,20.104,-73.272,concentric,4,5.0,22020.0,28887.0,82108.0,66893.0,21828.0,37945.0,33522.0,38179.0,14951.0,12301.0
2026-05-06 16:23:18.880947,783895,1609506862300690,4462213075,0.831552,0.179584,-0.38064,-7.74375,40.285,11.29625,-31.672,20.76,-70.688,concentric,4,5.0,22020.0,28887.0,82108.0,66893.0,21828.0,37945.0,33522.0,38179.0,14951.0,12301.0
2026-05-06 16:23:18.892263,783896,1609506862315196,4462226000,0.831552,0.179584,-0.38064,-9.05625,41.64125,11.34875,-31.672,20.76,-70.688,concentric,4,5.0,22020.0,28887.0,82108.0,66893.0,21828.0,37945.0,33522.0,38179.0,14951.0,12301.0
2026-05-06 16:23:18.921427,783897,1609506862324473,4462236774,0.81984,0.177632,-0.37088,-10.66625,41.685,11.90875,-31.656002,20.52,-72.728004,concentric,4,5.0,22020.0,28887.0,82108.0,66893.0,21828.0,37945.0,33522.0,38179.0,14951.0,12301.0
2026-05-06 16:23:18.987761,783908,1609506862333560,4462245577,0.81984,0.177632,-0.37088,-10.815,40.9675,10.91125,-31.656002,20.52,-72.728004,concentric,4,5.0,21886.0,29111.0,81996.0,66479.0,21687.0,38166.0,33435.0,37934.0,14872.0,12419.0
2026-05-06 16:23:18.990109,783909,1609506862348368,4462260604,0.853024,0.13664,-0.327936,-10.10625,39.4975,9.05625,-32.064003,20.92,-74.04,concentric,4,5.0,21886.0,29111.0,81996.0,66479.0,21687.0,38166.0,33435.0,37934.0,14872.0,12419.0
2026-05-06 16:23:18.992761,783910,1609506862357272,4462269342,0.853024,0.13664,-0.327936,-7.55125,38.43,6.04625,-32.064003,20.92,-74.04,concentric,4,5.0,21886.0,29111.0,81996.0,66479.0,21687.0,38166.0,33435.0,37934.0,14872.0,12419.0
2026-05-06 16:23:18.998725,783911,1609506862371785,4462284294,0.851072,0.12688,-0.33184,-5.46,38.675,5.7225,-31.864002,20.2,-71.864006,eccentric,4,5.0,21886.0,29111.0,81996.0,66479.0,21687.0,38166.0,33435.0,37934.0,14872.0,12419.0
2026-05-06 16:23:18.998819,783912,1609506862380764,4462293009,0.851072,0.150304,-0.306464,-3.0625,38.73625,6.20375,-31.864002,20.2,-71.864006,eccentric,4,5.0,21886.0,29111.0,81996.0,66479.0,21687.0,38166.0,33435.0,37934.0,14872.0,12419.0
2026-05-06 16:23:18.999938,783913,1609506862389747,4462301702,0.817888,0.150304,-0.306464,-2.59875,37.96625,4.585,-31.976002,20.688002,-71.864006,eccentric,4,5.0,21886.0,29111.0,81996.0,66479.0,21687.0,38166.0,33435.0,37934.0,14872.0,12419.0
2026-05-06 16:23:19.002545,783914,1609506862404307,4462316630,0.8296,0.179584,-0.245952,-1.96,36.12875,4.655,-32.24,18.944,-70.088005,eccentric,4,5.0,21886.0,29111.0,81996.0,66479.0,21687.0,38166.0,33435.0,37934.0,14872.0,12419.0
2026-05-06 16:23:19.007083,783915,1609506862413275,4462325383,0.8296,0.179584,-0.245952,-2.42375,33.39875,3.92875,-32.24,18.944,-70.088005,eccentric,4,5.0,21886.0,29111.0,81996.0,66479.0,21687.0,38166.0,33435.0,37934.0,14872.0,12419.0
2026-05-06 16:23:19.007559,783916,1609506862427806,4462340344,0.862784,0.140544,-0.26352,-3.955,29.26875,0.9625,-32.408,18.984001,-69.744,eccentric,4,5.0,21886.0,29111.0,81996.0,66479.0,21687.0,38166.0,33435.0,37934.0,14872.0,12419.0
2026-05-06 16:23:19.037583,783927,1609506862437015,4462349155,0.862784,0.140544,-0.26352,-5.285,25.69875,-1.9075,-32.408,18.984001,-69.744,eccentric,4,5.0,21819.0,29209.0,82078.0,66065.0,21645.0,38257.0,33466.0,37666.0,14829.0,12445.0
2026-05-06 16:23:19.040064,783928,1609506862451860,4462364245,0.835456,0.130784,-0.294752,-12.18875,23.77375,-1.855,-32.248,20.584002,-70.896,eccentric,4,5.0,21819.0,29209.0,82078.0,66065.0,21645.0,38257.0,33466.0,37666.0,14829.0,12445.0
2026-05-06 16:23:19.042424,783929,1609506862460805,4462372957,0.835456,0.130784,-0.294752,-17.3425,21.3325,-1.995,-32.248,20.584002,-70.896,eccentric,4,5.0,21819.0,29209.0,82078.0,66065.0,21645.0,38257.0,33466.0,37666.0,14829.0,12445.0
2026-05-06 16:23:19.046045,783930,1609506862469863,4462381817,0.825696,0.095648,-0.23424,-16.87875,18.4275,-5.27625,-32.536003,16.968,-68.12,eccentric,4,5.0,21819.0,29209.0,82078.0,66065.0,21645.0,38257.0,33466.0,37666.0,14829.0,12445.0
2026-05-06 16:23:19.062608,783931,1609506862484386,4462396821,0.872544,0.07808,-0.25376,-13.448751,15.7325,-6.57125,-32.064003,20.6,-70.11201,eccentric,4,5.0,21819.0,29209.0,82078.0,66065.0,21645.0,38257.0,33466.0,37666.0,14829.0,12445.0
2026-05-06 16:23:19.068849,783932,1609506862493318,4462405591,0.872544,0.07808,-0.25376,-12.3025,12.78375,-3.94625,-32.064003,20.6,-70.11201,eccentric,4,5.0,21819.0,29209.0,82078.0,66065.0,21645.0,38257.0,33466.0,37666.0,14829.0,12445.0
2026-05-06 16:23:19.102699,783933,1609506862507809,4462420522,0.84912,0.119072,-0.226432,-11.375,9.87875,-3.7625,-32.792,20.464,-70.824005,eccentric,4,5.0,21819.0,29209.0,82078.0,66065.0,21645.0,38257.0,33466.0,37666.0,14829.0,12445.0
2026-05-06 16:23:19.107606,783934,1609506862516721,4462429214,0.84912,0.119072,-0.226432,-11.31375,8.2075,-3.6225,-32.792,20.464,-70.824005,eccentric,4,5.0,21819.0,29209.0,82078.0,66065.0,21645.0,38257.0,33466.0,37666.0,14829.0,12445.0
2026-05-06 16:23:19.110078,783935,1609506862525704,4462437977,0.827648,0.152256,-0.238144,-14.27125,6.76375,-2.625,-32.312,20.216002,-70.272,eccentric,4,5.0,21819.0,29209.0,82078.0,66065.0,21645.0,38257.0,33466.0,37666.0,14829.0,12445.0
2026-05-06 16:23:19.140286,783946,1609506862540276,4462452953,0.827648,0.152256,-0.238144,-19.5125,4.6725,-3.94625,-32.312,20.216002,-70.272,eccentric,4,5.0,21802.0,29390.0,81306.0,65613.0,21678.0,38461.0,33119.0,37434.0,14864.0,12537.0
2026-05-06 16:23:19.142688,783947,1609506862549298,4462461763,0.845216,0.134688,-0.249856,-21.98875,2.625,-6.09875,-32.936,18.208,-69.576004,eccentric,4,5.0,21802.0,29390.0,81306.0,65613.0,21678.0,38461.0,33119.0,37434.0,14864.0,12537.0
2026-05-06 16:23:19.145258,783948,1609506862563823,4462474675,0.8296,0.083936,-0.298656,-21.11375,0.28875,-8.89875,-32.760002,18.240002,-69.69601,eccentric,4,5.0,21802.0,29390.0,81306.0,65613.0,21678.0,38461.0,33119.0,37434.0,14864.0,12537.0
2026-05-06 16:23:19.151466,783949,1609506862573120,4462485472,0.8296,0.083936,-0.298656,-17.0625,-1.74125,-10.99,-32.760002,18.240002,-69.69601,eccentric,4,5.0,21802.0,29390.0,81306.0,65613.0,21678.0,38461.0,33119.0,37434.0,14864.0,12537.0
2026-05-06 16:23:19.165224,783950,1609506862587580,4462498354,0.80032,0.06832,-0.296704,-12.04,-2.7475,-11.55,-32.928,18.344002,-70.12,eccentric,4,5.0,21802.0,29390.0,81306.0,65613.0,21678.0,38461.0,33119.0,37434.0,14864.0,12537.0
2026-05-06 16:23:19.175263,783951,1609506862596928,4462509202,0.80032,0.06832,-0.296704,-5.11,-4.68125,-10.29,-32.928,18.344002,-70.12,eccentric,4,5.0,21802.0,29390.0,81306.0,65613.0,21678.0,38461.0,33119.0,37434.0,14864.0,12537.0
2026-05-06 16:23:19.186444,783952,1609506862605913,4462517988,0.823744,0.101504,-0.23424,0.4725,-4.82125,-10.22875,-32.56,19.696001,-71.056,eccentric,4,5.0,21802.0,29390.0,81306.0,65613.0,21678.0,38461.0,33119.0,37434.0,14864.0,12537.0
2026-05-06 16:23:19.216378,783953,1609506862620401,4462532911,0.823744,0.101504,-0.23424,6.60625,-7.6825,-7.97125,-32.56,19.696001,-71.056,eccentric,4,5.0,21802.0,29390.0,81306.0,65613.0,21678.0,38461.0,33119.0,37434.0,14864.0,12537.0
2026-05-06 16:23:19.218955,783954,1609506862629322,4462541594,0.884256,0.111264,-0.177632,12.4075,-10.9375,-9.1525,-33.112003,18.344002,-69.90401,eccentric,4,5.0,21802.0,29390.0,81306.0,65613.0,21678.0,38461.0,33119.0,37434.0,14864.0,12537.0
2026-05-06 16:23:19.251478,783965,1609506862644000,4462556519,0.864736,0.119072,-0.251808,15.8725,-12.95875,-12.425,-32.960003,19.736,-71.424,eccentric,4,5.0,21838.0,29559.0,81974.0,65209.0,21747.0,38669.0,33440.0,37221.0,14929.0,12621.0
2026-05-06 16:23:19.253995,783966,1609506862652980,4462565280,0.864736,0.119072,-0.251808,17.36,-14.5075,-12.4425,-32.960003,19.736,-71.424,eccentric,4,5.0,21838.0,29559.0,81974.0,65209.0,21747.0,38669.0,33440.0,37221.0,14929.0,12621.0
2026-05-06 16:23:19.256493,783967,1609506862661943,4462574034,0.864736,0.119072,-0.251808,13.08125,-15.636251,-12.792501,-32.960003,19.736,-71.424,eccentric,4,5.0,21838.0,29559.0,81974.0,65209.0,21747.0,38669.0,33440.0,37221.0,14929.0,12621.0
2026-05-06 16:23:19.258862,783968,1609506862676657,4462588961,0.796416,0.210816,-0.271328,3.49125,-18.5325,-13.667501,-33.152,16.224,-69.600006,eccentric,4,5.0,21838.0,29559.0,81974.0,65209.0,21747.0,38669.0,33440.0,37221.0,14929.0,12621.0
2026-05-06 16:23:19.262732,783969,1609506862685654,4462597750,0.831552,0.17568,-0.296704,-5.59125,-22.42625,-17.08,-33.144,17.720001,-70.48,eccentric,4,5.0,21838.0,29559.0,81974.0,65209.0,21747.0,38669.0,33440.0,37221.0,14929.0,12621.0
2026-05-06 16:23:19.287754,783970,1609506862700151,4462612685,0.831552,0.17568,-0.296704,-9.94,-25.64625,-20.5275,-33.144,17.720001,-70.48,eccentric,4,5.0,21838.0,29559.0,81974.0,65209.0,21747.0,38669.0,33440.0,37221.0,14929.0,12621.0
2026-05-06 16:23:19.320062,783971,1609506862709069,4462621408,0.81984,0.1464,-0.226432,-14.49,-27.37875,-23.2925,-33.344,19.088001,-72.200005,eccentric,4,5.0,21838.0,29559.0,81974.0,65209.0,21747.0,38669.0,33440.0,37221.0,14929.0,12621.0
2026-05-06 16:23:19.322512,783972,1609506862717991,4462630150,0.81984,0.1464,-0.226432,-15.82,-29.46125,-25.095,-33.344,19.088001,-72.200005,eccentric,4,5.0,21838.0,29559.0,81974.0,65209.0,21747.0,38669.0,33440.0,37221.0,14929.0,12621.0
2026-05-06 16:23:19.355236,783983,1609506862732521,4462645034,0.833504,0.130784,-0.22448,-11.4975,-31.43875,-27.09,-33.504,18.792002,-72.944,eccentric,4,5.0,21735.0,29329.0,82582.0,65245.0,21654.0,38438.0,33741.0,37233.0,14889.0,12534.0
2026-05-06 16:23:19.357745,783984,1609506862741505,4462653778,0.833504,0.130784,-0.22448,-4.7425,-34.1775,-28.69125,-33.504,18.792002,-72.944,eccentric,4,5.0,21735.0,29329.0,82582.0,65245.0,21654.0,38438.0,33741.0,37233.0,14889.0,12534.0
2026-05-06 16:23:19.360243,783985,1609506862756298,4462668731,0.80032,0.150304,-0.349408,0.0875,-34.86,-29.40875,-33.232002,18.808,-73.256004,eccentric,4,5.0,21735.0,29329.0,82582.0,65245.0,21654.0,38438.0,33741.0,37233.0,14889.0,12534.0
2026-05-06 16:23:19.362746,783986,1609506862765265,4462677569,0.72224,0.220576,-0.27328,1.5925,-34.7025,-28.14875,-33.584003,16.848001,-72.44,eccentric,4,5.0,21735.0,29329.0,82582.0,65245.0,21654.0,38438.0,33741.0,37233.0,14889.0,12534.0
2026-05-06 16:23:19.367988,783987,1609506862779754,4462690598,0.72224,0.220576,-0.27328,3.5875,-37.10875,-28.2975,-33.584003,16.848001,-72.44,eccentric,4,5.0,21735.0,29329.0,82582.0,65245.0,21654.0,38438.0,33741.0,37233.0,14889.0,12534.0
2026-05-06 16:23:19.368432,783988,1609506862789084,4462701423,0.817888,0.220576,-0.236192,5.34625,-41.982502,-30.5025,-34.168003,15.224001,-71.624,eccentric,4,5.0,21735.0,29329.0,82582.0,65245.0,21654.0,38438.0,33741.0,37233.0,14889.0,12534.0
2026-05-06 16:23:19.376375,783989,1609506862798046,4462710168,0.817888,0.220576,-0.236192,3.115,-46.20875,-30.695,-34.168003,15.224001,-71.624,eccentric,4,5.0,21735.0,29329.0,82582.0,65245.0,21654.0,38438.0,33741.0,37233.0,14889.0,12534.0
2026-05-06 16:23:19.391353,783990,1609506862812697,4462725093,0.80032,0.232288,-0.28304,-0.63875,-49.2275,-31.4475,-33.816,17.744001,-74.32001,eccentric,4,5.0,21735.0,29329.0,82582.0,65245.0,21654.0,38438.0,33741.0,37233.0,14889.0,12534.0
2026-05-06 16:23:19.397602,783991,1609506862821622,4462733792,0.80032,0.232288,-0.28304,-2.135,-52.82375,-36.77625,-33.816,17.744001,-74.32001,eccentric,4,5.0,21735.0,29329.0,82582.0,65245.0,21654.0,38438.0,33741.0,37233.0,14889.0,12534.0
2026-05-06 16:23:19.468668,784002,1609506862836381,4462747199,0.743712,0.210816,-0.388448,-1.67125,-55.18625,-41.64125,-33.904003,17.464,-75.176,eccentric,4,5.0,22182.0,29598.0,84106.0,65578.0,22082.0,38766.0,34541.0,37448.0,15198.0,12661.0
2026-05-06 16:23:19.471767,784003,1609506862845732,4462758053,0.70272,0.21472,-0.359168,-2.87875,-57.18125,-41.78125,-33.84,16.536001,-74.44,eccentric,4,5.0,22182.0,29598.0,84106.0,65578.0,22082.0,38766.0,34541.0,37448.0,15198.0,12661.0
2026-05-06 16:23:19.472369,784004,1609506862854798,4462766769,0.70272,0.21472,-0.359168,-1.015,-59.5,-42.23625,-33.84,16.536001,-74.44,eccentric,4,5.0,22182.0,29598.0,84106.0,65578.0,22082.0,38766.0,34541.0,37448.0,15198.0,12661.0
2026-05-06 16:23:19.474863,784005,1609506862869331,4462781702,0.749568,0.222528,-0.37088,3.54375,-62.291252,-42.13125,-33.968002,16.472,-76.512,eccentric,4,5.0,22182.0,29598.0,84106.0,65578.0,22082.0,38766.0,34541.0,37448.0,15198.0,12661.0
2026-05-06 16:23:19.477578,784006,1609506862878221,4462790412,0.749568,0.222528,-0.37088,6.965,-65.2225,-40.2675,-33.968002,16.472,-76.512,eccentric,4,5.0,22182.0,29598.0,84106.0,65578.0,22082.0,38766.0,34541.0,37448.0,15198.0,12661.0
2026-05-06 16:23:19.480083,784007,1609506862892815,4462805377,0.757376,0.247904,-0.404064,10.15,-67.45375,-39.8825,-34.048,14.360001,-75.736,eccentric,4,5.0,22182.0,29598.0,84106.0,65578.0,22082.0,38766.0,34541.0,37448.0,15198.0,12661.0
2026-05-06 16:23:19.482590,784008,1609506862901809,4462814127,0.757376,0.247904,-0.404064,16.10875,-69.6325,-43.33875,-34.048,14.360001,-75.736,eccentric,4,5.0,22182.0,29598.0,84106.0,65578.0,22082.0,38766.0,34541.0,37448.0,15198.0,12661.0
2026-05-06 16:23:19.486378,784009,1609506862910760,4462822958,0.708576,0.265472,-0.452864,20.3525,-72.26625,-47.0925,-33.352,15.768001,-77.79201,eccentric,4,5.0,22182.0,29598.0,84106.0,65578.0,22082.0,38766.0,34541.0,37448.0,15198.0,12661.0
2026-05-06 16:23:19.520214,784010,1609506862925263,4462837865,0.659776,0.325984,-0.472384,20.51,-73.82375,-48.965,-33.352,15.352001,-78.768005,eccentric,4,5.0,22182.0,29598.0,84106.0,65578.0,22082.0,38766.0,34541.0,37448.0,15198.0,12661.0
2026-05-06 16:23:19.555508,784022,1609506862934194,4462846576,0.659776,0.325984,-0.472384,18.585001,-74.94375,-49.76125,-33.536003,15.352001,-78.768005,eccentric,4,5.0,22708.0,29470.0,85145.0,66288.0,22555.0,38680.0,35170.0,37921.0,15530.0,12613.0
2026-05-06 16:23:19.555909,784023,1609506862949327,4462861569,0.669536,0.324032,-0.513376,18.6375,-76.37,-50.93375,-33.72,14.608001,-79.096,eccentric,4,5.0,22708.0,29470.0,85145.0,66288.0,22555.0,38680.0,35170.0,37921.0,15530.0,12613.0
2026-05-06 16:23:19.561660,784024,1609506862958298,4462870334,0.669536,0.324032,-0.513376,20.615,-77.58625,-53.1125,-33.72,14.608001,-79.096,eccentric,4,5.0,22708.0,29470.0,85145.0,66288.0,22555.0,38680.0,35170.0,37921.0,15530.0,12613.0
2026-05-06 16:23:19.563685,784025,1609506862967310,4462879104,0.646112,0.327936,-0.554368,20.67625,-77.95375,-55.02875,-33.568,14.568001,-79.592,eccentric,4,5.0,22708.0,29470.0,85145.0,66288.0,22555.0,38680.0,35170.0,37921.0,15530.0,12613.0
2026-05-06 16:23:19.566359,784026,1609506862981927,4462894082,0.646112,0.327936,-0.554368,19.6175,-78.26875,-56.93625,-33.568,14.568001,-79.592,eccentric,4,5.0,22708.0,29470.0,85145.0,66288.0,22555.0,38680.0,35170.0,37921.0,15530.0,12613.0
2026-05-06 16:23:19.568828,784027,1609506862990874,4462902865,0.610976,0.320128,-0.499712,19.3025,-78.74125,-58.388752,-33.472,14.128,-80.512,eccentric,4,5.0,22708.0,29470.0,85145.0,66288.0,22555.0,38680.0,35170.0,37921.0,15530.0,12613.0
2026-05-06 16:23:19.582652,784028,1609506863005374,4462917814,0.610976,0.335744,-0.534848,19.022501,-80.1675,-59.87625,-33.472,14.128,-80.512,eccentric,4,5.0,22708.0,29470.0,85145.0,66288.0,22555.0,38680.0,35170.0,37921.0,15530.0,12613.0
2026-05-06 16:23:19.591382,784029,1609506863014309,4462926529,0.640256,0.329888,-0.534848,17.85875,-81.7075,-58.66,-32.760002,14.000001,-81.288,eccentric,4,5.0,22708.0,29470.0,85145.0,66288.0,22555.0,38680.0,35170.0,37921.0,15530.0,12613.0
2026-05-06 16:23:19.625214,784030,1609506863028840,4462941462,0.577792,0.318176,-0.622688,15.785,-84.1575,-56.2625,-33.08,11.944,-80.69601,eccentric,4,5.0,22708.0,29470.0,85145.0,66288.0,22555.0,38680.0,35170.0,37921.0,15530.0,12613.0
2026-05-06 16:23:19.711442,784041,1609506863038324,4462950429,0.577792,0.318176,-0.622688,19.41625,-86.31,-57.9075,-33.08,11.944,-80.69601,eccentric,4,5.0,23956.0,28641.0,85468.0,69542.0,23691.0,37926.0,35412.0,39794.0,16278.0,12288.0
2026-05-06 16:23:19.714037,784042,1609506863047531,4462959188,0.519232,0.310368,-0.503616,26.74,-86.45875,-60.41,-32.960003,12.784,-83.344,eccentric,4,5.0,23956.0,28641.0,85468.0,69542.0,23691.0,37926.0,35412.0,39794.0,16278.0,12288.0
2026-05-06 16:23:19.716495,784043,1609506863062137,4462974223,0.519232,0.310368,-0.503616,30.94,-88.935,-57.54,-32.960003,12.784,-83.344,eccentric,4,5.0,23956.0,28641.0,85468.0,69542.0,23691.0,37926.0,35412.0,39794.0,16278.0,12288.0
2026-05-06 16:23:19.718998,784044,1609506863071074,4462982953,0.51728,0.300608,-0.538752,32.9525,-92.11125,-57.4175,-32.56,12.120001,-83.52801,eccentric,4,5.0,23956.0,28641.0,85468.0,69542.0,23691.0,37926.0,35412.0,39794.0,16278.0,12288.0
2026-05-06 16:23:19.723887,784045,1609506863085548,4462997852,0.51728,0.300608,-0.538752,28.95375,-96.55625,-57.26875,-32.56,12.120001,-83.52801,eccentric,4,5.0,23956.0,28641.0,85468.0,69542.0,23691.0,37926.0,35412.0,39794.0,16278.0,12288.0
2026-05-06 16:23:19.726428,784046,1609506863094501,4463006577,0.44896,0.349408,-0.720288,30.86125,-100.45875,-56.49875,-31.872002,10.736,-81.976006,eccentric,4,5.0,23956.0,28641.0,85468.0,69542.0,23691.0,37926.0,35412.0,39794.0,16278.0,12288.0
2026-05-06 16:23:19.729003,784047,1609506863103439,4463015267,0.44896,0.349408,-0.720288,37.4325,-102.27875,-59.40375,-31.872002,10.736,-81.976006,eccentric,4,5.0,23956.0,28641.0,85468.0,69542.0,23691.0,37926.0,35412.0,39794.0,16278.0,12288.0
2026-05-06 16:23:19.731503,784048,1609506863118038,4463030251,0.325984,0.35136,-0.538752,46.62,-103.74875,-63.603752,-31.384,12.056001,-85.104004,eccentric,4,5.0,23956.0,28641.0,85468.0,69542.0,23691.0,37926.0,35412.0,39794.0,16278.0,12288.0
2026-05-06 16:23:19.733964,784049,1609506863127030,4463039016,0.226432,0.363072,-0.603168,53.8825,-106.7675,-67.725,-31.272001,11.984,-87.448006,eccentric,4,5.0,23956.0,28641.0,85468.0,69542.0,23691.0,37926.0,35412.0,39794.0,16278.0,12288.0
2026-05-06 16:23:19.763859,784060,1609506863141803,4463054022,0.226432,0.363072,-0.603168,46.94375,-112.113754,-69.58,-31.272001,11.984,-87.448006,eccentric,4,5.0,25607.0,28401.0,86657.0,72595.0,25130.0,37708.0,35869.0,41417.0,17219.0,12221.0
2026-05-06 16:23:19.766307,784061,1609506863150885,4463062751,0.238144,0.406016,-0.860832,42.58625,-118.2125,-68.915,-30.184002,11.400001,-86.976006,eccentric,4,5.0,25607.0,28401.0,86657.0,72595.0,25130.0,37708.0,35869.0,41417.0,17219.0,12221.0
2026-05-06 16:23:19.768807,784062,1609506863159916,4463071504,0.238144,0.406016,-0.860832,42.51625,-120.863754,-65.975,-30.184002,11.400001,-86.976006,eccentric,4,5.0,25607.0,28401.0,86657.0,72595.0,25130.0,37708.0,35869.0,41417.0,17219.0,12221.0
2026-05-06 16:23:19.771322,784063,1609506863174442,4463086462,0.232288,0.425536,-0.827648,40.67875,-122.745,-62.08125,-29.968002,11.304001,-85.744,eccentric,4,5.0,25607.0,28401.0,86657.0,72595.0,25130.0,37708.0,35869.0,41417.0,17219.0,12221.0
2026-05-06 16:23:19.773887,784064,1609506863183440,4463095241,0.232288,0.425536,-0.827648,36.015,-124.495,-60.12125,-29.968002,11.304001,-85.744,eccentric,4,5.0,25607.0,28401.0,86657.0,72595.0,25130.0,37708.0,35869.0,41417.0,17219.0,12221.0
2026-05-06 16:23:19.776185,784065,1609506863197966,4463110244,0.158112,0.407968,-0.75152,33.5825,-127.6625,-59.6925,-29.096,10.024,-87.824005,eccentric,4,5.0,25607.0,28401.0,86657.0,72595.0,25130.0,37708.0,35869.0,41417.0,17219.0,12221.0
2026-05-06 16:23:19.785213,784066,1609506863206933,4463119137,0.158112,0.4392,-0.909632,29.741251,-132.23875,-61.81,-29.096,10.024,-87.824005,eccentric,4,5.0,25607.0,28401.0,86657.0,72595.0,25130.0,37708.0,35869.0,41417.0,17219.0,12221.0
2026-05-06 16:23:19.799015,784067,1609506863221516,4463134093,0.173728,0.445056,-0.909632,18.97875,-135.07375,-61.67875,-28.296001,9.112,-88.256004,eccentric,4,5.0,25607.0,28401.0,86657.0,72595.0,25130.0,37708.0,35869.0,41417.0,17219.0,12221.0
2026-05-06 16:23:19.807765,784068,1609506863230483,4463142846,0.160064,0.480192,-0.94672,15.07625,-134.54,-60.2875,-26.592001,10.048,-91.41601,eccentric,4,5.0,25607.0,28401.0,86657.0,72595.0,25130.0,37708.0,35869.0,41417.0,17219.0,12221.0
2026-05-06 16:23:19.837309,784079,1609506863240049,4463151723,0.160064,0.480192,-0.94672,8.96,-134.11125,-59.29875,-26.592001,10.048,-91.41601,eccentric,4,5.0,26077.0,28173.0,87125.0,73243.0,25488.0,37430.0,36041.0,41760.0,17443.0,12115.0
2026-05-06 16:23:19.839530,784080,1609506863254628,4463166765,0.10736,0.523136,-0.938912,0.1225,-135.17,-55.93875,-25.944002,8.0,-91.52801,eccentric,4,5.0,26077.0,28173.0,87125.0,73243.0,25488.0,37430.0,36041.0,41760.0,17443.0,12115.0
2026-05-06 16:23:19.841420,784081,1609506863263572,4463175477,0.10736,0.523136,-0.938912,-4.06875,-136.465,-54.92375,-25.944002,8.0,-91.52801,eccentric,4,5.0,26077.0,28173.0,87125.0,73243.0,25488.0,37430.0,36041.0,41760.0,17443.0,12115.0
2026-05-06 16:23:19.857681,784082,1609506863278082,4463190424,0.021472,0.44896,-0.739808,-0.9275,-139.3875,-56.98875,-24.560001,6.696,-92.16,eccentric,4,5.0,26077.0,28173.0,87125.0,73243.0,25488.0,37430.0,36041.0,41760.0,17443.0,12115.0
2026-05-06 16:23:19.863928,784083,1609506863287029,4463199215,0.021472,0.44896,-0.739808,-8.26875,-146.39626,-63.14875,-24.560001,6.696,-92.16,eccentric,4,5.0,26077.0,28173.0,87125.0,73243.0,25488.0,37430.0,36041.0,41760.0,17443.0,12115.0
2026-05-06 16:23:19.872706,784084,1609506863296134,4463207921,0.003904,0.493856,-0.960384,-20.27375,-150.57,-66.2725,-22.888,8.616,-94.344,eccentric,4,5.0,26077.0,28173.0,87125.0,73243.0,25488.0,37430.0,36041.0,41760.0,17443.0,12115.0
2026-05-06 16:23:19.886415,784085,1609506863310644,4463222853,-0.066368,0.530944,-0.942816,-19.08375,-150.4825,-70.07875,-21.248001,7.608,-97.216,eccentric,4,5.0,26077.0,28173.0,87125.0,73243.0,25488.0,37430.0,36041.0,41760.0,17443.0,12115.0
2026-05-06 16:23:19.896425,784086,1609506863319620,4463231587,-0.066368,0.530944,-0.942816,-18.865,-150.0975,-71.47,-21.248001,7.608,-97.216,eccentric,4,5.0,26077.0,28173.0,87125.0,73243.0,25488.0,37430.0,36041.0,41760.0,17443.0,12115.0
2026-05-06 16:23:19.932696,784087,1609506863334137,4463246522,-0.169824,0.511424,-0.853024,-21.42,-153.09875,-71.77625,-19.640001,4.464,-97.216,eccentric,4,5.0,26077.0,28173.0,87125.0,73243.0,25488.0,37430.0,36041.0,41760.0,17443.0,12115.0
2026-05-06 16:23:19.957588,784098,1609506863343140,4463255314,-0.169824,0.511424,-0.853024,-28.37625,-157.78876,-71.5925,-19.640001,4.464,-97.216,eccentric,4,5.0,26279.0,28535.0,88224.0,73613.0,25644.0,37764.0,36555.0,41913.0,17553.0,12289.0
2026-05-06 16:23:19.960102,784099,1609506863352109,4463264078,-0.257664,0.437248,-0.892064,-31.07125,-163.11751,-72.31875,-17.400002,5.792,-99.552,eccentric,4,5.0,26279.0,28535.0,88224.0,73613.0,25644.0,37764.0,36555.0,41913.0,17553.0,12289.0
2026-05-06 16:23:19.962684,784100,1609506863366729,4463279031,-0.257664,0.437248,-0.892064,-36.00625,-168.25375,-72.2925,-17.400002,5.792,-99.552,eccentric,4,5.0,26279.0,28535.0,88224.0,73613.0,25644.0,37764.0,36555.0,41913.0,17553.0,12289.0
2026-05-06 16:23:19.970227,784101,1609506863375709,4463287798,-0.32208,0.413824,-0.976,-36.4,-171.05376,-70.63,-15.592001,3.064,-100.256004,eccentric,4,5.0,26279.0,28535.0,88224.0,73613.0,25644.0,37764.0,36555.0,41913.0,17553.0,12289.0
2026-05-06 16:23:19.972734,784102,1609506863390216,4463302746,-0.443104,0.427488,-0.911584,-35.0875,-171.22874,-67.585,-12.960001,2.112,-98.952,eccentric,4,5.0,26279.0,28535.0,88224.0,73613.0,25644.0,37764.0,36555.0,41913.0,17553.0,12289.0
2026-05-06 16:23:19.975260,784103,1609506863399224,4463311483,-0.443104,0.427488,-0.911584,-33.1275,-172.0075,-65.1175,-12.960001,2.112,-98.952,eccentric,4,5.0,26279.0,28535.0,88224.0,73613.0,25644.0,37764.0,36555.0,41913.0,17553.0,12289.0
2026-05-06 16:23:20.039953,784104,1609506863413720,4463326417,-0.571936,0.519232,-0.792512,-33.87125,-175.00874,-63.4725,-10.176001,3.48,-103.352005,eccentric,4,5.0,26279.0,28535.0,88224.0,73613.0,25644.0,37764.0,36555.0,41913.0,17553.0,12289.0
2026-05-06 16:23:20.065100,784105,1609506863422628,4463335249,-0.571936,0.519232,-0.792512,-19.74875,-175.42,-60.62875,-10.176001,3.48,-103.352005,eccentric,4,5.0,26279.0,28535.0,88224.0,73613.0,25644.0,37764.0,36555.0,41913.0,17553.0,12289.0
2026-05-06 16:23:20.092662,784106,1609506863431577,4463343952,-0.628544,0.519232,-0.86864,-7.8925,-174.55376,-61.215,-7.568,2.896,-104.28001,eccentric,4,5.0,26279.0,28535.0,88224.0,73613.0,25644.0,37764.0,36555.0,41913.0,17553.0,12289.0
2026-05-06 16:23:20.135057,784117,1609506863446637,4463359018,-0.628544,0.519232,-0.86864,-20.545,-176.785,-62.5975,-7.568,2.896,-104.28001,eccentric,4,5.0,26436.0,28949.0,91566.0,73723.0,25788.0,38169.0,38151.0,41936.0,17659.0,12497.0
2026-05-06 16:23:20.137566,784118,1609506863455600,4463367749,-0.579744,0.464576,-0.9272,-26.85375,-178.47375,-64.47875,-4.68,1.888,-104.80801,eccentric,4,5.0,26436.0,28949.0,91566.0,73723.0,25788.0,38169.0,38151.0,41936.0,17659.0,12497.0
2026-05-06 16:23:20.140096,784119,1609506863470084,4463382649,-0.677344,0.41968,-0.837408,-29.56625,-179.2175,-65.75625,-1.456,1.72,-105.824005,eccentric,4,5.0,26436.0,28949.0,91566.0,73723.0,25788.0,38169.0,38151.0,41936.0,17659.0,12497.0
2026-05-06 16:23:20.142405,784120,1609506863478990,4463391339,-0.677344,0.41968,-0.837408,-24.5,-180.29375,-66.47375,-1.456,1.72,-105.824005,eccentric,4,5.0,26436.0,28949.0,91566.0,73723.0,25788.0,38169.0,38151.0,41936.0,17659.0,12497.0
2026-05-06 16:23:20.145119,784121,1609506863488040,4463400102,-0.677344,0.41968,-0.837408,-11.45375,-181.3175,-66.08,-1.456,1.72,-105.824005,eccentric,4,5.0,26436.0,28949.0,91566.0,73723.0,25788.0,38169.0,38151.0,41936.0,17659.0,12497.0
2026-05-06 16:23:20.147612,784122,1609506863502531,4463415048,-0.767136,0.474336,-0.786656,-1.82,-184.37125,-64.05,2.112,1.464,-106.12,eccentric,4,5.0,26436.0,28949.0,91566.0,73723.0,25788.0,38169.0,38151.0,41936.0,17659.0,12497.0
2026-05-06 16:23:20.150136,784123,1609506863511461,4463423742,-0.796416,0.509472,-0.85888,7.98875,-183.49625,-63.25375,5.064,2.144,-106.200005,eccentric,4,5.0,26436.0,28949.0,91566.0,73723.0,25788.0,38169.0,38151.0,41936.0,17659.0,12497.0
2026-05-06 16:23:20.152635,784124,1609506863525960,4463438648,-0.796416,0.509472,-0.85888,9.24875,-179.795,-62.09,5.064,2.144,-106.200005,eccentric,4,5.0,26436.0,28949.0,91566.0,73723.0,25788.0,38169.0,38151.0,41936.0,17659.0,12497.0
2026-05-06 16:23:20.155157,784125,1609506863534904,4463447510,-0.835456,0.491904,-0.808128,2.24875,-176.68875,-60.025,8.008,1.568,-106.256004,eccentric,4,5.0,26436.0,28949.0,91566.0,73723.0,25788.0,38169.0,38151.0,41936.0,17659.0,12497.0
2026-05-06 16:23:20.187727,784136,1609506863549562,4463460479,-0.835456,0.425536,-0.823744,2.28375,-173.9325,-59.43,8.008,1.568,-106.256004,eccentric,4,5.0,26632.0,29612.0,95010.0,73331.0,25924.0,38771.0,39772.0,41657.0,17771.0,12777.0
2026-05-06 16:23:20.190237,784137,1609506863558948,4463471379,-0.880352,0.425536,-0.823744,5.50375,-173.90625,-59.99875,11.200001,0.344,-102.90401,eccentric,4,5.0,26632.0,29612.0,95010.0,73331.0,25924.0,38771.0,39772.0,41657.0,17771.0,12777.0
2026-05-06 16:23:20.192695,784138,1609506863567922,4463480226,-0.880352,0.425536,-0.823744,10.8675,-173.2325,-60.1475,11.200001,0.344,-102.90401,eccentric,4,5.0,26632.0,29612.0,95010.0,73331.0,25924.0,38771.0,39772.0,41657.0,17771.0,12777.0
2026-05-06 16:23:20.195224,784139,1609506863582649,4463495245,-0.911584,0.501664,-0.75152,18.40125,-170.485,-60.38375,14.424001,2.648,-103.976006,eccentric,4,5.0,26632.0,29612.0,95010.0,73331.0,25924.0,38771.0,39772.0,41657.0,17771.0,12777.0
2026-05-06 16:23:20.197772,784140,1609506863591714,4463504060,-0.929152,0.540704,-0.755424,17.15,-169.39125,-61.005,16.912,3.032,-104.80801,eccentric,4,5.0,26632.0,29612.0,95010.0,73331.0,25924.0,38771.0,39772.0,41657.0,17771.0,12777.0
2026-05-06 16:23:20.200234,784141,1609506863606245,4463519011,-0.929152,0.540704,-0.755424,10.29875,-168.56,-61.81875,16.912,3.032,-104.80801,eccentric,4,5.0,26632.0,29612.0,95010.0,73331.0,25924.0,38771.0,39772.0,41657.0,17771.0,12777.0
2026-05-06 16:23:20.202752,784142,1609506863615171,4463527724,-0.952576,0.4392,-0.749568,6.13375,-166.6,-62.02875,19.344002,3.688,-103.992004,eccentric,4,5.0,26632.0,29612.0,95010.0,73331.0,25924.0,38771.0,39772.0,41657.0,17771.0,12777.0
2026-05-06 16:23:20.205232,784143,1609506863624148,4463536544,-0.952576,0.4392,-0.749568,4.0775,-165.0425,-61.6,19.344002,3.688,-103.992004,eccentric,4,5.0,26632.0,29612.0,95010.0,73331.0,25924.0,38771.0,39772.0,41657.0,17771.0,12777.0
2026-05-06 16:23:20.238825,784154,1609506863639123,4463551888,-0.964288,0.368928,-0.698816,5.76625,-162.37375,-59.920002,22.144001,3.928,-103.344,eccentric,4,5.0,26785.0,30335.0,98737.0,72656.0,26022.0,39331.0,41577.0,41211.0,17846.0,13118.0
2026-05-06 16:23:20.241324,784155,1609506863648206,4463560677,-0.964288,0.368928,-0.698816,7.6825,-160.90375,-58.00375,22.144001,3.928,-103.344,eccentric,4,5.0,26785.0,30335.0,98737.0,72656.0,26022.0,39331.0,41577.0,41211.0,17846.0,13118.0
2026-05-06 16:23:20.243878,784156,1609506863662788,4463573604,-1.05408,0.454816,-0.642208,9.4325,-159.32,-57.015,24.576,1.056,-101.344,eccentric,4,5.0,26785.0,30335.0,98737.0,72656.0,26022.0,39331.0,41577.0,41211.0,17846.0,13118.0
2026-05-06 16:23:20.250099,784157,1609506863672069,4463584440,-1.065792,0.456768,-0.593408,11.96125,-155.56625,-55.1425,27.072,3.256,-98.28001,eccentric,4,5.0,26785.0,30335.0,98737.0,72656.0,26022.0,39331.0,41577.0,41211.0,17846.0,13118.0
2026-05-06 16:23:20.256358,784158,1609506863681010,4463593202,-1.065792,0.456768,-0.593408,5.15375,-153.44875,-54.565,27.072,3.256,-98.28001,eccentric,4,5.0,26785.0,30335.0,98737.0,72656.0,26022.0,39331.0,41577.0,41211.0,17846.0,13118.0
2026-05-06 16:23:20.280240,784159,1609506863695505,4463608138,-1.085312,0.396256,-0.636352,-2.51125,-150.5175,-54.64375,29.288002,5.048,-98.896,eccentric,4,5.0,26785.0,30335.0,98737.0,72656.0,26022.0,39331.0,41577.0,41211.0,17846.0,13118.0
2026-05-06 16:23:20.282541,784160,1609506863704416,4463616834,-1.085312,0.396256,-0.636352,-6.615,-145.66125,-53.235,29.288002,5.048,-98.896,eccentric,4,5.0,26785.0,30335.0,98737.0,72656.0,26022.0,39331.0,41577.0,41211.0,17846.0,13118.0
2026-05-06 16:23:20.296284,784161,1609506863718970,4463629848,-1.106784,0.40992,-0.61488,-5.10125,-139.81625,-50.98625,31.184002,4.008,-98.05601,eccentric,4,5.0,26785.0,30335.0,98737.0,72656.0,26022.0,39331.0,41577.0,41211.0,17846.0,13118.0
2026-05-06 16:23:20.305175,784162,1609506863728463,4463640705,-1.106784,0.40992,-0.61488,-5.34625,-133.595,-49.34125,31.184002,4.008,-98.05601,eccentric,4,5.0,26785.0,30335.0,98737.0,72656.0,26022.0,39331.0,41577.0,41211.0,17846.0,13118.0
2026-05-06 16:23:20.316133,784163,1609506863737479,4463649449,-1.065792,0.388448,-0.591456,-10.9725,-128.6425,-47.71375,33.24,6.432,-98.136,eccentric,4,5.0,26785.0,30335.0,98737.0,72656.0,26022.0,39331.0,41577.0,41211.0,17846.0,13118.0
2026-05-06 16:23:20.341445,784174,1609506863752039,4463664420,-1.089216,0.359168,-0.591456,-17.29875,-124.11,-47.6875,34.888,6.616,-97.368004,eccentric,4,5.0,26866.0,30742.0,99791.0,72315.0,26111.0,39715.0,42116.0,41017.0,17920.0,13290.0
2026-05-06 16:23:20.343929,784175,1609506863761018,4463673202,-1.089216,0.359168,-0.591456,-22.49625,-118.8425,-48.2475,34.888,6.616,-97.368004,eccentric,4,5.0,26866.0,30742.0,99791.0,72315.0,26111.0,39715.0,42116.0,41017.0,17920.0,13290.0
2026-05-06 16:23:20.352761,784176,1609506863775536,4463688243,-1.100928,0.40992,-0.530944,-29.23375,-113.1375,-48.72,35.952003,6.824,-96.304,eccentric,4,5.0,26866.0,30742.0,99791.0,72315.0,26111.0,39715.0,42116.0,41017.0,17920.0,13290.0
2026-05-06 16:23:20.361491,784177,1609506863784434,4463696933,-1.100928,0.40992,-0.530944,-38.19375,-107.38,-48.88625,35.952003,6.824,-96.304,eccentric,4,5.0,26866.0,30742.0,99791.0,72315.0,26111.0,39715.0,42116.0,41017.0,17920.0,13290.0
2026-05-06 16:23:20.391470,784178,1609506863799073,4463709948,-1.04432,0.402112,-0.509472,-46.83875,-101.465004,-49.07875,36.824,6.056,-96.4,eccentric,4,5.0,26866.0,30742.0,99791.0,72315.0,26111.0,39715.0,42116.0,41017.0,17920.0,13290.0
2026-05-06 16:23:20.416543,784179,1609506863808560,4463720806,-1.04432,0.402112,-0.509472,-53.760002,-95.40125,-48.982502,36.824,6.056,-96.4,eccentric,4,5.0,26866.0,30742.0,99791.0,72315.0,26111.0,39715.0,42116.0,41017.0,17920.0,13290.0
2026-05-06 16:23:20.431337,784180,1609506863817541,4463729544,-0.983808,0.210816,-0.521184,-60.1825,-89.355,-47.04875,37.800003,5.576,-95.048004,eccentric,4,5.0,26866.0,30742.0,99791.0,72315.0,26111.0,39715.0,42116.0,41017.0,17920.0,13290.0
2026-05-06 16:23:20.433717,784181,1609506863831996,4463744451,-1.042368,0.240096,-0.47824,-62.27375,-81.94375,-43.715,37.800003,6.192,-93.8,eccentric,4,5.0,26866.0,30742.0,99791.0,72315.0,26111.0,39715.0,42116.0,41017.0,17920.0,13290.0
2026-05-06 16:23:20.464049,784192,1609506863841489,4463753270,-1.042368,0.240096,-0.47824,-55.3525,-72.63375,-37.35375,38.368,6.192,-93.8,eccentric,4,5.0,26644.0,29651.0,96150.0,73585.0,25918.0,38790.0,40293.0,41725.0,17777.0,12814.0
2026-05-06 16:23:20.466522,784193,1609506863850563,4463762160,-1.042368,0.240096,-0.47824,-47.04875,-63.39375,-33.0925,38.368,6.192,-93.8,eccentric,4,5.0,26644.0,29651.0,96150.0,73585.0,25918.0,38790.0,40293.0,41725.0,17777.0,12814.0
2026-05-06 16:23:20.469069,784194,1609506863865191,4463777102,-1.08336,0.388448,-0.491904,-41.5975,-57.37375,-29.70625,39.008003,5.856,-94.47201,eccentric,4,5.0,26644.0,29651.0,96150.0,73585.0,25918.0,38790.0,40293.0,41725.0,17777.0,12814.0
2026-05-06 16:23:20.471497,784195,1609506863874130,4463785912,-1.040416,0.406016,-0.423584,-41.22125,-53.585,-25.97875,39.480003,4.032,-90.52801,eccentric,4,5.0,26644.0,29651.0,96150.0,73585.0,25918.0,38790.0,40293.0,41725.0,17777.0,12814.0
