pc_time,serial_num,sensor_ts,host_ts,ax,ay,az,gx,gy,gz,mx,my,mz,phase,rpe,weight_kg,ppg_a,ppg_b,ppg_c,ppg_d,ppg_e
2026-04-07 17:50:53.968920,243286,1324339317,1324341255,-1.202432,0.101504,-0.035136,8.14625,9.6425,-11.025,45.24,8.736,30.376001,concentric,4,3.0,21094.0,310032.0,280553.0,330986.0,291276.0
2026-04-07 17:50:54.021947,243297,1324348309,1324350033,-1.202432,0.101504,-0.035136,7.90125,9.6775,-12.99375,45.24,8.736,30.376001,concentric,4,3.0,20802.0,306792.0,277593.0,327476.0,288308.0
2026-04-07 17:50:54.023285,243298,1324362812,1324364981,-1.167296,0.072224,-0.040992,5.34625,10.21125,-16.17,45.232002,8.792001,30.536001,concentric,4,3.0,20802.0,306792.0,277593.0,327476.0,288308.0
2026-04-07 17:50:54.027427,243299,1324371848,1324373716,-1.167296,0.072224,-0.040992,1.54,9.73875,-19.31125,45.232002,8.792001,30.536001,concentric,4,3.0,20802.0,306792.0,277593.0,327476.0,288308.0
2026-04-07 17:50:54.029173,243300,1324380814,1324382420,-1.196576,0.033184,-0.02928,1.65375,10.07125,-22.14625,44.328003,8.68,32.648003,concentric,4,3.0,20802.0,306792.0,277593.0,327476.0,288308.0
2026-04-07 17:50:54.032089,243301,1324395463,1324397321,-1.20048,0.0488,-0.052704,2.94875,10.823751,-23.9575,43.904003,8.976001,30.376001,concentric,4,3.0,20802.0,306792.0,277593.0,327476.0,288308.0
2026-04-07 17:50:54.034901,243302,1324404371,1324406008,-1.20048,0.0488,-0.052704,3.8675,10.78875,-25.31375,43.904003,8.976001,30.376001,concentric,4,3.0,20802.0,306792.0,277593.0,327476.0,288308.0
2026-04-07 17:50:54.036596,243303,1324413304,1324414732,-1.20048,0.0488,-0.052704,4.8825,11.41875,-27.58,43.904003,8.976001,30.376001,concentric,4,3.0,20802.0,306792.0,277593.0,327476.0,288308.0
2026-04-07 17:50:54.038212,243304,1324427805,1324429639,-1.206336,0.064416,-0.070272,8.47875,13.0725,-27.58,44.416,9.472,30.968002,concentric,4,3.0,20802.0,306792.0,277593.0,327476.0,288308.0
2026-04-07 17:50:54.044910,243305,1324436795,1324438373,-1.206336,0.054656,-0.062464,9.42375,12.9675,-27.85125,43.328003,9.784,31.400002,concentric,4,3.0,20802.0,306792.0,277593.0,327476.0,288308.0
2026-04-07 17:50:54.105583,243315,1324446082,1324447419,-1.206336,0.054656,-0.062464,7.5425,12.915,-30.07375,43.328003,9.784,31.400002,concentric,4,3.0,20432.0,303432.0,274942.0,324876.0,286430.0
2026-04-07 17:50:54.109973,243316,1324455291,1324456171,-1.225856,0.06832,-0.052704,7.6825,13.09875,-31.96375,44.552002,10.440001,30.832,concentric,4,3.0,20432.0,303432.0,274942.0,324876.0,286430.0
2026-04-07 17:50:54.112071,243317,1324469779,1324471133,-1.225856,0.06832,-0.052704,8.39125,11.9525,-32.59375,44.552002,10.440001,30.832,concentric,4,3.0,20432.0,303432.0,274942.0,324876.0,286430.0
2026-04-07 17:50:54.113210,243318,1324478741,1324479825,-1.247328,0.109312,-0.113216,9.17875,10.7975,-33.60875,43.344,10.872001,30.264002,concentric,4,3.0,20432.0,303432.0,274942.0,324876.0,286430.0
2026-04-07 17:50:54.117385,243319,1324487733,1324488507,-1.247328,0.109312,-0.113216,9.8,10.9025,-35.13125,43.344,10.872001,30.264002,concentric,4,3.0,20432.0,303432.0,274942.0,324876.0,286430.0
2026-04-07 17:50:54.119087,243320,1324502233,1324503502,-1.284416,0.072224,-0.10736,11.59375,11.50625,-37.415,42.968002,11.392,30.320002,concentric,4,3.0,20432.0,303432.0,274942.0,324876.0,286430.0
2026-04-07 17:50:54.120682,243321,1324511176,1324512255,-1.284416,0.072224,-0.10736,14.46375,11.9875,-38.08,42.968002,11.392,30.320002,concentric,4,3.0,20432.0,303432.0,274942.0,324876.0,286430.0
2026-04-07 17:50:54.127342,243322,1324520222,1324520957,-1.257088,0.011712,-0.081984,14.70875,10.5175,-38.9025,42.336002,11.360001,30.752,concentric,4,3.0,20432.0,303432.0,274942.0,324876.0,286430.0
2026-04-07 17:50:54.155872,243323,1324529640,1324531729,-1.257088,0.011712,-0.081984,13.46625,9.52875,-40.425,42.336002,11.360001,30.752,concentric,4,3.0,20432.0,303432.0,274942.0,324876.0,286430.0
2026-04-07 17:50:54.186601,243333,1324544163,1324544563,-1.225856,0.00976,-0.052704,13.658751,8.51375,-40.71375,42.112003,12.120001,30.512001,concentric,4,3.0,20148.0,300832.0,272977.0,323104.0,285501.0
2026-04-07 17:50:54.188710,243334,1324553458,1324555267,-1.225856,0.00976,-0.052704,15.28625,8.89875,-41.0025,42.112003,12.120001,30.512001,concentric,4,3.0,20148.0,300832.0,272977.0,323104.0,285501.0
2026-04-07 17:50:54.192754,243335,1324562485,1324563964,-1.198528,0.040992,-0.031232,16.19625,9.8525,-41.2125,41.976,12.408001,31.224,concentric,4,3.0,20148.0,300832.0,272977.0,323104.0,285501.0
2026-04-07 17:50:54.194104,243336,1324577116,1324578892,-1.149728,0.052704,-0.035136,16.205,10.59625,-42.1925,40.800003,13.208,30.624,concentric,4,3.0,20148.0,300832.0,272977.0,323104.0,285501.0
2026-04-07 17:50:54.195698,243337,1324586077,1324587610,-1.149728,0.052704,-0.035136,15.72375,10.7625,-42.95375,40.800003,13.208,30.624,concentric,4,3.0,20148.0,300832.0,272977.0,323104.0,285501.0
2026-04-07 17:50:54.202257,243338,1324595064,1324596299,-1.136064,0.052704,-0.001952,14.21,10.9375,-42.735,40.800003,13.208,30.352001,concentric,4,3.0,20148.0,300832.0,272977.0,323104.0,285501.0
2026-04-07 17:50:54.230874,243339,1324603962,1324605033,-1.136064,0.052704,-0.001952,11.698751,11.7075,-43.785,40.920002,13.200001,30.352001,concentric,4,3.0,20148.0,300832.0,272977.0,323104.0,285501.0
2026-04-07 17:50:54.235344,243340,1324618437,1324619921,-1.120448,0.070272,-0.02928,11.75125,12.36375,-43.82875,40.392002,13.592001,30.584002,concentric,4,3.0,20148.0,300832.0,272977.0,323104.0,285501.0
2026-04-07 17:50:54.236895,243341,1324627365,1324628676,-1.120448,0.070272,-0.02928,12.4075,12.60875,-44.2225,40.392002,13.592001,30.584002,concentric,4,3.0,20148.0,300832.0,272977.0,323104.0,285501.0
2026-04-07 17:50:54.243541,243342,1324636293,1324637407,-1.118496,0.070272,0.023424,12.78375,14.04375,-44.86125,39.760002,13.928,31.576002,concentric,4,3.0,20148.0,300832.0,272977.0,323104.0,285501.0
2026-04-07 17:50:54.303668,243353,1324650816,1324652405,-1.118496,0.070272,0.023424,11.6725,15.68,-45.2375,39.760002,13.928,31.576002,concentric,4,3.0,19817.0,297438.0,270106.0,320070.0,283411.0
2026-04-07 17:50:54.305465,243354,1324659771,1324661098,-1.087264,0.0488,0.007808,9.625,16.40625,-44.73,39.872,14.968,30.552002,concentric,4,3.0,19817.0,297438.0,270106.0,320070.0,283411.0
2026-04-07 17:50:54.306938,243355,1324668695,1324669764,-1.087264,0.0488,0.007808,5.075,16.02125,-43.91625,39.872,14.968,30.552002,concentric,4,3.0,19817.0,297438.0,270106.0,320070.0,283411.0
2026-04-07 17:50:54.311234,243356,1324683230,1324684676,-1.08336,0.02928,-0.007808,3.885,16.31,-42.9625,38.688004,15.304001,31.008001,concentric,4,3.0,19817.0,297438.0,270106.0,320070.0,283411.0
2026-04-07 17:50:54.312873,243357,1324692168,1324693409,-1.08336,0.02928,-0.007808,6.02875,16.72125,-43.44375,38.688004,15.304001,31.008001,concentric,4,3.0,19817.0,297438.0,270106.0,320070.0,283411.0
2026-04-07 17:50:54.314447,243358,1324701072,1324702148,-1.134112,0.035136,-0.072224,5.53875,15.09375,-42.42875,37.872,14.784,32.808002,concentric,4,3.0,19817.0,297438.0,270106.0,320070.0,283411.0
2026-04-07 17:50:54.345619,243359,1324715586,1324717128,-1.110688,0.052704,-0.132736,5.90625,12.1975,-39.82125,37.872,14.784,30.680002,concentric,4,3.0,19817.0,297438.0,270106.0,320070.0,283411.0
2026-04-07 17:50:54.347834,243360,1324724506,1324725829,-1.110688,0.052704,-0.132736,8.9075,8.8375,-39.61125,37.4,15.384001,30.680002,concentric,4,3.0,19817.0,297438.0,270106.0,320070.0,283411.0
2026-04-07 17:50:54.352967,243361,1324733403,1324734510,-1.110688,0.052704,-0.132736,11.29625,6.1075,-39.1125,37.4,15.384001,30.680002,concentric,4,3.0,19817.0,297438.0,270106.0,320070.0,283411.0
2026-04-07 17:50:54.355642,243362,1324742317,1324743220,-1.128256,0.095648,-0.109312,14.98875,4.865,-39.2175,38.280003,15.752001,30.36,concentric,4,3.0,19817.0,297438.0,270106.0,320070.0,283411.0
2026-04-07 17:50:54.419096,243372,1324756907,1324758251,-1.182912,0.072224,-0.025376,20.34375,4.13,-40.215,37.304,16.512001,32.168003,concentric,4,3.0,19667.0,295998.0,268954.0,319068.0,283090.0
2026-04-07 17:50:54.420907,243373,1324765820,1324766903,-1.182912,0.072224,-0.025376,20.1775,3.61375,-41.58,37.304,16.512001,32.168003,concentric,4,3.0,19667.0,295998.0,268954.0,319068.0,283090.0
2026-04-07 17:50:54.424834,243374,1324774727,1324775628,-1.182912,0.072224,-0.025376,17.5525,3.1675,-41.44875,37.304,16.512001,32.168003,concentric,4,3.0,19667.0,295998.0,268954.0,319068.0,283090.0
2026-04-07 17:50:54.430436,243375,1324789201,1324790551,-1.18096,-0.003904,-0.02928,12.52125,0.86625,-40.92375,36.264,16.032001,31.560001,concentric,4,3.0,19667.0,295998.0,268954.0,319068.0,283090.0
2026-04-07 17:50:54.432451,243376,1324798123,1324799231,-1.106784,-0.033184,-0.091744,7.7175,-1.07625,-40.94125,35.928,16.544,32.280003,concentric,4,3.0,19667.0,295998.0,268954.0,319068.0,283090.0
2026-04-07 17:50:54.436158,243377,1324807048,1324808016,-1.106784,-0.033184,-0.091744,5.495,-1.3125,-39.6725,35.928,16.544,32.280003,concentric,4,3.0,19667.0,295998.0,268954.0,319068.0,283090.0
2026-04-07 17:50:54.437910,243378,1324821577,1324822942,-1.04432,-0.064416,0.0,6.88625,0.875,-38.56125,35.256,16.936,31.872002,concentric,4,3.0,19667.0,295998.0,268954.0,319068.0,283090.0
2026-04-07 17:50:54.439548,243379,1324830527,1324831623,-1.04432,-0.064416,0.0,5.17125,2.10875,-37.975,35.256,16.936,31.872002,concentric,4,3.0,19667.0,295998.0,268954.0,319068.0,283090.0
2026-04-07 17:50:54.447411,243380,1324839429,1324840331,-1.050176,-0.007808,-0.052704,-0.95375,1.74125,-35.97125,34.752003,16.456001,30.720001,concentric,4,3.0,19667.0,295998.0,268954.0,319068.0,283090.0
2026-04-07 17:50:54.474857,243390,1324854369,1324855361,-1.050176,-0.007808,-0.052704,0.49,1.54875,-35.13125,34.752003,16.456001,30.720001,concentric,4,3.0,19636.0,295757.0,268835.0,319087.0,283281.0
2026-04-07 17:50:54.476678,243391,1324863303,1324864120,-1.065792,0.056608,-0.060512,7.0,2.40625,-34.01125,34.192,17.256,31.136002,concentric,4,3.0,19636.0,295757.0,268835.0,319087.0,283281.0
2026-04-07 17:50:54.479031,243392,1324872245,1324872840,-1.065792,0.056608,-0.060512,11.05125,2.70375,-34.01125,34.192,17.256,31.136002,concentric,4,3.0,19636.0,295757.0,268835.0,319087.0,283281.0
2026-04-07 17:50:54.509297,243393,1324881492,1324883599,-0.950624,-0.076128,-0.040992,6.16,1.8025,-35.8925,34.024002,16.968,31.648,concentric,4,3.0,19636.0,295757.0,268835.0,319087.0,283281.0
2026-04-07 17:50:54.513657,243394,1324895967,1324896464,-0.950624,-0.138592,-0.01952,-1.32125,0.70875,-36.37375,34.024002,16.968,31.648,concentric,4,3.0,19636.0,295757.0,268835.0,319087.0,283281.0
2026-04-07 17:50:54.515248,243395,1324905411,1324907250,-0.872544,-0.13664,-0.01952,-1.435,1.295,-36.2075,33.976,17.472,30.400002,concentric,4,3.0,19636.0,295757.0,268835.0,319087.0,283281.0
2026-04-07 17:50:54.545506,243396,1324914332,1324915953,-0.872544,-0.13664,-0.01952,0.28875,2.00375,-36.46125,33.976,17.472,30.400002,concentric,4,3.0,19636.0,295757.0,268835.0,319087.0,283281.0
2026-04-07 17:50:54.549907,243397,1324928818,1324930822,-0.929152,-0.042944,-0.007808,3.3775,2.345,-36.26875,32.984,17.480001,31.016,concentric,4,3.0,19636.0,295757.0,268835.0,319087.0,283281.0
2026-04-07 17:50:54.551623,243398,1324937758,1324939518,-0.86864,-0.042944,-0.023424,8.4875,3.71,-34.64125,32.792,17.656,28.848001,concentric,4,3.0,19636.0,295757.0,268835.0,319087.0,283281.0
2026-04-07 17:50:54.583732,243409,1324947097,1324948691,-0.86864,-0.042944,-0.023424,8.3475,4.03375,-33.425,32.792,17.656,28.848001,concentric,4,3.0,19641.0,296012.0,269063.0,319330.0,283478.0
2026-04-07 17:50:54.585412,243410,1324956198,1324957524,-0.86864,-0.042944,0.025376,1.75,4.2175,-31.70125,32.792,17.656,28.848001,concentric,4,3.0,19641.0,296012.0,269063.0,319330.0,283478.0
2026-04-07 17:50:54.587847,243411,1324970745,1324972459,-0.728096,-0.128832,0.025376,-4.5325,4.61125,-31.19375,31.840002,17.144001,30.968002,concentric,4,3.0,19641.0,296012.0,269063.0,319330.0,283478.0
2026-04-07 17:50:54.589342,243412,1324979671,1324981159,-0.6832,-0.142496,0.052704,-6.69375,5.7575,-30.695,32.256,17.84,30.312002,concentric,4,3.0,19641.0,296012.0,269063.0,319330.0,283478.0
2026-04-07 17:50:54.597309,243413,1324988624,1324989879,-0.6832,-0.142496,0.052704,-7.665,7.3325,-28.65625,32.256,17.84,30.312002,concentric,4,3.0,19641.0,296012.0,269063.0,319330.0,283478.0
2026-04-07 17:50:54.681896,243414,1325003122,1325004905,-0.671488,-0.08784,0.003904,-9.24875,7.9275,-26.022501,31.512001,17.296001,31.856,concentric,4,3.0,19641.0,296012.0,269063.0,319330.0,283478.0
2026-04-07 17:50:54.684258,243415,1325012033,1325013606,-0.671488,-0.08784,0.003904,-8.5925,5.97625,-22.35625,31.512001,17.296001,31.856,concentric,4,3.0,19641.0,296012.0,269063.0,319330.0,283478.0
2026-04-07 17:50:54.701235,243416,1325020978,1325022300,-0.671488,0.003904,-0.044896,-4.41875,4.34,-17.2025,31.992,17.696001,30.328001,concentric,4,3.0,19641.0,296012.0,269063.0,319330.0,283478.0
2026-04-07 17:50:54.702866,243417,1325029892,1325030985,-0.671488,0.003904,-0.044896,0.2625,2.5025,-15.417501,31.992,17.696001,30.328001,concentric,4,3.0,19641.0,296012.0,269063.0,319330.0,283478.0
2026-04-07 17:50:54.704448,243418,1325044406,1325045941,-0.552416,-0.093696,-0.015616,1.1375,1.19875,-15.8725,32.136,18.160002,30.616001,concentric,4,3.0,19641.0,296012.0,269063.0,319330.0,283478.0
2026-04-07 17:50:54.739940,243428,1325053392,1325054709,-0.552416,-0.093696,-0.015616,-2.37125,-0.175,-15.408751,32.136,18.160002,30.616001,eccentric,4,3.0,19846.0,297983.0,270647.0,320692.0,284103.0
2026-04-07 17:50:54.741873,243429,1325062370,1325063389,-0.607072,-0.13664,0.0,-6.0375,-2.87875,-9.8175,31.504002,17.888,30.648,eccentric,4,3.0,19846.0,297983.0,270647.0,320692.0,284103.0
2026-04-07 17:50:54.743433,243430,1325076853,1325078272,-0.607072,-0.0976,-0.017568,-5.15375,-5.06625,-3.31625,31.504002,17.888,30.648,eccentric,4,3.0,19846.0,297983.0,270647.0,320692.0,284103.0
2026-04-07 17:50:54.751285,243431,1325085898,1325086989,-0.622688,-0.0976,-0.017568,0.595,-6.8075,-0.07,31.960001,17.608002,31.480001,eccentric,4,3.0,19846.0,297983.0,270647.0,320692.0,284103.0
2026-04-07 17:50:54.753675,243432,1325094813,1325095697,-0.622688,-0.0976,-0.017568,4.655,-8.12875,3.3425,31.960001,17.608002,31.480001,eccentric,4,3.0,19846.0,297983.0,270647.0,320692.0,284103.0
2026-04-07 17:50:54.754639,243433,1325109322,1325110628,-0.591456,-0.074176,-0.021472,3.605,-8.61,7.0525,31.976002,17.904001,30.880001,eccentric,4,3.0,19846.0,297983.0,270647.0,320692.0,284103.0
2026-04-07 17:50:54.758678,243434,1325118308,1325119384,-0.665632,-0.083936,0.013664,2.09125,-7.69125,11.87375,31.584002,17.576,32.608,eccentric,4,3.0,19846.0,297983.0,270647.0,320692.0,284103.0
2026-04-07 17:50:54.760440,243435,1325127351,1325128082,-0.665632,-0.083936,0.013664,1.365,-6.23,15.54,31.584002,17.576,32.608,eccentric,4,3.0,19846.0,297983.0,270647.0,320692.0,284103.0
2026-04-07 17:50:54.761948,243436,1325136796,1325138936,-0.665632,-0.083936,0.013664,-0.9975,-6.04625,18.20875,31.584002,17.576,32.608,eccentric,4,3.0,19846.0,297983.0,270647.0,320692.0,284103.0
2026-04-07 17:50:54.791639,243446,1325151595,1325151919,-0.724192,-0.076128,-0.03904,-1.3825,-7.735,22.14625,32.624,17.384,30.912,eccentric,4,3.0,19947.0,299332.0,271881.0,322017.0,285073.0
2026-04-07 17:50:54.793174,243447,1325160796,1325162720,-0.685152,-0.095648,-0.052704,0.20125,-8.65375,24.7275,32.784,17.296001,31.672,eccentric,4,3.0,19947.0,299332.0,271881.0,322017.0,285073.0
2026-04-07 17:50:54.797384,243448,1325169695,1325171464,-0.685152,-0.095648,-0.052704,1.72375,-7.98875,25.52375,32.784,17.296001,31.672,eccentric,4,3.0,19947.0,299332.0,271881.0,322017.0,285073.0
2026-04-07 17:50:54.799141,243449,1325184237,1325186343,-0.732,-0.095648,-0.001952,0.665,-7.2975,28.27125,33.664,17.432001,31.208002,eccentric,4,3.0,19947.0,299332.0,271881.0,322017.0,285073.0
2026-04-07 17:50:54.800635,243450,1325193190,1325195084,-0.732,-0.095648,-0.001952,-1.95125,-6.3175,31.29875,33.664,17.432001,31.208002,eccentric,4,3.0,19947.0,299332.0,271881.0,322017.0,285073.0
2026-04-07 17:50:54.832438,243451,1325202203,1325203800,-0.792512,-0.081984,-0.060512,-5.845,-5.9675,33.95,34.416,16.896,30.296001,eccentric,4,3.0,19947.0,299332.0,271881.0,322017.0,285073.0
2026-04-07 17:50:54.835858,243452,1325211156,1325212517,-0.792512,-0.081984,-0.060512,-5.95,-4.725,36.86375,34.416,16.896,30.296001,eccentric,4,3.0,19947.0,299332.0,271881.0,322017.0,285073.0
2026-04-07 17:50:54.842529,243453,1325225659,1325227401,-0.7808,-0.080032,-0.025376,-4.375,-4.0075,39.66375,34.264,16.816,30.448002,eccentric,4,3.0,19947.0,299332.0,271881.0,322017.0,285073.0
2026-04-07 17:50:54.844013,243454,1325234576,1325236103,-0.7808,-0.080032,-0.025376,-3.89375,-2.37125,38.7975,34.264,16.816,30.448002,eccentric,4,3.0,19947.0,299332.0,271881.0,322017.0,285073.0
2026-04-07 17:50:54.851046,243455,1325243569,1325244898,-0.788608,-0.072224,-0.023424,-2.37125,-1.26,38.31625,34.68,15.928,32.440002,eccentric,4,3.0,19947.0,299332.0,271881.0,322017.0,285073.0
2026-04-07 17:50:54.878768,243466,1325258203,1325259919,-0.792512,-0.064416,-0.083936,-6.3525,-1.49625,39.865,34.68,15.760001,32.384003,eccentric,4,3.0,20394.0,303393.0,275270.0,325409.0,287267.0
2026-04-07 17:50:54.880245,243467,1325267295,1325268758,-0.792512,-0.064416,-0.083936,-11.3575,-1.1725,39.68125,34.640003,15.760001,32.384003,eccentric,4,3.0,20394.0,303393.0,275270.0,325409.0,287267.0
2026-04-07 17:50:54.883979,243468,1325276226,1325277607,-0.792512,-0.064416,-0.083936,-13.86875,-0.175,38.49125,34.640003,15.760001,32.384003,eccentric,4,3.0,20394.0,303393.0,275270.0,325409.0,287267.0
2026-04-07 17:50:54.914861,243469,1325290745,1325292511,-0.870592,-0.042944,-0.0976,-11.57625,1.5225,36.82875,34.864002,15.632001,31.872002,eccentric,4,3.0,20394.0,303393.0,275270.0,325409.0,287267.0
2026-04-07 17:50:54.921214,243470,1325299674,1325301210,-0.895968,-0.00976,-0.05856,-3.89375,3.50875,36.28625,36.536003,15.760001,28.568,eccentric,4,3.0,20394.0,303393.0,275270.0,325409.0,287267.0
2026-04-07 17:50:54.922874,243471,1325308617,1325309923,-0.895968,-0.00976,-0.05856,0.62125,3.535,37.607502,36.536003,15.760001,28.568,eccentric,4,3.0,20394.0,303393.0,275270.0,325409.0,287267.0
2026-04-07 17:50:54.924731,243472,1325317567,1325318656,-0.895968,-0.00976,-0.05856,0.09625,1.89,37.00375,36.536003,15.760001,28.568,eccentric,4,3.0,20394.0,303393.0,275270.0,325409.0,287267.0
2026-04-07 17:50:54.955555,243473,1325332176,1325333593,-0.929152,0.003904,-0.070272,-2.80875,0.30625,34.65875,37.064003,15.912001,31.520002,eccentric,4,3.0,20394.0,303393.0,275270.0,325409.0,287267.0
2026-04-07 17:50:54.957779,243474,1325341185,1325342281,-1.01504,0.050752,-0.064416,-4.34875,-0.175,34.23,37.592003,15.664001,30.528002,eccentric,4,3.0,20394.0,303393.0,275270.0,325409.0,287267.0
2026-04-07 17:50:55.029901,243484,1325350429,1325351057,-1.01504,0.050752,-0.064416,-3.19375,0.07875,33.0925,37.592003,15.664001,30.528002,eccentric,4,3.0,20449.0,304307.0,276090.0,326464.0,288168.0
2026-04-07 17:50:55.031691,243485,1325365285,1325366055,-1.016992,0.015616,-0.089792,0.5075,1.89875,29.2425,37.800003,15.272,31.608002,eccentric,4,3.0,20449.0,304307.0,276090.0,326464.0,288168.0
2026-04-07 17:50:55.033313,243486,1325374658,1325376827,-1.016992,0.015616,-0.089792,0.105,3.54375,26.460001,37.800003,15.272,31.608002,eccentric,4,3.0,20449.0,304307.0,276090.0,326464.0,288168.0
2026-04-07 17:50:55.037403,243487,1325383617,1325385520,-0.989664,-0.033184,0.003904,-1.25125,4.40125,23.17,38.112003,14.616001,30.320002,eccentric,4,3.0,20449.0,304307.0,276090.0,326464.0,288168.0
2026-04-07 17:50:55.039167,243488,1325392547,1325394196,-0.989664,-0.033184,0.003904,1.40875,6.23,22.5575,38.112003,14.616001,30.320002,eccentric,4,3.0,20449.0,304307.0,276090.0,326464.0,288168.0
2026-04-07 17:50:55.040963,243489,1325407066,1325409083,-1.143872,0.085888,-0.017568,5.06625,9.205,22.741251,38.120003,14.192,30.712002,eccentric,4,3.0,20449.0,304307.0,276090.0,326464.0,288168.0
2026-04-07 17:50:55.043216,243490,1325416033,1325417821,-1.143872,0.085888,-0.017568,4.235,11.8125,22.11125,38.120003,14.192,30.712002,eccentric,4,3.0,20449.0,304307.0,276090.0,326464.0,288168.0
2026-04-07 17:50:55.047412,243491,1325424972,1325426542,-1.16144,0.119072,-0.003904,7.14875,14.21875,24.115,38.936,14.128,31.296001,eccentric,4,3.0,20449.0,304307.0,276090.0,326464.0,288168.0
2026-04-07 17:50:55.049012,243492,1325439491,1325441450,-1.030656,-0.00976,-0.07808,1.58375,15.627501,21.49875,38.832,14.496,30.488,eccentric,4,3.0,20449.0,304307.0,276090.0,326464.0,288168.0
2026-04-07 17:50:55.081198,243502,1325448477,1325450264,-1.030656,-0.00976,-0.07808,-9.8525,16.86125,16.275,38.832,14.496,30.488,eccentric,4,3.0,20383.0,304004.0,276048.0,326797.0,288788.0
2026-04-07 17:50:55.083249,243503,1325457810,1325459044,-1.030656,-0.00976,-0.07808,-12.3375,18.515,14.42875,38.832,14.496,30.488,eccentric,4,3.0,20383.0,304004.0,276048.0,326797.0,288788.0
2026-04-07 17:50:55.084877,243504,1325466695,1325467774,-1.089216,-0.017568,-0.027328,-8.855001,21.25375,14.315001,39.592003,14.288001,29.784002,eccentric,4,3.0,20383.0,304004.0,276048.0,326797.0,288788.0
2026-04-07 17:50:55.092329,243505,1325481179,1325482700,-1.245376,0.132736,0.033184,-2.5375,25.89125,15.51375,40.416,13.952001,30.016,eccentric,4,3.0,20383.0,304004.0,276048.0,326797.0,288788.0
2026-04-07 17:50:55.098535,243506,1325490134,1325491402,-1.245376,0.132736,0.033184,4.795,30.345,17.0975,40.416,13.952001,30.016,eccentric,4,3.0,20383.0,304004.0,276048.0,326797.0,288788.0
2026-04-07 17:50:55.130457,243507,1325499064,1325500151,-1.136064,0.054656,-0.052704,0.42,31.911251,17.045,40.416,13.952001,26.960001,eccentric,4,3.0,20383.0,304004.0,276048.0,326797.0,288788.0
2026-04-07 17:50:55.134941,243508,1325513548,1325515072,-1.136064,0.054656,-0.052704,-12.55625,30.975,15.505,40.800003,13.808001,26.960001,eccentric,4,3.0,20383.0,304004.0,276048.0,326797.0,288788.0
2026-04-07 17:50:55.136626,243509,1325522481,1325523764,-1.139968,-0.02928,-0.119072,-19.04875,30.52875,13.8425,40.912003,13.616,29.128002,eccentric,4,3.0,20383.0,304004.0,276048.0,326797.0,288788.0
2026-04-07 17:50:55.138467,243510,1325531401,1325532478,-1.139968,-0.02928,-0.119072,-21.34125,29.04125,12.74875,40.912003,13.616,29.128002,eccentric,4,3.0,20383.0,304004.0,276048.0,326797.0,288788.0
2026-04-07 17:50:55.169247,243511,1325545879,1325547481,-1.260992,0.083936,-0.101504,-17.4825,27.44875,13.5625,40.856003,12.456,29.456001,eccentric,4,3.0,20383.0,304004.0,276048.0,326797.0,288788.0
2026-04-07 17:50:55.201656,243522,1325554984,1325556196,-1.260992,0.083936,-0.101504,-7.175,25.01625,13.65,40.856003,12.456,29.456001,eccentric,4,3.0,20260.0,303241.0,275676.0,327291.0,290169.0
2026-04-07 17:50:55.203193,243523,1325563924,1325564905,-1.194624,0.101504,-0.162016,-4.40125,20.772501,12.136251,41.600002,13.088,28.288002,eccentric,4,3.0,20260.0,303241.0,275676.0,327291.0,290169.0
2026-04-07 17:50:55.207409,243524,1325578492,1325579842,-1.194624,0.101504,-0.162016,-5.495,16.415,10.6575,41.600002,13.088,28.288002,eccentric,4,3.0,20260.0,303241.0,275676.0,327291.0,290169.0
2026-04-07 17:50:55.209127,243525,1325587422,1325588594,-1.16144,0.037088,-0.154208,-2.0825,13.13375,9.87,42.52,12.776001,28.216002,eccentric,4,3.0,20260.0,303241.0,275676.0,327291.0,290169.0
2026-04-07 17:50:55.210789,243526,1325596381,1325597280,-1.16144,0.037088,-0.154208,-2.63375,10.43875,8.6975,42.52,12.776001,28.216002,eccentric,4,3.0,20260.0,303241.0,275676.0,327291.0,290169.0
2026-04-07 17:50:55.214789,243527,1325605296,1325606050,-1.1224,0.064416,-0.142496,-3.8325,7.69125,7.23625,41.792004,12.584001,29.536001,eccentric,4,3.0,20260.0,303241.0,275676.0,327291.0,290169.0
2026-04-07 17:50:55.244464,243528,1325620339,1325620963,-1.206336,0.101504,-0.081984,-2.03,6.44,6.93875,42.224003,12.848001,29.880001,eccentric,4,3.0,20260.0,303241.0,275676.0,327291.0,290169.0
2026-04-07 17:50:55.246908,243529,1325629568,1325631773,-1.206336,0.101504,-0.081984,-2.07375,3.99,6.9825,42.224003,12.848001,29.880001,eccentric,4,3.0,20260.0,303241.0,275676.0,327291.0,290169.0
2026-04-07 17:50:55.249470,243530,1325638492,1325640496,-1.206336,0.101504,-0.081984,-0.74375,1.47875,6.9125,42.224003,12.848001,29.880001,eccentric,4,3.0,20260.0,303241.0,275676.0,327291.0,290169.0
2026-04-07 17:50:55.311856,243540,1325653788,1325655478,-1.237568,0.095648,-0.015616,8.30375,0.14,9.52,42.72,12.616,28.368002,eccentric,4,3.0,20281.0,303511.0,275920.0,327641.0,290485.0
2026-04-07 17:50:55.314316,243541,1325662804,1325664224,-1.15168,0.074176,-0.064416,9.30125,-1.68,12.22375,42.216003,12.040001,29.712002,eccentric,4,3.0,20281.0,303511.0,275920.0,327641.0,290485.0
2026-04-07 17:50:55.316845,243542,1325671724,1325672929,-1.15168,0.074176,-0.064416,1.28625,-2.87,12.18,42.216003,12.040001,29.712002,eccentric,4,3.0,20281.0,303511.0,275920.0,327641.0,290485.0
2026-04-07 17:50:55.319357,243543,1325680606,1325681672,-1.186816,0.056608,-0.119072,-3.115,-4.17375,9.66,43.072002,11.76,28.160002,eccentric,4,3.0,20281.0,303511.0,275920.0,327641.0,290485.0
2026-04-07 17:50:55.321948,243544,1325695079,1325696568,-1.186816,0.056608,-0.119072,-3.4125,-4.2875,11.15625,43.072002,11.76,28.160002,eccentric,4,3.0,20281.0,303511.0,275920.0,327641.0,290485.0
2026-04-07 17:50:55.324359,243545,1325704013,1325705267,-1.206336,0.070272,-0.07808,-4.6375,-3.7975,11.13875,43.2,11.264001,29.808,eccentric,4,3.0,20281.0,303511.0,275920.0,327641.0,290485.0
2026-04-07 17:50:55.326908,243546,1325712971,1325713996,-1.206336,0.070272,-0.07808,-3.66625,-3.15875,9.75625,43.2,11.264001,29.808,eccentric,4,3.0,20281.0,303511.0,275920.0,327641.0,290485.0
2026-04-07 17:50:55.357150,243547,1325727494,1325728932,-1.153632,0.083936,-0.080032,-0.93625,-4.2525,12.10125,43.288002,10.888001,29.848001,eccentric,4,3.0,20281.0,303511.0,275920.0,327641.0,290485.0
2026-04-07 17:50:55.360622,243548,1325736400,1325737626,-1.153632,0.083936,-0.080032,-0.1925,-6.0375,13.7725,43.288002,10.888001,29.848001,eccentric,4,3.0,20281.0,303511.0,275920.0,327641.0,290485.0
2026-04-07 17:50:55.363116,243549,1325745249,1325746337,-1.128256,0.111264,-0.03904,1.16375,-8.82875,14.28,43.792004,10.776001,28.736002,eccentric,4,3.0,20281.0,303511.0,275920.0,327641.0,290485.0
2026-04-07 17:50:55.392364,243559,1325759854,1325761401,-1.128256,0.142496,-0.015616,2.58125,-10.96375,14.805,43.792004,10.776001,28.736002,eccentric,4,3.0,20383.0,303973.0,276002.0,326758.0,288830.0
2026-04-07 17:50:55.394338,243560,1325768896,1325770165,-1.23952,0.142496,-0.015616,4.375,-13.685,16.1875,43.712,11.120001,29.408,eccentric,4,3.0,20383.0,303973.0,276002.0,326758.0,288830.0
2026-04-07 17:50:55.396829,243561,1325777826,1325778913,-1.23952,0.142496,-0.015616,8.855001,-17.22875,18.31375,43.712,11.120001,29.408,eccentric,4,3.0,20383.0,303973.0,276002.0,326758.0,288830.0
2026-04-07 17:50:55.399327,243562,1325786779,1325787634,-0.997472,0.085888,-0.050752,8.88125,-19.71375,19.7925,44.656002,10.728001,28.624,eccentric,4,3.0,20383.0,303973.0,276002.0,326758.0,288830.0
2026-04-07 17:50:55.429609,243563,1325801272,1325802600,-0.999424,0.101504,-0.06832,1.68875,-19.81,18.15625,43.792004,9.944,31.456001,eccentric,4,3.0,20383.0,303973.0,276002.0,326758.0,288830.0
2026-04-07 17:50:55.433142,243564,1325810164,1325811286,-0.999424,0.101504,-0.06832,-3.0625,-19.145,14.7,43.792004,9.944,31.456001,eccentric,4,3.0,20383.0,303973.0,276002.0,326758.0,288830.0
2026-04-07 17:50:55.435621,243565,1325819083,1325819968,-0.999424,0.101504,-0.06832,-0.8225,-16.51125,13.3525,43.792004,9.944,31.456001,eccentric,4,3.0,20383.0,303973.0,276002.0,326758.0,288830.0
2026-04-07 17:50:55.440711,243566,1325833544,1325834901,-1.159488,0.177632,-0.052704,1.365,-14.79625,10.885,44.392002,9.584001,29.536001,eccentric,4,3.0,20383.0,303973.0,276002.0,326758.0,288830.0
2026-04-07 17:50:55.471787,243567,1325842459,1325843552,-1.159488,0.163968,-0.074176,1.67125,-14.93625,9.17875,44.944,9.688001,30.208002,eccentric,4,3.0,20383.0,303973.0,276002.0,326758.0,288830.0
2026-04-07 17:50:55.502788,243578,1325851480,1325852217,-1.159488,0.163968,-0.074176,2.8175,-16.38875,8.085,44.944,9.688001,30.208002,eccentric,4,3.0,21541.0,313676.0,283523.0,333951.0,294425.0
2026-04-07 17:50:55.504402,243579,1325860835,1325863011,-1.149728,0.138592,-0.033184,5.4425,-18.17375,5.53,44.944,9.176001,30.368002,eccentric,4,3.0,21541.0,313676.0,283523.0,333951.0,294425.0
2026-04-07 17:50:55.508493,243580,1325875407,1325875911,-1.149728,0.138592,-0.033184,11.78625,-19.2675,3.045,44.704002,9.176001,30.368002,eccentric,4,3.0,21541.0,313676.0,283523.0,333951.0,294425.0
2026-04-07 17:50:55.515029,243581,1325884935,1325886714,-1.179008,0.152256,-0.027328,17.40375,-20.405,1.2075,44.912003,8.872001,31.216002,eccentric,4,3.0,21541.0,313676.0,283523.0,333951.0,294425.0
2026-04-07 17:50:55.519060,243582,1325893937,1325895435,-1.179008,0.152256,-0.027328,19.81875,-21.0525,-2.7475,44.912003,8.872001,31.216002,eccentric,4,3.0,21541.0,313676.0,283523.0,333951.0,294425.0
2026-04-07 17:50:55.520550,243583,1325908426,1325910380,-1.182912,0.142496,-0.076128,19.95875,-20.78125,-6.0025,44.552002,8.728001,31.752,eccentric,4,3.0,21541.0,313676.0,283523.0,333951.0,294425.0
2026-04-07 17:50:55.524769,243584,1325917341,1325919095,-1.182912,0.142496,-0.076128,16.7475,-19.2675,-6.99125,44.552002,8.728001,31.752,eccentric,4,3.0,21541.0,313676.0,283523.0,333951.0,294425.0
2026-04-07 17:50:55.553467,243585,1325926307,1325927804,-1.21024,0.113216,0.003904,13.99125,-17.3075,-8.74125,45.872,8.784,31.904001,eccentric,4,3.0,21541.0,313676.0,283523.0,333951.0,294425.0
2026-04-07 17:50:55.557903,243586,1325940781,1325942709,-1.21024,0.064416,-0.015616,12.215,-15.1725,-9.44125,45.872,8.784,31.904001,eccentric,4,3.0,21541.0,313676.0,283523.0,333951.0,294425.0
2026-04-07 17:50:55.559414,243587,1325949700,1325951416,-1.237568,0.064416,-0.015616,11.1825,-14.4375,-7.83125,45.152,9.04,30.536001,eccentric,4,3.0,21541.0,313676.0,283523.0,333951.0,294425.0
2026-04-07 17:50:55.618625,243597,1325958709,1325960178,-1.237568,0.064416,-0.015616,7.46375,-14.13125,-6.195,45.152,9.04,30.536001,eccentric,4,3.0,22882.0,325467.0,292986.0,344048.0,302433.0
2026-04-07 17:50:55.620551,243598,1325967660,1325968955,-1.27856,0.037088,-0.00976,5.4425,-13.965,-3.40375,45.248,8.288,30.880001,eccentric,4,3.0,22882.0,325467.0,292986.0,344048.0,302433.0
2026-04-07 17:50:55.622123,243599,1325982158,1325983857,-1.276608,0.015616,-0.035136,8.84625,-14.2975,0.6825,45.528004,8.184,31.168001,eccentric,4,3.0,22882.0,325467.0,292986.0,344048.0,302433.0
2026-04-07 17:50:55.626268,243600,1325991121,1325992591,-1.276608,0.015616,-0.035136,14.30625,-14.533751,5.11875,45.528004,8.184,31.168001,eccentric,4,3.0,22882.0,325467.0,292986.0,344048.0,302433.0
2026-04-07 17:50:55.627825,243601,1326000106,1326001307,-1.276608,0.015616,-0.035136,16.178751,-13.71125,9.05625,45.528004,8.184,31.168001,eccentric,4,3.0,22882.0,325467.0,292986.0,344048.0,302433.0
2026-04-07 17:50:55.632307,243602,1326014653,1326016242,-1.223904,-0.015616,-0.023424,17.3425,-12.39,13.76375,45.56,8.432,32.176003,eccentric,4,3.0,22882.0,325467.0,292986.0,344048.0,302433.0
2026-04-07 17:50:55.632873,243603,1326023608,1326025002,-1.208288,0.017568,-0.01952,18.9175,-11.54125,17.84125,45.672,7.6,32.024002,eccentric,4,3.0,22882.0,325467.0,292986.0,344048.0,302433.0
2026-04-07 17:50:55.663540,243604,1326032563,1326033770,-1.208288,0.017568,-0.01952,20.5275,-10.29875,19.678751,45.672,7.6,32.024002,eccentric,4,3.0,22882.0,325467.0,292986.0,344048.0,302433.0
2026-04-07 17:50:55.670445,243605,1326047050,1326048683,-1.247328,0.052704,0.003904,19.57375,-8.88125,21.32375,45.840004,7.32,32.224003,eccentric,4,3.0,22882.0,325467.0,292986.0,344048.0,302433.0
2026-04-07 17:50:55.696928,243615,1326056117,1326057402,-1.247328,0.052704,0.003904,15.89,-8.2425,23.03875,45.840004,7.32,32.224003,eccentric,4,3.0,23859.0,334262.0,300319.0,351899.0,308798.0
2026-04-07 17:50:55.701394,243616,1326065051,1326066190,-1.27856,0.07808,-0.01952,13.22125,-9.00375,24.24625,46.864002,7.176,32.432003,eccentric,4,3.0,23859.0,334262.0,300319.0,351899.0,308798.0
2026-04-07 17:50:55.702962,243617,1326074000,1326074922,-1.27856,0.07808,-0.01952,12.36375,-9.2575,25.7775,46.864002,7.176,32.432003,eccentric,4,3.0,23859.0,334262.0,300319.0,351899.0,308798.0
2026-04-07 17:50:55.704520,243618,1326088551,1326089868,-1.253184,0.085888,-0.007808,13.755,-9.96625,26.94125,46.224003,6.336,32.824,eccentric,4,3.0,23859.0,334262.0,300319.0,351899.0,308798.0
2026-04-07 17:50:55.708676,243619,1326097590,1326098575,-1.253184,0.085888,-0.007808,15.96,-9.82625,27.02,46.224003,6.336,32.824,eccentric,4,3.0,23859.0,334262.0,300319.0,351899.0,308798.0
2026-04-07 17:50:55.713527,243620,1326106527,1326107328,-1.231712,0.021472,-0.015616,17.815,-9.87,27.57125,46.432003,6.12,33.144,eccentric,4,3.0,23859.0,334262.0,300319.0,351899.0,308798.0
2026-04-07 17:50:55.742057,243621,1326121573,1326122233,-1.231712,-0.044896,-0.046848,16.23125,-11.3575,29.435,46.432003,6.12,33.144,eccentric,4,3.0,23859.0,334262.0,300319.0,351899.0,308798.0
2026-04-07 17:50:55.746639,243622,1326130874,1326132995,-1.184864,-0.044896,-0.046848,16.52875,-12.85375,30.63375,46.608,5.768,32.528,eccentric,4,3.0,23859.0,334262.0,300319.0,351899.0,308798.0
2026-04-07 17:50:55.748153,243623,1326139819,1326141683,-1.184864,-0.044896,-0.046848,19.95875,-13.3,31.68375,46.608,5.768,32.528,eccentric,4,3.0,23859.0,334262.0,300319.0,351899.0,308798.0
2026-04-07 17:50:55.756076,243624,1326148880,1326150413,-1.177056,0.001952,-0.070272,25.33125,-11.9875,32.64625,46.832,5.408001,33.512,eccentric,4,3.0,23859.0,334262.0,300319.0,351899.0,308798.0
2026-04-07 17:50:55.784558,243635,1326163533,1326165833,-1.179008,0.031232,-0.015616,27.405,-9.87,33.43375,46.920002,4.752,34.192,eccentric,4,3.0,23762.0,334631.0,301031.0,353326.0,309854.0
2026-04-07 17:50:55.788849,243636,1326172474,1326174572,-1.179008,0.031232,-0.015616,27.2125,-8.82875,34.2475,46.920002,4.752,34.192,eccentric,4,3.0,23762.0,334631.0,301031.0,353326.0,309854.0
2026-04-07 17:50:55.790257,243637,1326181413,1326183362,-1.179008,0.031232,-0.015616,25.13875,-8.0675,35.27125,46.920002,4.752,34.192,eccentric,4,3.0,23762.0,334631.0,301031.0,353326.0,309854.0
2026-04-07 17:50:55.820483,243638,1326195927,1326196249,-1.159488,0.031232,-0.007808,23.79125,-7.7875,36.575,47.000004,3.896,34.216003,eccentric,4,3.0,23762.0,334631.0,301031.0,353326.0,309854.0
2026-04-07 17:50:55.822779,243639,1326205100,1326207037,-1.1224,0.052704,0.007808,22.67125,-7.875,36.23375,47.160004,3.696,34.120003,eccentric,4,3.0,23762.0,334631.0,301031.0,353326.0,309854.0
2026-04-07 17:50:55.827373,243640,1326214031,1326215734,-1.1224,0.052704,0.007808,22.19,-7.35,34.615,47.160004,3.696,34.120003,eccentric,4,3.0,23762.0,334631.0,301031.0,353326.0,309854.0
2026-04-07 17:50:55.855822,243641,1326228570,1326230681,-1.091168,0.064416,0.011712,22.70625,-7.21875,32.34875,47.144,3.192,34.36,eccentric,4,3.0,23762.0,334631.0,301031.0,353326.0,309854.0
2026-04-07 17:50:55.859414,243642,1326237480,1326239366,-1.091168,0.064416,0.011712,21.647501,-5.92375,30.65125,47.144,3.192,34.36,eccentric,4,3.0,23762.0,334631.0,301031.0,353326.0,309854.0
2026-04-07 17:50:55.896835,243643,1326246418,1326248058,-1.091168,0.066368,-0.01952,18.08625,-4.10375,28.9275,46.960003,2.76,34.496002,eccentric,4,3.0,23762.0,334631.0,301031.0,353326.0,309854.0
2026-04-07 17:50:55.960475,243653,1326255556,1326256811,-1.091168,0.066368,-0.01952,13.43125,-2.19625,26.39,46.960003,2.76,34.496002,eccentric,4,3.0,23567.0,332966.0,299644.0,351984.0,308688.0
2026-04-07 17:50:55.962137,243654,1326270111,1326271813,-1.091168,0.081984,-0.021472,10.71,-1.39125,23.5375,47.352,2.488,35.872,eccentric,4,3.0,23567.0,332966.0,299644.0,351984.0,308688.0
2026-04-07 17:50:55.964443,243655,1326279055,1326280521,-1.091168,0.081984,-0.021472,11.15625,-0.805,20.18625,47.352,2.488,35.872,eccentric,4,3.0,23567.0,332966.0,299644.0,351984.0,308688.0
2026-04-07 17:50:55.968618,243656,1326287985,1326289203,-1.077504,0.101504,0.00976,11.20875,-0.5075,16.205,47.376003,2.696,34.944,eccentric,4,3.0,23567.0,332966.0,299644.0,351984.0,308688.0
2026-04-07 17:50:55.970342,243657,1326302518,1326304186,-1.077504,0.074176,-0.015616,11.12125,-0.5775,13.51,47.376003,2.696,32.896,eccentric,4,3.0,23567.0,332966.0,299644.0,351984.0,308688.0
2026-04-07 17:50:55.972013,243658,1326311485,1326312895,-1.06384,0.074176,-0.015616,10.3775,-0.84875,10.8675,46.872,2.128,34.192,eccentric,4,3.0,23567.0,332966.0,299644.0,351984.0,308688.0
2026-04-07 17:50:55.975282,243659,1326320433,1326321584,-1.06384,0.074176,-0.015616,8.5225,-0.525,8.47,46.872,2.128,34.192,eccentric,4,3.0,23567.0,332966.0,299644.0,351984.0,308688.0
2026-04-07 17:50:55.976932,243660,1326335015,1326336451,-1.057984,0.056608,-0.027328,9.02125,-0.23625,6.475,47.904003,2.2,37.08,eccentric,4,3.0,23567.0,332966.0,299644.0,351984.0,308688.0
2026-04-07 17:50:55.981120,243661,1326344045,1326345145,-1.071648,0.076128,-0.02928,10.15,0.1575,4.1125,47.808002,2.328,34.944,eccentric,4,3.0,23567.0,332966.0,299644.0,351984.0,308688.0
2026-04-07 17:50:55.982881,243662,1326353049,1326353847,-1.071648,0.076128,-0.02928,10.36,0.7175,1.28625,47.808002,2.328,34.944,eccentric,4,3.0,23567.0,332966.0,299644.0,351984.0,308688.0
2026-04-07 17:50:56.006934,243672,1326362014,1326362624,-1.071648,0.076128,-0.02928,8.89,1.12875,-1.085,47.808002,2.328,34.944,eccentric,4,3.0,23371.0,331024.0,298022.0,350116.0,307050.0
2026-04-07 17:50:56.011126,243673,1326376811,1326377560,-1.0736,0.070272,-0.017568,7.93625,2.1525,-2.30125,47.232002,2.4,35.872,eccentric,4,3.0,23371.0,331024.0,298022.0,350116.0,307050.0
2026-04-07 17:50:56.012798,243674,1326386245,1326388340,-1.075552,0.07808,-0.011712,7.2975,2.905,-4.1825,46.832,2.008,36.216003,eccentric,4,3.0,23371.0,331024.0,298022.0,350116.0,307050.0
2026-04-07 17:50:56.014421,243675,1326395178,1326397048,-1.075552,0.07808,-0.011712,6.055,3.3425,-5.41625,46.832,2.008,36.216003,eccentric,4,3.0,23371.0,331024.0,298022.0,350116.0,307050.0
2026-04-07 17:50:56.018848,243676,1326404129,1326405819,-1.08336,0.066368,-0.015616,5.25,4.1125,-6.76375,46.72,2.104,36.744003,eccentric,4,3.0,23371.0,331024.0,298022.0,350116.0,307050.0
2026-04-07 17:50:56.027341,243677,1326418627,1326420755,-1.08336,0.066368,-0.015616,3.94625,4.90875,-8.05875,46.72,2.104,36.744003,eccentric,4,3.0,23371.0,331024.0,298022.0,350116.0,307050.0
2026-04-07 17:50:56.055848,243678,1326427556,1326429446,-1.0736,0.07808,-0.021472,3.85875,6.02875,-8.95125,47.576004,1.704,34.896,eccentric,4,3.0,23371.0,331024.0,298022.0,350116.0,307050.0
2026-04-07 17:50:56.060379,243679,1326436477,1326438124,-1.0736,0.07808,-0.021472,5.04875,6.81625,-11.375,47.576004,1.704,34.896,eccentric,4,3.0,23371.0,331024.0,298022.0,350116.0,307050.0
2026-04-07 17:50:56.062608,243680,1326450951,1326453053,-1.089216,0.115168,0.0,6.06375,7.63,-12.67875,47.288002,2.216,34.968002,eccentric,4,3.0,23371.0,331024.0,298022.0,350116.0,307050.0
2026-04-07 17:50:56.089403,243691,1326460104,1326461823,-1.089216,0.115168,0.0,6.195,8.39125,-15.2775,47.288002,2.216,34.968002,eccentric,4,3.0,23010.0,327247.0,294636.0,346066.0,303621.0
2026-04-07 17:50:56.093657,243692,1326469124,1326470569,-1.097024,0.122976,-0.013664,3.5525,9.2225,-18.305,47.328003,2.528,35.944,eccentric,4,3.0,23010.0,327247.0,294636.0,346066.0,303621.0
2026-04-07 17:50:56.095230,243693,1326483644,1326485468,-1.114592,0.083936,-0.025376,-1.0325,10.2375,-20.16,45.280003,3.152,35.432003,eccentric,4,3.0,23010.0,327247.0,294636.0,346066.0,303621.0
2026-04-07 17:50:56.099790,243694,1326492597,1326494205,-1.114592,0.083936,-0.025376,-5.32875,10.29,-23.21375,47.064003,3.152,35.432003,eccentric,4,3.0,23010.0,327247.0,294636.0,346066.0,303621.0
2026-04-07 17:50:56.128394,243695,1326501565,1326502924,-1.114592,0.083936,-0.025376,-6.79,10.185,-25.06875,47.064003,3.152,35.432003,eccentric,4,3.0,23010.0,327247.0,294636.0,346066.0,303621.0
2026-04-07 17:50:56.132866,243696,1326516049,1326517809,-1.116544,0.074176,-0.011712,-5.3025,10.50875,-27.02,47.168003,2.896,34.856003,eccentric,4,3.0,23010.0,327247.0,294636.0,346066.0,303621.0
2026-04-07 17:50:56.134509,243697,1326524989,1326526506,-1.138016,0.07808,-0.00976,-1.49625,11.2175,-29.505001,47.152,3.384,32.0,eccentric,4,3.0,23010.0,327247.0,294636.0,346066.0,303621.0
2026-04-07 17:50:56.147363,243698,1326533962,1326535226,-1.138016,0.07808,-0.00976,2.52,11.06,-30.58125,47.152,3.384,32.0,eccentric,4,3.0,23010.0,327247.0,294636.0,346066.0,303621.0
2026-04-07 17:50:56.153508,243699,1326544797,1326546146,-1.21024,0.044896,-0.0488,3.71,10.36875,-29.995,46.976,3.2,34.600002,eccentric,4,3.0,23010.0,327247.0,294636.0,346066.0,303621.0
