pc_time,serial_num,sensor_ts,host_ts,ax,ay,az,gx,gy,gz,mx,my,mz,phase,rpe,weight_kg,ppg_a,ppg_b,ppg_c,ppg_d,ppg_e
2026-04-07 17:51:03.850570,245136,1334206939,1334208534,-1.243424,0.005856,-0.027328,30.45875,10.4475,-29.26,45.272003,7.824,32.752003,concentric,4,3.0,21751.0,313446.0,282159.0,331490.0,291833.0
2026-04-07 17:51:03.853014,245137,1334215922,1334217247,-1.243424,0.005856,-0.027328,26.4775,14.14875,-32.97875,45.272003,7.824,32.752003,concentric,4,3.0,21751.0,313446.0,282159.0,331490.0,291833.0
2026-04-07 17:51:03.855603,245138,1334224845,1334225991,-1.212192,-0.003904,0.035136,14.06125,16.4325,-38.82375,44.960003,7.784,32.624,concentric,4,3.0,21751.0,313446.0,282159.0,331490.0,291833.0
2026-04-07 17:51:03.858065,245139,1334239455,1334240990,-1.167296,-0.031232,0.0,-1.575,17.7975,-47.18,44.936,8.56,33.456,concentric,4,3.0,21751.0,313446.0,282159.0,331490.0,291833.0
2026-04-07 17:51:03.860724,245140,1334248443,1334249687,-1.167296,-0.031232,0.0,-9.12625,19.99375,-52.465,44.936,8.56,33.456,concentric,4,3.0,21751.0,313446.0,282159.0,331490.0,291833.0
2026-04-07 17:51:03.863118,245141,1334257388,1334258433,-1.167296,-0.031232,0.0,-5.87125,21.14875,-54.416252,44.936,8.56,33.456,concentric,4,3.0,21751.0,313446.0,282159.0,331490.0,291833.0
2026-04-07 17:51:03.893300,245142,1334271888,1334273339,-1.173152,-0.052704,-0.02928,-2.24,21.28875,-55.8775,44.448,8.616,32.984,concentric,4,3.0,21751.0,313446.0,282159.0,331490.0,291833.0
2026-04-07 17:51:03.896837,245143,1334280814,1334282035,-1.048224,-0.05856,-0.052704,-4.34875,19.62625,-54.92375,44.272003,9.768001,31.976002,concentric,4,3.0,21751.0,313446.0,282159.0,331490.0,291833.0
2026-04-07 17:51:03.899429,245144,1334289696,1334290757,-1.048224,-0.05856,-0.052704,-7.77875,17.395,-52.8675,44.272003,9.768001,31.976002,concentric,4,3.0,21751.0,313446.0,282159.0,331490.0,291833.0
2026-04-07 17:51:03.929369,245154,1334299121,1334299466,-1.065792,-0.154208,0.01952,-13.97375,16.84375,-52.61375,43.160004,10.072001,32.488003,concentric,4,3.0,21188.0,308652.0,278320.0,327484.0,288478.0
2026-04-07 17:51:03.933605,245155,1334314095,1334314454,-1.065792,-0.154208,0.01952,-17.01875,15.74125,-49.0875,43.160004,10.072001,32.488003,concentric,4,3.0,21188.0,308652.0,278320.0,327484.0,288478.0
2026-04-07 17:51:03.935096,245156,1334323425,1334325247,-1.079456,-0.13664,-0.015616,-14.00875,13.55375,-42.07875,42.872,10.232,31.624,concentric,4,3.0,21188.0,308652.0,278320.0,327484.0,288478.0
2026-04-07 17:51:03.941213,245157,1334332379,1334333942,-1.079456,-0.13664,-0.015616,-8.35625,11.71625,-35.9275,42.872,10.232,31.624,concentric,4,3.0,21188.0,308652.0,278320.0,327484.0,288478.0
2026-04-07 17:51:03.994308,245158,1334341319,1334342643,-1.0736,-0.0976,-0.031232,-4.165,10.99875,-31.7275,42.888,10.696,31.216002,concentric,4,3.0,21188.0,308652.0,278320.0,327484.0,288478.0
2026-04-07 17:51:03.998612,245159,1334355813,1334357587,-1.0736,-0.0976,-0.031232,-4.64625,11.655,-30.28375,42.888,10.696,31.216002,concentric,4,3.0,21188.0,308652.0,278320.0,327484.0,288478.0
2026-04-07 17:51:04.001134,245160,1334364750,1334366278,-1.143872,-0.001952,0.021472,-2.1525,13.60625,-27.9125,42.352,11.032001,31.328001,concentric,4,3.0,21188.0,308652.0,278320.0,327484.0,288478.0
2026-04-07 17:51:04.002789,245161,1334373672,1334374966,-1.143872,-0.001952,0.021472,1.51375,14.35875,-25.13,42.352,11.032001,31.328001,concentric,4,3.0,21188.0,308652.0,278320.0,327484.0,288478.0
2026-04-07 17:51:04.005242,245162,1334388156,1334389864,-1.173152,0.060512,-0.060512,1.53125,13.6325,-24.115,42.800003,10.912001,31.128002,concentric,4,3.0,21188.0,308652.0,278320.0,327484.0,288478.0
2026-04-07 17:51:04.006742,245163,1334397066,1334398580,-1.173152,0.060512,-0.060512,-0.20125,14.3325,-25.2175,42.800003,10.912001,31.128002,concentric,4,3.0,21188.0,308652.0,278320.0,327484.0,288478.0
2026-04-07 17:51:04.032279,245173,1334406161,1334407392,-1.233664,0.099552,-0.099552,0.58625,16.21375,-27.098751,41.984,11.728001,31.632002,concentric,4,3.0,20835.0,305793.0,276137.0,325466.0,286740.0
2026-04-07 17:51:04.036093,245174,1334420693,1334422364,-1.387872,0.011712,-0.06832,5.53875,18.3575,-28.74375,42.256,12.040001,33.352,concentric,4,3.0,20835.0,305793.0,276137.0,325466.0,286740.0
2026-04-07 17:51:04.037648,245175,1334429633,1334431071,-1.387872,0.011712,-0.06832,14.323751,20.72875,-28.56,42.256,12.040001,33.352,concentric,4,3.0,20835.0,305793.0,276137.0,325466.0,286740.0
2026-04-07 17:51:04.046082,245176,1334438617,1334439791,-1.387872,-0.074176,-0.13664,25.6025,21.21875,-28.60375,42.256,12.040001,33.352,concentric,4,3.0,20835.0,305793.0,276137.0,325466.0,286740.0
2026-04-07 17:51:04.074529,245177,1334447554,1334448533,-1.504992,-0.074176,-0.13664,39.5325,21.49,-30.31,42.064003,11.8,31.328001,concentric,4,3.0,20835.0,305793.0,276137.0,325466.0,286740.0
2026-04-07 17:51:04.079155,245178,1334462025,1334463412,-1.42496,0.0488,-0.080032,52.4475,25.0075,-31.89375,41.544003,12.496,31.456001,concentric,4,3.0,20835.0,305793.0,276137.0,325466.0,286740.0
2026-04-07 17:51:04.080630,245179,1334470968,1334472101,-1.42496,0.0488,-0.080032,51.6775,30.6775,-32.19125,41.544003,12.496,31.456001,concentric,4,3.0,20835.0,305793.0,276137.0,325466.0,286740.0
2026-04-07 17:51:04.087251,245180,1334479890,1334480849,-1.458144,0.046848,-0.10736,40.8975,33.39,-33.80125,40.648003,12.136001,31.664001,concentric,4,3.0,20835.0,305793.0,276137.0,325466.0,286740.0
2026-04-07 17:51:04.115775,245181,1334494387,1334495776,-1.458144,0.046848,-0.10736,19.53,33.3025,-37.24875,40.648003,12.136001,31.664001,concentric,4,3.0,20835.0,305793.0,276137.0,325466.0,286740.0
2026-04-07 17:51:04.144464,245192,1334503432,1334504514,-1.29808,0.0,-0.181536,-0.7175,29.02375,-39.71625,41.152,12.400001,30.592001,concentric,4,3.0,21177.0,309957.0,280112.0,330637.0,291429.0
2026-04-07 17:51:04.148623,245193,1334512372,1334513240,-1.29808,0.0,-0.181536,-6.02,26.53875,-41.0725,41.152,12.400001,30.592001,concentric,4,3.0,21177.0,309957.0,280112.0,330637.0,291429.0
2026-04-07 17:51:04.150287,245194,1334527014,1334528179,-1.290272,-0.001952,-0.103456,-0.76125,27.51,-40.10125,40.320004,13.264001,30.816002,concentric,4,3.0,21177.0,309957.0,280112.0,330637.0,291429.0
2026-04-07 17:51:04.151896,245195,1334535947,1334536873,-1.290272,-0.001952,-0.103456,7.5425,26.845,-37.51125,40.320004,13.264001,30.816002,concentric,4,3.0,21177.0,309957.0,280112.0,330637.0,291429.0
2026-04-07 17:51:04.155252,245196,1334544880,1334545629,-1.177056,-0.046848,0.027328,12.25875,26.5125,-33.48625,39.928,13.704,31.208002,concentric,4,3.0,21177.0,309957.0,280112.0,330637.0,291429.0
2026-04-07 17:51:04.162224,245197,1334554247,1334556462,-1.177056,-0.046848,0.027328,6.55375,24.92,-31.45625,39.928,13.704,31.208002,concentric,4,3.0,21177.0,309957.0,280112.0,330637.0,291429.0
2026-04-07 17:51:04.192497,245198,1334568736,1334569336,-1.11264,0.046848,-0.040992,-4.43625,23.35375,-31.70125,39.960003,14.344001,31.560001,concentric,4,3.0,21177.0,309957.0,280112.0,330637.0,291429.0
2026-04-07 17:51:04.195333,245199,1334577993,1334580153,-1.11264,0.046848,-0.040992,-8.77625,21.32375,-32.48,39.960003,14.344001,31.560001,concentric,4,3.0,21177.0,309957.0,280112.0,330637.0,291429.0
2026-04-07 17:51:04.196915,245200,1334586999,1334588834,-1.036512,0.101504,-0.16592,-8.8725,21.49875,-32.59375,38.656002,14.968,30.048002,concentric,4,3.0,21177.0,309957.0,280112.0,330637.0,291429.0
2026-04-07 17:51:04.300210,245210,1334602003,1334603945,-1.04432,0.101504,-0.083936,-6.25625,22.741251,-35.857502,38.0,14.944,31.264002,concentric,4,3.0,20785.0,306189.0,277100.0,327435.0,289064.0
2026-04-07 17:51:04.304895,245211,1334611069,1334612694,-1.04432,0.101504,-0.083936,0.70875,24.68375,-40.53875,38.0,14.944,31.264002,concentric,4,3.0,20785.0,306189.0,277100.0,327435.0,289064.0
2026-04-07 17:51:04.306599,245212,1334619981,1334621416,-0.989664,0.007808,0.105408,10.21125,28.4375,-42.91,38.256,15.320001,29.136002,concentric,4,3.0,20785.0,306189.0,277100.0,327435.0,289064.0
2026-04-07 17:51:04.308100,245213,1334628925,1334630142,-0.989664,0.007808,0.105408,11.36625,31.7975,-44.1525,38.256,15.320001,29.136002,concentric,4,3.0,20785.0,306189.0,277100.0,327435.0,289064.0
2026-04-07 17:51:04.312375,245214,1334643381,1334645094,-1.020896,-0.042944,0.021472,-3.43875,30.23125,-45.815,38.0,15.552001,29.968002,concentric,4,3.0,20785.0,306189.0,277100.0,327435.0,289064.0
2026-04-07 17:51:04.314171,245215,1334652311,1334653786,-1.020896,-0.042944,0.021472,-16.17,26.74,-45.29,38.0,15.552001,29.968002,concentric,4,3.0,20785.0,306189.0,277100.0,327435.0,289064.0
2026-04-07 17:51:04.316588,245216,1334661428,1334662571,-1.04432,0.080032,-0.152256,-20.46625,24.35125,-43.79375,37.384003,16.248001,28.792002,concentric,4,3.0,20785.0,306189.0,277100.0,327435.0,289064.0
2026-04-07 17:51:04.318192,245217,1334675888,1334677480,-1.04432,0.080032,-0.152256,-14.77,23.94875,-42.665,37.384003,16.248001,28.792002,concentric,4,3.0,20785.0,306189.0,277100.0,327435.0,289064.0
2026-04-07 17:51:04.326079,245218,1334684791,1334686171,-0.942816,0.072224,-0.193248,-7.28,26.022501,-43.37375,36.480003,16.088001,29.392002,concentric,4,3.0,20785.0,306189.0,277100.0,327435.0,289064.0
2026-04-07 17:51:04.327828,245219,1334693699,1334694845,-0.942816,0.072224,-0.193248,-6.15125,28.866251,-46.165,36.480003,16.088001,29.392002,concentric,4,3.0,20785.0,306189.0,277100.0,327435.0,289064.0
2026-04-07 17:51:04.352836,245229,1334708254,1334709774,-1.057984,-0.111264,-0.031232,-3.045,33.41625,-46.59375,36.4,16.432001,28.904001,concentric,4,3.0,20724.0,306106.0,277197.0,328009.0,289948.0
2026-04-07 17:51:04.354541,245230,1334717199,1334718544,-1.057984,-0.111264,-0.031232,-2.59875,38.29,-42.83125,36.4,16.432001,28.904001,concentric,4,3.0,20724.0,306106.0,277197.0,328009.0,289948.0
2026-04-07 17:51:04.358602,245231,1334726106,1334727315,-1.231712,-0.081984,-0.03904,-8.5925,39.12125,-38.71,35.68,17.504002,28.272001,concentric,4,3.0,20724.0,306106.0,277197.0,328009.0,289948.0
2026-04-07 17:51:04.360423,245232,1334740680,1334742238,-1.116544,0.037088,-0.347456,-14.13125,37.1875,-36.7675,34.528,16.616001,30.536001,concentric,4,3.0,20724.0,306106.0,277197.0,328009.0,289948.0
2026-04-07 17:51:04.362293,245233,1334749621,1334750959,-1.116544,0.037088,-0.347456,-10.8325,35.65625,-34.85125,34.528,16.616001,30.536001,concentric,4,3.0,20724.0,306106.0,277197.0,328009.0,289948.0
2026-04-07 17:51:04.367252,245234,1334758614,1334759695,-1.116544,0.037088,-0.347456,-7.6125,35.1575,-36.35625,34.528,16.616001,30.536001,concentric,4,3.0,20724.0,306106.0,277197.0,328009.0,289948.0
2026-04-07 17:51:04.395851,245235,1334767613,1334768463,-1.00528,-0.05856,-0.365024,-5.62625,35.30625,-40.5475,34.048,17.264,30.624,concentric,4,3.0,20724.0,306106.0,277197.0,328009.0,289948.0
2026-04-07 17:51:04.400250,245236,1334782121,1334783345,-1.104832,-0.105408,-0.199104,-2.12625,36.18125,-42.9625,34.144,17.424002,28.256,concentric,4,3.0,20724.0,306106.0,277197.0,328009.0,289948.0
2026-04-07 17:51:04.401891,245237,1334791055,1334792059,-1.104832,-0.105408,-0.199104,2.625,37.485,-41.60625,34.144,17.424002,28.256,concentric,4,3.0,20724.0,306106.0,277197.0,328009.0,289948.0
2026-04-07 17:51:04.408637,245238,1334799977,1334800757,-1.104832,-0.105408,-0.181536,10.22,37.61625,-38.49125,34.144,17.424002,28.256,concentric,4,3.0,20724.0,306106.0,277197.0,328009.0,289948.0
2026-04-07 17:51:04.434369,245249,1334809841,1334811548,-1.192672,-0.031232,-0.181536,12.25875,36.84625,-36.076252,33.280003,17.488,26.456001,concentric,4,3.0,20651.0,305522.0,276849.0,328045.0,290488.0
2026-04-07 17:51:04.438645,245250,1334824374,1334826487,-1.05408,-0.054656,-0.25376,9.87,33.888752,-34.58875,33.16,17.728,28.880001,concentric,4,3.0,20651.0,305522.0,276849.0,328045.0,290488.0
2026-04-07 17:51:04.441034,245251,1334833363,1334835298,-1.05408,-0.054656,-0.25376,7.4725,33.1275,-34.405,33.16,17.728,28.880001,concentric,4,3.0,20651.0,305522.0,276849.0,328045.0,290488.0
2026-04-07 17:51:04.469510,245252,1334842409,1334844009,-0.964288,-0.132736,-0.23424,3.98125,33.95,-33.81875,32.432003,17.584002,27.984001,concentric,4,3.0,20651.0,305522.0,276849.0,328045.0,290488.0
2026-04-07 17:51:04.476877,245253,1334856885,1334858898,-0.964288,-0.132736,-0.23424,0.95375,36.3475,-33.83625,32.432003,17.584002,27.984001,concentric,4,3.0,20651.0,305522.0,276849.0,328045.0,290488.0
2026-04-07 17:51:04.479389,245254,1334865847,1334867583,-0.94672,-0.101504,-0.177632,2.0125,39.2525,-33.285,32.872,18.136002,26.792002,concentric,4,3.0,20651.0,305522.0,276849.0,328045.0,290488.0
2026-04-07 17:51:04.490633,245255,1334874816,1334876304,-0.94672,-0.101504,-0.177632,3.4825,42.91,-30.397501,32.872,18.136002,26.792002,concentric,4,3.0,20651.0,305522.0,276849.0,328045.0,290488.0
2026-04-07 17:51:04.496863,245256,1334889322,1334891224,-0.91744,-0.083936,-0.111264,1.30375,46.20875,-29.14625,31.672,17.992,27.048,concentric,4,3.0,20651.0,305522.0,276849.0,328045.0,290488.0
2026-04-07 17:51:04.527070,245257,1334898250,1334899919,-0.91744,-0.083936,-0.111264,1.505,48.6325,-28.4375,31.672,17.992,27.048,concentric,4,3.0,20651.0,305522.0,276849.0,328045.0,290488.0
2026-04-07 17:51:04.609553,245267,1334907320,1334908700,-0.915488,-0.042944,-0.226432,3.42125,49.14,-27.16,31.248001,18.208,27.072,concentric,4,3.0,20713.0,305925.0,277179.0,328378.0,290716.0
2026-04-07 17:51:04.613070,245268,1334916304,1334917458,-0.915488,-0.042944,-0.226432,6.5275,49.0525,-26.4075,31.248001,18.208,27.072,concentric,4,3.0,20713.0,305925.0,277179.0,328378.0,290716.0
2026-04-07 17:51:04.615595,245269,1334930877,1334932381,-0.83936,-0.05856,-0.335744,10.465,47.83625,-28.1225,31.480001,18.592001,27.064001,concentric,4,3.0,20713.0,305925.0,277179.0,328378.0,290716.0
2026-04-07 17:51:04.618045,245270,1334939808,1334941123,-0.83936,-0.05856,-0.335744,14.46375,45.75375,-29.4525,31.480001,18.592001,27.064001,concentric,4,3.0,20713.0,305925.0,277179.0,328378.0,290716.0
2026-04-07 17:51:04.620560,245271,1334948814,1334949854,-0.749568,-0.15616,-0.288896,15.846251,44.93125,-29.44375,30.896002,18.624,26.864002,concentric,4,3.0,20713.0,305925.0,277179.0,328378.0,290716.0
2026-04-07 17:51:04.623133,245272,1334963373,1334964822,-0.794464,-0.189344,-0.228384,14.5075,43.40875,-28.51625,29.416002,17.912,28.344002,concentric,4,3.0,20713.0,305925.0,277179.0,328378.0,290716.0
2026-04-07 17:51:04.625581,245273,1334972294,1334973519,-0.794464,-0.189344,-0.228384,11.8475,41.53625,-25.5675,29.416002,17.912,28.344002,concentric,4,3.0,20713.0,305925.0,277179.0,328378.0,290716.0
2026-04-07 17:51:04.628142,245274,1334981249,1334982210,-0.895968,-0.119072,-0.206912,7.385,40.15375,-22.5575,29.416002,17.912,26.960001,concentric,4,3.0,20713.0,305925.0,277179.0,328378.0,290716.0
2026-04-07 17:51:04.630576,245275,1334995750,1334997087,-0.895968,-0.119072,-0.206912,7.3675,36.68875,-19.9675,30.056002,18.408,26.960001,concentric,4,3.0,20713.0,305925.0,277179.0,328378.0,290716.0
2026-04-07 17:51:04.664410,245285,1335005227,1335005802,-0.794464,-0.044896,-0.333792,11.20875,31.99875,-18.865,30.560001,18.544,26.648,concentric,4,3.0,21059.0,309197.0,279871.0,331059.0,292434.0
2026-04-07 17:51:04.670884,245286,1335014579,1335016652,-0.794464,-0.044896,-0.333792,14.00875,27.125,-18.64625,30.560001,18.544,26.648,concentric,4,3.0,21059.0,309197.0,279871.0,331059.0,292434.0
2026-04-07 17:51:04.673067,245287,1335023621,1335025394,-0.704672,-0.142496,-0.245952,16.49375,23.91375,-19.03125,29.576002,18.048,27.664001,concentric,4,3.0,21059.0,309197.0,279871.0,331059.0,292434.0
2026-04-07 17:51:04.675588,245288,1335038154,1335040361,-0.704672,-0.142496,-0.245952,15.67125,21.07875,-20.74625,29.576002,18.048,27.664001,concentric,4,3.0,21059.0,309197.0,279871.0,331059.0,292434.0
2026-04-07 17:51:04.678048,245289,1335047219,1335049128,-0.735904,-0.220576,-0.150304,12.22375,18.375,-20.3175,30.064001,18.624,26.792002,concentric,4,3.0,21059.0,309197.0,279871.0,331059.0,292434.0
2026-04-07 17:51:04.680592,245290,1335056257,1335057812,-0.735904,-0.220576,-0.150304,8.3825,16.87,-16.9225,30.064001,18.624,26.792002,concentric,4,3.0,21059.0,309197.0,279871.0,331059.0,292434.0
2026-04-07 17:51:04.683123,245291,1335070795,1335072780,-0.694912,-0.148352,-0.169824,3.49125,16.2225,-13.15125,29.448002,18.400002,27.112001,concentric,4,3.0,21059.0,309197.0,279871.0,331059.0,292434.0
2026-04-07 17:51:04.686869,245292,1335079746,1335081508,-0.694912,-0.148352,-0.169824,-0.98,14.51625,-10.955,29.448002,18.400002,27.112001,concentric,4,3.0,21059.0,309197.0,279871.0,331059.0,292434.0
2026-04-07 17:51:04.717909,245293,1335088699,1335090227,-0.718336,-0.119072,-0.245952,-1.4175,10.955,-10.01875,29.704,18.384,27.504002,concentric,4,3.0,21059.0,309197.0,279871.0,331059.0,292434.0
2026-04-07 17:51:04.720253,245294,1335097621,1335098919,-0.718336,-0.119072,-0.245952,2.485,7.58625,-7.72625,29.704,18.384,27.504002,concentric,4,3.0,21059.0,309197.0,279871.0,331059.0,292434.0
2026-04-07 17:51:04.752815,245305,1335112226,1335113952,-0.616832,-0.1464,-0.150304,4.8475,5.5475,-6.0375,29.344002,17.856,26.568,concentric,4,3.0,21273.0,310822.0,281098.0,331762.0,292236.0
2026-04-07 17:51:04.755197,245306,1335121223,1335122700,-0.616832,-0.1464,-0.150304,2.66875,3.85,-5.60875,29.344002,17.856,26.568,concentric,4,3.0,21273.0,310822.0,281098.0,331762.0,292236.0
2026-04-07 17:51:04.762435,245307,1335130201,1335131419,-0.64416,-0.220576,-0.134688,-2.93125,2.66875,-2.73875,28.744001,18.104,28.928001,concentric,4,3.0,21273.0,310822.0,281098.0,331762.0,292236.0
2026-04-07 17:51:04.764172,245308,1335144751,1335146348,-0.6344,-0.228384,-0.130784,-10.0975,1.11125,2.65125,29.456001,17.864,27.104002,concentric,4,3.0,21273.0,310822.0,281098.0,331762.0,292236.0
2026-04-07 17:51:04.765641,245309,1335153706,1335155073,-0.6344,-0.228384,-0.130784,-14.6475,-0.25375,6.97375,29.456001,17.864,27.104002,concentric,4,3.0,21273.0,310822.0,281098.0,331762.0,292236.0
2026-04-07 17:51:04.768929,245310,1335162673,1335163739,-0.665632,-0.169824,-0.22448,-13.85125,-0.93625,10.26375,29.888,18.048,27.128002,concentric,4,3.0,21273.0,310822.0,281098.0,331762.0,292236.0
2026-04-07 17:51:04.799188,245311,1335177187,1335178643,-0.665632,-0.169824,-0.22448,-8.91625,-1.1025,13.93875,29.888,18.048,27.128002,concentric,4,3.0,21273.0,310822.0,281098.0,331762.0,292236.0
2026-04-07 17:51:04.803683,245312,1335186102,1335187343,-0.706624,-0.160064,-0.226432,-7.49875,-2.5025,15.636251,30.152002,18.12,26.128002,concentric,4,3.0,21273.0,310822.0,281098.0,331762.0,292236.0
2026-04-07 17:51:04.805196,245313,1335194989,1335196071,-0.706624,-0.160064,-0.226432,-7.0,-4.96125,17.47375,30.152002,18.12,26.128002,concentric,4,3.0,21273.0,310822.0,281098.0,331762.0,292236.0
2026-04-07 17:51:04.839187,245323,1335204265,1335204820,-0.755424,-0.183488,-0.193248,-6.22125,-8.225,18.94375,30.592001,17.656,27.312002,concentric,4,3.0,21014.0,308492.0,279179.0,329828.0,290816.0
2026-04-07 17:51:04.841529,245324,1335218988,1335219807,-0.755424,-0.183488,-0.193248,-5.6175,-10.40375,21.16625,30.592001,17.656,27.312002,concentric,4,3.0,21014.0,308492.0,279179.0,329828.0,290816.0
2026-04-07 17:51:04.843088,245325,1335227946,1335228538,-0.772992,-0.203008,-0.22448,-6.97375,-12.9325,23.31875,31.264002,17.648,27.304,concentric,4,3.0,21014.0,308492.0,279179.0,329828.0,290816.0
2026-04-07 17:51:04.847200,245326,1335237139,1335239306,-0.772992,-0.203008,-0.22448,-8.53125,-15.68875,24.22,31.264002,17.648,27.304,concentric,4,3.0,21014.0,308492.0,279179.0,329828.0,290816.0
2026-04-07 17:51:04.918013,245327,1335251647,1335252177,-0.7808,-0.158112,-0.27328,-7.67375,-18.31375,25.50625,31.864002,17.720001,25.992,eccentric,4,3.0,21014.0,308492.0,279179.0,329828.0,290816.0
2026-04-07 17:51:04.920379,245328,1335261187,1335262956,-0.7808,-0.158112,-0.27328,-7.34125,-20.9125,25.38375,31.864002,17.720001,25.992,eccentric,4,3.0,21014.0,308492.0,279179.0,329828.0,290816.0
2026-04-07 17:51:04.933650,245329,1335270141,1335271662,-0.813984,-0.111264,-0.25376,-7.105,-23.4675,25.31375,32.256,17.456001,26.888,eccentric,4,3.0,21014.0,308492.0,279179.0,329828.0,290816.0
2026-04-07 17:51:04.935285,245330,1335279055,1335280334,-0.813984,-0.111264,-0.25376,-8.085,-25.7075,25.8825,32.256,17.456001,26.888,eccentric,4,3.0,21014.0,308492.0,279179.0,329828.0,290816.0
2026-04-07 17:51:04.936953,245331,1335293535,1335295267,-0.827648,-0.1464,-0.222528,-12.6525,-27.81625,27.48375,32.112003,17.816,26.152,eccentric,4,3.0,21014.0,308492.0,279179.0,329828.0,290816.0
2026-04-07 17:51:04.970334,245341,1335302450,1335304279,-0.827648,-0.121024,-0.189344,-17.21125,-30.31,28.20125,32.112003,17.816,26.152,eccentric,4,3.0,20875.0,307133.0,278015.0,328616.0,290049.0
2026-04-07 17:51:04.972777,245342,1335311402,1335312964,-0.864736,-0.121024,-0.189344,-16.9225,-32.4275,28.56,32.992,17.216002,26.208002,eccentric,4,3.0,20875.0,307133.0,278015.0,328616.0,290049.0
2026-04-07 17:51:04.974396,245343,1335325860,1335327882,-0.8784,-0.083936,-0.208864,-15.295,-34.06375,28.5425,33.84,16.832,26.28,eccentric,4,3.0,20875.0,307133.0,278015.0,328616.0,290049.0
2026-04-07 17:51:04.977763,245344,1335334796,1335336577,-0.8784,-0.083936,-0.208864,-14.175,-35.21,27.01125,33.84,16.832,26.28,eccentric,4,3.0,20875.0,307133.0,278015.0,328616.0,290049.0
2026-04-07 17:51:04.979547,245345,1335343874,1335345297,-0.864736,-0.085888,-0.296704,-14.81375,-37.75625,25.78625,32.936,16.664001,27.864002,eccentric,4,3.0,20875.0,307133.0,278015.0,328616.0,290049.0
2026-04-07 17:51:04.983750,245346,1335358579,1335360334,-0.864736,-0.085888,-0.296704,-14.096251,-38.9025,25.20875,32.936,16.664001,27.864002,eccentric,4,3.0,20875.0,307133.0,278015.0,328616.0,290049.0
2026-04-07 17:51:04.985419,245347,1335367493,1335369028,-0.84912,-0.0976,-0.300608,-12.95875,-40.24125,24.395,33.904003,16.944,26.688002,eccentric,4,3.0,20875.0,307133.0,278015.0,328616.0,290049.0
2026-04-07 17:51:04.987773,245348,1335376436,1335377728,-0.84912,-0.0976,-0.300608,-12.34625,-43.28625,22.05875,33.904003,16.944,26.688002,eccentric,4,3.0,20875.0,307133.0,278015.0,328616.0,290049.0
2026-04-07 17:51:04.994727,245349,1335385381,1335386432,-1.011136,0.001952,-0.189344,-11.06,-48.78125,19.9675,34.584003,16.736,27.784,eccentric,4,3.0,20875.0,307133.0,278015.0,328616.0,290049.0
2026-04-07 17:51:05.023278,245350,1335399842,1335401347,-1.011136,0.001952,-0.189344,-1.95125,-52.2725,21.1225,34.584003,16.736,27.784,eccentric,4,3.0,20875.0,307133.0,278015.0,328616.0,290049.0
2026-04-07 17:51:05.052746,245361,1335408919,1335410133,-1.032608,-0.027328,-0.203008,9.765,-51.87,24.045,35.224003,16.560001,27.152,eccentric,4,3.0,20654.0,304684.0,275677.0,325567.0,287357.0
2026-04-07 17:51:05.054355,245362,1335417840,1335418809,-1.032608,-0.027328,-0.203008,7.28,-50.155,22.3825,35.224003,16.560001,27.152,eccentric,4,3.0,20654.0,304684.0,275677.0,325567.0,287357.0
2026-04-07 17:51:05.058581,245363,1335432344,1335433702,-1.003328,-0.162016,-0.152256,-5.73125,-47.57375,20.4575,35.952003,16.624,27.304,eccentric,4,3.0,20654.0,304684.0,275677.0,325567.0,287357.0
2026-04-07 17:51:05.060461,245364,1335443132,1335443507,-1.003328,-0.162016,-0.152256,-12.792501,-43.18125,20.475,35.952003,16.624,27.304,eccentric,4,3.0,20654.0,304684.0,275677.0,325567.0,287357.0
2026-04-07 17:51:05.062077,245365,1335452526,1335454323,-0.997472,-0.138592,-0.150304,-11.4275,-36.79375,22.9775,35.664,16.472,27.28,eccentric,4,3.0,20654.0,304684.0,275677.0,325567.0,287357.0
2026-04-07 17:51:05.069796,245366,1335461469,1335463068,-0.997472,-0.138592,-0.150304,-9.35375,-31.98125,25.13875,35.664,16.472,27.28,eccentric,4,3.0,20654.0,304684.0,275677.0,325567.0,287357.0
2026-04-07 17:51:05.098304,245367,1335470444,1335471754,-1.091168,-0.011712,-0.089792,-4.0775,-26.10125,26.8275,36.008003,16.128,27.464,eccentric,4,3.0,20654.0,304684.0,275677.0,325567.0,287357.0
2026-04-07 17:51:05.102763,245368,1335484936,1335486752,-1.221952,0.025376,-0.060512,-1.3475,-20.8425,28.0175,37.008003,15.904,29.904001,eccentric,4,3.0,20654.0,304684.0,275677.0,325567.0,287357.0
2026-04-07 17:51:05.104309,245369,1335493848,1335495447,-1.221952,0.025376,-0.060512,0.37625,-16.44125,28.14875,37.008003,15.904,29.904001,eccentric,4,3.0,20654.0,304684.0,275677.0,325567.0,287357.0
2026-04-07 17:51:05.111147,245370,1335502797,1335504148,-1.221952,0.025376,-0.060512,-0.88375,-10.68375,28.67375,37.008003,15.904,29.904001,eccentric,4,3.0,20654.0,304684.0,275677.0,325567.0,287357.0
2026-04-07 17:51:05.135329,245380,1335517294,1335519169,-1.018944,-0.089792,-0.115168,-11.4275,-6.3,25.66375,37.184002,15.504001,26.608002,eccentric,4,3.0,20471.0,302857.0,274056.0,323672.0,285845.0
2026-04-07 17:51:05.136860,245381,1335526215,1335527858,-1.139968,-0.121024,-0.11712,-17.255,-2.7125,21.46375,37.568,15.848001,27.208002,eccentric,4,3.0,20471.0,302857.0,274056.0,323672.0,285845.0
2026-04-07 17:51:05.144920,245382,1335535216,1335536559,-1.139968,-0.121024,-0.11712,-11.64625,-0.07875,21.7175,37.568,15.848001,27.208002,eccentric,4,3.0,20471.0,302857.0,274056.0,323672.0,285845.0
2026-04-07 17:51:05.194301,245383,1335549707,1335551499,-1.116544,-0.015616,-0.249856,-9.31,-0.4375,22.9775,37.656002,15.232,29.664001,eccentric,4,3.0,20471.0,302857.0,274056.0,323672.0,285845.0
2026-04-07 17:51:05.196550,245384,1335558615,1335560226,-1.116544,-0.015616,-0.249856,-9.84375,-1.54875,21.28,37.656002,15.232,29.664001,eccentric,4,3.0,20471.0,302857.0,274056.0,323672.0,285845.0
2026-04-07 17:51:05.201167,245385,1335567548,1335568903,-1.106784,0.054656,-0.220576,-0.69125,-1.54875,19.425,38.24,15.016001,27.544,eccentric,4,3.0,20471.0,302857.0,274056.0,323672.0,285845.0
2026-04-07 17:51:05.202818,245386,1335582036,1335583802,-1.106784,0.054656,-0.220576,5.6525,-1.86375,19.04,38.24,15.016001,27.544,eccentric,4,3.0,20471.0,302857.0,274056.0,323672.0,285845.0
2026-04-07 17:51:05.204393,245387,1335590985,1335592507,-1.157536,-0.050752,-0.121024,2.98375,-2.94,13.86875,39.280003,14.800001,27.672,eccentric,4,3.0,20471.0,302857.0,274056.0,323672.0,285845.0
2026-04-07 17:51:05.208409,245388,1335599923,1335601200,-1.157536,-0.050752,-0.121024,0.00875,-3.68375,11.0775,39.280003,14.800001,27.672,eccentric,4,3.0,20471.0,302857.0,274056.0,323672.0,285845.0
2026-04-07 17:51:05.237381,245398,1335609286,1335610248,-1.06384,-0.138592,-0.150304,-4.3575,-5.88875,9.93125,39.192,14.848001,27.272001,eccentric,4,3.0,20480.0,303037.0,274223.0,323907.0,286077.0
2026-04-07 17:51:05.239046,245399,1335623877,1335625132,-1.06384,-0.099552,-0.169824,-7.35875,-5.95,8.56625,39.192,14.848001,27.272001,eccentric,4,3.0,20480.0,303037.0,274223.0,323907.0,286077.0
2026-04-07 17:51:05.241800,245400,1335632832,1335633864,-1.001376,-0.099552,-0.169824,-3.395,-3.9025,8.09375,38.08,14.192,27.208002,eccentric,4,3.0,20480.0,303037.0,274223.0,323907.0,286077.0
2026-04-07 17:51:05.270752,245401,1335641793,1335642589,-1.001376,-0.099552,-0.169824,-1.46125,-3.6225,5.915,38.08,14.192,27.208002,eccentric,4,3.0,20480.0,303037.0,274223.0,323907.0,286077.0
2026-04-07 17:51:05.275282,245402,1335656335,1335657466,-1.071648,0.037088,-0.201056,0.27125,-4.15625,4.235,39.320004,14.264001,26.736002,eccentric,4,3.0,20480.0,303037.0,274223.0,323907.0,286077.0
2026-04-07 17:51:05.276863,245403,1335665310,1335666166,-1.026752,0.001952,-0.189344,7.42,-4.59375,3.71875,39.84,14.752001,27.616001,eccentric,4,3.0,20480.0,303037.0,274223.0,323907.0,286077.0
2026-04-07 17:51:05.280191,245404,1335674243,1335674858,-1.026752,0.001952,-0.189344,8.47,-7.00875,1.58375,39.84,14.752001,27.616001,eccentric,4,3.0,20480.0,303037.0,274223.0,323907.0,286077.0
2026-04-07 17:51:05.311172,245405,1335683502,1335685628,-1.026752,0.001952,-0.189344,3.01875,-11.0775,-1.3825,39.84,14.752001,27.616001,eccentric,4,3.0,20480.0,303037.0,274223.0,323907.0,286077.0
2026-04-07 17:51:05.320851,245406,1335697993,1335698470,-1.118496,-0.03904,-0.124928,4.71625,-13.85125,-1.785,39.800003,14.296001,28.648,eccentric,4,3.0,20480.0,303037.0,274223.0,323907.0,286077.0
2026-04-07 17:51:05.340613,245417,1335707398,1335709256,-1.118496,-0.00976,-0.189344,4.68125,-16.66,-1.88125,39.984,14.304001,28.376001,eccentric,4,3.0,20536.0,303555.0,274672.0,324321.0,286323.0
2026-04-07 17:51:05.346839,245418,1335716435,1335718013,-1.118496,-0.00976,-0.189344,3.98125,-17.52625,-5.88875,39.984,14.304001,28.376001,eccentric,4,3.0,20536.0,303555.0,274672.0,324321.0,286323.0
2026-04-07 17:51:05.349372,245419,1335730998,1335732995,-1.104832,-0.007808,-0.169824,10.4475,-13.36125,-6.6325,39.808002,14.128,29.272001,eccentric,4,3.0,20536.0,303555.0,274672.0,324321.0,286323.0
2026-04-07 17:51:05.351854,245420,1335740107,1335741819,-1.104832,-0.007808,-0.169824,13.65,-9.52875,-6.65875,39.808002,14.128,29.272001,eccentric,4,3.0,20536.0,303555.0,274672.0,324321.0,286323.0
2026-04-07 17:51:05.356854,245421,1335749135,1335750533,-1.165344,-0.023424,-0.12688,8.9075,-6.93875,-8.505,40.016003,14.344001,28.192001,eccentric,4,3.0,20536.0,303555.0,274672.0,324321.0,286323.0
2026-04-07 17:51:05.387039,245422,1335758126,1335759260,-1.165344,-0.023424,-0.12688,9.02125,-3.29,-7.3325,40.016003,14.344001,28.192001,eccentric,4,3.0,20536.0,303555.0,274672.0,324321.0,286323.0
2026-04-07 17:51:05.390768,245423,1335772638,1335774140,-1.1712,-0.046848,-0.10736,7.6125,-1.3125,-5.565,39.920002,14.272,28.600002,eccentric,4,3.0,20536.0,303555.0,274672.0,324321.0,286323.0
2026-04-07 17:51:05.393505,245424,1335781556,1335782852,-1.1712,-0.046848,-0.10736,2.54625,-0.56,-6.195,39.920002,14.272,28.600002,eccentric,4,3.0,20536.0,303555.0,274672.0,324321.0,286323.0
2026-04-07 17:51:05.396744,245425,1335790495,1335791601,-1.196576,-0.035136,-0.1464,2.2925,-0.27125,-5.43375,40.344,14.016001,28.448002,eccentric,4,3.0,20536.0,303555.0,274672.0,324321.0,286323.0
2026-04-07 17:51:05.428424,245426,1335804989,1335806476,-1.22,0.033184,-0.134688,2.7825,-0.945,-2.9575,40.344,13.848001,28.696001,eccentric,4,3.0,20536.0,303555.0,274672.0,324321.0,286323.0
2026-04-07 17:51:05.485521,245436,1335813921,1335815229,-1.22,0.033184,-0.134688,2.555,-1.3125,-0.58625,39.952003,13.848001,28.696001,eccentric,4,3.0,20476.0,302970.0,274200.0,323841.0,285995.0
2026-04-07 17:51:05.488040,245437,1335822875,1335823978,-1.22,0.033184,-0.134688,8.46125,0.28,0.8575,39.952003,13.848001,28.696001,eccentric,4,3.0,20476.0,302970.0,274200.0,323841.0,285995.0
2026-04-07 17:51:05.490842,245438,1335837379,1335838898,-1.159488,-0.023424,-0.099552,11.94375,0.49875,2.1,40.872,13.856001,28.048002,eccentric,4,3.0,20476.0,302970.0,274200.0,323841.0,285995.0
2026-04-07 17:51:05.493029,245439,1335846314,1335847608,-1.100928,-0.015616,-0.122976,9.555,-0.0175,3.255,40.496002,13.68,28.768002,eccentric,4,3.0,20476.0,302970.0,274200.0,323841.0,285995.0
2026-04-07 17:51:05.495624,245440,1335855259,1335856318,-1.100928,-0.015616,-0.122976,7.02625,-1.1725,3.885,40.496002,13.68,28.768002,eccentric,4,3.0,20476.0,302970.0,274200.0,323841.0,285995.0
2026-04-07 17:51:05.498129,245441,1335869826,1335871243,-1.108736,0.015616,-0.152256,4.7775,-2.51125,3.19375,41.08,13.416,28.272001,eccentric,4,3.0,20476.0,302970.0,274200.0,323841.0,285995.0
2026-04-07 17:51:05.500510,245442,1335878929,1335879960,-1.108736,0.015616,-0.152256,3.78,-1.2775,2.49375,41.08,13.416,28.272001,eccentric,4,3.0,20476.0,302970.0,274200.0,323841.0,285995.0
2026-04-07 17:51:05.503019,245443,1335887862,1335888695,-1.175104,0.003904,-0.132736,4.69,-0.805,1.72375,41.016003,14.256001,28.656002,eccentric,4,3.0,20476.0,302970.0,274200.0,323841.0,285995.0
2026-04-07 17:51:05.505614,245444,1335896844,1335897397,-1.175104,0.003904,-0.132736,5.635,-1.8725,1.65375,41.016003,14.256001,28.656002,eccentric,4,3.0,20476.0,302970.0,274200.0,323841.0,285995.0
2026-04-07 17:51:05.534288,245454,1335911784,1335912449,-1.198528,0.023424,-0.111264,5.92375,-3.85875,0.455,41.464,13.096001,28.896002,eccentric,4,3.0,20638.0,304446.0,275389.0,325085.0,286822.0
2026-04-07 17:51:05.536766,245455,1335921106,1335923293,-1.198528,0.023424,-0.111264,11.8825,-5.59125,1.14625,41.464,13.096001,28.896002,eccentric,4,3.0,20638.0,304446.0,275389.0,325085.0,286822.0
2026-04-07 17:51:05.539337,245456,1335930066,1335932033,-1.087264,0.02928,-0.0976,17.35125,-6.4925,1.18125,41.176003,12.648001,30.12,eccentric,4,3.0,20638.0,304446.0,275389.0,325085.0,286822.0
2026-04-07 17:51:05.569506,245457,1335939013,1335940769,-1.087264,0.02928,-0.0976,16.38,-6.50125,-1.16375,41.176003,12.648001,30.12,eccentric,4,3.0,20638.0,304446.0,275389.0,325085.0,286822.0
2026-04-07 17:51:05.573203,245458,1335953504,1335955621,-1.071648,0.0,-0.072224,10.3775,-6.50125,-2.00375,41.992,12.960001,29.36,eccentric,4,3.0,20638.0,304446.0,275389.0,325085.0,286822.0
2026-04-07 17:51:05.575597,245459,1335962443,1335964323,-1.071648,0.0,-0.072224,4.2875,-6.04625,0.245,41.992,12.960001,29.36,eccentric,4,3.0,20638.0,304446.0,275389.0,325085.0,286822.0
2026-04-07 17:51:05.578141,245460,1335971386,1335973005,-1.149728,-0.027328,-0.037088,1.0325,-5.32,3.4475,42.04,12.808001,29.368002,eccentric,4,3.0,20638.0,304446.0,275389.0,325085.0,286822.0
2026-04-07 17:51:05.608239,245461,1335985845,1335987921,-1.184864,-0.001952,-0.044896,-2.1875,-6.39625,7.14,42.096,12.944,28.672,eccentric,4,3.0,20638.0,304446.0,275389.0,325085.0,286822.0
2026-04-07 17:51:05.611830,245462,1335994772,1335996645,-1.184864,-0.001952,-0.044896,-1.32125,-8.5925,10.73625,42.096,12.944,28.672,eccentric,4,3.0,20638.0,304446.0,275389.0,325085.0,286822.0
2026-04-07 17:51:05.614306,245463,1336003699,1336005331,-1.184864,-0.001952,-0.044896,2.77375,-11.7075,13.83375,42.096,12.944,28.672,eccentric,4,3.0,20638.0,304446.0,275389.0,325085.0,286822.0
2026-04-07 17:51:05.645528,245474,1336018256,1336020350,-1.173152,0.03904,-0.0976,7.0,-14.5775,13.55375,42.424004,12.352,29.240002,eccentric,4,3.0,21099.0,308567.0,278702.0,328519.0,289755.0
2026-04-07 17:51:05.648117,245475,1336027288,1336029065,-1.18096,0.083936,-0.158112,9.42375,-15.70625,12.32875,42.936,12.120001,29.640001,eccentric,4,3.0,21099.0,308567.0,278702.0,328519.0,289755.0
2026-04-07 17:51:05.650499,245476,1336036258,1336037780,-1.18096,0.083936,-0.158112,8.00625,-15.75875,10.45625,42.936,12.120001,29.640001,eccentric,4,3.0,21099.0,308567.0,278702.0,328519.0,289755.0
2026-04-07 17:51:05.680738,245477,1336050838,1336052669,-1.21024,0.089792,-0.11712,8.1025,-16.09125,8.8725,43.52,12.072001,31.048002,eccentric,4,3.0,21099.0,308567.0,278702.0,328519.0,289755.0
2026-04-07 17:51:05.684283,245478,1336059769,1336061367,-1.21024,0.089792,-0.11712,8.96875,-16.3275,6.895,43.52,12.072001,31.048002,eccentric,4,3.0,21099.0,308567.0,278702.0,328519.0,289755.0
2026-04-07 17:51:05.686807,245479,1336068701,1336070071,-1.280512,0.0488,-0.044896,8.25125,-16.397501,5.52125,42.792004,11.120001,30.272001,eccentric,4,3.0,21099.0,308567.0,278702.0,328519.0,289755.0
2026-04-07 17:51:05.689287,245480,1336077627,1336078759,-1.280512,0.0488,-0.044896,8.0675,-16.56375,3.9025,42.792004,11.120001,30.272001,eccentric,4,3.0,21099.0,308567.0,278702.0,328519.0,289755.0
2026-04-07 17:51:05.719566,245481,1336092144,1336093681,-1.241472,0.070272,0.017568,13.83375,-15.18125,2.555,43.192,11.728001,30.032001,eccentric,4,3.0,21099.0,308567.0,278702.0,328519.0,289755.0
2026-04-07 17:51:05.723152,245482,1336101088,1336102372,-1.241472,0.070272,0.017568,16.12625,-13.02,1.32125,43.192,11.728001,30.032001,eccentric,4,3.0,21099.0,308567.0,278702.0,328519.0,289755.0
2026-04-07 17:51:05.784107,245492,1336110458,1336111315,-1.206336,0.056608,-0.0488,12.7225,-12.3725,0.62125,43.368004,11.552001,30.152002,eccentric,4,3.0,21924.0,315641.0,284418.0,334347.0,294703.0
2026-04-07 17:51:05.786654,245493,1336125011,1336126220,-1.206336,0.056608,-0.0488,3.73625,-11.06875,-0.98875,43.368004,11.552001,30.152002,eccentric,4,3.0,21924.0,315641.0,284418.0,334347.0,294703.0
2026-04-07 17:51:05.788282,245494,1336134006,1336134943,-1.23952,0.013664,-0.066368,-6.1425,-10.3425,-1.91625,42.448,10.944,32.800003,eccentric,4,3.0,21924.0,315641.0,284418.0,334347.0,294703.0
2026-04-07 17:51:05.791762,245495,1336142922,1336143644,-1.23952,0.013664,-0.066368,-10.28125,-9.37125,-0.5075,42.448,10.944,32.800003,eccentric,4,3.0,21924.0,315641.0,284418.0,334347.0,294703.0
2026-04-07 17:51:05.796576,245496,1336152319,1336154461,-1.276608,-0.074176,-0.109312,-8.8725,-9.68625,2.31875,43.496002,11.64,30.520002,eccentric,4,3.0,21924.0,315641.0,284418.0,334347.0,294703.0
2026-04-07 17:51:05.798029,245497,1336166922,1336167305,-1.202432,-0.1464,-0.11712,-5.87125,-12.27625,7.62125,43.288002,11.272,29.984001,eccentric,4,3.0,21924.0,315641.0,284418.0,334347.0,294703.0
2026-04-07 17:51:05.802364,245498,1336176212,1336178076,-1.202432,-0.1464,-0.11712,0.67375,-15.33875,14.84,43.288002,11.272,29.984001,eccentric,4,3.0,21924.0,315641.0,284418.0,334347.0,294703.0
2026-04-07 17:51:05.804081,245499,1336185164,1336186805,-1.202432,-0.1464,-0.11712,14.4725,-16.4325,21.62125,43.288002,11.272,29.984001,eccentric,4,3.0,21924.0,315641.0,284418.0,334347.0,294703.0
2026-04-07 17:51:05.805714,245500,1336199657,1336201731,-1.143872,-0.03904,-0.093696,26.32,-15.5575,25.9525,42.768,10.896001,29.232002,eccentric,4,3.0,21924.0,315641.0,284418.0,334347.0,294703.0
2026-04-07 17:51:05.863197,245510,1336208605,1336210451,-1.159488,0.031232,-0.021472,27.58875,-14.41125,28.0175,43.752003,9.96,32.304,eccentric,4,3.0,22857.0,323794.0,290949.0,341332.0,299950.0
2026-04-07 17:51:05.867372,245511,1336218014,1336219193,-1.159488,0.031232,-0.021472,19.13625,-13.23875,29.42625,43.752003,9.96,32.304,eccentric,4,3.0,22857.0,323794.0,290949.0,341332.0,299950.0
2026-04-07 17:51:05.869060,245512,1336226899,1336227888,-1.179008,0.005856,0.00976,5.13625,-12.3375,30.975,44.136,9.712001,31.544,eccentric,4,3.0,22857.0,323794.0,290949.0,341332.0,299950.0
2026-04-07 17:51:05.872155,245513,1336241368,1336242791,-1.179008,0.005856,0.00976,-7.9625,-11.92625,32.99625,44.136,9.712001,31.544,eccentric,4,3.0,22857.0,323794.0,290949.0,341332.0,299950.0
2026-04-07 17:51:05.874870,245514,1336250327,1336251542,-1.159488,-0.113216,-0.035136,-14.752501,-11.76875,34.0025,44.632004,8.904,31.232002,eccentric,4,3.0,22857.0,323794.0,290949.0,341332.0,299950.0
2026-04-07 17:51:05.877284,245515,1336259239,1336260333,-1.159488,-0.113216,-0.035136,-15.23375,-10.7975,33.5825,44.632004,8.904,31.232002,eccentric,4,3.0,22857.0,323794.0,290949.0,341332.0,299950.0
2026-04-07 17:51:05.881354,245516,1336273729,1336275226,-1.091168,-0.05856,-0.074176,-14.245,-10.7975,33.39875,44.232002,8.696,31.584002,eccentric,4,3.0,22857.0,323794.0,290949.0,341332.0,299950.0
2026-04-07 17:51:05.911692,245517,1336282661,1336283951,-1.091168,-0.05856,-0.074176,-12.0575,-10.45625,32.095,44.232002,8.696,31.584002,eccentric,4,3.0,22857.0,323794.0,290949.0,341332.0,299950.0
2026-04-07 17:51:05.914032,245518,1336291577,1336292660,-1.114592,0.0488,-0.091744,-11.9,-9.9925,31.465,45.208004,8.392,32.472,eccentric,4,3.0,22857.0,323794.0,290949.0,341332.0,299950.0
2026-04-07 17:51:05.918639,245519,1336306039,1336307536,-1.114592,0.0488,-0.091744,-15.2425,-9.68625,30.87875,45.208004,8.392,32.472,eccentric,4,3.0,22857.0,323794.0,290949.0,341332.0,299950.0
2026-04-07 17:51:05.945444,245530,1336315114,1336316369,-1.155584,0.046848,-0.076128,-20.4575,-10.19375,29.9775,44.792004,8.512,31.240002,eccentric,4,3.0,23345.0,328546.0,294893.0,345705.0,303450.0
2026-04-07 17:51:05.946889,245531,1336324053,1336325205,-1.155584,0.046848,-0.076128,-25.03375,-10.94625,29.33875,44.792004,8.512,31.240002,eccentric,4,3.0,23345.0,328546.0,294893.0,345705.0,303450.0
2026-04-07 17:51:05.952118,245532,1336338570,1336340177,-1.179008,-0.03904,-0.033184,-27.76375,-10.8675,28.20125,45.352,7.864,32.144,eccentric,4,3.0,23345.0,328546.0,294893.0,345705.0,303450.0
2026-04-07 17:51:05.955972,245533,1336347505,1336348892,-1.159488,-0.081984,-0.021472,-26.38125,-11.76875,27.25625,45.152,7.72,32.192,eccentric,4,3.0,23345.0,328546.0,294893.0,345705.0,303450.0
2026-04-07 17:51:05.984561,245534,1336356506,1336357623,-1.159488,-0.081984,-0.021472,-20.9825,-13.13375,26.29375,45.152,7.72,32.192,eccentric,4,3.0,23345.0,328546.0,294893.0,345705.0,303450.0
2026-04-07 17:51:05.989888,245535,1336365429,1336366320,-1.159488,-0.081984,-0.021472,-15.1725,-14.1575,25.55875,45.152,7.72,32.192,eccentric,4,3.0,23345.0,328546.0,294893.0,345705.0,303450.0
2026-04-07 17:51:05.991472,245536,1336379883,1336381210,-1.114592,-0.089792,-0.066368,-9.82625,-14.06125,24.5875,45.848003,7.32,30.248001,eccentric,4,3.0,23345.0,328546.0,294893.0,345705.0,303450.0
2026-04-07 17:51:05.997244,245537,1336388776,1336389896,-1.110688,-0.00976,-0.076128,-3.99875,-12.8975,22.855,45.832,6.992,31.552002,eccentric,4,3.0,23345.0,328546.0,294893.0,345705.0,303450.0
2026-04-07 17:51:06.026000,245538,1336397761,1336398598,-1.110688,-0.00976,-0.076128,-2.59875,-10.36,20.25625,45.832,6.992,31.552002,eccentric,4,3.0,23345.0,328546.0,294893.0,345705.0,303450.0
2026-04-07 17:51:06.087338,245548,1336412615,1336413627,-1.147776,0.0,-0.083936,-5.985,-9.02125,17.68375,45.936,6.968,31.192001,eccentric,4,3.0,23756.0,332313.0,298129.0,349376.0,306543.0
2026-04-07 17:51:06.089034,245549,1336421676,1336422398,-1.147776,0.0,-0.083936,-13.76375,-8.2775,16.205,45.936,6.968,31.192001,eccentric,4,3.0,23756.0,332313.0,298129.0,349376.0,306543.0
2026-04-07 17:51:06.090581,245550,1336431131,1336433166,-1.143872,-0.044896,-0.044896,-19.678751,-7.46375,15.37375,45.192,5.960001,33.576,eccentric,4,3.0,23756.0,332313.0,298129.0,349376.0,306543.0
2026-04-07 17:51:06.094875,245551,1336440062,1336441879,-1.143872,-0.044896,-0.044896,-20.51,-7.1225,14.28875,45.192,5.960001,33.576,eccentric,4,3.0,23756.0,332313.0,298129.0,349376.0,306543.0
2026-04-07 17:51:06.096523,245552,1336454603,1336456788,-1.157536,-0.06832,-0.044896,-18.2525,-7.07875,12.85375,45.448,6.64,31.304,eccentric,4,3.0,23756.0,332313.0,298129.0,349376.0,306543.0
2026-04-07 17:51:06.098085,245553,1336463510,1336465479,-1.157536,-0.06832,-0.044896,-14.41125,-7.105,10.94625,45.448,6.64,31.304,eccentric,4,3.0,23756.0,332313.0,298129.0,349376.0,306543.0
2026-04-07 17:51:06.100661,245554,1336472414,1336474188,-1.128256,-0.015616,-0.037088,-10.01875,-6.18625,8.54875,46.160004,6.528,30.992,eccentric,4,3.0,23756.0,332313.0,298129.0,349376.0,306543.0
2026-04-07 17:51:06.104129,245555,1336486960,1336489214,-1.128256,-0.015616,-0.037088,-6.3175,-5.145,6.37875,46.160004,6.528,30.992,eccentric,4,3.0,23756.0,332313.0,298129.0,349376.0,306543.0
2026-04-07 17:51:06.106407,245556,1336495870,1336497948,-1.13216,-0.027328,-0.06832,-5.60875,-4.095,5.04,46.288002,6.376,31.800001,eccentric,4,3.0,23756.0,332313.0,298129.0,349376.0,306543.0
2026-04-07 17:51:06.113492,245557,1336504816,1336506682,-1.13216,-0.027328,-0.06832,-9.073751,-3.21125,3.77125,46.288002,6.376,31.800001,eccentric,4,3.0,23756.0,332313.0,298129.0,349376.0,306543.0
2026-04-07 17:51:06.141140,245567,1336519730,1336521929,-1.14192,-0.052704,-0.060512,-12.76625,-2.1875,1.86375,46.184002,6.048,31.36,eccentric,4,3.0,23870.0,333258.0,298894.0,350194.0,307182.0
2026-04-07 17:51:06.142807,245568,1336528662,1336530650,-1.145824,-0.044896,-0.070272,-12.36375,-0.6125,-0.7,45.632004,6.232,33.088,eccentric,4,3.0,23870.0,333258.0,298894.0,350194.0,307182.0
2026-04-07 17:51:06.144435,245569,1336537619,1336539400,-1.145824,-0.044896,-0.070272,-10.57,0.63,-3.33375,45.632004,6.232,33.088,eccentric,4,3.0,23870.0,333258.0,298894.0,350194.0,307182.0
2026-04-07 17:51:06.173285,245570,1336546596,1336548113,-1.145824,-0.044896,-0.070272,-10.78875,1.4,-5.80125,45.632004,6.232,33.088,eccentric,4,3.0,23870.0,333258.0,298894.0,350194.0,307182.0
2026-04-07 17:51:06.177765,245571,1336561092,1336562998,-1.145824,-0.06832,-0.093696,-10.5525,1.86375,-8.26,46.192,6.344,31.568,eccentric,4,3.0,23870.0,333258.0,298894.0,350194.0,307182.0
2026-04-07 17:51:06.179388,245572,1336570050,1336571691,-1.138016,-0.072224,-0.07808,-7.62125,2.0825,-9.2225,46.192,6.272,31.096,eccentric,4,3.0,23870.0,333258.0,298894.0,350194.0,307182.0
2026-04-07 17:51:06.187226,245573,1336578994,1336580423,-1.138016,-0.072224,-0.07808,-1.35625,2.3625,-11.62,46.192,6.272,31.096,eccentric,4,3.0,23870.0,333258.0,298894.0,350194.0,307182.0
2026-04-07 17:51:06.215806,245574,1336593498,1336595330,-1.104832,-0.044896,-0.070272,5.52125,2.42375,-13.055,45.72,6.824,31.272001,eccentric,4,3.0,23870.0,333258.0,298894.0,350194.0,307182.0
2026-04-07 17:51:06.220308,245575,1336602431,1336604016,-1.104832,-0.044896,-0.070272,9.58125,3.15,-14.20125,45.72,6.824,31.272001,eccentric,4,3.0,23870.0,333258.0,298894.0,350194.0,307182.0
2026-04-07 17:51:06.246899,245586,1336611813,1336612657,-1.106784,-0.033184,-0.062464,9.8,4.3225,-15.645,45.936,6.552001,31.144001,eccentric,4,3.0,23177.0,326675.0,293176.0,343577.0,301349.0
2026-04-07 17:51:06.251232,245587,1336620811,1336621446,-1.106784,-0.033184,-0.062464,8.225,5.27625,-16.63375,45.936,6.552001,31.144001,eccentric,4,3.0,23177.0,326675.0,293176.0,343577.0,301349.0
2026-04-07 17:51:06.253831,245588,1336635815,1336636450,-1.130208,-0.046848,-0.054656,4.13875,6.3,-18.3925,45.912003,6.864,31.496002,eccentric,4,3.0,23177.0,326675.0,293176.0,343577.0,301349.0
2026-04-07 17:51:06.260043,245589,1336645116,1336647214,-1.130208,-0.046848,-0.054656,-1.96,7.035,-18.9,45.912003,6.864,31.496002,eccentric,4,3.0,23177.0,326675.0,293176.0,343577.0,301349.0
2026-04-07 17:51:06.261486,245590,1336654072,1336655925,-1.136064,-0.040992,-0.042944,-5.99375,6.76375,-19.17125,45.672,7.520001,31.216002,eccentric,4,3.0,23177.0,326675.0,293176.0,343577.0,301349.0
2026-04-07 17:51:06.291692,245591,1336668655,1336670838,-1.108736,-0.07808,-0.070272,-6.50125,7.77875,-19.41625,45.672,7.248,31.496002,eccentric,4,3.0,23177.0,326675.0,293176.0,343577.0,301349.0
2026-04-07 17:51:06.296127,245592,1336677559,1336679518,-1.108736,-0.07808,-0.070272,-5.6525,9.10875,-22.04125,45.52,7.248,31.496002,eccentric,4,3.0,23177.0,326675.0,293176.0,343577.0,301349.0
2026-04-07 17:51:06.297687,245593,1336686493,1336688197,-1.108736,-0.07808,-0.070272,-6.16,8.96875,-23.3625,45.52,7.248,31.496002,eccentric,4,3.0,23177.0,326675.0,293176.0,343577.0,301349.0
2026-04-07 17:51:06.303470,245594,1336695442,1336696861,-1.110688,-0.08784,-0.07808,-4.3225,10.45625,-24.465,45.416,7.168,30.696001,eccentric,4,3.0,23177.0,326675.0,293176.0,343577.0,301349.0
2026-04-07 17:51:06.332055,245595,1336709930,1336711792,-1.147776,-0.037088,-0.083936,-0.98875,11.78625,-25.366251,44.792004,7.424,32.352,eccentric,4,3.0,23177.0,326675.0,293176.0,343577.0,301349.0
