pc_time,serial_num,sensor_ts,host_ts,ax,ay,az,gx,gy,gz,mx,my,mz,phase,rpe,weight_kg,ppg_a,ppg_b,ppg_c,ppg_d,ppg_e
2026-04-09 22:38:23.659611,543551,3233513975,3233515394,-1.046272,0.089792,0.013664,6.13375,-4.40125,-4.34,17.968,-29.840002,39.288002,concentric,7,5.0,22236.0,403431.0,193503.0,50406.0,1347.0
2026-04-09 22:38:23.663810,543552,3233522936,3233524079,-1.050176,0.119072,0.003904,5.55625,-3.9025,-3.28125,16.768002,-29.576002,39.032,concentric,7,5.0,22236.0,403431.0,193503.0,50406.0,1347.0
2026-04-09 22:38:23.665515,543553,3233537396,3233538987,-1.038464,0.101504,-0.001952,3.36,-3.99,-2.77375,18.488,-29.624,39.072002,concentric,7,5.0,22236.0,403431.0,193503.0,50406.0,1347.0
2026-04-09 22:38:23.667040,543554,3233546364,3233547722,-1.038464,0.101504,-0.001952,3.14125,-3.80625,-3.70125,18.488,-29.624,39.072002,concentric,7,5.0,22236.0,403431.0,193503.0,50406.0,1347.0
2026-04-09 22:38:23.671312,543555,3233555345,3233556499,-1.03456,0.095648,-0.005856,3.29,-3.6575,-4.13,18.488,-29.624,38.584003,concentric,7,5.0,22236.0,403431.0,193503.0,50406.0,1347.0
2026-04-09 22:38:23.673016,543556,3233569817,3233571433,-1.03456,0.095648,-0.005856,4.0425,-3.535,-4.61125,17.808,-29.856,38.584003,concentric,7,5.0,22236.0,403431.0,193503.0,50406.0,1347.0
2026-04-09 22:38:23.674555,543557,3233578784,3233580179,-1.013088,0.11712,0.015616,3.6575,-3.78,-3.89375,16.592001,-29.992,40.872,concentric,7,5.0,22236.0,403431.0,193503.0,50406.0,1347.0
2026-04-09 22:38:23.705631,543558,3233587715,3233588875,-1.013088,0.11712,0.015616,1.89,-3.89375,-3.535,16.592001,-29.992,40.872,concentric,7,5.0,22236.0,403431.0,193503.0,50406.0,1347.0
2026-04-09 22:38:23.710105,543559,3233596610,3233597613,-1.009184,0.115168,-0.005856,-1.56625,-3.08,-3.0275,17.696001,-29.944002,36.568,concentric,7,5.0,22236.0,403431.0,193503.0,50406.0,1347.0
2026-04-09 22:38:23.712710,543560,3233611080,3233612566,-1.009184,0.115168,-0.005856,-5.18,-2.49375,-4.1475,17.696001,-29.944002,36.568,concentric,7,5.0,22236.0,403431.0,193503.0,50406.0,1347.0
2026-04-09 22:38:23.787635,543571,3233620132,3233621301,-1.020896,0.0976,-0.03904,-4.9875,-2.5725,-5.46,17.376001,-29.448002,39.52,concentric,7,5.0,22156.0,403431.0,194640.0,51478.0,1453.0
2026-04-09 22:38:23.789305,543572,3233629026,3233630165,-1.020896,0.0976,-0.03904,-2.8875,-2.80875,-7.07,17.376001,-29.448002,39.52,concentric,7,5.0,22156.0,403431.0,194640.0,51478.0,1453.0
2026-04-09 22:38:23.791960,543573,3233643515,3233645063,-1.050176,0.111264,-0.050752,-0.2975,-1.89,-7.55125,17.576,-29.528002,39.656002,concentric,7,5.0,22156.0,403431.0,194640.0,51478.0,1453.0
2026-04-09 22:38:23.794221,543574,3233652476,3233653814,-1.050176,0.111264,-0.050752,-0.34125,-1.54,-7.5425,17.576,-29.528002,39.656002,concentric,7,5.0,22156.0,403431.0,194640.0,51478.0,1453.0
2026-04-09 22:38:23.796731,543575,3233661425,3233662511,-1.01504,0.130784,0.027328,-1.3125,-1.05875,-7.63875,17.832,-29.688002,39.552002,concentric,7,5.0,22156.0,403431.0,194640.0,51478.0,1453.0
2026-04-09 22:38:23.798503,543576,3233675947,3233677428,-1.028704,0.111264,-0.003904,-4.5325,-0.79625,-7.84,17.832,-29.632002,41.792004,concentric,7,5.0,22156.0,403431.0,194640.0,51478.0,1453.0
2026-04-09 22:38:23.802770,543577,3233684879,3233686068,-1.028704,0.111264,-0.003904,-7.07,-0.62125,-8.07625,17.336,-29.632002,41.792004,concentric,7,5.0,22156.0,403431.0,194640.0,51478.0,1453.0
2026-04-09 22:38:23.804518,543578,3233693747,3233694832,-1.028704,0.111264,-0.003904,-4.83,0.11375,-8.8375,17.336,-29.632002,41.792004,concentric,7,5.0,22156.0,403431.0,194640.0,51478.0,1453.0
2026-04-09 22:38:23.806219,543579,3233708258,3233709747,-1.075552,0.099552,-0.056608,-3.29875,1.25125,-8.35625,17.208,-29.576002,40.504,concentric,7,5.0,22156.0,403431.0,194640.0,51478.0,1453.0
2026-04-09 22:38:23.830947,543589,3233717360,3233718737,-1.046272,0.099552,-0.01952,-4.43625,1.5225,-7.9275,16.688002,-29.784002,40.496002,concentric,7,5.0,22080.0,403431.0,195749.0,52459.0,1542.0
2026-04-09 22:38:23.835027,543590,3233726396,3233727466,-1.046272,0.099552,-0.01952,-4.85625,1.575,-7.37625,16.688002,-29.784002,40.496002,concentric,7,5.0,22080.0,403431.0,195749.0,52459.0,1542.0
2026-04-09 22:38:23.836650,543591,3233735423,3233736180,-1.046272,0.099552,-0.01952,-4.0075,2.4325,-7.5425,16.688002,-29.784002,40.496002,concentric,7,5.0,22080.0,403431.0,195749.0,52459.0,1542.0
2026-04-09 22:38:23.866838,543592,3233750342,3233751128,-1.046272,0.122976,-0.013664,-4.47125,4.095,-7.4725,16.856,-29.656002,40.024002,concentric,7,5.0,22080.0,403431.0,195749.0,52459.0,1542.0
2026-04-09 22:38:23.869185,543593,3233759802,3233761959,-1.069696,0.130784,-0.062464,-4.9875,4.795,-7.53375,17.624,-29.136002,39.640003,concentric,7,5.0,22080.0,403431.0,195749.0,52459.0,1542.0
2026-04-09 22:38:23.873772,543594,3233768727,3233770658,-1.069696,0.130784,-0.062464,-4.7075,5.50375,-8.4525,17.624,-29.136002,39.640003,concentric,7,5.0,22080.0,403431.0,195749.0,52459.0,1542.0
2026-04-09 22:38:23.875399,543595,3233777639,3233779328,-1.071648,0.105408,-0.042944,-3.64875,5.6525,-9.1875,17.76,-29.608002,40.216003,concentric,7,5.0,22080.0,403431.0,195749.0,52459.0,1542.0
2026-04-09 22:38:23.908138,543596,3233792220,3233794279,-1.071648,0.105408,-0.042944,-2.58125,6.0375,-9.17875,17.76,-29.608002,40.216003,concentric,7,5.0,22080.0,403431.0,195749.0,52459.0,1542.0
2026-04-09 22:38:23.913044,543597,3233801147,3233802972,-1.050176,0.0976,0.011712,-1.35625,6.06375,-9.14375,17.616001,-29.248001,39.864002,concentric,7,5.0,22080.0,403431.0,195749.0,52459.0,1542.0
2026-04-09 22:38:23.918903,543598,3233810067,3233811668,-1.050176,0.0976,0.011712,0.0175,6.16,-9.765,17.616001,-29.248001,39.864002,concentric,7,5.0,22080.0,403431.0,195749.0,52459.0,1542.0
2026-04-09 22:38:23.949587,543608,3233824618,3233826709,-1.057984,0.121024,-0.003904,0.2975,7.0875,-9.54625,17.864,-29.544,39.56,concentric,7,5.0,21962.0,403431.0,197527.0,54089.0,1708.0
2026-04-09 22:38:23.953788,543609,3233833533,3233835407,-1.057984,0.121024,-0.003904,-0.6475,8.42625,-9.6775,17.864,-29.544,39.56,concentric,7,5.0,21962.0,403431.0,197527.0,54089.0,1708.0
2026-04-09 22:38:23.955483,543610,3233842497,3233844154,-1.071648,0.093696,-0.056608,-0.8925,9.0125,-9.345,17.776001,-29.536001,39.72,concentric,7,5.0,21962.0,403431.0,197527.0,54089.0,1708.0
2026-04-09 22:38:23.957113,543611,3233857011,3233859138,-1.057984,0.074176,-0.035136,-0.7175,8.925,-8.04125,17.448,-29.256,35.608,concentric,7,5.0,21962.0,403431.0,197527.0,54089.0,1708.0
2026-04-09 22:38:23.962536,543612,3233865925,3233867857,-1.057984,0.074176,-0.035136,-0.5425,8.645,-7.595,17.448,-29.256,35.608,concentric,7,5.0,21962.0,403431.0,197527.0,54089.0,1708.0
2026-04-09 22:38:23.991031,543613,3233874833,3233876567,-1.057984,0.074176,-0.035136,0.93625,8.07625,-6.62375,17.448,-29.256,35.608,concentric,7,5.0,21962.0,403431.0,197527.0,54089.0,1708.0
2026-04-09 22:38:23.995716,543614,3233889306,3233891457,-1.048224,0.113216,0.011712,1.4525,7.91,-5.85375,18.032001,-29.792002,41.584003,concentric,7,5.0,21962.0,403431.0,197527.0,54089.0,1708.0
2026-04-09 22:38:23.996997,543615,3233898201,3233900188,-1.077504,0.083936,-0.007808,1.1725,8.33875,-6.3,17.92,-29.464,37.744003,concentric,7,5.0,21962.0,403431.0,197527.0,54089.0,1708.0
2026-04-09 22:38:24.003728,543616,3233907126,3233908884,-1.077504,0.083936,-0.007808,-0.84,9.23125,-6.50125,17.92,-29.464,37.744003,concentric,7,5.0,21962.0,403431.0,197527.0,54089.0,1708.0
2026-04-09 22:38:24.104450,543627,3233916207,3233917660,-1.077504,0.083936,-0.007808,-2.54625,9.5725,-6.20375,17.92,-29.464,37.744003,concentric,7,5.0,21847.0,403431.0,199137.0,55655.0,1886.0
2026-04-09 22:38:24.106734,543628,3233930755,3233932564,-1.069696,0.081984,-0.00976,-1.05,10.24625,-6.5975,18.848001,-29.112001,41.856003,concentric,7,5.0,21847.0,403431.0,199137.0,55655.0,1886.0
2026-04-09 22:38:24.111315,543629,3233939669,3233941260,-1.050176,0.105408,-0.001952,-0.23625,9.695,-7.25375,18.28,-29.424002,40.04,concentric,7,5.0,21847.0,403431.0,199137.0,55655.0,1886.0
2026-04-09 22:38:24.113058,543630,3233948631,3233949960,-1.050176,0.105408,-0.001952,-0.20125,9.44125,-7.11375,18.28,-29.424002,40.04,concentric,7,5.0,21847.0,403431.0,199137.0,55655.0,1886.0
2026-04-09 22:38:24.114674,543631,3233963175,3233964885,-1.036512,0.085888,0.027328,-1.02375,9.40625,-7.2275,17.096,-29.192001,40.728,concentric,7,5.0,21847.0,403431.0,199137.0,55655.0,1886.0
2026-04-09 22:38:24.118819,543632,3233972153,3233973667,-1.036512,0.085888,0.027328,-2.3625,8.995,-7.385,17.096,-29.192001,40.728,concentric,7,5.0,21847.0,403431.0,199137.0,55655.0,1886.0
2026-04-09 22:38:24.121528,543633,3233981133,3233982439,-1.048224,0.062464,0.00976,-3.8675,8.1725,-7.00875,17.960001,-29.056002,40.472,concentric,7,5.0,21847.0,403431.0,199137.0,55655.0,1886.0
2026-04-09 22:38:24.123144,543634,3233995611,3233997334,-1.048224,0.062464,0.00976,-4.96125,7.83125,-6.4575,17.960001,-29.056002,40.472,concentric,7,5.0,21847.0,403431.0,199137.0,55655.0,1886.0
2026-04-09 22:38:24.125766,543635,3234004534,3234006032,-1.03456,0.074176,0.007808,-5.39875,7.735,-6.39625,18.44,-29.224,40.384003,concentric,7,5.0,21847.0,403431.0,199137.0,55655.0,1886.0
2026-04-09 22:38:24.127184,543636,3234013471,3234014727,-1.03456,0.074176,0.007808,-6.18625,7.14875,-5.69625,18.44,-29.224,40.384003,concentric,7,5.0,21847.0,403431.0,199137.0,55655.0,1886.0
2026-04-09 22:38:24.152214,543646,3234022587,3234023499,-1.0248,0.076128,0.0,-7.11375,7.105,-5.285,17.616001,-29.408,40.584003,concentric,7,5.0,21821.0,403431.0,200114.0,56663.0,2010.0
2026-04-09 22:38:24.156361,543647,3234037142,3234038473,-1.03456,0.072224,0.003904,-6.57125,6.69375,-6.4225,17.616001,-29.408,39.912003,concentric,7,5.0,21821.0,403431.0,200114.0,56663.0,2010.0
2026-04-09 22:38:24.158059,543648,3234046089,3234047193,-1.03456,0.072224,0.003904,-5.08375,6.67625,-7.55125,17.160002,-28.736002,39.912003,concentric,7,5.0,21821.0,403431.0,200114.0,56663.0,2010.0
2026-04-09 22:38:24.159621,543649,3234055235,3234055991,-1.03456,0.072224,0.003904,-4.34875,6.7025,-7.9625,17.160002,-28.736002,39.912003,concentric,7,5.0,21821.0,403431.0,200114.0,56663.0,2010.0
2026-04-09 22:38:24.165031,543650,3234070311,3234070964,-1.0248,0.085888,0.00976,-2.555,6.64125,-8.00625,17.656,-28.944002,41.352,concentric,7,5.0,21821.0,403431.0,200114.0,56663.0,2010.0
2026-04-09 22:38:24.193469,543651,3234079540,3234081725,-1.01504,0.093696,0.003904,-2.91375,6.16,-7.6125,18.256,-28.952002,39.472,concentric,7,5.0,21821.0,403431.0,200114.0,56663.0,2010.0
2026-04-09 22:38:24.198960,543652,3234088479,3234090444,-1.01504,0.093696,0.003904,-5.88875,5.97625,-6.1075,18.256,-28.952002,39.472,concentric,7,5.0,21821.0,403431.0,200114.0,56663.0,2010.0
2026-04-09 22:38:24.199624,543653,3234097456,3234099138,-1.020896,0.054656,-0.013664,-10.167501,6.58875,-6.23875,18.256,-28.952002,41.496002,concentric,7,5.0,21821.0,403431.0,200114.0,56663.0,2010.0
2026-04-09 22:38:24.215197,543654,3234112005,3234114081,-1.020896,0.054656,-0.013664,-11.47125,6.51875,-7.4725,18.632,-28.768002,41.496002,concentric,7,5.0,21821.0,403431.0,200114.0,56663.0,2010.0
2026-04-09 22:38:24.239290,543664,3234121630,3234123039,-1.016992,0.056608,-0.031232,-9.31875,6.825,-7.6825,18.640001,-28.920002,39.640003,concentric,7,5.0,21754.0,403431.0,201253.0,57820.0,2160.0
2026-04-09 22:38:24.240977,543665,3234130600,3234131836,-1.016992,0.056608,-0.031232,-7.70875,6.74625,-7.91875,18.640001,-28.920002,39.640003,concentric,7,5.0,21754.0,403431.0,201253.0,57820.0,2160.0
2026-04-09 22:38:24.245012,543666,3234145129,3234146793,-0.987712,0.08784,-0.00976,-6.76375,6.62375,-7.6475,18.44,-29.04,39.272003,concentric,7,5.0,21754.0,403431.0,201253.0,57820.0,2160.0
2026-04-09 22:38:24.249146,543667,3234154077,3234155524,-0.987712,0.08784,-0.00976,-6.755,6.36125,-6.99125,18.44,-29.04,39.272003,concentric,7,5.0,21754.0,403431.0,201253.0,57820.0,2160.0
2026-04-09 22:38:24.258768,543668,3234163069,3234164280,-0.989664,0.085888,-0.01952,-7.84875,6.48375,-7.14,18.736,-28.992,40.08,concentric,7,5.0,21754.0,403431.0,201253.0,57820.0,2160.0
2026-04-09 22:38:24.287623,543669,3234172015,3234172981,-0.989664,0.085888,-0.01952,-8.44375,7.09625,-7.55125,18.736,-28.992,40.08,concentric,7,5.0,21754.0,403431.0,201253.0,57820.0,2160.0
2026-04-09 22:38:24.290878,543670,3234186548,3234187878,-0.997472,0.06832,-0.035136,-10.22875,7.86625,-8.18125,19.192001,-28.832,39.904003,concentric,7,5.0,21754.0,403431.0,201253.0,57820.0,2160.0
2026-04-09 22:38:24.294958,543671,3234195464,3234196595,-0.997472,0.06832,-0.035136,-11.3575,8.715,-8.12,19.192001,-28.832,39.904003,concentric,7,5.0,21754.0,403431.0,201253.0,57820.0,2160.0
2026-04-09 22:38:24.299982,543672,3234204432,3234205283,-0.98576,0.083936,-0.03904,-10.17625,8.56625,-9.275,19.176,-28.888,40.312,concentric,7,5.0,21754.0,403431.0,201253.0,57820.0,2160.0
2026-04-09 22:38:24.369544,543683,3234219151,3234220216,-0.98576,0.080032,-0.02928,-8.75875,8.75875,-10.64,19.432001,-28.672,42.768,concentric,7,5.0,21730.0,403431.0,202077.0,58696.0,2276.0
2026-04-09 22:38:24.373851,543684,3234228165,3234229034,-0.98576,0.080032,-0.02928,-8.86375,9.19625,-10.80625,19.432001,-28.672,42.768,concentric,7,5.0,21730.0,403431.0,202077.0,58696.0,2276.0
2026-04-09 22:38:24.375566,543685,3234237081,3234237727,-0.98576,0.080032,-0.02928,-9.0825,8.93375,-11.55,19.432001,-28.672,42.768,concentric,7,5.0,21730.0,403431.0,202077.0,58696.0,2276.0
2026-04-09 22:38:24.377168,543686,3234246321,3234248486,-0.96624,0.062464,-0.007808,-7.95375,8.81125,-12.04875,19.024,-28.928001,37.416,concentric,7,5.0,21730.0,403431.0,202077.0,58696.0,2276.0
2026-04-09 22:38:24.381401,543687,3234260825,3234261318,-1.003328,0.081984,-0.027328,-5.71375,8.25125,-11.6725,18.464,-28.320002,40.944,concentric,7,5.0,21730.0,403431.0,202077.0,58696.0,2276.0
2026-04-09 22:38:24.383082,543688,3234270476,3234272183,-1.003328,0.081984,-0.027328,-3.2375,9.02125,-11.45375,18.464,-28.320002,40.944,concentric,7,5.0,21730.0,403431.0,202077.0,58696.0,2276.0
2026-04-09 22:38:24.384963,543689,3234279596,3234280964,-1.0248,0.06832,-0.0488,-1.6625,9.59,-12.1975,18.552,-28.688002,40.704002,concentric,7,5.0,21730.0,403431.0,202077.0,58696.0,2276.0
2026-04-09 22:38:24.391269,543690,3234294128,3234295913,-1.0248,0.06832,-0.0488,-0.74375,8.79375,-12.355001,18.552,-28.688002,40.704002,concentric,7,5.0,21730.0,403431.0,202077.0,58696.0,2276.0
2026-04-09 22:38:24.419814,543691,3234303136,3234304649,-1.013088,0.081984,-0.021472,1.015,7.7525,-12.80125,18.672,-28.352001,41.392002,concentric,7,5.0,21730.0,403431.0,202077.0,58696.0,2276.0
2026-04-09 22:38:24.424317,543692,3234312083,3234313341,-1.013088,0.081984,-0.021472,1.89875,8.05875,-13.2825,18.672,-28.352001,41.392002,concentric,7,5.0,21730.0,403431.0,202077.0,58696.0,2276.0
2026-04-09 22:38:24.450841,543702,3234321383,3234322121,-1.030656,0.089792,-0.001952,1.89,8.435,-14.04375,19.768002,-28.424002,39.936,concentric,7,5.0,21630.0,403431.0,203248.0,59736.0,2460.0
2026-04-09 22:38:24.455096,543703,3234336377,3234337144,-1.030656,0.089792,-0.001952,2.87875,7.9625,-15.32125,19.768002,-28.424002,39.936,concentric,7,5.0,21630.0,403431.0,203248.0,59736.0,2460.0
2026-04-09 22:38:24.458248,543704,3234345897,3234347955,-1.038464,0.076128,-0.00976,4.76875,6.67625,-16.21375,18.76,-28.928001,40.992,concentric,7,5.0,21630.0,403431.0,203248.0,59736.0,2460.0
2026-04-09 22:38:24.463836,543705,3234354951,3234356657,-1.038464,0.076128,-0.00976,6.25625,5.97625,-14.980001,18.76,-28.928001,40.992,concentric,7,5.0,21630.0,403431.0,203248.0,59736.0,2460.0
2026-04-09 22:38:24.466340,543706,3234363928,3234365363,-1.067744,0.046848,-0.03904,6.81625,6.195,-13.4225,19.176,-28.896002,41.344,concentric,7,5.0,21630.0,403431.0,203248.0,59736.0,2460.0
2026-04-09 22:38:24.494751,543707,3234378488,3234380330,-1.065792,0.089792,-0.050752,6.195,6.7025,-12.74875,19.176,-26.848001,41.488003,concentric,7,5.0,21630.0,403431.0,203248.0,59736.0,2460.0
2026-04-09 22:38:24.499323,543708,3234387424,3234389014,-1.065792,0.089792,-0.050752,4.85625,6.32625,-12.08375,19.768002,-28.496002,41.488003,concentric,7,5.0,21630.0,403431.0,203248.0,59736.0,2460.0
2026-04-09 22:38:24.500812,543709,3234396345,3234397711,-1.065792,0.089792,-0.050752,1.715,5.32,-11.2875,19.768002,-28.496002,41.488003,concentric,7,5.0,21630.0,403431.0,203248.0,59736.0,2460.0
2026-04-09 22:38:24.507515,543710,3234410865,3234412637,-1.06384,0.035136,-0.0488,-1.95125,5.08375,-10.33375,20.688002,-28.272001,40.68,concentric,7,5.0,21630.0,403431.0,203248.0,59736.0,2460.0
2026-04-09 22:38:24.559775,543720,3234420387,3234421342,-1.046272,0.033184,-0.015616,1.015,3.255,-12.11875,19.36,-28.568,41.744003,concentric,7,5.0,21468.0,403431.0,204851.0,61187.0,2689.0
2026-04-09 22:38:24.563868,543721,3234429353,3234430094,-1.046272,0.033184,-0.015616,6.18625,1.925,-11.62875,19.36,-28.568,41.744003,concentric,7,5.0,21468.0,403431.0,204851.0,61187.0,2689.0
2026-04-09 22:38:24.565589,543722,3234438675,3234440854,-1.059936,0.076128,-0.023424,7.77,1.77625,-8.33,19.36,-28.568,40.984,concentric,7,5.0,21468.0,403431.0,204851.0,61187.0,2689.0
2026-04-09 22:38:24.567264,543723,3234453234,3234453695,-1.059936,0.076128,-0.023424,2.82625,1.02375,-5.6,20.392,-28.208002,40.984,concentric,7,5.0,21468.0,403431.0,204851.0,61187.0,2689.0
2026-04-09 22:38:24.571450,543724,3234462604,3234464469,-1.028704,0.021472,-0.042944,-1.23375,1.82875,-3.99875,20.416,-28.672,40.128002,concentric,7,5.0,21468.0,403431.0,204851.0,61187.0,2689.0
2026-04-09 22:38:24.573074,543725,3234471601,3234473200,-1.028704,0.021472,-0.042944,-2.80875,1.16375,-2.7475,20.416,-28.672,40.128002,concentric,7,5.0,21468.0,403431.0,204851.0,61187.0,2689.0
2026-04-09 22:38:24.574646,543726,3234480529,3234481952,-1.028704,0.060512,-0.083936,-2.31,-0.60375,-0.27125,20.296001,-29.04,40.04,concentric,7,5.0,21468.0,403431.0,204851.0,61187.0,2689.0
2026-04-09 22:38:24.606740,543727,3234494994,3234496874,-1.028704,0.060512,-0.083936,1.05875,-2.485,1.8375,20.296001,-29.04,40.04,concentric,7,5.0,21468.0,403431.0,204851.0,61187.0,2689.0
2026-04-09 22:38:24.608251,543728,3234503919,3234505557,-1.077504,-0.003904,-0.050752,4.27,-4.13,1.4525,20.080002,-28.880001,39.512,concentric,7,5.0,21468.0,403431.0,204851.0,61187.0,2689.0
2026-04-09 22:38:24.612956,543729,3234512889,3234514287,-1.077504,-0.003904,-0.050752,8.8725,-5.03125,0.0175,20.080002,-28.880001,39.512,concentric,7,5.0,21468.0,403431.0,204851.0,61187.0,2689.0
2026-04-09 22:38:24.676901,543740,3234527412,3234529545,-0.999424,0.07808,-0.033184,14.1575,-6.02875,1.19,19.0,-29.184002,40.688004,concentric,7,5.0,21517.0,403431.0,205016.0,61583.0,2763.0
2026-04-09 22:38:24.678946,543741,3234536324,3234538232,-0.999424,0.07808,-0.033184,14.9275,-5.67,1.21625,19.0,-29.184002,40.688004,concentric,7,5.0,21517.0,403431.0,205016.0,61583.0,2763.0
2026-04-09 22:38:24.682608,543742,3234545316,3234546954,-0.981856,0.103456,0.033184,11.865,-5.18,-0.84875,20.44,-28.632002,39.624,concentric,7,5.0,21517.0,403431.0,205016.0,61583.0,2763.0
2026-04-09 22:38:24.685957,543743,3234559762,3234561887,-1.028704,0.040992,-0.050752,11.34875,-5.355,-2.6075,20.400002,-29.008001,39.616,concentric,7,5.0,21517.0,403431.0,205016.0,61583.0,2763.0
2026-04-09 22:38:24.687410,543744,3234568759,3234570651,-1.028704,0.040992,-0.050752,9.905,-6.29125,-4.2175,20.400002,-29.008001,39.616,concentric,7,5.0,21517.0,403431.0,205016.0,61583.0,2763.0
2026-04-09 22:38:24.690081,543745,3234577808,3234579486,-1.028704,0.040992,-0.050752,10.29875,-6.1075,-4.92625,20.400002,-29.008001,39.616,concentric,7,5.0,21517.0,403431.0,205016.0,61583.0,2763.0
2026-04-09 22:38:24.692533,543746,3234592356,3234594403,-1.028704,0.085888,-0.042944,12.27625,-6.43125,-4.515,19.384,-29.712002,41.440002,concentric,7,5.0,21517.0,403431.0,205016.0,61583.0,2763.0
2026-04-09 22:38:24.698776,543747,3234601338,3234603163,-1.020896,0.076128,-0.011712,12.83625,-6.4925,-5.87125,19.288,-29.680002,41.216003,concentric,7,5.0,21517.0,403431.0,205016.0,61583.0,2763.0
2026-04-09 22:38:24.727402,543748,3234610276,3234611864,-1.020896,0.076128,-0.011712,8.9075,-5.46,-7.1575,19.288,-29.680002,41.216003,concentric,7,5.0,21517.0,403431.0,205016.0,61583.0,2763.0
2026-04-09 22:38:24.737735,543749,3234619293,3234620629,-1.00528,0.064416,-0.025376,3.38625,-5.25,-8.4,19.288,-29.680002,40.456,concentric,7,5.0,21517.0,403431.0,205016.0,61583.0,2763.0
2026-04-09 22:38:24.764907,543759,3234633768,3234635561,-1.011136,0.064416,-0.025376,3.64875,-6.055,-9.52,20.392,-29.344002,40.456,concentric,7,5.0,21435.0,403431.0,205599.0,62120.0,2869.0
2026-04-09 22:38:24.768840,543760,3234642694,3234644298,-1.091168,0.031232,-0.111264,3.1325,-6.90375,-10.12375,20.336,-29.080002,40.336002,concentric,7,5.0,21435.0,403431.0,205599.0,62120.0,2869.0
2026-04-09 22:38:24.770538,543761,3234651768,3234653057,-1.091168,0.031232,-0.111264,2.84375,-7.41125,-8.8375,20.336,-29.080002,40.336002,concentric,7,5.0,21435.0,403431.0,205599.0,62120.0,2869.0
2026-04-09 22:38:24.772173,543762,3234666292,3234668044,-1.085312,0.027328,-0.091744,7.16625,-9.2575,-9.40625,20.312,-29.400002,40.84,concentric,7,5.0,21435.0,403431.0,205599.0,62120.0,2869.0
2026-04-09 22:38:24.776227,543763,3234675246,3234676811,-1.085312,0.027328,-0.091744,13.58875,-11.515,-9.86125,20.312,-29.400002,40.84,concentric,7,5.0,21435.0,403431.0,205599.0,62120.0,2869.0
2026-04-09 22:38:24.780027,543764,3234684181,3234685576,-1.04432,0.105408,0.0,17.255,-11.41875,-9.44125,19.864,-29.232002,40.912003,concentric,7,5.0,21435.0,403431.0,205599.0,62120.0,2869.0
2026-04-09 22:38:24.811431,543765,3234698693,3234700495,-1.04432,0.105408,0.0,12.25875,-9.23125,-9.37125,19.864,-29.232002,40.912003,concentric,7,5.0,21435.0,403431.0,205599.0,62120.0,2869.0
2026-04-09 22:38:24.813091,543766,3234707591,3234709174,-1.052128,0.072224,-0.040992,2.79125,-7.3325,-9.8,20.656,-29.592001,39.824,concentric,7,5.0,21435.0,403431.0,205599.0,62120.0,2869.0
2026-04-09 22:38:24.815623,543767,3234716526,3234717874,-1.052128,0.072224,-0.040992,-3.35125,-7.09625,-10.85875,20.656,-29.592001,39.824,concentric,7,5.0,21435.0,403431.0,205599.0,62120.0,2869.0
2026-04-09 22:38:24.840595,543777,3234725732,3234726701,-1.081408,0.0488,-0.0488,-1.6975,-7.6825,-12.7225,20.688002,-29.744001,40.008003,concentric,7,5.0,21294.0,403431.0,206750.0,63182.0,3056.0
2026-04-09 22:38:24.842089,543778,3234740357,3234741615,-1.110688,0.072224,-0.013664,2.975,-8.09375,-12.5825,20.072,-29.296001,38.152,concentric,7,5.0,21294.0,403431.0,206750.0,63182.0,3056.0
2026-04-09 22:38:24.845963,543779,3234749315,3234750361,-1.110688,0.072224,-0.013664,4.97,-7.13125,-11.13,20.072,-29.296001,38.152,concentric,7,5.0,21294.0,403431.0,206750.0,63182.0,3056.0
2026-04-09 22:38:24.852519,543780,3234758222,3234759106,-1.110688,0.072224,-0.013664,2.61625,-4.99625,-11.24375,20.072,-29.296001,38.152,concentric,7,5.0,21294.0,403431.0,206750.0,63182.0,3056.0
2026-04-09 22:38:24.881118,543781,3234772729,3234774037,-1.061888,0.064416,0.035136,1.225,-2.14375,-12.60875,20.808,-29.784002,39.84,concentric,7,5.0,21294.0,403431.0,206750.0,63182.0,3056.0
2026-04-09 22:38:24.885619,543782,3234781649,3234782712,-1.050176,0.074176,-0.060512,-0.3675,-0.3325,-15.295,21.264002,-29.584002,39.088,concentric,7,5.0,21294.0,403431.0,206750.0,63182.0,3056.0
2026-04-09 22:38:24.887176,543783,3234790545,3234791413,-1.050176,0.074176,-0.060512,-4.64625,-0.41125,-15.085,21.264002,-29.584002,39.088,concentric,7,5.0,21294.0,403431.0,206750.0,63182.0,3056.0
2026-04-09 22:38:24.943344,543784,3234805038,3234806290,-1.104832,0.005856,-0.05856,-6.86875,-1.05,-13.886251,20.0,-29.376001,42.272003,concentric,7,5.0,21294.0,403431.0,206750.0,63182.0,3056.0
2026-04-09 22:38:24.944695,543785,3234814031,3234815058,-1.104832,0.005856,-0.05856,-4.89125,-0.86625,-13.90375,20.0,-29.376001,42.272003,concentric,7,5.0,21294.0,403431.0,206750.0,63182.0,3056.0
2026-04-09 22:38:24.972635,543795,3234823571,3234823929,-1.08336,0.007808,-0.080032,-2.485,-2.23125,-13.57125,21.872002,-29.432001,40.464,concentric,7,5.0,21347.0,403431.0,205921.0,62532.0,2935.0
2026-04-09 22:38:24.974362,543796,3234832893,3234834741,-1.08336,0.007808,-0.080032,-1.09375,-3.12375,-11.78625,21.872002,-29.432001,40.464,concentric,7,5.0,21347.0,403431.0,205921.0,62532.0,2935.0
2026-04-09 22:38:24.975901,543797,3234847390,3234849624,-1.059936,0.035136,-0.03904,-0.56,-3.42125,-10.71,21.656,-29.304,39.296,concentric,7,5.0,21347.0,403431.0,205921.0,62532.0,2935.0
2026-04-09 22:38:24.980178,543798,3234856344,3234858331,-1.059936,0.035136,-0.03904,0.805,-3.45625,-10.91125,21.656,-29.304,39.296,concentric,7,5.0,21347.0,403431.0,205921.0,62532.0,2935.0
2026-04-09 22:38:24.981806,543799,3234865273,3234867035,-1.06384,0.070272,-0.003904,2.54625,-3.815,-12.04875,21.664001,-29.480001,40.448,concentric,7,5.0,21347.0,403431.0,205921.0,62532.0,2935.0
2026-04-09 22:38:24.983386,543800,3234879891,3234881941,-1.06384,0.070272,-0.05856,2.8,-3.33375,-12.92375,21.664001,-29.480001,40.448,concentric,7,5.0,21347.0,403431.0,205921.0,62532.0,2935.0
2026-04-09 22:38:24.987509,543801,3234888841,3234890792,-1.091168,0.056608,-0.05856,2.35375,-2.82625,-14.105001,21.992,-29.328001,40.656002,concentric,7,5.0,21347.0,403431.0,205921.0,62532.0,2935.0
2026-04-09 22:38:24.996427,543802,3234897857,3234899505,-1.091168,0.056608,-0.05856,4.33125,-3.24625,-14.4375,21.992,-29.328001,40.656002,concentric,7,5.0,21347.0,403431.0,205921.0,62532.0,2935.0
2026-04-09 22:38:25.024546,543803,3234906877,3234908266,-1.192672,0.03904,-0.05856,4.4275,-1.9775,-14.7,21.920002,-29.344002,40.368,concentric,7,5.0,21347.0,403431.0,205921.0,62532.0,2935.0
2026-04-09 22:38:25.057654,543814,3234921399,3234923439,-1.110688,0.050752,0.023424,0.2625,-0.14,-13.8075,21.984001,-29.504002,42.592003,concentric,7,5.0,21417.0,403431.0,204957.0,61722.0,2789.0
2026-04-09 22:38:25.059369,543815,3234930365,3234932148,-1.110688,0.050752,0.023424,-2.9925,0.88375,-13.15125,21.984001,-29.504002,42.592003,concentric,7,5.0,21417.0,403431.0,204957.0,61722.0,2789.0
2026-04-09 22:38:25.061079,543816,3234939316,3234940852,-1.110688,0.050752,0.023424,-6.60625,1.33,-14.175,21.984001,-29.504002,42.592003,concentric,7,5.0,21417.0,403431.0,204957.0,61722.0,2789.0
2026-04-09 22:38:25.065200,543817,3234953970,3234955793,-1.069696,0.011712,0.003904,-7.27125,1.67125,-14.90125,21.448002,-29.560001,38.584003,concentric,7,5.0,21417.0,403431.0,204957.0,61722.0,2789.0
2026-04-09 22:38:25.066808,543818,3234962940,3234964543,-1.153632,0.027328,-0.021472,-5.985,2.695,-14.55125,21.896002,-29.488,41.664,concentric,7,5.0,21417.0,403431.0,204957.0,61722.0,2789.0
2026-04-09 22:38:25.068417,543819,3234971968,3234973320,-1.153632,0.027328,-0.021472,-3.43875,3.8675,-13.27375,21.896002,-29.488,41.664,concentric,7,5.0,21417.0,403431.0,204957.0,61722.0,2789.0
2026-04-09 22:38:25.099522,543820,3234986459,3234988206,-1.134112,0.044896,-0.023424,-3.4125,4.13,-11.59375,21.816002,-28.608002,41.72,concentric,7,5.0,21417.0,403431.0,204957.0,61722.0,2789.0
2026-04-09 22:38:25.101795,543821,3234995392,3234996903,-1.134112,0.044896,-0.023424,-6.74625,4.96125,-10.99875,21.816002,-28.608002,41.72,concentric,7,5.0,21417.0,403431.0,204957.0,61722.0,2789.0
2026-04-09 22:38:25.106403,543822,3235004315,3235005599,-1.167296,-0.001952,-0.044896,-12.0925,6.125,-11.5325,22.560001,-29.160002,40.912003,concentric,7,5.0,21417.0,403431.0,204957.0,61722.0,2789.0
2026-04-09 22:38:25.108875,543823,3235013245,3235014344,-1.167296,-0.001952,-0.044896,-13.72875,6.16875,-10.9725,22.560001,-29.160002,40.912003,concentric,7,5.0,21417.0,403431.0,204957.0,61722.0,2789.0
2026-04-09 22:38:25.163761,543833,3235027936,3235029396,-1.145824,0.005856,-0.037088,-11.73375,5.6875,-10.7625,22.84,-28.784002,41.032,concentric,7,5.0,21260.0,403431.0,206975.0,63474.0,3112.0
2026-04-09 22:38:25.166796,543834,3235036870,3235038088,-1.145824,0.005856,-0.037088,-6.71125,4.725,-11.2875,22.84,-28.784002,41.032,concentric,7,5.0,21260.0,403431.0,206975.0,63474.0,3112.0
2026-04-09 22:38:25.167323,543835,3235045742,3235046804,-1.110688,0.033184,0.007808,-2.4675,4.4625,-10.78,22.616001,-29.016,40.576,concentric,7,5.0,21260.0,403431.0,206975.0,63474.0,3112.0
2026-04-09 22:38:25.170073,543836,3235060380,3235061854,-1.110688,0.033184,0.007808,-2.485,5.34625,-10.4475,22.616001,-29.016,40.576,concentric,7,5.0,21260.0,403431.0,206975.0,63474.0,3112.0
2026-04-09 22:38:25.171836,543837,3235069446,3235070578,-1.118496,0.062464,0.027328,-5.1625,6.83375,-11.34,22.080002,-28.712002,45.264004,concentric,7,5.0,21260.0,403431.0,206975.0,63474.0,3112.0
2026-04-09 22:38:25.173401,543838,3235078373,3235079315,-1.118496,0.062464,0.027328,-10.885,8.365,-12.0925,22.080002,-28.712002,45.264004,concentric,7,5.0,21260.0,403431.0,206975.0,63474.0,3112.0
2026-04-09 22:38:25.204560,543839,3235092959,3235094218,-1.159488,-0.003904,-0.072224,-15.82875,8.5225,-12.99375,22.504002,-28.896002,43.096,concentric,7,5.0,21260.0,403431.0,206975.0,63474.0,3112.0
2026-04-09 22:38:25.208986,543840,3235101937,3235102954,-1.214144,-0.0488,-0.062464,-13.64125,7.595,-13.0375,23.52,-28.712002,42.344,concentric,7,5.0,21260.0,403431.0,206975.0,63474.0,3112.0
2026-04-09 22:38:25.212953,543841,3235110899,3235111712,-1.214144,-0.0488,-0.062464,-11.261251,7.27125,-11.73375,23.52,-28.712002,42.344,concentric,7,5.0,21260.0,403431.0,206975.0,63474.0,3112.0
2026-04-09 22:38:25.245675,543842,3235119825,3235120429,-1.214144,-0.0488,-0.062464,-9.765,6.405,-8.505,23.52,-28.712002,42.344,concentric,7,5.0,21260.0,403431.0,206975.0,63474.0,3112.0
2026-04-09 22:38:25.272583,543852,3235134697,3235135411,-1.120448,0.005856,0.037088,-7.51625,5.64375,-7.55125,23.792002,-28.056002,40.56,concentric,7,5.0,21176.0,403431.0,208049.0,64437.0,3302.0
2026-04-09 22:38:25.274299,543853,3235144038,3235146187,-1.120448,0.042944,0.00976,-6.65875,5.7575,-8.21625,23.528002,-28.784002,40.936,concentric,7,5.0,21176.0,403431.0,208049.0,64437.0,3302.0
2026-04-09 22:38:25.275840,543854,3235152974,3235154883,-1.120448,0.042944,0.00976,-9.49375,6.4225,-7.735,23.528002,-28.784002,40.936,concentric,7,5.0,21176.0,403431.0,208049.0,64437.0,3302.0
2026-04-09 22:38:25.280150,543855,3235167649,3235169855,-1.237568,0.023424,-0.109312,-10.045,6.83375,-8.39125,22.456001,-28.824001,42.36,concentric,7,5.0,21176.0,403431.0,208049.0,64437.0,3302.0
2026-04-09 22:38:25.281817,543856,3235176707,3235178639,-1.237568,0.023424,-0.109312,-10.08,6.67625,-10.4825,22.456001,-28.824001,42.36,concentric,7,5.0,21176.0,403431.0,208049.0,64437.0,3302.0
2026-04-09 22:38:25.283342,543857,3235185743,3235187349,-1.243424,0.00976,-0.050752,-9.7825,5.7225,-10.045,22.560001,-28.160002,42.096,concentric,7,5.0,21176.0,403431.0,208049.0,64437.0,3302.0
2026-04-09 22:38:25.291202,543858,3235194691,3235196080,-1.243424,0.00976,-0.050752,-10.92875,4.6725,-9.45875,22.560001,-28.160002,42.096,concentric,7,5.0,21176.0,403431.0,208049.0,64437.0,3302.0
2026-04-09 22:38:25.319788,543859,3235209174,3235210979,-1.237568,-0.033184,0.027328,-13.04625,4.03375,-10.535,23.544,-28.104002,41.792004,concentric,7,5.0,21176.0,403431.0,208049.0,64437.0,3302.0
2026-04-09 22:38:25.324385,543860,3235218082,3235219674,-1.237568,-0.033184,0.027328,-12.81,4.71625,-9.9225,23.544,-28.104002,41.792004,concentric,7,5.0,21176.0,403431.0,208049.0,64437.0,3302.0
2026-04-09 22:38:25.384246,543871,3235227568,3235228579,-1.22976,0.0,0.037088,-9.730001,4.6025,-8.9775,24.136002,-28.400002,41.584003,eccentric,7,5.0,21042.0,403431.0,209883.0,65963.0,3619.0
2026-04-09 22:38:25.392708,543872,3235242216,3235243552,-1.315648,0.044896,-0.066368,-5.34625,5.11,-7.84875,23.04,-28.024002,42.624,eccentric,7,5.0,21042.0,403431.0,209883.0,65963.0,3619.0
2026-04-09 22:38:25.392767,543873,3235251160,3235252256,-1.315648,0.044896,-0.066368,-2.30125,5.7575,-7.4725,23.04,-28.024002,42.624,eccentric,7,5.0,21042.0,403431.0,209883.0,65963.0,3619.0
2026-04-09 22:38:25.392820,543874,3235260120,3235260955,-1.315648,0.044896,-0.066368,-3.78,5.36375,-7.875,23.04,-28.024002,42.624,eccentric,7,5.0,21042.0,403431.0,209883.0,65963.0,3619.0
2026-04-09 22:38:25.396383,543875,3235269084,3235269728,-1.350784,0.00976,-0.0488,-5.04,5.20625,-7.84875,23.152,-27.816002,41.656002,eccentric,7,5.0,21042.0,403431.0,209883.0,65963.0,3619.0
2026-04-09 22:38:25.398437,543876,3235283902,3235284668,-1.257088,-0.03904,0.01952,-7.35,5.1275,-8.155,23.52,-27.936,41.552002,eccentric,7,5.0,21042.0,403431.0,209883.0,65963.0,3619.0
2026-04-09 22:38:25.399745,543877,3235293251,3235295422,-1.257088,-0.03904,0.01952,-9.0475,4.78625,-7.39375,23.52,-27.936,41.552002,eccentric,7,5.0,21042.0,403431.0,209883.0,65963.0,3619.0
2026-04-09 22:38:25.403658,543878,3235302351,3235304119,-1.24928,-0.021472,0.011712,-5.38125,3.45625,-6.01125,23.68,-28.2,42.600002,eccentric,7,5.0,21042.0,403431.0,209883.0,65963.0,3619.0
2026-04-09 22:38:25.432323,543879,3235316854,3235319106,-1.24928,-0.021472,0.011712,-1.56625,4.20875,-4.78625,23.68,-28.2,42.600002,eccentric,7,5.0,21042.0,403431.0,209883.0,65963.0,3619.0
2026-04-09 22:38:25.458365,543889,3235326176,3235327857,-1.331264,0.017568,-0.011712,0.56,5.845,-3.22875,23.752,-28.28,41.416,eccentric,7,5.0,20971.0,403431.0,211267.0,67102.0,3887.0
2026-04-09 22:38:25.462623,543890,3235335154,3235336604,-1.331264,0.017568,-0.011712,1.04125,6.46625,-1.93375,23.752,-28.28,41.416,eccentric,7,5.0,20971.0,403431.0,211267.0,67102.0,3887.0
2026-04-09 22:38:25.464319,543891,3235344067,3235345364,-1.251232,-0.003904,-0.035136,-1.88125,6.7375,-1.26875,23.576,-27.680002,40.728,eccentric,7,5.0,20971.0,403431.0,211267.0,67102.0,3887.0
2026-04-09 22:38:25.465853,543892,3235358570,3235360314,-1.251232,-0.003904,-0.035136,-4.83875,5.0925,-1.02375,23.576,-27.680002,40.728,eccentric,7,5.0,20971.0,403431.0,211267.0,67102.0,3887.0
2026-04-09 22:38:25.470086,543893,3235367527,3235369033,-1.235616,-0.031232,-0.033184,-5.7575,3.85,-0.27125,23.44,-27.888,41.408,eccentric,7,5.0,20971.0,403431.0,211267.0,67102.0,3887.0
2026-04-09 22:38:25.472550,543894,3235376470,3235377753,-1.235616,-0.031232,-0.033184,-6.125,3.045,1.505,23.44,-27.888,41.408,eccentric,7,5.0,20971.0,403431.0,211267.0,67102.0,3887.0
2026-04-09 22:38:25.501053,543895,3235390975,3235392719,-1.223904,0.005856,0.015616,-4.585,3.0275,3.36875,23.328001,-28.000002,41.696003,eccentric,7,5.0,20971.0,403431.0,211267.0,67102.0,3887.0
2026-04-09 22:38:25.510180,543896,3235399871,3235401441,-1.223904,0.005856,0.015616,-3.21125,3.2025,3.92,23.328001,-28.000002,41.696003,eccentric,7,5.0,20971.0,403431.0,211267.0,67102.0,3887.0
2026-04-09 22:38:25.512944,543897,3235408769,3235410164,-1.20048,0.033184,0.0,-4.13875,3.80625,2.6075,23.536001,-28.024002,41.632004,eccentric,7,5.0,20971.0,403431.0,211267.0,67102.0,3887.0
2026-04-09 22:38:25.545794,543898,3235423322,3235425096,-1.237568,0.003904,-0.062464,-4.9175,3.31625,1.51375,23.76,-28.288002,41.832,eccentric,7,5.0,20971.0,403431.0,211267.0,67102.0,3887.0
2026-04-09 22:38:25.577186,543908,3235432284,3235433887,-1.237568,0.003904,-0.062464,-4.87375,3.22,1.32125,23.76,-28.288002,41.832,eccentric,7,5.0,20941.0,403431.0,212157.0,67899.0,4078.0
2026-04-09 22:38:25.581676,543909,3235441213,3235442594,-1.237568,0.003904,-0.062464,-3.29,3.01,1.37375,23.76,-28.288002,41.832,eccentric,7,5.0,20941.0,403431.0,212157.0,67899.0,4078.0
2026-04-09 22:38:25.587623,543910,3235450137,3235451277,-1.212192,-0.001952,-0.02928,-0.945,1.93375,1.42625,22.408,-28.168001,41.528004,eccentric,7,5.0,20941.0,403431.0,212157.0,67899.0,4078.0
2026-04-09 22:38:25.589387,543911,3235464617,3235466248,-1.182912,0.037088,0.011712,1.75,0.25375,1.39125,23.000002,-28.832,41.304,eccentric,7,5.0,20941.0,403431.0,212157.0,67899.0,4078.0
2026-04-09 22:38:25.591909,543912,3235473618,3235475026,-1.182912,0.037088,0.011712,4.62875,-0.1925,2.37125,23.000002,-28.832,41.304,eccentric,7,5.0,20941.0,403431.0,212157.0,67899.0,4078.0
2026-04-09 22:38:25.593366,543913,3235482698,3235483734,-1.182912,0.011712,-0.021472,3.63125,1.32125,2.485,23.000002,-28.832,41.304,eccentric,7,5.0,20941.0,403431.0,212157.0,67899.0,4078.0
2026-04-09 22:38:25.597560,543914,3235497254,3235498673,-1.221952,0.011712,-0.021472,-0.2975,2.89625,2.07375,21.784,-28.568,42.448,eccentric,7,5.0,20941.0,403431.0,212157.0,67899.0,4078.0
2026-04-09 22:38:25.601229,543915,3235506190,3235507331,-1.196576,0.031232,-0.033184,-0.34125,3.0625,2.2925,22.512001,-27.936,41.960003,eccentric,7,5.0,20941.0,403431.0,212157.0,67899.0,4078.0
2026-04-09 22:38:25.631932,543916,3235515106,3235516053,-1.196576,0.031232,-0.033184,2.2925,2.5725,1.645,22.512001,-27.936,41.960003,eccentric,7,5.0,20941.0,403431.0,212157.0,67899.0,4078.0
2026-04-09 22:38:25.660627,543927,3235529983,3235531002,-1.169248,0.02928,-0.025376,3.2375,1.8375,0.9625,22.584002,-28.408,42.000004,eccentric,7,5.0,20838.0,403431.0,213575.0,69062.0,4371.0
2026-04-09 22:38:25.662173,543928,3235538958,3235539739,-1.169248,0.02928,-0.025376,4.1825,1.74125,1.89,22.584002,-28.408,42.000004,eccentric,7,5.0,20838.0,403431.0,213575.0,69062.0,4371.0
2026-04-09 22:38:25.665707,543929,3235547959,3235548483,-1.18096,0.0488,-0.031232,5.81875,2.45,2.80875,22.44,-28.336,41.968002,eccentric,7,5.0,20838.0,403431.0,213575.0,69062.0,4371.0
2026-04-09 22:38:25.667050,543930,3235557381,3235559311,-1.18096,0.0488,-0.031232,4.94375,2.9925,3.17625,22.44,-28.336,41.968002,eccentric,7,5.0,20838.0,403431.0,213575.0,69062.0,4371.0
2026-04-09 22:38:25.671296,543931,3235571956,3235574307,-1.167296,0.042944,-0.035136,1.5225,3.85875,4.2875,21.6,-27.840002,42.608,eccentric,7,5.0,20838.0,403431.0,213575.0,69062.0,4371.0
2026-04-09 22:38:25.699831,543932,3235580914,3235583042,-1.167296,0.042944,-0.035136,-0.49,4.40125,4.57625,21.6,-27.840002,42.608,eccentric,7,5.0,20838.0,403431.0,213575.0,69062.0,4371.0
2026-04-09 22:38:25.704337,543933,3235589845,3235591783,-1.149728,0.042944,-0.046848,-1.5225,4.73375,3.1675,21.312,-27.976002,41.432003,eccentric,7,5.0,20838.0,403431.0,213575.0,69062.0,4371.0
2026-04-09 22:38:25.706809,543934,3235604290,3235604644,-1.149728,0.015616,-0.064416,-0.0525,4.9175,2.14375,21.384,-28.680002,40.792004,eccentric,7,5.0,20838.0,403431.0,213575.0,69062.0,4371.0
2026-04-09 22:38:25.708391,543935,3235613468,3235615395,-1.149728,0.015616,-0.064416,1.63625,4.69,2.5725,21.384,-28.680002,40.792004,eccentric,7,5.0,20838.0,403431.0,213575.0,69062.0,4371.0
2026-04-09 22:38:25.740818,543936,3235622427,3235624098,-1.149728,0.015616,-0.064416,3.115,4.34875,3.87625,21.384,-28.680002,40.792004,eccentric,7,5.0,20838.0,403431.0,213575.0,69062.0,4371.0
2026-04-09 22:38:25.765836,543946,3235631563,3235632847,-1.108736,0.00976,-0.00976,3.22,4.97875,4.99625,21.208,-28.736002,41.144,eccentric,7,5.0,20875.0,403431.0,212893.0,68449.0,4197.0
2026-04-09 22:38:25.770144,543947,3235646078,3235647766,-1.071648,0.0488,-0.003904,2.07375,6.2475,6.1425,21.320002,-28.776001,41.992,eccentric,7,5.0,20875.0,403431.0,212893.0,68449.0,4197.0
2026-04-09 22:38:25.771877,543948,3235655002,3235656537,-1.071648,0.0488,-0.003904,-0.63,7.455,7.1575,21.320002,-28.776001,41.992,eccentric,7,5.0,20875.0,403431.0,212893.0,68449.0,4197.0
2026-04-09 22:38:25.773604,543949,3235663970,3235665341,-1.09312,0.056608,-0.0488,-2.35375,8.47,6.755,20.76,-28.976002,43.336002,eccentric,7,5.0,20875.0,403431.0,212893.0,68449.0,4197.0
2026-04-09 22:38:25.777553,543950,3235678521,3235680296,-1.09312,0.056608,-0.0488,-2.56375,8.42625,6.20375,20.76,-28.976002,43.336002,eccentric,7,5.0,20875.0,403431.0,212893.0,68449.0,4197.0
2026-04-09 22:38:25.783840,543951,3235687470,3235689014,-1.079456,0.066368,-0.076128,-0.21875,7.6125,5.6875,19.512001,-28.36,43.968002,eccentric,7,5.0,20875.0,403431.0,212893.0,68449.0,4197.0
2026-04-09 22:38:25.848396,543952,3235696374,3235697773,-1.079456,0.066368,-0.076128,3.22875,5.775,4.62875,19.512001,-28.36,43.968002,eccentric,7,5.0,20875.0,403431.0,212893.0,68449.0,4197.0
2026-04-09 22:38:25.850605,543953,3235710884,3235712693,-1.0736,0.040992,-0.040992,4.62,4.76875,4.27,20.68,-28.296001,41.800003,eccentric,7,5.0,20875.0,403431.0,212893.0,68449.0,4197.0
2026-04-09 22:38:25.855670,543954,3235719790,3235721382,-1.0736,0.040992,-0.040992,4.025,4.06875,3.63125,20.68,-28.296001,41.800003,eccentric,7,5.0,20875.0,403431.0,212893.0,68449.0,4197.0
2026-04-09 22:38:25.883922,543964,3235728795,3235730426,-1.048224,0.025376,-0.00976,1.93375,4.68125,2.87,20.224,-28.544,41.872,eccentric,7,5.0,21004.0,403431.0,210697.0,66536.0,3761.0
2026-04-09 22:38:25.886028,543965,3235737773,3235739122,-1.048224,0.025376,-0.00976,-0.1225,5.1625,2.72125,20.224,-28.544,41.872,eccentric,7,5.0,21004.0,403431.0,210697.0,66536.0,3761.0
2026-04-09 22:38:25.888139,543966,3235752289,3235754022,-1.00528,0.042944,-0.017568,0.23625,5.0225,1.91625,20.2,-28.840002,42.224003,eccentric,7,5.0,21004.0,403431.0,210697.0,66536.0,3761.0
2026-04-09 22:38:25.891344,543967,3235761228,3235762720,-1.00528,0.042944,-0.017568,3.045,4.8825,0.63,20.2,-28.840002,42.224003,eccentric,7,5.0,21004.0,403431.0,210697.0,66536.0,3761.0
2026-04-09 22:38:25.893112,543968,3235770209,3235771413,-1.01504,0.044896,-0.0488,4.9525,4.375,1.35625,19.560001,-28.728,42.648003,eccentric,7,5.0,21004.0,403431.0,210697.0,66536.0,3761.0
2026-04-09 22:38:25.894705,543969,3235784821,3235786402,-1.013088,0.035136,-0.089792,6.06375,4.06,2.59,19.992,-28.464,40.344,eccentric,7,5.0,21004.0,403431.0,210697.0,66536.0,3761.0
2026-04-09 22:38:25.898937,543970,3235793768,3235795159,-1.013088,0.035136,-0.089792,7.09625,3.745,1.53125,19.992,-28.464,40.344,eccentric,7,5.0,21004.0,403431.0,210697.0,66536.0,3761.0
2026-04-09 22:38:25.900533,543971,3235802762,3235803881,-1.013088,0.035136,-0.089792,7.81375,3.68375,0.9275,19.992,-28.464,40.344,eccentric,7,5.0,21004.0,403431.0,210697.0,66536.0,3761.0
2026-04-09 22:38:25.930843,543972,3235817285,3235818801,-0.95648,0.0488,0.005856,7.13125,3.3075,1.56625,19.720001,-28.472002,42.368004,eccentric,7,5.0,21004.0,403431.0,210697.0,66536.0,3761.0
2026-04-09 22:38:25.933079,543973,3235826190,3235827492,-0.93696,0.033184,0.007808,6.23875,3.17625,0.84,19.656,-28.616001,42.064003,eccentric,7,5.0,21004.0,403431.0,210697.0,66536.0,3761.0
2026-04-09 22:38:25.965912,543984,3235835149,3235836235,-0.93696,0.033184,0.007808,5.2325,3.0275,-0.4375,19.656,-28.616001,42.064003,eccentric,7,5.0,21245.0,403431.0,208210.0,64571.0,3339.0
2026-04-09 22:38:25.967929,543985,3235844061,3235844936,-0.93696,0.062464,-0.07808,7.18375,3.255,-0.14,19.656,-28.616001,42.064003,eccentric,7,5.0,21245.0,403431.0,208210.0,64571.0,3339.0
2026-04-09 22:38:25.969670,543986,3235858663,3235859932,-0.979904,0.062464,-0.07808,11.34,2.8175,0.30625,18.864,-28.432001,41.064003,eccentric,7,5.0,21245.0,403431.0,208210.0,64571.0,3339.0
2026-04-09 22:38:25.973095,543987,3235867606,3235868707,-1.016992,0.083936,-0.103456,13.755,2.5025,-0.42875,19.328001,-28.616001,42.904003,eccentric,7,5.0,21245.0,403431.0,208210.0,64571.0,3339.0
2026-04-09 22:38:25.975429,543988,3235876656,3235877419,-1.016992,0.083936,-0.103456,14.9975,3.2025,-0.8925,19.328001,-28.616001,42.904003,eccentric,7,5.0,21245.0,403431.0,208210.0,64571.0,3339.0
2026-04-09 22:38:26.005921,543989,3235891626,3235892370,-0.997472,0.066368,0.017568,14.385,3.2725,-1.65375,18.928001,-28.448002,42.072002,eccentric,7,5.0,21245.0,403431.0,208210.0,64571.0,3339.0
2026-04-09 22:38:26.008045,543990,3235901158,3235903125,-0.997472,0.066368,0.017568,11.585,3.59625,-2.14375,18.928001,-28.448002,42.072002,eccentric,7,5.0,21245.0,403431.0,208210.0,64571.0,3339.0
2026-04-09 22:38:26.012767,543991,3235910128,3235911823,-0.94672,0.093696,0.046848,7.9625,4.7425,-1.28625,19.232,-28.592001,41.480003,eccentric,7,5.0,21245.0,403431.0,208210.0,64571.0,3339.0
2026-04-09 22:38:26.014229,543992,3235919052,3235920520,-0.94672,0.093696,0.046848,3.3775,5.67,0.91,19.232,-28.592001,41.480003,eccentric,7,5.0,21245.0,403431.0,208210.0,64571.0,3339.0
2026-04-09 22:38:26.067276,544002,3235933691,3235935509,-1.00528,0.035136,-0.050752,0.805,5.31125,3.15875,19.032001,-28.592001,41.248,eccentric,7,5.0,21403.0,403431.0,206111.0,62609.0,2932.0
2026-04-09 22:38:26.070625,544003,3235942751,3235944267,-1.00528,0.035136,-0.050752,0.6825,5.45125,3.9375,19.032001,-28.592001,41.248,eccentric,7,5.0,21403.0,403431.0,206111.0,62609.0,2932.0
2026-04-09 22:38:26.072235,544004,3235951710,3235952978,-1.067744,0.021472,-0.085888,5.075,4.85625,5.005,18.856,-28.896002,41.336002,eccentric,7,5.0,21403.0,403431.0,206111.0,62609.0,2932.0
2026-04-09 22:38:26.074618,544005,3235966200,3235968026,-0.948672,0.124928,0.007808,9.40625,3.22875,5.95875,18.072,-28.704,42.296,eccentric,7,5.0,21403.0,403431.0,206111.0,62609.0,2932.0
2026-04-09 22:38:26.077145,544006,3235975201,3235976758,-0.948672,0.124928,0.007808,11.22625,1.68875,6.22125,18.072,-28.704,42.296,eccentric,7,5.0,21403.0,403431.0,206111.0,62609.0,2932.0
2026-04-09 22:38:26.079696,544007,3235984169,3235985544,-0.948672,0.124928,0.007808,11.1825,1.5225,5.17125,18.072,-28.704,42.296,eccentric,7,5.0,21403.0,403431.0,206111.0,62609.0,2932.0
2026-04-09 22:38:26.110901,544008,3235993105,3235994257,-0.886208,0.12688,0.027328,9.415,1.75875,3.26375,18.12,-28.720001,43.472004,eccentric,7,5.0,21403.0,403431.0,206111.0,62609.0,2932.0
2026-04-09 22:38:26.149869,544009,3236007579,3236009210,-0.911584,0.072224,-0.046848,5.41625,1.1375,1.47875,18.016,-29.008001,41.760002,eccentric,7,5.0,21403.0,403431.0,206111.0,62609.0,2932.0
2026-04-09 22:38:26.155877,544010,3236016507,3236017893,-0.911584,0.072224,-0.046848,4.5325,0.74375,0.9625,18.016,-29.008001,41.760002,eccentric,7,5.0,21403.0,403431.0,206111.0,62609.0,2932.0
2026-04-09 22:38:26.158355,544011,3236025436,3236026583,-0.931104,0.05856,-0.074176,7.27125,0.5075,-0.07875,18.408,-28.848001,39.064003,eccentric,7,5.0,21403.0,403431.0,206111.0,62609.0,2932.0
2026-04-09 22:38:26.183308,544021,3236039978,3236041891,-0.931104,0.05856,-0.074176,10.5175,0.105,-0.35,18.408,-28.848001,39.064003,eccentric,7,5.0,21548.0,403431.0,204655.0,61310.0,2733.0
2026-04-09 22:38:26.185914,544022,3236048890,3236050574,-0.903776,0.095648,-0.017568,12.075,-0.34125,-0.175,18.512001,-28.568,41.440002,eccentric,7,5.0,21548.0,403431.0,204655.0,61310.0,2733.0
2026-04-09 22:38:26.188365,544023,3236057794,3236059237,-0.903776,0.095648,-0.017568,12.53,0.2275,-0.175,18.512001,-28.568,41.440002,eccentric,7,5.0,21548.0,403431.0,204655.0,61310.0,2733.0
2026-04-09 22:38:26.190939,544024,3236072364,3236074278,-0.905728,0.119072,0.031232,10.64,0.84,-1.39125,18.104,-28.840002,41.872,eccentric,7,5.0,21548.0,403431.0,204655.0,61310.0,2733.0
2026-04-09 22:38:26.193299,544025,3236081434,3236083010,-0.905728,0.119072,0.031232,9.38,1.68,-2.7475,18.104,-28.840002,41.872,eccentric,7,5.0,21548.0,403431.0,204655.0,61310.0,2733.0
2026-04-09 22:38:26.195873,544026,3236090361,3236091788,-0.94672,0.113216,-0.040992,9.45,1.82875,-3.84125,18.504002,-29.072,41.304,eccentric,7,5.0,21548.0,403431.0,204655.0,61310.0,2733.0
2026-04-09 22:38:26.199607,544027,3236104959,3236106724,-0.94672,0.081984,-0.035136,9.7125,0.8925,-4.26125,18.504002,-29.072,41.304,eccentric,7,5.0,21548.0,403431.0,204655.0,61310.0,2733.0
2026-04-09 22:38:26.229880,544028,3236113884,3236115405,-1.009184,0.080032,-0.035136,12.76625,0.385,-3.99,18.0,-28.712002,40.600002,eccentric,7,5.0,21548.0,403431.0,204655.0,61310.0,2733.0
2026-04-09 22:38:26.233409,544029,3236122827,3236124161,-1.009184,0.080032,-0.035136,14.8225,0.51625,-3.36,18.0,-28.712002,40.600002,eccentric,7,5.0,21548.0,403431.0,204655.0,61310.0,2733.0
2026-04-09 22:38:26.260798,544040,3236131835,3236132926,-0.964288,0.121024,0.02928,13.8425,1.925,-1.9775,18.44,-28.752,41.088,eccentric,7,5.0,21589.0,403431.0,203670.0,60267.0,2568.0
2026-04-09 22:38:26.263349,544041,3236146508,3236147795,-0.98576,0.140544,-0.025376,10.43875,3.63125,-1.5225,17.968,-28.640001,42.904003,eccentric,7,5.0,21589.0,403431.0,203670.0,60267.0,2568.0
2026-04-09 22:38:26.265873,544042,3236155461,3236156593,-0.98576,0.140544,-0.025376,5.8625,4.0075,-1.75,17.968,-28.640001,42.904003,eccentric,7,5.0,21589.0,403431.0,203670.0,60267.0,2568.0
2026-04-09 22:38:26.268371,544043,3236164387,3236165337,-0.98576,0.140544,-0.025376,4.54125,3.80625,-1.12875,17.968,-28.640001,42.904003,eccentric,7,5.0,21589.0,403431.0,203670.0,60267.0,2568.0
2026-04-09 22:38:26.273407,544044,3236178912,3236180282,-1.061888,0.076128,-0.07808,5.10125,2.2575,-0.32375,17.848001,-29.488,42.856003,eccentric,7,5.0,21589.0,403431.0,203670.0,60267.0,2568.0
2026-04-09 22:38:26.304478,544045,3236187826,3236188992,-1.020896,0.083936,0.023424,6.04625,1.68,1.09375,17.752,-29.152002,42.264004,eccentric,7,5.0,21589.0,403431.0,203670.0,60267.0,2568.0
2026-04-09 22:38:26.308902,544046,3236196727,3236197710,-1.020896,0.083936,0.023424,8.015,2.59,3.35125,17.752,-29.152002,42.264004,eccentric,7,5.0,21589.0,403431.0,203670.0,60267.0,2568.0
2026-04-09 22:38:26.310485,544047,3236211232,3236212609,-0.9272,0.160064,0.062464,9.1875,4.305,3.54375,17.704,-28.968002,40.864002,eccentric,7,5.0,21589.0,403431.0,203670.0,60267.0,2568.0
2026-04-09 22:38:26.316332,544048,3236220163,3236221328,-0.9272,0.160064,0.062464,8.3475,6.2125,2.17,17.704,-28.968002,40.864002,eccentric,7,5.0,21589.0,403431.0,203670.0,60267.0,2568.0
2026-04-09 22:38:26.344870,544049,3236229080,3236230056,-1.013088,0.152256,-0.07808,8.0325,7.8225,0.8225,16.736,-29.608002,40.776,eccentric,7,5.0,21589.0,403431.0,203670.0,60267.0,2568.0
2026-04-09 22:38:26.370914,544059,3236243604,3236244988,-1.013088,0.152256,-0.07808,5.25,7.77875,0.18375,16.736,-29.608002,40.776,eccentric,7,5.0,21581.0,403431.0,203841.0,60367.0,2555.0
2026-04-09 22:38:26.373516,544060,3236252498,3236253686,-1.026752,0.089792,-0.095648,3.91125,5.355,-0.79625,17.904001,-29.592001,41.072002,eccentric,7,5.0,21581.0,403431.0,203841.0,60367.0,2555.0
2026-04-09 22:38:26.375937,544061,3236261438,3236262457,-1.026752,0.089792,-0.095648,6.58,2.7125,-1.65375,17.904001,-29.592001,41.072002,eccentric,7,5.0,21581.0,403431.0,203841.0,60367.0,2555.0
2026-04-09 22:38:26.378319,544062,3236270382,3236271213,-0.962336,0.150304,0.013664,12.573751,1.155,-2.68625,16.904001,-29.464,41.872,eccentric,7,5.0,21581.0,403431.0,203841.0,60367.0,2555.0
2026-04-09 22:38:26.380897,544063,3236285423,3236286197,-0.962336,0.150304,-0.007808,13.02,1.155,-3.56125,16.904001,-29.464,41.872,eccentric,7,5.0,21581.0,403431.0,203841.0,60367.0,2555.0
2026-04-09 22:38:26.445071,544064,3236294882,3236296987,-1.001376,0.13664,-0.007808,9.730001,2.30125,-6.1775,17.656,-29.088001,41.4,eccentric,7,5.0,21581.0,403431.0,203841.0,60367.0,2555.0
2026-04-09 22:38:26.447491,544065,3236303813,3236305666,-1.001376,0.13664,-0.007808,7.1575,2.68625,-7.0525,17.656,-29.088001,41.4,eccentric,7,5.0,21581.0,403431.0,203841.0,60367.0,2555.0
2026-04-09 22:38:26.449682,544066,3236312745,3236314426,-1.056032,0.089792,-0.046848,6.5975,2.35375,-7.14,17.552,-29.44,40.376003,eccentric,7,5.0,21581.0,403431.0,203841.0,60367.0,2555.0
2026-04-09 22:38:26.460915,544067,3236327233,3236329355,-1.065792,0.095648,-0.007808,9.905,1.7675,-7.32375,17.616001,-29.496002,40.536003,eccentric,7,5.0,21581.0,403431.0,203841.0,60367.0,2555.0
2026-04-09 22:38:26.488404,544077,3236336230,3236338071,-1.065792,0.095648,-0.007808,12.73125,1.26,-6.72875,17.616001,-29.496002,40.536003,eccentric,7,5.0,21488.0,403431.0,204804.0,61165.0,2688.0
2026-04-09 22:38:26.490930,544078,3236345171,3236346775,-1.065792,0.095648,-0.007808,12.69625,1.47875,-5.8275,17.616001,-29.496002,40.536003,eccentric,7,5.0,21488.0,403431.0,204804.0,61165.0,2688.0
2026-04-09 22:38:26.493410,544079,3236359722,3236361857,-1.040416,0.138592,0.050752,11.48875,2.42375,-5.7575,17.816,-29.448002,41.024002,eccentric,7,5.0,21488.0,403431.0,204804.0,61165.0,2688.0
2026-04-09 22:38:26.495997,544080,3236368635,3236370568,-1.0736,0.11712,0.021472,7.95375,3.36875,-5.8625,17.896,-29.560001,40.856003,eccentric,7,5.0,21488.0,403431.0,204804.0,61165.0,2688.0
2026-04-09 22:38:26.498437,544081,3236377686,3236379291,-1.0736,0.11712,0.021472,4.235,3.26375,-5.005,17.896,-29.560001,40.856003,eccentric,7,5.0,21488.0,403431.0,204804.0,61165.0,2688.0
2026-04-09 22:38:26.500932,544082,3236392230,3236394263,-1.08336,0.083936,-0.001952,1.95125,2.9575,-4.33125,16.68,-29.288002,42.480003,eccentric,7,5.0,21488.0,403431.0,204804.0,61165.0,2688.0
2026-04-09 22:38:26.503402,544083,3236401170,3236403033,-1.08336,0.083936,-0.001952,1.0675,2.45,-4.05125,16.68,-29.288002,42.480003,eccentric,7,5.0,21488.0,403431.0,204804.0,61165.0,2688.0
2026-04-09 22:38:26.505929,544084,3236410190,3236411788,-1.061888,0.109312,0.00976,1.63625,2.415,-3.8325,16.464,-29.032001,41.52,eccentric,7,5.0,21488.0,403431.0,204804.0,61165.0,2688.0
2026-04-09 22:38:26.536134,544085,3236424683,3236426697,-1.061888,0.109312,0.00976,1.295,2.68625,-3.57875,16.464,-29.032001,41.52,eccentric,7,5.0,21488.0,403431.0,204804.0,61165.0,2688.0
2026-04-09 22:38:26.564628,544096,3236433928,3236435492,-1.056032,0.115168,0.01952,-0.5075,2.52875,-4.305,17.312,-29.160002,40.512,eccentric,7,5.0,21435.0,403431.0,205745.0,61993.0,2818.0
2026-04-09 22:38:26.567221,544097,3236442934,3236444220,-1.056032,0.115168,0.01952,-2.73875,1.505,-4.0775,17.312,-29.160002,40.512,eccentric,7,5.0,21435.0,403431.0,205745.0,61993.0,2818.0
2026-04-09 22:38:26.569679,544098,3236451867,3236452961,-1.036512,0.103456,0.031232,-3.815,0.525,-2.8175,17.84,-29.224,40.72,eccentric,7,5.0,21435.0,403431.0,205745.0,61993.0,2818.0
2026-04-09 22:38:26.572194,544099,3236466375,3236467979,-1.036512,0.119072,0.011712,-3.885,0.23625,-3.07125,17.84,-29.224,40.72,eccentric,7,5.0,21435.0,403431.0,205745.0,61993.0,2818.0
2026-04-09 22:38:26.574615,544100,3236475394,3236476714,-1.036512,0.119072,0.011712,-2.42375,0.9625,-3.43875,18.016,-29.272001,40.728,eccentric,7,5.0,21435.0,403431.0,205745.0,61993.0,2818.0
2026-04-09 22:38:26.578808,544101,3236484413,3236485505,-1.036512,0.119072,0.011712,-1.77625,2.14375,-3.29875,18.016,-29.272001,40.728,eccentric,7,5.0,21435.0,403431.0,205745.0,61993.0,2818.0
2026-04-09 22:38:26.607526,544102,3236498925,3236500400,-1.05408,0.130784,-0.044896,-2.485,1.74125,-3.9025,17.640001,-29.080002,41.024002,eccentric,7,5.0,21435.0,403431.0,205745.0,61993.0,2818.0
2026-04-09 22:38:26.611863,544103,3236507845,3236509092,-1.040416,0.11712,-0.025376,-3.1675,0.77,-4.9525,17.776001,-29.560001,37.664,eccentric,7,5.0,21435.0,403431.0,205745.0,61993.0,2818.0
2026-04-09 22:38:26.613441,544104,3236516748,3236517823,-1.040416,0.11712,-0.025376,-2.86125,0.1925,-5.17125,17.776001,-29.560001,37.664,eccentric,7,5.0,21435.0,403431.0,205745.0,61993.0,2818.0
