pc_time,serial_num,sensor_ts,host_ts,ax,ay,az,gx,gy,gz,mx,my,mz,phase,rpe,weight_kg,ppg_a,ppg_b,ppg_c,ppg_d,ppg_e
2026-04-09 22:38:26.683010,544114,3236531237,3236532748,-1.038464,0.122976,-0.005856,-1.645,0.0175,-6.13375,16.912,-29.744001,41.616,concentric,7,5.0,21367.0,403431.0,206624.0,62757.0,2968.0
2026-04-09 22:38:26.685593,544115,3236540275,3236541476,-1.038464,0.122976,-0.005856,-0.35,-0.02625,-7.63875,16.912,-29.744001,41.616,concentric,7,5.0,21367.0,403431.0,206624.0,62757.0,2968.0
2026-04-09 22:38:26.687152,544116,3236549197,3236550212,-1.046272,0.130784,-0.025376,0.98875,-0.14875,-7.6825,17.336,-28.800001,40.768,concentric,7,5.0,21367.0,403431.0,206624.0,62757.0,2968.0
2026-04-09 22:38:26.689663,544117,3236558133,3236558896,-1.046272,0.130784,-0.025376,0.5775,-0.0175,-7.77,17.336,-28.800001,40.768,concentric,7,5.0,21367.0,403431.0,206624.0,62757.0,2968.0
2026-04-09 22:38:26.692166,544118,3236572703,3236573852,-1.081408,0.101504,-0.042944,0.39375,-0.07875,-8.37375,17.104,-28.792002,42.2,concentric,7,5.0,21367.0,403431.0,206624.0,62757.0,2968.0
2026-04-09 22:38:26.694621,544119,3236581734,3236582557,-1.081408,0.101504,-0.042944,-0.13125,0.55125,-8.7675,17.104,-28.792002,42.2,concentric,7,5.0,21367.0,403431.0,206624.0,62757.0,2968.0
2026-04-09 22:38:26.697149,544120,3236590709,3236591258,-1.0736,0.0976,-0.027328,0.7175,0.1925,-8.91625,17.912,-29.504002,41.048,concentric,7,5.0,21367.0,403431.0,206624.0,62757.0,2968.0
2026-04-09 22:38:26.699673,544121,3236605647,3236606242,-1.0736,0.0976,-0.027328,3.1325,0.315,-8.44375,17.912,-29.504002,41.048,concentric,7,5.0,21367.0,403431.0,206624.0,62757.0,2968.0
2026-04-09 22:38:26.743536,544122,3236614850,3236617028,-1.056032,0.099552,-0.021472,5.78375,0.23625,-8.09375,17.152,-29.096,42.84,concentric,7,5.0,21367.0,403431.0,206624.0,62757.0,2968.0
2026-04-09 22:38:26.747122,544123,3236623934,3236625731,-1.056032,0.099552,-0.021472,7.95375,0.91875,-8.05,17.152,-29.096,42.84,concentric,7,5.0,21367.0,403431.0,206624.0,62757.0,2968.0
2026-04-09 22:38:26.775814,544133,3236633146,3236634427,-1.087264,0.10736,-0.074176,10.045,0.7875,-6.825,17.896,-29.584002,40.984,concentric,7,5.0,21326.0,403431.0,207592.0,63608.0,3103.0
2026-04-09 22:38:26.778372,544134,3236647701,3236649448,-1.108736,0.062464,-0.015616,12.0575,1.07625,-6.13375,17.624,-29.288002,41.24,concentric,7,5.0,21326.0,403431.0,207592.0,63608.0,3103.0
2026-04-09 22:38:26.780875,544135,3236656605,3236658135,-1.108736,0.062464,-0.015616,11.47125,1.365,-5.775,17.624,-29.288002,41.24,concentric,7,5.0,21326.0,403431.0,207592.0,63608.0,3103.0
2026-04-09 22:38:26.783440,544136,3236665558,3236666881,-1.108736,0.062464,-0.015616,11.042501,1.6275,-3.08,17.624,-29.288002,41.24,concentric,7,5.0,21326.0,403431.0,207592.0,63608.0,3103.0
2026-04-09 22:38:26.785910,544137,3236680043,3236681819,-1.081408,0.091744,-0.007808,11.19125,2.26625,-1.54,16.704,-29.28,42.944,concentric,7,5.0,21326.0,403431.0,207592.0,63608.0,3103.0
2026-04-09 22:38:26.788351,544138,3236689005,3236690524,-1.077504,0.12688,-0.015616,12.6175,3.40375,-1.8025,17.6,-29.408,42.968002,concentric,7,5.0,21326.0,403431.0,207592.0,63608.0,3103.0
2026-04-09 22:38:26.792177,544139,3236697962,3236699337,-1.077504,0.12688,-0.015616,11.48875,4.26125,-1.0675,17.6,-29.408,42.968002,concentric,7,5.0,21326.0,403431.0,207592.0,63608.0,3103.0
2026-04-09 22:38:26.822333,544140,3236706904,3236708063,-1.077504,0.12688,-0.046848,9.765,4.96125,-0.30625,17.6,-29.408,42.968002,concentric,7,5.0,21326.0,403431.0,207592.0,63608.0,3103.0
2026-04-09 22:38:26.825962,544141,3236721354,3236722943,-1.08336,0.119072,-0.046848,8.9075,5.565,-1.44375,16.736,-28.984001,41.512,concentric,7,5.0,21326.0,403431.0,207592.0,63608.0,3103.0
2026-04-09 22:38:26.828319,544142,3236730306,3236731654,-1.05408,0.113216,-0.021472,9.72125,5.32,-2.54625,17.432001,-29.024002,40.752003,concentric,7,5.0,21326.0,403431.0,207592.0,63608.0,3103.0
2026-04-09 22:38:26.858375,544153,3236739304,3236740372,-1.05408,0.113216,-0.021472,10.885,5.15375,-2.905,17.432001,-29.024002,40.752003,concentric,7,5.0,21261.0,403431.0,208647.0,64558.0,3284.0
2026-04-09 22:38:26.860858,544154,3236753894,3236755385,-1.036512,0.124928,0.003904,11.4975,5.80125,-4.13,18.088001,-29.392002,40.424004,concentric,7,5.0,21261.0,403431.0,208647.0,64558.0,3284.0
2026-04-09 22:38:26.863370,544155,3236762904,3236764161,-1.036512,0.124928,0.003904,10.6925,5.5125,-5.46,18.088001,-29.392002,40.424004,concentric,7,5.0,21261.0,403431.0,208647.0,64558.0,3284.0
2026-04-09 22:38:26.865845,544156,3236771820,3236772899,-1.03456,0.091744,-0.007808,8.19,6.2475,-6.16875,17.392,-29.816002,40.328003,concentric,7,5.0,21261.0,403431.0,208647.0,64558.0,3284.0
2026-04-09 22:38:26.896200,544157,3236786411,3236787850,-1.03456,0.091744,-0.007808,5.6525,6.99125,-6.685,17.392,-29.816002,40.328003,concentric,7,5.0,21261.0,403431.0,208647.0,64558.0,3284.0
2026-04-09 22:38:26.899689,544158,3236795329,3236796562,-1.016992,0.072224,-0.00976,4.795,6.23875,-7.28875,18.088001,-29.568,40.760002,concentric,7,5.0,21261.0,403431.0,208647.0,64558.0,3284.0
2026-04-09 22:38:26.902160,544159,3236804260,3236805259,-1.016992,0.072224,-0.00976,6.71125,6.36125,-6.4925,18.088001,-29.568,40.760002,concentric,7,5.0,21261.0,403431.0,208647.0,64558.0,3284.0
2026-04-09 22:38:26.932360,544160,3236818783,3236820188,-1.0248,0.091744,-0.013664,8.75875,7.105,-6.2825,17.536001,-29.576002,40.168003,concentric,7,5.0,21261.0,403431.0,208647.0,64558.0,3284.0
2026-04-09 22:38:26.935953,544161,3236827704,3236828888,-1.0248,0.122976,0.015616,8.575,7.13125,-6.27375,17.536001,-29.576002,40.168003,concentric,7,5.0,21261.0,403431.0,208647.0,64558.0,3284.0
2026-04-09 22:38:26.970879,544171,3236837156,3236837663,-1.003328,0.122976,0.015616,7.84,7.28875,-6.23875,17.496,-29.608002,39.512,concentric,7,5.0,21225.0,403431.0,209246.0,65115.0,3413.0
2026-04-09 22:38:26.973411,544172,3236846571,3236848505,-1.003328,0.122976,0.015616,7.0525,7.00875,-7.04375,17.496,-29.608002,39.512,concentric,7,5.0,21225.0,403431.0,209246.0,65115.0,3413.0
2026-04-09 22:38:26.975921,544173,3236861253,3236863454,-1.00528,0.128832,0.025376,5.7225,7.28,-8.68,17.848001,-29.784002,40.608,concentric,7,5.0,21225.0,403431.0,209246.0,65115.0,3413.0
2026-04-09 22:38:26.978348,544174,3236870282,3236872270,-1.007232,0.105408,-0.011712,4.22625,7.315,-10.115,16.864,-29.392002,41.160004,concentric,7,5.0,21225.0,403431.0,209246.0,65115.0,3413.0
2026-04-09 22:38:26.980907,544175,3236879929,3236881001,-1.007232,0.105408,-0.011712,2.9925,8.225,-10.61375,16.864,-29.392002,41.160004,concentric,7,5.0,21225.0,403431.0,209246.0,65115.0,3413.0
2026-04-09 22:38:26.983391,544176,3236888872,3236889707,-0.989664,0.085888,-0.005856,2.23125,7.76125,-11.2175,17.352001,-29.232002,41.688004,concentric,7,5.0,21225.0,403431.0,209246.0,65115.0,3413.0
2026-04-09 22:38:27.044973,544177,3236903379,3236904621,-0.989664,0.085888,-0.005856,1.5225,8.09375,-11.50625,17.352001,-29.232002,41.688004,concentric,7,5.0,21225.0,403431.0,209246.0,65115.0,3413.0
2026-04-09 22:38:27.056015,544178,3236912294,3236913346,-0.987712,0.0976,-0.001952,2.0125,8.56625,-11.76,17.568,-29.712002,40.336002,concentric,7,5.0,21225.0,403431.0,209246.0,65115.0,3413.0
2026-04-09 22:38:27.058353,544179,3236921218,3236922019,-0.987712,0.0976,-0.001952,2.84375,8.9775,-11.9525,17.568,-29.712002,40.336002,concentric,7,5.0,21225.0,403431.0,209246.0,65115.0,3413.0
2026-04-09 22:38:27.084306,544189,3236935832,3236937217,-0.979904,0.109312,-0.00976,3.92,9.3625,-12.0225,17.672,-29.648,41.440002,concentric,7,5.0,21236.0,403431.0,209294.0,65231.0,3442.0
2026-04-09 22:38:27.086243,544190,3236944842,3236945932,-0.979904,0.109312,-0.00976,3.0275,9.5375,-12.18875,17.672,-29.648,41.440002,concentric,7,5.0,21236.0,403431.0,209294.0,65231.0,3442.0
2026-04-09 22:38:27.102274,544191,3236953737,3236954608,-0.981856,0.099552,-0.046848,1.4875,9.9925,-12.145,18.008001,-29.624,39.976,concentric,7,5.0,21236.0,403431.0,209294.0,65231.0,3442.0
2026-04-09 22:38:27.104723,544192,3236962687,3236963357,-0.981856,0.099552,-0.046848,1.46125,9.7825,-12.136251,18.008001,-29.624,39.976,concentric,7,5.0,21236.0,403431.0,209294.0,65231.0,3442.0
2026-04-09 22:38:27.107102,544193,3236977595,3236978339,-0.983808,0.091744,-0.037088,0.91,9.8525,-12.46,17.248001,-29.312002,40.896004,concentric,7,5.0,21236.0,403431.0,209294.0,65231.0,3442.0
2026-04-09 22:38:27.109671,544194,3236987084,3236989171,-0.983808,0.091744,-0.037088,0.55125,9.93125,-12.48625,17.248001,-29.312002,40.896004,concentric,7,5.0,21236.0,403431.0,209294.0,65231.0,3442.0
2026-04-09 22:38:27.112163,544195,3236996037,3236998012,-0.974048,0.080032,0.011712,1.225,10.07125,-12.60875,17.968,-28.864002,41.048,concentric,7,5.0,21236.0,403431.0,209294.0,65231.0,3442.0
2026-04-09 22:38:27.114741,544196,3237005143,3237006831,-0.974048,0.080032,0.011712,1.155,9.23125,-13.06375,17.968,-28.864002,41.048,concentric,7,5.0,21236.0,403431.0,209294.0,65231.0,3442.0
2026-04-09 22:38:27.117081,544197,3237019669,3237021763,-0.94672,0.08784,-0.005856,2.52875,9.555,-12.495,18.856,-28.704,39.56,concentric,7,5.0,21236.0,403431.0,209294.0,65231.0,3442.0
2026-04-09 22:38:27.123457,544198,3237028605,3237030526,-1.003328,0.074176,-0.103456,3.885,9.79125,-11.38375,18.856,-28.704,40.048,concentric,7,5.0,21236.0,403431.0,209294.0,65231.0,3442.0
2026-04-09 22:38:27.154687,544209,3237038045,3237039783,-1.003328,0.074176,-0.103456,4.13,9.65125,-10.33375,18.488,-29.624,40.048,concentric,7,5.0,21276.0,403431.0,209013.0,65039.0,3381.0
2026-04-09 22:38:27.160937,544210,3237052704,3237054791,-1.030656,0.08784,-0.080032,3.4125,9.24875,-8.5575,18.408,-29.272001,39.552002,concentric,7,5.0,21276.0,403431.0,209013.0,65039.0,3381.0
2026-04-09 22:38:27.163508,544211,3237061643,3237063515,-1.030656,0.08784,-0.080032,3.56125,9.135,-7.6125,18.408,-29.272001,39.552002,concentric,7,5.0,21276.0,403431.0,209013.0,65039.0,3381.0
2026-04-09 22:38:27.166670,544212,3237070573,3237072213,-1.016992,0.11712,0.005856,3.45625,8.7675,-8.0325,17.384,-28.736002,40.352,concentric,7,5.0,21276.0,403431.0,209013.0,65039.0,3381.0
2026-04-09 22:38:27.196121,544213,3237085066,3237087051,-1.016992,0.11712,0.005856,3.99,8.365,-10.14125,17.384,-28.736002,40.352,concentric,7,5.0,21276.0,403431.0,209013.0,65039.0,3381.0
2026-04-09 22:38:27.199682,544214,3237093984,3237095788,-1.020896,0.074176,-0.005856,4.41,8.1375,-11.261251,18.696001,-29.824001,39.448,concentric,7,5.0,21276.0,403431.0,209013.0,65039.0,3381.0
2026-04-09 22:38:27.202195,544215,3237102880,3237104468,-1.020896,0.074176,-0.005856,4.54125,7.51625,-10.43875,18.696001,-29.824001,39.448,concentric,7,5.0,21276.0,403431.0,209013.0,65039.0,3381.0
2026-04-09 22:38:27.207221,544216,3237111896,3237113173,-1.01504,0.033184,-0.044896,5.55625,7.88375,-9.26625,19.28,-29.368002,39.488003,concentric,7,5.0,21276.0,403431.0,209013.0,65039.0,3381.0
2026-04-09 22:38:27.237363,544217,3237126391,3237128206,-1.01504,0.033184,-0.044896,8.28625,6.7375,-8.04125,19.28,-29.368002,39.488003,concentric,7,5.0,21276.0,403431.0,209013.0,65039.0,3381.0
2026-04-09 22:38:27.278343,544227,3237135295,3237136951,-0.993568,0.085888,-0.054656,11.36625,6.5275,-5.59125,19.336,-29.232002,39.208,concentric,7,5.0,21253.0,403431.0,209472.0,65546.0,3476.0
2026-04-09 22:38:27.280980,544228,3237144652,3237145761,-0.993568,0.085888,-0.054656,10.36875,7.4375,-4.45375,19.336,-29.232002,39.208,concentric,7,5.0,21253.0,403431.0,209472.0,65546.0,3476.0
2026-04-09 22:38:27.287170,544229,3237159170,3237160740,-1.059936,0.115168,-0.109312,6.895,8.785,-4.62875,18.968,-28.976002,38.928,concentric,7,5.0,21253.0,403431.0,209472.0,65546.0,3476.0
2026-04-09 22:38:27.289699,544230,3237168069,3237169419,-1.059936,0.115168,-0.109312,4.865,8.61,-5.705,18.968,-28.976002,38.928,concentric,7,5.0,21253.0,403431.0,209472.0,65546.0,3476.0
2026-04-09 22:38:27.292216,544231,3237176999,3237178152,-1.071648,0.074176,-0.083936,4.7425,8.198751,-7.5425,19.808,-29.544,39.640003,concentric,7,5.0,21253.0,403431.0,209472.0,65546.0,3476.0
2026-04-09 22:38:27.294640,544232,3237191584,3237193107,-1.020896,0.076128,0.001952,8.6625,5.9325,-8.46125,18.480001,-29.608002,40.112003,concentric,7,5.0,21253.0,403431.0,209472.0,65546.0,3476.0
2026-04-09 22:38:27.299692,544233,3237200533,3237201907,-1.020896,0.076128,0.001952,13.615,2.94,-9.52,18.480001,-29.608002,40.112003,concentric,7,5.0,21253.0,403431.0,209472.0,65546.0,3476.0
2026-04-09 22:38:27.303411,544234,3237209571,3237210647,-1.061888,0.099552,-0.00976,17.71875,2.94,-9.65125,18.480001,-29.632002,41.328003,concentric,7,5.0,21253.0,403431.0,209472.0,65546.0,3476.0
2026-04-09 22:38:27.343676,544235,3237218535,3237219359,-1.061888,0.099552,-0.00976,16.5375,4.1825,-8.86375,19.448002,-29.632002,41.328003,concentric,7,5.0,21253.0,403431.0,209472.0,65546.0,3476.0
2026-04-09 22:38:27.347222,544236,3237233010,3237234240,-1.106784,0.07808,-0.119072,13.32625,5.145,-9.40625,18.264,-29.976002,40.600002,concentric,7,5.0,21253.0,403431.0,209472.0,65546.0,3476.0
2026-04-09 22:38:27.383368,544246,3237242049,3237243070,-1.106784,0.07808,-0.119072,9.14375,6.76375,-9.0125,18.264,-29.976002,40.600002,concentric,7,5.0,21236.0,403431.0,209402.0,65525.0,3453.0
2026-04-09 22:38:27.385939,544247,3237250992,3237251775,-1.118496,0.02928,-0.132736,3.91125,7.23625,-6.825,19.336,-29.840002,39.208,concentric,7,5.0,21236.0,403431.0,209402.0,65525.0,3453.0
2026-04-09 22:38:27.404519,544248,3237265492,3237266695,-1.118496,0.02928,-0.132736,1.7675,5.74875,-4.69875,19.336,-29.840002,39.208,concentric,7,5.0,21236.0,403431.0,209402.0,65525.0,3453.0
2026-04-09 22:38:27.406000,544249,3237274416,3237275400,-1.042368,0.095648,-0.001952,5.88,4.6025,-2.9225,19.192001,-29.576002,38.392002,concentric,7,5.0,21236.0,403431.0,209402.0,65525.0,3453.0
2026-04-09 22:38:27.408390,544250,3237283357,3237284156,-1.042368,0.095648,-0.001952,12.20625,1.96,-2.35375,19.192001,-29.576002,38.392002,concentric,7,5.0,21236.0,403431.0,209402.0,65525.0,3453.0
2026-04-09 22:38:27.410912,544251,3237297851,3237299071,-1.042368,0.11712,-0.017568,15.408751,0.35,-1.8375,19.848001,-29.264002,38.648003,concentric,7,5.0,21236.0,403431.0,209402.0,65525.0,3453.0
2026-04-09 22:38:27.413443,544252,3237306793,3237307768,-1.042368,0.11712,-0.017568,14.9975,-0.1925,-2.3625,19.848001,-29.264002,38.648003,concentric,7,5.0,21236.0,403431.0,209402.0,65525.0,3453.0
2026-04-09 22:38:27.415992,544253,3237315727,3237316494,-1.108736,0.056608,-0.093696,10.01875,-0.035,-1.81125,19.832,-29.560001,38.688004,concentric,7,5.0,21236.0,403431.0,209402.0,65525.0,3453.0
2026-04-09 22:38:27.420969,544254,3237325217,3237327333,-1.108736,0.056608,-0.093696,8.198751,-0.595,-0.735,19.832,-29.560001,38.688004,concentric,7,5.0,21236.0,403431.0,209402.0,65525.0,3453.0
2026-04-09 22:38:27.477230,544265,3237340397,3237342246,-1.050176,0.093696,-0.074176,10.5,-2.84375,-2.7125,19.064001,-29.864002,39.352,concentric,7,5.0,21224.0,403431.0,209219.0,65494.0,3462.0
2026-04-09 22:38:27.479727,544266,3237349313,3237350968,-1.050176,0.093696,-0.056608,15.95125,-4.725,-4.41875,19.064001,-29.864002,39.352,concentric,7,5.0,21224.0,403431.0,209219.0,65494.0,3462.0
2026-04-09 22:38:27.486974,544267,3237358223,3237359662,-0.999424,0.113216,-0.056608,19.355,-7.74375,-7.23625,17.816,-29.568,37.624,concentric,7,5.0,21224.0,403431.0,209219.0,65494.0,3462.0
2026-04-09 22:38:27.488747,544268,3237372862,3237374590,-1.0248,0.13664,-0.056608,22.05875,-9.93125,-8.9775,19.232,-29.984001,40.184002,concentric,7,5.0,21224.0,403431.0,209219.0,65494.0,3462.0
2026-04-09 22:38:27.490922,544269,3237381921,3237383364,-1.0248,0.13664,-0.056608,24.08875,-9.52875,-11.698751,19.232,-29.984001,40.184002,concentric,7,5.0,21224.0,403431.0,209219.0,65494.0,3462.0
2026-04-09 22:38:27.495890,544270,3237390895,3237392156,-1.065792,0.169824,0.027328,20.78125,-8.05875,-15.39125,18.720001,-30.008001,40.176003,concentric,7,5.0,21224.0,403431.0,209219.0,65494.0,3462.0
2026-04-09 22:38:27.503924,544271,3237399844,3237400954,-1.065792,0.169824,0.027328,16.485,-6.30875,-19.90625,18.720001,-30.008001,40.176003,concentric,7,5.0,21224.0,403431.0,209219.0,65494.0,3462.0
2026-04-09 22:38:27.509249,544272,3237414343,3237415893,-1.036512,0.115168,0.033184,15.21625,-5.985,-23.86125,19.152,-30.28,41.568,concentric,7,5.0,21224.0,403431.0,209219.0,65494.0,3462.0
2026-04-09 22:38:27.539568,544273,3237423283,3237424624,-1.036512,0.115168,0.033184,11.29625,-7.00875,-25.97875,19.152,-30.28,41.568,concentric,7,5.0,21224.0,403431.0,209219.0,65494.0,3462.0
2026-04-09 22:38:27.541893,544274,3237432217,3237433320,-1.052128,0.023424,-0.013664,9.6425,-8.2775,-25.24375,17.712,-30.016,41.232002,concentric,7,5.0,21224.0,403431.0,209219.0,65494.0,3462.0
2026-04-09 22:38:27.568930,544284,3237447400,3237448338,-1.052128,0.023424,-0.013664,10.823751,-8.07625,-23.87875,17.712,-30.016,41.232002,concentric,7,5.0,21232.0,403431.0,208575.0,65031.0,3363.0
2026-04-09 22:38:27.570668,544285,3237456346,3237457147,-1.030656,0.083936,-0.031232,13.11625,-8.575,-21.8575,20.496,-30.080002,38.216003,concentric,7,5.0,21232.0,403431.0,208575.0,65031.0,3363.0
2026-04-09 22:38:27.572343,544286,3237465832,3237467991,-1.030656,0.083936,-0.031232,13.72875,-8.35625,-19.95875,20.496,-30.080002,38.216003,concentric,7,5.0,21232.0,403431.0,208575.0,65031.0,3363.0
2026-04-09 22:38:27.576403,544287,3237474770,3237476704,-1.089216,0.10736,-0.162016,11.3225,-6.41375,-19.32,19.896002,-30.056002,39.096,concentric,7,5.0,21232.0,403431.0,208575.0,65031.0,3363.0
2026-04-09 22:38:27.604986,544288,3237489297,3237489627,-1.089216,0.10736,-0.162016,5.0575,-4.29625,-17.29875,19.896002,-30.056002,39.096,concentric,7,5.0,21232.0,403431.0,208575.0,65031.0,3363.0
2026-04-09 22:38:27.608531,544289,3237498502,3237500376,-1.003328,-0.01952,0.013664,-3.92875,-5.66125,-14.63,21.024,-30.000002,40.136,concentric,7,5.0,21232.0,403431.0,208575.0,65031.0,3363.0
2026-04-09 22:38:27.645728,544290,3237507434,3237509095,-1.003328,-0.01952,0.013664,-8.68,-7.8925,-12.145,21.024,-30.000002,40.136,concentric,7,5.0,21232.0,403431.0,208575.0,65031.0,3363.0
2026-04-09 22:38:27.648550,544291,3237521970,3237524001,-0.933056,-0.001952,0.03904,-3.66625,-9.065,-10.185,20.464,-30.080002,38.456,concentric,7,5.0,21232.0,403431.0,208575.0,65031.0,3363.0
2026-04-09 22:38:27.650849,544292,3237530886,3237532707,-1.056032,0.152256,-0.072224,7.00875,-9.21375,-8.67125,21.248001,-30.256,37.08,concentric,7,5.0,21232.0,403431.0,208575.0,65031.0,3363.0
2026-04-09 22:38:27.675943,544302,3237540254,3237541509,-1.056032,0.152256,-0.072224,15.435,-7.76125,-7.21,21.248001,-30.256,37.08,concentric,7,5.0,21193.0,403431.0,208863.0,65470.0,3443.0
2026-04-09 22:38:27.678428,544303,3237549238,3237550217,-1.056032,0.152256,-0.072224,11.05125,-6.16,-7.60375,21.248001,-30.256,37.08,concentric,7,5.0,21193.0,403431.0,208863.0,65470.0,3443.0
2026-04-09 22:38:27.680934,544304,3237563877,3237565128,-1.08336,0.046848,-0.132736,0.7525,-5.10125,-8.4,21.288,-29.728,37.512,concentric,7,5.0,21193.0,403431.0,208863.0,65470.0,3443.0
2026-04-09 22:38:27.683451,544305,3237572808,3237573911,-0.979904,0.00976,0.0,-4.59375,-4.96125,-9.4325,20.592001,-29.432001,39.032,concentric,7,5.0,21193.0,403431.0,208863.0,65470.0,3443.0
2026-04-09 22:38:27.685863,544306,3237581995,3237582642,-0.979904,0.00976,0.0,-2.345,-4.375,-9.4325,20.592001,-29.432001,39.032,concentric,7,5.0,21193.0,403431.0,208863.0,65470.0,3443.0
2026-04-09 22:38:27.688426,544307,3237591273,3237593408,-1.007232,0.070272,-0.035136,2.79125,-4.585,-9.28375,19.888,-29.736002,38.264,concentric,7,5.0,21193.0,403431.0,208863.0,65470.0,3443.0
2026-04-09 22:38:27.719286,544308,3237605797,3237606321,-1.007232,0.070272,-0.035136,8.12875,-4.6375,-10.9025,19.888,-29.736002,38.264,concentric,7,5.0,21193.0,403431.0,208863.0,65470.0,3443.0
2026-04-09 22:38:27.722196,544309,3237615199,3237617094,-1.124352,0.056608,-0.070272,7.7875,-3.0275,-11.1825,21.216002,-30.208002,38.384003,concentric,7,5.0,21193.0,403431.0,208863.0,65470.0,3443.0
2026-04-09 22:38:27.725633,544310,3237624103,3237625774,-1.124352,0.056608,-0.070272,5.5825,-2.3625,-11.97875,21.216002,-30.208002,38.384003,concentric,7,5.0,21193.0,403431.0,208863.0,65470.0,3443.0
2026-04-09 22:38:27.789012,544321,3237638855,3237641156,-1.095072,0.070272,-0.064416,6.1425,-1.82,-13.8075,21.432001,-30.152002,38.072002,concentric,7,5.0,21097.0,403431.0,209635.0,66068.0,3571.0
2026-04-09 22:38:27.790727,544322,3237647952,3237649905,-1.095072,0.070272,-0.064416,8.54875,-1.5925,-16.45,21.432001,-30.152002,38.072002,concentric,7,5.0,21097.0,403431.0,209635.0,66068.0,3571.0
2026-04-09 22:38:27.792285,544323,3237656899,3237658688,-1.085312,0.081984,-0.02928,8.68,-1.995,-18.05125,21.928001,-30.464,38.552002,concentric,7,5.0,21097.0,403431.0,209635.0,66068.0,3571.0
2026-04-09 22:38:27.799049,544324,3237665809,3237667419,-1.085312,0.081984,-0.02928,7.875,-2.345,-18.24375,21.928001,-30.464,38.552002,concentric,7,5.0,21097.0,403431.0,209635.0,66068.0,3571.0
2026-04-09 22:38:27.800735,544325,3237680286,3237682331,-1.159488,0.02928,-0.105408,7.53375,-3.40375,-19.34625,21.52,-29.832,40.176003,concentric,7,5.0,21097.0,403431.0,209635.0,66068.0,3571.0
2026-04-09 22:38:27.803437,544326,3237689453,3237691042,-1.159488,0.02928,-0.105408,6.16875,-3.96375,-19.11875,21.52,-29.832,40.176003,concentric,7,5.0,21097.0,403431.0,209635.0,66068.0,3571.0
2026-04-09 22:38:27.807358,544327,3237698424,3237699812,-1.143872,0.003904,-0.07808,6.44,-3.7975,-17.29875,22.160002,-29.480001,38.84,concentric,7,5.0,21097.0,403431.0,209635.0,66068.0,3571.0
2026-04-09 22:38:27.809350,544328,3237712924,3237714816,-1.104832,0.021472,0.00976,8.74125,-3.92875,-15.295,22.240002,-29.672,36.528,concentric,7,5.0,21097.0,403431.0,209635.0,66068.0,3571.0
2026-04-09 22:38:27.837432,544329,3237721986,3237723534,-1.104832,0.021472,0.00976,6.37875,-2.555,-13.886251,22.240002,-29.672,36.528,concentric,7,5.0,21097.0,403431.0,209635.0,66068.0,3571.0
2026-04-09 22:38:27.842052,544330,3237730918,3237732281,-1.104832,0.021472,-0.054656,4.01625,-1.6275,-11.8475,22.240002,-29.672,36.528,concentric,7,5.0,21097.0,403431.0,209635.0,66068.0,3571.0
2026-04-09 22:38:27.866127,544340,3237745544,3237747241,-1.145824,0.025376,-0.054656,4.55875,-1.44375,-10.40375,22.288,-29.856,38.104,concentric,7,5.0,21113.0,403431.0,209303.0,65953.0,3534.0
2026-04-09 22:38:27.870281,544341,3237754569,3237756026,-1.167296,0.005856,-0.08784,3.38625,-0.84,-7.65625,20.616001,-30.456001,39.216003,concentric,7,5.0,21113.0,403431.0,209303.0,65953.0,3534.0
2026-04-09 22:38:27.871898,544342,3237763492,3237764762,-1.167296,0.005856,-0.08784,1.86375,0.2275,-5.075,20.616001,-30.456001,39.216003,concentric,7,5.0,21113.0,403431.0,209303.0,65953.0,3534.0
2026-04-09 22:38:27.873502,544343,3237772456,3237773527,-1.110688,0.054656,-0.02928,3.675,0.84,-4.13875,21.408,-29.912,40.544003,concentric,7,5.0,21113.0,403431.0,209303.0,65953.0,3534.0
2026-04-09 22:38:27.905994,544344,3237786988,3237788479,-1.110688,0.054656,-0.02928,4.66375,2.0125,-5.64375,21.408,-29.912,40.544003,concentric,7,5.0,21113.0,403431.0,209303.0,65953.0,3534.0
2026-04-09 22:38:27.909393,544345,3237795894,3237797177,-1.110688,0.08784,-0.015616,5.25875,3.15875,-6.4925,22.368002,-30.232002,38.056004,concentric,7,5.0,21113.0,403431.0,209303.0,65953.0,3534.0
2026-04-09 22:38:27.947582,544346,3237804822,3237805911,-1.110688,0.08784,-0.015616,4.1475,4.445,-7.83125,22.368002,-30.232002,38.056004,concentric,7,5.0,21113.0,403431.0,209303.0,65953.0,3534.0
2026-04-09 22:38:27.976206,544347,3237819380,3237820936,-1.1712,0.05856,-0.052704,3.05375,5.55625,-10.05375,22.776001,-30.048002,38.152,concentric,7,5.0,21113.0,403431.0,209303.0,65953.0,3534.0
2026-04-09 22:38:27.979753,544348,3237828300,3237829643,-1.1712,0.05856,-0.052704,0.385,5.48625,-10.45625,22.776001,-30.048002,38.152,concentric,7,5.0,21113.0,403431.0,209303.0,65953.0,3534.0
2026-04-09 22:38:27.984792,544349,3237837213,3237838320,-1.159488,0.013664,-0.066368,-2.7125,5.0225,-9.33625,22.84,-29.952002,38.312,concentric,7,5.0,21113.0,403431.0,209303.0,65953.0,3534.0
2026-04-09 22:38:28.009711,544359,3237851721,3237853317,-1.149728,0.027328,-0.040992,-3.3075,4.34,-8.61875,22.84,-29.952002,36.896,concentric,7,5.0,21200.0,403431.0,206511.0,64092.0,3133.0
2026-04-09 22:38:28.012228,544360,3237860638,3237861995,-1.149728,0.027328,-0.040992,-6.34375,5.04,-7.48125,22.920002,-29.704,36.896,concentric,7,5.0,21200.0,403431.0,206511.0,64092.0,3133.0
2026-04-09 22:38:28.014744,544361,3237869558,3237870692,-1.149728,0.027328,-0.040992,-10.64,6.37,-5.57375,22.920002,-29.704,36.896,concentric,7,5.0,21200.0,403431.0,206511.0,64092.0,3133.0
2026-04-09 22:38:28.017241,544362,3237884062,3237885616,-1.169248,-0.001952,-0.00976,-7.49875,6.335,-5.1275,22.888,-29.720001,38.120003,concentric,7,5.0,21200.0,403431.0,206511.0,64092.0,3133.0
2026-04-09 22:38:28.019728,544363,3237892993,3237894361,-1.147776,-0.001952,-0.044896,-3.38625,6.09,-5.53875,22.632002,-29.984001,41.656002,concentric,7,5.0,21200.0,403431.0,206511.0,64092.0,3133.0
2026-04-09 22:38:28.022321,544364,3237902028,3237903076,-1.147776,-0.001952,-0.044896,-3.99875,5.18,-4.24375,22.632002,-29.984001,41.656002,concentric,7,5.0,21200.0,403431.0,206511.0,64092.0,3133.0
2026-04-09 22:38:28.026241,544365,3237911078,3237911807,-1.147776,-0.001952,-0.044896,-3.675,5.6525,-1.7325,22.632002,-29.984001,41.656002,concentric,7,5.0,21200.0,403431.0,206511.0,64092.0,3133.0
2026-04-09 22:38:28.029630,544366,3237926072,3237926755,-1.118496,-0.007808,-0.031232,-2.89625,6.08125,-0.76125,21.848001,-30.256,40.176003,concentric,7,5.0,21200.0,403431.0,206511.0,64092.0,3133.0
2026-04-09 22:38:28.032084,544367,3237935449,3237937556,-1.138016,0.033184,-0.052704,-4.82125,6.83375,-0.4375,22.576,-29.912,39.256,concentric,7,5.0,21200.0,403431.0,206511.0,64092.0,3133.0
2026-04-09 22:38:28.063414,544377,3237944502,3237946335,-1.138016,0.033184,-0.052704,-6.55375,8.155,-0.11375,22.576,-29.912,39.256,concentric,7,5.0,21096.0,403431.0,206491.0,64301.0,3164.0
2026-04-09 22:38:28.065950,544378,3237953566,3237955148,-1.118496,0.042944,-0.007808,-8.09375,8.3825,-0.79625,22.04,-29.704,39.328003,concentric,7,5.0,21096.0,403431.0,206491.0,64301.0,3164.0
2026-04-09 22:38:28.068403,544379,3237968041,3237970189,-1.118496,0.042944,-0.007808,-9.14375,7.53375,-2.58125,22.04,-29.704,39.328003,concentric,7,5.0,21096.0,403431.0,206491.0,64301.0,3164.0
2026-04-09 22:38:28.072212,544380,3237976945,3237978901,-1.075552,0.025376,-0.001952,-6.9125,6.265,-3.6925,22.896002,-29.928001,38.416,concentric,7,5.0,21096.0,403431.0,206491.0,64301.0,3164.0
2026-04-09 22:38:28.102411,544381,3237985899,3237987661,-1.075552,0.025376,-0.001952,-4.1475,6.545,-4.17375,22.896002,-29.928001,38.416,concentric,7,5.0,21096.0,403431.0,206491.0,64301.0,3164.0
2026-04-09 22:38:28.105941,544382,3238000375,3238002555,-1.134112,0.023424,-0.003904,-4.71625,7.02625,-4.90875,23.152,-29.832,38.280003,concentric,7,5.0,21096.0,403431.0,206491.0,64301.0,3164.0
2026-04-09 22:38:28.108434,544383,3238009269,3238011239,-1.134112,0.023424,-0.003904,-6.58875,9.073751,-5.59125,23.152,-29.832,38.280003,concentric,7,5.0,21096.0,403431.0,206491.0,64301.0,3164.0
2026-04-09 22:38:28.113520,544384,3238018221,3238019986,-1.147776,0.050752,-0.025376,-9.12625,10.71,-6.8075,23.472002,-29.488,38.272003,concentric,7,5.0,21096.0,403431.0,206491.0,64301.0,3164.0
2026-04-09 22:38:28.143775,544385,3238032721,3238034942,-1.143872,-0.023424,-0.050752,-12.25,9.63375,-7.72625,23.056002,-29.888,40.704002,concentric,7,5.0,21096.0,403431.0,206491.0,64301.0,3164.0
2026-04-09 22:38:28.174692,544396,3238042034,3238043698,-1.143872,-0.023424,-0.050752,-14.42,8.715,-8.33,23.056002,-29.888,40.704002,eccentric,7,5.0,20946.0,403431.0,207925.0,65458.0,3418.0
2026-04-09 22:38:28.177207,544397,3238051080,3238052475,-1.143872,-0.023424,-0.050752,-14.971251,8.00625,-7.8225,23.056002,-29.888,40.704002,eccentric,7,5.0,20946.0,403431.0,207925.0,65458.0,3418.0
2026-04-09 22:38:28.179699,544398,3238060145,3238061196,-1.124352,-0.035136,0.011712,-13.69375,6.32625,-5.87125,23.272001,-29.760002,39.0,eccentric,7,5.0,20946.0,403431.0,207925.0,65458.0,3418.0
2026-04-09 22:38:28.182189,544399,3238074744,3238076109,-1.159488,0.064416,0.013664,-11.261251,4.85625,-4.2175,21.872002,-29.632002,40.576,eccentric,7,5.0,20946.0,403431.0,207925.0,65458.0,3418.0
2026-04-09 22:38:28.184674,544400,3238083736,3238084905,-1.159488,0.064416,0.013664,-7.7875,4.9525,-5.27625,21.872002,-29.632002,40.576,eccentric,7,5.0,20946.0,403431.0,207925.0,65458.0,3418.0
2026-04-09 22:38:28.187183,544401,3238092804,3238093617,-1.21024,0.050752,-0.02928,-7.8225,5.53,-7.315,21.872002,-29.936,40.048,eccentric,7,5.0,20946.0,403431.0,207925.0,65458.0,3418.0
2026-04-09 22:38:28.242507,544402,3238107328,3238108517,-1.21024,0.050752,-0.02928,-14.81375,6.3175,-8.42625,22.080002,-29.936,40.048,eccentric,7,5.0,20946.0,403431.0,207925.0,65458.0,3418.0
2026-04-09 22:38:28.246009,544403,3238116182,3238117272,-1.139968,-0.011712,-0.017568,-21.9275,6.44,-8.39125,23.232,-29.376001,39.112003,eccentric,7,5.0,20946.0,403431.0,207925.0,65458.0,3418.0
2026-04-09 22:38:28.248517,544404,3238125086,3238125959,-1.139968,-0.011712,-0.017568,-24.99875,5.03125,-8.37375,23.232,-29.376001,39.112003,eccentric,7,5.0,20946.0,403431.0,207925.0,65458.0,3418.0
2026-04-09 22:38:28.251009,544405,3238139567,3238140884,-1.126304,0.013664,-0.007808,-22.9775,3.4125,-10.185,23.528002,-29.544,38.832,eccentric,7,5.0,20946.0,403431.0,207925.0,65458.0,3418.0
2026-04-09 22:38:28.275927,544415,3238148477,3238149611,-1.126304,0.013664,-0.007808,-18.33125,2.79125,-11.7075,23.528002,-29.544,38.832,eccentric,7,5.0,20873.0,403431.0,209317.0,66657.0,3688.0
2026-04-09 22:38:28.278707,544416,3238157454,3238158449,-1.182912,0.064416,-0.007808,-15.26875,3.29,-13.0375,23.792002,-29.248001,39.152,eccentric,7,5.0,20873.0,403431.0,209317.0,66657.0,3688.0
2026-04-09 22:38:28.280909,544417,3238166454,3238167172,-1.182912,0.064416,-0.007808,-13.39625,4.41875,-13.65,23.792002,-29.248001,39.152,eccentric,7,5.0,20873.0,403431.0,209317.0,66657.0,3688.0
2026-04-09 22:38:28.284738,544418,3238181376,3238182110,-1.163392,0.035136,-0.035136,-13.667501,4.7775,-14.385,23.504002,-29.248001,40.144,eccentric,7,5.0,20873.0,403431.0,209317.0,66657.0,3688.0
2026-04-09 22:38:28.286645,544419,3238190797,3238192926,-1.163392,0.035136,-0.035136,-18.4275,4.935,-15.26875,23.504002,-29.248001,40.144,eccentric,7,5.0,20873.0,403431.0,209317.0,66657.0,3688.0
2026-04-09 22:38:28.316285,544420,3238199758,3238201666,-1.1712,-0.023424,-0.070272,-21.63,4.3925,-14.761251,24.000002,-29.272001,40.584003,eccentric,7,5.0,20873.0,403431.0,209317.0,66657.0,3688.0
2026-04-09 22:38:28.319710,544421,3238214258,3238214566,-1.179008,-0.021472,-0.05856,-21.04375,3.115,-14.41125,24.008001,-29.456001,39.856003,eccentric,7,5.0,20873.0,403431.0,209317.0,66657.0,3688.0
2026-04-09 22:38:28.322190,544422,3238223432,3238225331,-1.179008,-0.021472,-0.05856,-19.145,2.275,-14.761251,24.008001,-29.456001,39.856003,eccentric,7,5.0,20873.0,403431.0,209317.0,66657.0,3688.0
2026-04-09 22:38:28.328538,544423,3238232385,3238234029,-1.179008,-0.021472,-0.05856,-14.02625,1.65375,-14.65625,24.008001,-29.456001,39.856003,eccentric,7,5.0,20873.0,403431.0,209317.0,66657.0,3688.0
2026-04-09 22:38:28.363776,544433,3238241354,3238242761,-1.182912,0.015616,0.025376,-9.0475,1.28625,-13.1775,23.064001,-28.632002,40.224003,eccentric,7,5.0,20792.0,403431.0,210686.0,67811.0,3972.0
2026-04-09 22:38:28.365443,544434,3238256992,3238257732,-1.214144,-0.00976,-0.052704,-8.18125,0.455,-13.405,22.968,-28.648,39.784,eccentric,7,5.0,20792.0,403431.0,210686.0,67811.0,3972.0
2026-04-09 22:38:28.367431,544435,3238266396,3238268592,-1.214144,-0.00976,-0.052704,-10.386251,0.6475,-11.655,22.968,-28.648,39.784,eccentric,7,5.0,20792.0,403431.0,210686.0,67811.0,3972.0
2026-04-09 22:38:28.369669,544436,3238275321,3238277303,-1.253184,-0.044896,-0.060512,-13.60625,-0.02625,-8.65375,24.136002,-28.960001,40.104,eccentric,7,5.0,20792.0,403431.0,210686.0,67811.0,3972.0
2026-04-09 22:38:28.400952,544437,3238284288,3238286007,-1.253184,-0.044896,-0.060512,-17.0975,0.4025,-6.6675,24.136002,-28.960001,40.104,eccentric,7,5.0,20792.0,403431.0,210686.0,67811.0,3972.0
2026-04-09 22:38:28.405288,544438,3238298875,3238300875,-1.245376,-0.007808,-0.01952,-16.09125,0.0,-5.90625,23.928001,-28.216002,40.24,eccentric,7,5.0,20792.0,403431.0,210686.0,67811.0,3972.0
2026-04-09 22:38:28.406887,544439,3238307795,3238309601,-1.245376,-0.007808,-0.01952,-12.005,-0.14875,-5.15375,23.928001,-28.216002,40.24,eccentric,7,5.0,20792.0,403431.0,210686.0,67811.0,3972.0
2026-04-09 22:38:28.412642,544440,3238316804,3238318363,-1.22,-0.013664,-0.011712,-7.28875,-0.035,-4.2525,22.712002,-28.608002,41.192,eccentric,7,5.0,20792.0,403431.0,210686.0,67811.0,3972.0
2026-04-09 22:38:28.441137,544441,3238331312,3238333268,-1.22,-0.013664,-0.011712,-5.81875,0.14875,-3.3425,22.712002,-28.608002,41.192,eccentric,7,5.0,20792.0,403431.0,210686.0,67811.0,3972.0
2026-04-09 22:38:28.445619,544442,3238340247,3238341967,-1.24928,0.02928,-0.052704,-4.76875,0.42875,-2.2225,23.336,-28.176,39.832,eccentric,7,5.0,20792.0,403431.0,210686.0,67811.0,3972.0
2026-04-09 22:38:28.472175,544453,3238349200,3238350710,-1.24928,0.02928,-0.052704,-3.28125,0.28,-2.10875,23.336,-28.176,39.832,eccentric,7,5.0,20645.0,403431.0,214085.0,70321.0,4586.0
2026-04-09 22:38:28.474685,544454,3238358150,3238359479,-1.262944,0.031232,-0.072224,-4.26125,0.13125,-3.10625,23.544,-28.296001,40.88,eccentric,7,5.0,20645.0,403431.0,214085.0,70321.0,4586.0
2026-04-09 22:38:28.477214,544455,3238372751,3238374416,-1.262944,0.031232,-0.072224,-6.0375,0.3675,-3.3075,23.544,-28.296001,40.88,eccentric,7,5.0,20645.0,403431.0,214085.0,70321.0,4586.0
2026-04-09 22:38:28.479733,544456,3238381839,3238383128,-1.221952,-0.015616,-0.031232,-9.7825,0.21875,-3.325,23.504002,-28.136002,40.704002,eccentric,7,5.0,20645.0,403431.0,214085.0,70321.0,4586.0
2026-04-09 22:38:28.484727,544457,3238390822,3238391907,-1.221952,-0.015616,-0.031232,-9.948751,-0.04375,-2.7125,23.504002,-28.136002,40.704002,eccentric,7,5.0,20645.0,403431.0,214085.0,70321.0,4586.0
2026-04-09 22:38:28.544963,544458,3238405314,3238406814,-1.19072,-0.031232,-0.035136,-8.015,-1.32125,-2.10875,22.976002,-28.216002,40.608,eccentric,7,5.0,20645.0,403431.0,214085.0,70321.0,4586.0
2026-04-09 22:38:28.548494,544459,3238414226,3238415504,-1.243424,0.001952,-0.052704,-4.9,-0.95375,-1.14625,22.84,-28.568,39.976,eccentric,7,5.0,20645.0,403431.0,214085.0,70321.0,4586.0
2026-04-09 22:38:28.550938,544460,3238423176,3238424229,-1.243424,0.001952,-0.052704,-0.95375,-0.28,1.0325,22.84,-28.568,39.976,eccentric,7,5.0,20645.0,403431.0,214085.0,70321.0,4586.0
2026-04-09 22:38:28.553432,544461,3238437665,3238439119,-1.212192,-0.001952,-0.03904,-1.7325,-0.70875,2.42375,23.072,-27.640001,40.728,eccentric,7,5.0,20645.0,403431.0,214085.0,70321.0,4586.0
2026-04-09 22:38:28.578463,544471,3238446730,3238447838,-1.212192,-0.001952,-0.03904,-2.58125,-0.25375,3.045,23.072,-27.640001,40.728,eccentric,7,5.0,20573.0,403431.0,215764.0,71605.0,4932.0
2026-04-09 22:38:28.580950,544472,3238455729,3238456536,-1.186816,0.015616,-0.044896,-2.19625,0.3325,4.235,22.944,-28.184002,41.008003,eccentric,7,5.0,20573.0,403431.0,215764.0,71605.0,4932.0
2026-04-09 22:38:28.583428,544473,3238464693,3238465311,-1.186816,0.015616,-0.044896,-1.61,1.225,4.9175,22.944,-28.184002,41.008003,eccentric,7,5.0,20573.0,403431.0,215764.0,71605.0,4932.0
2026-04-09 22:38:28.586009,544474,3238479788,3238480279,-1.167296,0.044896,-0.044896,0.14,0.9275,4.83,21.704,-28.264002,42.000004,eccentric,7,5.0,20573.0,403431.0,215764.0,71605.0,4932.0
2026-04-09 22:38:28.588493,544475,3238489224,3238491056,-1.167296,0.044896,-0.044896,2.51125,0.7175,4.2175,21.704,-28.264002,42.000004,eccentric,7,5.0,20573.0,403431.0,215764.0,71605.0,4932.0
2026-04-09 22:38:28.592329,544476,3238498185,3238499740,-1.159488,0.056608,-0.033184,2.8875,1.2075,2.8525,21.544,-28.336,42.064003,eccentric,7,5.0,20573.0,403431.0,215764.0,71605.0,4932.0
2026-04-09 22:38:28.622368,544477,3238507108,3238508457,-1.159488,0.056608,-0.033184,3.4125,1.95125,2.0125,21.544,-28.336,42.064003,eccentric,7,5.0,20573.0,403431.0,215764.0,71605.0,4932.0
2026-04-09 22:38:28.625993,544478,3238521566,3238523348,-1.163392,0.015616,-0.046848,0.79625,3.4825,1.5225,22.68,-28.832,40.688004,eccentric,7,5.0,20573.0,403431.0,215764.0,71605.0,4932.0
2026-04-09 22:38:28.628454,544479,3238530496,3238532052,-1.163392,0.015616,-0.046848,-2.135,3.96375,2.17875,22.68,-28.832,40.688004,eccentric,7,5.0,20573.0,403431.0,215764.0,71605.0,4932.0
2026-04-09 22:38:28.633544,544480,3238539453,3238540822,-1.165344,-0.00976,-0.07808,-3.00125,4.06875,2.94,21.984001,-28.936,41.08,eccentric,7,5.0,20573.0,403431.0,215764.0,71605.0,4932.0
2026-04-09 22:38:28.660897,544490,3238554172,3238555797,-1.165344,-0.00976,-0.060512,1.0675,3.605,3.885,21.984001,-28.936,41.08,eccentric,7,5.0,20471.0,403431.0,217312.0,72722.0,5284.0
2026-04-09 22:38:28.663452,544491,3238563294,3238564629,-1.173152,0.0488,-0.060512,8.4,2.0125,4.3225,21.080002,-28.432001,40.608,eccentric,7,5.0,20471.0,403431.0,217312.0,72722.0,5284.0
2026-04-09 22:38:28.667195,544492,3238572229,3238573406,-1.173152,0.0488,-0.060512,11.445,1.9075,4.7425,21.080002,-28.432001,40.608,eccentric,7,5.0,20471.0,403431.0,217312.0,72722.0,5284.0
2026-04-09 22:38:28.697479,544493,3238586710,3238588373,-1.1712,0.056608,-0.015616,10.35125,2.10875,5.005,21.408,-28.640001,40.760002,eccentric,7,5.0,20471.0,403431.0,217312.0,72722.0,5284.0
2026-04-09 22:38:28.701135,544494,3238595736,3238597087,-1.106784,0.01952,-0.013664,8.19,2.5725,4.80375,21.672,-27.752,39.328003,eccentric,7,5.0,20471.0,403431.0,217312.0,72722.0,5284.0
2026-04-09 22:38:28.712290,544495,3238604641,3238605776,-1.106784,0.01952,-0.013664,5.145,3.59625,4.62875,21.672,-27.752,39.328003,eccentric,7,5.0,20471.0,403431.0,217312.0,72722.0,5284.0
2026-04-09 22:38:28.714704,544496,3238619108,3238620705,-1.147776,0.035136,-0.07808,4.71625,3.47375,5.10125,21.584002,-28.960001,40.832,eccentric,7,5.0,20471.0,403431.0,217312.0,72722.0,5284.0
2026-04-09 22:38:28.744941,544497,3238628072,3238629402,-1.147776,0.035136,-0.07808,7.105,3.6575,6.51,21.584002,-28.960001,40.832,eccentric,7,5.0,20471.0,403431.0,217312.0,72722.0,5284.0
2026-04-09 22:38:28.749503,544498,3238636976,3238638077,-1.110688,0.03904,-0.081984,7.1225,3.15875,7.2275,20.752,-28.672,40.976,eccentric,7,5.0,20471.0,403431.0,217312.0,72722.0,5284.0
2026-04-09 22:38:28.777743,544509,3238646206,3238646828,-1.110688,0.03904,-0.081984,8.75875,2.24,7.735,20.752,-28.672,40.976,eccentric,7,5.0,20496.0,403431.0,217814.0,72951.0,5347.0
2026-04-09 22:38:28.779421,544510,3238661056,3238661796,-1.04432,0.064416,-0.021472,9.56375,1.00625,8.225,21.480001,-28.800001,41.288002,eccentric,7,5.0,20496.0,403431.0,217814.0,72951.0,5347.0
2026-04-09 22:38:28.781015,544511,3238670408,3238672570,-1.04432,0.064416,-0.021472,9.1875,1.33875,8.35625,21.480001,-28.800001,41.288002,eccentric,7,5.0,20496.0,403431.0,217814.0,72951.0,5347.0
2026-04-09 22:38:28.785325,544512,3238679351,3238681313,-1.059936,0.046848,-0.015616,7.9625,2.31,7.8575,20.352001,-29.128002,40.496002,eccentric,7,5.0,20496.0,403431.0,217814.0,72951.0,5347.0
2026-04-09 22:38:28.786816,544513,3238688289,3238690083,-1.059936,0.046848,-0.015616,5.39875,3.07125,7.7,20.352001,-29.128002,40.496002,eccentric,7,5.0,20496.0,403431.0,217814.0,72951.0,5347.0
2026-04-09 22:38:28.844542,544514,3238702765,3238705000,-1.05408,0.03904,-0.044896,6.13375,3.22875,7.63875,20.784,-28.728,41.088,eccentric,7,5.0,20496.0,403431.0,217814.0,72951.0,5347.0
2026-04-09 22:38:28.846910,544515,3238711698,3238713690,-1.05408,0.03904,-0.044896,7.65625,2.26625,7.21,20.784,-28.728,41.088,eccentric,7,5.0,20496.0,403431.0,217814.0,72951.0,5347.0
2026-04-09 22:38:28.851460,544516,3238720625,3238722407,-1.022848,0.054656,-0.074176,9.72125,0.7525,7.16625,19.968,-29.52,41.048,eccentric,7,5.0,20496.0,403431.0,217814.0,72951.0,5347.0
2026-04-09 22:38:28.853195,544517,3238735118,3238737333,-1.001376,0.046848,-0.040992,12.18875,0.105,7.97125,19.968,-29.52,40.856003,eccentric,7,5.0,20496.0,403431.0,217814.0,72951.0,5347.0
2026-04-09 22:38:28.877337,544527,3238744031,3238746078,-1.001376,0.046848,-0.040992,10.99,-0.41125,7.83125,20.0,-28.880001,40.856003,eccentric,7,5.0,20654.0,403431.0,215699.0,71107.0,4817.0
2026-04-09 22:38:28.888836,544528,3238753500,3238754797,-1.001376,0.046848,-0.040992,10.395,-0.28875,7.14875,20.0,-28.880001,40.856003,eccentric,7,5.0,20654.0,403431.0,215699.0,71107.0,4817.0
2026-04-09 22:38:28.907816,544529,3238768108,3238769859,-0.989664,0.08784,0.027328,11.62875,0.9275,6.23,19.416,-29.400002,40.440002,eccentric,7,5.0,20654.0,403431.0,215699.0,71107.0,4817.0
2026-04-09 22:38:28.909449,544530,3238777036,3238778693,-0.968192,0.0976,0.005856,12.39,2.03875,3.99875,18.784,-29.176,41.920002,eccentric,7,5.0,20654.0,403431.0,215699.0,71107.0,4817.0
2026-04-09 22:38:28.911079,544531,3238786016,3238787413,-0.968192,0.0976,0.005856,11.480001,2.59,2.7475,18.784,-29.176,41.920002,eccentric,7,5.0,20654.0,403431.0,215699.0,71107.0,4817.0
2026-04-09 22:38:28.915240,544532,3238794953,3238796099,-0.968192,0.0976,-0.037088,9.8525,3.15,1.09375,18.784,-29.176,41.920002,eccentric,7,5.0,20654.0,403431.0,215699.0,71107.0,4817.0
2026-04-09 22:38:28.916945,544533,3238809413,3238811027,-0.952576,0.046848,-0.037088,10.955,2.5375,-0.18375,19.656,-29.096,36.448,eccentric,7,5.0,20654.0,403431.0,215699.0,71107.0,4817.0
2026-04-09 22:38:28.919277,544534,3238818320,3238819711,-0.94672,0.044896,-0.052704,14.9275,1.54875,-1.19875,19.496,-29.160002,41.512,eccentric,7,5.0,20654.0,403431.0,215699.0,71107.0,4817.0
2026-04-09 22:38:28.923951,544535,3238827346,3238828423,-0.94672,0.044896,-0.052704,17.928751,0.90125,-1.9075,19.496,-29.160002,41.512,eccentric,7,5.0,20654.0,403431.0,215699.0,71107.0,4817.0
2026-04-09 22:38:28.954894,544536,3238841807,3238843376,-0.93696,0.060512,0.005856,16.52875,1.37375,-1.77625,18.232,-29.016,41.624,eccentric,7,5.0,20654.0,403431.0,215699.0,71107.0,4817.0
2026-04-09 22:38:28.980908,544546,3238850819,3238852147,-0.93696,0.060512,0.005856,12.635,2.31,-1.09375,18.232,-29.016,41.624,eccentric,7,5.0,20804.0,403431.0,213340.0,68981.0,4314.0
2026-04-09 22:38:28.983484,544547,3238859787,3238860852,-0.93696,0.089792,0.025376,8.28625,3.4825,-0.4725,18.872002,-29.792002,40.224003,eccentric,7,5.0,20804.0,403431.0,213340.0,68981.0,4314.0
2026-04-09 22:38:28.985897,544548,3238874300,3238875788,-0.93696,0.089792,0.025376,5.4075,4.025,0.07875,18.872002,-29.792002,40.224003,eccentric,7,5.0,20804.0,403431.0,213340.0,68981.0,4314.0
2026-04-09 22:38:28.988503,544549,3238883242,3238884568,-0.935008,0.0976,-0.040992,5.01375,4.48875,-0.9275,18.024,-29.224,41.592003,eccentric,7,5.0,20804.0,403431.0,213340.0,68981.0,4314.0
2026-04-09 22:38:28.990998,544550,3238892311,3238893313,-0.935008,0.0976,-0.040992,6.48375,4.3575,-2.05625,18.024,-29.224,41.592003,eccentric,7,5.0,20804.0,403431.0,213340.0,68981.0,4314.0
2026-04-09 22:38:29.021187,544551,3238906783,3238908265,-0.958432,0.060512,-0.06832,7.63875,3.57875,-1.435,18.048,-29.008001,41.576,eccentric,7,5.0,20804.0,403431.0,213340.0,68981.0,4314.0
2026-04-09 22:38:29.024693,544552,3238915681,3238916949,-0.958432,0.050752,-0.052704,8.30375,2.625,-1.63625,18.048,-29.008001,40.632004,eccentric,7,5.0,20804.0,403431.0,213340.0,68981.0,4314.0
2026-04-09 22:38:29.027219,544553,3238924633,3238925683,-0.964288,0.050752,-0.052704,10.2025,1.785,-1.98625,18.352001,-29.2,40.632004,eccentric,7,5.0,20804.0,403431.0,213340.0,68981.0,4314.0
2026-04-09 22:38:29.029789,544554,3238933581,3238934335,-0.964288,0.050752,-0.052704,11.40125,0.6125,-1.74125,18.352001,-29.2,40.632004,eccentric,7,5.0,20804.0,403431.0,213340.0,68981.0,4314.0
2026-04-09 22:38:29.085947,544565,3238949203,3238951353,-0.931104,0.0976,0.005856,11.66375,0.07875,-2.765,18.624,-29.496002,40.36,eccentric,7,5.0,21016.0,403431.0,210352.0,66353.0,3709.0
2026-04-09 22:38:29.088753,544566,3238958125,3238960125,-0.931104,0.122976,0.003904,10.08875,0.3675,-4.05125,18.832,-29.056002,40.696003,eccentric,7,5.0,21016.0,403431.0,210352.0,66353.0,3709.0
2026-04-09 22:38:29.090992,544567,3238967046,3238968768,-0.931104,0.122976,0.003904,8.575,0.77875,-5.43375,18.832,-29.056002,40.696003,eccentric,7,5.0,21016.0,403431.0,210352.0,66353.0,3709.0
2026-04-09 22:38:29.093445,544568,3238975961,3238977469,-1.009184,0.138592,-0.060512,8.95125,0.97125,-6.85125,18.832,-29.056002,41.504,eccentric,7,5.0,21016.0,403431.0,210352.0,66353.0,3709.0
2026-04-09 22:38:29.095943,544569,3238990481,3238992415,-1.011136,0.138592,-0.060512,10.94625,0.62125,-9.23125,17.512001,-28.976002,41.504,eccentric,7,5.0,21016.0,403431.0,210352.0,66353.0,3709.0
2026-04-09 22:38:29.098498,544570,3238999451,3239001115,-1.040416,0.113216,-0.037088,12.87125,0.455,-11.76,17.224,-29.048002,42.600002,eccentric,7,5.0,21016.0,403431.0,210352.0,66353.0,3709.0
2026-04-09 22:38:29.102223,544571,3239008416,3239009832,-1.040416,0.113216,-0.037088,13.895,0.8225,-13.7725,17.224,-29.048002,42.600002,eccentric,7,5.0,21016.0,403431.0,210352.0,66353.0,3709.0
2026-04-09 22:38:29.146198,544572,3239022928,3239024789,-0.964288,0.05856,0.033184,13.32625,-0.28,-14.525,18.728,-28.616001,40.128002,eccentric,7,5.0,21016.0,403431.0,210352.0,66353.0,3709.0
2026-04-09 22:38:29.149822,544573,3239031836,3239033494,-0.964288,0.05856,0.033184,10.84125,-2.2575,-14.84,18.728,-28.616001,40.128002,eccentric,7,5.0,21016.0,403431.0,210352.0,66353.0,3709.0
2026-04-09 22:38:29.152316,544574,3239040773,3239042182,-0.964288,0.054656,0.021472,11.7075,-3.08,-13.90375,18.552,-29.016,40.168003,eccentric,7,5.0,21016.0,403431.0,210352.0,66353.0,3709.0
2026-04-09 22:38:29.186541,544584,3239055403,3239057137,-0.964288,0.054656,0.021472,15.98625,-3.115,-13.0025,18.552,-29.016,40.168003,eccentric,7,5.0,21097.0,403431.0,209162.0,65189.0,3463.0
2026-04-09 22:38:29.189055,544585,3239064369,3239065849,-1.020896,0.060512,-0.017568,15.25125,-2.73,-10.9025,18.496,-29.12,41.408,eccentric,7,5.0,21097.0,403431.0,209162.0,65189.0,3463.0
2026-04-09 22:38:29.223402,544586,3239073308,3239074564,-1.020896,0.060512,-0.017568,13.83375,-2.84375,-7.20125,18.496,-29.12,41.408,eccentric,7,5.0,21097.0,403431.0,209162.0,65189.0,3463.0
2026-04-09 22:38:29.227804,544587,3239087865,3239089494,-1.003328,0.076128,-0.046848,11.68125,-2.59875,-4.99625,16.968,-29.2,41.376003,eccentric,7,5.0,21097.0,403431.0,209162.0,65189.0,3463.0
2026-04-09 22:38:29.229480,544588,3239096826,3239098262,-0.964288,0.044896,-0.021472,8.5575,-1.8375,-2.38,18.184,-29.304,37.648003,eccentric,7,5.0,21097.0,403431.0,209162.0,65189.0,3463.0
2026-04-09 22:38:29.231064,544589,3239105863,3239106981,-0.964288,0.044896,-0.021472,4.9,-1.3125,0.02625,18.184,-29.304,37.648003,eccentric,7,5.0,21097.0,403431.0,209162.0,65189.0,3463.0
2026-04-09 22:38:29.235274,544590,3239114779,3239115673,-0.964288,0.044896,-0.021472,4.66375,-1.4175,1.65375,18.184,-29.304,37.648003,eccentric,7,5.0,21097.0,403431.0,209162.0,65189.0,3463.0
2026-04-09 22:38:29.236986,544591,3239129310,3239130589,-0.94672,0.072224,0.040992,8.435,-1.8725,0.91,17.832,-29.008001,39.992,eccentric,7,5.0,21097.0,403431.0,209162.0,65189.0,3463.0
2026-04-09 22:38:29.238701,544592,3239138229,3239139305,-0.942816,0.085888,0.062464,14.16625,-2.72125,-0.56,17.392,-29.384,40.656002,eccentric,7,5.0,21097.0,403431.0,209162.0,65189.0,3463.0
2026-04-09 22:38:29.265291,544602,3239147718,3239148045,-0.942816,0.085888,0.062464,20.1075,-3.08,-1.61875,17.392,-29.384,40.656002,eccentric,7,5.0,21112.0,403431.0,209088.0,65109.0,3436.0
2026-04-09 22:38:29.266987,544603,3239157161,3239158917,-0.977952,0.085888,0.011712,17.115,-2.415,-0.8575,17.36,-28.560001,40.208,eccentric,7,5.0,21112.0,403431.0,209088.0,65109.0,3436.0
2026-04-09 22:38:29.269377,544604,3239171785,3239173928,-0.977952,0.085888,0.011712,10.7275,-1.09375,-0.20125,17.36,-28.560001,40.208,eccentric,7,5.0,21112.0,403431.0,209088.0,65109.0,3436.0
2026-04-09 22:38:29.299629,544605,3239180687,3239182637,-0.991616,0.076128,0.03904,5.8275,0.2975,-1.6625,17.384,-29.192001,40.784,eccentric,7,5.0,21112.0,403431.0,209088.0,65109.0,3436.0
2026-04-09 22:38:29.304060,544606,3239189665,3239191331,-0.991616,0.076128,0.03904,3.73625,0.385,-2.4325,17.384,-29.192001,40.784,eccentric,7,5.0,21112.0,403431.0,209088.0,65109.0,3436.0
2026-04-09 22:38:29.305701,544607,3239204189,3239206210,-0.942816,0.113216,0.099552,4.17375,0.28875,-3.5875,18.08,-29.352001,37.88,eccentric,7,5.0,21112.0,403431.0,209088.0,65109.0,3436.0
2026-04-09 22:38:29.307408,544608,3239213144,3239214983,-0.942816,0.113216,0.099552,3.42125,-0.7525,-4.36625,18.08,-29.352001,37.88,eccentric,7,5.0,21112.0,403431.0,209088.0,65109.0,3436.0
2026-04-09 22:38:29.338451,544609,3239222166,3239223699,-0.993568,0.0976,0.044896,1.295,-0.63,-5.5125,17.248001,-29.696001,41.128002,eccentric,7,5.0,21112.0,403431.0,209088.0,65109.0,3436.0
2026-04-09 22:38:29.342851,544610,3239236666,3239238608,-0.993568,0.066368,0.013664,-4.2,0.58625,-5.67875,17.248001,-29.696001,41.128002,eccentric,7,5.0,21112.0,403431.0,209088.0,65109.0,3436.0
2026-04-09 22:38:29.369435,544621,3239245597,3239247732,-1.052128,0.062464,0.013664,-9.065,0.3325,-5.1625,17.68,-28.968002,39.872,eccentric,7,5.0,21074.0,403431.0,209263.0,65098.0,3438.0
2026-04-09 22:38:29.371021,544622,3239254736,3239256577,-1.052128,0.062464,0.013664,-9.87,0.315,-5.145,17.68,-28.968002,39.872,eccentric,7,5.0,21074.0,403431.0,209263.0,65098.0,3438.0
2026-04-09 22:38:29.375221,544623,3239263695,3239265288,-1.0248,0.07808,0.052704,-9.87875,0.16625,-5.88,18.208,-29.000002,41.2,eccentric,7,5.0,21074.0,403431.0,209263.0,65098.0,3438.0
2026-04-09 22:38:29.377585,544624,3239278189,3239280231,-1.030656,0.121024,0.062464,-9.1175,-0.56,-6.09,18.152,-29.160002,39.472,eccentric,7,5.0,21074.0,403431.0,209263.0,65098.0,3438.0
2026-04-09 22:38:29.383845,544625,3239287206,3239288957,-1.030656,0.121024,0.062464,-9.31875,-0.91,-5.76625,18.152,-29.160002,39.472,eccentric,7,5.0,21074.0,403431.0,209263.0,65098.0,3438.0
2026-04-09 22:38:29.448498,544626,3239296130,3239297668,-1.030656,0.121024,0.062464,-11.095,-0.14875,-5.6175,18.152,-29.160002,39.472,eccentric,7,5.0,21074.0,403431.0,209263.0,65098.0,3438.0
2026-04-09 22:38:29.449906,544627,3239310628,3239312564,-1.106784,0.085888,-0.015616,-13.9475,0.35875,-5.4775,18.328001,-29.328001,41.448,eccentric,7,5.0,21074.0,403431.0,209263.0,65098.0,3438.0
2026-04-09 22:38:29.454541,544628,3239319579,3239321267,-1.089216,0.062464,-0.015616,-14.51625,-0.07,-4.50625,18.016,-28.880001,40.512,eccentric,7,5.0,21074.0,403431.0,209263.0,65098.0,3438.0
2026-04-09 22:38:29.456023,544629,3239328498,3239329948,-1.089216,0.062464,-0.015616,-13.85125,-0.0525,-2.75625,18.016,-28.880001,40.512,eccentric,7,5.0,21074.0,403431.0,209263.0,65098.0,3438.0
2026-04-09 22:38:29.460414,544630,3239343039,3239344851,-1.052128,0.113216,0.01952,-11.7775,0.0525,-2.00375,17.592001,-28.808,40.688004,eccentric,7,5.0,21074.0,403431.0,209263.0,65098.0,3438.0
2026-04-09 22:38:29.486044,544640,3239352053,3239353596,-1.052128,0.113216,0.01952,-9.2575,-0.41125,-1.5575,17.592001,-28.808,40.688004,eccentric,7,5.0,20952.0,403431.0,210919.0,66382.0,3703.0
2026-04-09 22:38:29.490744,544641,3239361008,3239362288,-1.057984,0.121024,0.025376,-8.96,-0.6125,-0.67375,18.592001,-28.912,40.808002,eccentric,7,5.0,20952.0,403431.0,210919.0,66382.0,3703.0
2026-04-09 22:38:29.492230,544642,3239375614,3239377197,-1.057984,0.121024,0.025376,-11.13875,-0.04375,-0.42875,18.592001,-28.912,40.808002,eccentric,7,5.0,20952.0,403431.0,210919.0,66382.0,3703.0
2026-04-09 22:38:29.494415,544643,3239384577,3239386001,-1.061888,0.103456,0.005856,-10.9725,0.90125,-1.12,17.768002,-29.456001,41.048,eccentric,7,5.0,20952.0,403431.0,210919.0,66382.0,3703.0
2026-04-09 22:38:29.495995,544644,3239393530,3239394734,-1.061888,0.103456,0.005856,-9.02125,1.16375,-0.98,17.768002,-29.456001,41.048,eccentric,7,5.0,20952.0,403431.0,210919.0,66382.0,3703.0
2026-04-09 22:38:29.500187,544645,3239402461,3239403422,-1.059936,0.095648,-0.01952,-8.4,1.58375,-0.69125,17.936,-29.136002,39.944,eccentric,7,5.0,20952.0,403431.0,210919.0,66382.0,3703.0
2026-04-09 22:38:29.528710,544646,3239416961,3239418381,-1.059936,0.095648,-0.01952,-7.875,1.72375,-0.67375,17.936,-29.136002,39.944,eccentric,7,5.0,20952.0,403431.0,210919.0,66382.0,3703.0
2026-04-09 22:38:29.533242,544647,3239425913,3239427072,-1.036512,0.08784,0.01952,-6.43125,1.86375,-0.175,17.808,-29.184002,41.496002,eccentric,7,5.0,20952.0,403431.0,210919.0,66382.0,3703.0
2026-04-09 22:38:29.535584,544648,3239434806,3239435755,-1.036512,0.08784,0.01952,-4.50625,1.96,0.0175,17.808,-29.184002,41.496002,eccentric,7,5.0,20952.0,403431.0,210919.0,66382.0,3703.0
2026-04-09 22:38:29.589542,544658,3239449739,3239451069,-1.030656,0.111264,0.031232,-2.47625,2.87,0.14875,17.312,-28.664001,41.312,eccentric,7,5.0,20912.0,403431.0,211545.0,66924.0,3815.0
2026-04-09 22:38:29.591100,544659,3239458812,3239459802,-1.03456,0.101504,-0.001952,-2.2225,3.57,-0.53375,17.480001,-28.848001,41.616,eccentric,7,5.0,20912.0,403431.0,211545.0,66924.0,3815.0
2026-04-09 22:38:29.595260,544660,3239467728,3239468507,-1.03456,0.101504,-0.001952,-1.4875,4.2,-0.735,17.480001,-28.848001,41.616,eccentric,7,5.0,20912.0,403431.0,211545.0,66924.0,3815.0
2026-04-09 22:38:29.597000,544661,3239477154,3239479288,-1.03456,0.101504,-0.001952,-1.82875,4.08625,-0.74375,17.480001,-28.848001,41.616,eccentric,7,5.0,20912.0,403431.0,211545.0,66924.0,3815.0
2026-04-09 22:38:29.598595,544662,3239491813,3239492149,-1.0248,0.081984,0.003904,-1.6275,4.47125,-0.595,16.928001,-28.872002,42.368004,eccentric,7,5.0,20912.0,403431.0,211545.0,66924.0,3815.0
2026-04-09 22:38:29.602640,544663,3239501035,3239502913,-1.042368,0.093696,0.011712,0.02625,4.41875,-0.25375,16.344,-28.904001,42.072002,eccentric,7,5.0,20912.0,403431.0,211545.0,66924.0,3815.0
2026-04-09 22:38:29.606401,544664,3239509953,3239511681,-1.042368,0.093696,0.011712,0.8925,4.55,-1.12875,16.344,-28.904001,42.072002,eccentric,7,5.0,20912.0,403431.0,211545.0,66924.0,3815.0
2026-04-09 22:38:29.635039,544665,3239524470,3239526590,-1.056032,0.08784,-0.005856,0.76125,4.97,-1.35625,17.416,-28.952002,41.376003,eccentric,7,5.0,20912.0,403431.0,211545.0,66924.0,3815.0
2026-04-09 22:38:29.639542,544666,3239533387,3239535264,-1.056032,0.08784,-0.005856,1.7325,4.4625,-1.96875,17.416,-28.952002,41.376003,eccentric,7,5.0,20912.0,403431.0,211545.0,66924.0,3815.0
2026-04-09 22:38:29.641047,544667,3239542312,3239544020,-1.052128,0.074176,0.00976,3.47375,3.815,-2.75625,17.544,-28.992,41.384003,eccentric,7,5.0,20912.0,403431.0,211545.0,66924.0,3815.0
2026-04-09 22:38:29.675284,544678,3239551334,3239552797,-1.052128,0.074176,0.00976,4.45375,3.47375,-3.17625,17.544,-28.992,41.384003,eccentric,7,5.0,20916.0,403431.0,211859.0,67243.0,3873.0
2026-04-09 22:38:29.677040,544679,3239565903,3239567780,-1.069696,0.095648,0.01952,5.25875,3.87625,-3.52625,16.872002,-29.192001,41.528004,eccentric,7,5.0,20916.0,403431.0,211859.0,67243.0,3873.0
2026-04-09 22:38:29.678598,544680,3239574983,3239576524,-1.069696,0.095648,0.01952,6.18625,4.41,-3.9375,16.872002,-29.192001,41.528004,eccentric,7,5.0,20916.0,403431.0,211859.0,67243.0,3873.0
2026-04-09 22:38:29.682598,544681,3239583996,3239585282,-1.077504,0.0976,0.031232,5.565,4.865,-4.19125,16.44,-28.960001,42.032,eccentric,7,5.0,20916.0,403431.0,211859.0,67243.0,3873.0
