pc_time,serial_num,sensor_ts,host_ts,ax,ay,az,gx,gy,gz,mx,my,mz,phase,rpe,weight_kg,ppg_a,ppg_b,ppg_c,ppg_d,ppg_e
2026-04-09 22:38:37.701496,546168,3247584272,3247585931,-1.081408,0.06832,-0.06832,-13.65,2.87,-4.55,20.192001,-27.888,41.104,concentric,7,5.0,20238.0,403431.0,220313.0,74910.0,5792.0
2026-04-09 22:38:37.733753,546178,3247598953,3247601101,-1.071648,0.06832,-0.06832,-14.95375,3.4475,-4.9875,20.240002,-27.424002,41.68,concentric,7,5.0,20174.0,403431.0,221600.0,75772.0,6061.0
2026-04-09 22:38:37.736309,546179,3247607897,3247609817,-1.071648,0.06832,-0.06832,-13.3175,3.955,-5.04875,20.240002,-27.424002,41.68,concentric,7,5.0,20174.0,403431.0,221600.0,75772.0,6061.0
2026-04-09 22:38:37.738816,546180,3247616863,3247618526,-1.077504,0.040992,-0.11712,-9.7125,3.73625,-5.31125,20.104,-27.512001,41.24,concentric,7,5.0,20174.0,403431.0,221600.0,75772.0,6061.0
2026-04-09 22:38:37.747728,546181,3247625973,3247627280,-1.077504,0.040992,-0.11712,-9.4675,3.4825,-5.24125,20.104,-27.512001,41.24,concentric,7,5.0,20174.0,403431.0,221600.0,75772.0,6061.0
2026-04-09 22:38:37.753838,546182,3247640548,3247642216,-1.036512,0.040992,-0.093696,-7.76125,2.87,-4.55,20.312,-27.920002,42.352,concentric,7,5.0,20174.0,403431.0,221600.0,75772.0,6061.0
2026-04-09 22:38:37.756259,546183,3247649499,3247650947,-1.032608,0.064416,-0.064416,-4.8825,2.56375,-4.22625,19.136002,-27.328001,41.304,concentric,7,5.0,20174.0,403431.0,221600.0,75772.0,6061.0
2026-04-09 22:38:37.758772,546184,3247658471,3247659669,-1.032608,0.064416,-0.064416,-3.4125,2.7825,-4.27,19.136002,-27.328001,41.304,concentric,7,5.0,20174.0,403431.0,221600.0,75772.0,6061.0
2026-04-09 22:38:37.789017,546185,3247673084,3247674568,-1.022848,0.064416,-0.060512,-3.52625,3.61375,-3.98125,20.176,-27.840002,41.496002,concentric,7,5.0,20174.0,403431.0,221600.0,75772.0,6061.0
2026-04-09 22:38:37.792591,546186,3247682007,3247683253,-1.022848,0.064416,-0.060512,-4.24375,4.24375,-3.91125,20.176,-27.840002,41.496002,concentric,7,5.0,20174.0,403431.0,221600.0,75772.0,6061.0
2026-04-09 22:38:37.795116,546187,3247690994,3247692017,-1.016992,0.064416,-0.074176,-4.3925,5.08375,-4.87375,20.224,-27.064001,41.304,concentric,7,5.0,20174.0,403431.0,221600.0,75772.0,6061.0
2026-04-09 22:38:37.858783,546198,3247705517,3247707036,-1.016992,0.064416,-0.074176,-2.4675,6.65875,-4.795,20.224,-27.064001,41.304,concentric,7,5.0,20169.0,403431.0,221610.0,75865.0,6096.0
2026-04-09 22:38:37.861256,546199,3247714462,3247715798,-1.01504,0.052704,-0.085888,-0.735,7.4375,-4.935,19.328001,-28.12,42.712,concentric,7,5.0,20169.0,403431.0,221610.0,75865.0,6096.0
2026-04-09 22:38:37.863838,546200,3247723451,3247724551,-1.01504,0.052704,-0.085888,0.60375,7.34125,-5.36375,19.328001,-28.12,42.712,concentric,7,5.0,20169.0,403431.0,221610.0,75865.0,6096.0
2026-04-09 22:38:37.866289,546201,3247732487,3247733294,-1.003328,0.064416,-0.076128,1.84625,7.21875,-5.67,20.088001,-27.384,41.544003,concentric,7,5.0,20169.0,403431.0,221610.0,75865.0,6096.0
2026-04-09 22:38:37.868798,546202,3247747071,3247748356,-1.003328,0.064416,-0.076128,2.38875,7.81375,-6.44875,20.088001,-27.384,41.544003,concentric,7,5.0,20169.0,403431.0,221610.0,75865.0,6096.0
2026-04-09 22:38:37.871318,546203,3247755987,3247757092,-1.003328,0.085888,-0.066368,2.7825,8.5575,-6.545,20.376001,-27.712002,41.512,concentric,7,5.0,20169.0,403431.0,221610.0,75865.0,6096.0
2026-04-09 22:38:37.873770,546204,3247764940,3247765789,-1.003328,0.085888,-0.066368,2.3625,9.45,-7.28875,20.376001,-27.712002,41.512,concentric,7,5.0,20169.0,403431.0,221610.0,75865.0,6096.0
2026-04-09 22:38:37.876263,546205,3247779460,3247780736,-1.007232,0.042944,-0.103456,-0.28,10.36875,-7.63875,20.104,-27.304,41.600002,concentric,7,5.0,20169.0,403431.0,221610.0,75865.0,6096.0
2026-04-09 22:38:37.908703,546206,3247788391,3247789490,-1.007232,0.042944,-0.103456,-0.06125,9.835,-7.6475,20.104,-27.304,41.600002,concentric,7,5.0,20169.0,403431.0,221610.0,75865.0,6096.0
2026-04-09 22:38:37.934053,546216,3247797679,3247798269,-1.028704,0.037088,-0.111264,2.70375,9.6075,-7.455,20.568,-27.544,40.912003,concentric,7,5.0,20141.0,403431.0,221578.0,75897.0,6119.0
2026-04-09 22:38:37.936360,546217,3247807183,3247809079,-1.028704,0.037088,-0.111264,6.23,9.17875,-7.28875,20.568,-27.544,40.912003,concentric,7,5.0,20141.0,403431.0,221578.0,75897.0,6119.0
2026-04-09 22:38:37.938830,546218,3247821706,3247823981,-1.028704,0.076128,-0.080032,8.1725,8.96,-7.28875,20.856,-27.664001,41.944,concentric,7,5.0,20141.0,403431.0,221578.0,75897.0,6119.0
2026-04-09 22:38:37.941343,546219,3247830766,3247832653,-1.016992,0.074176,-0.083936,8.365,9.1875,-7.9275,20.296001,-27.488,40.968002,concentric,7,5.0,20141.0,403431.0,221578.0,75897.0,6119.0
2026-04-09 22:38:37.943806,546220,3247839712,3247841409,-1.016992,0.074176,-0.083936,6.60625,9.695,-8.75,20.296001,-27.488,40.968002,concentric,7,5.0,20141.0,403431.0,221578.0,75897.0,6119.0
2026-04-09 22:38:37.974015,546221,3247854357,3247856309,-1.048224,0.052704,-0.103456,5.355,9.730001,-9.65125,20.224,-27.584002,40.72,concentric,7,5.0,20141.0,403431.0,221578.0,75897.0,6119.0
2026-04-09 22:38:37.977581,546222,3247863285,3247865012,-1.048224,0.052704,-0.103456,4.9175,10.47375,-10.63125,20.224,-27.584002,40.72,concentric,7,5.0,20141.0,403431.0,221578.0,75897.0,6119.0
2026-04-09 22:38:37.980064,546223,3247872232,3247873737,-1.056032,0.040992,-0.091744,7.11375,10.185,-11.042501,20.896002,-27.264002,41.08,concentric,7,5.0,20141.0,403431.0,221578.0,75897.0,6119.0
2026-04-09 22:38:37.982580,546224,3247886733,3247888658,-1.056032,0.040992,-0.091744,8.98625,9.87,-10.26375,20.896002,-27.264002,41.08,concentric,7,5.0,20141.0,403431.0,221578.0,75897.0,6119.0
2026-04-09 22:38:38.038848,546234,3247895721,3247897420,-1.057984,0.027328,-0.07808,10.99,8.75,-10.01875,20.04,-28.208002,42.184002,concentric,7,5.0,20064.0,403431.0,222310.0,76403.0,6281.0
2026-04-09 22:38:38.042516,546235,3247905032,3247906136,-1.057984,0.027328,-0.07808,12.145,8.21625,-9.45875,20.04,-28.208002,42.184002,concentric,7,5.0,20064.0,403431.0,222310.0,76403.0,6281.0
2026-04-09 22:38:38.044095,546236,3247913948,3247914818,-1.0736,0.064416,-0.122976,11.935,8.75875,-8.505,20.936,-27.560001,40.568,concentric,7,5.0,20064.0,403431.0,222310.0,76403.0,6281.0
2026-04-09 22:38:38.046737,546237,3247928547,3247929736,-1.0736,0.064416,-0.122976,12.95,9.23125,-8.9425,20.936,-27.560001,40.568,concentric,7,5.0,20064.0,403431.0,222310.0,76403.0,6281.0
2026-04-09 22:38:38.048755,546238,3247937485,3247938429,-1.079456,0.095648,-0.1464,16.28375,9.205,-10.26375,20.776001,-27.960001,40.344,concentric,7,5.0,20064.0,403431.0,222310.0,76403.0,6281.0
2026-04-09 22:38:38.051401,546239,3247946444,3247947202,-1.079456,0.095648,-0.1464,17.045,8.715,-11.27875,20.776001,-27.960001,40.344,concentric,7,5.0,20064.0,403431.0,222310.0,76403.0,6281.0
2026-04-09 22:38:38.057557,546240,3247961403,3247962224,-1.065792,0.050752,-0.124928,14.9625,8.855001,-12.08375,21.296001,-28.056002,41.784,concentric,7,5.0,20064.0,403431.0,222310.0,76403.0,6281.0
2026-04-09 22:38:38.089050,546241,3247970358,3247970940,-1.04432,-0.023424,-0.101504,11.76,7.735,-11.5675,21.296001,-27.384,41.296,concentric,7,5.0,20064.0,403431.0,222310.0,76403.0,6281.0
2026-04-09 22:38:38.092618,546242,3247979521,3247981690,-1.04432,-0.023424,-0.101504,8.96875,7.14875,-10.77125,20.76,-27.384,41.296,concentric,7,5.0,20064.0,403431.0,222310.0,76403.0,6281.0
2026-04-09 22:38:38.095228,546243,3247988453,3247990398,-1.04432,-0.023424,-0.101504,10.28125,6.9475,-10.0625,20.76,-27.384,41.296,concentric,7,5.0,20064.0,403431.0,222310.0,76403.0,6281.0
2026-04-09 22:38:38.186380,546254,3248003020,3248003381,-1.056032,0.066368,-0.10736,15.085,7.5425,-9.1525,21.6,-27.608002,39.744003,concentric,7,5.0,20037.0,403431.0,222465.0,76573.0,6336.0
2026-04-09 22:38:38.188754,546255,3248012266,3248014181,-1.056032,0.066368,-0.111264,18.48,8.1025,-9.2225,20.936,-27.608002,40.096,concentric,7,5.0,20037.0,403431.0,222465.0,76573.0,6336.0
2026-04-09 22:38:38.191548,546256,3248021242,3248022914,-1.056032,0.066368,-0.111264,16.84375,8.56625,-9.905,20.936,-27.608002,40.096,concentric,7,5.0,20037.0,403431.0,222465.0,76573.0,6336.0
2026-04-09 22:38:38.193836,546257,3248035908,3248038191,-1.032608,0.027328,-0.103456,14.00875,8.68875,-10.50875,21.264002,-27.640001,39.0,concentric,7,5.0,20037.0,403431.0,222465.0,76573.0,6336.0
2026-04-09 22:38:38.196354,546258,3248044821,3248046886,-1.032608,0.027328,-0.103456,12.41625,8.5925,-10.6225,21.264002,-27.640001,39.0,concentric,7,5.0,20037.0,403431.0,222465.0,76573.0,6336.0
2026-04-09 22:38:38.198893,546259,3248053730,3248055563,-1.020896,0.031232,-0.08784,11.3225,9.31,-10.40375,22.000002,-28.12,39.800003,concentric,7,5.0,20037.0,403431.0,222465.0,76573.0,6336.0
2026-04-09 22:38:38.201353,546260,3248062666,3248064264,-1.020896,0.031232,-0.08784,9.0475,9.30125,-10.24625,22.000002,-28.12,39.800003,concentric,7,5.0,20037.0,403431.0,222465.0,76573.0,6336.0
2026-04-09 22:38:38.204534,546261,3248077115,3248079139,-1.03456,0.037088,-0.105408,6.9825,9.0125,-10.21125,21.968,-27.920002,40.08,concentric,7,5.0,20037.0,403431.0,222465.0,76573.0,6336.0
2026-04-09 22:38:38.210085,546262,3248086086,3248087864,-1.03456,0.037088,-0.105408,5.73125,8.925,-10.08875,21.968,-27.920002,40.08,concentric,7,5.0,20037.0,403431.0,222465.0,76573.0,6336.0
2026-04-09 22:38:38.216416,546263,3248095005,3248096572,-1.038464,0.003904,-0.138592,5.7575,8.26,-11.095,21.616001,-27.968,39.936,concentric,7,5.0,20037.0,403431.0,222465.0,76573.0,6336.0
2026-04-09 22:38:38.257479,546273,3248109691,3248111574,-1.038464,0.003904,-0.138592,6.72,6.93,-11.235,21.616001,-27.968,39.936,concentric,7,5.0,20071.0,403431.0,221985.0,76428.0,6287.0
2026-04-09 22:38:38.260038,546274,3248118741,3248120309,-1.022848,0.001952,-0.089792,7.69125,5.95,-11.03375,21.28,-28.104002,41.704002,concentric,7,5.0,20071.0,403431.0,221985.0,76428.0,6287.0
2026-04-09 22:38:38.262663,546275,3248127629,3248129035,-1.022848,0.001952,-0.089792,7.665,5.57375,-10.255,21.28,-28.104002,41.704002,concentric,7,5.0,20071.0,403431.0,221985.0,76428.0,6287.0
2026-04-09 22:38:38.265066,546276,3248142132,3248144072,-1.032608,0.025376,-0.081984,4.2875,5.20625,-9.948751,21.656,-27.904001,39.456,concentric,7,5.0,20071.0,403431.0,221985.0,76428.0,6287.0
2026-04-09 22:38:38.267589,546277,3248151093,3248152894,-1.056032,0.023424,-0.11712,2.52,4.5675,-10.19375,21.656,-27.632002,41.816,concentric,7,5.0,20071.0,403431.0,221985.0,76428.0,6287.0
2026-04-09 22:38:38.270064,546278,3248160115,3248161629,-1.056032,0.023424,-0.11712,2.5025,3.94625,-11.05125,20.576,-27.632002,41.816,concentric,7,5.0,20071.0,403431.0,221985.0,76428.0,6287.0
2026-04-09 22:38:38.275056,546279,3248169170,3248170371,-1.056032,0.023424,-0.11712,2.2225,3.31625,-11.68125,20.576,-27.632002,41.816,concentric,7,5.0,20071.0,403431.0,221985.0,76428.0,6287.0
2026-04-09 22:38:38.282960,546280,3248183664,3248185293,-1.04432,0.003904,-0.13664,4.26125,1.91625,-12.32,21.776001,-28.224,41.352,concentric,7,5.0,20071.0,403431.0,221985.0,76428.0,6287.0
2026-04-09 22:38:38.287750,546281,3248192689,3248194042,-1.022848,0.023424,-0.091744,5.73125,0.86625,-13.2125,21.112001,-27.920002,39.368,concentric,7,5.0,20071.0,403431.0,221985.0,76428.0,6287.0
2026-04-09 22:38:38.315027,546291,3248201821,3248202811,-1.022848,0.023424,-0.091744,7.2625,0.315,-13.76375,21.112001,-27.920002,39.368,concentric,7,5.0,20236.0,403431.0,219699.0,74782.0,5779.0
2026-04-09 22:38:38.321301,546292,3248216337,3248217761,-1.011136,0.02928,-0.06832,6.7375,0.55125,-13.51,22.472,-27.704,39.640003,concentric,7,5.0,20236.0,403431.0,219699.0,74782.0,5779.0
2026-04-09 22:38:38.323826,546293,3248225240,3248226534,-1.011136,0.02928,-0.06832,3.395,0.58625,-14.385,22.472,-27.704,39.640003,concentric,7,5.0,20236.0,403431.0,219699.0,74782.0,5779.0
2026-04-09 22:38:38.328808,546294,3248234206,3248235323,-1.0248,0.003904,-0.124928,-0.14875,1.58375,-13.895,21.736002,-27.960001,40.464,concentric,7,5.0,20236.0,403431.0,219699.0,74782.0,5779.0
2026-04-09 22:38:38.361530,546295,3248248698,3248250294,-1.0248,0.003904,-0.124928,-0.8225,2.14375,-14.00875,21.736002,-27.960001,40.464,concentric,7,5.0,20236.0,403431.0,219699.0,74782.0,5779.0
2026-04-09 22:38:38.366356,546296,3248257583,3248258971,-1.050176,0.02928,-0.179584,2.0475,0.8925,-15.085,22.752,-27.264002,39.616,concentric,7,5.0,20236.0,403431.0,219699.0,74782.0,5779.0
2026-04-09 22:38:38.367956,546297,3248266480,3248267678,-1.050176,0.02928,-0.179584,6.41375,-0.13125,-15.6625,22.752,-27.264002,39.616,concentric,7,5.0,20236.0,403431.0,219699.0,74782.0,5779.0
2026-04-09 22:38:38.398771,546298,3248281101,3248282660,-1.061888,0.005856,-0.113216,8.33,-1.18125,-15.79375,22.928001,-26.776001,38.752003,concentric,7,5.0,20236.0,403431.0,219699.0,74782.0,5779.0
2026-04-09 22:38:38.401062,546299,3248290039,3248291358,-1.061888,0.005856,-0.113216,7.0525,-2.1,-15.79375,22.928001,-26.776001,38.752003,concentric,7,5.0,20236.0,403431.0,219699.0,74782.0,5779.0
2026-04-09 22:38:38.486030,546310,3248299488,3248300160,-1.016992,0.005856,-0.033184,6.85125,-2.47625,-15.39125,23.344002,-27.760002,38.992,concentric,7,5.0,20321.0,403431.0,218388.0,73669.0,5434.0
2026-04-09 22:38:38.487594,546311,3248308869,3248311052,-1.016992,0.005856,-0.033184,5.1975,-0.81375,-15.715,23.344002,-27.760002,38.992,concentric,7,5.0,20321.0,403431.0,218388.0,73669.0,5434.0
2026-04-09 22:38:38.491872,546312,3248323451,3248323933,-1.032608,0.02928,-0.07808,3.29875,1.63625,-15.47,22.272001,-27.728,40.496002,concentric,7,5.0,20321.0,403431.0,218388.0,73669.0,5434.0
2026-04-09 22:38:38.493562,546313,3248332798,3248334688,-1.038464,0.017568,-0.15616,1.88125,3.50875,-15.3475,23.216002,-27.28,37.920002,concentric,7,5.0,20321.0,403431.0,218388.0,73669.0,5434.0
2026-04-09 22:38:38.495256,546314,3248341737,3248343374,-1.038464,0.017568,-0.15616,-0.875,4.7425,-15.89875,23.216002,-27.28,37.920002,concentric,7,5.0,20321.0,403431.0,218388.0,73669.0,5434.0
2026-04-09 22:38:38.499362,546315,3248350642,3248352077,-1.038464,0.017568,-0.15616,-1.2775,4.69875,-15.155,23.216002,-27.28,37.920002,concentric,7,5.0,20321.0,403431.0,218388.0,73669.0,5434.0
2026-04-09 22:38:38.501050,546316,3248365152,3248366983,-1.050176,-0.005856,-0.177632,-0.14,3.08875,-14.48125,22.568,-27.44,41.000004,concentric,7,5.0,20321.0,403431.0,218388.0,73669.0,5434.0
2026-04-09 22:38:38.502835,546317,3248374096,3248375822,-1.016992,0.003904,-0.093696,2.2225,1.19,-14.37625,23.208,-27.536001,39.536003,concentric,7,5.0,20321.0,403431.0,218388.0,73669.0,5434.0
2026-04-09 22:38:38.511722,546318,3248383148,3248384603,-1.016992,0.003904,-0.093696,4.585,-0.6125,-13.09,23.208,-27.536001,39.536003,concentric,7,5.0,20321.0,403431.0,218388.0,73669.0,5434.0
2026-04-09 22:38:38.540924,546328,3248397659,3248399662,-1.016992,-0.001952,-0.095648,5.78375,-1.04125,-12.985,22.608002,-27.536001,40.336002,concentric,7,5.0,20309.0,403431.0,218168.0,73339.0,5338.0
2026-04-09 22:38:38.542340,546329,3248406655,3248408485,-1.016992,-0.001952,-0.095648,4.85625,-0.7525,-13.60625,22.608002,-27.536001,40.336002,concentric,7,5.0,20309.0,403431.0,218168.0,73339.0,5338.0
2026-04-09 22:38:38.544030,546330,3248415604,3248417204,-1.028704,0.011712,-0.124928,3.94625,-0.525,-13.48375,23.240002,-26.976002,40.800003,concentric,7,5.0,20309.0,403431.0,218168.0,73339.0,5338.0
2026-04-09 22:38:38.548141,546331,3248424630,3248425936,-1.028704,0.011712,-0.124928,6.51,-0.14,-12.005,23.240002,-26.976002,40.800003,concentric,7,5.0,20309.0,403431.0,218168.0,73339.0,5338.0
2026-04-09 22:38:38.549884,546332,3248439216,3248440923,-1.04432,-0.007808,-0.152256,5.0225,-0.3675,-11.55875,23.672,-27.400002,37.728,concentric,7,5.0,20309.0,403431.0,218168.0,73339.0,5338.0
2026-04-09 22:38:38.551527,546333,3248448154,3248449692,-1.04432,-0.007808,-0.152256,4.935,-0.4375,-10.43,23.672,-27.400002,37.728,concentric,7,5.0,20309.0,403431.0,218168.0,73339.0,5338.0
2026-04-09 22:38:38.555459,546334,3248457147,3248458444,-1.018944,-0.005856,-0.124928,7.48125,-1.11125,-9.730001,23.648,-27.688002,40.0,concentric,7,5.0,20309.0,403431.0,218168.0,73339.0,5338.0
2026-04-09 22:38:38.584040,546335,3248471695,3248473360,-1.018944,-0.005856,-0.11712,8.68875,-1.61,-9.26625,23.648,-27.688002,40.0,concentric,7,5.0,20309.0,403431.0,218168.0,73339.0,5338.0
2026-04-09 22:38:38.588552,546336,3248480588,3248482066,-1.0248,0.00976,-0.11712,8.1025,-1.39125,-8.14625,22.960001,-27.648,39.640003,concentric,7,5.0,20309.0,403431.0,218168.0,73339.0,5338.0
2026-04-09 22:38:38.590047,546337,3248489558,3248490782,-1.0248,0.00976,-0.11712,8.636251,-0.7,-8.54,22.960001,-27.648,39.640003,concentric,7,5.0,20309.0,403431.0,218168.0,73339.0,5338.0
2026-04-09 22:38:38.622266,546347,3248504168,3248506156,-1.032608,0.021472,-0.103456,10.63125,-0.58625,-9.38875,23.912,-27.224,39.592003,concentric,7,5.0,20336.0,403431.0,216791.0,72176.0,4997.0
2026-04-09 22:38:38.623873,546348,3248513208,3248514895,-1.042368,0.015616,-0.10736,10.4475,0.25375,-10.2025,21.984001,-27.416,40.352,concentric,7,5.0,20336.0,403431.0,216791.0,72176.0,4997.0
2026-04-09 22:38:38.628073,546349,3248522253,3248523641,-1.042368,0.015616,-0.10736,10.6575,1.18125,-10.59625,21.984001,-27.416,40.352,concentric,7,5.0,20336.0,403431.0,216791.0,72176.0,4997.0
2026-04-09 22:38:38.630548,546350,3248531237,3248532370,-1.042368,0.015616,-0.10736,11.19125,1.96,-11.2175,21.984001,-27.416,40.352,concentric,7,5.0,20336.0,403431.0,216791.0,72176.0,4997.0
2026-04-09 22:38:38.659022,546351,3248545743,3248547345,-1.030656,0.005856,-0.07808,11.025,2.6775,-10.57875,24.472002,-27.176,39.424004,concentric,7,5.0,20336.0,403431.0,216791.0,72176.0,4997.0
2026-04-09 22:38:38.663580,546352,3248554703,3248556045,-1.026752,0.007808,-0.128832,11.90875,3.05375,-9.56375,24.384,-26.944002,39.472,concentric,7,5.0,20336.0,403431.0,216791.0,72176.0,4997.0
2026-04-09 22:38:38.665094,546353,3248563622,3248564731,-1.026752,0.007808,-0.128832,10.045,3.745,-9.0125,24.384,-26.944002,39.472,concentric,7,5.0,20336.0,403431.0,216791.0,72176.0,4997.0
2026-04-09 22:38:38.696258,546354,3248578190,3248579653,-1.030656,0.025376,-0.144448,7.55125,4.27875,-9.1875,23.608002,-27.416,40.096,concentric,7,5.0,20336.0,403431.0,216791.0,72176.0,4997.0
2026-04-09 22:38:38.700656,546355,3248587112,3248588380,-1.030656,0.025376,-0.144448,9.21375,3.01875,-10.9375,23.608002,-27.416,40.096,concentric,7,5.0,20336.0,403431.0,216791.0,72176.0,4997.0
2026-04-09 22:38:38.702393,546356,3248596034,3248597100,-1.03456,-0.001952,-0.138592,11.76,1.35625,-12.55625,24.184002,-27.920002,39.296,concentric,7,5.0,20336.0,403431.0,216791.0,72176.0,4997.0
2026-04-09 22:38:38.763293,546367,3248610622,3248612365,-1.03456,-0.001952,-0.138592,10.59625,0.77,-12.08375,24.184002,-27.920002,39.296,concentric,7,5.0,20330.0,403431.0,216504.0,71940.0,4938.0
2026-04-09 22:38:38.765319,546368,3248619696,3248621131,-1.022848,-0.001952,-0.099552,7.84875,0.4725,-11.2875,24.312,-27.920002,40.920002,concentric,7,5.0,20330.0,403431.0,216504.0,71940.0,4938.0
2026-04-09 22:38:38.768265,546369,3248628816,3248629934,-1.022848,-0.001952,-0.099552,4.9525,1.47875,-10.8325,24.312,-27.920002,40.920002,concentric,7,5.0,20330.0,403431.0,216504.0,71940.0,4938.0
2026-04-09 22:38:38.769817,546370,3248637713,3248638661,-1.020896,0.021472,-0.093696,3.5175,2.9225,-10.31625,25.160002,-28.080002,38.608,concentric,7,5.0,20330.0,403431.0,216504.0,71940.0,4938.0
2026-04-09 22:38:38.771320,546371,3248652191,3248653610,-1.020896,0.021472,-0.171776,0.20125,3.45625,-9.555,25.160002,-28.080002,38.608,concentric,7,5.0,20330.0,403431.0,216504.0,71940.0,4938.0
2026-04-09 22:38:38.775579,546372,3248661264,3248662323,-1.056032,-0.042944,-0.158112,-4.41875,3.19375,-9.66875,24.768002,-27.568,37.392002,concentric,7,5.0,20330.0,403431.0,216504.0,71940.0,4938.0
2026-04-09 22:38:38.777237,546373,3248670280,3248671071,-1.056032,-0.042944,-0.158112,-3.6225,3.22875,-9.511251,24.768002,-27.568,37.392002,concentric,7,5.0,20330.0,403431.0,216504.0,71940.0,4938.0
2026-04-09 22:38:38.781765,546374,3248685323,3248686031,-1.06384,-0.044896,-0.142496,-1.505,2.75625,-8.65375,24.2,-27.6,40.032,concentric,7,5.0,20330.0,403431.0,216504.0,71940.0,4938.0
2026-04-09 22:38:38.810346,546375,3248694645,3248696842,-1.067744,-0.013664,-0.122976,5.03125,2.19625,-6.895,25.168001,-27.480001,38.2,concentric,7,5.0,20330.0,403431.0,216504.0,71940.0,4938.0
2026-04-09 22:38:38.841794,546385,3248704002,3248705568,-1.067744,-0.013664,-0.122976,7.02625,1.79375,-6.545,25.168001,-27.480001,38.2,concentric,7,5.0,20323.0,403431.0,216149.0,71725.0,4883.0
2026-04-09 22:38:38.845575,546386,3248713003,3248714301,-1.095072,-0.011712,-0.144448,6.83375,2.35375,-6.23,25.168001,-27.480001,37.280003,concentric,7,5.0,20323.0,403431.0,216149.0,71725.0,4883.0
2026-04-09 22:38:38.847537,546387,3248727470,3248729142,-1.095072,-0.011712,-0.144448,6.7025,2.7125,-6.74625,25.936,-27.160002,37.280003,concentric,7,5.0,20323.0,403431.0,216149.0,71725.0,4883.0
2026-04-09 22:38:38.849742,546388,3248736519,3248737879,-1.104832,-0.011712,-0.138592,6.62375,3.01,-7.56,24.736002,-27.856,40.384003,concentric,7,5.0,20323.0,403431.0,216149.0,71725.0,4883.0
2026-04-09 22:38:38.851305,546389,3248745444,3248746552,-1.104832,-0.011712,-0.138592,7.56875,3.40375,-8.1025,24.736002,-27.856,40.384003,concentric,7,5.0,20323.0,403431.0,216149.0,71725.0,4883.0
2026-04-09 22:38:38.857913,546390,3248759961,3248761509,-1.110688,-0.015616,-0.119072,7.455,3.43875,-7.49,24.912,-28.008001,41.488003,concentric,7,5.0,20323.0,403431.0,216149.0,71725.0,4883.0
2026-04-09 22:38:38.886546,546391,3248768934,3248770235,-1.110688,-0.015616,-0.119072,7.63,4.27,-6.3175,24.912,-28.008001,41.488003,concentric,7,5.0,20323.0,403431.0,216149.0,71725.0,4883.0
2026-04-09 22:38:38.890997,546392,3248777846,3248778977,-1.145824,-0.031232,-0.167872,7.90125,4.8125,-6.055,24.920002,-27.688002,39.392002,concentric,7,5.0,20323.0,403431.0,216149.0,71725.0,4883.0
2026-04-09 22:38:38.892551,546393,3248792332,3248793883,-1.145824,-0.031232,-0.167872,8.60125,4.47125,-5.8975,24.920002,-27.688002,39.392002,concentric,7,5.0,20323.0,403431.0,216149.0,71725.0,4883.0
2026-04-09 22:38:38.919270,546403,3248801377,3248802628,-1.155584,-0.037088,-0.17568,10.1325,3.15875,-5.59125,25.888,-27.856,38.544003,concentric,7,5.0,20319.0,403431.0,215833.0,71509.0,4810.0
2026-04-09 22:38:38.921331,546404,3248810424,3248811478,-1.155584,-0.037088,-0.17568,8.1025,1.82,-5.74,25.888,-27.856,38.544003,concentric,7,5.0,20319.0,403431.0,215833.0,71509.0,4810.0
2026-04-09 22:38:38.922632,546405,3248819379,3248820241,-1.149728,-0.060512,-0.105408,6.6325,1.60125,-5.03125,25.648,-27.832,38.68,concentric,7,5.0,20319.0,403431.0,215833.0,71509.0,4810.0
2026-04-09 22:38:38.953662,546406,3248833980,3248835140,-1.153632,-0.027328,-0.046848,8.09375,1.93375,-4.3925,25.936,-27.840002,37.704002,concentric,7,5.0,20319.0,403431.0,215833.0,71509.0,4810.0
2026-04-09 22:38:38.955986,546407,3248842876,3248843971,-1.153632,-0.027328,-0.046848,9.05625,3.59625,-3.85875,25.936,-27.840002,37.704002,concentric,7,5.0,20319.0,403431.0,215833.0,71509.0,4810.0
2026-04-09 22:38:38.960626,546408,3248851807,3248852671,-1.153632,-0.027328,-0.046848,7.06125,4.94375,-3.77125,25.936,-27.840002,37.704002,concentric,7,5.0,20319.0,403431.0,215833.0,71509.0,4810.0
2026-04-09 22:38:38.963077,546409,3248866298,3248867554,-1.13216,-0.013664,-0.085888,4.1825,6.27375,-3.08875,25.6,-27.752,37.944,concentric,7,5.0,20319.0,403431.0,215833.0,71509.0,4810.0
2026-04-09 22:38:38.991519,546410,3248875234,3248876324,-1.18096,-0.007808,-0.148352,0.21875,6.76375,-3.73625,25.912,-28.032001,39.368,concentric,7,5.0,20319.0,403431.0,215833.0,71509.0,4810.0
2026-04-09 22:38:38.996021,546411,3248884118,3248885054,-1.18096,-0.007808,-0.148352,-3.9375,6.53625,-4.2525,25.912,-28.032001,39.368,concentric,7,5.0,20319.0,403431.0,215833.0,71509.0,4810.0
2026-04-09 22:38:38.998599,546412,3248898631,3248899950,-1.179008,-0.050752,-0.169824,-7.0,4.36625,-4.64625,26.44,-28.112001,38.728,concentric,7,5.0,20319.0,403431.0,215833.0,71509.0,4810.0
2026-04-09 22:38:39.058914,546423,3248907673,3248908800,-1.179008,-0.050752,-0.169824,-10.0625,2.4675,-5.775,26.44,-28.112001,38.728,concentric,7,5.0,20351.0,403431.0,215679.0,71429.0,4790.0
2026-04-09 22:38:39.063204,546424,3248916613,3248917553,-1.128256,-0.076128,-0.093696,-10.01875,0.83125,-5.32875,26.392002,-27.912,39.472,concentric,7,5.0,20351.0,403431.0,215679.0,71429.0,4790.0
2026-04-09 22:38:39.064841,546425,3248925594,3248926344,-1.128256,-0.076128,-0.093696,-8.60125,-0.60375,-4.22625,26.392002,-27.912,39.472,concentric,7,5.0,20351.0,403431.0,215679.0,71429.0,4790.0
2026-04-09 22:38:39.066401,546426,3248940646,3248941314,-1.138016,-0.013664,-0.091744,-5.55625,-0.41125,-3.57,26.576002,-28.304,38.512,concentric,7,5.0,20351.0,403431.0,215679.0,71429.0,4790.0
2026-04-09 22:38:39.070620,546427,3248949906,3248952079,-1.138016,-0.013664,-0.091744,-2.59,2.00375,-3.5525,26.576002,-28.304,38.512,concentric,7,5.0,20351.0,403431.0,215679.0,71429.0,4790.0
2026-04-09 22:38:39.072391,546428,3248958819,3248960758,-1.163392,0.031232,-0.144448,-2.1175,3.71,-4.5675,26.352001,-28.144001,38.56,concentric,7,5.0,20351.0,403431.0,215679.0,71429.0,4790.0
2026-04-09 22:38:39.074210,546429,3248973343,3248973707,-1.163392,0.031232,-0.144448,-5.81,3.89375,-5.83625,26.352001,-28.144001,38.56,concentric,7,5.0,20351.0,403431.0,215679.0,71429.0,4790.0
2026-04-09 22:38:39.078903,546430,3248982620,3248984489,-1.153632,-0.015616,-0.16592,-11.7075,3.675,-6.53625,25.632002,-27.640001,38.544003,concentric,7,5.0,20351.0,403431.0,215679.0,71429.0,4790.0
2026-04-09 22:38:39.110060,546431,3248991621,3248993190,-1.153632,-0.015616,-0.16592,-14.67375,3.3075,-7.98875,25.632002,-27.640001,38.544003,concentric,7,5.0,20351.0,403431.0,215679.0,71429.0,4790.0
2026-04-09 22:38:39.112250,546432,3249000582,3249001882,-1.110688,-0.06832,-0.111264,-12.32,2.94,-8.435,26.672,-27.168001,38.872,concentric,7,5.0,20351.0,403431.0,215679.0,71429.0,4790.0
2026-04-09 22:38:39.155888,546442,3249015078,3249016865,-1.108736,-0.003904,-0.115168,-7.88375,2.695,-7.11375,26.624,-27.592001,38.952003,eccentric,7,5.0,20334.0,403431.0,215701.0,71461.0,4818.0
2026-04-09 22:38:39.161929,546443,3249024051,3249025582,-1.108736,-0.003904,-0.115168,-4.8475,2.8525,-6.64125,26.624,-27.592001,38.952003,eccentric,7,5.0,20334.0,403431.0,215701.0,71461.0,4818.0
2026-04-09 22:38:39.165024,546444,3249033058,3249034337,-1.108736,-0.003904,-0.115168,-5.8625,5.39875,-6.57125,26.624,-27.592001,38.952003,eccentric,7,5.0,20334.0,403431.0,215701.0,71461.0,4818.0
2026-04-09 22:38:39.165349,546445,3249047515,3249049261,-1.145824,0.033184,-0.16592,-8.51375,6.01125,-7.6825,25.848001,-27.656002,41.896004,eccentric,7,5.0,20334.0,403431.0,215701.0,71461.0,4818.0
2026-04-09 22:38:39.169704,546446,3249056406,3249058079,-1.169248,-0.074176,-0.193248,-11.165,4.80375,-9.31,27.000002,-28.184002,39.152,eccentric,7,5.0,20334.0,403431.0,215701.0,71461.0,4818.0
2026-04-09 22:38:39.171827,546447,3249065410,3249066800,-1.169248,-0.074176,-0.193248,-14.46375,4.3225,-9.26625,27.000002,-28.184002,39.152,eccentric,7,5.0,20334.0,403431.0,215701.0,71461.0,4818.0
2026-04-09 22:38:39.175906,546448,3249079906,3249081744,-1.157536,-0.07808,-0.105408,-12.0225,4.10375,-7.1925,26.104002,-27.760002,41.328003,eccentric,7,5.0,20334.0,403431.0,215701.0,71461.0,4818.0
2026-04-09 22:38:39.208753,546449,3249088857,3249090462,-1.157536,-0.07808,-0.105408,-5.5825,2.9925,-6.5625,26.104002,-27.760002,41.328003,eccentric,7,5.0,20334.0,403431.0,215701.0,71461.0,4818.0
2026-04-09 22:38:39.213266,546450,3249097848,3249099149,-1.126304,0.003904,-0.109312,-0.1575,1.7675,-5.81875,26.328001,-27.568,38.656002,eccentric,7,5.0,20334.0,403431.0,215701.0,71461.0,4818.0
2026-04-09 22:38:39.237292,546460,3249106862,3249107909,-1.126304,0.003904,-0.109312,1.14625,2.8,-3.59625,26.328001,-27.568,38.656002,eccentric,7,5.0,20227.0,403431.0,217039.0,72533.0,5114.0
2026-04-09 22:38:39.239369,546461,3249121369,3249122804,-1.206336,0.001952,-0.162016,-1.82875,4.7075,-3.85875,26.808,-26.856,37.904003,eccentric,7,5.0,20227.0,403431.0,217039.0,72533.0,5114.0
2026-04-09 22:38:39.243114,546462,3249130391,3249131537,-1.206336,0.001952,-0.162016,-6.755,5.5825,-4.85625,26.808,-26.856,37.904003,eccentric,7,5.0,20227.0,403431.0,217039.0,72533.0,5114.0
2026-04-09 22:38:39.245846,546463,3249139335,3249140338,-1.188768,-0.031232,-0.158112,-8.6275,5.74,-4.71625,26.408,-27.104002,38.920002,eccentric,7,5.0,20227.0,403431.0,217039.0,72533.0,5114.0
2026-04-09 22:38:39.250586,546464,3249153900,3249155297,-1.188768,-0.031232,-0.158112,-8.18125,5.25875,-4.80375,26.408,-27.104002,38.920002,eccentric,7,5.0,20227.0,403431.0,217039.0,72533.0,5114.0
2026-04-09 22:38:39.278988,546465,3249162866,3249164006,-1.143872,-0.044896,-0.113216,-4.6725,4.68125,-5.08375,26.808,-27.624,39.512,eccentric,7,5.0,20227.0,403431.0,217039.0,72533.0,5114.0
2026-04-09 22:38:39.282661,546466,3249171781,3249172700,-1.143872,-0.044896,-0.113216,-1.1725,4.34875,-5.20625,26.808,-27.624,39.512,eccentric,7,5.0,20227.0,403431.0,217039.0,72533.0,5114.0
2026-04-09 22:38:39.285908,546467,3249186267,3249187608,-1.198528,0.001952,-0.132736,2.345,4.6725,-4.71625,26.664001,-27.392002,38.904003,eccentric,7,5.0,20227.0,403431.0,217039.0,72533.0,5114.0
2026-04-09 22:38:39.291806,546468,3249195177,3249196313,-1.179008,0.0,-0.142496,-0.2625,5.80125,-4.8475,26.664001,-27.760002,40.784,eccentric,7,5.0,20227.0,403431.0,217039.0,72533.0,5114.0
2026-04-09 22:38:39.370174,546479,3249204642,3249205059,-1.179008,0.0,-0.142496,-4.47125,6.60625,-5.15375,25.840002,-27.760002,40.784,eccentric,7,5.0,20082.0,403431.0,219136.0,74168.0,5574.0
2026-04-09 22:38:39.374402,546480,3249213789,3249215995,-1.179008,0.0,-0.142496,-6.93875,7.0525,-6.57125,25.840002,-27.760002,40.784,eccentric,7,5.0,20082.0,403431.0,219136.0,74168.0,5574.0
2026-04-09 22:38:39.376455,546481,3249228271,3249228868,-1.22,-0.044896,-0.16592,-7.5425,5.9325,-6.685,26.752,-27.544,39.136,eccentric,7,5.0,20082.0,403431.0,219136.0,74168.0,5574.0
2026-04-09 22:38:39.378430,546482,3249237456,3249239617,-1.204384,-0.05856,-0.115168,-6.86875,5.48625,-4.9175,26.648,-28.392002,39.536003,eccentric,7,5.0,20082.0,403431.0,219136.0,74168.0,5574.0
2026-04-09 22:38:39.387359,546483,3249246366,3249248314,-1.204384,-0.05856,-0.115168,-3.75375,4.78625,-2.80875,26.648,-28.392002,39.536003,eccentric,7,5.0,20082.0,403431.0,219136.0,74168.0,5574.0
2026-04-09 22:38:39.388953,546484,3249260931,3249263220,-1.147776,0.003904,-0.122976,-1.1375,5.0925,-1.77625,27.2,-27.184002,38.968002,eccentric,7,5.0,20082.0,403431.0,219136.0,74168.0,5574.0
2026-04-09 22:38:39.395668,546485,3249269972,3249272004,-1.147776,0.003904,-0.122976,-0.23625,4.935,-1.53125,27.2,-27.184002,38.968002,eccentric,7,5.0,20082.0,403431.0,219136.0,74168.0,5574.0
2026-04-09 22:38:39.397297,546486,3249278925,3249280781,-1.188768,-0.00976,-0.154208,-1.1375,4.80375,-2.09125,26.672,-27.456001,39.248,eccentric,7,5.0,20082.0,403431.0,219136.0,74168.0,5574.0
2026-04-09 22:38:39.399552,546487,3249287901,3249289491,-1.188768,-0.00976,-0.154208,-1.365,4.9525,-3.64,26.672,-27.456001,39.248,eccentric,7,5.0,20082.0,403431.0,219136.0,74168.0,5574.0
2026-04-09 22:38:39.424053,546497,3249302412,3249304404,-1.196576,-0.037088,-0.138592,-1.295,4.80375,-4.4625,26.504002,-27.216002,39.168003,eccentric,7,5.0,20061.0,403431.0,219584.0,74592.0,5727.0
2026-04-09 22:38:39.428204,546498,3249311585,3249313220,-1.196576,-0.037088,-0.138592,0.315,3.12375,-3.78875,26.504002,-27.216002,39.168003,eccentric,7,5.0,20061.0,403431.0,219584.0,74592.0,5727.0
2026-04-09 22:38:39.465036,546499,3249320688,3249321999,-1.173152,-0.013664,-0.122976,2.05625,2.1175,-3.815,26.128002,-27.232,40.056004,eccentric,7,5.0,20061.0,403431.0,219584.0,74592.0,5727.0
2026-04-09 22:38:39.467292,546500,3249335223,3249336916,-1.173152,-0.013664,-0.134688,1.155,1.91625,-3.50875,26.128002,-27.232,40.056004,eccentric,7,5.0,20061.0,403431.0,219584.0,74592.0,5727.0
2026-04-09 22:38:39.471882,546501,3249344158,3249345604,-1.22,-0.015616,-0.134688,0.0875,2.10875,-2.59,25.856,-27.192001,38.88,eccentric,7,5.0,20061.0,403431.0,219584.0,74592.0,5727.0
2026-04-09 22:38:39.473645,546502,3249353117,3249354344,-1.22,-0.015616,-0.134688,-0.28875,1.75875,-2.9225,25.856,-27.192001,38.88,eccentric,7,5.0,20061.0,403431.0,219584.0,74592.0,5727.0
2026-04-09 22:38:39.475222,546503,3249362041,3249363090,-1.184864,-0.025376,-0.111264,0.27125,0.69125,-2.52875,26.424002,-27.544,39.56,eccentric,7,5.0,20061.0,403431.0,219584.0,74592.0,5727.0
2026-04-09 22:38:39.479335,546504,3249376520,3249377974,-1.1712,-0.007808,-0.11712,2.80875,0.23625,-2.24,26.320002,-27.880001,39.760002,eccentric,7,5.0,20061.0,403431.0,219584.0,74592.0,5727.0
2026-04-09 22:38:39.484321,546505,3249385454,3249386722,-1.1712,-0.007808,-0.11712,4.34,0.56875,-2.40625,26.320002,-27.880001,39.760002,eccentric,7,5.0,20061.0,403431.0,219584.0,74592.0,5727.0
2026-04-09 22:38:39.511589,546506,3249394363,3249395454,-1.1712,-0.007808,-0.11712,1.51375,1.54875,-2.79125,26.320002,-27.880001,39.760002,eccentric,7,5.0,20061.0,403431.0,219584.0,74592.0,5727.0
2026-04-09 22:38:39.538639,546516,3249409017,3249410430,-1.218048,-0.007808,-0.130784,-1.3825,1.96875,-3.10625,25.688002,-27.536001,40.24,eccentric,7,5.0,20007.0,403431.0,220537.0,75339.0,5943.0
2026-04-09 22:38:39.540341,546517,3249418017,3249419133,-1.186816,0.0,-0.121024,-1.75875,2.205,-3.50875,26.240002,-27.432001,39.208,eccentric,7,5.0,20007.0,403431.0,220537.0,75339.0,5943.0
2026-04-09 22:38:39.544536,546518,3249427036,3249427814,-1.186816,0.0,-0.121024,-1.04125,1.925,-3.6925,26.240002,-27.432001,39.208,eccentric,7,5.0,20007.0,403431.0,220537.0,75339.0,5943.0
2026-04-09 22:38:39.546087,546519,3249441601,3249442740,-1.155584,-0.033184,-0.099552,1.085,0.90125,-3.78,26.208002,-27.376001,39.472,eccentric,7,5.0,20007.0,403431.0,220537.0,75339.0,5943.0
2026-04-09 22:38:39.548524,546520,3249450646,3249451544,-1.155584,-0.033184,-0.099552,2.3975,0.21875,-3.955,26.208002,-27.376001,39.472,eccentric,7,5.0,20007.0,403431.0,220537.0,75339.0,5943.0
2026-04-09 22:38:39.580014,546521,3249460233,3249462320,-1.173152,-0.017568,-0.13664,2.3275,-0.46375,-3.08,25.856,-27.752,39.56,eccentric,7,5.0,20007.0,403431.0,220537.0,75339.0,5943.0
2026-04-09 22:38:39.584406,546522,3249469149,3249471007,-1.173152,-0.017568,-0.13664,2.135,-0.98,-2.26625,25.856,-27.752,39.56,eccentric,7,5.0,20007.0,403431.0,220537.0,75339.0,5943.0
2026-04-09 22:38:39.586086,546523,3249483634,3249485883,-1.16144,0.0,-0.128832,2.065,-1.085,-1.855,25.744001,-27.760002,39.648003,eccentric,7,5.0,20007.0,403431.0,220537.0,75339.0,5943.0
2026-04-09 22:38:39.588002,546524,3249492584,3249494639,-1.16144,0.0,-0.128832,-0.1225,-1.6275,-1.645,25.744001,-27.760002,39.648003,eccentric,7,5.0,20007.0,403431.0,220537.0,75339.0,5943.0
2026-04-09 22:38:39.643917,546525,3249501572,3249503349,-1.159488,-0.023424,-0.124928,-0.37625,-2.16125,-2.2225,25.768002,-27.384,39.776,eccentric,7,5.0,20007.0,403431.0,220537.0,75339.0,5943.0
2026-04-09 22:38:39.676050,546535,3249516169,3249518280,-1.157536,-0.044896,-0.115168,-0.6825,-1.9775,-2.28375,25.768002,-27.384,38.456,eccentric,7,5.0,19983.0,403431.0,221200.0,75863.0,6091.0
2026-04-09 22:38:39.677660,546536,3249525105,3249526971,-1.157536,-0.044896,-0.115168,0.49,-3.21125,-0.93625,25.672,-27.288002,38.456,eccentric,7,5.0,19983.0,403431.0,221200.0,75863.0,6091.0
2026-04-09 22:38:39.681981,546537,3249534031,3249535660,-1.157536,-0.044896,-0.115168,2.28375,-3.78875,0.93625,25.672,-27.288002,38.456,eccentric,7,5.0,19983.0,403431.0,221200.0,75863.0,6091.0
2026-04-09 22:38:39.683607,546538,3249548547,3249550590,-1.116544,0.00976,-0.099552,5.73125,-4.17375,1.00625,25.232,-27.656002,38.088,eccentric,7,5.0,19983.0,403431.0,221200.0,75863.0,6091.0
2026-04-09 22:38:39.685168,546539,3249557475,3249559301,-1.114592,-0.003904,-0.121024,4.1475,-3.8325,0.8575,24.232,-27.328001,40.888,eccentric,7,5.0,19983.0,403431.0,221200.0,75863.0,6091.0
2026-04-09 22:38:39.689441,546540,3249566480,3249568058,-1.114592,-0.003904,-0.121024,1.19875,-3.05375,0.98875,24.232,-27.328001,40.888,eccentric,7,5.0,19983.0,403431.0,221200.0,75863.0,6091.0
2026-04-09 22:38:39.691094,546541,3249575415,3249576788,-1.114592,-0.003904,-0.121024,1.04125,-2.40625,0.34125,24.232,-27.328001,40.888,eccentric,7,5.0,19983.0,403431.0,221200.0,75863.0,6091.0
2026-04-09 22:38:39.692665,546542,3249589947,3249591764,-1.118496,-0.001952,-0.13664,3.28125,-2.66,-0.84,24.584002,-27.248001,41.016003,eccentric,7,5.0,19983.0,403431.0,221200.0,75863.0,6091.0
2026-04-09 22:38:39.700752,546543,3249598958,3249600484,-1.097024,0.0,-0.103456,5.45125,-3.08,-1.225,24.152,-27.760002,41.232002,eccentric,7,5.0,19983.0,403431.0,221200.0,75863.0,6091.0
2026-04-09 22:38:39.731132,546554,3249608036,3249609238,-1.097024,0.0,-0.103456,4.6725,-2.765,-0.9275,24.152,-27.760002,41.232002,eccentric,7,5.0,19992.0,403431.0,221026.0,75706.0,6056.0
2026-04-09 22:38:39.732716,546555,3249622582,3249624217,-1.071648,-0.025376,-0.095648,3.57875,-2.8525,-0.035,24.000002,-27.44,40.36,eccentric,7,5.0,19992.0,403431.0,221026.0,75706.0,6056.0
2026-04-09 22:38:39.736892,546556,3249631558,3249632954,-1.071648,-0.025376,-0.095648,3.1675,-2.835,0.39375,24.000002,-27.44,40.36,eccentric,7,5.0,19992.0,403431.0,221026.0,75706.0,6056.0
2026-04-09 22:38:39.739324,546557,3249640482,3249641718,-1.091168,0.011712,-0.109312,2.65125,-2.0475,0.77875,23.856,-27.576002,41.168003,eccentric,7,5.0,19992.0,403431.0,221026.0,75706.0,6056.0
2026-04-09 22:38:39.770064,546558,3249654976,3249656642,-1.091168,0.011712,-0.109312,4.13,-1.19875,1.32125,23.856,-27.576002,41.168003,eccentric,7,5.0,19992.0,403431.0,221026.0,75706.0,6056.0
2026-04-09 22:38:39.774429,546559,3249663899,3249665374,-1.104832,-0.003904,-0.148352,4.375,-0.91875,0.98875,24.800001,-27.36,39.984,eccentric,7,5.0,19992.0,403431.0,221026.0,75706.0,6056.0
2026-04-09 22:38:39.776081,546560,3249672824,3249674091,-1.104832,-0.003904,-0.148352,2.695,-1.1725,1.56625,24.800001,-27.36,39.984,eccentric,7,5.0,19992.0,403431.0,221026.0,75706.0,6056.0
2026-04-09 22:38:39.777694,546561,3249681740,3249682836,-1.087264,-0.017568,-0.13664,2.17,-1.39125,2.485,24.400002,-27.688002,40.024002,eccentric,7,5.0,19992.0,403431.0,221026.0,75706.0,6056.0
2026-04-09 22:38:39.808793,546562,3249696198,3249697732,-1.087264,-0.017568,-0.13664,4.34875,-1.6275,2.5725,24.400002,-27.688002,40.024002,eccentric,7,5.0,19992.0,403431.0,221026.0,75706.0,6056.0
2026-04-09 22:38:39.833941,546572,3249705126,3249706744,-1.100928,0.023424,-0.109312,8.42625,-1.37375,2.8525,24.288002,-27.512001,40.640003,eccentric,7,5.0,20011.0,403431.0,220722.0,75386.0,5956.0
2026-04-09 22:38:39.838178,546573,3249714054,3249715414,-1.100928,0.023424,-0.109312,8.40875,-1.51375,2.96625,24.288002,-27.512001,40.640003,eccentric,7,5.0,20011.0,403431.0,220722.0,75386.0,5956.0
2026-04-09 22:38:39.839883,546574,3249728549,3249730364,-1.10288,0.0488,-0.103456,8.015,-1.085,1.645,24.424002,-27.552002,40.112003,eccentric,7,5.0,20011.0,403431.0,220722.0,75386.0,5956.0
2026-04-09 22:38:39.841616,546575,3249737465,3249739084,-1.085312,0.031232,-0.111264,6.02,-0.21,-0.56,24.024002,-28.296001,40.408,eccentric,7,5.0,20011.0,403431.0,220722.0,75386.0,5956.0
2026-04-09 22:38:39.844789,546576,3249746392,3249747817,-1.085312,0.031232,-0.111264,4.34875,0.7175,-1.6975,24.024002,-28.296001,40.408,eccentric,7,5.0,20011.0,403431.0,220722.0,75386.0,5956.0
2026-04-09 22:38:39.876560,546577,3249760889,3249762752,-1.077504,-0.00976,-0.115168,2.66,0.69125,-2.35375,23.720001,-27.816002,39.760002,eccentric,7,5.0,20011.0,403431.0,220722.0,75386.0,5956.0
2026-04-09 22:38:39.879569,546578,3249769780,3249771462,-1.077504,-0.00976,-0.115168,2.23125,0.8575,-2.59,23.720001,-27.816002,39.760002,eccentric,7,5.0,20011.0,403431.0,220722.0,75386.0,5956.0
2026-04-09 22:38:39.880752,546579,3249778697,3249780167,-1.079456,0.017568,-0.121024,3.52625,1.575,-1.9425,23.6,-28.2,38.624,eccentric,7,5.0,20011.0,403431.0,220722.0,75386.0,5956.0
2026-04-09 22:38:39.912829,546580,3249793210,3249795061,-1.079456,0.017568,-0.121024,3.92,1.225,-1.44375,23.6,-28.2,38.624,eccentric,7,5.0,20011.0,403431.0,220722.0,75386.0,5956.0
2026-04-09 22:38:39.914897,546581,3249802159,3249803815,-1.040416,0.01952,-0.128832,5.03125,0.46375,-1.49625,22.800001,-27.664001,40.384003,eccentric,7,5.0,20011.0,403431.0,220722.0,75386.0,5956.0
2026-04-09 22:38:39.976403,546591,3249811220,3249812536,-1.040416,0.01952,-0.128832,4.5675,0.455,-0.98,22.800001,-27.664001,40.384003,eccentric,7,5.0,20072.0,403431.0,220035.0,74940.0,5834.0
2026-04-09 22:38:39.980719,546592,3249820171,3249821222,-1.050176,0.023424,-0.122976,2.975,1.155,-0.91,22.920002,-27.896002,40.280003,eccentric,7,5.0,20072.0,403431.0,220035.0,74940.0,5834.0
2026-04-09 22:38:39.982340,546593,3249834643,3249836183,-1.050176,0.023424,-0.122976,2.16125,0.98,-0.00875,22.920002,-27.896002,40.280003,eccentric,7,5.0,20072.0,403431.0,220035.0,74940.0,5834.0
2026-04-09 22:38:39.984873,546594,3249843698,3249844916,-1.042368,0.011712,-0.081984,3.0625,0.56875,-0.06125,22.688002,-27.912,40.008003,eccentric,7,5.0,20072.0,403431.0,220035.0,74940.0,5834.0
2026-04-09 22:38:39.988143,546595,3249852573,3249853651,-1.042368,0.011712,-0.081984,3.14125,0.76125,-0.8225,22.688002,-27.912,40.008003,eccentric,7,5.0,20072.0,403431.0,220035.0,74940.0,5834.0
2026-04-09 22:38:39.989910,546596,3249867034,3249868565,-1.036512,0.017568,-0.101504,3.4475,1.2075,-1.11125,23.240002,-27.568,40.024002,eccentric,7,5.0,20072.0,403431.0,220035.0,74940.0,5834.0
2026-04-09 22:38:39.992433,546597,3249875928,3249877253,-1.036512,0.017568,-0.101504,4.90875,1.98625,-1.995,23.240002,-27.568,40.024002,eccentric,7,5.0,20072.0,403431.0,220035.0,74940.0,5834.0
2026-04-09 22:38:39.994764,546598,3249884873,3249885946,-1.085312,0.052704,-0.11712,7.0175,3.00125,-1.7675,23.328001,-28.320002,38.304,eccentric,7,5.0,20072.0,403431.0,220035.0,74940.0,5834.0
2026-04-09 22:38:39.996378,546599,3249899369,3249900892,-1.046272,0.021472,-0.119072,5.94125,3.4475,-1.81125,22.712002,-27.760002,42.064003,eccentric,7,5.0,20072.0,403431.0,220035.0,74940.0,5834.0
2026-04-09 22:38:40.029840,546610,3249908578,3249909945,-1.046272,0.021472,-0.119072,3.45625,3.33375,-1.91625,22.712002,-27.760002,42.064003,eccentric,7,5.0,20078.0,403431.0,220070.0,75027.0,5862.0
2026-04-09 22:38:40.031403,546611,3249917575,3249918700,-1.030656,0.0,-0.08784,2.44125,3.6225,-1.1375,22.712002,-27.760002,42.768,eccentric,7,5.0,20078.0,403431.0,220070.0,75027.0,5862.0
2026-04-09 22:38:40.035676,546612,3249932121,3249933632,-1.020896,0.0,-0.08784,1.84625,3.68375,-0.72625,21.736002,-28.056002,42.768,eccentric,7,5.0,20078.0,403431.0,220070.0,75027.0,5862.0
2026-04-09 22:38:40.038684,546613,3249941142,3249942360,-1.042368,0.027328,-0.103456,2.38,4.2525,-0.77875,21.576,-28.112001,41.032,eccentric,7,5.0,20078.0,403431.0,220070.0,75027.0,5862.0
2026-04-09 22:38:40.066588,546614,3249950118,3249951059,-1.042368,0.027328,-0.103456,3.675,4.83,-0.65625,21.576,-28.112001,41.032,eccentric,7,5.0,20078.0,403431.0,220070.0,75027.0,5862.0
2026-04-09 22:38:40.071128,546615,3249959035,3249959750,-1.007232,0.035136,-0.093696,3.59625,4.97875,-1.12,22.68,-28.192001,40.792004,eccentric,7,5.0,20078.0,403431.0,220070.0,75027.0,5862.0
2026-04-09 22:38:40.073416,546616,3249973984,3249974716,-1.007232,0.035136,-0.093696,3.68375,5.39,-0.84875,22.68,-28.192001,40.792004,eccentric,7,5.0,20078.0,403431.0,220070.0,75027.0,5862.0
2026-04-09 22:38:40.080550,546617,3249983357,3249985504,-1.009184,0.035136,-0.109312,1.4875,5.8625,-1.1025,22.504002,-27.752,39.968002,eccentric,7,5.0,20078.0,403431.0,220070.0,75027.0,5862.0
2026-04-09 22:38:40.109106,546618,3249992329,3249994206,-1.009184,0.035136,-0.109312,1.93375,6.3875,-2.555,22.504002,-27.752,39.968002,eccentric,7,5.0,20078.0,403431.0,220070.0,75027.0,5862.0
2026-04-09 22:38:40.113662,546619,3250001252,3250002899,-1.036512,0.050752,-0.101504,4.36625,6.57125,-3.08875,22.176,-27.992,39.504,eccentric,7,5.0,20078.0,403431.0,220070.0,75027.0,5862.0
2026-04-09 22:38:40.137665,546629,3250015755,3250017846,-1.036512,0.050752,-0.101504,5.17125,6.23875,-3.43875,22.176,-27.992,39.504,eccentric,7,5.0,20117.0,403431.0,219814.0,74714.0,5756.0
2026-04-09 22:38:40.141932,546630,3250024724,3250026593,-1.020896,0.013664,-0.111264,4.85625,5.38125,-4.7075,22.096,-28.144001,40.512,eccentric,7,5.0,20117.0,403431.0,219814.0,74714.0,5756.0
2026-04-09 22:38:40.143668,546631,3250033660,3250035305,-1.020896,0.013664,-0.111264,4.7775,5.355,-4.3225,22.096,-28.144001,40.512,eccentric,7,5.0,20117.0,403431.0,219814.0,74714.0,5756.0
2026-04-09 22:38:40.145242,546632,3250048256,3250050256,-1.020896,0.021472,-0.0976,4.48875,5.71375,-3.5,21.944,-28.104002,40.160004,eccentric,7,5.0,20117.0,403431.0,219814.0,74714.0,5756.0
2026-04-09 22:38:40.154427,546633,3250057198,3250058933,-1.020896,0.021472,-0.0976,5.215,6.15125,-3.43,21.944,-28.104002,40.160004,eccentric,7,5.0,20117.0,403431.0,219814.0,74714.0,5756.0
2026-04-09 22:38:40.182841,546634,3250066106,3250067646,-1.022848,0.062464,-0.072224,6.83375,6.32625,-4.27,21.720001,-27.824001,40.312,eccentric,7,5.0,20117.0,403431.0,219814.0,74714.0,5756.0
2026-04-09 22:38:40.187374,546635,3250080600,3250082547,-1.036512,0.003904,-0.128832,6.9125,6.62375,-4.52375,22.056002,-27.632002,40.440002,eccentric,7,5.0,20117.0,403431.0,219814.0,74714.0,5756.0
2026-04-09 22:38:40.188857,546636,3250089529,3250091229,-1.036512,0.003904,-0.128832,5.11875,5.7575,-4.1125,22.056002,-27.632002,40.440002,eccentric,7,5.0,20117.0,403431.0,219814.0,74714.0,5756.0
2026-04-09 22:38:40.196804,546637,3250098463,3250099926,-1.01504,-0.007808,-0.101504,2.33625,4.90875,-2.03,22.056002,-27.760002,41.856003,eccentric,7,5.0,20117.0,403431.0,219814.0,74714.0,5756.0
2026-04-09 22:38:40.227676,546647,3250113083,3250115214,-1.01504,-0.007808,-0.101504,3.40375,4.08625,-0.4025,19.880001,-27.760002,41.856003,eccentric,7,5.0,20162.0,403431.0,219389.0,74388.0,5650.0
2026-04-09 22:38:40.231932,546648,3250122158,3250123942,-0.98576,0.044896,-0.062464,6.02,4.27875,0.2625,19.768002,-27.960001,41.304,eccentric,7,5.0,20162.0,403431.0,219389.0,74388.0,5650.0
2026-04-09 22:38:40.234708,546649,3250131143,3250132642,-0.98576,0.044896,-0.062464,7.39375,4.9175,1.2075,19.768002,-27.960001,41.304,eccentric,7,5.0,20162.0,403431.0,219389.0,74388.0,5650.0
2026-04-09 22:38:40.267558,546650,3250140087,3250141374,-0.989664,0.066368,-0.070272,6.23875,4.8825,1.3125,21.776001,-27.416,39.096,eccentric,7,5.0,20162.0,403431.0,219389.0,74388.0,5650.0
2026-04-09 22:38:40.270184,546651,3250154609,3250156327,-0.989664,0.066368,-0.070272,7.035,4.69,0.69125,21.776001,-27.416,39.096,eccentric,7,5.0,20162.0,403431.0,219389.0,74388.0,5650.0
2026-04-09 22:38:40.278791,546652,3250163523,3250165048,-0.981856,0.035136,-0.093696,6.65,4.2875,-0.25375,21.136002,-28.04,39.824,eccentric,7,5.0,20162.0,403431.0,219389.0,74388.0,5650.0
2026-04-09 22:38:40.280194,546653,3250172499,3250173760,-0.981856,0.035136,-0.093696,5.25,3.7625,-0.72625,21.136002,-28.04,39.824,eccentric,7,5.0,20162.0,403431.0,219389.0,74388.0,5650.0
2026-04-09 22:38:40.286706,546654,3250187041,3250188699,-0.981856,0.017568,-0.08784,6.23,3.08,-0.69125,21.344002,-27.608002,39.872,eccentric,7,5.0,20162.0,403431.0,219389.0,74388.0,5650.0
2026-04-09 22:38:40.314170,546655,3250196044,3250197414,-0.981856,0.017568,-0.08784,5.8975,2.98375,-0.665,21.344002,-27.608002,39.872,eccentric,7,5.0,20162.0,403431.0,219389.0,74388.0,5650.0
2026-04-09 22:38:40.318704,546656,3250205020,3250206153,-0.979904,0.023424,-0.072224,5.52125,2.275,0.28,21.096,-28.176,41.136,eccentric,7,5.0,20162.0,403431.0,219389.0,74388.0,5650.0
2026-04-09 22:38:40.352425,546667,3250219530,3250221114,-0.972096,0.081984,-0.03904,7.455,2.21375,0.8225,21.392,-27.616001,40.496002,eccentric,7,5.0,20141.0,403431.0,220024.0,74852.0,5798.0
2026-04-09 22:38:40.353970,546668,3250228471,3250229853,-0.972096,0.081984,-0.03904,9.61625,2.23125,0.34125,21.392,-27.616001,40.496002,eccentric,7,5.0,20141.0,403431.0,220024.0,74852.0,5798.0
2026-04-09 22:38:40.358180,546669,3250237483,3250238615,-0.972096,0.081984,-0.03904,9.8175,2.37125,-0.42,21.392,-27.616001,40.496002,eccentric,7,5.0,20141.0,403431.0,220024.0,74852.0,5798.0
2026-04-09 22:38:40.359920,546670,3250246482,3250247358,-0.993568,0.060512,-0.08784,6.895,2.89625,-1.77625,20.368,-27.680002,41.000004,eccentric,7,5.0,20141.0,403431.0,220024.0,74852.0,5798.0
2026-04-09 22:38:40.362656,546671,3250261032,3250262262,-1.030656,-0.007808,-0.08784,1.61875,2.72125,-2.24875,20.208,-27.672,40.328003,eccentric,7,5.0,20141.0,403431.0,220024.0,74852.0,5798.0
2026-04-09 22:38:40.366912,546672,3250269996,3250271092,-1.030656,-0.007808,-0.08784,-3.40375,2.10875,-1.54,20.208,-27.672,40.328003,eccentric,7,5.0,20141.0,403431.0,220024.0,74852.0,5798.0
2026-04-09 22:38:40.395394,546673,3250278956,3250279777,-1.030656,0.050752,-0.015616,-2.03875,0.84,-1.015,20.208,-27.672,40.328003,eccentric,7,5.0,20141.0,403431.0,220024.0,74852.0,5798.0
2026-04-09 22:38:40.399887,546674,3250293456,3250294699,-1.028704,0.050752,-0.015616,1.5925,-0.49875,-0.8925,20.320002,-27.880001,40.480003,eccentric,7,5.0,20141.0,403431.0,220024.0,74852.0,5798.0
2026-04-09 22:38:40.401387,546675,3250302387,3250303494,-0.993568,0.072224,-0.017568,3.56125,-1.35625,-0.9975,21.112001,-27.848001,39.600002,eccentric,7,5.0,20141.0,403431.0,220024.0,74852.0,5798.0
2026-04-09 22:38:40.427424,546685,3250311685,3250312271,-0.993568,0.072224,-0.017568,-0.14,-1.3825,-1.4175,21.112001,-27.848001,39.600002,eccentric,7,5.0,20069.0,403431.0,221269.0,75532.0,6002.0
2026-04-09 22:38:40.428966,546686,3250321231,3250323158,-1.00528,0.046848,-0.044896,-7.49875,-0.525,-2.0125,20.504002,-27.744001,40.368,eccentric,7,5.0,20069.0,403431.0,221269.0,75532.0,6002.0
2026-04-09 22:38:40.432315,546687,3250335758,3250336092,-1.00528,0.046848,-0.044896,-11.6025,0.02625,-2.73875,20.504002,-27.744001,40.368,eccentric,7,5.0,20069.0,403431.0,221269.0,75532.0,6002.0
2026-04-09 22:38:40.462539,546688,3250345012,3250346874,-1.011136,0.031232,-0.06832,-13.6325,-0.0875,-3.3425,20.496,-28.016,40.480003,eccentric,7,5.0,20069.0,403431.0,221269.0,75532.0,6002.0
2026-04-09 22:38:40.467013,546689,3250353947,3250355563,-1.011136,0.031232,-0.06832,-17.1325,-0.48125,-3.185,20.496,-28.016,40.480003,eccentric,7,5.0,20069.0,403431.0,221269.0,75532.0,6002.0
2026-04-09 22:38:40.468515,546690,3250368452,3250370440,-0.976,0.027328,-0.0488,-20.92125,-1.1375,-2.40625,20.6,-27.968,40.728,eccentric,7,5.0,20069.0,403431.0,221269.0,75532.0,6002.0
2026-04-09 22:38:40.474283,546691,3250377398,3250379210,-0.976,0.027328,-0.0488,-22.56625,-2.42375,-2.52,20.6,-27.968,40.728,eccentric,7,5.0,20069.0,403431.0,221269.0,75532.0,6002.0
2026-04-09 22:38:40.502868,546692,3250386327,3250387906,-0.999424,0.044896,-0.060512,-20.20375,-2.38875,-3.29,19.512001,-27.488,44.168003,eccentric,7,5.0,20069.0,403431.0,221269.0,75532.0,6002.0
2026-04-09 22:38:40.507404,546693,3250400816,3250402750,-0.991616,0.052704,-0.089792,-17.22875,-2.66,-4.19125,20.824001,-27.272001,42.648003,eccentric,7,5.0,20069.0,403431.0,221269.0,75532.0,6002.0
2026-04-09 22:38:40.533343,546703,3250410305,3250411540,-0.991616,0.052704,-0.089792,-17.85875,-2.87875,-2.80875,20.824001,-27.272001,42.648003,eccentric,7,5.0,20054.0,403431.0,220987.0,75119.0,5877.0
2026-04-09 22:38:40.570086,546704,3250419392,3250420451,-0.991616,0.037088,-0.076128,-19.25875,-3.0625,-1.4875,20.824001,-27.272001,42.648003,eccentric,7,5.0,20054.0,403431.0,220987.0,75119.0,5877.0
2026-04-09 22:38:40.572339,546705,3250428323,3250429191,-0.962336,0.042944,-0.076128,-20.30875,-2.6425,-2.38,20.368,-27.232,41.216003,eccentric,7,5.0,20054.0,403431.0,220987.0,75119.0,5877.0
2026-04-09 22:38:40.576998,546706,3250442842,3250444133,-0.977952,0.064416,-0.072224,-20.65875,-2.9225,-3.08875,20.152,-27.176,41.36,eccentric,7,5.0,20054.0,403431.0,220987.0,75119.0,5877.0
2026-04-09 22:38:40.578666,546707,3250451861,3250452810,-0.977952,0.064416,-0.072224,-20.6325,-1.98625,-2.87875,20.152,-27.176,41.36,eccentric,7,5.0,20054.0,403431.0,220987.0,75119.0,5877.0
2026-04-09 22:38:40.580255,546708,3250460773,3250461549,-0.99552,0.02928,-0.10736,-18.57625,-1.365,-3.75375,20.088001,-27.128002,41.696003,eccentric,7,5.0,20054.0,403431.0,220987.0,75119.0,5877.0
2026-04-09 22:38:40.584474,546709,3250470230,3250472340,-0.99552,0.02928,-0.10736,-17.3075,-1.33,-4.1825,20.088001,-27.128002,41.696003,eccentric,7,5.0,20054.0,403431.0,220987.0,75119.0,5877.0
2026-04-09 22:38:40.586050,546710,3250484791,3250485194,-0.958432,0.0488,-0.056608,-15.72375,-0.98,-3.255,19.768002,-26.880001,41.648003,eccentric,7,5.0,20054.0,403431.0,220987.0,75119.0,5877.0
2026-04-09 22:38:40.590544,546711,3250494065,3250495944,-0.958432,0.0488,-0.056608,-10.43875,-0.79625,-3.8675,19.768002,-26.880001,41.648003,eccentric,7,5.0,20054.0,403431.0,220987.0,75119.0,5877.0
2026-04-09 22:38:40.619159,546712,3250503011,3250504670,-0.964288,0.091744,-0.035136,-7.3675,0.315,-5.41625,20.232,-27.232,41.848003,eccentric,7,5.0,20054.0,403431.0,220987.0,75119.0,5877.0
2026-04-09 22:38:40.647593,546723,3250517568,3250519602,-0.964288,0.091744,-0.035136,-6.0025,1.2425,-6.71125,20.232,-27.232,41.848003,eccentric,7,5.0,20072.0,403431.0,220631.0,74904.0,5801.0
2026-04-09 22:38:40.650091,546724,3250526497,3250528273,-0.997472,0.060512,-0.105408,-6.8425,2.77375,-7.62125,20.464,-27.288002,42.2,eccentric,7,5.0,20072.0,403431.0,220631.0,74904.0,5801.0
2026-04-09 22:38:40.652632,546725,3250535468,3250537057,-0.997472,0.060512,-0.105408,-10.52625,3.1675,-7.34125,20.464,-27.288002,42.2,eccentric,7,5.0,20072.0,403431.0,220631.0,74904.0,5801.0
2026-04-09 22:38:40.655130,546726,3250549992,3250551993,-0.964288,0.01952,-0.076128,-11.4275,3.0275,-6.37875,19.432001,-27.240002,43.032,eccentric,7,5.0,20072.0,403431.0,220631.0,74904.0,5801.0
2026-04-09 22:38:40.657601,546727,3250559015,3250560756,-0.964288,0.01952,-0.076128,-7.5075,2.86125,-6.29125,19.432001,-27.240002,43.032,eccentric,7,5.0,20072.0,403431.0,220631.0,74904.0,5801.0
2026-04-09 22:38:40.663877,546728,3250567945,3250569478,-0.972096,0.056608,-0.062464,-1.6975,3.43,-6.65,19.368,-27.000002,43.168003,eccentric,7,5.0,20072.0,403431.0,220631.0,74904.0,5801.0
2026-04-09 22:38:40.694662,546729,3250576852,3250578195,-0.972096,0.056608,-0.062464,2.02125,3.8675,-7.0,19.368,-27.000002,43.168003,eccentric,7,5.0,20072.0,403431.0,220631.0,74904.0,5801.0
2026-04-09 22:38:40.698150,546730,3250591347,3250593107,-0.987712,0.113216,-0.07808,3.91125,5.11,-6.72,20.072,-26.6,42.08,eccentric,7,5.0,20072.0,403431.0,220631.0,74904.0,5801.0
2026-04-09 22:38:40.700147,546731,3250600258,3250601826,-1.030656,0.052704,-0.113216,2.52875,6.4225,-7.5775,20.072,-28.648,42.304,eccentric,7,5.0,20072.0,403431.0,220631.0,74904.0,5801.0
2026-04-09 22:38:40.705123,546732,3250609165,3250610515,-1.030656,0.052704,-0.113216,-0.72625,7.2975,-8.54875,20.080002,-27.216002,42.304,eccentric,7,5.0,20072.0,403431.0,220631.0,74904.0,5801.0
