pc_time,serial_num,sensor_ts,host_ts,ax,ay,az,gx,gy,gz,mx,my,mz,phase,rpe,weight_kg,ppg_a,ppg_b,ppg_c,ppg_d,ppg_e
2026-04-09 22:38:43.663396,547285,3253529578,3253529955,-0.991616,0.07808,-0.0488,7.77875,3.9025,-5.81,20.552,-28.368002,38.888,concentric,7,5.0,19677.0,403431.0,226963.0,79834.0,7447.0
2026-04-09 22:38:43.667404,547286,3253538931,3253540777,-1.020896,0.070272,-0.0488,6.755,4.97,-5.73125,19.912,-28.264002,39.784,concentric,7,5.0,19677.0,403431.0,226963.0,79834.0,7447.0
2026-04-09 22:38:43.668817,547287,3253553514,3253555778,-1.022848,0.042944,-0.064416,5.66125,5.20625,-4.33125,19.104,-28.28,41.032,concentric,7,5.0,19677.0,403431.0,226963.0,79834.0,7447.0
2026-04-09 22:38:43.672058,547288,3253562572,3253564530,-1.022848,0.042944,-0.064416,6.34375,4.80375,-4.62,19.104,-28.28,41.032,concentric,7,5.0,19677.0,403431.0,226963.0,79834.0,7447.0
2026-04-09 22:38:43.677471,547289,3253571573,3253573276,-1.046272,0.076128,-0.081984,8.68,5.075,-5.11,19.104,-28.232002,40.736,concentric,7,5.0,19677.0,403431.0,226963.0,79834.0,7447.0
2026-04-09 22:38:43.677554,547290,3253580537,3253582040,-1.046272,0.076128,-0.081984,9.4325,4.85625,-5.15375,19.720001,-28.232002,40.736,concentric,7,5.0,19677.0,403431.0,226963.0,79834.0,7447.0
2026-04-09 22:38:43.709437,547291,3253595095,3253596969,-1.0736,0.027328,-0.072224,7.88375,4.9875,-5.0575,19.376001,-28.392002,39.856003,concentric,7,5.0,19677.0,403431.0,226963.0,79834.0,7447.0
2026-04-09 22:38:43.714349,547292,3253604041,3253605673,-1.0736,0.027328,-0.072224,5.88,4.36625,-4.3225,19.376001,-28.392002,39.856003,concentric,7,5.0,19677.0,403431.0,226963.0,79834.0,7447.0
2026-04-09 22:38:43.715926,547293,3253613066,3253614411,-1.059936,0.013664,-0.054656,6.7025,3.80625,-3.29875,20.888,-28.304,39.408,concentric,7,5.0,19677.0,403431.0,226963.0,79834.0,7447.0
2026-04-09 22:38:43.760387,547304,3253628230,3253629263,-1.059936,0.013664,-0.054656,8.82875,3.05375,-2.52875,20.888,-28.304,39.408,concentric,7,5.0,19656.0,403431.0,227492.0,80280.0,7607.0
2026-04-09 22:38:43.762777,547305,3253637245,3253638076,-1.056032,0.044896,-0.062464,12.3725,2.1,-1.8375,20.104,-28.432001,39.576,concentric,7,5.0,19656.0,403431.0,227492.0,80280.0,7607.0
2026-04-09 22:38:43.765277,547306,3253646187,3253646809,-1.056032,0.044896,-0.062464,16.59875,2.10875,-0.8925,20.104,-28.432001,39.576,concentric,7,5.0,19656.0,403431.0,227492.0,80280.0,7607.0
2026-04-09 22:38:43.767794,547307,3253655474,3253657636,-1.050176,0.103456,-0.066368,18.515,2.3975,-1.2425,19.632002,-28.056002,39.960003,concentric,7,5.0,19656.0,403431.0,227492.0,80280.0,7607.0
2026-04-09 22:38:43.770228,547308,3253669977,3253670488,-1.050176,0.103456,-0.066368,17.47375,2.8525,-2.0825,19.632002,-28.056002,39.960003,concentric,7,5.0,19656.0,403431.0,227492.0,80280.0,7607.0
2026-04-09 22:38:43.776574,547309,3253679514,3253681286,-1.048224,0.080032,-0.08784,15.65375,3.5,-3.6575,18.984001,-28.632002,41.000004,concentric,7,5.0,19656.0,403431.0,227492.0,80280.0,7607.0
2026-04-09 22:38:43.806746,547310,3253688503,3253690083,-1.048224,0.080032,-0.08784,14.70875,2.8875,-5.27625,18.984001,-28.632002,41.000004,concentric,7,5.0,19656.0,403431.0,227492.0,80280.0,7607.0
2026-04-09 22:38:43.810289,547311,3253703012,3253704996,-1.057984,0.027328,-0.083936,15.46125,2.345,-6.16875,19.384,-29.072,40.2,concentric,7,5.0,19656.0,403431.0,227492.0,80280.0,7607.0
2026-04-09 22:38:43.812742,547312,3253712120,3253713690,-1.026752,0.03904,-0.056608,18.445,1.645,-6.4925,19.384,-29.072,39.056004,concentric,7,5.0,19656.0,403431.0,227492.0,80280.0,7607.0
2026-04-09 22:38:43.817831,547313,3253721092,3253722407,-1.026752,0.03904,-0.056608,20.36125,0.7525,-6.7025,19.928001,-29.008001,39.056004,concentric,7,5.0,19656.0,403431.0,227492.0,80280.0,7607.0
2026-04-09 22:38:43.904103,547323,3253730502,3253731204,-1.026752,0.03904,-0.056608,20.76375,0.95375,-7.14,19.928001,-29.008001,39.056004,concentric,7,5.0,19656.0,403431.0,227457.0,80223.0,7582.0
2026-04-09 22:38:43.908998,547324,3253745479,3253746157,-1.026752,0.074176,-0.054656,20.553751,1.82,-7.49,20.12,-28.416002,38.704002,concentric,7,5.0,19656.0,403431.0,227457.0,80223.0,7582.0
2026-04-09 22:38:43.911681,547325,3253754759,3253756918,-1.042368,0.050752,-0.099552,19.17125,2.7825,-7.84,20.384,-28.904001,38.872,concentric,7,5.0,19656.0,403431.0,227457.0,80223.0,7582.0
2026-04-09 22:38:43.913921,547326,3253763720,3253765596,-1.042368,0.050752,-0.099552,18.41,2.35375,-8.00625,20.384,-28.904001,38.872,concentric,7,5.0,19656.0,403431.0,227457.0,80223.0,7582.0
2026-04-09 22:38:43.916466,547327,3253772646,3253774307,-1.022848,0.035136,-0.076128,18.85625,2.00375,-7.8575,17.568,-28.736002,42.4,concentric,7,5.0,19656.0,403431.0,227457.0,80223.0,7582.0
2026-04-09 22:38:43.918959,547328,3253787111,3253789208,-1.022848,0.035136,-0.076128,19.460001,1.74125,-7.5775,17.568,-28.736002,42.4,concentric,7,5.0,19656.0,403431.0,227457.0,80223.0,7582.0
2026-04-09 22:38:43.921528,547329,3253796053,3253797922,-0.999424,0.056608,-0.040992,19.845,1.435,-7.23625,19.096,-29.400002,39.616,concentric,7,5.0,19656.0,403431.0,227457.0,80223.0,7582.0
2026-04-09 22:38:43.923995,547330,3253805064,3253806580,-0.999424,0.056608,-0.040992,20.64125,2.10875,-8.198751,19.096,-29.400002,39.616,concentric,7,5.0,19656.0,403431.0,227457.0,80223.0,7582.0
2026-04-09 22:38:43.926493,547331,3253819608,3253821552,-1.01504,0.07808,-0.050752,20.51875,2.205,-9.49375,20.352001,-29.344002,39.56,concentric,7,5.0,19656.0,403431.0,227457.0,80223.0,7582.0
2026-04-09 22:38:43.955204,547341,3253828669,3253830350,-1.01504,0.07808,-0.050752,19.11,3.71875,-10.47375,20.352001,-29.344002,39.56,concentric,7,5.0,19669.0,403431.0,227104.0,80016.0,7508.0
2026-04-09 22:38:43.958312,547342,3253837980,3253839063,-1.028704,0.07808,-0.072224,17.07125,4.7775,-11.73375,19.952002,-29.336,39.488003,concentric,7,5.0,19669.0,403431.0,227104.0,80016.0,7508.0
2026-04-09 22:38:43.961003,547343,3253846992,3253847836,-1.028704,0.07808,-0.072224,14.5775,4.34875,-12.78375,19.952002,-29.336,39.488003,concentric,7,5.0,19669.0,403431.0,227104.0,80016.0,7508.0
2026-04-09 22:38:43.962899,547344,3253861598,3253862805,-1.00528,0.031232,-0.0488,12.845,4.445,-13.5275,19.872002,-29.008001,39.640003,concentric,7,5.0,19669.0,403431.0,227104.0,80016.0,7508.0
2026-04-09 22:38:43.966496,547345,3253870537,3253871563,-1.00528,0.031232,-0.0488,13.37875,3.70125,-13.81625,19.872002,-29.008001,39.640003,concentric,7,5.0,19669.0,403431.0,227104.0,80016.0,7508.0
2026-04-09 22:38:43.996738,547346,3253879453,3253880299,-1.003328,0.044896,-0.033184,14.98875,4.1125,-13.7725,19.416,-29.256,37.856003,concentric,7,5.0,19669.0,403431.0,227104.0,80016.0,7508.0
2026-04-09 22:38:44.000273,547347,3253893951,3253895197,-1.007232,0.076128,-0.070272,16.23125,4.92625,-14.07875,20.640001,-28.696001,38.968002,concentric,7,5.0,19669.0,403431.0,227104.0,80016.0,7508.0
2026-04-09 22:38:44.002755,547348,3253902888,3253903950,-1.007232,0.076128,-0.070272,14.542501,5.85375,-15.3475,20.640001,-28.696001,38.968002,concentric,7,5.0,19669.0,403431.0,227104.0,80016.0,7508.0
2026-04-09 22:38:44.007824,547349,3253911816,3253912672,-1.007232,0.076128,-0.070272,9.3975,6.55375,-16.4675,20.640001,-28.696001,38.968002,concentric,7,5.0,19669.0,403431.0,227104.0,80016.0,7508.0
2026-04-09 22:38:44.038886,547350,3253926298,3253927615,-1.01504,0.037088,-0.113216,4.9,5.95875,-16.94,21.088001,-28.592001,37.936,concentric,7,5.0,19669.0,403431.0,227104.0,80016.0,7508.0
2026-04-09 22:38:44.080340,547361,3253935366,3253936356,-0.983808,0.005856,-0.064416,5.425,4.0075,-16.485,21.096,-28.856,38.088,concentric,7,5.0,19589.0,403431.0,227973.0,80824.0,7846.0
2026-04-09 22:38:44.082850,547362,3253944283,3253945173,-0.983808,0.005856,-0.064416,8.715,2.42375,-15.86375,21.096,-28.856,38.088,concentric,7,5.0,19589.0,403431.0,227973.0,80824.0,7846.0
2026-04-09 22:38:44.085218,547363,3253958813,3253960226,-0.987712,0.064416,-0.044896,13.67625,1.44375,-14.7875,20.68,-28.784002,39.008003,concentric,7,5.0,19589.0,403431.0,227973.0,80824.0,7846.0
2026-04-09 22:38:44.087767,547364,3253967737,3253968936,-0.987712,0.064416,-0.044896,16.24,1.68875,-14.323751,20.68,-28.784002,39.008003,concentric,7,5.0,19589.0,403431.0,227973.0,80824.0,7846.0
2026-04-09 22:38:44.101569,547365,3253976682,3253977636,-1.007232,0.081984,-0.089792,14.0175,1.82,-14.4375,20.824001,-29.328001,39.920002,concentric,7,5.0,19589.0,403431.0,227973.0,80824.0,7846.0
2026-04-09 22:38:44.104002,547366,3253985613,3253986366,-1.007232,0.081984,-0.089792,9.19625,2.17,-15.75875,20.824001,-29.328001,39.920002,concentric,7,5.0,19589.0,403431.0,227973.0,80824.0,7846.0
2026-04-09 22:38:44.112783,547367,3254000713,3254001332,-1.028704,0.003904,-0.10736,5.11,1.54,-16.765,21.384,-28.984001,39.0,concentric,7,5.0,19589.0,403431.0,227973.0,80824.0,7846.0
2026-04-09 22:38:44.115296,547368,3254009927,3254012112,-1.028704,0.003904,-0.10736,6.72875,0.1575,-16.49375,21.384,-28.984001,39.0,concentric,7,5.0,19589.0,403431.0,227973.0,80824.0,7846.0
2026-04-09 22:38:44.117744,547369,3254018837,3254020823,-1.009184,-0.001952,-0.05856,11.40125,-1.58375,-15.33875,20.272001,-29.240002,38.84,concentric,7,5.0,19589.0,403431.0,227973.0,80824.0,7846.0
2026-04-09 22:38:44.189041,547379,3254033993,3254035844,-1.036512,0.070272,-0.050752,14.9275,-2.21375,-14.04375,20.544,-28.712002,37.872,concentric,7,5.0,19585.0,403431.0,227686.0,80663.0,7738.0
2026-04-09 22:38:44.191487,547380,3254043098,3254044558,-1.036512,0.070272,-0.050752,16.178751,-1.35625,-12.55625,20.544,-28.712002,37.872,concentric,7,5.0,19585.0,403431.0,227686.0,80663.0,7738.0
2026-04-09 22:38:44.194062,547381,3254052043,3254053255,-1.036512,0.070272,-0.050752,13.4925,-1.785,-11.66375,20.544,-28.712002,37.872,concentric,7,5.0,19585.0,403431.0,227686.0,80663.0,7738.0
2026-04-09 22:38:44.196509,547382,3254060925,3254062003,-1.036512,0.031232,-0.095648,9.730001,-2.05625,-11.8125,21.728,-28.896002,37.344,concentric,7,5.0,19585.0,403431.0,227686.0,80663.0,7738.0
2026-04-09 22:38:44.198988,547383,3254075446,3254076909,-1.069696,0.017568,-0.122976,8.53125,-1.89875,-12.50375,21.6,-28.808,37.264,concentric,7,5.0,19585.0,403431.0,227686.0,80663.0,7738.0
2026-04-09 22:38:44.201732,547384,3254084384,3254085591,-1.069696,0.017568,-0.122976,11.7425,-2.5725,-12.985,21.6,-28.808,37.264,concentric,7,5.0,19585.0,403431.0,227686.0,80663.0,7738.0
2026-04-09 22:38:44.204370,547385,3254093281,3254094358,-1.069696,0.015616,-0.074176,16.2925,-3.6925,-13.0375,21.6,-28.808,37.264,concentric,7,5.0,19585.0,403431.0,227686.0,80663.0,7738.0
2026-04-09 22:38:44.206503,547386,3254107821,3254109276,-1.05408,0.015616,-0.074176,16.63375,-5.06625,-12.55625,20.696001,-28.968002,38.344,concentric,7,5.0,19585.0,403431.0,227686.0,80663.0,7738.0
2026-04-09 22:38:44.212788,547387,3254116751,3254117968,-1.040416,0.025376,0.003904,13.79,-4.97,-11.31375,20.872002,-29.400002,38.216003,concentric,7,5.0,19585.0,403431.0,227686.0,80663.0,7738.0
2026-04-09 22:38:44.242957,547388,3254125644,3254126644,-1.040416,0.025376,0.003904,9.17,-2.9925,-9.44125,20.872002,-29.400002,38.216003,concentric,7,5.0,19585.0,403431.0,227686.0,80663.0,7738.0
2026-04-09 22:38:44.284550,547398,3254134870,3254135454,-1.087264,0.015616,-0.08784,7.56875,-1.21625,-8.26875,22.064001,-28.904001,37.488003,concentric,7,5.0,19742.0,403431.0,225222.0,78801.0,7038.0
2026-04-09 22:38:44.286563,547399,3254149645,3254150360,-1.087264,0.015616,-0.08784,6.08125,-0.3675,-7.49,22.064001,-28.904001,37.488003,concentric,7,5.0,19742.0,403431.0,225222.0,78801.0,7038.0
2026-04-09 22:38:44.289043,547400,3254158985,3254161161,-1.145824,0.013664,-0.15616,5.03125,-0.1225,-7.175,22.312,-29.168001,37.600002,concentric,7,5.0,19742.0,403431.0,225222.0,78801.0,7038.0
2026-04-09 22:38:44.294463,547401,3254167938,3254169849,-1.145824,0.013664,-0.15616,10.24625,-2.52875,-6.41375,22.312,-29.168001,37.600002,concentric,7,5.0,19742.0,403431.0,225222.0,78801.0,7038.0
2026-04-09 22:38:44.301057,547402,3254183588,3254184845,-1.061888,-0.001952,-0.06832,14.27125,-6.20375,-6.65875,21.76,-28.568,37.216003,concentric,7,5.0,19742.0,403431.0,225222.0,78801.0,7038.0
2026-04-09 22:38:44.301123,547403,3254192590,3254193640,-1.061888,-0.001952,-0.06832,16.86125,-8.04125,-5.0225,21.76,-28.568,37.216003,concentric,7,5.0,19742.0,403431.0,225222.0,78801.0,7038.0
2026-04-09 22:38:44.301491,547404,3254201527,3254202391,-1.022848,0.035136,-0.023424,17.57,-8.05,-3.35125,21.736002,-28.808,38.312,concentric,7,5.0,19742.0,403431.0,225222.0,78801.0,7038.0
2026-04-09 22:38:44.306555,547405,3254210467,3254211143,-1.022848,0.035136,-0.023424,12.83625,-4.7425,-3.03625,21.736002,-28.808,38.312,concentric,7,5.0,19742.0,403431.0,225222.0,78801.0,7038.0
2026-04-09 22:38:44.336779,547406,3254219864,3254221945,-1.057984,0.050752,-0.031232,5.94125,-1.84625,-3.955,22.04,-29.52,37.056004,concentric,7,5.0,19742.0,403431.0,225222.0,78801.0,7038.0
2026-04-09 22:38:44.366744,547417,3254235098,3254236941,-1.032608,0.01952,-0.093696,3.955,-0.06125,-5.69625,22.04,-28.880001,36.848003,concentric,7,5.0,19803.0,403431.0,223979.0,78012.0,6776.0
2026-04-09 22:38:44.368155,547418,3254244131,3254245669,-1.032608,0.01952,-0.093696,2.8,0.8575,-7.74375,22.04,-28.880001,36.848003,concentric,7,5.0,19803.0,403431.0,223979.0,78012.0,6776.0
2026-04-09 22:38:44.370207,547419,3254253172,3254254383,-1.032608,0.01952,-0.093696,3.5875,0.98875,-7.6825,22.04,-28.880001,36.848003,concentric,7,5.0,19803.0,403431.0,223979.0,78012.0,6776.0
2026-04-09 22:38:44.372699,547420,3254262405,3254263291,-1.0248,0.007808,-0.066368,6.43125,0.67375,-7.32375,21.248001,-29.224,37.288002,concentric,7,5.0,19803.0,403431.0,223979.0,78012.0,6776.0
2026-04-09 22:38:44.375261,547421,3254276917,3254278217,-1.020896,0.035136,-0.089792,10.115,0.315,-6.50125,21.232,-29.416002,38.160004,concentric,7,5.0,19803.0,403431.0,223979.0,78012.0,6776.0
2026-04-09 22:38:44.383968,547422,3254285844,3254286929,-1.020896,0.035136,-0.089792,10.22875,-0.105,-6.51,21.232,-29.416002,38.160004,concentric,7,5.0,19803.0,403431.0,223979.0,78012.0,6776.0
2026-04-09 22:38:44.390238,547423,3254294764,3254295634,-1.04432,0.031232,-0.095648,6.81625,0.02625,-7.945,22.648,-29.248001,37.04,concentric,7,5.0,19803.0,403431.0,223979.0,78012.0,6776.0
2026-04-09 22:38:44.420482,547424,3254309262,3254310564,-1.04432,0.031232,-0.095648,5.01375,-0.4025,-9.28375,22.648,-29.248001,37.04,concentric,7,5.0,19803.0,403431.0,223979.0,78012.0,6776.0
2026-04-09 22:38:44.424081,547425,3254318175,3254319279,-1.046272,0.031232,-0.083936,0.21,-0.56875,-9.31,23.080002,-29.072,36.712,concentric,7,5.0,19803.0,403431.0,223979.0,78012.0,6776.0
2026-04-09 22:38:44.426637,547426,3254327090,3254327983,-1.046272,0.031232,-0.083936,-5.25875,-0.98875,-8.65375,23.080002,-29.072,36.712,concentric,7,5.0,19803.0,403431.0,223979.0,78012.0,6776.0
2026-04-09 22:38:44.490254,547436,3254341647,3254342921,-1.05408,-0.02928,-0.052704,-0.8925,-0.74375,-9.065,22.816002,-29.088001,39.264004,concentric,7,5.0,19895.0,403431.0,221715.0,76383.0,6201.0
2026-04-09 22:38:44.492798,547437,3254350590,3254351690,-1.05408,-0.02928,-0.052704,3.31625,-0.35875,-9.345,22.816002,-29.088001,39.264004,concentric,7,5.0,19895.0,403431.0,221715.0,76383.0,6201.0
2026-04-09 22:38:44.495270,547438,3254359515,3254360390,-1.075552,0.03904,-0.066368,6.72875,0.23625,-7.97125,23.064001,-29.552002,36.936,concentric,7,5.0,19895.0,403431.0,221715.0,76383.0,6201.0
2026-04-09 22:38:44.497776,547439,3254374032,3254375281,-1.075552,0.03904,-0.091744,10.35125,0.21,-7.79625,23.064001,-29.552002,36.936,concentric,7,5.0,19895.0,403431.0,221715.0,76383.0,6201.0
2026-04-09 22:38:44.500306,547440,3254383020,3254384059,-1.08336,0.001952,-0.091744,9.59875,0.14875,-9.17875,22.648,-28.984001,37.4,concentric,7,5.0,19895.0,403431.0,221715.0,76383.0,6201.0
2026-04-09 22:38:44.502771,547441,3254392061,3254392801,-1.08336,0.001952,-0.091744,8.8725,-0.06125,-8.65375,22.648,-28.984001,37.4,concentric,7,5.0,19895.0,403431.0,221715.0,76383.0,6201.0
2026-04-09 22:38:44.505316,547442,3254401449,3254403624,-1.030656,0.011712,-0.042944,7.7,0.04375,-7.07,22.04,-29.504002,38.016003,concentric,7,5.0,19895.0,403431.0,221715.0,76383.0,6201.0
2026-04-09 22:38:44.510292,547443,3254415969,3254416566,-1.013088,0.017568,-0.072224,5.34625,0.7875,-7.385,21.832,-29.192001,38.672,concentric,7,5.0,19895.0,403431.0,221715.0,76383.0,6201.0
2026-04-09 22:38:44.540557,547444,3254425534,3254427344,-1.013088,0.017568,-0.072224,3.43875,0.55125,-7.21875,21.832,-29.192001,38.672,concentric,7,5.0,19895.0,403431.0,221715.0,76383.0,6201.0
2026-04-09 22:38:44.600316,547454,3254434672,3254436089,-1.013088,-0.005856,-0.13664,0.2625,1.42625,-7.945,21.832,-29.192001,38.672,concentric,7,5.0,19976.0,403431.0,221067.0,75940.0,6069.0
2026-04-09 22:38:44.604022,547455,3254443631,3254444821,-1.075552,-0.005856,-0.13664,0.0175,1.7675,-8.4525,23.320002,-28.928001,36.480003,concentric,7,5.0,19976.0,403431.0,221067.0,75940.0,6069.0
2026-04-09 22:38:44.605577,547456,3254458312,3254459758,-1.079456,-0.035136,-0.08784,2.5375,1.4525,-8.60125,23.584002,-29.496002,37.776,concentric,7,5.0,19976.0,403431.0,221067.0,75940.0,6069.0
2026-04-09 22:38:44.607784,547457,3254467259,3254468450,-1.079456,-0.035136,-0.08784,4.31375,1.26875,-7.6125,23.584002,-29.496002,37.776,concentric,7,5.0,19976.0,403431.0,221067.0,75940.0,6069.0
2026-04-09 22:38:44.610307,547458,3254476259,3254477126,-1.020896,0.037088,0.050752,2.91375,2.31,-6.37875,23.496,-29.04,36.616,concentric,7,5.0,19976.0,403431.0,221067.0,75940.0,6069.0
2026-04-09 22:38:44.612800,547459,3254490780,3254492003,-1.020896,0.037088,0.050752,0.21,4.61125,-6.9125,23.496,-29.04,36.616,concentric,7,5.0,19976.0,403431.0,221067.0,75940.0,6069.0
2026-04-09 22:38:44.615334,547460,3254499797,3254500780,-1.095072,0.027328,-0.074176,-1.9775,7.28,-8.417501,22.952002,-29.424002,37.992,concentric,7,5.0,19976.0,403431.0,221067.0,75940.0,6069.0
2026-04-09 22:38:44.617795,547461,3254508843,3254509530,-1.095072,0.027328,-0.074176,-4.50625,8.70625,-10.535,22.952002,-29.424002,37.992,concentric,7,5.0,19976.0,403431.0,221067.0,75940.0,6069.0
2026-04-09 22:38:44.620280,547462,3254518215,3254520300,-1.106784,-0.015616,-0.1464,-6.265,9.19625,-12.4425,23.592001,-29.160002,37.088,concentric,7,5.0,19976.0,403431.0,221067.0,75940.0,6069.0
2026-04-09 22:38:44.681588,547473,3254533261,3254535592,-1.106784,-0.015616,-0.1464,-3.5175,8.04125,-12.69625,23.592001,-29.160002,37.088,concentric,7,5.0,20072.0,403431.0,219311.0,74587.0,5645.0
2026-04-09 22:38:44.685564,547474,3254542265,3254544451,-1.056032,-0.023424,-0.115168,-0.27125,7.385,-13.5975,23.344002,-29.584002,36.552002,concentric,7,5.0,20072.0,403431.0,219311.0,74587.0,5645.0
2026-04-09 22:38:44.687119,547475,3254551226,3254553159,-1.056032,-0.023424,-0.115168,0.70875,5.81875,-13.7725,23.344002,-29.584002,36.552002,concentric,7,5.0,20072.0,403431.0,219311.0,74587.0,5645.0
2026-04-09 22:38:44.689200,547476,3254565818,3254568082,-1.065792,-0.003904,-0.05856,-0.95375,6.09,-12.39,24.024002,-29.824001,36.768,concentric,7,5.0,20072.0,403431.0,219311.0,74587.0,5645.0
2026-04-09 22:38:44.691590,547477,3254574840,3254576883,-1.065792,-0.003904,-0.121024,-5.5125,6.8775,-11.3925,24.024002,-29.824001,36.768,concentric,7,5.0,20072.0,403431.0,219311.0,74587.0,5645.0
2026-04-09 22:38:44.694059,547478,3254583907,3254585599,-1.110688,-0.011712,-0.121024,-6.8775,7.07875,-12.18,23.216002,-29.416002,37.952003,concentric,7,5.0,20072.0,403431.0,219311.0,74587.0,5645.0
2026-04-09 22:38:44.696667,547479,3254592945,3254594371,-1.110688,-0.011712,-0.121024,-4.20875,6.51875,-12.81875,23.216002,-29.416002,37.952003,concentric,7,5.0,20072.0,403431.0,219311.0,74587.0,5645.0
2026-04-09 22:38:44.704354,547480,3254607568,3254609357,-1.149728,-0.064416,-0.134688,-1.40875,5.36375,-11.94375,23.352001,-29.256,37.4,concentric,7,5.0,20072.0,403431.0,219311.0,74587.0,5645.0
2026-04-09 22:38:44.765432,547481,3254616544,3254618090,-1.104832,-0.011712,-0.023424,0.735,4.48,-10.2025,24.792002,-28.952002,36.832,concentric,7,5.0,20072.0,403431.0,219311.0,74587.0,5645.0
2026-04-09 22:38:44.768100,547482,3254625453,3254626810,-1.104832,-0.011712,-0.023424,4.29625,4.095,-9.58125,24.792002,-28.952002,36.832,concentric,7,5.0,20072.0,403431.0,219311.0,74587.0,5645.0
2026-04-09 22:38:44.792750,547492,3254640079,3254642356,-1.091168,0.062464,-0.023424,6.3,5.45125,-9.52,24.704,-28.832,36.608,concentric,7,5.0,20089.0,403431.0,218481.0,73922.0,5434.0
2026-04-09 22:38:44.795314,547493,3254649120,3254651053,-1.091168,0.062464,-0.023424,0.42,7.74375,-10.03625,24.704,-28.832,36.608,concentric,7,5.0,20089.0,403431.0,218481.0,73922.0,5434.0
2026-04-09 22:38:44.797791,547494,3254658038,3254659726,-1.130208,-0.027328,-0.119072,-7.805,10.4825,-10.9025,25.064001,-29.328001,36.648003,concentric,7,5.0,20089.0,403431.0,218481.0,73922.0,5434.0
2026-04-09 22:38:44.800322,547495,3254666975,3254668457,-1.130208,-0.027328,-0.119072,-11.375,10.8325,-11.515,25.064001,-29.328001,36.648003,concentric,7,5.0,20089.0,403431.0,218481.0,73922.0,5434.0
2026-04-09 22:38:44.802766,547496,3254681465,3254683376,-1.143872,-0.042944,-0.121024,-10.675,10.64,-11.305,25.112001,-29.432001,36.752003,concentric,7,5.0,20089.0,403431.0,218481.0,73922.0,5434.0
2026-04-09 22:38:44.805312,547497,3254690492,3254692122,-1.143872,-0.042944,-0.121024,-5.3375,9.2225,-10.78875,25.112001,-29.432001,36.752003,concentric,7,5.0,20089.0,403431.0,218481.0,73922.0,5434.0
2026-04-09 22:38:44.807818,547498,3254699529,3254700843,-1.11264,0.001952,-0.050752,-1.19,7.97125,-10.14125,24.976002,-28.696001,36.448,concentric,7,5.0,20089.0,403431.0,218481.0,73922.0,5434.0
2026-04-09 22:38:44.810275,547499,3254714065,3254715783,-1.11264,0.001952,-0.050752,-1.61875,6.8425,-9.98375,24.976002,-28.696001,36.448,concentric,7,5.0,20089.0,403431.0,218481.0,73922.0,5434.0
2026-04-09 22:38:44.840568,547500,3254723001,3254724500,-1.100928,-0.040992,-0.03904,-7.16625,6.3,-10.21125,25.064001,-29.2,35.448,concentric,7,5.0,20089.0,403431.0,218481.0,73922.0,5434.0
2026-04-09 22:38:44.844737,547501,3254731951,3254733189,-1.100928,-0.040992,-0.03904,-10.9725,6.74625,-9.9575,25.064001,-29.2,35.448,concentric,7,5.0,20089.0,403431.0,218481.0,73922.0,5434.0
2026-04-09 22:38:44.871604,547511,3254746450,3254748103,-1.128256,-0.072224,-0.05856,-12.6,6.825,-9.0125,25.816002,-29.144001,36.552002,concentric,7,5.0,20123.0,403431.0,218033.0,73641.0,5366.0
2026-04-09 22:38:44.874052,547512,3254755395,3254756792,-1.128256,-0.072224,-0.060512,-13.86875,6.46625,-8.23375,25.816002,-29.144001,36.552002,concentric,7,5.0,20123.0,403431.0,218033.0,73641.0,5366.0
2026-04-09 22:38:44.876526,547513,3254764316,3254765516,-1.104832,-0.042944,-0.060512,-14.21,5.565,-7.55125,24.816002,-28.344002,39.632004,concentric,7,5.0,20123.0,403431.0,218033.0,73641.0,5366.0
2026-04-09 22:38:44.879043,547514,3254778814,3254780514,-1.08336,-0.027328,-0.052704,-14.83125,5.17125,-7.665,25.312,-28.36,37.832,concentric,7,5.0,20123.0,403431.0,218033.0,73641.0,5366.0
2026-04-09 22:38:44.884110,547515,3254787733,3254789210,-1.08336,-0.027328,-0.052704,-15.77625,4.935,-7.98,25.312,-28.36,37.832,concentric,7,5.0,20123.0,403431.0,218033.0,73641.0,5366.0
2026-04-09 22:38:44.914330,547516,3254796645,3254797904,-1.081408,-0.033184,-0.064416,-14.84875,3.9375,-8.74125,24.848001,-29.112001,39.176003,concentric,7,5.0,20123.0,403431.0,218033.0,73641.0,5366.0
2026-04-09 22:38:44.918157,547517,3254805540,3254806622,-1.081408,-0.033184,-0.064416,-15.47,3.57875,-9.54625,24.848001,-29.112001,39.176003,concentric,7,5.0,20123.0,403431.0,218033.0,73641.0,5366.0
2026-04-09 22:38:44.920439,547518,3254819999,3254821547,-1.052128,-0.025376,-0.083936,-17.0275,3.03625,-8.91625,25.528002,-28.224,37.336002,concentric,7,5.0,20123.0,403431.0,218033.0,73641.0,5366.0
2026-04-09 22:38:44.924695,547519,3254828946,3254830264,-1.052128,-0.025376,-0.083936,-17.80625,3.05375,-9.10875,25.528002,-28.224,37.336002,concentric,7,5.0,20123.0,403431.0,218033.0,73641.0,5366.0
2026-04-09 22:38:44.957915,547530,3254838415,3254839342,-1.091168,0.003904,-0.101504,-17.94625,3.10625,-10.94625,25.208002,-28.480001,38.856003,concentric,7,5.0,20176.0,403431.0,217247.0,73090.0,5190.0
2026-04-09 22:38:44.962100,547531,3254852941,3254854304,-1.091168,0.003904,-0.101504,-18.9,3.465,-12.32875,25.208002,-28.480001,38.856003,concentric,7,5.0,20176.0,403431.0,217247.0,73090.0,5190.0
2026-04-09 22:38:44.963865,547532,3254861979,3254863013,-1.124352,0.017568,-0.085888,-17.1675,3.38625,-14.44625,24.832,-28.704,38.536003,concentric,7,5.0,20176.0,403431.0,217247.0,73090.0,5190.0
2026-04-09 22:38:44.965683,547533,3254870909,3254871788,-1.124352,0.017568,-0.085888,-18.50625,3.36,-16.7825,24.832,-28.704,38.536003,concentric,7,5.0,20176.0,403431.0,217247.0,73090.0,5190.0
2026-04-09 22:38:44.996496,547534,3254885401,3254886704,-1.14192,-0.060512,-0.081984,-21.4725,3.01875,-17.2375,25.192001,-28.160002,39.176003,concentric,7,5.0,20176.0,403431.0,217247.0,73090.0,5190.0
2026-04-09 22:38:45.000908,547535,3254894306,3254895408,-1.14192,-0.060512,-0.081984,-21.875,2.17,-16.485,25.192001,-28.160002,39.176003,concentric,7,5.0,20176.0,403431.0,217247.0,73090.0,5190.0
2026-04-09 22:38:45.003436,547536,3254903211,3254904117,-1.194624,-0.076128,-0.105408,-21.97125,2.205,-15.33,26.768002,-27.760002,37.288002,concentric,7,5.0,20176.0,403431.0,217247.0,73090.0,5190.0
2026-04-09 22:38:45.008591,547537,3254912223,3254912863,-1.194624,-0.076128,-0.105408,-21.58625,2.89625,-12.9675,26.768002,-27.760002,37.288002,concentric,7,5.0,20176.0,403431.0,217247.0,73090.0,5190.0
2026-04-09 22:38:45.066878,547538,3254927002,3254927788,-1.28832,-0.044896,-0.144448,-20.22125,3.40375,-11.47125,26.264002,-27.560001,38.128002,concentric,7,5.0,20176.0,403431.0,217247.0,73090.0,5190.0
2026-04-09 22:38:45.092819,547548,3254936482,3254938653,-1.28832,-0.044896,-0.081984,-18.29625,3.0275,-10.28125,26.264002,-27.560001,38.128002,eccentric,7,5.0,20053.0,403431.0,219055.0,74292.0,5520.0
2026-04-09 22:38:45.095274,547549,3254945492,3254947363,-1.280512,-0.037088,-0.091744,-15.96,2.625,-7.86625,26.152,-27.952002,38.064003,eccentric,7,5.0,20053.0,403431.0,219055.0,74292.0,5520.0
2026-04-09 22:38:45.098026,547550,3254959982,3254962274,-1.206336,-0.007808,-0.05856,-11.6725,2.3275,-6.43125,26.272001,-27.352001,38.368,eccentric,7,5.0,20053.0,403431.0,219055.0,74292.0,5520.0
2026-04-09 22:38:45.100344,547551,3254968913,3254970992,-1.206336,-0.007808,-0.05856,-8.18125,2.2575,-6.755,26.272001,-27.352001,38.368,eccentric,7,5.0,20053.0,403431.0,219055.0,74292.0,5520.0
2026-04-09 22:38:45.111840,547552,3254977821,3254979676,-1.335168,-0.007808,-0.138592,-9.38,3.6575,-7.35875,26.864002,-27.944002,37.872,eccentric,7,5.0,20053.0,403431.0,219055.0,74292.0,5520.0
2026-04-09 22:38:45.114099,547553,3254986752,3254988435,-1.335168,-0.007808,-0.138592,-13.0375,5.11,-7.6825,26.864002,-27.944002,37.872,eccentric,7,5.0,20053.0,403431.0,219055.0,74292.0,5520.0
2026-04-09 22:38:45.116574,547554,3255001315,3255003371,-1.350784,-0.05856,-0.140544,-15.1025,4.66375,-7.525,25.800001,-27.952002,40.616,eccentric,7,5.0,20053.0,403431.0,219055.0,74292.0,5520.0
2026-04-09 22:38:45.119111,547555,3255010270,3255012115,-1.350784,-0.05856,-0.140544,-14.37625,3.6925,-6.8425,25.800001,-27.952002,40.616,eccentric,7,5.0,20053.0,403431.0,219055.0,74292.0,5520.0
2026-04-09 22:38:45.121639,547556,3255019173,3255020818,-1.260992,-0.013664,-0.052704,-10.3075,3.85,-6.09,26.384,-28.008001,38.448,eccentric,7,5.0,20053.0,403431.0,219055.0,74292.0,5520.0
2026-04-09 22:38:45.151763,547557,3255033721,3255035727,-1.260992,-0.013664,-0.052704,-6.6675,3.71,-5.20625,26.384,-28.008001,38.448,eccentric,7,5.0,20053.0,403431.0,219055.0,74292.0,5520.0
2026-04-09 22:38:45.177827,547567,3255042751,3255044474,-1.245376,0.001952,-0.001952,-8.855001,4.2,-5.005,25.448002,-27.368002,39.464,eccentric,7,5.0,19913.0,403431.0,221384.0,76130.0,6103.0
2026-04-09 22:38:45.180377,547568,3255051718,3255053163,-1.245376,0.001952,-0.001952,-14.88375,6.2475,-4.6725,25.448002,-27.368002,39.464,eccentric,7,5.0,19913.0,403431.0,221384.0,76130.0,6103.0
2026-04-09 22:38:45.182918,547569,3255066176,3255068069,-1.255136,-0.031232,-0.0488,-23.9225,8.35625,-3.94625,26.576002,-26.792002,38.432003,eccentric,7,5.0,19913.0,403431.0,221384.0,76130.0,6103.0
2026-04-09 22:38:45.185360,547570,3255075140,3255076792,-1.255136,-0.031232,-0.0488,-27.20375,9.66,-2.7825,26.576002,-26.792002,38.432003,eccentric,7,5.0,19913.0,403431.0,221384.0,76130.0,6103.0
2026-04-09 22:38:45.187881,547571,3255084240,3255085600,-1.241472,-0.044896,-0.144448,-25.13,9.40625,-2.59875,24.368002,-27.936,39.784,eccentric,7,5.0,19913.0,403431.0,221384.0,76130.0,6103.0
2026-04-09 22:38:45.190342,547572,3255093198,3255094316,-1.241472,-0.044896,-0.144448,-17.3775,7.175,-2.345,24.368002,-27.936,39.784,eccentric,7,5.0,19913.0,403431.0,221384.0,76130.0,6103.0
2026-04-09 22:38:45.221838,547573,3255107739,3255109223,-1.262944,-0.00976,-0.152256,-12.215,5.15375,-1.74125,25.152,-27.136002,39.792004,eccentric,7,5.0,19913.0,403431.0,221384.0,76130.0,6103.0
2026-04-09 22:38:45.225400,547574,3255116650,3255117896,-1.262944,-0.00976,-0.080032,-8.1025,3.1675,-1.0675,25.152,-27.136002,39.792004,eccentric,7,5.0,19913.0,403431.0,221384.0,76130.0,6103.0
2026-04-09 22:38:45.227889,547575,3255125568,3255126605,-1.257088,-0.00976,-0.080032,-6.685,1.6625,-1.7675,25.912,-27.536001,38.488003,eccentric,7,5.0,19913.0,403431.0,221384.0,76130.0,6103.0
2026-04-09 22:38:45.261275,547586,3255140474,3255141581,-1.163392,-0.005856,-0.017568,-5.83625,-0.1925,-2.065,25.392002,-27.728,39.776,eccentric,7,5.0,19881.0,403431.0,222088.0,76740.0,6307.0
2026-04-09 22:38:45.262832,547587,3255149517,3255150395,-1.163392,-0.005856,-0.017568,-7.56875,-0.41125,-1.98625,25.392002,-27.728,39.776,eccentric,7,5.0,19881.0,403431.0,222088.0,76740.0,6307.0
2026-04-09 22:38:45.267175,547588,3255159029,3255161176,-1.21024,-0.017568,-0.0976,-9.23125,0.5775,-2.58125,25.800001,-27.712002,40.032,eccentric,7,5.0,19881.0,403431.0,222088.0,76740.0,6307.0
2026-04-09 22:38:45.269522,547589,3255167957,3255169875,-1.21024,-0.017568,-0.0976,-8.82,0.245,-1.505,25.800001,-27.712002,40.032,eccentric,7,5.0,19881.0,403431.0,222088.0,76740.0,6307.0
2026-04-09 22:38:45.298002,547590,3255182501,3255182846,-1.305888,-0.070272,-0.163968,-13.81625,0.3325,0.9975,24.744001,-26.816002,39.976,eccentric,7,5.0,19881.0,403431.0,222088.0,76740.0,6307.0
2026-04-09 22:38:45.302554,547591,3255191754,3255193633,-1.305888,-0.070272,-0.163968,-13.1775,-0.6125,4.75125,24.744001,-26.816002,39.976,eccentric,7,5.0,19881.0,403431.0,222088.0,76740.0,6307.0
2026-04-09 22:38:45.304095,547592,3255200901,3255202407,-1.188768,-0.06832,-0.099552,-8.1025,-2.5375,6.57125,25.688002,-27.112001,39.264004,eccentric,7,5.0,19881.0,403431.0,222088.0,76740.0,6307.0
2026-04-09 22:38:45.366541,547593,3255215417,3255217318,-1.188768,-0.06832,-0.099552,-3.3075,-4.50625,8.96,25.688002,-27.112001,39.264004,eccentric,7,5.0,19881.0,403431.0,222088.0,76740.0,6307.0
2026-04-09 22:38:45.368759,547594,3255224373,3255226005,-1.120448,0.021472,-0.052704,1.63625,-4.8825,10.675,24.368002,-27.456001,39.472,eccentric,7,5.0,19881.0,403431.0,222088.0,76740.0,6307.0
2026-04-09 22:38:45.373413,547595,3255233301,3255234711,-1.120448,0.021472,-0.052704,1.8025,-4.41875,10.57,24.368002,-27.456001,39.472,eccentric,7,5.0,19881.0,403431.0,222088.0,76740.0,6307.0
2026-04-09 22:38:45.399524,547605,3255242339,3255243460,-1.19072,0.007808,-0.080032,-0.4725,-3.3775,9.3625,24.592001,-27.848001,39.496002,eccentric,7,5.0,19899.0,403431.0,221370.0,76166.0,6116.0
2026-04-09 22:38:45.400045,547606,3255256797,3255258354,-1.19072,0.007808,-0.080032,-1.68,-1.74125,8.77625,24.592001,-27.848001,39.496002,eccentric,7,5.0,19899.0,403431.0,221370.0,76166.0,6116.0
2026-04-09 22:38:45.401608,547607,3255265727,3255267047,-1.163392,0.0,-0.134688,-0.6475,-1.84625,8.68875,25.024002,-28.344002,41.824,eccentric,7,5.0,19899.0,403431.0,221370.0,76166.0,6116.0
2026-04-09 22:38:45.406080,547608,3255274680,3255275798,-1.163392,0.0,-0.134688,-1.05875,-1.575,7.105,25.024002,-28.344002,41.824,eccentric,7,5.0,19899.0,403431.0,221370.0,76166.0,6116.0
2026-04-09 22:38:45.408767,547609,3255289210,3255290787,-1.153632,-0.023424,-0.105408,0.00875,-1.82875,5.88875,23.784,-28.496002,40.792004,eccentric,7,5.0,19899.0,403431.0,221370.0,76166.0,6116.0
2026-04-09 22:38:45.412552,547610,3255298268,3255299527,-1.104832,-0.031232,-0.060512,1.68875,-2.135,6.69375,23.784,-27.480001,39.52,eccentric,7,5.0,19899.0,403431.0,221370.0,76166.0,6116.0
2026-04-09 22:38:45.414027,547611,3255307227,3255308325,-1.104832,-0.031232,-0.060512,2.17875,-2.30125,7.56875,23.504002,-27.480001,39.52,eccentric,7,5.0,19899.0,403431.0,221370.0,76166.0,6116.0
2026-04-09 22:38:45.418210,547612,3255321816,3255323214,-1.11264,-0.015616,-0.101504,3.70125,-1.86375,8.77625,23.304,-28.008001,42.048,eccentric,7,5.0,19899.0,403431.0,221370.0,76166.0,6116.0
2026-04-09 22:38:45.446858,547613,3255330788,3255331928,-1.11264,-0.015616,-0.101504,5.10125,-0.83125,9.03,23.304,-28.008001,42.048,eccentric,7,5.0,19899.0,403431.0,221370.0,76166.0,6116.0
2026-04-09 22:38:45.472892,547623,3255340047,3255340705,-1.128256,0.00976,-0.124928,5.48625,-0.04375,9.54625,24.144001,-28.112001,39.600002,eccentric,7,5.0,19951.0,403431.0,220293.0,75339.0,5858.0
2026-04-09 22:38:45.477134,547624,3255349475,3255351556,-1.128256,0.00976,-0.124928,4.33125,-0.07,9.17,24.144001,-28.112001,39.600002,eccentric,7,5.0,19951.0,403431.0,220293.0,75339.0,5858.0
2026-04-09 22:38:45.479490,547625,3255364038,3255364506,-1.10288,-0.005856,-0.101504,4.7425,-0.00875,6.72875,23.712002,-28.336,40.024002,eccentric,7,5.0,19951.0,403431.0,220293.0,75339.0,5858.0
2026-04-09 22:38:45.480437,547626,3255373458,3255375292,-1.10288,-0.005856,-0.101504,4.15625,0.035,5.69625,23.712002,-28.336,40.024002,eccentric,7,5.0,19951.0,403431.0,220293.0,75339.0,5858.0
2026-04-09 22:38:45.487874,547627,3255382492,3255384008,-1.059936,-0.03904,-0.095648,0.35875,0.2625,6.64125,23.480001,-28.296001,39.800003,eccentric,7,5.0,19951.0,403431.0,220293.0,75339.0,5858.0
2026-04-09 22:38:45.489876,547628,3255391436,3255392750,-1.059936,-0.03904,-0.095648,-0.13125,0.28,7.49,23.480001,-28.296001,39.800003,eccentric,7,5.0,19951.0,403431.0,220293.0,75339.0,5858.0
2026-04-09 22:38:45.521566,547629,3255405943,3255407863,-1.085312,0.015616,-0.089792,2.9925,0.9275,6.65,22.888,-28.384,40.256,eccentric,7,5.0,19951.0,403431.0,220293.0,75339.0,5858.0
2026-04-09 22:38:45.523807,547630,3255414886,3255416582,-1.085312,0.015616,-0.089792,5.3025,2.1175,5.9675,22.888,-28.384,40.256,eccentric,7,5.0,19951.0,403431.0,220293.0,75339.0,5858.0
2026-04-09 22:38:45.527640,547631,3255423807,3255425267,-1.067744,-0.003904,-0.10736,4.3575,2.2575,5.1975,22.952002,-28.44,40.320004,eccentric,7,5.0,19951.0,403431.0,220293.0,75339.0,5858.0
2026-04-09 22:38:45.559924,547641,3255438711,3255440208,-1.052128,-0.021472,-0.121024,3.50875,2.49375,3.19375,22.952002,-28.44,41.824,eccentric,7,5.0,19894.0,403431.0,220823.0,75746.0,5993.0
2026-04-09 22:38:45.560116,547642,3255447708,3255448956,-1.052128,-0.021472,-0.121024,4.92625,3.2025,2.51125,21.848001,-28.640001,41.824,eccentric,7,5.0,19894.0,403431.0,220823.0,75746.0,5993.0
2026-04-09 22:38:45.561650,547643,3255456699,3255457774,-1.052128,-0.021472,-0.121024,7.77,3.64,2.8,21.848001,-28.640001,41.824,eccentric,7,5.0,19894.0,403431.0,220823.0,75746.0,5993.0
2026-04-09 22:38:45.569914,547644,3255471246,3255472770,-1.011136,0.0,-0.072224,10.6575,3.185,2.94,21.984001,-28.616001,42.2,eccentric,7,5.0,19894.0,403431.0,220823.0,75746.0,5993.0
2026-04-09 22:38:45.598020,547645,3255480200,3255481574,-1.001376,0.017568,-0.091744,9.93125,4.19125,3.08875,22.944,-28.712002,40.776,eccentric,7,5.0,19894.0,403431.0,220823.0,75746.0,5993.0
2026-04-09 22:38:45.602564,547646,3255489134,3255490238,-1.001376,0.017568,-0.091744,7.90125,5.95875,2.89625,22.944,-28.712002,40.776,eccentric,7,5.0,19894.0,403431.0,220823.0,75746.0,5993.0
2026-04-09 22:38:45.604128,547647,3255498022,3255498924,-1.001376,0.017568,-0.10736,7.2625,7.21,1.23375,22.944,-28.712002,40.776,eccentric,7,5.0,19894.0,403431.0,220823.0,75746.0,5993.0
2026-04-09 22:38:45.610814,547648,3255512523,3255513834,-1.016992,0.013664,-0.101504,8.49625,7.42875,-0.60375,23.088001,-28.512001,38.88,eccentric,7,5.0,19894.0,403431.0,220823.0,75746.0,5993.0
2026-04-09 22:38:45.666553,547649,3255521474,3255522562,-1.00528,-0.017568,-0.130784,10.36,6.615,-1.30375,21.728,-28.696001,41.216003,eccentric,7,5.0,19894.0,403431.0,220823.0,75746.0,5993.0
2026-04-09 22:38:45.668777,547650,3255530385,3255531276,-1.00528,-0.017568,-0.130784,12.285,5.67875,-1.68875,21.728,-28.696001,41.216003,eccentric,7,5.0,19894.0,403431.0,220823.0,75746.0,5993.0
2026-04-09 22:38:45.699195,547661,3255544978,3255546213,-1.003328,0.001952,-0.0976,10.87625,5.3725,-1.09375,21.896002,-28.768002,39.808002,eccentric,7,5.0,19850.0,403431.0,221575.0,76247.0,6154.0
2026-04-09 22:38:45.703402,547662,3255553859,3255554940,-1.003328,0.001952,-0.0976,10.21125,5.5125,-1.3125,21.896002,-28.768002,39.808002,eccentric,7,5.0,19850.0,403431.0,221575.0,76247.0,6154.0
2026-04-09 22:38:45.705096,547663,3255562766,3255563607,-1.001376,0.052704,-0.074176,11.34,6.09,-2.12625,21.944,-28.936,39.616,eccentric,7,5.0,19850.0,403431.0,221575.0,76247.0,6154.0
2026-04-09 22:38:45.706660,547664,3255577248,3255578536,-1.001376,0.052704,-0.074176,12.11875,7.00875,-3.9375,21.944,-28.936,39.616,eccentric,7,5.0,19850.0,403431.0,221575.0,76247.0,6154.0
2026-04-09 22:38:45.710893,547665,3255586230,3255587277,-1.016992,0.027328,-0.130784,14.28875,7.0175,-5.29375,21.968,-28.896002,40.128002,eccentric,7,5.0,19850.0,403431.0,221575.0,76247.0,6154.0
2026-04-09 22:38:45.713830,547666,3255595153,3255596039,-1.016992,0.027328,-0.130784,13.405,6.6675,-6.74625,21.968,-28.896002,40.128002,eccentric,7,5.0,19850.0,403431.0,221575.0,76247.0,6154.0
2026-04-09 22:38:45.713941,547667,3255609681,3255611037,-1.022848,-0.031232,-0.08784,10.955,6.81625,-6.3175,21.776001,-28.736002,39.408,eccentric,7,5.0,19850.0,403431.0,221575.0,76247.0,6154.0
2026-04-09 22:38:45.718961,547668,3255618710,3255619754,-1.022848,-0.031232,-0.066368,10.8325,6.9125,-4.9175,21.776001,-28.736002,39.408,eccentric,7,5.0,19850.0,403431.0,221575.0,76247.0,6154.0
2026-04-09 22:38:45.725085,547669,3255627622,3255628449,-0.993568,-0.007808,-0.066368,11.06875,7.09625,-3.3075,21.720001,-28.224,40.248,eccentric,7,5.0,19850.0,403431.0,221575.0,76247.0,6154.0
2026-04-09 22:38:45.753052,547670,3255636543,3255637156,-0.993568,-0.007808,-0.066368,11.025,6.895,-2.89625,21.720001,-28.224,40.248,eccentric,7,5.0,19850.0,403431.0,221575.0,76247.0,6154.0
2026-04-09 22:38:45.784794,547680,3255651452,3255652462,-0.976,0.066368,-0.054656,11.725,7.8925,-4.0775,21.792002,-28.800001,39.760002,eccentric,7,5.0,19796.0,403431.0,222143.0,76581.0,6275.0
2026-04-09 22:38:45.788746,547681,3255660386,3255661159,-1.0736,0.040992,-0.181536,12.71375,8.54875,-5.29375,21.52,-29.016,39.216003,eccentric,7,5.0,19796.0,403431.0,222143.0,76581.0,6275.0
2026-04-09 22:38:45.790264,547682,3255669298,3255669909,-1.0736,0.040992,-0.181536,12.85375,9.59,-6.81625,21.52,-29.016,39.216003,eccentric,7,5.0,19796.0,403431.0,222143.0,76581.0,6275.0
2026-04-09 22:38:45.794593,547683,3255684330,3255684909,-1.04432,-0.015616,-0.132736,12.67875,8.89875,-7.42,21.864,-28.488,39.168003,eccentric,7,5.0,19796.0,403431.0,222143.0,76581.0,6275.0
2026-04-09 22:38:45.796351,547684,3255693530,3255695677,-1.04432,-0.015616,-0.132736,12.92375,6.93875,-6.5275,21.864,-28.488,39.168003,eccentric,7,5.0,19796.0,403431.0,222143.0,76581.0,6275.0
2026-04-09 22:38:45.797860,547685,3255702500,3255704468,-0.968192,-0.023424,0.003904,12.60875,4.7425,-5.285,20.320002,-28.840002,40.672,eccentric,7,5.0,19796.0,403431.0,222143.0,76581.0,6275.0
2026-04-09 22:38:45.850222,547686,3255711432,3255713176,-0.968192,-0.023424,0.003904,14.56875,3.59625,-4.52375,20.320002,-28.840002,40.672,eccentric,7,5.0,19796.0,403431.0,222143.0,76581.0,6275.0
2026-04-09 22:38:45.852506,547687,3255725898,3255728072,-1.013088,0.052704,-0.080032,17.045,4.06875,-3.24625,21.480001,-29.016,38.976,eccentric,7,5.0,19796.0,403431.0,222143.0,76581.0,6275.0
2026-04-09 22:38:45.857303,547688,3255734816,3255736754,-1.013088,0.052704,-0.080032,17.185,6.04625,-2.7825,21.480001,-29.016,38.976,eccentric,7,5.0,19796.0,403431.0,222143.0,76581.0,6275.0
2026-04-09 22:38:45.882364,547698,3255743892,3255745521,-1.05408,0.040992,-0.134688,14.8225,7.35875,-3.15,21.480001,-29.016,39.168003,eccentric,7,5.0,19793.0,403431.0,222598.0,76690.0,6302.0
2026-04-09 22:38:45.883930,547699,3255758405,3255760413,-1.05408,0.040992,-0.134688,13.64125,6.825,-3.4825,21.480001,-29.016,39.168003,eccentric,7,5.0,19793.0,403431.0,222598.0,76690.0,6302.0
2026-04-09 22:38:45.886199,547700,3255767346,3255769190,-1.007232,0.046848,-0.121024,13.5975,5.85375,-3.64,21.584002,-28.936,39.032,eccentric,7,5.0,19793.0,403431.0,222598.0,76690.0,6302.0
2026-04-09 22:38:45.889873,547701,3255776401,3255777933,-1.007232,0.046848,-0.121024,12.95875,6.15125,-5.08375,21.584002,-28.936,39.032,eccentric,7,5.0,19793.0,403431.0,222598.0,76690.0,6302.0
2026-04-09 22:38:45.892264,547702,3255790938,3255792872,-1.0248,0.044896,-0.091744,11.43625,6.4575,-5.88875,20.488,-28.736002,39.424004,eccentric,7,5.0,19793.0,403431.0,222598.0,76690.0,6302.0
2026-04-09 22:38:45.898304,547703,3255799931,3255801598,-1.00528,0.00976,-0.05856,10.5,6.72,-6.25625,18.44,-28.600002,38.048,eccentric,7,5.0,19793.0,403431.0,222598.0,76690.0,6302.0
2026-04-09 22:38:45.926778,547704,3255808903,3255810306,-1.00528,0.00976,-0.05856,11.042501,6.08125,-7.2975,20.320002,-28.600002,38.048,eccentric,7,5.0,19793.0,403431.0,222598.0,76690.0,6302.0
2026-04-09 22:38:45.931310,547705,3255817829,3255818963,-1.00528,0.00976,-0.05856,11.2525,6.48375,-6.125,20.320002,-28.600002,38.048,eccentric,7,5.0,19793.0,403431.0,222598.0,76690.0,6302.0
2026-04-09 22:38:45.932898,547706,3255832290,3255833905,-0.944768,0.066368,0.0,11.97,7.30625,-5.32,21.408,-28.816002,38.848003,eccentric,7,5.0,19793.0,403431.0,222598.0,76690.0,6302.0
2026-04-09 22:38:45.995242,547717,3255841717,3255842634,-0.989664,0.10736,-0.12688,12.7575,8.49625,-6.09875,20.664001,-29.232002,37.856003,eccentric,7,5.0,19797.0,403431.0,222695.0,76679.0,6298.0
2026-04-09 22:38:45.997794,547718,3255850829,3255851459,-0.989664,0.10736,-0.12688,8.79375,9.31875,-7.1575,20.664001,-29.232002,37.856003,eccentric,7,5.0,19797.0,403431.0,222695.0,76679.0,6298.0
2026-04-09 22:38:46.000344,547719,3255860067,3255862239,-1.0248,-0.01952,-0.197152,3.99875,9.24,-7.28,20.664001,-28.896002,38.552002,eccentric,7,5.0,19797.0,403431.0,222695.0,76679.0,6298.0
2026-04-09 22:38:46.002800,547720,3255874571,3255875077,-1.0248,-0.01952,-0.197152,2.40625,6.85125,-7.00875,21.28,-28.896002,38.552002,eccentric,7,5.0,19797.0,403431.0,222695.0,76679.0,6298.0
2026-04-09 22:38:46.005366,547721,3255883943,3255885841,-0.976,0.013664,0.021472,6.2125,4.55,-5.87125,20.6,-28.536001,38.52,eccentric,7,5.0,19797.0,403431.0,222695.0,76679.0,6298.0
2026-04-09 22:38:46.007842,547722,3255892980,3255894597,-0.976,0.013664,0.021472,13.72875,2.4325,-6.08125,20.6,-28.536001,38.52,eccentric,7,5.0,19797.0,403431.0,222695.0,76679.0,6298.0
2026-04-09 22:38:46.010338,547723,3255907570,3255909641,-0.933056,0.11712,0.011712,19.81875,1.58375,-5.53,20.624,-28.864002,40.912003,eccentric,7,5.0,19797.0,403431.0,222695.0,76679.0,6298.0
2026-04-09 22:38:46.012886,547724,3255916494,3255918331,-0.933056,0.11712,0.011712,13.34375,2.555,-4.40125,20.624,-28.864002,40.912003,eccentric,7,5.0,19797.0,403431.0,222695.0,76679.0,6298.0
2026-04-09 22:38:46.044696,547725,3255925434,3255927028,-1.0248,0.003904,-0.163968,6.3875,3.5875,-3.5,20.872002,-28.496002,38.376003,eccentric,7,5.0,19797.0,403431.0,222695.0,76679.0,6298.0
2026-04-09 22:38:46.071621,547735,3255939929,3255942103,-1.0248,0.01952,-0.15616,3.675,3.115,-3.54375,20.872002,-28.496002,38.376003,eccentric,7,5.0,19801.0,403431.0,222769.0,76638.0,6287.0
2026-04-09 22:38:46.074131,547736,3255948897,3255950944,-0.98576,0.015616,-0.15616,4.76875,1.435,-1.9425,21.136002,-28.656002,39.52,eccentric,7,5.0,19801.0,403431.0,222769.0,76638.0,6287.0
2026-04-09 22:38:46.076647,547737,3255957824,3255959641,-0.98576,0.015616,-0.15616,10.70125,0.5775,-1.6275,21.136002,-28.656002,39.52,eccentric,7,5.0,19801.0,403431.0,222769.0,76638.0,6287.0
2026-04-09 22:38:46.079109,547738,3255966789,3255968358,-0.997472,0.124928,-0.083936,16.5025,0.35875,-3.01,20.208,-28.720001,39.384003,eccentric,7,5.0,19801.0,403431.0,222769.0,76638.0,6287.0
2026-04-09 22:38:46.081647,547739,3255981321,3255983293,-1.01504,0.056608,-0.046848,17.08,0.67375,-4.31375,20.264002,-28.816002,40.192,eccentric,7,5.0,19801.0,403431.0,222769.0,76638.0,6287.0
2026-04-09 22:38:46.087854,547740,3255990297,3255992059,-1.01504,0.056608,-0.046848,11.62,0.07875,-5.25,20.264002,-28.816002,40.192,eccentric,7,5.0,19801.0,403431.0,222769.0,76638.0,6287.0
2026-04-09 22:38:46.119247,547741,3255999223,3256000761,-1.01504,0.056608,-0.046848,10.24625,-1.365,-4.78625,20.264002,-28.816002,40.192,eccentric,7,5.0,19801.0,403431.0,222769.0,76638.0,6287.0
2026-04-09 22:38:46.121599,547742,3256013720,3256015673,-0.981856,0.042944,-0.003904,12.25,-0.455,-4.795,21.392,-29.328001,37.56,eccentric,7,5.0,19801.0,403431.0,222769.0,76638.0,6287.0
2026-04-09 22:38:46.124271,547743,3256022724,3256024387,-1.048224,0.095648,-0.103456,11.4975,1.49625,-5.59125,20.944,-28.776001,38.104,eccentric,7,5.0,19801.0,403431.0,222769.0,76638.0,6287.0
2026-04-09 22:38:46.127647,547744,3256031655,3256033137,-1.048224,0.095648,-0.103456,7.7175,3.14125,-5.9675,20.944,-28.776001,38.104,eccentric,7,5.0,19801.0,403431.0,222769.0,76638.0,6287.0
2026-04-09 22:38:46.182902,547754,3256046315,3256048590,-1.036512,0.017568,-0.103456,3.40375,3.745,-6.0375,20.168001,-28.872002,37.688004,eccentric,7,5.0,19773.0,403431.0,223167.0,76813.0,6334.0
2026-04-09 22:38:46.185381,547755,3256055247,3256057311,-1.036512,0.017568,-0.103456,1.32125,2.77375,-5.78375,20.168001,-28.872002,37.688004,eccentric,7,5.0,19773.0,403431.0,223167.0,76813.0,6334.0
2026-04-09 22:38:46.187862,547756,3256064147,3256065998,-1.00528,0.03904,-0.035136,3.955,2.63375,-5.075,21.376001,-28.152,37.912003,eccentric,7,5.0,19773.0,403431.0,223167.0,76813.0,6334.0
2026-04-09 22:38:46.190412,547757,3256078646,3256080915,-1.00528,0.03904,-0.035136,7.5775,3.68375,-4.7425,21.376001,-28.152,37.912003,eccentric,7,5.0,19773.0,403431.0,223167.0,76813.0,6334.0
2026-04-09 22:38:46.192893,547758,3256087635,3256089651,-1.013088,0.070272,-0.089792,9.03,3.64,-4.33125,20.992,-28.736002,37.728,eccentric,7,5.0,19773.0,403431.0,223167.0,76813.0,6334.0
2026-04-09 22:38:46.195375,547759,3256096618,3256098389,-1.013088,0.070272,-0.089792,7.105,3.52625,-3.71875,20.992,-28.736002,37.728,eccentric,7,5.0,19773.0,403431.0,223167.0,76813.0,6334.0
2026-04-09 22:38:46.201686,547760,3256105575,3256107087,-1.030656,0.023424,-0.140544,2.9925,2.68625,-3.43,20.664001,-28.824001,38.008003,eccentric,7,5.0,19773.0,403431.0,223167.0,76813.0,6334.0
2026-04-09 22:38:46.233091,547761,3256120083,3256121979,-1.030656,0.023424,-0.140544,3.92875,1.8025,-3.00125,20.664001,-28.824001,38.008003,eccentric,7,5.0,19773.0,403431.0,223167.0,76813.0,6334.0
2026-04-09 22:38:46.266873,547762,3256129003,3256130675,-1.001376,0.050752,-0.076128,6.50125,1.25125,-3.14125,20.824001,-29.056002,37.52,eccentric,7,5.0,19773.0,403431.0,223167.0,76813.0,6334.0
2026-04-09 22:38:46.270380,547763,3256137956,3256139395,-1.001376,0.050752,-0.076128,8.46125,1.68,-3.43,20.824001,-29.056002,37.52,eccentric,7,5.0,19773.0,403431.0,223167.0,76813.0,6334.0
2026-04-09 22:38:46.297834,547774,3256152492,3256154305,-0.979904,0.093696,-0.02928,8.225,2.05625,-3.52625,20.584002,-28.680002,37.184002,eccentric,7,5.0,19738.0,403431.0,223720.0,77208.0,6459.0
2026-04-09 22:38:46.300338,547775,3256161422,3256163004,-1.026752,0.050752,-0.0976,5.2675,3.325,-4.48,21.112001,-28.944002,38.824,eccentric,7,5.0,19738.0,403431.0,223720.0,77208.0,6459.0
2026-04-09 22:38:46.302904,547776,3256170378,3256171708,-1.026752,0.050752,-0.0976,3.7975,4.235,-5.83625,21.112001,-28.944002,38.824,eccentric,7,5.0,19738.0,403431.0,223720.0,77208.0,6459.0
2026-04-09 22:38:46.305362,547777,3256184892,3256186679,-1.030656,0.027328,-0.122976,3.5,4.2175,-5.8625,20.480001,-28.480001,39.008003,eccentric,7,5.0,19738.0,403431.0,223720.0,77208.0,6459.0
2026-04-09 22:38:46.307881,547778,3256193890,3256195422,-1.030656,0.027328,-0.122976,5.18875,3.87625,-4.83,20.480001,-28.480001,39.008003,eccentric,7,5.0,19738.0,403431.0,223720.0,77208.0,6459.0
2026-04-09 22:38:46.310334,547779,3256202976,3256204188,-1.013088,0.0488,-0.072224,5.67,3.38625,-4.97,19.640001,-28.680002,41.336002,eccentric,7,5.0,19738.0,403431.0,223720.0,77208.0,6459.0
2026-04-09 22:38:46.312894,547780,3256211937,3256212965,-1.013088,0.0488,-0.072224,6.25625,3.73625,-5.46875,19.640001,-28.680002,41.336002,eccentric,7,5.0,19738.0,403431.0,223720.0,77208.0,6459.0
2026-04-09 22:38:46.321659,547781,3256226447,3256227839,-1.042368,0.080032,-0.076128,7.6125,3.99875,-5.9675,20.192001,-28.848001,38.440002,eccentric,7,5.0,19738.0,403431.0,223720.0,77208.0,6459.0
2026-04-09 22:38:46.351832,547782,3256235403,3256236571,-1.042368,0.080032,-0.076128,7.44625,4.305,-6.02875,20.192001,-28.848001,38.440002,eccentric,7,5.0,19738.0,403431.0,223720.0,77208.0,6459.0
