pc_time,serial_num,sensor_ts,host_ts,ax,ay,az,gx,gy,gz,mx,my,mz,phase,rpe,weight_kg,ppg_a,ppg_b,ppg_c,ppg_d,ppg_e
2026-04-09 22:09:40.642624,231973,1510648580,1510649942,-1.026752,0.238144,0.089792,-4.025,11.43625,-0.27125,27.032001,-12.896001,23.160002,concentric,6,5.0,42573.0,368862.0,111090.0,473.0,-156.0
2026-04-09 22:09:40.647193,231974,1510657536,1510658642,-1.057984,0.245952,0.050752,-4.2175,11.6375,-0.09625,26.032001,-12.808001,23.048,concentric,6,5.0,42573.0,368862.0,111090.0,473.0,-156.0
2026-04-09 22:09:40.671400,231984,1510672092,1510673583,-1.057984,0.245952,0.050752,-3.045,12.27625,0.035,26.032001,-12.808001,23.048,concentric,6,5.0,42676.0,368367.0,110879.0,451.0,-130.0
2026-04-09 22:09:40.675570,231985,1510681059,1510682274,-1.081408,0.275232,0.08784,-2.72125,12.355001,-0.70875,26.944002,-13.320001,22.968,concentric,6,5.0,42676.0,368367.0,110879.0,451.0,-130.0
2026-04-09 22:09:40.677195,231986,1510689969,1510691064,-1.081408,0.275232,0.08784,-0.84875,13.65,-0.84,26.944002,-13.320001,22.968,concentric,6,5.0,42676.0,368367.0,110879.0,451.0,-130.0
2026-04-09 22:09:40.678783,231987,1510704546,1510706014,-1.098976,0.308416,0.12688,-0.0175,14.175,-3.45625,25.976002,-12.784,24.560001,concentric,6,5.0,42676.0,368367.0,110879.0,451.0,-130.0
2026-04-09 22:09:40.685386,231988,1510713591,1510714765,-1.08336,0.23424,0.07808,0.4025,14.875,-6.965,25.976002,-12.784,19.976002,concentric,6,5.0,42676.0,368367.0,110879.0,451.0,-130.0
2026-04-09 22:09:40.713921,231989,1510722526,1510723478,-1.085312,0.23424,0.07808,-2.1,15.07625,-10.43875,26.000002,-12.616,19.976002,concentric,6,5.0,42676.0,368367.0,110879.0,451.0,-130.0
2026-04-09 22:09:40.718427,231990,1510736998,1510738364,-1.097024,0.261568,0.066368,-2.28375,15.58375,-10.7975,27.2,-11.864,22.44,concentric,6,5.0,42676.0,368367.0,110879.0,451.0,-130.0
2026-04-09 22:09:40.719963,231991,1510745913,1510747061,-1.097024,0.261568,0.066368,-0.14875,16.09125,-9.292501,27.2,-11.864,22.44,concentric,6,5.0,42676.0,368367.0,110879.0,451.0,-130.0
2026-04-09 22:09:40.725467,231992,1510754840,1510755820,-1.075552,0.296704,0.05856,1.32125,16.135,-9.205,26.976002,-12.984,23.632002,concentric,6,5.0,42676.0,368367.0,110879.0,451.0,-130.0
2026-04-09 22:09:40.787448,232003,1510763999,1510764587,-1.075552,0.296704,0.05856,1.11125,17.0625,-10.2025,26.976002,-12.984,23.632002,concentric,6,5.0,42776.0,369159.0,111330.0,449.0,-151.0
2026-04-09 22:09:40.789710,232004,1510778832,1510779526,-1.056032,0.271328,0.066368,0.35875,18.12125,-11.52375,25.168001,-13.088,23.296001,concentric,6,5.0,42776.0,369159.0,111330.0,449.0,-151.0
2026-04-09 22:09:40.794301,232005,1510788207,1510790355,-1.056032,0.271328,0.066368,0.6475,18.795,-13.20375,25.168001,-13.088,23.296001,concentric,6,5.0,42776.0,369159.0,111330.0,449.0,-151.0
2026-04-09 22:09:40.795982,232006,1510797125,1510799054,-1.057984,0.310368,0.111264,4.15625,20.18625,-14.20125,26.192001,-12.504001,21.784,concentric,6,5.0,42776.0,369159.0,111330.0,449.0,-151.0
2026-04-09 22:09:40.797539,232007,1510811582,1510811907,-1.057984,0.310368,0.111264,5.97625,21.1925,-14.77,26.192001,-12.504001,21.784,concentric,6,5.0,42776.0,369159.0,111330.0,449.0,-151.0
2026-04-09 22:09:40.801829,232008,1510820795,1510822673,-1.061888,0.304512,0.007808,4.94375,21.0,-16.7125,25.936,-12.696001,21.296001,concentric,6,5.0,42776.0,369159.0,111330.0,449.0,-151.0
2026-04-09 22:09:40.803372,232009,1510829743,1510831431,-1.061888,0.304512,0.007808,5.46,20.8425,-19.94125,25.936,-12.696001,21.296001,concentric,6,5.0,42776.0,369159.0,111330.0,449.0,-151.0
2026-04-09 22:09:40.810462,232010,1510838698,1510840164,-1.071648,0.324032,0.021472,6.58,21.25375,-20.895,25.128,-12.552001,22.008001,concentric,6,5.0,42776.0,369159.0,111330.0,449.0,-151.0
2026-04-09 22:09:40.845079,232011,1510853224,1510855106,-1.071648,0.324032,0.021472,9.17875,21.8925,-22.51375,25.128,-12.552001,22.008001,concentric,6,5.0,42776.0,369159.0,111330.0,449.0,-151.0
2026-04-09 22:09:40.872828,232021,1510862434,1510863863,-1.065792,0.333792,0.0976,9.23125,21.647501,-24.928751,25.712002,-12.032001,20.424002,concentric,6,5.0,42683.0,370348.0,112006.0,504.0,-145.0
2026-04-09 22:09:40.876834,232022,1510871430,1510872634,-1.065792,0.333792,0.0976,6.01125,21.4725,-27.41375,25.712002,-12.032001,20.424002,concentric,6,5.0,42683.0,370348.0,112006.0,504.0,-145.0
2026-04-09 22:09:40.878586,232023,1510885931,1510887564,-1.077504,0.32208,0.062464,3.99,22.303751,-29.303751,25.632002,-11.920001,20.256,concentric,6,5.0,42683.0,370348.0,112006.0,504.0,-145.0
2026-04-09 22:09:40.880080,232024,1510894856,1510896278,-1.108736,0.304512,-0.021472,1.42625,23.625,-31.22875,24.576,-11.832001,23.672,concentric,6,5.0,42683.0,370348.0,112006.0,504.0,-145.0
2026-04-09 22:09:40.884199,232025,1510903779,1510905008,-1.108736,0.304512,-0.021472,2.3625,23.52875,-32.0425,24.576,-11.832001,23.672,concentric,6,5.0,42683.0,370348.0,112006.0,504.0,-145.0
2026-04-09 22:09:40.914967,232026,1510918338,1510919923,-1.108736,0.32208,-0.023424,4.5675,22.39125,-32.445,23.840002,-11.792001,22.096,concentric,6,5.0,42683.0,370348.0,112006.0,504.0,-145.0
2026-04-09 22:09:40.917198,232027,1510927311,1510928673,-1.108736,0.32208,-0.023424,6.13375,21.06125,-33.451252,23.840002,-11.792001,22.096,concentric,6,5.0,42683.0,370348.0,112006.0,504.0,-145.0
2026-04-09 22:09:40.921864,232028,1510936269,1510937361,-1.108736,0.306464,0.003904,6.8425,19.7575,-34.58875,24.944,-11.472,19.312,concentric,6,5.0,42683.0,370348.0,112006.0,504.0,-145.0
2026-04-09 22:09:40.924246,232029,1510945216,1510946059,-1.108736,0.306464,0.003904,8.19,19.1625,-35.6475,24.944,-11.472,19.312,concentric,6,5.0,42683.0,370348.0,112006.0,504.0,-145.0
2026-04-09 22:09:40.976408,232039,1510959677,1510961220,-1.149728,0.339648,0.044896,10.54375,18.78625,-36.9775,22.208,-11.248,20.096,concentric,6,5.0,42830.0,369058.0,111004.0,391.0,-143.0
2026-04-09 22:09:40.978687,232040,1510968672,1510969925,-1.149728,0.339648,0.044896,14.28,19.59125,-38.9375,22.208,-11.248,20.096,concentric,6,5.0,42830.0,369058.0,111004.0,391.0,-143.0
2026-04-09 22:09:40.983404,232041,1510977601,1510978690,-1.1224,0.318176,0.064416,14.805,19.6175,-41.34375,24.824001,-11.248,18.584002,concentric,6,5.0,42830.0,369058.0,111004.0,391.0,-143.0
2026-04-09 22:09:40.985024,232042,1510992081,1510993551,-1.1224,0.318176,0.064416,11.8825,18.8475,-43.2775,24.824001,-11.248,18.584002,concentric,6,5.0,42830.0,369058.0,111004.0,391.0,-143.0
2026-04-09 22:09:40.987881,232043,1511001122,1511002363,-1.14192,0.337696,0.023424,9.30125,19.29375,-44.5375,24.208002,-11.320001,18.672,concentric,6,5.0,42830.0,369058.0,111004.0,391.0,-143.0
2026-04-09 22:09:40.988868,232044,1511010035,1511011114,-1.14192,0.337696,0.023424,7.84,20.116251,-45.0625,24.208002,-11.320001,18.672,concentric,6,5.0,42830.0,369058.0,111004.0,391.0,-143.0
2026-04-09 22:09:40.995159,232045,1511024544,1511026035,-1.157536,0.327936,-0.015616,6.6675,20.72875,-46.80375,24.240002,-9.96,17.976002,concentric,6,5.0,42830.0,369058.0,111004.0,391.0,-143.0
2026-04-09 22:09:41.026236,232046,1511033495,1511034724,-1.157536,0.327936,-0.015616,7.105,21.41125,-48.6325,24.240002,-9.96,17.976002,concentric,6,5.0,42830.0,369058.0,111004.0,391.0,-143.0
2026-04-09 22:09:41.028483,232047,1511042412,1511043438,-1.15168,0.33184,0.01952,8.68875,22.14625,-49.93625,24.456001,-10.120001,19.152,concentric,6,5.0,42830.0,369058.0,111004.0,391.0,-143.0
2026-04-09 22:09:41.036120,232048,1511056863,1511058351,-1.186816,0.324032,0.06832,7.90125,23.17,-52.29875,23.816002,-9.92,18.216002,concentric,6,5.0,42830.0,369058.0,111004.0,391.0,-143.0
2026-04-09 22:09:41.096405,232059,1511065908,1511067056,-1.186816,0.324032,0.06832,6.74625,24.325,-53.94375,23.816002,-9.92,18.216002,concentric,6,5.0,42792.0,371244.0,112706.0,541.0,-131.0
2026-04-09 22:09:41.100620,232060,1511074862,1511075826,-1.186816,0.32208,-0.013664,7.0,24.43,-54.5475,23.816002,-9.92,18.216002,concentric,6,5.0,42792.0,371244.0,112706.0,541.0,-131.0
2026-04-09 22:09:41.103352,232061,1511083812,1511084584,-1.169248,0.32208,-0.013664,6.44875,23.835001,-55.7725,22.152,-9.92,17.336,concentric,6,5.0,42792.0,371244.0,112706.0,541.0,-131.0
2026-04-09 22:09:41.109481,232062,1511098725,1511099486,-1.184864,0.337696,-0.013664,6.9125,23.555,-56.6125,23.552002,-9.488001,16.888,concentric,6,5.0,42792.0,371244.0,112706.0,541.0,-131.0
2026-04-09 22:09:41.111038,232063,1511108069,1511110268,-1.184864,0.337696,-0.013664,7.2975,23.65125,-57.5575,23.552002,-9.488001,16.888,concentric,6,5.0,42792.0,371244.0,112706.0,541.0,-131.0
2026-04-09 22:09:41.113563,232064,1511117064,1511118949,-1.204384,0.310368,-0.023424,6.86,24.22,-58.44125,22.920002,-8.696,16.616001,concentric,6,5.0,42792.0,371244.0,112706.0,541.0,-131.0
2026-04-09 22:09:41.115019,232065,1511126018,1511127715,-1.204384,0.310368,-0.023424,5.5475,24.94625,-58.75625,22.920002,-8.696,16.616001,concentric,6,5.0,42792.0,371244.0,112706.0,541.0,-131.0
2026-04-09 22:09:41.119339,232066,1511140524,1511142643,-1.18096,0.290848,0.042944,4.75125,25.40125,-59.666252,21.592001,-8.480001,17.808,concentric,6,5.0,42792.0,371244.0,112706.0,541.0,-131.0
2026-04-09 22:09:41.120949,232067,1511149469,1511151387,-1.18096,0.290848,0.042944,4.4625,25.64625,-60.83875,21.592001,-8.480001,17.808,concentric,6,5.0,42792.0,371244.0,112706.0,541.0,-131.0
2026-04-09 22:09:41.146257,232068,1511158423,1511160143,-1.18096,0.333792,0.023424,5.53875,26.3375,-61.38125,22.016,-8.280001,16.288,concentric,6,5.0,42792.0,371244.0,112706.0,541.0,-131.0
2026-04-09 22:09:41.170261,232078,1511173012,1511175059,-1.18096,0.333792,0.023424,2.765,27.615,-61.7925,22.016,-8.280001,16.288,concentric,6,5.0,42732.0,371623.0,112934.0,553.0,-150.0
2026-04-09 22:09:41.172718,232079,1511182033,1511183816,-1.186816,0.267424,-0.072224,-1.5925,29.3475,-61.64375,22.576,-7.784,15.800001,concentric,6,5.0,42732.0,371623.0,112934.0,553.0,-150.0
2026-04-09 22:09:41.176888,232080,1511191006,1511192548,-1.186816,0.267424,-0.072224,-2.03,28.90125,-61.7925,22.576,-7.784,15.800001,concentric,6,5.0,42732.0,371623.0,112934.0,553.0,-150.0
2026-04-09 22:09:41.178378,232081,1511205528,1511207472,-1.159488,0.296704,-0.040992,2.37125,28.411251,-60.89125,21.544,-8.368,15.752001,concentric,6,5.0,42732.0,371623.0,112934.0,553.0,-150.0
2026-04-09 22:09:41.208722,232082,1511214471,1511216184,-1.159488,0.296704,-0.040992,5.24125,27.2125,-60.8125,21.544,-8.368,15.752001,concentric,6,5.0,42732.0,371623.0,112934.0,553.0,-150.0
2026-04-09 22:09:41.213131,232083,1511223404,1511224909,-1.143872,0.288896,0.007808,4.10375,26.3375,-61.565,21.592001,-7.928001,16.04,concentric,6,5.0,42732.0,371623.0,112934.0,553.0,-150.0
2026-04-09 22:09:41.215350,232084,1511237861,1511239799,-1.153632,0.232288,-0.072224,2.28375,25.8125,-61.78375,20.848001,-7.16,15.416,concentric,6,5.0,42732.0,371623.0,112934.0,553.0,-150.0
2026-04-09 22:09:41.219415,232085,1511246779,1511248508,-1.153632,0.232288,-0.072224,0.2975,25.83,-61.8625,20.848001,-7.16,15.416,concentric,6,5.0,42732.0,371623.0,112934.0,553.0,-150.0
2026-04-09 22:09:41.248795,232086,1511255721,1511257217,-1.153632,0.226432,-0.066368,1.1025,25.235,-60.9875,20.848001,-7.16,15.416,concentric,6,5.0,42732.0,371623.0,112934.0,553.0,-150.0
2026-04-09 22:09:41.273964,232096,1511264725,1511265947,-1.147776,0.226432,-0.066368,3.07125,23.7825,-59.92875,20.640001,-6.976,16.192001,concentric,6,5.0,42764.0,370272.0,112066.0,490.0,-135.0
2026-04-09 22:09:41.277347,232097,1511279292,1511280966,-1.124352,0.265472,-0.037088,3.01875,22.09375,-58.791252,20.088001,-7.08,14.808001,concentric,6,5.0,42764.0,370272.0,112066.0,490.0,-135.0
2026-04-09 22:09:41.278866,232098,1511288210,1511289663,-1.124352,0.265472,-0.037088,5.38125,21.98,-57.54,20.088001,-7.08,14.808001,concentric,6,5.0,42764.0,370272.0,112066.0,490.0,-135.0
2026-04-09 22:09:41.283184,232099,1511297207,1511298341,-1.120448,0.216672,-0.033184,4.62875,22.51375,-57.74125,18.616001,-6.368001,15.872001,concentric,6,5.0,42764.0,370272.0,112066.0,490.0,-135.0
2026-04-09 22:09:41.284692,232100,1511311788,1511313252,-1.120448,0.216672,-0.033184,0.49875,23.45,-56.97125,18.616001,-6.368001,15.872001,concentric,6,5.0,42764.0,370272.0,112066.0,490.0,-135.0
2026-04-09 22:09:41.315095,232101,1511320823,1511321981,-1.130208,0.203008,-0.085888,1.19875,23.625,-56.14,18.68,-5.736,15.68,concentric,6,5.0,42764.0,370272.0,112066.0,490.0,-135.0
2026-04-09 22:09:41.317271,232102,1511329798,1511330677,-1.130208,0.203008,-0.085888,0.7,22.11125,-57.015,18.68,-5.736,15.68,concentric,6,5.0,42764.0,370272.0,112066.0,490.0,-135.0
2026-04-09 22:09:41.321934,232103,1511339297,1511341435,-1.138016,0.158112,-0.128832,-0.67375,20.02875,-57.4175,19.616001,-5.616,14.568001,concentric,6,5.0,42764.0,370272.0,112066.0,490.0,-135.0
2026-04-09 22:09:41.324332,232104,1511353815,1511354351,-1.138016,0.158112,-0.128832,0.60375,18.76,-55.65875,19.616001,-5.616,14.568001,concentric,6,5.0,42764.0,370272.0,112066.0,490.0,-135.0
2026-04-09 22:09:41.411320,232115,1511363272,1511365574,-1.159488,0.21472,-0.044896,2.68625,18.2175,-54.285,18.736,-5.736,15.272,concentric,6,5.0,42776.0,370710.0,112232.0,507.0,-143.0
2026-04-09 22:09:41.413870,232116,1511372296,1511374329,-1.159488,0.21472,-0.044896,5.29375,17.36875,-52.85875,18.736,-5.736,15.272,concentric,6,5.0,42776.0,370710.0,112232.0,507.0,-143.0
2026-04-09 22:09:41.416339,232117,1511386785,1511387173,-1.134112,0.203008,-0.052704,6.2825,15.81125,-52.325,18.632,-5.632,13.56,concentric,6,5.0,42776.0,370710.0,112232.0,507.0,-143.0
2026-04-09 22:09:41.418835,232118,1511396015,1511397933,-1.134112,0.203008,-0.095648,5.005,14.65625,-54.416252,18.632,-5.632,13.56,concentric,6,5.0,42776.0,370710.0,112232.0,507.0,-143.0
2026-04-09 22:09:41.421383,232119,1511404984,1511406645,-1.163392,0.066368,-0.095648,0.83125,14.42875,-54.8275,18.656,-5.776001,13.896001,concentric,6,5.0,42776.0,370710.0,112232.0,507.0,-143.0
2026-04-09 22:09:41.423842,232120,1511413958,1511415346,-1.163392,0.066368,-0.095648,0.7175,12.915,-52.68375,18.656,-5.776001,13.896001,concentric,6,5.0,42776.0,370710.0,112232.0,507.0,-143.0
2026-04-09 22:09:41.426354,232121,1511428634,1511430316,-1.188768,0.113216,-0.105408,4.61125,10.61375,-50.645,18.640001,-5.0,14.000001,concentric,6,5.0,42776.0,370710.0,112232.0,507.0,-143.0
2026-04-09 22:09:41.429027,232122,1511437648,1511439061,-1.057984,0.187392,-0.072224,8.39125,8.7325,-47.565,18.032001,-5.304,13.192,concentric,6,5.0,42776.0,370710.0,112232.0,507.0,-143.0
2026-04-09 22:09:41.433843,232123,1511446593,1511447779,-1.057984,0.187392,-0.072224,6.62375,8.39125,-47.215,18.032001,-5.304,13.192,concentric,6,5.0,42776.0,370710.0,112232.0,507.0,-143.0
2026-04-09 22:09:41.436335,232124,1511461097,1511462805,-1.065792,0.089792,0.021472,0.8225,11.515,-49.41125,17.544,-4.712,13.768001,concentric,6,5.0,42776.0,370710.0,112232.0,507.0,-143.0
2026-04-09 22:09:41.462214,232134,1511470113,1511471657,-1.065792,0.089792,0.021472,-4.73375,16.7475,-51.0475,17.544,-4.712,13.768001,concentric,6,5.0,43251.0,365130.0,108184.0,170.0,-133.0
2026-04-09 22:09:41.464030,232135,1511479081,1511480372,-1.110688,-0.023424,-0.169824,-9.6425,20.2475,-51.170002,17.68,-5.048,13.632001,concentric,6,5.0,43251.0,365130.0,108184.0,170.0,-133.0
2026-04-09 22:09:41.470150,232136,1511493594,1511495345,-1.110688,-0.023424,-0.169824,-9.59,19.81,-49.60375,17.68,-5.048,13.632001,concentric,6,5.0,43251.0,365130.0,108184.0,170.0,-133.0
2026-04-09 22:09:41.472638,232137,1511502611,1511504087,-1.065792,0.037088,-0.261568,-4.62875,15.70625,-46.19125,17.456001,-4.624,13.784,concentric,6,5.0,43251.0,365130.0,108184.0,170.0,-133.0
2026-04-09 22:09:41.502871,232138,1511511596,1511512800,-1.065792,0.037088,-0.261568,3.40375,10.50875,-43.68875,17.456001,-4.624,13.784,concentric,6,5.0,43251.0,365130.0,108184.0,170.0,-133.0
2026-04-09 22:09:41.506429,232139,1511520482,1511521574,-0.993568,0.072224,-0.023424,7.56,7.93625,-44.19625,17.248001,-4.752,13.240001,concentric,6,5.0,43251.0,365130.0,108184.0,170.0,-133.0
2026-04-09 22:09:41.508878,232140,1511534966,1511536462,-0.993568,0.072224,-0.023424,9.14375,8.86375,-46.08625,17.248001,-4.752,13.240001,concentric,6,5.0,43251.0,365130.0,108184.0,170.0,-133.0
2026-04-09 22:09:41.513918,232141,1511543931,1511545246,-0.968192,0.076128,-0.017568,8.11125,13.25625,-48.22125,16.744001,-4.2,13.184001,concentric,6,5.0,43251.0,365130.0,108184.0,170.0,-133.0
2026-04-09 22:09:41.544429,232142,1511552870,1511553948,-0.968192,0.076128,-0.017568,1.68,18.10375,-50.19875,16.744001,-4.2,13.184001,concentric,6,5.0,43251.0,365130.0,108184.0,170.0,-133.0
2026-04-09 22:09:41.573908,232152,1511567909,1511568873,-0.976,-0.064416,-0.150304,-6.81625,19.62625,-49.11375,16.0,-4.576,13.296001,concentric,6,5.0,43454.0,363190.0,107149.0,121.0,-143.0
2026-04-09 22:09:41.576401,232153,1511576859,1511577632,-0.976,-0.033184,-0.245952,-7.1575,16.0825,-47.53,16.0,-4.576,13.296001,concentric,6,5.0,43454.0,363190.0,107149.0,121.0,-143.0
2026-04-09 22:09:41.579178,232154,1511586405,1511588450,-0.93696,-0.044896,-0.245952,2.02125,11.76,-45.78875,16.328001,-4.512,12.536,concentric,6,5.0,43454.0,363190.0,107149.0,121.0,-143.0
2026-04-09 22:09:41.581392,232155,1511595358,1511597163,-0.93696,-0.044896,-0.245952,11.33125,7.90125,-45.15,16.328001,-4.512,12.536,concentric,6,5.0,43454.0,363190.0,107149.0,121.0,-143.0
2026-04-09 22:09:41.583879,232156,1511609846,1511612098,-0.977952,-0.00976,-0.218624,16.02125,3.605,-43.4875,15.760001,-3.56,13.928,concentric,6,5.0,43454.0,363190.0,107149.0,121.0,-143.0
2026-04-09 22:09:41.590343,232157,1511618814,1511620825,-0.886208,0.003904,-0.074176,18.38375,0.735,-42.35,16.408,-3.72,12.496,concentric,6,5.0,43454.0,363190.0,107149.0,121.0,-143.0
2026-04-09 22:09:41.621578,232158,1511627752,1511629534,-0.886208,0.003904,-0.074176,13.93875,1.995,-41.755,16.408,-3.72,12.496,concentric,6,5.0,43454.0,363190.0,107149.0,121.0,-143.0
2026-04-09 22:09:41.626040,232159,1511642277,1511644422,-0.903776,-0.0976,-0.027328,6.85125,4.69,-40.915,15.912001,-3.768,13.080001,concentric,6,5.0,43454.0,363190.0,107149.0,121.0,-143.0
2026-04-09 22:09:41.629169,232160,1511651260,1511653158,-0.903776,-0.0976,-0.027328,1.30375,5.915,-42.5775,15.912001,-3.768,13.080001,concentric,6,5.0,43454.0,363190.0,107149.0,121.0,-143.0
2026-04-09 22:09:41.633241,232161,1511660174,1511661864,-0.90768,-0.062464,-0.21472,-0.13125,5.8625,-42.595,16.064001,-3.672,14.704,concentric,6,5.0,43454.0,363190.0,107149.0,121.0,-143.0
2026-04-09 22:09:41.698272,232171,1511674804,1511676820,-0.90768,-0.062464,-0.21472,4.52375,2.28375,-41.755,16.064001,-3.672,14.704,concentric,6,5.0,43642.0,359731.0,104924.0,38.0,-138.0
2026-04-09 22:09:41.700553,232172,1511683781,1511685537,-0.944768,-0.005856,-0.300608,15.435,-2.09125,-39.235,14.944,-3.64,14.76,concentric,6,5.0,43642.0,359731.0,104924.0,38.0,-138.0
2026-04-09 22:09:41.702121,232173,1511692717,1511694251,-0.944768,-0.005856,-0.300608,22.61,-6.30875,-37.065,14.944,-3.64,14.76,concentric,6,5.0,43642.0,359731.0,104924.0,38.0,-138.0
2026-04-09 22:09:41.708053,232174,1511701670,1511702930,-0.90768,-0.189344,-0.083936,19.355,-6.30875,-38.9375,15.592001,-3.72,13.160001,concentric,6,5.0,43642.0,359731.0,104924.0,38.0,-138.0
2026-04-09 22:09:41.708162,232175,1511716135,1511717866,-0.90768,-0.189344,-0.083936,19.39875,-2.28375,-34.895,15.592001,-3.72,13.160001,concentric,6,5.0,43642.0,359731.0,104924.0,38.0,-138.0
2026-04-09 22:09:41.708983,232176,1511725054,1511726581,-0.950624,0.021472,0.033184,27.3,-0.1925,-31.57875,15.368001,-3.36,14.008,concentric,6,5.0,43642.0,359731.0,104924.0,38.0,-138.0
2026-04-09 22:09:41.713056,232177,1511733986,1511735346,-0.950624,0.021472,0.033184,26.87125,1.56625,-32.20875,15.368001,-3.36,14.008,concentric,6,5.0,43642.0,359731.0,104924.0,38.0,-138.0
2026-04-09 22:09:41.743858,232178,1511748545,1511750316,-0.925248,-0.05856,-0.111264,16.30125,1.54,-32.375,14.472001,-2.712,13.880001,concentric,6,5.0,43642.0,359731.0,104924.0,38.0,-138.0
2026-04-09 22:09:41.748326,232179,1511757475,1511759018,-0.925248,-0.05856,-0.325984,8.91625,-0.11375,-31.185,14.472001,-2.712,13.880001,concentric,6,5.0,43642.0,359731.0,104924.0,38.0,-138.0
2026-04-09 22:09:41.775701,232190,1511766450,1511767790,-1.016992,-0.183488,-0.325984,8.46125,-1.89,-29.295,16.104,-2.36,14.792001,concentric,6,5.0,43822.0,356757.0,102856.0,-43.0,-118.0
2026-04-09 22:09:41.776541,232191,1511781120,1511782731,-0.933056,-0.103456,0.023424,12.4775,-0.95375,-26.53875,15.736001,-2.896,13.144001,concentric,6,5.0,43822.0,356757.0,102856.0,-43.0,-118.0
2026-04-09 22:09:41.782112,232192,1511790141,1511791455,-0.933056,-0.103456,0.023424,24.22875,1.37375,-21.28,15.736001,-2.896,13.144001,concentric,6,5.0,43822.0,356757.0,102856.0,-43.0,-118.0
2026-04-09 22:09:41.783413,232193,1511799083,1511800253,-0.944768,-0.0488,-0.03904,26.53875,4.0425,-18.2875,13.856001,-2.4,15.720001,concentric,6,5.0,43822.0,356757.0,102856.0,-43.0,-118.0
2026-04-09 22:09:41.784576,232194,1511808079,1511808967,-0.944768,-0.0488,-0.03904,16.33625,6.055,-16.5725,13.856001,-2.4,15.720001,concentric,6,5.0,43822.0,356757.0,102856.0,-43.0,-118.0
2026-04-09 22:09:41.815050,232195,1511822588,1511823888,-0.944768,-0.140544,-0.177632,4.80375,6.02875,-14.77,13.6,-2.776,15.576001,concentric,6,5.0,43822.0,356757.0,102856.0,-43.0,-118.0
2026-04-09 22:09:41.817384,232196,1511831508,1511832581,-0.944768,-0.140544,-0.177632,-2.33625,5.46875,-14.8575,13.6,-2.776,15.576001,concentric,6,5.0,43822.0,356757.0,102856.0,-43.0,-118.0
2026-04-09 22:09:41.822088,232197,1511840452,1511841329,-0.923296,-0.099552,-0.066368,5.04875,4.08625,-13.41375,15.280001,-2.784,13.000001,concentric,6,5.0,43822.0,356757.0,102856.0,-43.0,-118.0
2026-04-09 22:09:41.826078,232198,1511854943,1511856248,-0.923296,-0.099552,-0.066368,13.04625,2.61625,-10.92875,15.280001,-2.784,13.000001,concentric,6,5.0,43822.0,356757.0,102856.0,-43.0,-118.0
2026-04-09 22:09:41.856388,232199,1511863874,1511865044,-0.86864,-0.152256,-0.093696,10.36875,3.185,-8.5225,14.704,-3.04,12.976001,concentric,6,5.0,43822.0,356757.0,102856.0,-43.0,-118.0
2026-04-09 22:09:41.881468,232209,1511872893,1511873797,-0.86864,-0.152256,-0.093696,5.66125,4.97,-4.935,14.704,-3.04,12.976001,concentric,6,5.0,43813.0,356002.0,102423.0,-50.0,-145.0
2026-04-09 22:09:41.885731,232210,1511887347,1511888766,-0.847168,-0.132736,0.02928,1.5575,8.56625,-3.36875,15.072001,-2.552,12.72,concentric,6,5.0,43813.0,356002.0,102423.0,-50.0,-145.0
2026-04-09 22:09:41.887445,232211,1511896260,1511897486,-0.847168,-0.132736,0.02928,-4.89125,10.91125,-3.77125,15.072001,-2.552,12.72,concentric,6,5.0,43813.0,356002.0,102423.0,-50.0,-145.0
2026-04-09 22:09:41.888963,232212,1511905236,1511906250,-0.812032,-0.070272,-0.085888,-8.82875,9.5375,-4.01625,14.592001,-3.024,14.504001,concentric,6,5.0,43813.0,356002.0,102423.0,-50.0,-145.0
2026-04-09 22:09:41.892339,232213,1511919720,1511921190,-0.837408,-0.138592,-0.103456,-7.8225,6.9475,-4.45375,14.216001,-3.4,13.088,concentric,6,5.0,43813.0,356002.0,102423.0,-50.0,-145.0
2026-04-09 22:09:41.922665,232214,1511928641,1511929899,-0.837408,-0.138592,-0.103456,-8.82,8.44375,-5.57375,14.216001,-3.4,13.088,concentric,6,5.0,43813.0,356002.0,102423.0,-50.0,-145.0
2026-04-09 22:09:41.927474,232215,1511937575,1511938669,-0.837408,-0.138592,-0.103456,-11.08625,12.24125,-3.64875,14.216001,-3.4,13.088,concentric,6,5.0,43813.0,356002.0,102423.0,-50.0,-145.0
2026-04-09 22:09:41.933335,232216,1511946478,1511947352,-0.812032,-0.181536,-0.01952,-10.33375,14.56875,-0.88375,14.736001,-3.064,11.824,concentric,6,5.0,43813.0,356002.0,102423.0,-50.0,-145.0
2026-04-09 22:09:41.936177,232217,1511960946,1511962320,-0.753472,-0.089792,-0.025376,-7.20125,14.42875,0.30625,14.448001,-2.56,14.264001,concentric,6,5.0,43813.0,356002.0,102423.0,-50.0,-145.0
2026-04-09 21:58:47.666614,115242,857704452,857705627,0.9272,-0.417728,0.142496,7.16625,-9.3975,-2.765,-24.224,15.848001,17.472,eccentric,5,3.0,36065.0,381967.0,110020.0,1100.0,-144.0
2026-04-09 21:58:47.669217,115243,857713442,857714323,0.9272,-0.417728,0.142496,4.76,-9.8875,-2.065,-24.224,15.848001,17.472,eccentric,5,3.0,36065.0,381967.0,110020.0,1100.0,-144.0
2026-04-09 21:58:47.702271,115244,857722418,857723022,0.929152,-0.382592,0.11712,4.66375,-10.2025,-1.435,-24.376001,15.352001,18.104,eccentric,5,3.0,36065.0,381967.0,110020.0,1100.0,-144.0
2026-04-09 21:58:47.706573,115245,857737259,857737987,0.929152,-0.382592,0.11712,3.2375,-10.255,-0.83125,-24.376001,15.352001,18.104,eccentric,5,3.0,36065.0,381967.0,110020.0,1100.0,-144.0
2026-04-09 21:58:47.708170,115246,857746643,857748744,0.925248,-0.402112,0.130784,-0.69125,-10.00125,-0.48125,-24.800001,15.440001,18.632,eccentric,5,3.0,36065.0,381967.0,110020.0,1100.0,-144.0
2026-04-09 21:58:47.710673,115247,857755607,857757490,0.925248,-0.402112,0.130784,-5.92375,-9.87,0.30625,-24.800001,15.440001,18.632,eccentric,5,3.0,36065.0,381967.0,110020.0,1100.0,-144.0
2026-04-09 21:58:47.712280,115248,857770100,857772385,0.909632,-0.382592,0.119072,-6.405,-9.975,1.225,-23.976002,15.168001,17.528002,eccentric,5,3.0,36065.0,381967.0,110020.0,1100.0,-144.0
2026-04-09 21:58:47.716437,115249,857778997,857781083,0.909632,-0.382592,0.119072,-3.57875,-9.63375,1.82875,-23.976002,15.168001,17.528002,eccentric,5,3.0,36065.0,381967.0,110020.0,1100.0,-144.0
2026-04-09 21:58:47.722796,115250,857787925,857789777,0.905728,-0.38064,0.124928,-5.10125,-9.63375,2.09125,-23.688002,15.336,18.400002,eccentric,5,3.0,36065.0,381967.0,110020.0,1100.0,-144.0
2026-04-09 21:58:47.752989,115261,857802538,857804698,0.909632,-0.406016,0.119072,-7.5775,-9.52875,2.24,-23.384,15.632001,17.0,eccentric,5,3.0,36145.0,382724.0,110576.0,1162.0,-137.0
2026-04-09 21:58:47.755846,115262,857811716,857813633,0.909632,-0.406016,0.119072,-9.10875,-8.61875,2.54625,-23.384,15.632001,17.0,eccentric,5,3.0,36145.0,382724.0,110576.0,1162.0,-137.0
2026-04-09 21:58:47.758171,115263,857820677,857822365,0.909632,-0.37088,0.080032,-9.10875,-8.12875,2.51125,-23.384,15.632001,19.048,eccentric,5,3.0,36145.0,382724.0,110576.0,1162.0,-137.0
2026-04-09 21:58:47.761485,115264,857829636,857831069,0.913536,-0.37088,0.080032,-9.77375,-7.49875,2.5375,-24.664001,15.416,18.92,eccentric,5,3.0,36145.0,382724.0,110576.0,1162.0,-137.0
2026-04-09 21:58:47.790024,115265,857844235,857845966,0.899872,-0.404064,0.111264,-14.2975,-7.4725,2.905,-23.848001,15.712001,18.792002,eccentric,5,3.0,36145.0,382724.0,110576.0,1162.0,-137.0
2026-04-09 21:58:47.794460,115266,857853223,857854740,0.899872,-0.404064,0.111264,-17.96375,-6.41375,2.8175,-23.848001,15.712001,18.792002,eccentric,5,3.0,36145.0,382724.0,110576.0,1162.0,-137.0
2026-04-09 21:58:47.795925,115267,857862185,857863449,0.890112,-0.382592,0.076128,-17.7625,-6.76375,3.19375,-23.152,15.320001,17.12,eccentric,5,3.0,36145.0,382724.0,110576.0,1162.0,-137.0
2026-04-09 21:58:47.802690,115268,857876674,857878384,0.890112,-0.382592,0.076128,-14.105001,-8.1025,2.975,-23.152,15.320001,17.12,eccentric,5,3.0,36145.0,382724.0,110576.0,1162.0,-137.0
2026-04-09 21:58:47.831757,115269,857885607,857887080,0.874496,-0.378688,0.07808,-14.980001,-8.365,2.14375,-23.168001,14.904,16.408,eccentric,5,3.0,36145.0,382724.0,110576.0,1162.0,-137.0
2026-04-09 21:58:47.838759,115270,857894523,857895799,0.874496,-0.378688,0.07808,-19.5825,-7.49875,1.07625,-23.168001,14.904,16.408,eccentric,5,3.0,36145.0,382724.0,110576.0,1162.0,-137.0
2026-04-09 21:58:47.860750,115280,857903843,857904625,0.860832,-0.374784,0.07808,-20.125,-7.0,-0.0525,-22.240002,15.200001,16.44,eccentric,5,3.0,36087.0,382946.0,110617.0,1162.0,-151.0
2026-04-09 21:58:47.862445,115281,857918916,857919552,0.860832,-0.374784,0.07808,-17.2375,-7.8225,-1.04125,-22.240002,15.200001,16.44,eccentric,5,3.0,36087.0,382946.0,110617.0,1162.0,-151.0
2026-04-09 21:58:47.866832,115282,857928188,857930406,0.84912,-0.37088,0.080032,-15.82875,-8.61875,-1.1025,-24.208002,15.264001,16.312,eccentric,5,3.0,36087.0,382946.0,110617.0,1162.0,-151.0
2026-04-09 21:58:47.868258,115283,857937135,857939111,0.84912,-0.37088,0.080032,-15.95125,-8.60125,-0.5425,-24.208002,15.264001,16.312,eccentric,5,3.0,36087.0,382946.0,110617.0,1162.0,-151.0
2026-04-09 21:58:47.870119,115284,857946094,857947849,0.83936,-0.345504,0.056608,-15.72375,-7.98875,-0.93625,-23.928001,15.128,16.960001,eccentric,5,3.0,36087.0,382946.0,110617.0,1162.0,-151.0
2026-04-09 21:58:47.900877,115285,857960581,857962765,0.83936,-0.345504,0.056608,-14.13125,-7.9975,-1.98625,-23.928001,15.128,16.960001,eccentric,5,3.0,36087.0,382946.0,110617.0,1162.0,-151.0
2026-04-09 21:58:47.903161,115286,857969514,857971468,0.851072,-0.35136,0.044896,-16.0475,-7.14,-4.45375,-22.320002,14.712001,16.096,eccentric,5,3.0,36087.0,382946.0,110617.0,1162.0,-151.0
2026-04-09 21:58:47.907547,115287,857978438,857980199,0.851072,-0.35136,0.044896,-17.45625,-6.50125,-6.125,-22.320002,14.712001,16.096,eccentric,5,3.0,36087.0,382946.0,110617.0,1162.0,-151.0
2026-04-09 21:58:47.938749,115288,857992939,857995176,0.851072,-0.423584,0.060512,-16.47625,-6.39625,-6.8075,-21.920002,14.792001,15.304001,eccentric,5,3.0,36087.0,382946.0,110617.0,1162.0,-151.0
2026-04-09 21:58:47.965674,115298,858001872,858003898,0.831552,-0.384544,0.054656,-11.27,-6.475,-6.86875,-21.928001,15.288001,16.368,eccentric,5,3.0,36063.0,382516.0,110289.0,1125.0,-139.0
2026-04-09 21:58:47.968728,115299,858011175,858012661,0.831552,-0.384544,0.054656,-6.18625,-6.3175,-5.62625,-21.928001,15.288001,16.368,eccentric,5,3.0,36063.0,382516.0,110289.0,1125.0,-139.0
2026-04-09 21:58:47.970945,115300,858025897,858027632,0.827648,-0.345504,0.025376,-5.52125,-5.43375,-5.01375,-22.784,14.800001,16.792002,eccentric,5,3.0,36063.0,382516.0,110289.0,1125.0,-139.0
2026-04-09 21:58:47.972818,115301,858034853,858036401,0.827648,-0.345504,0.025376,-6.65875,-5.565,-4.87375,-22.784,14.800001,16.792002,eccentric,5,3.0,36063.0,382516.0,110289.0,1125.0,-139.0
2026-04-09 21:58:47.974438,115302,858043828,858045126,0.833504,-0.33184,0.015616,-9.625,-5.2675,-6.15125,-22.776001,14.752001,16.608002,eccentric,5,3.0,36063.0,382516.0,110289.0,1125.0,-139.0
2026-04-09 21:58:47.978053,115303,858052767,858053861,0.833504,-0.33184,0.015616,-13.4225,-5.6175,-7.4725,-22.776001,14.752001,16.608002,eccentric,5,3.0,36063.0,382516.0,110289.0,1125.0,-139.0
2026-04-09 21:58:48.033850,115304,858067250,858068791,0.823744,-0.40992,0.056608,-17.0275,-5.32,-8.72375,-22.096,13.992001,15.632001,eccentric,5,3.0,36063.0,382516.0,110289.0,1125.0,-139.0
2026-04-09 21:58:48.037278,115305,858076164,858077496,0.823744,-0.40992,0.056608,-14.07875,-4.235,-9.3625,-22.096,13.992001,15.632001,eccentric,5,3.0,36063.0,382516.0,110289.0,1125.0,-139.0
2026-04-09 21:58:48.039745,115306,858085056,858086177,0.808128,-0.365024,0.040992,-7.315,-3.815,-9.415,-21.528002,14.56,15.608001,eccentric,5,3.0,36063.0,382516.0,110289.0,1125.0,-139.0
2026-04-09 21:58:48.042229,115307,858099557,858101155,0.808128,-0.365024,0.040992,-3.9375,-2.9225,-8.785,-21.528002,14.56,15.608001,eccentric,5,3.0,36063.0,382516.0,110289.0,1125.0,-139.0
2026-04-09 21:58:48.074361,115318,858108594,858109959,0.827648,-0.335744,-0.003904,-2.09125,-1.65375,-9.66,-21.624,14.248001,16.92,eccentric,5,3.0,36140.0,384040.0,111461.0,1241.0,-150.0
2026-04-09 21:58:48.076495,115319,858117511,858118749,0.827648,-0.335744,-0.003904,-2.5375,-0.8925,-11.62875,-21.624,14.248001,16.92,eccentric,5,3.0,36140.0,384040.0,111461.0,1241.0,-150.0
2026-04-09 21:58:48.079096,115320,858132147,858133721,0.815936,-0.36112,0.02928,-5.52125,0.35875,-13.39625,-21.496,14.672001,15.464001,eccentric,5,3.0,36140.0,384040.0,111461.0,1241.0,-150.0
2026-04-09 21:58:48.080955,115321,858141118,858142463,0.815936,-0.36112,0.02928,-6.265,2.03875,-14.49875,-21.496,14.672001,15.464001,eccentric,5,3.0,36140.0,384040.0,111461.0,1241.0,-150.0
2026-04-09 21:58:48.083485,115322,858150048,858151187,0.798368,-0.374784,0.046848,-1.95125,3.01,-14.315001,-21.072,14.664001,16.976002,eccentric,5,3.0,36140.0,384040.0,111461.0,1241.0,-150.0
2026-04-09 21:58:48.088654,115323,858164543,858166090,0.792512,-0.31232,0.005856,3.07125,3.08,-13.545,-22.088001,13.920001,17.472,eccentric,5,3.0,36140.0,384040.0,111461.0,1241.0,-150.0
2026-04-09 21:58:48.097213,115324,858173460,858174820,0.792512,-0.31232,0.005856,6.825,3.19375,-12.97625,-22.088001,13.920001,17.472,eccentric,5,3.0,36140.0,384040.0,111461.0,1241.0,-150.0
2026-04-09 21:58:48.128691,115325,858182403,858183543,0.798368,-0.304512,-0.00976,6.15125,3.0275,-12.8625,-22.088001,13.992001,16.592001,eccentric,5,3.0,36140.0,384040.0,111461.0,1241.0,-150.0
2026-04-09 21:58:48.132271,115326,858191358,858192244,0.798368,-0.304512,-0.00976,0.63875,4.0075,-14.105001,-21.296001,13.992001,16.592001,eccentric,5,3.0,36140.0,384040.0,111461.0,1241.0,-150.0
2026-04-09 21:58:48.159307,115336,858205989,858207201,0.796416,-0.357216,0.017568,-4.01625,4.97875,-14.69125,-20.864,13.880001,16.208,eccentric,5,3.0,35936.0,382136.0,109962.0,1083.0,-138.0
2026-04-09 21:58:48.159750,115337,858214928,858215914,0.796416,-0.357216,0.017568,-2.345,5.36375,-15.89,-20.864,13.880001,16.208,eccentric,5,3.0,35936.0,382136.0,109962.0,1083.0,-138.0
2026-04-09 21:58:48.162265,115338,858223883,858224622,0.765184,-0.388448,0.02928,2.2925,6.0375,-15.8375,-21.168001,13.920001,16.128,eccentric,5,3.0,35936.0,382136.0,109962.0,1083.0,-138.0
2026-04-09 21:58:48.164755,115339,858238815,858239531,0.765184,-0.388448,0.02928,5.36375,6.8075,-14.761251,-21.168001,13.920001,16.128,eccentric,5,3.0,35936.0,382136.0,109962.0,1083.0,-138.0
2026-04-09 21:58:48.195012,115340,858248205,858250371,0.74176,-0.320128,-0.007808,8.51375,7.5775,-13.5275,-20.968,13.832001,16.152,eccentric,5,3.0,35936.0,382136.0,109962.0,1083.0,-138.0
2026-04-09 21:58:48.198489,115341,858257110,858259069,0.74176,-0.320128,-0.007808,9.0125,7.665,-13.011251,-20.968,13.832001,16.152,eccentric,5,3.0,35936.0,382136.0,109962.0,1083.0,-138.0
2026-04-09 21:58:48.201964,115342,858266043,858267760,0.76128,-0.290848,-0.052704,5.83625,7.1925,-15.2775,-21.176,13.512001,16.352001,eccentric,5,3.0,35936.0,382136.0,109962.0,1083.0,-138.0
2026-04-09 21:58:48.206051,115343,858280522,858282715,0.76128,-0.290848,-0.052704,4.305,7.1575,-16.37125,-21.176,13.512001,16.352001,eccentric,5,3.0,35936.0,382136.0,109962.0,1083.0,-138.0
2026-04-09 21:58:48.238621,115344,858289418,858291442,0.769088,-0.368928,0.035136,1.435,8.6275,-17.64,-22.176,14.120001,17.208,eccentric,5,3.0,35936.0,382136.0,109962.0,1083.0,-138.0
2026-04-09 21:58:48.239715,115345,858298367,858300189,0.769088,-0.368928,0.035136,4.99625,10.22875,-18.97,-22.176,14.120001,17.208,eccentric,5,3.0,35936.0,382136.0,109962.0,1083.0,-138.0
2026-04-09 21:58:48.264696,115355,858313365,858315204,0.726144,-0.359168,0.056608,11.935,10.57875,-18.10375,-21.640001,13.64,16.664001,eccentric,5,3.0,35818.0,382168.0,109858.0,1086.0,-147.0
2026-04-09 21:58:48.267268,115356,858322270,858323941,0.726144,-0.327936,-0.035136,13.5625,10.05375,-17.053751,-21.640001,13.64,16.664001,eccentric,5,3.0,35818.0,382168.0,109858.0,1086.0,-147.0
2026-04-09 21:58:48.269686,115357,858331230,858332673,0.75152,-0.327936,-0.035136,11.515,9.63375,-15.86375,-21.224,13.400001,17.448,eccentric,5,3.0,35818.0,382168.0,109858.0,1086.0,-147.0
2026-04-09 21:58:48.272234,115358,858345716,858347631,0.749568,-0.261568,-0.027328,8.8025,9.5375,-14.665,-21.544,13.480001,17.720001,eccentric,5,3.0,35818.0,382168.0,109858.0,1086.0,-147.0
2026-04-09 21:58:48.342608,115359,858354627,858356325,0.749568,-0.261568,-0.027328,7.74375,9.292501,-15.56625,-21.544,13.480001,17.720001,eccentric,5,3.0,35818.0,382168.0,109858.0,1086.0,-147.0
2026-04-09 21:58:48.346107,115360,858363559,858365106,0.759328,-0.325984,0.040992,6.90375,9.02125,-18.31375,-22.024,13.880001,17.352001,eccentric,5,3.0,35818.0,382168.0,109858.0,1086.0,-147.0
2026-04-09 21:58:48.373662,115361,858372513,858373800,0.759328,-0.325984,0.040992,12.792501,8.82,-21.7875,-22.024,13.880001,17.352001,eccentric,5,3.0,35818.0,382168.0,109858.0,1086.0,-147.0
2026-04-09 21:58:48.376084,115362,858386968,858388708,0.730048,-0.298656,0.031232,18.15625,8.81125,-23.31,-21.992,13.368001,17.176,eccentric,5,3.0,35818.0,382168.0,109858.0,1086.0,-147.0
2026-04-09 21:58:48.378572,115363,858395891,858397394,0.730048,-0.298656,0.031232,14.95375,8.23375,-22.14625,-21.992,13.368001,17.176,eccentric,5,3.0,35818.0,382168.0,109858.0,1086.0,-147.0
2026-04-09 21:58:48.406048,115374,858404993,858406191,0.755424,-0.386496,-0.001952,8.35625,8.26875,-20.79,-21.888,13.072001,17.04,eccentric,5,3.0,35689.0,382051.0,109650.0,1083.0,-141.0
2026-04-09 21:58:48.408516,115375,858419502,858421263,0.755424,-0.386496,-0.001952,2.44125,7.91,-18.41,-21.888,13.072001,17.04,eccentric,5,3.0,35689.0,382051.0,109650.0,1083.0,-141.0
2026-04-09 21:58:48.411041,115376,858428445,858430033,0.79056,-0.261568,0.037088,4.22625,6.81625,-16.19625,-21.36,13.816001,17.368,eccentric,5,3.0,35689.0,382051.0,109650.0,1083.0,-141.0
2026-04-09 21:58:48.413571,115377,858437349,858438755,0.79056,-0.261568,0.037088,7.42,7.74375,-17.272501,-21.36,13.816001,17.368,eccentric,5,3.0,35689.0,382051.0,109650.0,1083.0,-141.0
2026-04-09 21:58:48.416128,115378,858451871,858453640,0.7808,-0.30256,0.07808,7.8575,9.45875,-20.37,-21.784,12.856001,17.816,eccentric,5,3.0,35689.0,382051.0,109650.0,1083.0,-141.0
2026-04-09 21:58:48.418991,115379,858460906,858462388,0.7808,-0.30256,0.07808,9.12625,9.9225,-23.59875,-21.784,12.856001,17.816,eccentric,5,3.0,35689.0,382051.0,109650.0,1083.0,-141.0
2026-04-09 21:58:48.421203,115380,858469992,858471105,0.747616,-0.345504,0.025376,9.17875,10.2025,-24.85875,-22.328001,13.112,17.968,eccentric,5,3.0,35689.0,382051.0,109650.0,1083.0,-141.0
2026-04-09 21:58:48.423574,115381,858478999,858479869,0.747616,-0.345504,0.025376,8.05,9.1175,-23.52875,-22.328001,13.112,17.968,eccentric,5,3.0,35689.0,382051.0,109650.0,1083.0,-141.0
2026-04-09 21:58:48.426115,115382,858493522,858494825,0.792512,-0.3416,0.025376,7.55125,9.03,-21.35,-22.168001,12.936001,18.112001,eccentric,5,3.0,35689.0,382051.0,109650.0,1083.0,-141.0
2026-04-09 21:58:48.429530,115383,858502610,858503546,0.792512,-0.3416,0.025376,5.5475,9.4675,-19.215,-22.168001,12.936001,18.112001,eccentric,5,3.0,35689.0,382051.0,109650.0,1083.0,-141.0
2026-04-09 21:58:48.453528,115393,858511645,858512369,0.808128,-0.25376,0.070272,5.11,10.22875,-19.74,-22.248001,12.696001,18.76,eccentric,5,3.0,35577.0,380813.0,108779.0,1014.0,-141.0
2026-04-09 21:58:48.456029,115394,858526713,858527327,0.806176,-0.310368,0.081984,4.03375,12.8625,-24.03625,-22.272001,12.392,18.2,eccentric,5,3.0,35577.0,380813.0,108779.0,1014.0,-141.0
2026-04-09 21:58:48.459779,115395,858536028,858538133,0.806176,-0.310368,0.081984,5.52125,13.3175,-27.65875,-22.272001,12.392,18.2,eccentric,5,3.0,35577.0,380813.0,108779.0,1014.0,-141.0
2026-04-09 21:58:48.493783,115396,858544973,858546851,0.77104,-0.378688,0.066368,8.93375,11.90875,-29.63625,-23.816002,12.216001,20.568,eccentric,5,3.0,35577.0,380813.0,108779.0,1014.0,-141.0
2026-04-09 21:58:48.497281,115397,858553979,858555552,0.77104,-0.378688,0.066368,9.91375,10.35125,-27.83375,-23.816002,12.216001,20.568,eccentric,5,3.0,35577.0,380813.0,108779.0,1014.0,-141.0
2026-04-09 21:58:48.499762,115398,858568477,858570492,0.77104,-0.284992,0.062464,9.66,9.56375,-23.135,-22.28,12.664001,18.408,eccentric,5,3.0,35577.0,380813.0,108779.0,1014.0,-141.0
2026-04-09 21:58:48.502275,115399,858577449,858579195,0.77104,-0.284992,0.062464,7.6125,9.58125,-19.8275,-22.28,12.664001,18.408,eccentric,5,3.0,35577.0,380813.0,108779.0,1014.0,-141.0
2026-04-09 21:58:48.532476,115400,858586395,858587914,0.778848,-0.247904,0.076128,5.88,10.36875,-18.69875,-23.976002,12.696001,19.568,eccentric,5,3.0,35577.0,380813.0,108779.0,1014.0,-141.0
2026-04-09 21:58:48.536071,115401,858600905,858602815,0.778848,-0.247904,0.076128,4.445,11.165,-20.72,-23.976002,12.696001,19.568,eccentric,5,3.0,35577.0,380813.0,108779.0,1014.0,-141.0
2026-04-09 21:58:48.561023,115411,858609958,858611572,0.784704,-0.296704,0.085888,6.48375,10.535,-23.31875,-22.792002,12.72,18.800001,eccentric,5,3.0,35564.0,383785.0,110862.0,1257.0,-147.0
2026-04-09 21:58:48.563518,115412,858618958,858620345,0.784704,-0.296704,0.085888,11.31375,8.925,-24.3425,-22.792002,12.72,18.800001,eccentric,5,3.0,35564.0,383785.0,110862.0,1257.0,-147.0
2026-04-09 21:58:48.566064,115413,858627891,858629103,0.7808,-0.284992,0.07808,11.87375,7.4725,-23.70375,-22.728,12.184001,18.936,eccentric,5,3.0,35564.0,383785.0,110862.0,1257.0,-147.0
2026-04-09 21:58:48.568506,115414,858642450,858644022,0.7808,-0.284992,0.07808,8.855001,6.9475,-21.866251,-22.728,12.184001,18.936,eccentric,5,3.0,35564.0,383785.0,110862.0,1257.0,-147.0
2026-04-09 21:58:48.587331,115415,858651405,858652748,0.786656,-0.228384,0.080032,4.0775,6.64125,-20.991251,-22.560001,11.824,19.216002,eccentric,5,3.0,35564.0,383785.0,110862.0,1257.0,-147.0
2026-04-09 21:58:48.589774,115416,858660336,858661479,0.786656,-0.228384,0.080032,4.36625,6.615,-20.41375,-22.560001,11.824,19.216002,eccentric,5,3.0,35564.0,383785.0,110862.0,1257.0,-147.0
2026-04-09 21:58:48.633278,115417,858674847,858676376,0.77104,-0.228384,0.0976,6.09875,7.1925,-23.19625,-23.04,11.928,19.024,eccentric,5,3.0,35564.0,383785.0,110862.0,1257.0,-147.0
2026-04-09 21:58:48.636600,115418,858683795,858685084,0.77104,-0.325984,0.062464,6.7725,6.685,-27.1425,-23.04,11.928,19.024,eccentric,5,3.0,35564.0,383785.0,110862.0,1257.0,-147.0
2026-04-09 21:58:48.639222,115419,858692729,858693791,0.765184,-0.325984,0.062464,10.9025,4.57625,-28.48125,-23.376001,11.528001,19.184,eccentric,5,3.0,35564.0,383785.0,110862.0,1257.0,-147.0
2026-04-09 21:58:48.669085,115429,858707737,858709137,0.763232,-0.257664,0.105408,13.125,2.9925,-27.39625,-23.352001,11.648001,18.592001,eccentric,5,3.0,35510.0,384299.0,111145.0,1302.0,-140.0
2026-04-09 21:58:48.670758,115430,858716801,858717827,0.763232,-0.257664,0.105408,12.74875,2.65125,-23.17,-23.352001,11.648001,18.592001,eccentric,5,3.0,35510.0,384299.0,111145.0,1302.0,-140.0
2026-04-09 21:58:48.672319,115431,858725824,858726565,0.755424,-0.220576,0.101504,8.47875,3.7975,-20.53625,-23.856,11.832001,19.616001,eccentric,5,3.0,35510.0,384299.0,111145.0,1302.0,-140.0
2026-04-09 21:58:48.676606,115432,858735258,858737323,0.755424,-0.220576,0.101504,4.82125,4.725,-20.51875,-23.856,11.832001,19.616001,eccentric,5,3.0,35510.0,384299.0,111145.0,1302.0,-140.0
2026-04-09 21:58:48.680210,115433,858749849,858750241,0.76128,-0.236192,0.064416,4.4275,5.04,-22.19875,-23.888,11.52,19.264002,eccentric,5,3.0,35510.0,384299.0,111145.0,1302.0,-140.0
2026-04-09 21:58:48.684347,115434,858759223,858761058,0.76128,-0.236192,0.064416,9.17,3.815,-23.7825,-23.888,11.52,19.264002,eccentric,5,3.0,35510.0,384299.0,111145.0,1302.0,-140.0
2026-04-09 21:58:48.715455,115435,858768139,858769757,0.7808,-0.298656,0.080032,13.011251,2.135,-24.885,-23.512001,11.320001,19.008001,eccentric,5,3.0,35510.0,384299.0,111145.0,1302.0,-140.0
2026-04-09 21:58:48.717090,115436,858777083,858778428,0.7808,-0.298656,0.080032,13.02,1.575,-22.75875,-23.512001,11.320001,19.008001,eccentric,5,3.0,35510.0,384299.0,111145.0,1302.0,-140.0
2026-04-09 21:58:48.721494,115437,858791556,858793398,0.813984,-0.26352,0.08784,11.62875,2.09125,-19.71375,-23.68,11.088,19.6,eccentric,5,3.0,35510.0,384299.0,111145.0,1302.0,-140.0
2026-04-09 21:58:48.725168,115438,858800481,858802101,0.813984,-0.26352,0.08784,5.6875,3.2375,-19.4775,-23.68,11.088,19.6,eccentric,5,3.0,35510.0,384299.0,111145.0,1302.0,-140.0
2026-04-09 21:58:48.755735,115449,858809867,858810839,0.804224,-0.183488,0.095648,3.50875,4.55,-19.34625,-23.856,11.272,19.384,eccentric,5,3.0,35515.0,383141.0,110388.0,1216.0,-143.0
2026-04-09 21:58:48.758202,115450,858824502,858825732,0.804224,-0.286944,0.03904,5.55625,5.20625,-21.7,-23.856,11.272,19.384,eccentric,5,3.0,35515.0,383141.0,110388.0,1216.0,-143.0
2026-04-09 21:58:48.759776,115451,858833454,858834452,0.802272,-0.286944,0.03904,8.26875,3.96375,-24.94625,-23.392,11.304001,20.04,eccentric,5,3.0,35515.0,383141.0,110388.0,1216.0,-143.0
2026-04-09 21:58:48.767730,115452,858842378,858843178,0.802272,-0.286944,0.03904,13.5975,1.51375,-24.675,-23.392,11.304001,20.04,eccentric,5,3.0,35515.0,383141.0,110388.0,1216.0,-143.0
2026-04-09 21:58:48.796346,115453,858856846,858858073,0.802272,-0.288896,0.050752,14.91875,0.00875,-21.83125,-24.272001,11.184001,19.552,eccentric,5,3.0,35515.0,383141.0,110388.0,1216.0,-143.0
2026-04-09 21:58:48.800733,115454,858865764,858866781,0.81008,-0.122976,0.11712,13.011251,-0.63,-19.1975,-23.664001,11.56,18.36,eccentric,5,3.0,35515.0,383141.0,110388.0,1216.0,-143.0
2026-04-09 21:58:48.802291,115455,858874660,858875500,0.81008,-0.122976,0.11712,10.92875,0.70875,-18.865,-23.664001,11.56,18.36,eccentric,5,3.0,35515.0,383141.0,110388.0,1216.0,-143.0
2026-04-09 21:58:48.807680,115456,858883590,858884215,0.81008,-0.122976,0.11712,6.58,3.15875,-22.40875,-23.664001,11.56,18.36,eccentric,5,3.0,35515.0,383141.0,110388.0,1216.0,-143.0
2026-04-09 21:58:48.836307,115457,858898392,858899118,0.808128,-0.244,0.074176,6.0025,4.47125,-26.495,-24.504002,10.792001,20.088001,eccentric,5,3.0,35515.0,383141.0,110388.0,1216.0,-143.0
2026-04-09 21:58:48.864215,115467,858907772,858910210,0.812032,-0.245952,0.05856,10.91125,3.255,-28.48125,-24.44,10.936001,20.048,eccentric,5,3.0,35606.0,383929.0,111050.0,1288.0,-152.0
2026-04-09 21:58:48.868269,115468,858916767,858918900,0.812032,-0.245952,0.05856,15.53125,2.1875,-27.265,-24.44,10.936001,20.048,eccentric,5,3.0,35606.0,383929.0,111050.0,1288.0,-152.0
2026-04-09 21:58:48.869766,115469,858931368,858931824,0.81008,-0.218624,0.05856,16.0125,1.42625,-23.555,-24.840002,10.264001,19.952002,eccentric,5,3.0,35606.0,383929.0,111050.0,1288.0,-152.0
2026-04-09 21:58:48.874068,115470,858940715,858942590,0.81008,-0.218624,0.05856,11.4275,1.05,-21.20125,-24.840002,10.264001,19.952002,eccentric,5,3.0,35606.0,383929.0,111050.0,1288.0,-152.0
2026-04-09 21:58:48.878870,115471,858949653,858951330,0.808128,-0.148352,0.08784,8.16375,1.82,-20.16,-24.728,10.864,19.728,eccentric,5,3.0,35606.0,383929.0,111050.0,1288.0,-152.0
2026-04-09 21:58:48.933502,115472,858958576,858960081,0.808128,-0.148352,0.08784,8.14625,2.23125,-20.79875,-24.728,10.864,19.728,eccentric,5,3.0,35606.0,383929.0,111050.0,1288.0,-152.0
2026-04-09 21:58:48.935757,115473,858973062,858974986,0.81008,-0.21472,0.025376,8.785,1.86375,-22.28625,-25.176,10.232,20.024,eccentric,5,3.0,35606.0,383929.0,111050.0,1288.0,-152.0
2026-04-09 21:58:48.940318,115474,858981980,858983650,0.81008,-0.21472,0.025376,11.40125,0.13125,-23.0475,-25.176,10.232,20.024,eccentric,5,3.0,35606.0,383929.0,111050.0,1288.0,-152.0
2026-04-09 21:58:48.942051,115475,858990888,858992397,0.833504,-0.201056,0.027328,15.0325,-1.46125,-21.16625,-24.496,10.864,20.288,eccentric,5,3.0,35606.0,383929.0,111050.0,1288.0,-152.0
2026-04-09 21:58:48.943669,115476,859005349,859007311,0.83936,-0.128832,0.091744,15.81125,-2.28375,-18.445,-24.496,10.864,19.112001,eccentric,5,3.0,35606.0,383929.0,111050.0,1288.0,-152.0
2026-04-09 21:58:48.968454,115486,859014366,859016042,0.83936,-0.128832,0.091744,10.885,-0.16625,-17.045,-24.784,10.584001,19.112001,eccentric,5,3.0,35605.0,382916.0,110410.0,1228.0,-141.0
2026-04-09 21:58:48.971017,115487,859023315,859024817,0.83936,-0.128832,0.091744,4.41875,2.4325,-19.1625,-24.784,10.584001,19.112001,eccentric,5,3.0,35605.0,382916.0,110410.0,1228.0,-141.0
2026-04-09 21:58:48.973486,115488,859037837,859039757,0.845216,-0.169824,0.05856,3.66625,4.025,-21.84,-25.784,10.56,20.128,eccentric,5,3.0,35605.0,382916.0,110410.0,1228.0,-141.0
2026-04-09 21:58:48.976018,115489,859046763,859048520,0.847168,-0.189344,-0.003904,7.23625,4.0425,-23.555,-25.856,10.752001,19.728,eccentric,5,3.0,35605.0,382916.0,110410.0,1228.0,-141.0
2026-04-09 21:58:48.978540,115490,859055712,859057232,0.847168,-0.189344,-0.003904,11.41875,2.49375,-22.98625,-25.856,10.752001,19.728,eccentric,5,3.0,35605.0,382916.0,110410.0,1228.0,-141.0
2026-04-09 21:58:49.008768,115491,859064735,859065999,0.847168,-0.189344,-0.003904,13.265,0.60375,-19.6525,-25.856,10.752001,19.728,eccentric,5,3.0,35605.0,382916.0,110410.0,1228.0,-141.0
2026-04-09 21:58:49.012259,115492,859079184,859080935,0.847168,-0.10736,0.060512,12.41625,0.0875,-16.4675,-25.696001,9.864,21.2,eccentric,5,3.0,35605.0,382916.0,110410.0,1228.0,-141.0
2026-04-09 21:58:49.015051,115493,859088108,859089651,0.847168,-0.142496,0.091744,8.74125,1.39125,-15.89,-25.28,10.152,20.080002,eccentric,5,3.0,35605.0,382916.0,110410.0,1228.0,-141.0
2026-04-09 21:58:49.019794,115494,859097027,859098360,0.847168,-0.142496,0.091744,3.08875,2.7825,-16.79125,-25.28,10.152,20.080002,eccentric,5,3.0,35605.0,382916.0,110410.0,1228.0,-141.0
2026-04-09 21:58:49.075972,115505,859112001,859113306,0.851072,-0.134688,0.040992,2.10875,3.4125,-17.465,-25.424002,10.024,20.336,eccentric,5,3.0,35632.0,385798.0,112421.0,1482.0,-141.0
2026-04-09 21:58:49.078550,115506,859121013,859122052,0.851072,-0.134688,0.040992,4.4275,3.35125,-17.5175,-25.424002,10.024,20.336,eccentric,5,3.0,35632.0,385798.0,112421.0,1482.0,-141.0
2026-04-09 21:58:49.081007,115507,859129893,859130772,0.84912,-0.10736,0.046848,7.0175,3.535,-16.9925,-25.480001,9.768001,19.688002,eccentric,5,3.0,35632.0,385798.0,112421.0,1482.0,-141.0
2026-04-09 21:58:49.083519,115508,859144475,859145733,0.84912,-0.10736,0.046848,8.42625,2.38875,-15.60125,-25.480001,9.768001,19.688002,eccentric,5,3.0,35632.0,385798.0,112421.0,1482.0,-141.0
2026-04-09 21:58:49.086020,115509,859153409,859154495,0.83936,-0.119072,0.066368,8.33875,1.7675,-13.83375,-25.352001,10.200001,20.296001,eccentric,5,3.0,35632.0,385798.0,112421.0,1482.0,-141.0
2026-04-09 21:58:49.088561,115510,859162359,859163200,0.83936,-0.119072,0.066368,7.49875,1.54875,-12.06625,-25.352001,10.200001,20.296001,eccentric,5,3.0,35632.0,385798.0,112421.0,1482.0,-141.0
2026-04-09 21:58:49.094767,115511,859171404,859171917,0.831552,-0.119072,0.025376,5.5125,0.28,-10.465,-25.448002,10.248,20.128,eccentric,5,3.0,35632.0,385798.0,112421.0,1482.0,-141.0
2026-04-09 21:58:49.125597,115512,859186406,859186945,0.837408,-0.07808,0.060512,5.46,-1.715,-9.61625,-25.688002,9.824,22.320002,eccentric,5,3.0,35632.0,385798.0,112421.0,1482.0,-141.0
2026-04-09 21:58:49.128477,115513,859195794,859197694,0.837408,-0.07808,0.060512,8.42625,-2.75625,-8.33,-25.688002,9.824,22.320002,eccentric,5,3.0,35632.0,385798.0,112421.0,1482.0,-141.0
2026-04-09 21:58:49.131014,115514,859204705,859206384,0.837408,-0.07808,0.060512,7.72625,-3.00125,-7.4025,-25.688002,9.824,22.320002,eccentric,5,3.0,35632.0,385798.0,112421.0,1482.0,-141.0
2026-04-09 21:58:49.155946,115524,859213775,859215145,0.854976,-0.128832,0.080032,4.9875,-1.89,-7.1575,-25.112001,9.72,19.624,eccentric,5,3.0,35551.0,384912.0,111743.0,1412.0,-136.0
2026-04-09 21:58:49.158571,115525,859228495,859230142,0.853024,-0.095648,0.070272,0.84,0.0875,-5.57375,-25.496,10.56,20.088001,eccentric,5,3.0,35551.0,384912.0,111743.0,1412.0,-136.0
2026-04-09 21:58:49.160968,115526,859237453,859238885,0.853024,-0.095648,0.070272,-2.77375,1.0675,-4.97875,-25.496,10.56,20.088001,eccentric,5,3.0,35551.0,384912.0,111743.0,1412.0,-136.0
2026-04-09 21:58:49.169792,115527,859246434,859247614,0.851072,-0.121024,0.02928,-1.54,2.73875,-5.13625,-25.496,9.464001,20.752,eccentric,5,3.0,35551.0,384912.0,111743.0,1412.0,-136.0
2026-04-09 21:58:49.232153,115528,859260927,859262520,0.851072,-0.121024,0.02928,-0.9625,3.1675,-5.9325,-25.44,9.464001,20.752,eccentric,5,3.0,35551.0,384912.0,111743.0,1412.0,-136.0
2026-04-09 21:58:49.234457,115529,859269863,859271270,0.851072,-0.1464,0.037088,1.02375,1.70625,-5.18,-25.512001,9.808001,20.328001,eccentric,5,3.0,35551.0,384912.0,111743.0,1412.0,-136.0
2026-04-09 21:58:49.239055,115530,859278772,859279955,0.851072,-0.1464,0.037088,1.82,0.6825,-3.185,-25.512001,9.808001,20.328001,eccentric,5,3.0,35551.0,384912.0,111743.0,1412.0,-136.0
2026-04-09 21:58:49.240757,115531,859293234,859294938,0.851072,-0.13664,0.080032,-1.19875,1.16375,-1.3825,-25.952002,10.152,20.800001,eccentric,5,3.0,35551.0,384912.0,111743.0,1412.0,-136.0
2026-04-09 21:58:49.242331,115532,859302144,859303624,0.851072,-0.13664,0.080032,-4.19125,1.58375,0.49,-25.952002,10.152,20.800001,eccentric,5,3.0,35551.0,384912.0,111743.0,1412.0,-136.0
2026-04-09 21:58:49.268233,115542,859311700,859312667,0.84912,-0.13664,0.0488,-6.8075,2.42375,0.65625,-26.072,10.120001,19.984001,eccentric,5,3.0,35513.0,382988.0,110419.0,1253.0,-144.0
2026-04-09 21:58:49.272387,115543,859320778,859321424,0.84912,-0.13664,0.0488,-7.48125,4.03375,0.35,-26.072,10.120001,19.984001,eccentric,5,3.0,35513.0,382988.0,110419.0,1253.0,-144.0
2026-04-09 21:58:49.275927,115544,859335722,859336387,0.841312,-0.134688,0.023424,-5.57375,3.3775,-0.1575,-26.568,10.208,20.816002,eccentric,5,3.0,35513.0,382988.0,110419.0,1253.0,-144.0
2026-04-09 21:58:49.276008,115545,859345016,859347155,0.841312,-0.134688,0.023424,-2.415,2.7125,-0.6475,-26.568,10.208,20.816002,eccentric,5,3.0,35513.0,382988.0,110419.0,1253.0,-144.0
2026-04-09 21:58:49.278144,115546,859354161,859355892,0.83936,-0.1464,0.0488,-0.93625,2.2575,-0.70875,-26.256,10.112,20.616001,eccentric,5,3.0,35513.0,382988.0,110419.0,1253.0,-144.0
2026-04-09 21:58:49.308404,115547,859363188,859364592,0.83936,-0.1464,0.0488,-1.72375,2.555,-0.0175,-26.256,10.112,20.616001,eccentric,5,3.0,35513.0,382988.0,110419.0,1253.0,-144.0
2026-04-09 21:58:49.310705,115548,859377662,859379464,0.821792,-0.16592,0.064416,-4.22625,2.59,1.11125,-26.072,10.104,19.424002,eccentric,5,3.0,35513.0,382988.0,110419.0,1253.0,-144.0
2026-04-09 21:58:49.315156,115549,859386596,859388163,0.821792,-0.154208,0.050752,-5.76625,2.905,3.0625,-26.072,10.104,19.424002,eccentric,5,3.0,35513.0,382988.0,110419.0,1253.0,-144.0
2026-04-09 21:58:49.321469,115550,859395528,859396865,0.812032,-0.154208,0.050752,-6.0025,3.05375,4.29625,-25.320002,10.112,19.288,eccentric,5,3.0,35513.0,382988.0,110419.0,1253.0,-144.0
2026-04-09 21:58:49.380356,115561,859410500,859411793,0.798368,-0.128832,0.040992,-6.3175,2.35375,5.41625,-25.328001,10.400001,19.344002,eccentric,5,3.0,35522.0,383525.0,110750.0,1282.0,-142.0
2026-04-09 21:58:49.382063,115562,859419442,859420515,0.798368,-0.128832,0.040992,-5.95875,1.2775,6.53625,-25.328001,10.400001,19.344002,eccentric,5,3.0,35522.0,383525.0,110750.0,1282.0,-142.0
2026-04-09 21:58:49.383608,115563,859428399,859429263,0.794464,-0.150304,0.062464,-5.285,0.25375,6.685,-25.224,10.56,17.688002,eccentric,5,3.0,35522.0,383525.0,110750.0,1282.0,-142.0
2026-04-09 21:58:49.387821,115564,859442934,859444202,0.794464,-0.150304,0.062464,-5.62625,-0.34125,7.315,-25.224,10.56,17.688002,eccentric,5,3.0,35522.0,383525.0,110750.0,1282.0,-142.0
2026-04-09 21:58:49.389555,115565,859452000,859452916,0.786656,-0.203008,0.076128,-7.88375,-0.28,8.96875,-25.712002,10.544001,21.032001,eccentric,5,3.0,35522.0,383525.0,110750.0,1282.0,-142.0
2026-04-09 21:58:49.391106,115566,859461000,859461648,0.786656,-0.203008,0.076128,-10.9725,0.58625,11.17375,-25.712002,10.544001,21.032001,eccentric,5,3.0,35522.0,383525.0,110750.0,1282.0,-142.0
2026-04-09 21:58:49.395188,115567,859470360,859472457,0.776896,-0.169824,0.070272,-13.755,1.28625,13.8425,-25.320002,10.176001,21.184002,eccentric,5,3.0,35522.0,383525.0,110750.0,1282.0,-142.0
