pc_time,serial_num,sensor_ts,host_ts,ax,ay,az,gx,gy,gz,mx,my,mz,phase,rpe,weight_kg,ppg_a,ppg_b,ppg_c,ppg_d,ppg_e
2026-04-09 21:58:54.937520,116593,864948587,864949825,0.74176,-0.269376,0.134688,-5.81,-2.555,-2.3625,-22.744001,12.672001,20.936,concentric,5,3.0,35955.0,382056.0,110386.0,1186.0,-138.0
2026-04-09 21:58:54.939992,116594,864957484,864958564,0.74176,-0.269376,0.134688,-6.86,-1.88125,-1.435,-22.744001,12.672001,20.936,concentric,5,3.0,35955.0,382056.0,110386.0,1186.0,-138.0
2026-04-09 21:58:54.942470,116595,864966415,864967280,0.74176,-0.284992,0.0976,-6.81625,-1.9775,-1.435,-22.744001,12.672001,20.936,concentric,5,3.0,35955.0,382056.0,110386.0,1186.0,-138.0
2026-04-09 21:58:54.944957,116596,864980995,864982185,0.739808,-0.284992,0.0976,-6.16,-2.03,-1.23375,-22.640001,12.672001,21.256,concentric,5,3.0,35955.0,382056.0,110386.0,1186.0,-138.0
2026-04-09 21:58:54.947954,116597,864989910,864990839,0.728096,-0.310368,0.103456,-5.6,-3.115,-0.77,-22.752,13.120001,21.256,concentric,5,3.0,35955.0,382056.0,110386.0,1186.0,-138.0
2026-04-09 21:58:54.950096,116598,864998827,864999546,0.728096,-0.310368,0.103456,-6.02875,-4.3225,0.2975,-22.752,13.120001,21.256,concentric,5,3.0,35955.0,382056.0,110386.0,1186.0,-138.0
2026-04-09 21:58:54.952620,116599,865013711,865014437,0.724192,-0.327936,0.119072,-5.74,-4.80375,2.37125,-22.632002,12.968,22.144001,concentric,5,3.0,35955.0,382056.0,110386.0,1186.0,-138.0
2026-04-09 21:58:54.954910,116600,865023104,865025232,0.724192,-0.327936,0.119072,-6.615,-5.4775,4.20875,-22.632002,12.968,22.144001,concentric,5,3.0,35955.0,382056.0,110386.0,1186.0,-138.0
2026-04-09 21:58:54.957510,116601,865032109,865033909,0.743712,-0.325984,0.0976,-8.30375,-5.81875,5.46875,-22.44,12.616,21.248001,concentric,5,3.0,35955.0,382056.0,110386.0,1186.0,-138.0
2026-04-09 21:58:55.022224,116612,865041135,865042670,0.743712,-0.325984,0.0976,-9.02125,-6.02,6.65,-22.44,12.616,21.248001,concentric,5,3.0,35848.0,381181.0,109600.0,1079.0,-142.0
2026-04-09 21:58:55.023807,116613,865055672,865057605,0.753472,-0.288896,0.089792,-9.00375,-6.69375,6.79875,-23.408,12.376,21.968,concentric,5,3.0,35848.0,381181.0,109600.0,1079.0,-142.0
2026-04-09 21:58:55.027994,116614,865064580,865066300,0.753472,-0.288896,0.089792,-7.49,-7.665,6.86875,-23.408,12.376,21.968,concentric,5,3.0,35848.0,381181.0,109600.0,1079.0,-142.0
2026-04-09 21:58:55.031331,116615,865073584,865075035,0.747616,-0.281088,0.109312,-3.64,-8.51375,5.83625,-22.616001,12.56,20.76,concentric,5,3.0,35848.0,381181.0,109600.0,1079.0,-142.0
2026-04-09 21:58:55.031713,116616,865088298,865090034,0.726144,-0.320128,0.11712,-1.855,-8.225,5.8975,-22.640001,13.072001,17.416,concentric,5,3.0,35848.0,381181.0,109600.0,1079.0,-142.0
2026-04-09 21:58:55.035439,116617,865097244,865098779,0.726144,-0.320128,0.11712,-1.4175,-8.35625,5.88,-22.640001,13.072001,17.416,concentric,5,3.0,35848.0,381181.0,109600.0,1079.0,-142.0
2026-04-09 21:58:55.037217,116618,865106347,865107514,0.726144,-0.320128,0.11712,-1.07625,-8.44375,8.11125,-22.640001,13.072001,17.416,concentric,5,3.0,35848.0,381181.0,109600.0,1079.0,-142.0
2026-04-09 21:58:55.038784,116619,865115298,865116274,0.687104,-0.314272,0.124928,-3.78875,-8.05875,11.89125,-22.992,12.880001,21.744001,concentric,5,3.0,35848.0,381181.0,109600.0,1079.0,-142.0
2026-04-09 21:58:55.069825,116620,865129781,865131258,0.66368,-0.304512,0.085888,-8.47875,-8.5925,15.56625,-22.112001,12.984,20.400002,concentric,5,3.0,35848.0,381181.0,109600.0,1079.0,-142.0
2026-04-09 21:58:55.074358,116621,865138692,865139954,0.66368,-0.304512,0.085888,-9.975,-8.96,17.885,-22.112001,12.984,20.400002,concentric,5,3.0,35848.0,381181.0,109600.0,1079.0,-142.0
2026-04-09 21:58:55.099299,116631,865147747,865148834,0.669536,-0.265472,0.0976,-9.1525,-10.29875,19.92375,-21.576,13.464001,19.544,concentric,5,3.0,35994.0,380533.0,109195.0,1011.0,-126.0
2026-04-09 21:58:55.100995,116632,865162268,865163797,0.669536,-0.265472,0.0976,-8.72375,-12.0575,21.210001,-21.576,13.464001,19.544,concentric,5,3.0,35994.0,380533.0,109195.0,1011.0,-126.0
2026-04-09 21:58:55.102579,116633,865171236,865172520,0.687104,-0.212768,0.10736,-9.93125,-12.915,21.4725,-21.712002,13.696001,20.096,concentric,5,3.0,35994.0,380533.0,109195.0,1011.0,-126.0
2026-04-09 21:58:55.105828,116634,865180307,865181290,0.687104,-0.212768,0.10736,-12.5125,-14.00875,20.86875,-21.712002,13.696001,20.096,concentric,5,3.0,35994.0,380533.0,109195.0,1011.0,-126.0
2026-04-09 21:58:55.136116,116635,865194831,865196186,0.739808,-0.327936,0.095648,-18.865,-14.3675,18.8475,-21.576,13.416,19.216002,concentric,5,3.0,35994.0,380533.0,109195.0,1011.0,-126.0
2026-04-09 21:58:55.140535,116636,865203775,865204854,0.739808,-0.327936,0.095648,-26.18875,-13.41375,18.29625,-21.576,13.416,19.216002,concentric,5,3.0,35994.0,380533.0,109195.0,1011.0,-126.0
2026-04-09 21:58:55.142111,116637,865212727,865213557,0.757376,-0.318176,0.089792,-24.7275,-13.20375,19.48625,-21.552002,13.52,19.44,concentric,5,3.0,35994.0,380533.0,109195.0,1011.0,-126.0
2026-04-09 21:58:55.145812,116638,865221638,865222265,0.757376,-0.318176,0.089792,-20.32625,-13.9125,19.95875,-21.552002,13.52,19.44,concentric,5,3.0,35994.0,380533.0,109195.0,1011.0,-126.0
2026-04-09 21:58:55.176162,116639,865236476,865237160,0.72224,-0.347456,0.085888,-19.20625,-14.16625,18.97,-22.008001,14.040001,19.792002,concentric,5,3.0,35994.0,380533.0,109195.0,1011.0,-126.0
2026-04-09 21:58:55.233695,116649,865246354,865248076,0.72224,-0.347456,0.085888,-17.03625,-15.88125,21.00875,-22.008001,14.040001,19.792002,concentric,5,3.0,35938.0,377622.0,107073.0,792.0,-136.0
2026-04-09 21:58:55.238120,116650,865255307,865256780,0.743712,-0.33184,0.074176,-17.053751,-17.3425,22.435,-20.864,14.200001,18.872002,concentric,5,3.0,35938.0,377622.0,107073.0,792.0,-136.0
2026-04-09 21:58:55.239787,116651,865264301,865265489,0.743712,-0.33184,0.074176,-17.59625,-17.01,22.39125,-20.864,14.200001,18.872002,concentric,5,3.0,35938.0,377622.0,107073.0,792.0,-136.0
2026-04-09 21:58:55.241462,116652,865278982,865280392,0.759328,-0.374784,0.074176,-18.6025,-15.70625,21.69125,-21.496,14.032001,18.424002,concentric,5,3.0,35938.0,377622.0,107073.0,792.0,-136.0
2026-04-09 21:58:55.245548,116653,865287972,865289107,0.735904,-0.365024,0.07808,-17.36,-15.47,20.25625,-21.496,14.264001,17.968,concentric,5,3.0,35938.0,377622.0,107073.0,792.0,-136.0
2026-04-09 21:58:55.247282,116654,865296876,865297846,0.735904,-0.365024,0.07808,-13.8425,-15.96,19.285,-20.160002,14.264001,17.968,concentric,5,3.0,35938.0,377622.0,107073.0,792.0,-136.0
2026-04-09 21:58:55.249011,116655,865311362,865312752,0.714432,-0.335744,0.06832,-9.49375,-16.835001,20.90375,-19.384,14.536,17.808,concentric,5,3.0,35938.0,377622.0,107073.0,792.0,-136.0
2026-04-09 21:58:55.253436,116656,865320371,865321497,0.714432,-0.335744,0.06832,-6.5975,-18.48875,23.17,-19.384,14.536,17.808,concentric,5,3.0,35938.0,377622.0,107073.0,792.0,-136.0
2026-04-09 21:58:55.257884,116657,865329300,865330220,0.718336,-0.296704,0.046848,-2.44125,-19.3725,22.61,-20.216002,14.104001,21.336,concentric,5,3.0,35938.0,377622.0,107073.0,792.0,-136.0
2026-04-09 21:58:55.311862,116667,865344242,865345263,0.718336,-0.296704,0.046848,-2.0125,-21.35,23.03,-20.216002,14.104001,21.336,concentric,5,3.0,36088.0,378090.0,107526.0,822.0,-121.0
2026-04-09 21:58:55.313531,116668,865353223,865354092,0.714432,-0.288896,0.046848,-7.0,-21.91875,21.98875,-19.728,14.632001,17.28,concentric,5,3.0,36088.0,378090.0,107526.0,822.0,-121.0
2026-04-09 21:58:55.315124,116669,865362144,865362792,0.714432,-0.288896,0.046848,-12.32875,-21.4375,19.7575,-19.728,14.632001,17.28,concentric,5,3.0,36088.0,378090.0,107526.0,822.0,-121.0
2026-04-09 21:58:55.319344,116670,865371381,865373579,0.747616,-0.35136,0.03904,-14.4725,-21.1575,16.7475,-19.44,14.6,16.848001,concentric,5,3.0,36088.0,378090.0,107526.0,822.0,-121.0
2026-04-09 21:58:55.320970,116671,865385890,865386474,0.747616,-0.35136,0.03904,-13.335,-21.34125,14.7175,-19.44,14.6,16.848001,concentric,5,3.0,36088.0,378090.0,107526.0,822.0,-121.0
2026-04-09 21:58:55.322533,116672,865395194,865397244,0.716384,-0.343552,0.054656,-8.96875,-22.00625,14.60375,-20.448002,14.648001,18.656,concentric,5,3.0,36088.0,378090.0,107526.0,822.0,-121.0
2026-04-09 21:58:55.327584,116673,865404142,865405968,0.716384,-0.343552,0.054656,-5.03125,-23.6075,16.65125,-20.448002,14.648001,18.656,concentric,5,3.0,36088.0,378090.0,107526.0,822.0,-121.0
2026-04-09 21:58:55.358691,116674,865418652,865420889,0.724192,-0.335744,0.027328,-1.8725,-24.053751,18.62875,-19.672,14.784,17.248001,concentric,5,3.0,36088.0,378090.0,107526.0,822.0,-121.0
2026-04-09 21:58:55.361299,116675,865427645,865429594,0.724192,-0.335744,0.027328,-1.04125,-24.43875,19.67,-19.672,14.784,17.248001,concentric,5,3.0,36088.0,378090.0,107526.0,822.0,-121.0
2026-04-09 21:58:55.363755,116676,865436559,865438279,0.735904,-0.36112,0.007808,-4.095,-24.28125,19.8275,-19.264002,14.536,16.336,concentric,5,3.0,36088.0,378090.0,107526.0,822.0,-121.0
2026-04-09 21:58:55.393685,116687,865445727,865447084,0.735904,-0.36112,0.007808,-9.24875,-23.54625,17.78,-19.264002,14.536,16.336,concentric,5,3.0,36342.0,379178.0,108548.0,898.0,-139.0
2026-04-09 21:58:55.396284,116688,865460449,865462038,0.765184,-0.415776,0.001952,-10.5175,-22.4175,14.4725,-18.176,15.088,15.720001,concentric,5,3.0,36342.0,379178.0,108548.0,898.0,-139.0
2026-04-09 21:58:55.398768,116689,865469404,865470789,0.759328,-0.474336,0.035136,-12.64375,-19.8625,13.1425,-18.400002,14.792001,17.6,concentric,5,3.0,36342.0,379178.0,108548.0,898.0,-139.0
2026-04-09 21:58:55.401262,116690,865478348,865479496,0.759328,-0.474336,0.035136,-9.79125,-17.08,11.34875,-18.400002,14.792001,17.6,concentric,5,3.0,36342.0,379178.0,108548.0,898.0,-139.0
2026-04-09 21:58:55.431710,116691,865492933,865494447,0.782752,-0.450912,-0.003904,-3.815,-16.16125,12.74,-18.864,14.984001,15.136001,concentric,5,3.0,36342.0,379178.0,108548.0,898.0,-139.0
2026-04-09 21:58:55.435120,116692,865501844,865503144,0.782752,-0.450912,-0.003904,0.07875,-15.645,16.09125,-18.864,14.984001,15.136001,concentric,5,3.0,36342.0,379178.0,108548.0,898.0,-139.0
2026-04-09 21:58:55.438813,116693,865510791,865511862,0.802272,-0.445056,-0.027328,-0.81375,-16.19625,18.8125,-18.04,15.184001,15.128,concentric,5,3.0,36342.0,379178.0,108548.0,898.0,-139.0
2026-04-09 21:58:55.442549,116694,865519776,865520596,0.802272,-0.445056,-0.027328,-3.6225,-16.625,19.03125,-18.04,15.184001,15.128,concentric,5,3.0,36342.0,379178.0,108548.0,898.0,-139.0
2026-04-09 21:58:55.474116,116695,865534276,865535504,0.821792,-0.462624,-0.056608,-7.28,-16.79125,18.48875,-18.024,15.608001,15.392001,concentric,5,3.0,36342.0,379178.0,108548.0,898.0,-139.0
2026-04-09 21:58:55.477533,116696,865543158,865544186,0.821792,-0.462624,-0.056608,-13.48375,-15.35625,16.87875,-18.024,15.608001,15.392001,concentric,5,3.0,36342.0,379178.0,108548.0,898.0,-139.0
2026-04-09 21:58:55.535090,116706,865552115,865552923,0.817888,-0.532896,0.013664,-14.39375,-12.81,14.58625,-17.936,14.936001,14.944,concentric,5,3.0,36207.0,377389.0,107159.0,781.0,-134.0
2026-04-09 21:58:55.537643,116707,865566592,865567893,0.817888,-0.532896,0.013664,-4.9875,-10.21125,12.17125,-17.936,14.936001,14.944,concentric,5,3.0,36207.0,377389.0,107159.0,781.0,-134.0
2026-04-09 21:58:55.543811,116708,865575569,865576605,0.786656,-0.466528,-0.00976,9.65125,-8.33,10.9375,-18.896002,15.512001,15.712001,concentric,5,3.0,36207.0,377389.0,107159.0,781.0,-134.0
2026-04-09 21:58:55.546303,116709,865584556,865585367,0.786656,-0.466528,-0.00976,19.66125,-6.79,10.87625,-18.896002,15.512001,15.712001,concentric,5,3.0,36207.0,377389.0,107159.0,781.0,-134.0
2026-04-09 21:58:55.548824,116710,865598999,865600300,0.788608,-0.417728,-0.025376,22.46125,-5.915,11.24375,-17.456001,16.048,14.72,concentric,5,3.0,36207.0,377389.0,107159.0,781.0,-134.0
2026-04-09 21:58:55.551304,116711,865607909,865608991,0.788608,-0.417728,-0.025376,18.27,-5.01375,10.7975,-17.456001,16.048,14.72,concentric,5,3.0,36207.0,377389.0,107159.0,781.0,-134.0
2026-04-09 21:58:55.553827,116712,865616906,865617711,0.782752,-0.435296,-0.007808,15.04125,-4.15625,10.36,-17.448,15.864,15.184001,concentric,5,3.0,36207.0,377389.0,107159.0,781.0,-134.0
2026-04-09 21:58:55.556354,116713,865631429,865632661,0.743712,-0.476288,0.013664,11.1825,-2.58125,6.90375,-18.216002,16.04,15.864,concentric,5,3.0,36207.0,377389.0,107159.0,781.0,-134.0
2026-04-09 21:58:55.570062,116714,865640313,865641406,0.743712,-0.476288,0.013664,10.9725,-1.3125,3.45625,-18.216002,16.04,15.864,concentric,5,3.0,36207.0,377389.0,107159.0,781.0,-134.0
2026-04-09 21:58:55.595309,116724,865649379,865650230,0.747616,-0.460672,-0.015616,12.64375,-1.12875,2.45,-18.664001,16.28,14.400001,concentric,5,3.0,36262.0,378292.0,107809.0,823.0,-149.0
2026-04-09 21:58:55.598224,116725,865658860,865661127,0.747616,-0.460672,-0.015616,10.5525,0.4725,1.93375,-18.664001,16.28,14.400001,concentric,5,3.0,36262.0,378292.0,107809.0,823.0,-149.0
2026-04-09 21:58:55.599998,116726,865673411,865673975,0.776896,-0.462624,-0.017568,5.97625,1.35625,1.33875,-17.400002,16.216002,14.648001,concentric,5,3.0,36262.0,378292.0,107809.0,823.0,-149.0
2026-04-09 21:58:55.606210,116727,865682642,865684807,0.776896,-0.462624,-0.017568,0.245,1.79375,1.46125,-17.400002,16.216002,14.648001,concentric,5,3.0,36262.0,378292.0,107809.0,823.0,-149.0
2026-04-09 21:58:55.636450,116728,865691594,865693509,0.806176,-0.466528,-0.056608,-5.78375,1.6625,-0.4725,-18.488,16.104,15.392001,concentric,5,3.0,36262.0,378292.0,107809.0,823.0,-149.0
2026-04-09 21:58:55.640013,116729,865706058,865706372,0.806176,-0.466528,-0.056608,-11.4975,2.03875,-3.70125,-18.488,16.104,15.392001,concentric,5,3.0,36262.0,378292.0,107809.0,823.0,-149.0
2026-04-09 21:58:55.642506,116730,865715221,865717162,0.823744,-0.534848,-0.0488,-19.29375,2.485,-5.31125,-18.368,15.960001,14.176001,concentric,5,3.0,36262.0,378292.0,107809.0,823.0,-149.0
2026-04-09 21:58:55.647508,116731,865724169,865725911,0.823744,-0.534848,-0.0488,-23.51125,3.00125,-7.06125,-18.368,15.960001,14.176001,concentric,5,3.0,36262.0,378292.0,107809.0,823.0,-149.0
2026-04-09 21:58:55.678637,116732,865733194,865734636,0.813984,-0.532896,-0.0488,-20.97375,2.975,-7.7,-18.128,16.176,14.792001,concentric,5,3.0,36262.0,378292.0,107809.0,823.0,-149.0
2026-04-09 21:58:55.707258,116743,865748259,865749552,0.813984,-0.532896,-0.0488,-13.48375,3.22,-8.785,-18.128,16.176,14.792001,concentric,5,3.0,36175.0,375013.0,105437.0,641.0,-148.0
2026-04-09 21:58:55.708957,116744,865757267,865758368,0.80032,-0.482144,-0.040992,-1.89,3.9025,-8.8725,-18.632,15.672001,11.896001,concentric,5,3.0,36175.0,375013.0,105437.0,641.0,-148.0
2026-04-09 21:58:55.713063,116745,865766178,865767100,0.80032,-0.482144,-0.040992,10.08875,4.68125,-9.905,-18.632,15.672001,11.896001,concentric,5,3.0,36175.0,375013.0,105437.0,641.0,-148.0
2026-04-09 21:58:55.714747,116746,865780732,865782042,0.823744,-0.443104,-0.072224,16.77375,6.30875,-12.06625,-20.088001,16.176,15.952001,concentric,5,3.0,36175.0,375013.0,105437.0,641.0,-148.0
2026-04-09 21:58:55.716335,116747,865789677,865790767,0.835456,-0.435296,-0.066368,15.8025,7.44625,-15.35625,-20.088001,15.720001,15.824,concentric,5,3.0,36175.0,375013.0,105437.0,641.0,-148.0
2026-04-09 21:58:55.724178,116748,865798707,865799487,0.835456,-0.435296,-0.066368,14.49,9.1175,-20.93875,-20.104,15.720001,15.824,concentric,5,3.0,36175.0,375013.0,105437.0,641.0,-148.0
2026-04-09 21:58:55.752896,116749,865808101,865810297,0.835456,-0.435296,-0.066368,12.52125,9.135,-23.7825,-20.104,15.720001,15.824,concentric,5,3.0,36175.0,375013.0,105437.0,641.0,-148.0
2026-04-09 21:58:55.758543,116750,865822628,865823129,0.854976,-0.486048,-0.044896,12.215,8.26,-24.815,-19.832,15.840001,11.456,concentric,5,3.0,36175.0,375013.0,105437.0,641.0,-148.0
2026-04-09 21:58:55.760078,116751,865831981,865833888,0.872544,-0.447008,-0.044896,13.51,7.09625,-24.2375,-19.168001,15.872001,14.224001,concentric,5,3.0,36175.0,375013.0,105437.0,641.0,-148.0
2026-04-09 21:58:55.789935,116752,865840925,865842592,0.872544,-0.447008,-0.044896,13.8425,6.02875,-23.415,-19.168001,15.872001,14.224001,concentric,5,3.0,36175.0,375013.0,105437.0,641.0,-148.0
2026-04-09 21:58:55.860061,116762,865850238,865851412,0.841312,-0.41968,-0.046848,13.2125,5.215,-24.491251,-20.016,15.760001,13.664001,concentric,5,3.0,36257.0,378484.0,107912.0,838.0,-145.0
2026-04-09 21:58:55.864303,116763,865864781,865866308,0.841312,-0.41968,-0.046848,11.52375,4.9525,-26.13625,-20.016,15.760001,13.664001,concentric,5,3.0,36257.0,378484.0,107912.0,838.0,-145.0
2026-04-09 21:58:55.866029,116764,865873716,865875008,0.843264,-0.40992,-0.044896,8.365,4.57625,-26.94125,-19.824001,16.144001,13.56,concentric,5,3.0,36257.0,378484.0,107912.0,838.0,-145.0
2026-04-09 21:58:55.867650,116765,865882734,865883771,0.843264,-0.40992,-0.044896,3.15,4.76,-28.630001,-19.824001,16.144001,13.56,concentric,5,3.0,36257.0,378484.0,107912.0,838.0,-145.0
2026-04-09 21:58:55.871844,116766,865897296,865898705,0.823744,-0.431392,-0.011712,0.23625,4.7425,-30.2575,-20.072,15.904,14.128,concentric,5,3.0,36257.0,378484.0,107912.0,838.0,-145.0
2026-04-09 21:58:55.873529,116767,865906208,865907423,0.823744,-0.431392,-0.011712,0.8925,4.235,-30.17,-20.072,15.904,14.128,concentric,5,3.0,36257.0,378484.0,107912.0,838.0,-145.0
2026-04-09 21:58:55.875073,116768,865915078,865916166,0.847168,-0.452864,-0.031232,3.12375,3.71,-31.0275,-20.896002,15.568001,14.104001,concentric,5,3.0,36257.0,378484.0,107912.0,838.0,-145.0
2026-04-09 21:58:55.879349,116769,865929614,865931072,0.847168,-0.46848,-0.070272,4.76,3.5175,-32.0775,-20.896002,15.568001,14.104001,concentric,5,3.0,36257.0,378484.0,107912.0,838.0,-145.0
2026-04-09 21:58:55.881102,116770,865938624,865939792,0.890112,-0.46848,-0.070272,2.485,2.765,-31.5875,-21.136002,15.040001,11.744,concentric,5,3.0,36257.0,378484.0,107912.0,838.0,-145.0
2026-04-09 21:58:55.905117,116780,865948099,865948482,0.890112,-0.46848,-0.070272,-3.73625,2.54625,-29.645,-21.136002,15.040001,11.744,concentric,5,3.0,36646.0,378151.0,108102.0,826.0,-133.0
2026-04-09 21:58:55.909324,116781,865957435,865959304,0.88816,-0.480192,-0.044896,-8.0325,2.1,-27.58875,-21.128,14.792001,14.840001,concentric,5,3.0,36646.0,378151.0,108102.0,826.0,-133.0
2026-04-09 21:58:55.911014,116782,865972061,865974214,0.870592,-0.472384,-0.052704,-7.55125,2.47625,-26.87125,-22.04,15.080001,16.664001,concentric,5,3.0,36646.0,378151.0,108102.0,826.0,-133.0
2026-04-09 21:58:55.912820,116783,865981153,865982922,0.870592,-0.472384,-0.052704,-3.78,3.22,-25.38375,-22.04,15.080001,16.664001,concentric,5,3.0,36646.0,378151.0,108102.0,826.0,-133.0
2026-04-09 21:58:55.916909,116784,865990134,865991658,0.870592,-0.472384,-0.054656,1.74125,3.91125,-24.465,-22.04,15.080001,14.352,concentric,5,3.0,36646.0,378151.0,108102.0,826.0,-133.0
2026-04-09 21:58:55.945371,116785,865999078,866000355,0.872544,-0.472384,-0.054656,9.44125,4.45375,-23.31,-22.232,14.880001,14.352,concentric,5,3.0,36646.0,378151.0,108102.0,826.0,-133.0
2026-04-09 21:58:55.949802,116786,866013570,866015266,0.85888,-0.503616,-0.025376,16.52,6.13375,-21.84875,-22.072,15.536001,13.752001,concentric,5,3.0,36646.0,378151.0,108102.0,826.0,-133.0
2026-04-09 21:58:55.951275,116787,866022505,866023983,0.85888,-0.503616,-0.025376,25.6375,7.74375,-20.2825,-22.072,15.536001,13.752001,concentric,5,3.0,36646.0,378151.0,108102.0,826.0,-133.0
2026-04-09 21:58:55.957975,116788,866031432,866032666,0.860832,-0.476288,-0.03904,34.23875,8.53125,-17.99,-21.984001,14.856001,15.280001,concentric,5,3.0,36646.0,378151.0,108102.0,826.0,-133.0
2026-04-09 22:09:47.273765,233211,1517287251,1517288699,-0.91744,-0.220576,-0.281088,-21.84875,-2.0125,28.13125,13.608001,-2.744,13.208,eccentric,6,5.0,41258.0,362379.0,105696.0,253.0,-148.0
2026-04-09 22:09:47.303333,233222,1517296147,1517297721,-0.91744,-0.220576,-0.281088,-13.72875,-8.155,28.7,13.608001,-2.744,13.208,eccentric,6,5.0,41609.0,362813.0,106352.0,279.0,-138.0
2026-04-09 22:09:47.304873,233223,1517305101,1517306429,-0.899872,-0.16592,-0.046848,-1.53125,-12.355001,33.145,14.712001,-3.352,12.736001,eccentric,6,5.0,41609.0,362813.0,106352.0,279.0,-138.0
2026-04-09 22:09:47.309087,233224,1517319650,1517321414,-0.977952,0.093696,-0.0488,8.9075,-15.085,39.8475,14.712001,-3.352,12.736001,eccentric,6,5.0,41609.0,362813.0,106352.0,279.0,-138.0
2026-04-09 22:09:47.312011,233225,1517328627,1517330240,-0.979904,0.093696,-0.0488,15.23375,-16.07375,43.54875,15.064001,-3.376,13.528001,eccentric,6,5.0,41609.0,362813.0,106352.0,279.0,-138.0
2026-04-09 22:09:47.316130,233226,1517337678,1517338959,-0.979904,0.093696,-0.0488,11.92625,-18.40125,43.085,15.064001,-3.376,13.528001,eccentric,6,5.0,41609.0,362813.0,106352.0,279.0,-138.0
2026-04-09 22:09:47.347288,233227,1517352194,1517353916,-0.938912,-0.109312,-0.23424,2.7825,-23.4675,40.1625,15.112,-3.512,13.448001,eccentric,6,5.0,41609.0,362813.0,106352.0,279.0,-138.0
2026-04-09 22:09:47.351692,233228,1517361186,1517362615,-0.962336,-0.115168,-0.005856,0.49,-25.71625,37.79125,15.840001,-3.768,14.632001,eccentric,6,5.0,41609.0,362813.0,106352.0,279.0,-138.0
2026-04-09 22:09:47.354446,233229,1517370100,1517371296,-0.962336,-0.115168,-0.005856,9.3975,-24.64875,40.7925,15.840001,-3.768,14.632001,eccentric,6,5.0,41609.0,362813.0,106352.0,279.0,-138.0
2026-04-09 22:09:47.387574,233230,1517379051,1517379995,-0.962336,-0.115168,-0.005856,19.88,-21.91,48.125,15.840001,-3.768,14.632001,eccentric,6,5.0,41609.0,362813.0,106352.0,279.0,-138.0
2026-04-09 22:09:47.390664,233231,1517393575,1517394945,-1.042368,0.150304,0.021472,15.7675,-21.37625,49.83125,16.176,-3.768,12.72,eccentric,6,5.0,41609.0,362813.0,106352.0,279.0,-138.0
2026-04-09 22:09:47.414919,233241,1517402642,1517403767,-1.056032,-0.080032,-0.275232,-2.205,-22.3125,50.3825,16.512001,-4.024,13.032001,eccentric,6,5.0,42204.0,359769.0,104437.0,123.0,-128.0
2026-04-09 22:09:47.418305,233242,1517411545,1517412520,-1.056032,-0.080032,-0.275232,-13.475,-25.235,46.2525,16.512001,-4.024,13.032001,eccentric,6,5.0,42204.0,359769.0,104437.0,123.0,-128.0
2026-04-09 22:09:47.419966,233243,1517426156,1517427460,-1.016992,-0.189344,-0.001952,-14.4375,-26.1275,43.77625,17.224,-4.456,13.400001,eccentric,6,5.0,42204.0,359769.0,104437.0,123.0,-128.0
2026-04-09 22:09:47.424202,233244,1517435162,1517436172,-1.016992,-0.189344,-0.001952,-2.695,-22.785,47.13625,17.224,-4.456,13.400001,eccentric,6,5.0,42204.0,359769.0,104437.0,123.0,-128.0
2026-04-09 22:09:47.425752,233245,1517444111,1517444901,-1.067744,0.206912,0.10736,9.9925,-18.235,53.87375,15.912001,-4.856,14.824,eccentric,6,5.0,42204.0,359769.0,104437.0,123.0,-128.0
2026-04-09 22:09:47.432233,233246,1517459242,1517459936,-1.067744,0.206912,0.10736,7.6825,-13.79,52.22875,15.912001,-4.856,14.824,eccentric,6,5.0,42204.0,359769.0,104437.0,123.0,-128.0
2026-04-09 22:09:47.461964,233247,1517468670,1517470786,-1.08336,0.042944,-0.247904,-9.14375,-10.31625,47.80125,16.536001,-4.872,14.528001,eccentric,6,5.0,42204.0,359769.0,104437.0,123.0,-128.0
2026-04-09 22:09:47.465735,233248,1517477587,1517479478,-1.08336,0.042944,-0.247904,-30.66,-11.68125,47.67875,16.536001,-4.872,14.528001,eccentric,6,5.0,42204.0,359769.0,104437.0,123.0,-128.0
2026-04-09 22:09:47.472910,233249,1517486586,1517488163,-1.085312,-0.21472,-0.005856,-35.70875,-11.2875,47.2675,17.52,-5.288,14.024001,eccentric,6,5.0,42204.0,359769.0,104437.0,123.0,-128.0
2026-04-09 22:09:47.497140,233259,1517501632,1517503073,-1.003328,0.22448,0.093696,-16.87,-8.2075,46.85625,16.448,-5.424,16.08,eccentric,6,5.0,42408.0,359236.0,104137.0,95.0,-134.0
2026-04-09 22:09:47.498826,233260,1517510657,1517511858,-1.003328,0.22448,0.093696,0.4725,-4.7075,51.47625,16.448,-5.424,16.08,eccentric,6,5.0,42408.0,359236.0,104137.0,95.0,-134.0
2026-04-09 22:09:47.502858,233261,1517519658,1517520568,-1.003328,0.22448,0.093696,-11.4975,-2.87,47.48625,16.448,-5.424,16.08,eccentric,6,5.0,42408.0,359236.0,104137.0,95.0,-134.0
2026-04-09 22:09:47.504490,233262,1517528731,1517529341,-1.009184,0.113216,-0.056608,-28.7525,-2.52875,42.8925,17.664001,-5.952,16.072,eccentric,6,5.0,42408.0,359236.0,104137.0,95.0,-134.0
2026-04-09 22:09:47.546018,233263,1517543538,1517544282,-1.06384,0.037088,-0.23424,-34.615,-3.4125,41.06375,18.216002,-5.968,14.280001,eccentric,6,5.0,42408.0,359236.0,104137.0,95.0,-134.0
2026-04-09 22:09:47.548254,233264,1517552915,1517555053,-1.06384,0.037088,-0.23424,-27.0375,-7.27125,38.15,18.216002,-5.968,14.280001,eccentric,6,5.0,42408.0,359236.0,104137.0,95.0,-134.0
2026-04-09 22:09:47.552877,233265,1517561842,1517563747,-1.075552,0.007808,-0.314272,-13.055,-13.85125,38.35125,18.136002,-6.144,14.096001,eccentric,6,5.0,42408.0,359236.0,104137.0,95.0,-134.0
2026-04-09 22:09:47.555389,233266,1517576341,1517576659,-1.075552,0.007808,-0.314272,-2.975,-21.1225,37.6425,18.136002,-6.144,14.096001,eccentric,6,5.0,42408.0,359236.0,104137.0,95.0,-134.0
2026-04-09 22:09:47.559537,233267,1517585555,1517587421,-0.979904,0.130784,-0.046848,9.21375,-29.11125,37.72125,18.464,-6.752,14.928,eccentric,6,5.0,42408.0,359236.0,104137.0,95.0,-134.0
2026-04-09 22:09:47.589750,233268,1517594545,1517596176,-0.979904,0.130784,-0.046848,23.9575,-35.14875,39.2875,18.464,-6.752,14.928,eccentric,6,5.0,42408.0,359236.0,104137.0,95.0,-134.0
2026-04-09 22:09:47.619020,233279,1517603575,1517604966,-0.938912,0.216672,0.130784,28.0,-37.45,37.826252,19.256,-6.672,15.096001,eccentric,6,5.0,42801.0,357695.0,103086.0,42.0,-140.0
2026-04-09 22:09:47.620935,233280,1517618081,1517619906,-0.938912,0.216672,0.130784,16.765,-37.45875,35.84875,19.256,-6.672,15.096001,eccentric,6,5.0,42801.0,357695.0,103086.0,42.0,-140.0
2026-04-09 22:09:47.624852,233281,1517627044,1517628660,-1.048224,0.226432,-0.08784,2.5375,-34.4575,34.1775,19.720001,-6.912,15.704,eccentric,6,5.0,42801.0,357695.0,103086.0,42.0,-140.0
2026-04-09 22:09:47.627428,233282,1517636046,1517637447,-1.048224,0.226432,-0.08784,-0.2275,-29.7675,35.77875,19.720001,-6.912,15.704,eccentric,6,5.0,42801.0,357695.0,103086.0,42.0,-140.0
2026-04-09 22:09:47.629814,233283,1517650594,1517652413,-1.071648,0.218624,-0.099552,2.87875,-28.035,35.58625,18.400002,-7.376,17.328001,eccentric,6,5.0,42801.0,357695.0,103086.0,42.0,-140.0
2026-04-09 22:09:47.632313,233284,1517659533,1517661122,-1.071648,0.218624,-0.099552,5.425,-28.9975,34.8425,18.400002,-7.376,17.328001,eccentric,6,5.0,42801.0,357695.0,103086.0,42.0,-140.0
2026-04-09 22:09:47.682550,233285,1517668460,1517669816,-1.075552,0.148352,-0.056608,5.80125,-31.185,34.982502,19.088001,-7.024,15.200001,eccentric,6,5.0,42801.0,357695.0,103086.0,42.0,-140.0
2026-04-09 22:09:47.686077,233286,1517677432,1517678534,-1.075552,0.148352,-0.056608,6.4925,-31.92,36.6625,19.088001,-7.024,15.200001,eccentric,6,5.0,42801.0,357695.0,103086.0,42.0,-140.0
2026-04-09 22:09:47.688615,233287,1517691943,1517693416,-1.059936,0.25376,0.046848,7.455,-31.40375,36.925,20.152,-7.376,16.176,eccentric,6,5.0,42801.0,357695.0,103086.0,42.0,-140.0
2026-04-09 22:09:47.713606,233297,1517701335,1517702198,-1.059936,0.25376,-0.035136,2.1525,-29.995,37.1,20.152,-7.376,16.752,eccentric,6,5.0,43019.0,355600.0,101978.0,2.0,-144.0
2026-04-09 22:09:47.716149,233298,1517710852,1517712995,-1.116544,0.257664,-0.035136,-1.4175,-28.44625,38.185,21.096,-7.416,16.752,eccentric,6,5.0,43019.0,355600.0,101978.0,2.0,-144.0
2026-04-09 22:09:47.721171,233299,1517725423,1517725853,-1.104832,0.167872,-0.025376,-1.00625,-26.53,38.99875,20.072,-8.200001,18.240002,eccentric,6,5.0,43019.0,355600.0,101978.0,2.0,-144.0
2026-04-09 22:09:47.723568,233300,1517734790,1517736710,-1.104832,0.167872,-0.025376,0.63875,-26.04,38.42125,20.072,-8.200001,18.240002,eccentric,6,5.0,43019.0,355600.0,101978.0,2.0,-144.0
2026-04-09 22:09:47.726104,233301,1517743748,1517745436,-1.159488,0.304512,0.025376,5.64375,-25.1825,39.71625,19.888,-8.496,18.328001,eccentric,6,5.0,43019.0,355600.0,101978.0,2.0,-144.0
2026-04-09 22:09:47.728599,233302,1517752688,1517754137,-1.159488,0.304512,0.025376,7.875,-24.19375,39.795002,19.888,-8.496,18.328001,eccentric,6,5.0,43019.0,355600.0,101978.0,2.0,-144.0
2026-04-09 22:09:47.758820,233303,1517767205,1517769114,-1.130208,0.269376,-0.035136,7.90125,-23.58125,38.5875,19.712002,-8.240001,18.496,eccentric,6,5.0,43019.0,355600.0,101978.0,2.0,-144.0
2026-04-09 22:09:47.762431,233304,1517776098,1517777810,-1.130208,0.269376,-0.035136,6.09,-23.8875,37.37125,19.712002,-8.240001,18.496,eccentric,6,5.0,43019.0,355600.0,101978.0,2.0,-144.0
2026-04-09 22:09:47.765018,233305,1517784992,1517786512,-1.149728,0.189344,0.054656,3.64,-23.94875,35.49,21.000002,-8.856,17.952002,eccentric,6,5.0,43019.0,355600.0,101978.0,2.0,-144.0
2026-04-09 22:09:47.793607,233315,1517799505,1517801512,-1.149728,0.189344,0.054656,6.44,-22.26,37.415,21.000002,-8.856,17.952002,eccentric,6,5.0,42914.0,357442.0,103332.0,61.0,-134.0
2026-04-09 22:09:47.796204,233316,1517809126,1517810439,-1.118496,0.306464,0.025376,7.63875,-20.44,39.576252,21.800001,-8.808001,18.488,eccentric,6,5.0,42914.0,357442.0,103332.0,61.0,-134.0
2026-04-09 22:09:47.798692,233317,1517818071,1517819164,-1.118496,0.306464,0.025376,5.4775,-18.62875,39.83875,21.800001,-8.808001,18.488,eccentric,6,5.0,42914.0,357442.0,103332.0,61.0,-134.0
2026-04-09 22:09:47.801168,233318,1517827093,1517827882,-1.143872,0.310368,0.021472,2.9225,-16.345,41.29125,20.632002,-9.528001,20.944,eccentric,6,5.0,42914.0,357442.0,103332.0,61.0,-134.0
2026-04-09 22:09:47.833940,233319,1517841573,1517842772,-1.143872,0.296704,0.015616,1.4175,-14.875,40.24125,20.632002,-9.528001,20.944,eccentric,6,5.0,42914.0,357442.0,103332.0,61.0,-134.0
2026-04-09 22:09:47.837461,233320,1517850477,1517851459,-1.163392,0.296704,0.015616,4.55,-14.105001,39.235,22.312,-9.408,18.784,eccentric,6,5.0,42914.0,357442.0,103332.0,61.0,-134.0
2026-04-09 22:09:47.839936,233321,1517859385,1517860172,-1.163392,0.296704,0.015616,9.35375,-13.011251,38.57,22.312,-9.408,18.784,eccentric,6,5.0,42914.0,357442.0,103332.0,61.0,-134.0
2026-04-09 22:09:47.846278,233322,1517874368,1517875100,-1.079456,0.281088,0.06832,6.78125,-12.5825,36.49625,22.192001,-9.88,18.808,eccentric,6,5.0,42914.0,357442.0,103332.0,61.0,-134.0
2026-04-09 22:09:47.877474,233323,1517883778,1517885868,-1.16144,0.339648,0.035136,3.73625,-11.97,36.04125,21.064001,-9.984,20.6,eccentric,6,5.0,42914.0,357442.0,103332.0,61.0,-134.0
2026-04-09 22:09:47.879952,233324,1517892710,1517894607,-1.16144,0.339648,0.035136,2.17,-10.71875,37.30125,21.064001,-9.984,20.6,eccentric,6,5.0,42914.0,357442.0,103332.0,61.0,-134.0
2026-04-09 22:09:47.907435,233335,1517901833,1517903350,-1.16144,0.2928,-0.031232,1.40875,-10.24625,38.7625,21.064001,-9.984,20.6,eccentric,6,5.0,42876.0,358508.0,104158.0,91.0,-122.0
2026-04-09 22:09:47.909950,233336,1517916416,1517918296,-1.108736,0.286944,-0.031232,-0.93625,-10.19375,38.675,22.656,-10.496,19.52,eccentric,6,5.0,42876.0,358508.0,104158.0,91.0,-122.0
2026-04-09 22:09:47.912433,233337,1517925413,1517927061,-1.085312,0.245952,0.037088,-2.1175,-11.06,37.695,22.736002,-10.432,19.312,eccentric,6,5.0,42876.0,358508.0,104158.0,91.0,-122.0
2026-04-09 22:09:47.914948,233338,1517934346,1517935790,-1.085312,0.245952,0.037088,6.545,-11.41,38.64875,22.736002,-10.432,19.312,eccentric,6,5.0,42876.0,358508.0,104158.0,91.0,-122.0
2026-04-09 22:09:47.921242,233339,1517948871,1517950729,-1.05408,0.40016,0.07808,14.805,-10.99875,39.235,22.824001,-11.128,20.584002,eccentric,6,5.0,42876.0,358508.0,104158.0,91.0,-122.0
2026-04-09 22:09:47.983965,233340,1517957789,1517959420,-1.05408,0.40016,0.07808,13.65,-10.815,39.8475,22.824001,-11.128,20.584002,eccentric,6,5.0,42876.0,358508.0,104158.0,91.0,-122.0
2026-04-09 22:09:47.987453,233341,1517966720,1517968145,-1.120448,0.396256,0.060512,7.28,-9.87875,39.85625,23.576,-10.784,20.728,eccentric,6,5.0,42876.0,358508.0,104158.0,91.0,-122.0
2026-04-09 22:09:47.989957,233342,1517975637,1517976854,-1.120448,0.396256,0.060512,2.8175,-8.65375,39.05125,23.576,-10.784,20.728,eccentric,6,5.0,42876.0,358508.0,104158.0,91.0,-122.0
2026-04-09 22:09:47.995010,233343,1517990102,1517991738,-1.095072,0.335744,0.035136,0.60375,-8.07625,37.31875,23.224,-11.240001,20.392,eccentric,6,5.0,42876.0,358508.0,104158.0,91.0,-122.0
2026-04-09 22:09:47.997450,233344,1517999045,1518000442,-1.095072,0.335744,0.035136,0.00875,-8.636251,35.0525,23.224,-11.240001,20.392,eccentric,6,5.0,42876.0,358508.0,104158.0,91.0,-122.0
2026-04-09 22:09:48.026449,233354,1518008049,1518009186,-1.071648,0.335744,0.054656,2.38,-9.40625,33.87125,23.784,-11.376,20.584002,eccentric,6,5.0,42779.0,360513.0,105633.0,178.0,-152.0
2026-04-09 22:09:48.028825,233355,1518022563,1518024080,-1.095072,0.374784,0.042944,4.75125,-10.045,32.96125,23.784,-11.376,21.368002,eccentric,6,5.0,42779.0,360513.0,105633.0,178.0,-152.0
2026-04-09 22:09:48.031182,233356,1518031495,1518032837,-1.095072,0.374784,0.042944,3.03625,-10.386251,34.0725,22.664001,-11.8,21.368002,eccentric,6,5.0,42779.0,360513.0,105633.0,178.0,-152.0
2026-04-09 22:09:48.033670,233357,1518040644,1518041581,-1.095072,0.374784,0.042944,1.28625,-10.167501,34.4925,22.664001,-11.8,21.368002,eccentric,6,5.0,42779.0,360513.0,105633.0,178.0,-152.0
2026-04-09 22:09:48.036221,233358,1518055174,1518056516,-1.110688,0.357216,0.023424,2.1525,-10.89375,34.85125,22.400002,-11.608001,22.336,eccentric,6,5.0,42779.0,360513.0,105633.0,178.0,-152.0
2026-04-09 22:09:48.038762,233359,1518064103,1518065225,-1.104832,0.339648,0.037088,2.94875,-11.5325,35.44625,23.880001,-12.8,21.960001,eccentric,6,5.0,42779.0,360513.0,105633.0,178.0,-152.0
2026-04-09 22:09:48.043704,233360,1518073072,1518073926,-1.104832,0.339648,0.037088,7.0875,-12.31125,35.7875,23.880001,-12.8,21.960001,eccentric,6,5.0,42779.0,360513.0,105633.0,178.0,-152.0
2026-04-09 22:09:48.073986,233361,1518082227,1518082650,-1.104832,0.339648,0.06832,10.15875,-13.1425,33.90625,23.880001,-12.8,21.960001,eccentric,6,5.0,42779.0,360513.0,105633.0,178.0,-152.0
2026-04-09 22:09:48.077525,233362,1518097078,1518097562,-1.079456,0.366976,0.076128,11.71625,-13.55375,34.2475,23.696001,-12.56,21.28,eccentric,6,5.0,42779.0,360513.0,105633.0,178.0,-152.0
2026-04-09 22:09:48.103580,233372,1518106544,1518108371,-1.085312,0.378688,0.05856,11.4975,-13.5625,33.97625,24.480001,-12.8,21.224,eccentric,6,5.0,42781.0,361396.0,106324.0,217.0,-135.0
2026-04-09 22:09:48.105354,233373,1518115652,1518117116,-1.085312,0.378688,0.05856,9.511251,-13.58875,32.50625,24.480001,-12.8,21.224,eccentric,6,5.0,42781.0,361396.0,106324.0,217.0,-135.0
2026-04-09 22:09:48.109110,233374,1518130183,1518132036,-1.145824,0.42944,0.085888,8.35625,-12.64375,32.48875,23.792002,-12.888001,24.568,eccentric,6,5.0,42781.0,361396.0,106324.0,217.0,-135.0
2026-04-09 22:09:48.111291,233375,1518139115,1518140756,-1.145824,0.42944,0.085888,10.185,-11.480001,32.05125,23.792002,-12.888001,24.568,eccentric,6,5.0,42781.0,361396.0,106324.0,217.0,-135.0
2026-04-09 22:09:48.141465,233376,1518148049,1518149459,-1.087264,0.353312,0.128832,9.0125,-10.01875,30.835001,23.296001,-12.736001,24.320002,eccentric,6,5.0,42781.0,361396.0,106324.0,217.0,-135.0
2026-04-09 22:09:48.145038,233377,1518156994,1518158188,-1.087264,0.353312,0.128832,5.48625,-9.835,28.735,23.296001,-12.736001,24.320002,eccentric,6,5.0,42781.0,361396.0,106324.0,217.0,-135.0
2026-04-09 22:09:48.147419,233378,1518171550,1518173089,-1.085312,0.353312,0.072224,6.79875,-8.53125,28.5775,24.744001,-13.872001,21.872002,eccentric,6,5.0,42781.0,361396.0,106324.0,217.0,-135.0
2026-04-09 22:09:48.152679,233379,1518180459,1518181798,-1.085312,0.353312,0.072224,6.37,-6.86875,28.595,24.744001,-13.872001,21.872002,eccentric,6,5.0,42781.0,361396.0,106324.0,217.0,-135.0
2026-04-09 22:09:48.183935,233380,1518189484,1518190509,-1.106784,0.38064,0.046848,5.04,-6.04625,29.04125,22.856,-13.792001,23.376001,eccentric,6,5.0,42781.0,361396.0,106324.0,217.0,-135.0
2026-04-09 22:09:48.211183,233391,1518204492,1518205584,-1.067744,0.386496,0.095648,5.83625,-5.15375,29.33,24.392002,-13.744,22.504002,eccentric,6,5.0,42902.0,363889.0,108424.0,327.0,-139.0
2026-04-09 22:09:48.213686,233392,1518213567,1518214317,-1.067744,0.386496,0.095648,5.22375,-4.71625,28.525,24.392002,-13.744,22.504002,eccentric,6,5.0,42902.0,363889.0,108424.0,327.0,-139.0
2026-04-09 22:09:48.216191,233393,1518222979,1518225096,-1.067744,0.386496,0.101504,4.66375,-3.92875,28.245,24.392002,-13.744,22.504002,eccentric,6,5.0,42902.0,363889.0,108424.0,327.0,-139.0
2026-04-09 22:09:48.218693,233394,1518231969,1518233836,-1.042368,0.382592,0.101504,4.92625,-2.75625,26.76625,24.864,-14.144001,22.704,eccentric,6,5.0,42902.0,363889.0,108424.0,327.0,-139.0
2026-04-09 22:09:48.221212,233395,1518246495,1518248823,-1.042368,0.38064,0.066368,4.515,-2.16125,25.97,25.264002,-14.792001,22.872002,eccentric,6,5.0,42902.0,363889.0,108424.0,327.0,-139.0
2026-04-09 22:09:48.227507,233396,1518255492,1518257608,-1.042368,0.38064,0.066368,4.69875,-1.53125,24.94625,25.264002,-14.792001,22.872002,eccentric,6,5.0,42902.0,363889.0,108424.0,327.0,-139.0
2026-04-09 22:09:48.282745,233397,1518264479,1518266325,-1.050176,0.376736,0.080032,5.1275,-1.89875,23.8,23.896002,-14.576001,21.44,eccentric,6,5.0,42902.0,363889.0,108424.0,327.0,-139.0
2026-04-09 22:09:48.286310,233398,1518279009,1518281217,-1.050176,0.376736,0.080032,5.53875,-1.435,22.741251,23.896002,-14.576001,21.44,eccentric,6,5.0,42902.0,363889.0,108424.0,327.0,-139.0
2026-04-09 22:09:48.288740,233399,1518287921,1518289914,-1.01504,0.368928,0.085888,5.27625,-1.51375,21.525,25.632002,-14.416,22.424002,eccentric,6,5.0,42902.0,363889.0,108424.0,327.0,-139.0
2026-04-09 22:09:48.291170,233400,1518296833,1518298661,-1.01504,0.368928,0.085888,4.7075,-0.42875,20.991251,25.632002,-14.416,22.424002,eccentric,6,5.0,42902.0,363889.0,108424.0,327.0,-139.0
2026-04-09 22:09:48.319981,233410,1518306267,1518307501,-1.003328,0.384544,0.105408,5.6175,0.13125,20.06375,24.880001,-15.224001,23.208,eccentric,6,5.0,43018.0,362635.0,107593.0,279.0,-148.0
2026-04-09 22:09:48.322495,233411,1518320757,1518322526,-1.003328,0.384544,0.105408,5.3725,0.56,18.7425,24.880001,-15.224001,23.208,eccentric,6,5.0,43018.0,362635.0,107593.0,279.0,-148.0
2026-04-09 22:09:48.325005,233412,1518329735,1518331288,-1.022848,0.423584,0.07808,3.9725,1.30375,17.08875,24.288002,-15.360001,24.992,eccentric,6,5.0,43018.0,362635.0,107593.0,279.0,-148.0
2026-04-09 22:09:48.327484,233413,1518338770,1518340031,-1.022848,0.423584,0.07808,3.35125,2.65125,14.4025,24.288002,-15.360001,24.992,eccentric,6,5.0,43018.0,362635.0,107593.0,279.0,-148.0
2026-04-09 22:09:48.330020,233414,1518353342,1518355018,-1.007232,0.423584,0.119072,3.36875,2.9925,11.19125,24.088001,-15.272,23.336,eccentric,6,5.0,43018.0,362635.0,107593.0,279.0,-148.0
2026-04-09 22:09:48.333657,233415,1518362382,1518363763,-1.007232,0.423584,0.119072,0.37625,3.54375,7.81375,24.088001,-15.272,23.336,eccentric,6,5.0,43018.0,362635.0,107593.0,279.0,-148.0
2026-04-09 22:09:48.366378,233416,1518371344,1518372467,-1.007232,0.333792,0.070272,-4.2,3.92875,6.4575,25.184002,-16.072,23.880001,eccentric,6,5.0,43018.0,362635.0,107593.0,279.0,-148.0
2026-04-09 22:09:48.370009,233417,1518385844,1518387358,-1.007232,0.386496,0.076128,-5.18875,3.5175,6.44875,24.976002,-15.944001,23.792002,eccentric,6,5.0,43018.0,362635.0,107593.0,279.0,-148.0
2026-04-09 22:09:48.372463,233418,1518394758,1518396093,-1.007232,0.386496,0.076128,-2.44125,3.5525,7.21875,24.976002,-15.944001,23.792002,eccentric,6,5.0,43018.0,362635.0,107593.0,279.0,-148.0
2026-04-09 22:09:48.397427,233428,1518403660,1518404704,-1.007232,0.386496,0.06832,0.23625,3.45625,6.15125,24.976002,-15.944001,23.792002,eccentric,6,5.0,42946.0,362660.0,107632.0,278.0,-120.0
2026-04-09 22:09:48.399986,233429,1518412658,1518413491,-1.013088,0.376736,0.06832,0.0875,3.08875,4.235,25.048,-15.400001,21.28,eccentric,6,5.0,42946.0,362660.0,107632.0,278.0,-120.0
2026-04-09 22:09:48.402450,233430,1518427192,1518428478,-1.011136,0.366976,0.081984,0.3675,2.73875,2.8875,25.272001,-15.592001,23.44,eccentric,6,5.0,42946.0,362660.0,107632.0,278.0,-120.0
2026-04-09 22:09:48.408723,233431,1518436123,1518437215,-1.011136,0.366976,0.081984,1.5925,2.44125,0.67375,25.272001,-15.592001,23.44,eccentric,6,5.0,42946.0,362660.0,107632.0,278.0,-120.0
2026-04-09 22:09:48.438952,233432,1518445041,1518445943,-1.011136,0.3904,0.121024,2.6075,3.43875,-0.32375,23.576,-15.728001,27.224,eccentric,6,5.0,42946.0,362660.0,107632.0,278.0,-120.0
2026-04-09 22:09:48.442502,233433,1518459549,1518460900,-1.011136,0.3904,0.121024,3.77125,4.40125,-2.555,23.576,-15.728001,27.224,eccentric,6,5.0,42946.0,362660.0,107632.0,278.0,-120.0
2026-04-09 22:09:48.444989,233434,1518468491,1518469594,-1.026752,0.38064,0.0976,3.465,4.87375,-4.73375,25.328001,-15.856001,23.304,eccentric,6,5.0,42946.0,362660.0,107632.0,278.0,-120.0
2026-04-09 22:09:48.448758,233435,1518477394,1518478281,-1.026752,0.38064,0.0976,2.0475,6.0375,-6.93875,25.328001,-15.856001,23.304,eccentric,6,5.0,42946.0,362660.0,107632.0,278.0,-120.0
2026-04-09 22:09:48.478875,233436,1518491919,1518493216,-1.038464,0.343552,0.070272,0.7875,6.83375,-8.505,23.728,-15.336,24.944,eccentric,6,5.0,42946.0,362660.0,107632.0,278.0,-120.0
2026-04-09 22:09:48.482531,233437,1518500861,1518501948,-1.038464,0.343552,0.070272,-0.63,6.8775,-9.56375,23.728,-15.336,24.944,eccentric,6,5.0,42946.0,362660.0,107632.0,278.0,-120.0
2026-04-09 22:09:48.510064,233448,1518509877,1518510708,-1.011136,0.382592,0.11712,0.69125,6.965,-10.605001,25.576002,-15.752001,23.208,eccentric,6,5.0,42951.0,362952.0,107840.0,299.0,-141.0
2026-04-09 22:09:48.512466,233449,1518519406,1518521504,-1.011136,0.382592,0.11712,0.04375,7.51625,-13.335,25.576002,-15.752001,23.208,eccentric,6,5.0,42951.0,362952.0,107840.0,299.0,-141.0
2026-04-09 22:09:48.515022,233450,1518534020,1518534355,-1.020896,0.3416,0.109312,-2.485,8.58375,-15.47,25.592001,-15.512001,23.392,eccentric,6,5.0,42951.0,362952.0,107840.0,299.0,-141.0
2026-04-09 22:09:48.517534,233451,1518543348,1518545131,-1.020896,0.3416,0.109312,-5.53875,9.58125,-16.8,25.592001,-15.512001,23.392,eccentric,6,5.0,42951.0,362952.0,107840.0,299.0,-141.0
