pc_time,serial_num,sensor_ts,host_ts,ax,ay,az,gx,gy,gz,mx,my,mz,phase,rpe,weight_kg,ppg_a,ppg_b,ppg_c,ppg_d,ppg_e
2026-04-09 22:09:53.609576,234393,1523616336,1523617573,-1.020896,0.316224,0.062464,0.7175,10.1325,-20.055,27.408,-12.776001,23.952002,concentric,6,5.0,41379.0,382588.0,120434.0,1711.0,-140.0
2026-04-09 22:09:53.614983,234394,1523625222,1523626317,-1.022848,0.343552,0.083936,2.00375,10.45625,-24.3425,26.960001,-12.944,22.960001,concentric,6,5.0,41379.0,382588.0,120434.0,1711.0,-140.0
2026-04-09 22:09:53.641678,234404,1523634834,1523635354,-1.022848,0.343552,0.083936,3.29,10.3075,-28.81375,26.960001,-12.944,22.960001,concentric,6,5.0,41336.0,383212.0,120798.0,1770.0,-140.0
2026-04-09 22:09:53.643190,234405,1523644267,1523646166,-1.007232,0.306464,0.093696,3.01875,10.28125,-33.635,26.960001,-12.944,22.960001,concentric,6,5.0,41336.0,383212.0,120798.0,1770.0,-140.0
2026-04-09 22:09:53.647432,234406,1523658774,1523661097,-1.009184,0.306464,0.093696,0.77,11.15625,-36.8025,27.152,-11.72,23.096,concentric,6,5.0,41336.0,383212.0,120798.0,1770.0,-140.0
2026-04-09 22:09:53.649124,234407,1523667758,1523669838,-1.036512,0.259616,0.095648,-2.10875,12.73125,-38.71875,27.104002,-11.768001,22.776001,concentric,6,5.0,41336.0,383212.0,120798.0,1770.0,-140.0
2026-04-09 22:09:53.650690,234408,1523676686,1523678521,-1.036512,0.259616,0.095648,-4.0075,13.23875,-40.34625,27.104002,-11.768001,22.776001,concentric,6,5.0,41336.0,383212.0,120798.0,1770.0,-140.0
2026-04-09 22:09:53.707944,234409,1523685640,1523687199,-1.056032,0.277184,0.056608,-4.2875,13.755,-40.03125,26.536001,-11.232,24.144001,concentric,6,5.0,41336.0,383212.0,120798.0,1770.0,-140.0
2026-04-09 22:09:53.710368,234410,1523700105,1523702144,-1.056032,0.277184,0.056608,-4.34875,13.39625,-40.46875,26.536001,-11.232,24.144001,concentric,6,5.0,41336.0,383212.0,120798.0,1770.0,-140.0
2026-04-09 22:09:53.714929,234411,1523709014,1523710835,-1.085312,0.25376,0.11712,-4.865,12.69625,-40.2675,26.680002,-11.464001,22.856,concentric,6,5.0,41336.0,383212.0,120798.0,1770.0,-140.0
2026-04-09 22:09:53.716712,234412,1523717924,1523719505,-1.085312,0.25376,0.11712,-2.66875,12.67,-39.50625,26.680002,-11.464001,22.856,concentric,6,5.0,41336.0,383212.0,120798.0,1770.0,-140.0
2026-04-09 22:09:53.744955,234422,1523732488,1523734376,-1.097024,0.28304,0.10736,0.5775,11.57625,-39.8825,26.856,-11.352,22.784,concentric,6,5.0,41390.0,383736.0,121123.0,1795.0,-137.0
2026-04-09 22:09:53.746696,234423,1523741430,1523743124,-1.097024,0.28304,0.10736,-0.5425,13.0025,-40.94125,26.856,-11.352,22.784,concentric,6,5.0,41390.0,383736.0,121123.0,1795.0,-137.0
2026-04-09 22:09:53.748183,234424,1523750430,1523751865,-1.10288,0.242048,0.113216,-3.5525,14.105001,-39.71625,26.080002,-11.248,23.544,concentric,6,5.0,41390.0,383736.0,121123.0,1795.0,-137.0
2026-04-09 22:09:53.752471,234425,1523764940,1523766849,-1.114592,0.269376,0.111264,-3.0975,15.61875,-37.61625,26.080002,-9.912001,23.768002,concentric,6,5.0,41390.0,383736.0,121123.0,1795.0,-137.0
2026-04-09 22:09:53.754147,234426,1523773879,1523775537,-1.114592,0.269376,0.111264,-1.35625,16.9575,-36.0675,25.640001,-9.912001,23.768002,concentric,6,5.0,41390.0,383736.0,121123.0,1795.0,-137.0
2026-04-09 22:09:53.755717,234427,1523782853,1523784258,-1.114592,0.269376,0.111264,-1.58375,16.9575,-35.51625,25.640001,-9.912001,23.768002,concentric,6,5.0,41390.0,383736.0,121123.0,1795.0,-137.0
2026-04-09 22:09:53.788219,234428,1523797416,1523799201,-1.14192,0.259616,0.072224,-4.2175,17.24625,-35.56,25.880001,-10.192,22.808,concentric,6,5.0,41390.0,383736.0,121123.0,1795.0,-137.0
2026-04-09 22:09:53.791284,234429,1523806328,1523807904,-1.165344,0.261568,0.037088,-6.23,16.49375,-35.6475,26.216002,-10.256001,20.896002,concentric,6,5.0,41390.0,383736.0,121123.0,1795.0,-137.0
2026-04-09 22:09:53.792746,234430,1523815260,1523816568,-1.165344,0.261568,0.037088,-4.29625,15.846251,-38.08875,26.216002,-10.256001,20.896002,concentric,6,5.0,41390.0,383736.0,121123.0,1795.0,-137.0
2026-04-09 22:09:53.798658,234431,1523824165,1523825259,-1.165344,0.261568,0.037088,-0.98,15.07625,-37.45875,26.216002,-10.256001,20.896002,concentric,6,5.0,41390.0,383736.0,121123.0,1795.0,-137.0
2026-04-09 22:09:53.857479,234442,1523838788,1523840643,-1.14192,0.265472,0.109312,1.39125,15.18125,-38.5175,25.968,-10.080001,21.224,concentric,6,5.0,41379.0,386496.0,123039.0,2110.0,-148.0
2026-04-09 22:09:53.861529,234443,1523847779,1523849326,-1.136064,0.267424,0.16592,1.74125,16.33625,-38.64,25.608002,-10.008,20.888,concentric,6,5.0,41379.0,386496.0,123039.0,2110.0,-148.0
2026-04-09 22:09:53.863131,234444,1523856701,1523858028,-1.136064,0.267424,0.16592,-0.2975,18.61125,-40.915,25.608002,-10.008,20.888,concentric,6,5.0,41379.0,386496.0,123039.0,2110.0,-148.0
2026-04-09 22:09:53.864803,234445,1523871189,1523873014,-1.159488,0.28304,0.083936,-3.33375,19.460001,-41.72,24.128,-9.912001,23.072,concentric,6,5.0,41379.0,386496.0,123039.0,2110.0,-148.0
2026-04-09 22:09:53.868676,234446,1523880113,1523881762,-1.159488,0.28304,0.083936,-2.3275,20.02875,-42.0525,24.128,-9.912001,23.072,concentric,6,5.0,41379.0,386496.0,123039.0,2110.0,-148.0
2026-04-09 22:09:53.870189,234447,1523889036,1523890480,-1.1712,0.22448,0.007808,-1.95125,20.27375,-43.8725,25.392002,-9.744,20.128,concentric,6,5.0,41379.0,386496.0,123039.0,2110.0,-148.0
2026-04-09 22:09:53.877390,234448,1523903540,1523905345,-1.1712,0.22448,0.007808,-2.14375,19.71375,-44.8525,25.392002,-9.744,20.128,concentric,6,5.0,41379.0,386496.0,123039.0,2110.0,-148.0
2026-04-09 22:09:53.905874,234449,1523912476,1523914051,-1.202432,0.261568,0.052704,0.3675,20.265,-45.325,24.864,-9.048,20.400002,concentric,6,5.0,41379.0,386496.0,123039.0,2110.0,-148.0
2026-04-09 22:09:53.910522,234450,1523921402,1523922792,-1.202432,0.261568,0.052704,4.48875,20.116251,-45.87625,24.864,-9.048,20.400002,concentric,6,5.0,41379.0,386496.0,123039.0,2110.0,-148.0
2026-04-09 22:09:53.973105,234460,1523936530,1523937743,-1.18096,0.267424,0.171776,5.46,22.07625,-46.9175,25.088001,-8.808001,19.312,concentric,6,5.0,41515.0,385194.0,122013.0,1813.0,-151.0
2026-04-09 22:09:53.975741,234461,1523945595,1523946617,-1.182912,0.236192,0.037088,4.3925,24.815,-49.0175,25.088001,-6.76,17.672,concentric,6,5.0,41515.0,385194.0,122013.0,1813.0,-151.0
2026-04-09 22:09:54.011852,234462,1523954546,1523955375,-1.182912,0.236192,0.037088,2.5375,26.25875,-51.7825,24.456001,-8.176001,17.672,concentric,6,5.0,41515.0,385194.0,122013.0,1813.0,-151.0
2026-04-09 22:09:54.014110,234463,1523963548,1523964076,-1.182912,0.236192,0.037088,1.4,25.76,-53.13,24.456001,-8.176001,17.672,concentric,6,5.0,41515.0,385194.0,122013.0,1813.0,-151.0
2026-04-09 22:09:54.018723,234464,1523978489,1523978990,-1.208288,0.197152,-0.052704,4.08625,24.3075,-54.013752,24.12,-8.392,17.832,concentric,6,5.0,41515.0,385194.0,122013.0,1813.0,-151.0
2026-04-09 22:09:54.020422,234465,1523987930,1523989738,-1.194624,0.255712,0.060512,8.61875,22.88125,-54.27625,24.176,-8.128,18.560001,concentric,6,5.0,41515.0,385194.0,122013.0,1813.0,-151.0
2026-04-09 22:09:54.022322,234466,1523996834,1523998427,-1.194624,0.255712,0.060512,14.665,21.91,-54.67875,24.176,-8.128,18.560001,concentric,6,5.0,41515.0,385194.0,122013.0,1813.0,-151.0
2026-04-09 22:09:54.026381,234467,1524005841,1524007163,-1.143872,0.259616,0.201056,16.397501,22.46125,-55.326252,24.176,-7.656,19.192001,concentric,6,5.0,41515.0,385194.0,122013.0,1813.0,-151.0
2026-04-09 22:09:54.029252,234468,1524020326,1524022058,-1.143872,0.259616,0.201056,13.7725,25.6025,-57.5225,23.232,-7.656,19.192001,concentric,6,5.0,41515.0,385194.0,122013.0,1813.0,-151.0
2026-04-09 22:09:54.029451,234469,1524029251,1524030844,-1.116544,0.197152,0.06832,7.98,29.75875,-59.54375,23.712002,-6.864,18.072,concentric,6,5.0,41515.0,385194.0,122013.0,1813.0,-151.0
2026-04-09 22:09:54.056216,234479,1524038652,1524039661,-1.116544,0.197152,0.06832,-0.07875,32.655,-59.59625,23.712002,-6.864,18.072,concentric,6,5.0,41802.0,381857.0,119885.0,1451.0,-143.0
2026-04-09 22:09:54.057985,234480,1524053204,1524054604,-1.143872,0.171776,-0.02928,-4.1125,33.06625,-58.6425,22.816002,-7.648,20.152,concentric,6,5.0,41802.0,381857.0,119885.0,1451.0,-143.0
2026-04-09 22:09:54.059479,234481,1524062174,1524063316,-1.143872,0.171776,-0.02928,-0.81375,31.1325,-56.09625,22.816002,-7.648,20.152,concentric,6,5.0,41802.0,381857.0,119885.0,1451.0,-143.0
2026-04-09 22:09:54.063715,234482,1524071189,1524072107,-1.13216,0.257664,-0.005856,5.74,28.428751,-53.6375,22.328001,-6.376,18.376001,concentric,6,5.0,41802.0,381857.0,119885.0,1451.0,-143.0
2026-04-09 22:09:54.065428,234483,1524080146,1524080836,-1.13216,0.257664,-0.005856,12.10125,26.06625,-53.025,22.328001,-6.376,18.376001,concentric,6,5.0,41802.0,381857.0,119885.0,1451.0,-143.0
2026-04-09 22:09:54.067764,234484,1524095097,1524095811,-1.08336,0.310368,0.10736,15.91625,26.241251,-54.10125,21.936,-6.4,17.704,concentric,6,5.0,41802.0,381857.0,119885.0,1451.0,-143.0
2026-04-09 22:09:54.098138,234485,1524104502,1524106646,-1.08336,0.310368,0.10736,16.52875,27.65875,-56.7,21.936,-6.4,17.704,concentric,6,5.0,41802.0,381857.0,119885.0,1451.0,-143.0
2026-04-09 22:09:54.100388,234486,1524113500,1524115345,-1.071648,0.298656,0.103456,11.7425,29.3825,-60.05125,21.704,-5.992,16.904001,concentric,6,5.0,41802.0,381857.0,119885.0,1451.0,-143.0
2026-04-09 22:09:54.105420,234487,1524122620,1524124073,-1.071648,0.298656,0.103456,5.6525,32.6725,-61.985,21.704,-5.992,16.904001,concentric,6,5.0,41802.0,381857.0,119885.0,1451.0,-143.0
2026-04-09 22:09:54.134499,234498,1524137562,1524138979,-1.173152,0.245952,-0.01952,3.01875,34.86,-62.7725,21.776001,-5.88,16.008001,concentric,6,5.0,42362.0,375505.0,115700.0,844.0,-153.0
2026-04-09 22:09:54.138697,234499,1524146657,1524147883,-1.167296,0.16592,0.02928,0.4725,36.89875,-61.11875,21.240002,-5.312,16.984001,concentric,6,5.0,42362.0,375505.0,115700.0,844.0,-153.0
2026-04-09 22:09:54.141191,234500,1524155638,1524156599,-1.167296,0.16592,0.02928,1.4175,36.67125,-56.6125,21.240002,-5.312,16.984001,concentric,6,5.0,42362.0,375505.0,115700.0,844.0,-153.0
2026-04-09 22:09:54.144820,234501,1524170175,1524171552,-1.188768,0.27328,0.089792,2.30125,37.51125,-51.555,20.424002,-5.048,17.92,concentric,6,5.0,42362.0,375505.0,115700.0,844.0,-153.0
2026-04-09 22:09:54.173462,234502,1524179156,1524180281,-1.188768,0.27328,0.089792,2.45,39.0425,-47.73125,20.424002,-5.048,17.92,concentric,6,5.0,42362.0,375505.0,115700.0,844.0,-153.0
2026-04-09 22:09:54.177834,234503,1524188075,1524189004,-1.179008,0.271328,-0.023424,-2.1525,40.88,-46.9525,20.392,-5.312,15.480001,concentric,6,5.0,42362.0,375505.0,115700.0,844.0,-153.0
2026-04-09 22:09:54.179492,234504,1524197005,1524197715,-1.179008,0.271328,-0.023424,-6.97375,40.6175,-47.11,20.392,-5.312,15.480001,concentric,6,5.0,42362.0,375505.0,115700.0,844.0,-153.0
2026-04-09 22:09:54.188277,234505,1524211967,1524212633,-1.188768,0.16592,-0.095648,-9.94,40.075,-48.15125,20.752,-5.432,15.224001,concentric,6,5.0,42362.0,375505.0,115700.0,844.0,-153.0
2026-04-09 22:09:54.216917,234506,1524221327,1524223410,-1.188768,0.16592,-0.095648,-7.35,38.35125,-47.1625,20.752,-5.432,15.224001,concentric,6,5.0,42362.0,375505.0,115700.0,844.0,-153.0
2026-04-09 22:09:54.221481,234507,1524230276,1524232096,-1.212192,0.181536,0.001952,-0.7175,37.3275,-43.19875,19.336,-4.472,14.056001,concentric,6,5.0,42362.0,375505.0,115700.0,844.0,-153.0
2026-04-09 22:09:54.249990,234517,1524239825,1524240890,-1.212192,0.181536,0.001952,1.88125,37.07375,-39.89125,19.336,-4.472,14.056001,concentric,6,5.0,42365.0,374839.0,115225.0,804.0,-135.0
2026-04-09 22:09:54.251756,234518,1524254463,1524255817,-1.11264,0.171776,0.054656,-0.315,38.1675,-38.263752,19.608002,-4.84,14.440001,concentric,6,5.0,42365.0,374839.0,115225.0,804.0,-135.0
2026-04-09 22:09:54.253280,234519,1524263414,1524264572,-1.11264,0.171776,0.054656,-5.53,37.835,-38.29,19.608002,-4.84,14.440001,concentric,6,5.0,42365.0,374839.0,115225.0,804.0,-135.0
2026-04-09 22:09:54.257503,234520,1524272366,1524273300,-1.134112,0.183488,-0.074176,-10.2375,36.4,-38.7975,19.208,-4.552,14.368001,concentric,6,5.0,42365.0,374839.0,115225.0,804.0,-135.0
2026-04-09 22:09:54.259396,234521,1524286968,1524288222,-1.065792,0.169824,0.005856,-12.27625,34.37,-35.665,19.208,-4.712,11.152,concentric,6,5.0,42365.0,374839.0,115225.0,804.0,-135.0
2026-04-09 22:09:54.306951,234522,1524295889,1524296965,-1.065792,0.169824,0.005856,-10.28125,34.2825,-33.81,18.624,-4.712,11.152,concentric,6,5.0,42365.0,374839.0,115225.0,804.0,-135.0
2026-04-09 22:09:54.309131,234523,1524304828,1524305660,-1.065792,0.169824,0.005856,-10.535,35.0875,-33.845,18.624,-4.712,11.152,concentric,6,5.0,42365.0,374839.0,115225.0,804.0,-135.0
2026-04-09 22:09:54.313783,234524,1524319321,1524320555,-1.098976,0.1952,0.007808,-12.39,35.07875,-32.6375,18.384,-4.576,13.552001,concentric,6,5.0,42365.0,374839.0,115225.0,804.0,-135.0
2026-04-09 22:09:54.315508,234525,1524328214,1524329237,-1.042368,0.10736,-0.044896,-13.32625,32.6375,-32.41,17.912,-4.744,14.136001,concentric,6,5.0,42365.0,374839.0,115225.0,804.0,-135.0
2026-04-09 22:09:54.339552,234535,1524337627,1524337969,-1.042368,0.10736,-0.044896,-14.542501,29.785,-33.06625,17.912,-4.744,14.136001,concentric,6,5.0,42365.0,372897.0,113984.0,706.0,-134.0
2026-04-09 22:09:54.344442,234536,1524346921,1524348814,-1.042368,0.060512,-0.130784,-18.76,25.62,-31.52625,17.912,-4.744,14.136001,concentric,6,5.0,42365.0,372897.0,113984.0,706.0,-134.0
2026-04-09 22:09:54.345727,234537,1524361530,1524363739,-1.075552,0.060512,-0.130784,-19.18,21.90125,-28.21875,16.552,-4.808,12.56,concentric,6,5.0,42365.0,372897.0,113984.0,706.0,-134.0
2026-04-09 22:09:54.349739,234538,1524370451,1524372442,-1.089216,0.08784,-0.16592,-15.89875,18.76875,-25.7775,16.936,-4.408,14.280001,concentric,6,5.0,42365.0,372897.0,113984.0,706.0,-134.0
2026-04-09 22:09:54.354944,234539,1524379406,1524381164,-1.089216,0.08784,-0.16592,-13.7375,15.75,-24.99875,16.936,-4.408,14.280001,concentric,6,5.0,42365.0,372897.0,113984.0,706.0,-134.0
2026-04-09 22:09:54.385005,234540,1524393920,1524396767,-1.071648,0.076128,-0.130784,-10.7625,11.69,-25.095,17.016,-4.552,14.440001,concentric,6,5.0,42365.0,372897.0,113984.0,706.0,-134.0
2026-04-09 22:09:54.393857,234541,1524402884,1524403424,-1.071648,0.076128,-0.130784,-6.51,6.3175,-25.94375,17.016,-4.552,14.440001,concentric,6,5.0,42365.0,372897.0,113984.0,706.0,-134.0
2026-04-09 22:09:54.395498,234542,1524412293,1524414182,-1.069696,0.070272,-0.074176,-5.90625,3.05375,-27.74625,18.016,-5.216,13.288001,concentric,6,5.0,42365.0,372897.0,113984.0,706.0,-134.0
2026-04-09 22:09:54.397003,234543,1524421248,1524422927,-1.069696,0.070272,-0.074176,-7.41125,3.4825,-27.4575,18.016,-5.216,13.288001,concentric,6,5.0,42365.0,372897.0,113984.0,706.0,-134.0
2026-04-09 22:09:54.464200,234554,1524435735,1524437802,-1.042368,0.035136,-0.093696,-11.34875,6.475,-26.565,17.28,-5.424,13.328001,concentric,6,5.0,42710.0,368994.0,111081.0,412.0,-142.0
2026-04-09 22:09:54.465740,234555,1524444711,1524446556,-1.042368,0.035136,-0.093696,-12.8275,9.765,-27.4925,17.28,-5.424,13.328001,concentric,6,5.0,42710.0,368994.0,111081.0,412.0,-142.0
2026-04-09 22:09:54.470119,234556,1524453664,1524455311,-1.036512,0.099552,-0.150304,-8.89,11.34,-28.595,17.344002,-4.904,13.240001,concentric,6,5.0,42710.0,368994.0,111081.0,412.0,-142.0
2026-04-09 22:09:54.471726,234557,1524468168,1524470233,-1.06384,0.052704,-0.203008,-7.88375,10.8325,-29.70625,16.584002,-4.992,13.152,concentric,6,5.0,42710.0,368994.0,111081.0,412.0,-142.0
2026-04-09 22:09:54.473308,234558,1524477144,1524478972,-1.06384,0.052704,-0.203008,-9.8175,10.8675,-30.72125,16.584002,-4.992,13.152,concentric,6,5.0,42710.0,368994.0,111081.0,412.0,-142.0
2026-04-09 22:09:54.477512,234559,1524486083,1524487725,-1.06384,0.052704,-0.203008,-9.12625,9.695,-29.2775,16.584002,-4.992,13.152,concentric,6,5.0,42710.0,368994.0,111081.0,412.0,-142.0
2026-04-09 22:09:54.479950,234560,1524500612,1524502666,-0.964288,-0.02928,-0.17568,-10.045,8.23375,-29.8725,16.328001,-4.6,14.832001,concentric,6,5.0,42710.0,368994.0,111081.0,412.0,-142.0
2026-04-09 22:09:54.484010,234561,1524509554,1524511378,-1.018944,0.076128,-0.222528,-9.205,7.95375,-29.785,15.768001,-4.976,15.328001,concentric,6,5.0,42710.0,368994.0,111081.0,412.0,-142.0
2026-04-09 22:09:54.516396,234562,1524518562,1524520151,-1.018944,0.076128,-0.222528,-3.89375,5.71375,-28.81375,15.768001,-4.976,15.328001,concentric,6,5.0,42710.0,368994.0,111081.0,412.0,-142.0
2026-04-09 22:09:54.518012,234563,1524527485,1524528850,-1.018944,0.02928,-0.15616,3.1675,4.3225,-30.68625,15.768001,-4.976,15.328001,concentric,6,5.0,42710.0,368994.0,111081.0,412.0,-142.0
2026-04-09 22:09:54.545828,234573,1524542168,1524543848,-0.964288,0.02928,-0.15616,3.2025,2.52,-32.9,16.328001,-4.832,13.056001,concentric,6,5.0,43074.0,363150.0,107017.0,140.0,-130.0
2026-04-09 22:09:54.550050,234574,1524551152,1524552543,-0.987712,-0.066368,-0.226432,-1.47,0.8925,-29.86375,16.304,-4.736,13.248001,concentric,6,5.0,43074.0,363150.0,107017.0,140.0,-130.0
2026-04-09 22:09:54.551761,234575,1524560157,1524561284,-0.987712,-0.066368,-0.226432,-2.84375,0.14,-28.67375,16.304,-4.736,13.248001,concentric,6,5.0,43074.0,363150.0,107017.0,140.0,-130.0
2026-04-09 22:09:54.553607,234576,1524574668,1524576263,-0.940864,0.001952,-0.152256,3.3075,-0.035,-26.7925,14.000001,-4.84,14.448001,concentric,6,5.0,43074.0,363150.0,107017.0,140.0,-130.0
2026-04-09 22:09:54.558708,234577,1524583671,1524584975,-0.940864,0.001952,-0.152256,5.90625,-1.61875,-24.465,14.000001,-4.84,14.448001,concentric,6,5.0,43074.0,363150.0,107017.0,140.0,-130.0
2026-04-09 22:09:54.567474,234578,1524592637,1524593701,-0.929152,0.031232,-0.111264,5.3025,-3.03625,-26.39875,15.024001,-4.488,14.288001,concentric,6,5.0,43074.0,363150.0,107017.0,140.0,-130.0
2026-04-09 22:09:54.606017,234579,1524601564,1524602426,-0.929152,0.031232,-0.111264,6.545,-0.49875,-27.58,15.024001,-4.488,14.288001,concentric,6,5.0,43074.0,363150.0,107017.0,140.0,-130.0
2026-04-09 22:09:54.609515,234580,1524616032,1524617342,-0.894016,-0.03904,-0.076128,1.72375,2.625,-27.34375,16.0,-4.968,13.080001,concentric,6,5.0,43074.0,363150.0,107017.0,140.0,-130.0
2026-04-09 22:09:54.612030,234581,1524624921,1524626032,-0.894016,-0.03904,-0.076128,-4.59375,6.50125,-27.195,16.0,-4.968,13.080001,concentric,6,5.0,43074.0,363150.0,107017.0,140.0,-130.0
2026-04-09 22:09:54.614522,234582,1524633831,1524634727,-0.93696,-0.074176,-0.21472,-7.0875,8.25125,-26.1625,15.784,-4.504,13.088,concentric,6,5.0,43074.0,363150.0,107017.0,140.0,-130.0
2026-04-09 22:09:54.643228,234592,1524648539,1524649717,-0.933056,-0.003904,-0.191296,-3.22,7.14875,-25.8475,16.016,-4.048,13.072001,concentric,6,5.0,43391.0,358220.0,103762.0,2.0,-126.0
2026-04-09 22:09:54.645759,234593,1524657570,1524658443,-0.933056,-0.003904,-0.191296,4.57625,2.6775,-25.89125,16.016,-4.048,13.072001,concentric,6,5.0,43391.0,358220.0,103762.0,2.0,-126.0
2026-04-09 22:09:54.648284,234594,1524666544,1524667185,-0.933056,-0.003904,-0.191296,7.35875,3.17625,-24.5525,16.016,-4.048,13.072001,concentric,6,5.0,43391.0,358220.0,103762.0,2.0,-126.0
2026-04-09 22:09:54.654609,234595,1524681423,1524682188,-0.8784,-0.066368,-0.115168,-4.06875,6.0725,-22.26875,14.504001,-4.784,13.192,concentric,6,5.0,43391.0,358220.0,103762.0,2.0,-126.0
2026-04-09 22:09:54.686034,234596,1524691042,1524692977,-0.892064,-0.148352,-0.163968,-15.8025,6.4925,-22.86375,15.336,-4.512,13.480001,concentric,6,5.0,43391.0,358220.0,103762.0,2.0,-126.0
2026-04-09 22:09:54.689618,234597,1524699977,1524701685,-0.892064,-0.148352,-0.163968,-15.015,7.385,-24.255,15.336,-4.512,13.480001,concentric,6,5.0,43391.0,358220.0,103762.0,2.0,-126.0
2026-04-09 22:09:54.692060,234598,1524708879,1524710358,-1.003328,0.025376,-0.240096,-4.62,5.11875,-20.6675,15.336,-4.496,12.592001,concentric,6,5.0,43391.0,358220.0,103762.0,2.0,-126.0
2026-04-09 22:09:54.697070,234599,1524723434,1524725264,-1.003328,0.025376,-0.240096,7.25375,1.3825,-18.41,15.336,-4.496,12.592001,concentric,6,5.0,43391.0,358220.0,103762.0,2.0,-126.0
2026-04-09 22:09:54.727393,234600,1524732422,1524733992,-0.866688,-0.171776,-0.152256,13.69375,-1.19875,-17.94625,13.896001,-4.872,12.624001,concentric,6,5.0,43391.0,358220.0,103762.0,2.0,-126.0
2026-04-09 22:09:54.772078,234611,1524741770,1524742780,-0.866688,-0.171776,-0.152256,3.5525,1.0675,-18.29625,13.896001,-4.872,12.624001,concentric,6,5.0,43283.0,357356.0,103406.0,13.0,-153.0
2026-04-09 22:09:54.778293,234612,1524750850,1524751520,-0.88816,-0.054656,0.124928,-2.3625,9.905,-18.17375,15.624001,-4.52,12.904,concentric,6,5.0,43283.0,357356.0,103406.0,13.0,-153.0
2026-04-09 22:09:54.780800,234613,1524765670,1524766456,-0.88816,-0.054656,0.124928,0.5425,14.11375,-13.3875,15.624001,-4.52,12.904,concentric,6,5.0,43283.0,357356.0,103406.0,13.0,-153.0
2026-04-09 22:09:54.783231,234614,1524775140,1524777273,-0.958432,0.050752,-0.222528,-5.11,14.18375,-14.63,15.000001,-4.44,13.776001,concentric,6,5.0,43283.0,357356.0,103406.0,13.0,-153.0
2026-04-09 22:09:54.785762,234615,1524784111,1524785986,-0.958432,0.050752,-0.222528,-11.1125,10.50875,-18.0425,15.000001,-4.44,13.776001,concentric,6,5.0,43283.0,357356.0,103406.0,13.0,-153.0
2026-04-09 22:09:54.788230,234616,1524798719,1524801020,-0.94672,-0.21472,-0.288896,-9.65125,7.07875,-17.928751,15.152,-4.464,12.552001,concentric,6,5.0,43283.0,357356.0,103406.0,13.0,-153.0
2026-04-09 22:09:54.790810,234617,1524807684,1524809733,-0.94672,-0.21472,-0.288896,-8.77625,5.48625,-17.80625,15.152,-4.464,12.552001,concentric,6,5.0,43283.0,357356.0,103406.0,13.0,-153.0
2026-04-09 22:09:54.793247,234618,1524816605,1524818423,-0.991616,-0.142496,-0.072224,-2.1875,6.37875,-12.62625,14.504001,-4.376,12.480001,concentric,6,5.0,43283.0,357356.0,103406.0,13.0,-153.0
2026-04-09 22:09:54.798255,234619,1524825624,1524827203,-0.991616,-0.142496,-0.072224,12.565,7.32375,-4.68125,14.504001,-4.376,12.480001,concentric,6,5.0,43283.0,357356.0,103406.0,13.0,-153.0
2026-04-09 21:59:01.391817,117800,871443278,871444127,0.915488,-0.396256,0.011712,9.9225,9.4675,-7.81375,-24.568,15.120001,16.36,eccentric,5,3.0,37223.0,373624.0,106226.0,685.0,-133.0
2026-04-09 21:59:01.393641,117801,871457721,871459035,0.942816,-0.441152,0.050752,4.3225,9.70375,-8.14625,-23.672,14.864,15.088,eccentric,5,3.0,37223.0,373624.0,106226.0,685.0,-133.0
2026-04-09 21:59:01.398283,117802,871466610,871467692,0.942816,-0.441152,0.050752,-0.00875,10.0625,-8.33875,-23.672,14.864,15.088,eccentric,5,3.0,37223.0,373624.0,106226.0,685.0,-133.0
2026-04-09 21:59:01.400032,117803,871475533,871476464,0.95648,-0.45872,0.054656,-0.0525,9.63375,-7.35,-23.416,15.192,15.480001,eccentric,5,3.0,37223.0,373624.0,106226.0,685.0,-133.0
2026-04-09 21:59:01.423987,117813,871490172,871491674,0.95648,-0.45872,0.044896,1.26,8.9425,-6.93875,-23.416,15.192,15.480001,eccentric,5,3.0,37243.0,374938.0,107203.0,772.0,-136.0
2026-04-09 21:59:01.428870,117814,871499101,871500383,0.938912,-0.45872,0.044896,1.12875,8.435,-6.48375,-23.792002,14.496,16.064001,eccentric,5,3.0,37243.0,374938.0,107203.0,772.0,-136.0
2026-04-09 21:59:01.434681,117815,871508081,871509115,0.938912,-0.45872,0.044896,-0.86625,8.05875,-5.52125,-23.792002,14.496,16.064001,eccentric,5,3.0,37243.0,374938.0,107203.0,772.0,-136.0
2026-04-09 21:59:01.462982,117816,871517140,871517815,0.929152,-0.452864,0.046848,-4.935,6.74625,-4.41,-23.976002,14.536,15.488001,eccentric,5,3.0,37243.0,374938.0,107203.0,772.0,-136.0
2026-04-09 21:59:01.467405,117817,871531985,871532741,0.942816,-0.437248,0.00976,-10.00125,5.46875,-3.185,-23.704,14.328001,15.288001,eccentric,5,3.0,37243.0,374938.0,107203.0,772.0,-136.0
2026-04-09 21:59:01.472377,117818,871541357,871543491,0.942816,-0.437248,0.00976,-16.485,4.165,-2.3975,-23.704,14.328001,15.288001,eccentric,5,3.0,37243.0,374938.0,107203.0,772.0,-136.0
2026-04-09 21:59:01.475197,117819,871550235,871552188,0.942816,-0.46848,0.025376,-23.8875,2.82625,-1.8375,-23.704,14.328001,15.288001,eccentric,5,3.0,37243.0,374938.0,107203.0,772.0,-136.0
2026-04-09 21:59:01.529313,117820,871564809,871567094,0.923296,-0.466528,0.025376,-28.98875,1.96,-0.875,-23.76,14.456,14.336,eccentric,5,3.0,37243.0,374938.0,107203.0,772.0,-136.0
2026-04-09 21:59:01.533474,117821,871573716,871575773,0.903776,-0.46848,0.013664,-27.86875,0.315,0.5075,-23.664001,13.984,14.56,eccentric,5,3.0,37243.0,374938.0,107203.0,772.0,-136.0
2026-04-09 21:59:01.558248,117831,871582869,871584522,0.903776,-0.46848,0.013664,-21.7875,-1.35625,1.4175,-23.664001,13.984,14.56,eccentric,5,3.0,37061.0,371752.0,104737.0,575.0,-143.0
2026-04-09 21:59:01.560281,117832,871591984,871593265,0.892064,-0.460672,0.001952,-15.715,-2.7475,1.785,-23.704,14.112,16.048,eccentric,5,3.0,37061.0,371752.0,104737.0,575.0,-143.0
2026-04-09 21:59:01.562742,117833,871606454,871608185,0.892064,-0.460672,0.001952,-10.5875,-4.2525,1.8375,-23.704,14.112,16.048,eccentric,5,3.0,37061.0,371752.0,104737.0,575.0,-143.0
2026-04-09 21:59:01.565277,117834,871615362,871616878,0.886208,-0.437248,-0.007808,-7.1575,-5.22375,1.35625,-23.504002,14.832001,14.376,eccentric,5,3.0,37061.0,371752.0,104737.0,575.0,-143.0
2026-04-09 21:59:01.567752,117835,871624378,871625594,0.886208,-0.437248,-0.007808,-3.57875,-5.50375,1.2075,-23.504002,14.832001,14.376,eccentric,5,3.0,37061.0,371752.0,104737.0,575.0,-143.0
2026-04-09 21:59:01.570216,117836,871638962,871640618,0.892064,-0.4392,0.0,-0.56875,-5.74,1.11125,-24.320002,14.992001,15.648001,eccentric,5,3.0,37061.0,371752.0,104737.0,575.0,-143.0
2026-04-09 21:59:01.572748,117837,871647884,871649333,0.892064,-0.4392,0.0,1.84625,-6.25625,0.8925,-24.320002,14.992001,15.648001,eccentric,5,3.0,37061.0,371752.0,104737.0,575.0,-143.0
2026-04-09 21:59:01.603017,117838,871656825,871658040,0.909632,-0.46848,0.011712,5.4425,-6.0725,1.67125,-23.944,14.168,15.232,eccentric,5,3.0,37061.0,371752.0,104737.0,575.0,-143.0
2026-04-09 21:59:01.606483,117839,871671272,871672985,0.935008,-0.45872,0.001952,10.1325,-6.48375,1.89,-22.592001,14.712001,15.616001,eccentric,5,3.0,37061.0,371752.0,104737.0,575.0,-143.0
2026-04-09 21:59:01.646436,117850,871680702,871681734,0.935008,-0.45872,0.001952,14.0,-6.93,2.84375,-22.592001,14.712001,15.616001,eccentric,5,3.0,37269.0,374160.0,106633.0,708.0,-147.0
2026-04-09 21:59:01.649025,117851,871689833,871690498,0.935008,-0.45872,0.001952,14.8575,-7.39375,4.01625,-22.592001,14.712001,15.616001,eccentric,5,3.0,37269.0,374160.0,106633.0,708.0,-147.0
2026-04-09 21:59:01.651529,117852,871699109,871701255,0.96624,-0.45872,-0.01952,10.68375,-7.7175,4.29625,-23.096,14.976001,14.856001,eccentric,5,3.0,37269.0,374160.0,106633.0,708.0,-147.0
2026-04-09 21:59:01.656435,117853,871713667,871714132,0.98576,-0.470432,-0.033184,3.605,-8.12,5.6175,-23.328001,14.712001,15.224001,eccentric,5,3.0,37269.0,374160.0,106633.0,708.0,-147.0
2026-04-09 21:59:01.659019,117854,871723139,871724914,0.98576,-0.470432,-0.033184,-1.11125,-8.42625,7.79625,-23.328001,14.712001,15.224001,eccentric,5,3.0,37269.0,374160.0,106633.0,708.0,-147.0
2026-04-09 21:59:01.661475,117855,871732126,871733659,0.952576,-0.480192,-0.001952,-4.1825,-9.275,8.82875,-22.984001,14.704,15.376,eccentric,5,3.0,37269.0,374160.0,106633.0,708.0,-147.0
2026-04-09 21:59:01.668064,117856,871741171,871743176,0.952576,-0.480192,-0.001952,-1.575,-10.08875,10.87625,-22.984001,14.704,15.376,eccentric,5,3.0,37269.0,374160.0,106633.0,708.0,-147.0
2026-04-09 21:59:01.698070,117857,871755731,871756058,0.921344,-0.441152,-0.01952,5.18,-10.57,11.05125,-22.336,15.000001,14.488001,eccentric,5,3.0,37269.0,374160.0,106633.0,708.0,-147.0
2026-04-09 21:59:01.701550,117858,871764914,871766854,0.921344,-0.441152,-0.01952,12.075,-11.33125,10.03625,-22.336,15.000001,14.488001,eccentric,5,3.0,37269.0,374160.0,106633.0,708.0,-147.0
2026-04-09 21:59:01.704062,117859,871773898,871775550,0.913536,-0.40992,-0.035136,14.971251,-10.89375,9.21375,-21.44,15.632001,14.408001,eccentric,5,3.0,37269.0,374160.0,106633.0,708.0,-147.0
2026-04-09 21:59:01.736500,117869,871788458,871790554,0.913536,-0.40992,-0.035136,15.05,-10.4125,8.35625,-21.44,15.632001,14.408001,eccentric,5,3.0,37168.0,375469.0,107567.0,809.0,-143.0
2026-04-09 21:59:01.738988,117870,871797397,871799367,0.880352,-0.425536,-0.027328,13.58,-10.5175,7.0,-21.736002,15.224001,15.856001,eccentric,5,3.0,37168.0,375469.0,107567.0,809.0,-143.0
2026-04-09 21:59:01.741508,117871,871806368,871808096,0.880352,-0.425536,-0.027328,13.64125,-10.21125,5.2675,-21.736002,15.224001,15.856001,eccentric,5,3.0,37168.0,375469.0,107567.0,809.0,-143.0
2026-04-09 21:59:01.744047,117872,871815287,871816812,0.86864,-0.437248,-0.021472,13.8075,-10.52625,3.6575,-21.2,15.592001,15.224001,eccentric,5,3.0,37168.0,375469.0,107567.0,809.0,-143.0
2026-04-09 21:59:01.774139,117873,871829830,871831754,0.86864,-0.437248,-0.021472,14.37625,-10.15875,3.71,-21.2,15.592001,15.224001,eccentric,5,3.0,37168.0,375469.0,107567.0,809.0,-143.0
2026-04-09 21:59:01.777862,117874,871838782,871840475,0.864736,-0.41968,-0.007808,15.00625,-9.37125,2.695,-20.560001,15.288001,15.336,eccentric,5,3.0,37168.0,375469.0,107567.0,809.0,-143.0
2026-04-09 21:59:01.780202,117875,871847700,871849154,0.864736,-0.41968,-0.007808,14.02625,-7.98,1.68,-20.560001,15.288001,15.336,eccentric,5,3.0,37168.0,375469.0,107567.0,809.0,-143.0
2026-04-09 21:59:01.792819,117876,871862202,871864058,0.86864,-0.406016,-0.023424,13.15125,-6.895,0.65625,-20.488,15.216001,15.176001,eccentric,5,3.0,37168.0,375469.0,107567.0,809.0,-143.0
2026-04-09 21:59:01.795241,117877,871871205,871872830,0.86864,-0.406016,-0.031232,11.865,-6.13375,-0.8225,-20.488,15.216001,15.176001,eccentric,5,3.0,37168.0,375469.0,107567.0,809.0,-143.0
2026-04-09 21:59:01.857644,117887,871880134,871881498,0.84912,-0.40016,-0.031232,11.59375,-6.44,-3.36,-21.76,15.200001,14.368001,eccentric,5,3.0,36979.0,374264.0,106466.0,727.0,-138.0
2026-04-09 21:59:01.865215,117888,871895126,871896484,0.8296,-0.427488,-0.001952,9.26625,-7.25375,-4.48875,-20.312,15.872001,15.144001,eccentric,5,3.0,36979.0,374264.0,106466.0,727.0,-138.0
2026-04-09 21:59:01.867701,117889,871904088,871905199,0.8296,-0.427488,-0.001952,7.77,-6.7375,-5.2675,-20.312,15.872001,15.144001,eccentric,5,3.0,36979.0,374264.0,106466.0,727.0,-138.0
2026-04-09 21:59:01.870190,117890,871913037,871913891,0.821792,-0.388448,-0.003904,8.72375,-5.90625,-5.17125,-19.912,15.512001,14.504001,eccentric,5,3.0,36979.0,374264.0,106466.0,727.0,-138.0
2026-04-09 21:59:01.872677,117891,871921981,871922612,0.821792,-0.388448,-0.003904,10.61375,-5.38125,-5.57375,-19.912,15.512001,14.504001,eccentric,5,3.0,36979.0,374264.0,106466.0,727.0,-138.0
2026-04-09 21:59:01.875170,117892,871936910,871937632,0.827648,-0.396256,-0.03904,10.675,-4.445,-7.2625,-20.016,15.608001,15.216001,eccentric,5,3.0,36979.0,374264.0,106466.0,727.0,-138.0
2026-04-09 21:59:01.877729,117893,871946317,871948452,0.827648,-0.396256,-0.03904,9.6425,-3.815,-9.26625,-20.016,15.608001,15.216001,eccentric,5,3.0,36979.0,374264.0,106466.0,727.0,-138.0
2026-04-09 21:59:01.880174,117894,871955238,871957169,0.8296,-0.423584,-0.025376,6.7375,-3.3425,-11.5325,-19.968,15.984001,15.624001,eccentric,5,3.0,36979.0,374264.0,106466.0,727.0,-138.0
2026-04-09 21:59:01.912937,117895,871969767,871972067,0.8296,-0.423584,-0.025376,2.59875,-2.51125,-12.985,-19.968,15.984001,15.624001,eccentric,5,3.0,36979.0,374264.0,106466.0,727.0,-138.0
2026-04-09 21:59:01.920252,117896,871978749,871980803,0.806176,-0.443104,0.025376,4.26125,-1.47,-13.16875,-20.04,15.744,15.824,eccentric,5,3.0,36979.0,374264.0,106466.0,727.0,-138.0
2026-04-09 21:59:01.947699,117907,871987760,871989588,0.806176,-0.443104,0.025376,13.06375,-0.875,-12.3725,-20.04,15.744,15.824,eccentric,5,3.0,36942.0,374804.0,106765.0,758.0,-148.0
2026-04-09 21:59:01.953979,117908,871996817,871998301,0.784704,-0.386496,-0.001952,20.90375,-0.5075,-12.15375,-20.296001,15.336,16.128,eccentric,5,3.0,36942.0,374804.0,106765.0,758.0,-148.0
2026-04-09 21:59:01.956461,117909,872011374,872013228,0.784704,-0.386496,-0.001952,23.1525,1.0325,-13.20375,-20.296001,15.336,16.128,eccentric,5,3.0,36942.0,374804.0,106765.0,758.0,-148.0
2026-04-09 21:59:01.958954,117910,872020311,872021949,0.792512,-0.363072,-0.033184,18.7775,2.2575,-15.68875,-19.864,15.304001,17.024,eccentric,5,3.0,36942.0,374804.0,106765.0,758.0,-148.0
2026-04-09 21:59:01.961473,117911,872029296,872030652,0.792512,-0.363072,-0.033184,14.35,3.85875,-17.36,-19.864,15.304001,17.024,eccentric,5,3.0,36942.0,374804.0,106765.0,758.0,-148.0
2026-04-09 21:59:01.992621,117912,872043823,872045573,0.782752,-0.421632,0.035136,12.85375,5.18875,-18.0775,-22.016,16.176,18.12,eccentric,5,3.0,36942.0,374804.0,106765.0,758.0,-148.0
2026-04-09 21:59:01.995609,117913,872052773,872054254,0.769088,-0.394304,0.042944,16.0125,5.90625,-19.17125,-19.880001,15.768001,15.400001,eccentric,5,3.0,36942.0,374804.0,106765.0,758.0,-148.0
2026-04-09 21:59:02.001505,117914,872061715,872062942,0.769088,-0.394304,0.042944,21.5775,6.86875,-19.10125,-19.880001,15.768001,15.400001,eccentric,5,3.0,36942.0,374804.0,106765.0,758.0,-148.0
2026-04-09 21:59:02.004016,117915,872076150,872077886,0.786656,-0.372832,-0.011712,21.37625,8.6975,-18.585001,-20.096,15.480001,16.856,eccentric,5,3.0,36942.0,374804.0,106765.0,758.0,-148.0
2026-04-09 21:59:02.037695,117925,872085477,872086732,0.786656,-0.372832,-0.011712,15.67125,10.0625,-19.775,-20.096,15.480001,16.856,eccentric,5,3.0,36914.0,374207.0,106328.0,713.0,-142.0
2026-04-09 21:59:02.040265,117926,872094546,872095464,0.782752,-0.41968,0.037088,13.877501,11.87375,-21.91,-20.384,15.648001,17.832,eccentric,5,3.0,36914.0,374207.0,106328.0,713.0,-142.0
2026-04-09 21:59:02.043693,117927,872103485,872104211,0.782752,-0.41968,0.037088,13.13375,12.80125,-21.49875,-20.384,15.648001,17.832,eccentric,5,3.0,36914.0,374207.0,106328.0,713.0,-142.0
2026-04-09 21:59:02.046799,117928,872118464,872119147,0.788608,-0.384544,0.081984,15.190001,13.335,-22.8025,-20.664001,15.040001,18.408,eccentric,5,3.0,36914.0,374207.0,106328.0,713.0,-142.0
2026-04-09 21:59:02.076608,117929,872127754,872129972,0.788608,-0.384544,0.081984,17.38625,14.5775,-21.88375,-20.664001,15.040001,18.408,eccentric,5,3.0,36914.0,374207.0,106328.0,713.0,-142.0
2026-04-09 21:59:02.078688,117930,872136687,872138724,0.776896,-0.388448,0.089792,10.57,17.52625,-21.07,-20.824001,14.664001,17.808,eccentric,5,3.0,36914.0,374207.0,106328.0,713.0,-142.0
2026-04-09 21:59:02.083292,117931,872145597,872147435,0.776896,-0.388448,0.089792,0.945,20.4575,-21.21875,-20.824001,14.664001,17.808,eccentric,5,3.0,36914.0,374207.0,106328.0,713.0,-142.0
2026-04-09 21:59:02.085702,117932,872160071,872160385,0.732,-0.388448,0.023424,-0.37625,21.25375,-22.6625,-20.216002,14.808001,17.776001,eccentric,5,3.0,36914.0,374207.0,106328.0,713.0,-142.0
2026-04-09 21:59:02.131406,117933,872169324,872171158,0.732,-0.388448,0.023424,3.54375,19.03125,-23.8175,-20.216002,14.808001,17.776001,eccentric,5,3.0,36914.0,374207.0,106328.0,713.0,-142.0
2026-04-09 21:59:02.133681,117934,872178242,872179920,0.75152,-0.368928,0.062464,9.275,17.21125,-24.15875,-20.192001,14.888001,17.888,eccentric,5,3.0,36914.0,374207.0,106328.0,713.0,-142.0
2026-04-09 21:59:02.162831,117944,872192872,872194897,0.753472,-0.374784,0.15616,12.95,18.515,-22.98625,-20.192001,14.888001,17.84,eccentric,5,3.0,36740.0,373329.0,105538.0,659.0,-130.0
2026-04-09 21:59:02.166534,117945,872201834,872203605,0.753472,-0.374784,0.15616,7.97125,21.91875,-21.385,-20.064001,15.184001,17.84,eccentric,5,3.0,36740.0,373329.0,105538.0,659.0,-130.0
2026-04-09 21:59:02.173337,117946,872210754,872212304,0.753472,-0.374784,0.15616,1.44375,25.147501,-21.0175,-20.064001,15.184001,17.84,eccentric,5,3.0,36740.0,373329.0,105538.0,659.0,-130.0
2026-04-09 21:59:02.175072,117947,872225343,872227240,0.700768,-0.306464,0.062464,-2.45875,26.705,-22.00625,-20.880001,14.672001,17.768002,eccentric,5,3.0,36740.0,373329.0,105538.0,659.0,-130.0
2026-04-09 21:59:02.176604,117948,872234359,872235992,0.716384,-0.386496,0.003904,-3.955,25.05125,-25.75125,-21.856,14.096001,20.12,eccentric,5,3.0,36740.0,373329.0,105538.0,659.0,-130.0
2026-04-09 21:59:02.180843,117949,872243370,872244720,0.716384,-0.386496,0.003904,0.2275,21.49875,-28.805,-21.856,14.096001,20.12,eccentric,5,3.0,36740.0,373329.0,105538.0,659.0,-130.0
2026-04-09 21:59:02.183232,117950,872252299,872253453,0.716384,-0.386496,0.003904,4.71625,17.61375,-30.79125,-21.856,14.096001,20.12,eccentric,5,3.0,36740.0,373329.0,105538.0,659.0,-130.0
2026-04-09 21:59:02.216375,117951,872266779,872268391,0.72224,-0.33184,0.056608,9.695,15.28625,-29.04125,-20.696001,14.184001,18.480001,eccentric,5,3.0,36740.0,373329.0,105538.0,659.0,-130.0
2026-04-09 21:59:02.220913,117952,872275667,872277101,0.710528,-0.240096,0.163968,12.39875,15.07625,-27.973751,-21.656,14.168,18.632,eccentric,5,3.0,36740.0,373329.0,105538.0,659.0,-130.0
2026-04-09 21:59:02.246737,117963,872285124,872285877,0.710528,-0.240096,0.163968,7.27125,17.255,-29.4,-21.656,14.168,18.632,eccentric,5,3.0,36646.0,374332.0,106135.0,707.0,-135.0
2026-04-09 21:59:02.250848,117964,872294598,872296650,0.691008,-0.3416,0.06832,-1.085,17.94625,-33.29375,-21.344002,13.736001,19.592001,eccentric,5,3.0,36646.0,374332.0,106135.0,707.0,-135.0
2026-04-09 21:59:02.252540,117965,872309293,872311661,0.691008,-0.3416,0.06832,-2.59,16.68625,-35.2275,-21.344002,13.736001,19.592001,eccentric,5,3.0,36646.0,374332.0,106135.0,707.0,-135.0
2026-04-09 21:59:02.254436,117966,872319718,872320541,0.708576,-0.42944,0.070272,1.1725,14.37625,-35.32375,-21.496,13.952001,18.800001,eccentric,5,3.0,36646.0,374332.0,106135.0,707.0,-135.0
2026-04-09 21:59:02.258195,117967,872328694,872329261,0.708576,-0.42944,0.070272,5.075,13.886251,-31.66625,-21.496,13.952001,18.800001,eccentric,5,3.0,36646.0,374332.0,106135.0,707.0,-135.0
2026-04-09 21:59:02.286789,117968,872337896,872340143,0.739808,-0.242048,0.152256,8.295,15.58375,-26.92375,-21.312,13.880001,18.816,eccentric,5,3.0,36646.0,374332.0,106135.0,707.0,-135.0
2026-04-09 21:59:02.291249,117969,872352381,872353008,0.739808,-0.242048,0.152256,4.29625,19.01375,-26.8625,-21.312,13.880001,18.816,eccentric,5,3.0,36646.0,374332.0,106135.0,707.0,-135.0
2026-04-09 21:59:02.293743,117970,872361622,872363805,0.70272,-0.306464,0.132736,-1.7675,22.295,-29.04125,-21.848001,13.616,21.072,eccentric,5,3.0,36646.0,374332.0,106135.0,707.0,-135.0
2026-04-09 21:59:02.295278,117971,872370541,872372551,0.70272,-0.306464,0.132736,-4.2525,22.9775,-31.4475,-21.848001,13.616,21.072,eccentric,5,3.0,36646.0,374332.0,106135.0,707.0,-135.0
2026-04-09 21:59:02.349191,117981,872385138,872385491,0.710528,-0.363072,0.023424,-1.6625,20.58,-32.235,-22.848001,13.160001,20.368,eccentric,5,3.0,36443.0,375453.0,106671.0,763.0,-130.0
2026-04-09 21:59:02.353333,117982,872394395,872396316,0.74176,-0.325984,0.06832,4.10375,17.42125,-30.6425,-22.256,12.896001,20.016,eccentric,5,3.0,36443.0,375453.0,106671.0,763.0,-130.0
2026-04-09 21:59:02.355027,117983,872403336,872405033,0.74176,-0.325984,0.06832,6.41375,15.82,-27.9125,-22.256,12.896001,20.016,eccentric,5,3.0,36443.0,375453.0,106671.0,763.0,-130.0
2026-04-09 21:59:02.356702,117984,872412273,872413804,0.74176,-0.325984,0.06832,4.165,15.89875,-25.76875,-22.256,12.896001,20.016,eccentric,5,3.0,36443.0,375453.0,106671.0,763.0,-130.0
2026-04-09 21:59:02.359071,117985,872426837,872428785,0.786656,-0.255712,0.15616,-2.73875,18.655,-25.17375,-22.984001,12.976001,20.496,eccentric,5,3.0,36443.0,375453.0,106671.0,763.0,-130.0
2026-04-09 21:59:02.361564,117986,872435782,872437505,0.743712,-0.30256,0.113216,-4.2875,21.58625,-29.3825,-23.216002,12.64,20.312,eccentric,5,3.0,36443.0,375453.0,106671.0,763.0,-130.0
2026-04-09 21:59:02.433138,117987,872444717,872446246,0.743712,-0.30256,0.113216,0.0525,22.05,-31.89375,-23.216002,12.64,20.312,eccentric,5,3.0,36443.0,375453.0,106671.0,763.0,-130.0
2026-04-09 21:59:02.436639,117988,872459245,872461151,0.737856,-0.359168,0.046848,5.78375,19.31125,-35.16625,-22.408,12.400001,19.712002,eccentric,5,3.0,36443.0,375453.0,106671.0,763.0,-130.0
2026-04-09 21:59:02.439102,117989,872468168,872469847,0.737856,-0.359168,0.046848,8.785,15.51375,-34.85125,-22.408,12.400001,19.712002,eccentric,5,3.0,36443.0,375453.0,106671.0,763.0,-130.0
2026-04-09 21:59:02.445271,117990,872477069,872478527,0.726144,-0.244,0.105408,8.79375,12.94125,-32.655,-22.696001,12.392,19.704,eccentric,5,3.0,36443.0,375453.0,106671.0,763.0,-130.0
2026-04-09 21:59:02.474706,118000,872491606,872493435,0.726144,-0.244,0.105408,10.29,11.89125,-29.25125,-22.696001,12.392,19.704,eccentric,5,3.0,36292.0,373866.0,105407.0,665.0,-155.0
2026-04-09 21:59:02.479218,118001,872500564,872502145,0.718336,-0.281088,0.162016,3.115,13.3875,-28.49875,-23.096,12.128,20.424002,eccentric,5,3.0,36292.0,373866.0,105407.0,665.0,-155.0
2026-04-09 21:59:02.479302,118002,872509485,872510842,0.718336,-0.281088,0.162016,1.74125,14.21,-28.81375,-23.096,12.128,20.424002,eccentric,5,3.0,36292.0,373866.0,105407.0,665.0,-155.0
2026-04-09 21:59:02.481560,118003,872518428,872519559,0.704672,-0.286944,0.066368,3.77125,14.2275,-29.58375,-23.344002,11.776001,20.04,eccentric,5,3.0,36292.0,373866.0,105407.0,665.0,-155.0
2026-04-09 21:59:02.484015,118004,872532951,872534513,0.704672,-0.286944,0.066368,6.71125,12.46875,-29.91625,-23.344002,11.776001,20.04,eccentric,5,3.0,36292.0,373866.0,105407.0,665.0,-155.0
2026-04-09 21:59:02.486561,118005,872541894,872543244,0.724192,-0.249856,0.0976,10.10625,10.2725,-28.385,-23.552002,11.320001,19.448002,eccentric,5,3.0,36292.0,373866.0,105407.0,665.0,-155.0
2026-04-09 21:59:02.489000,118006,872550943,872551988,0.724192,-0.249856,0.0976,6.825,9.96625,-26.50375,-23.552002,11.320001,19.448002,eccentric,5,3.0,36292.0,373866.0,105407.0,665.0,-155.0
2026-04-09 21:59:02.491568,118007,872565479,872566893,0.75152,-0.251808,0.119072,3.3425,10.3075,-26.215,-24.36,12.136001,22.264002,eccentric,5,3.0,36292.0,373866.0,105407.0,665.0,-155.0
2026-04-09 21:59:02.521738,118008,872574430,872575609,0.759328,-0.23424,0.089792,3.75375,10.42125,-26.73125,-24.608002,11.824,21.184002,eccentric,5,3.0,36292.0,373866.0,105407.0,665.0,-155.0
2026-04-09 21:59:02.525289,118009,872583416,872584303,0.759328,-0.23424,0.089792,5.565,9.3275,-27.553751,-24.608002,11.824,21.184002,eccentric,5,3.0,36292.0,373866.0,105407.0,665.0,-155.0
2026-04-09 21:59:02.550190,118019,872597931,872599233,0.765184,-0.286944,0.140544,8.636251,8.58375,-28.14,-24.2,11.656,20.152,eccentric,5,3.0,36408.0,374606.0,106051.0,723.0,-128.0
2026-04-09 21:59:02.553741,118020,872606835,872607949,0.765184,-0.286944,0.140544,10.3425,8.18125,-27.46625,-24.2,11.656,20.152,eccentric,5,3.0,36408.0,374606.0,106051.0,723.0,-128.0
2026-04-09 21:59:02.555272,118021,872615924,872616696,0.774944,-0.203008,0.109312,9.59875,7.91875,-26.22375,-24.152,11.824,20.392,eccentric,5,3.0,36408.0,374606.0,106051.0,723.0,-128.0
2026-04-09 21:59:02.559612,118022,872625348,872627557,0.774944,-0.203008,0.109312,9.56375,7.84,-24.2375,-24.152,11.824,20.392,eccentric,5,3.0,36408.0,374606.0,106051.0,723.0,-128.0
2026-04-09 21:59:02.564034,118023,872639886,872640417,0.796416,-0.187392,0.072224,9.9575,7.81375,-23.70375,-24.816002,11.320001,20.856,eccentric,5,3.0,36408.0,374606.0,106051.0,723.0,-128.0
2026-04-09 21:59:02.595206,118024,872649314,872651194,0.796416,-0.187392,0.072224,11.33125,6.4225,-24.4475,-24.816002,11.320001,20.856,eccentric,5,3.0,36408.0,374606.0,106051.0,723.0,-128.0
2026-04-09 21:59:02.599642,118025,872658265,872659891,0.786656,-0.242048,0.138592,14.752501,4.4625,-25.4975,-24.288002,11.264001,20.488,eccentric,5,3.0,36408.0,374606.0,106051.0,723.0,-128.0
2026-04-09 21:59:02.601179,118026,872672785,872674852,0.786656,-0.242048,0.138592,16.4675,3.325,-24.255,-24.288002,11.264001,20.488,eccentric,5,3.0,36408.0,374606.0,106051.0,723.0,-128.0
2026-04-09 21:59:02.608347,118027,872681908,872683559,0.769088,-0.226432,0.115168,15.16375,2.555,-22.5575,-24.568,10.752001,20.272001,eccentric,5,3.0,36408.0,374606.0,106051.0,723.0,-128.0
2026-04-09 21:59:02.634463,118038,872691010,872692363,0.769088,-0.226432,0.115168,11.9,2.2575,-19.55625,-24.568,10.752001,20.272001,eccentric,5,3.0,36709.0,375215.0,106830.0,780.0,-145.0
2026-04-09 21:59:02.640297,118039,872699972,872701120,0.774944,-0.148352,0.085888,9.98375,2.1875,-17.0625,-25.928001,11.464001,21.560001,eccentric,5,3.0,36709.0,375215.0,106830.0,780.0,-145.0
2026-04-09 21:59:02.640392,118040,872714612,872716044,0.79056,-0.177632,0.070272,10.745,1.00625,-16.625,-25.928001,11.464001,21.560001,eccentric,5,3.0,36709.0,375215.0,106830.0,780.0,-145.0
2026-04-09 21:59:02.670240,118041,872723569,872724830,0.79056,-0.177632,0.070272,12.81,-0.44625,-16.8,-25.824001,10.976001,21.712002,eccentric,5,3.0,36709.0,375215.0,106830.0,780.0,-145.0
2026-04-09 21:59:02.672466,118042,872732492,872733569,0.79056,-0.177632,0.070272,14.875,-1.5575,-15.417501,-25.824001,10.976001,21.712002,eccentric,5,3.0,36709.0,375215.0,106830.0,780.0,-145.0
2026-04-09 21:59:02.677027,118043,872746963,872748555,0.812032,-0.242048,0.138592,14.11375,-2.40625,-12.97625,-24.592001,11.504001,20.52,eccentric,5,3.0,36709.0,375215.0,106830.0,780.0,-145.0
2026-04-09 21:59:02.680327,118044,872755913,872757217,0.821792,-0.160064,0.093696,9.75625,-2.9225,-10.07125,-24.624,11.512,22.128,eccentric,5,3.0,36709.0,375215.0,106830.0,780.0,-145.0
2026-04-09 21:59:02.742765,118045,872764849,872765966,0.821792,-0.160064,0.093696,7.5775,-2.79125,-8.09375,-24.624,11.512,22.128,eccentric,5,3.0,36709.0,375215.0,106830.0,780.0,-145.0
2026-04-09 21:59:02.744956,118046,872779318,872780918,0.84912,-0.154208,0.062464,9.8175,-2.66,-7.385,-24.880001,11.392,20.792002,eccentric,5,3.0,36709.0,375215.0,106830.0,780.0,-145.0
2026-04-09 21:59:02.772106,118056,872788856,872789660,0.84912,-0.154208,0.062464,11.97,-3.2725,-9.86125,-24.880001,11.392,20.792002,eccentric,5,3.0,36635.0,374122.0,106032.0,705.0,-128.0
2026-04-09 21:59:02.773808,118057,872798470,872800482,0.854976,-0.17568,0.099552,14.67375,-3.24625,-10.52625,-24.512001,11.432,20.904001,eccentric,5,3.0,36635.0,374122.0,106032.0,705.0,-128.0
2026-04-09 21:59:02.775401,118058,872807386,872809177,0.854976,-0.17568,0.099552,14.42875,-2.555,-9.72125,-24.512001,11.432,20.904001,eccentric,5,3.0,36635.0,374122.0,106032.0,705.0,-128.0
2026-04-09 21:59:02.781263,118059,872821934,872824056,0.85888,-0.17568,0.115168,12.5475,-1.23375,-8.505,-24.744001,10.848001,21.176,eccentric,5,3.0,36635.0,374122.0,106032.0,705.0,-128.0
2026-04-09 21:59:02.782839,118060,872830894,872832803,0.85888,-0.17568,0.115168,11.8475,-0.07875,-7.5425,-24.744001,10.848001,21.176,eccentric,5,3.0,36635.0,374122.0,106032.0,705.0,-128.0
2026-04-09 21:59:02.787557,118061,872839828,872841545,0.851072,-0.160064,0.091744,9.42375,1.70625,-6.615,-25.856,11.312,21.856,eccentric,5,3.0,36635.0,374122.0,106032.0,705.0,-128.0
2026-04-09 21:59:02.787833,118062,872848770,872850312,0.851072,-0.160064,0.091744,7.06125,2.45875,-8.18125,-25.856,11.312,21.856,eccentric,5,3.0,36635.0,374122.0,106032.0,705.0,-128.0
2026-04-09 21:59:02.792066,118063,872863298,872865263,0.84912,-0.128832,0.064416,7.62125,2.2575,-7.3325,-25.312,11.120001,22.208,eccentric,5,3.0,36635.0,374122.0,106032.0,705.0,-128.0
2026-04-09 21:59:02.820505,118064,872872226,872873974,0.84912,-0.128832,0.064416,9.2225,2.19625,-7.16625,-25.312,11.120001,22.208,eccentric,5,3.0,36635.0,374122.0,106032.0,705.0,-128.0
2026-04-09 21:59:02.825073,118065,872881151,872882661,0.841312,-0.148352,0.099552,10.05375,2.23125,-6.4575,-24.928001,10.936001,21.232,eccentric,5,3.0,36635.0,374122.0,106032.0,705.0,-128.0
