pc_time,serial_num,sensor_ts,host_ts,ax,ay,az,gx,gy,gz,mx,my,mz,phase,rpe,weight_kg,ppg_a,ppg_b,ppg_c,ppg_d,ppg_e
2026-04-14 17:52:50.026295,590525,1609506663672460,4263642415,0.782752,-0.023424,0.11712,1.925,15.3825,-23.30125,-19.768002,-24.552002,-2.504,concentric,4,3.0,142563.0,345593.0,225652.0,326219.0,234794.0
2026-04-14 17:52:50.028310,590526,1609506663681441,4263651153,0.813984,-0.140544,-0.208864,2.5025,14.93625,-24.605,-20.2,-25.056002,-0.776,concentric,4,3.0,142563.0,345593.0,225652.0,326219.0,234794.0
2026-04-14 17:52:50.031350,590527,1609506663690481,4263659843,0.813984,-0.140544,-0.208864,1.9425,13.02,-22.46125,-20.2,-25.056002,-0.776,concentric,4,3.0,142563.0,345593.0,225652.0,326219.0,234794.0
2026-04-14 17:52:50.039731,590528,1609506663704985,4263674738,0.847168,-0.11712,0.152256,-3.1675,7.77875,-15.2775,-19.528002,-24.832,-1.208,concentric,4,3.0,142563.0,345593.0,225652.0,326219.0,234794.0
2026-04-14 17:52:50.050182,590529,1609506663713961,4263683470,0.847168,-0.11712,0.152256,-4.76875,2.135,-7.76125,-19.528002,-24.832,-1.208,concentric,4,3.0,142563.0,345593.0,225652.0,326219.0,234794.0
2026-04-14 17:52:50.083960,590540,1609506663728990,4263698330,0.833504,0.005856,0.279136,-1.54,0.735,-5.13625,-19.368,-24.784,-1.264,concentric,4,3.0,146752.0,345765.0,230650.0,326436.0,239097.0
2026-04-14 17:52:50.086382,590541,1609506663738018,4263707167,0.833504,0.005856,0.279136,-2.6075,3.31625,-4.76,-19.368,-24.784,-1.264,concentric,4,3.0,146752.0,345765.0,230650.0,326436.0,239097.0
2026-04-14 17:52:50.088970,590542,1609506663746976,4263715903,0.847168,-0.037088,-0.167872,-6.97375,5.355,-6.125,-19.624,-24.624,-0.352,concentric,4,3.0,146752.0,345765.0,230650.0,326436.0,239097.0
2026-04-14 17:52:50.098526,590543,1609506663761517,4263730787,0.83936,-0.16592,-0.22448,-7.9975,3.8325,-5.69625,-20.584002,-24.928001,0.608,concentric,4,3.0,146752.0,345765.0,230650.0,326436.0,239097.0
2026-04-14 17:52:50.104128,590544,1609506663770525,4263739514,0.83936,-0.16592,-0.22448,-9.14375,-1.8375,-2.765,-20.584002,-24.928001,0.608,concentric,4,3.0,146752.0,345765.0,230650.0,326436.0,239097.0
2026-04-14 17:52:50.120014,590545,1609506663785029,4263754442,0.880352,-0.005856,0.177632,-4.515,-7.65625,0.27125,-20.128,-24.640001,-1.184,concentric,4,3.0,146752.0,345765.0,230650.0,326436.0,239097.0
2026-04-14 17:52:50.131341,590546,1609506663793965,4263763128,0.880352,-0.005856,0.177632,2.59,-10.9025,1.12875,-20.128,-24.640001,-1.184,concentric,4,3.0,146752.0,345765.0,230650.0,326436.0,239097.0
2026-04-14 17:52:50.143908,590547,1609506663808446,4263778026,0.84912,-0.013664,0.005856,4.0075,-8.435,-0.5425,-20.2,-24.424002,-0.416,concentric,4,3.0,146752.0,345765.0,230650.0,326436.0,239097.0
2026-04-14 17:52:50.168961,590548,1609506663817452,4263786742,0.84912,-0.013664,0.005856,5.2675,-3.15875,-2.59,-20.2,-24.424002,-0.416,concentric,4,3.0,146752.0,345765.0,230650.0,326436.0,239097.0
2026-04-14 17:52:50.216344,590559,1609506663826400,4263795529,0.950624,-0.121024,-0.111264,6.965,0.07,-4.13,-19.784,-25.136002,-0.856,concentric,4,3.0,144853.0,346374.0,228340.0,327077.0,236921.0
2026-04-14 17:52:50.218864,590560,1609506663841049,4263810521,0.940864,-0.035136,0.105408,7.9275,0.27125,-3.59625,-21.264002,-24.28,0.792,concentric,4,3.0,144853.0,346374.0,228340.0,327077.0,236921.0
2026-04-14 17:52:50.220891,590561,1609506663850098,4263819207,0.940864,-0.035136,0.105408,9.30125,-2.8175,-1.39125,-21.264002,-24.28,0.792,concentric,4,3.0,144853.0,346374.0,228340.0,327077.0,236921.0
2026-04-14 17:52:50.223896,590562,1609506663864637,4263834147,0.958432,0.037088,0.109312,10.0275,-5.29375,0.49,-21.312,-24.224,0.344,concentric,4,3.0,144853.0,346374.0,228340.0,327077.0,236921.0
2026-04-14 17:52:50.226398,590563,1609506663873686,4263842861,0.958432,0.037088,0.109312,10.56125,-3.92875,-0.11375,-21.312,-24.224,0.344,concentric,4,3.0,144853.0,346374.0,228340.0,327077.0,236921.0
2026-04-14 17:52:50.233911,590564,1609506663888263,4263857769,0.903776,-0.060512,0.005856,9.77375,-0.2625,-1.9075,-21.456001,-24.608002,1.544,concentric,4,3.0,144853.0,346374.0,228340.0,327077.0,236921.0
2026-04-14 17:52:50.236403,590565,1609506663897209,4263866576,0.903776,-0.060512,0.005856,10.395,3.9375,-3.21125,-21.456001,-24.608002,1.544,concentric,4,3.0,144853.0,346374.0,228340.0,327077.0,236921.0
2026-04-14 17:52:50.241118,590566,1609506663906126,4263875270,0.862784,-0.023424,-0.115168,15.33875,5.74,-3.7975,-20.648,-24.624,-0.856,concentric,4,3.0,144853.0,346374.0,228340.0,327077.0,236921.0
2026-04-14 17:52:50.257650,590567,1609506663920656,4263890216,0.862784,-0.023424,0.003904,16.6075,4.20875,-2.3625,-20.648,-24.624,-0.856,concentric,4,3.0,144853.0,346374.0,228340.0,327077.0,236921.0
2026-04-14 17:52:50.284455,590578,1609506663930115,4263899377,0.851072,0.054656,0.003904,14.525,1.5575,-0.385,-19.496,-25.352001,-1.32,concentric,4,3.0,145300.0,346135.0,228976.0,326952.0,237501.0
2026-04-14 17:52:50.288015,590579,1609506663944677,4263914369,0.856928,0.064416,0.160064,10.675,-2.1525,0.6125,-20.192001,-24.632002,-0.928,concentric,4,3.0,145300.0,346135.0,228976.0,326952.0,237501.0
2026-04-14 17:52:50.290332,590580,1609506663953682,4263923078,0.856928,0.064416,0.160064,8.33,-2.8525,-0.53375,-20.192001,-24.632002,-0.928,concentric,4,3.0,145300.0,346135.0,228976.0,326952.0,237501.0
2026-04-14 17:52:50.295805,590581,1609506663962754,4263931717,0.843264,0.005856,0.003904,8.5575,-0.81375,-3.535,-20.68,-24.992,-4.592,concentric,4,3.0,145300.0,346135.0,228976.0,326952.0,237501.0
2026-04-14 17:52:50.312214,590582,1609506663977267,4263946653,0.843264,0.005856,0.003904,12.565,1.75,-5.8275,-20.68,-24.992,-4.592,concentric,4,3.0,145300.0,346135.0,228976.0,326952.0,237501.0
2026-04-14 17:52:50.321496,590583,1609506663986194,4263955339,0.909632,-0.050752,-0.085888,15.995,2.7475,-6.67625,-19.968,-25.048,-2.352,concentric,4,3.0,145300.0,346135.0,228976.0,326952.0,237501.0
2026-04-14 17:52:50.337737,590584,1609506664000692,4263970447,0.909632,-0.050752,-0.085888,17.57,1.42625,-4.8125,-19.968,-25.048,-2.352,concentric,4,3.0,145300.0,346135.0,228976.0,326952.0,237501.0
2026-04-14 17:52:50.344807,590585,1609506664009719,4263979152,0.968192,0.001952,0.160064,17.70125,-1.25125,-1.74125,-20.176,-25.416,-3.048,concentric,4,3.0,145300.0,346135.0,228976.0,326952.0,237501.0
2026-04-14 17:52:50.352715,590586,1609506664018681,4263988091,0.968192,0.001952,0.160064,15.1025,-3.91125,1.1025,-20.176,-25.416,-3.048,concentric,4,3.0,145300.0,346135.0,228976.0,326952.0,237501.0
2026-04-14 17:52:50.386834,590597,1609506664033283,4264003089,0.882304,-0.011712,-0.03904,12.99375,-5.11,2.9575,-19.960001,-25.2,-2.656,concentric,4,3.0,143410.0,346757.0,226811.0,327594.0,235402.0
2026-04-14 17:52:50.387244,590598,1609506664042260,4264011784,0.862784,-0.00976,0.109312,10.5875,-4.73375,3.395,-21.312,-24.160002,-0.832,concentric,4,3.0,143410.0,346757.0,226811.0,327594.0,235402.0
2026-04-14 17:52:50.393258,590599,1609506664056780,4264026756,0.862784,-0.00976,0.109312,8.6275,-4.4625,3.9025,-21.312,-24.160002,-0.832,concentric,4,3.0,143410.0,346757.0,226811.0,327594.0,235402.0
2026-04-14 17:52:50.399772,590600,1609506664065777,4264035464,0.901824,-0.046848,-0.066368,7.34125,-3.85,3.85,-20.672,-24.952002,-3.088,concentric,4,3.0,143410.0,346757.0,226811.0,327594.0,235402.0
2026-04-14 17:52:50.414891,590601,1609506664080274,4264050366,0.901824,-0.046848,-0.066368,6.895,-4.24375,4.34,-20.672,-24.952002,-3.088,concentric,4,3.0,143410.0,346757.0,226811.0,327594.0,235402.0
2026-04-14 17:52:50.426152,590602,1609506664089319,4264059072,0.851072,-0.033184,-0.052704,6.83375,-5.87125,5.43375,-20.12,-25.024002,-3.856,concentric,4,3.0,143410.0,346757.0,226811.0,327594.0,235402.0
2026-04-14 17:52:50.433759,590603,1609506664098459,4264067747,0.851072,-0.033184,-0.052704,5.3725,-6.62375,6.265,-20.12,-25.024002,-3.856,concentric,4,3.0,143410.0,346757.0,226811.0,327594.0,235402.0
2026-04-14 17:52:50.448634,590604,1609506664113093,4264082712,0.880352,-0.017568,0.17568,3.77125,-6.16,7.3325,-20.016,-24.536001,-2.848,concentric,4,3.0,143410.0,346757.0,226811.0,327594.0,235402.0
2026-04-14 17:52:50.457343,590605,1609506664122054,4264091434,0.880352,-0.080032,-0.021472,3.395,-5.60875,8.11125,-20.016,-24.536001,-2.848,concentric,4,3.0,143410.0,346757.0,226811.0,327594.0,235402.0
2026-04-14 17:52:50.486067,590616,1609506664136941,4264106850,0.854976,-0.085888,-0.021472,4.2875,-6.83375,8.00625,-20.272001,-24.6,-3.088,concentric,4,3.0,135219.0,347215.0,216887.0,327965.0,226081.0
2026-04-14 17:52:50.488415,590617,1609506664145974,4264115576,0.84912,-0.070272,0.001952,6.09875,-9.24875,9.14375,-20.880001,-24.296001,-2.128,concentric,4,3.0,135219.0,347215.0,216887.0,327965.0,226081.0
2026-04-14 17:52:50.491123,590618,1609506664154951,4264124273,0.84912,-0.070272,0.001952,6.6325,-11.78625,11.47125,-20.880001,-24.296001,-2.128,concentric,4,3.0,135219.0,347215.0,216887.0,327965.0,226081.0
2026-04-14 17:52:50.506082,590619,1609506664169441,4264139237,0.812032,-0.072224,-0.003904,4.795,-12.99375,12.01375,-21.512001,-24.096,-2.0,concentric,4,3.0,135219.0,347215.0,216887.0,327965.0,226081.0
2026-04-14 17:52:50.538653,590620,1609506664178414,4264147913,0.812032,-0.072224,-0.003904,3.185,-13.0375,13.667501,-21.512001,-24.096,-2.0,concentric,4,3.0,135219.0,347215.0,216887.0,327965.0,226081.0
2026-04-14 17:52:50.543506,590621,1609506664192957,4264162773,0.864736,-0.109312,0.031232,-0.245,-13.1775,15.0675,-20.944,-24.728,-3.592,concentric,4,3.0,135219.0,347215.0,216887.0,327965.0,226081.0
2026-04-14 17:52:50.569089,590622,1609506664202019,4264171477,0.864736,-0.109312,0.031232,-1.47875,-14.34125,15.07625,-20.944,-24.728,-3.592,concentric,4,3.0,135219.0,347215.0,216887.0,327965.0,226081.0
2026-04-14 17:52:50.593580,590623,1609506664216519,4264186394,0.827648,-0.10736,0.062464,-0.53375,-15.75875,15.2775,-21.696001,-23.976002,-2.344,concentric,4,3.0,135219.0,347215.0,216887.0,327965.0,226081.0
2026-04-14 17:52:50.605887,590624,1609506664225430,4264195110,0.81984,-0.070272,0.044896,2.205,-17.4125,16.1175,-22.024,-23.672,-1.528,concentric,4,3.0,135219.0,347215.0,216887.0,327965.0,226081.0
2026-04-14 17:52:50.633992,590635,1609506664234373,4264203857,0.81984,-0.070272,0.044896,5.5825,-19.81875,16.9575,-22.024,-23.672,-1.528,concentric,4,3.0,117914.0,348527.0,196739.0,329454.0,206611.0
2026-04-14 17:52:50.636482,590636,1609506664248944,4264218799,0.81984,-0.10736,0.015616,1.5225,-21.69125,16.66,-22.944,-23.248001,-2.592,concentric,4,3.0,117914.0,348527.0,196739.0,329454.0,206611.0
2026-04-14 17:52:50.673797,590637,1609506664257865,4264227477,0.81984,-0.10736,0.015616,-3.99,-21.67375,16.84375,-22.944,-23.248001,-2.592,concentric,4,3.0,117914.0,348527.0,196739.0,329454.0,206611.0
2026-04-14 17:52:50.676315,590638,1609506664272465,4264242403,0.831552,-0.103456,-0.050752,-3.43,-20.97375,15.82875,-22.68,-23.456001,-2.64,concentric,4,3.0,117914.0,348527.0,196739.0,329454.0,206611.0
2026-04-14 17:52:50.678310,590639,1609506664281583,4264251149,0.831552,-0.103456,-0.050752,-2.68625,-19.6175,14.175,-22.68,-23.456001,-2.64,concentric,4,3.0,117914.0,348527.0,196739.0,329454.0,206611.0
2026-04-14 17:52:50.681325,590640,1609506664290646,4264259902,0.739808,-0.13664,-0.060512,-0.86625,-18.96125,14.14875,-22.6,-23.032001,-3.568,concentric,4,3.0,117914.0,348527.0,196739.0,329454.0,206611.0
2026-04-14 17:52:50.683694,590641,1609506664305218,4264274918,0.782752,-0.1464,-0.099552,3.31625,-20.16,15.14625,-22.480001,-22.984001,-3.392,concentric,4,3.0,117914.0,348527.0,196739.0,329454.0,206611.0
2026-04-14 17:52:50.686349,590642,1609506664314142,4264283608,0.782752,-0.1464,-0.099552,5.04,-21.56875,17.0625,-22.480001,-22.984001,-3.392,concentric,4,3.0,117914.0,348527.0,196739.0,329454.0,206611.0
2026-04-14 17:52:50.713709,590653,1609506664329066,4264298510,0.794464,-0.06832,0.081984,5.005,-24.52625,17.45625,-22.568,-23.12,-3.408,concentric,4,3.0,79843.0,340554.0,149591.0,322858.0,159201.0
2026-04-14 17:52:50.716381,590654,1609506664338072,4264307238,0.794464,-0.06832,0.081984,4.45375,-25.48,15.505,-22.568,-23.12,-3.408,concentric,4,3.0,79843.0,340554.0,149591.0,322858.0,159201.0
2026-04-14 17:52:50.718941,590655,1609506664347013,4264315941,0.745664,-0.074176,-0.017568,0.18375,-24.64875,15.95125,-22.832,-22.960001,-5.04,concentric,4,3.0,79843.0,340554.0,149591.0,322858.0,159201.0
2026-04-14 17:52:50.721439,590656,1609506664361759,4264330872,0.745664,-0.074176,-0.017568,-8.0675,-26.95,16.35375,-22.832,-22.960001,-5.04,concentric,4,3.0,79843.0,340554.0,149591.0,322858.0,159201.0
2026-04-14 17:52:50.723908,590657,1609506664371105,4264339617,0.749568,-0.171776,-0.093696,-10.4825,-29.16375,16.03875,-22.824001,-23.080002,-4.352,concentric,4,3.0,79843.0,340554.0,149591.0,322858.0,159201.0
2026-04-14 17:52:50.726438,590658,1609506664386117,4264354662,0.67344,-0.115168,-0.001952,-11.55875,-29.925,19.53,-22.320002,-22.944,-5.08,concentric,4,3.0,79843.0,340554.0,149591.0,322858.0,159201.0
2026-04-14 17:52:50.730962,590659,1609506664395502,4264365573,0.67344,-0.115168,-0.001952,-6.37875,-31.07125,21.665,-22.320002,-22.944,-5.08,concentric,4,3.0,79843.0,340554.0,149591.0,322858.0,159201.0
2026-04-14 17:52:50.740235,590660,1609506664404468,4264374266,0.685152,-0.081984,-0.007808,-1.9075,-31.89375,17.3775,-24.368002,-22.240002,-7.032001,concentric,4,3.0,79843.0,340554.0,149591.0,322858.0,159201.0
2026-04-14 17:52:50.755888,590661,1609506664418967,4264389191,0.685152,-0.081984,-0.007808,-2.35375,-30.7125,14.23625,-22.816002,-22.240002,-7.032001,concentric,4,3.0,79843.0,340554.0,149591.0,322858.0,159201.0
2026-04-14 17:52:50.787680,590672,1609506664427915,4264397927,0.691008,-0.201056,-0.05856,-2.28375,-31.28125,12.25,-23.504002,-21.960001,-4.12,concentric,4,3.0,50458.0,302422.0,107942.0,290961.0,117327.0
2026-04-14 17:52:50.789736,590673,1609506664442528,4264410927,0.691008,-0.201056,-0.05856,-8.2075,-33.7225,11.43625,-23.504002,-21.960001,-4.12,concentric,4,3.0,50458.0,302422.0,107942.0,290961.0,117327.0
2026-04-14 17:52:50.792728,590674,1609506664451908,4264421743,0.706624,-0.042944,-0.232288,-18.795,-34.763752,13.51875,-24.464,-21.888,-3.384,concentric,4,3.0,50458.0,302422.0,107942.0,290961.0,117327.0
2026-04-14 17:52:50.797727,590675,1609506664460923,4264430457,0.706624,-0.042944,-0.232288,-37.0825,-32.87375,5.11,-24.464,-21.888,-3.384,concentric,4,3.0,50458.0,302422.0,107942.0,290961.0,117327.0
2026-04-14 17:52:50.811242,590676,1609506664475466,4264445336,0.872544,-0.257664,-0.140544,-50.14625,-33.1975,-0.51625,-23.848001,-21.944,-4.288,concentric,4,3.0,50458.0,302422.0,107942.0,290961.0,117327.0
2026-04-14 17:52:50.820194,590677,1609506664484458,4264454084,0.872544,-0.298656,-0.007808,-55.2125,-33.2675,0.07875,-23.848001,-21.944,-4.288,concentric,4,3.0,50458.0,302422.0,107942.0,290961.0,117327.0
2026-04-14 17:52:50.833971,590678,1609506664498947,4264468987,0.774944,-0.298656,-0.007808,-48.11625,-36.14625,1.89875,-23.168001,-21.952002,-4.272,concentric,4,3.0,50458.0,302422.0,107942.0,290961.0,117327.0
2026-04-14 17:52:50.843698,590679,1609506664507902,4264477665,0.71248,-0.099552,-0.42944,-29.8725,-42.385,4.48,-22.936,-21.616001,-4.408,concentric,4,3.0,50458.0,302422.0,107942.0,290961.0,117327.0
2026-04-14 17:52:50.853822,590680,1609506664516838,4264486346,0.71248,-0.099552,-0.42944,-12.32,-46.585,8.79375,-22.936,-21.616001,-4.408,concentric,4,3.0,50458.0,302422.0,107942.0,290961.0,117327.0
2026-04-14 17:52:50.937569,590691,1609506664531826,4264501359,0.833504,0.001952,-0.00976,19.94125,-47.04875,11.917501,-23.76,-21.376001,-4.944,concentric,4,3.0,42500.0,271556.0,94875.0,264149.0,103926.0
2026-04-14 17:52:50.939695,590692,1609506664540843,4264510208,0.833504,0.001952,-0.00976,6.76375,-42.56,3.5175,-23.76,-21.376001,-4.944,concentric,4,3.0,42500.0,271556.0,94875.0,264149.0,103926.0
2026-04-14 17:52:50.942274,590693,1609506664555496,4264525183,0.833504,-0.05856,0.085888,-17.21125,-37.275,-3.96375,-24.192001,-21.44,-5.912,concentric,4,3.0,42500.0,271556.0,94875.0,264149.0,103926.0
2026-04-14 17:52:50.944743,590694,1609506664564451,4264534009,0.833504,-0.05856,0.085888,-22.91625,-32.22625,-2.6775,-24.192001,-21.44,-5.912,concentric,4,3.0,42500.0,271556.0,94875.0,264149.0,103926.0
2026-04-14 17:52:50.947938,590695,1609506664573513,4264542707,0.689056,-0.2928,0.072224,-2.14375,-27.25625,3.815,-23.504002,-21.496,-8.936001,concentric,4,3.0,42500.0,271556.0,94875.0,264149.0,103926.0
2026-04-14 17:52:50.949705,590696,1609506664587968,4264557606,0.835456,-0.11712,-0.279136,20.30875,-24.56125,5.39,-23.016,-21.320002,-6.752,concentric,4,3.0,42500.0,271556.0,94875.0,264149.0,103926.0
2026-04-14 17:52:50.952572,590697,1609506664596892,4264566326,0.835456,-0.11712,-0.279136,35.00875,-24.0975,6.3525,-23.016,-21.320002,-6.752,concentric,4,3.0,42500.0,271556.0,94875.0,264149.0,103926.0
2026-04-14 17:52:50.955068,590698,1609506664611440,4264581262,0.915488,0.003904,0.023424,30.84375,-22.05,3.01,-23.416,-21.144001,-7.096,concentric,4,3.0,42500.0,271556.0,94875.0,264149.0,103926.0
2026-04-14 17:52:50.957575,590699,1609506664620465,4264590131,0.915488,0.003904,0.023424,18.87375,-14.28,-1.54,-23.416,-21.144001,-7.096,concentric,4,3.0,42500.0,271556.0,94875.0,264149.0,103926.0
2026-04-14 17:52:50.992718,590710,1609506664635120,4264605303,0.776896,-0.242048,-0.081984,19.897501,-6.90375,-0.84875,-23.728,-21.184002,-7.152,concentric,4,3.0,40563.0,250626.0,91579.0,248813.0,100015.0
2026-04-14 17:52:50.994760,590711,1609506664644126,4264614076,0.776896,-0.242048,-0.081984,28.2275,-4.05125,8.14625,-23.728,-21.184002,-7.152,concentric,4,3.0,40563.0,250626.0,91579.0,248813.0,100015.0
2026-04-14 17:52:50.997630,590712,1609506664653101,4264622804,0.769088,-0.122976,-0.10736,35.69125,1.68875,16.5725,-23.584002,-20.872002,-6.824,concentric,4,3.0,40563.0,250626.0,91579.0,248813.0,100015.0
2026-04-14 17:52:51.003931,590713,1609506664667613,4264637733,0.808128,-0.052704,-0.163968,35.11375,2.31,11.9875,-23.584002,-20.432001,-8.848001,concentric,4,3.0,40563.0,250626.0,91579.0,248813.0,100015.0
2026-04-14 17:52:51.012312,590714,1609506664676540,4264646543,0.808128,-0.052704,-0.163968,24.6925,5.5125,11.0075,-23.584002,-20.432001,-8.848001,concentric,4,3.0,40563.0,250626.0,91579.0,248813.0,100015.0
2026-04-14 17:52:51.027731,590715,1609506664691075,4264661424,0.905728,-0.109312,0.011712,9.292501,11.515,11.1475,-24.056002,-20.336,-7.232,concentric,4,3.0,40563.0,250626.0,91579.0,248813.0,100015.0
2026-04-14 17:52:51.034711,590716,1609506664700036,4264670169,0.905728,-0.109312,0.011712,-6.34375,16.6075,8.53125,-24.056002,-20.336,-7.232,concentric,4,3.0,40563.0,250626.0,91579.0,248813.0,100015.0
2026-04-14 17:52:51.050157,590717,1609506664714692,4264683097,0.8296,-0.23424,0.001952,-9.00375,23.1875,11.4625,-24.224,-19.976002,-6.296001,concentric,4,3.0,40563.0,250626.0,91579.0,248813.0,100015.0
2026-04-14 17:52:51.061202,590718,1609506664723964,4264693862,0.8296,-0.23424,0.001952,-3.2025,27.25625,15.89,-24.224,-19.976002,-6.296001,concentric,4,3.0,40563.0,250626.0,91579.0,248813.0,100015.0
2026-04-14 17:52:51.094799,590729,1609506664733257,4264702664,0.757376,0.081984,-0.124928,-2.205,27.62375,13.5975,-24.52,-19.864,-5.392,concentric,4,3.0,39101.0,243063.0,88504.0,243145.0,96457.0
2026-04-14 17:52:51.097732,590730,1609506664747921,4264717689,0.817888,-0.12688,0.00976,-8.72375,29.54,13.230001,-25.408,-19.0,-4.528,concentric,4,3.0,39101.0,243063.0,88504.0,243145.0,96457.0
2026-04-14 17:52:51.100220,590731,1609506664756837,4264726378,0.817888,-0.12688,0.00976,-16.6075,32.2,14.69125,-25.408,-19.0,-4.528,concentric,4,3.0,39101.0,243063.0,88504.0,243145.0,96457.0
2026-04-14 17:52:51.107691,590732,1609506664771372,4264741252,0.808128,-0.140544,-0.140544,-15.2075,35.9275,12.48625,-25.416,-18.960001,-5.688,concentric,4,3.0,39101.0,243063.0,88504.0,243145.0,96457.0
2026-04-14 17:52:51.115218,590733,1609506664780321,4264749958,0.808128,-0.140544,-0.140544,-5.8275,40.90625,7.2275,-25.416,-18.960001,-5.688,concentric,4,3.0,39101.0,243063.0,88504.0,243145.0,96457.0
2026-04-14 17:52:51.126064,590734,1609506664789289,4264758702,0.876448,-0.060512,0.052704,1.9425,44.607502,4.795,-25.544,-18.816,-4.744,concentric,4,3.0,39101.0,243063.0,88504.0,243145.0,96457.0
2026-04-14 17:52:51.140170,590735,1609506664803807,4264773610,0.876448,-0.060512,0.052704,3.6225,49.90125,4.865,-25.544,-18.816,-4.744,concentric,4,3.0,39101.0,243063.0,88504.0,243145.0,96457.0
2026-04-14 17:52:51.147664,590736,1609506664812771,4264782405,0.862784,-0.033184,-0.144448,-0.35,53.41875,2.7475,-25.504002,-18.992,-4.976,concentric,4,3.0,39101.0,243063.0,88504.0,243145.0,96457.0
2026-04-14 17:52:51.163992,590737,1609506664827339,4264797312,0.974048,-0.167872,0.16592,-6.93,51.9575,0.4025,-25.816002,-19.568,-8.352,concentric,4,3.0,39101.0,243063.0,88504.0,243145.0,96457.0
2026-04-14 17:52:51.194013,590748,1609506664836363,4264806328,0.974048,-0.167872,0.16592,-10.1325,51.05625,4.6375,-25.816002,-19.568,-8.352,concentric,4,3.0,40135.0,259421.0,89900.0,256334.0,98089.0
2026-04-14 17:52:51.196412,590749,1609506664845449,4264815093,0.974048,-0.167872,0.16592,-2.2225,54.27625,10.36875,-25.816002,-19.568,-8.352,concentric,4,3.0,40135.0,259421.0,89900.0,256334.0,98089.0
2026-04-14 17:52:51.199016,590750,1609506664859986,4264830127,0.997472,-0.210816,0.154208,12.83625,55.755,8.49625,-24.992,-18.672,-5.144,concentric,4,3.0,40135.0,259421.0,89900.0,256334.0,98089.0
2026-04-14 17:52:51.204709,590751,1609506664868940,4264838859,1.040416,0.103456,-0.070272,20.615,57.60125,5.53,-25.240002,-18.664001,-4.96,concentric,4,3.0,40135.0,259421.0,89900.0,256334.0,98089.0
2026-04-14 17:52:51.219864,590752,1609506664883609,4264853743,1.040416,0.103456,-0.070272,12.6,56.525,1.9775,-25.240002,-18.664001,-4.96,concentric,4,3.0,40135.0,259421.0,89900.0,256334.0,98089.0
2026-04-14 17:52:51.227829,590753,1609506664892556,4264862496,1.087264,-0.15616,0.152256,-8.7325,54.74,-0.07875,-25.2,-18.168001,-3.888,concentric,4,3.0,40135.0,259421.0,89900.0,256334.0,98089.0
2026-04-14 17:52:51.244000,590754,1609506664907077,4264877414,1.087264,-0.15616,0.201056,-19.10125,55.71125,4.89125,-25.2,-18.168001,-3.888,concentric,4,3.0,40135.0,259421.0,89900.0,256334.0,98089.0
2026-04-14 17:52:51.274248,590755,1609506664916024,4264886114,1.056032,-0.181536,0.201056,-13.51875,54.4425,2.94875,-25.536001,-18.08,-4.144,concentric,4,3.0,40135.0,259421.0,89900.0,256334.0,98089.0
2026-04-14 17:52:51.276482,590756,1609506664925002,4264894803,1.056032,-0.181536,0.201056,0.67375,54.15375,-1.295,-25.536001,-18.08,-4.144,concentric,4,3.0,40135.0,259421.0,89900.0,256334.0,98089.0
2026-04-14 17:52:51.375211,590767,1609506664939528,4264909812,1.091168,-0.015616,0.18544,8.26875,52.57875,-1.2075,-25.952002,-18.016,-3.04,concentric,4,3.0,49030.0,296601.0,105161.0,287479.0,114853.0
2026-04-14 17:52:51.377753,590768,1609506664948444,4264918596,1.1224,-0.152256,0.040992,-1.925,51.905,3.4475,-25.824001,-17.544,-3.472,concentric,4,3.0,49030.0,296601.0,105161.0,287479.0,114853.0
2026-04-14 17:52:51.379759,590769,1609506664962983,4264931551,1.1224,-0.152256,0.040992,-15.4875,53.40125,-0.27125,-25.824001,-17.544,-3.472,concentric,4,3.0,49030.0,296601.0,105161.0,287479.0,114853.0
2026-04-14 17:52:51.382706,590770,1609506664972384,4264942299,1.194624,-0.181536,0.277184,-14.4725,53.576252,-9.4675,-25.088001,-18.432001,-3.192,concentric,4,3.0,49030.0,296601.0,105161.0,287479.0,114853.0
2026-04-14 17:52:51.387271,590771,1609506664981409,4264950976,1.194624,-0.181536,0.277184,-5.10125,53.68125,-9.7475,-25.088001,-18.432001,-3.192,concentric,4,3.0,49030.0,296601.0,105161.0,287479.0,114853.0
2026-04-14 17:52:51.390206,590772,1609506664995956,4264965903,1.157536,-0.093696,0.306464,0.385,54.27625,-8.81125,-24.928001,-18.064001,-2.584,concentric,4,3.0,49030.0,296601.0,105161.0,287479.0,114853.0
2026-04-14 17:52:51.392698,590773,1609506665005011,4264974606,1.157536,-0.093696,0.306464,-2.31,52.4125,-9.03875,-24.928001,-18.064001,-2.584,concentric,4,3.0,49030.0,296601.0,105161.0,287479.0,114853.0
2026-04-14 17:52:51.394834,590774,1609506665019467,4264989495,1.175104,-0.197152,0.318176,-2.065,50.60125,-10.07125,-24.736002,-18.448,-2.448,concentric,4,3.0,49030.0,296601.0,105161.0,287479.0,114853.0
2026-04-14 17:52:51.397713,590775,1609506665028404,4264998241,1.165344,-0.1952,0.337696,5.25875,48.78125,-13.895,-24.736002,-18.368,-2.424,concentric,4,3.0,49030.0,296601.0,105161.0,287479.0,114853.0
2026-04-14 17:52:51.425075,590786,1609506665043216,4265013255,1.165344,-0.1952,0.337696,9.45875,47.71375,-15.61,-24.808,-18.368,-2.424,concentric,4,3.0,62639.0,320564.0,126381.0,306234.0,136675.0
2026-04-14 17:52:51.427614,590787,1609506665052178,4265022006,1.108736,-0.208864,0.142496,5.5475,47.17125,-13.29125,-24.400002,-18.384,-2.04,concentric,4,3.0,62639.0,320564.0,126381.0,306234.0,136675.0
2026-04-14 17:52:51.430095,590788,1609506665061144,4265030753,1.108736,-0.208864,0.142496,-1.715,46.6725,-10.33375,-24.400002,-18.384,-2.04,concentric,4,3.0,62639.0,320564.0,126381.0,306234.0,136675.0
2026-04-14 17:52:51.432551,590789,1609506665075982,4265045828,1.089216,-0.238144,0.201056,-7.63875,45.42125,-7.525,-24.472002,-18.056002,0.256,concentric,4,3.0,62639.0,320564.0,126381.0,306234.0,136675.0
2026-04-14 17:52:51.435072,590790,1609506665085040,4265054559,1.089216,-0.238144,0.201056,-5.92375,43.67125,-8.8375,-24.472002,-18.056002,0.256,concentric,4,3.0,62639.0,320564.0,126381.0,306234.0,136675.0
2026-04-14 17:52:51.437628,590791,1609506665099514,4265069461,1.155584,-0.257664,0.105408,-2.8175,40.73125,-8.855001,-24.352001,-17.952002,-0.192,concentric,4,3.0,62639.0,320564.0,126381.0,306234.0,136675.0
2026-04-14 17:52:51.444716,590792,1609506665108463,4265078236,1.155584,-0.335744,0.122976,-0.035,38.31625,-5.71375,-24.352001,-17.952002,-0.192,concentric,4,3.0,62639.0,320564.0,126381.0,306234.0,136675.0
2026-04-14 17:52:51.450941,590793,1609506665117398,4265086966,1.165344,-0.3416,0.122976,3.08875,35.84,-4.69875,-25.304,-17.808,-0.208,concentric,4,3.0,62639.0,320564.0,126381.0,306234.0,136675.0
2026-04-14 17:52:51.492726,590804,1609506665131927,4265101945,1.138016,-0.206912,0.105408,6.965,31.99875,-0.67375,-24.832,-18.144001,-1.152,concentric,4,3.0,76186.0,331742.0,145493.0,314973.0,155641.0
2026-04-14 17:52:51.500306,590805,1609506665140879,4265110640,1.138016,-0.206912,0.105408,6.25625,28.69125,2.835,-24.832,-18.144001,-1.152,concentric,4,3.0,76186.0,331742.0,145493.0,314973.0,155641.0
2026-04-14 17:52:51.500683,590806,1609506665155550,4265125617,1.167296,-0.335744,0.1464,3.87625,26.17125,3.38625,-25.136002,-18.160002,-0.328,concentric,4,3.0,76186.0,331742.0,145493.0,314973.0,155641.0
2026-04-14 17:52:51.504645,590807,1609506665164603,4265134319,1.167296,-0.335744,0.1464,6.02875,22.61,4.9875,-25.136002,-18.160002,-0.328,concentric,4,3.0,76186.0,331742.0,145493.0,314973.0,155641.0
2026-04-14 17:52:51.507106,590808,1609506665173661,4265143051,1.192672,-0.294752,0.212768,11.41875,17.66625,7.175,-25.36,-17.904001,0.384,concentric,4,3.0,76186.0,331742.0,145493.0,314973.0,155641.0
2026-04-14 17:52:51.523363,590809,1609506665188168,4265157925,1.192672,-0.294752,0.212768,15.2425,12.4075,10.2375,-25.36,-17.904001,0.384,concentric,4,3.0,76186.0,331742.0,145493.0,314973.0,155641.0
2026-04-14 17:52:51.532141,590810,1609506665197107,4265166609,1.118496,-0.25376,0.0976,13.51,7.53375,12.71375,-25.28,-17.752,-0.448,concentric,4,3.0,76186.0,331742.0,145493.0,314973.0,155641.0
2026-04-14 17:48:45.046826,544472,1609506418704087,4018673851,1.081408,-0.119072,-0.083936,-11.94375,46.5325,-7.455,-23.504002,-19.008001,-6.808,eccentric,4,3.0,58443.0,291708.0,121190.0,280082.0,130760.0
2026-04-14 17:48:45.071765,544473,1609506418713029,4018682552,1.081408,-0.119072,-0.083936,-5.6175,49.5075,-5.41625,-23.504002,-19.008001,-6.808,eccentric,4,3.0,58443.0,291708.0,121190.0,280082.0,130760.0
2026-04-14 17:48:45.096792,544474,1609506418727570,4018697468,1.165344,-0.033184,0.158112,-4.515,50.04125,-2.93125,-23.512001,-18.224,-6.536,eccentric,4,3.0,58443.0,291708.0,121190.0,280082.0,130760.0
2026-04-14 17:48:45.099218,544475,1609506418736479,4018706154,1.01504,-0.02928,0.081984,-13.685,47.635,-0.14,-23.368002,-18.712002,-7.464,eccentric,4,3.0,58443.0,291708.0,121190.0,280082.0,130760.0
2026-04-14 17:48:45.101872,544476,1609506418750973,4018721010,1.01504,-0.02928,0.081984,-18.43625,46.33125,4.82125,-23.368002,-18.712002,-7.464,eccentric,4,3.0,58443.0,291708.0,121190.0,280082.0,130760.0
2026-04-14 17:48:45.131596,544487,1609506418760102,4018729775,1.1224,-0.142496,-0.042944,-21.63,48.107502,-0.09625,-23.632002,-18.528002,-5.64,eccentric,4,3.0,66937.0,316478.0,133037.0,300562.0,142676.0
2026-04-14 17:48:45.134119,544488,1609506418769056,4018738457,1.1224,-0.142496,-0.042944,-21.07,50.67125,-6.58875,-23.632002,-18.528002,-5.64,eccentric,4,3.0,66937.0,316478.0,133037.0,300562.0,142676.0
2026-04-14 17:48:45.136706,544489,1609506418783607,4018753452,1.233664,-0.072224,0.093696,-16.93125,50.61,-8.68,-23.44,-18.448,-5.304,eccentric,4,3.0,66937.0,316478.0,133037.0,300562.0,142676.0
2026-04-14 17:48:45.139206,544490,1609506418792644,4018762178,1.233664,-0.072224,0.093696,-13.41375,47.005,-7.9275,-23.44,-18.448,-5.304,eccentric,4,3.0,66937.0,316478.0,133037.0,300562.0,142676.0
2026-04-14 17:48:45.141710,544491,1609506418807181,4018777107,1.2688,-0.052704,0.267424,-13.90375,43.19875,-7.9275,-23.256,-18.056002,-3.904,eccentric,4,3.0,66937.0,316478.0,133037.0,300562.0,142676.0
2026-04-14 17:48:45.144266,544492,1609506418816232,4018785792,1.241472,-0.12688,0.152256,-19.3375,39.45375,-11.515,-23.256,-17.92,-5.928001,eccentric,4,3.0,66937.0,316478.0,133037.0,300562.0,142676.0
2026-04-14 17:48:45.151629,544493,1609506418825230,4018794539,1.241472,-0.12688,0.152256,-14.39375,39.025,-10.89375,-24.104002,-17.92,-5.928001,eccentric,4,3.0,66937.0,316478.0,133037.0,300562.0,142676.0
2026-04-14 17:48:45.166879,544494,1609506418839774,4018809467,1.167296,-0.122976,-0.07808,-7.2975,40.0575,-11.34,-23.552002,-18.024,-4.896,eccentric,4,3.0,66937.0,316478.0,133037.0,300562.0,142676.0
2026-04-14 17:48:45.176913,544495,1609506418848778,4018818160,1.167296,-0.122976,-0.07808,-4.8125,38.21125,-11.19125,-23.552002,-18.024,-4.896,eccentric,4,3.0,66937.0,316478.0,133037.0,300562.0,142676.0
2026-04-14 17:48:45.208185,544506,1609506418863374,4018833458,1.157536,-0.056608,-0.101504,-3.24625,35.2625,-10.19375,-23.776001,-17.312,-2.592,eccentric,4,3.0,76605.0,325862.0,146472.0,308393.0,156052.0
2026-04-14 17:48:45.210754,544507,1609506418872353,4018842291,1.157536,-0.056608,-0.101504,-5.71375,31.675,-11.2175,-23.776001,-17.312,-2.592,eccentric,4,3.0,76605.0,325862.0,146472.0,308393.0,156052.0
2026-04-14 17:48:45.213304,544508,1609506418886868,4018855229,1.223904,-0.113216,0.124928,-11.10375,27.18625,-14.0875,-23.232,-17.808,-4.464,eccentric,4,3.0,76605.0,325862.0,146472.0,308393.0,156052.0
2026-04-14 17:48:45.224157,544509,1609506418896058,4018866009,1.223904,-0.113216,0.062464,-15.96,23.19625,-15.435,-23.232,-17.808,-4.464,eccentric,4,3.0,76605.0,325862.0,146472.0,308393.0,156052.0
2026-04-14 17:48:45.232934,544510,1609506418905131,4018874709,1.110688,-0.111264,0.076128,-14.105001,20.57125,-16.7825,-23.2,-17.664001,-0.736,eccentric,4,3.0,76605.0,325862.0,146472.0,308393.0,156052.0
2026-04-14 17:48:45.247842,544511,1609506418919661,4018889715,1.138016,-0.130784,0.130784,-10.71875,18.9875,-17.35125,-22.792002,-18.344002,-4.272,eccentric,4,3.0,76605.0,325862.0,146472.0,308393.0,156052.0
2026-04-14 17:48:45.255659,544512,1609506418928648,4018898457,1.138016,-0.130784,0.130784,-9.4325,16.73875,-16.485,-22.792002,-18.344002,-4.272,eccentric,4,3.0,76605.0,325862.0,146472.0,308393.0,156052.0
2026-04-14 17:48:45.271942,544513,1609506418943184,4018913335,1.08336,-0.1464,-0.142496,-9.16125,14.30625,-14.875,-22.68,-18.36,-3.792,eccentric,4,3.0,76605.0,325862.0,146472.0,308393.0,156052.0
2026-04-14 17:48:45.280621,544514,1609506418952222,4018922018,1.08336,-0.1464,-0.142496,-7.56,10.42125,-14.30625,-22.68,-18.36,-3.792,eccentric,4,3.0,76605.0,325862.0,146472.0,308393.0,156052.0
2026-04-14 17:48:45.311645,544525,1609506418961301,4018930782,1.116544,-0.101504,0.142496,-5.7575,7.02625,-13.5275,-22.504002,-18.352001,-4.048,eccentric,4,3.0,74502.0,321591.0,143523.0,304370.0,152994.0
2026-04-14 17:48:45.314052,544526,1609506418975935,4018945709,1.116544,-0.101504,0.142496,-5.83625,4.97875,-12.92375,-22.504002,-18.352001,-4.048,eccentric,4,3.0,74502.0,321591.0,143523.0,304370.0,152994.0
2026-04-14 17:48:45.317652,544527,1609506418985048,4018954455,1.157536,-0.212768,-0.00976,-2.45875,3.35125,-10.8675,-23.632002,-18.368,-3.624,eccentric,4,3.0,74502.0,321591.0,143523.0,304370.0,152994.0
2026-04-14 17:48:45.327038,544528,1609506418999672,4018969519,1.118496,-0.091744,0.130784,2.52,2.26625,-8.39125,-23.12,-18.056002,-3.248,eccentric,4,3.0,74502.0,321591.0,143523.0,304370.0,152994.0
2026-04-14 17:48:45.342089,544529,1609506419008611,4018978208,1.118496,-0.091744,0.130784,9.1525,0.1225,-7.39375,-23.12,-18.056002,-3.248,eccentric,4,3.0,74502.0,321591.0,143523.0,304370.0,152994.0
2026-04-14 17:48:45.345859,544530,1609506419017493,4018986901,1.130208,-0.134688,0.095648,11.55,-2.89625,-5.11,-23.12,-20.104,-4.512,eccentric,4,3.0,74502.0,321591.0,143523.0,304370.0,152994.0
2026-04-14 17:48:45.357891,544531,1609506419032002,4019001819,1.130208,-0.134688,0.095648,11.43625,-4.6725,-4.29625,-23.104002,-18.488,-4.512,eccentric,4,3.0,74502.0,321591.0,143523.0,304370.0,152994.0
2026-04-14 17:48:45.369596,544532,1609506419040962,4019010539,1.00528,-0.062464,0.046848,9.86125,-6.475,-3.28125,-23.080002,-17.944,-3.192,eccentric,4,3.0,74502.0,321591.0,143523.0,304370.0,152994.0
2026-04-14 17:48:45.383419,544533,1609506419055454,4019025445,1.00528,-0.062464,0.046848,6.39625,-7.35,-1.51375,-23.080002,-17.944,-3.192,eccentric,4,3.0,74502.0,321591.0,143523.0,304370.0,152994.0
2026-04-14 17:48:45.474671,544544,1609506419064638,4019034241,1.050176,-0.105408,0.011712,3.85875,-8.0325,-0.245,-22.256,-18.76,-4.744,eccentric,4,3.0,72509.0,319660.0,140950.0,302965.0,150375.0
2026-04-14 17:48:45.477184,544545,1609506419079156,4019049132,1.040416,-0.021472,0.138592,6.44,-10.17625,0.49875,-23.424002,-18.056002,-3.48,eccentric,4,3.0,72509.0,319660.0,140950.0,302965.0,150375.0
2026-04-14 17:48:45.479218,544546,1609506419088080,4019057818,1.040416,-0.021472,0.138592,8.09375,-13.405,1.86375,-23.424002,-18.056002,-3.48,eccentric,4,3.0,72509.0,319660.0,140950.0,302965.0,150375.0
2026-04-14 17:48:45.481988,544547,1609506419097008,4019066559,1.040416,-0.021472,0.138592,5.705,-15.9425,2.37125,-23.424002,-18.056002,-3.48,eccentric,4,3.0,72509.0,319660.0,140950.0,302965.0,150375.0
2026-04-14 17:48:45.484710,544548,1609506419111487,4019081457,1.018944,-0.070272,-0.017568,3.57875,-17.45625,2.58125,-24.432001,-18.144001,-4.688,eccentric,4,3.0,72509.0,319660.0,140950.0,302965.0,150375.0
2026-04-14 17:48:45.487180,544549,1609506419120483,4019090193,1.126304,-0.08784,0.162016,2.05625,-18.095,2.6075,-24.128,-17.576,-3.672,eccentric,4,3.0,72509.0,319660.0,140950.0,302965.0,150375.0
2026-04-14 17:48:45.489697,544550,1609506419135065,4019105072,1.126304,-0.08784,0.162016,2.73875,-18.69,4.47125,-24.128,-17.576,-3.672,eccentric,4,3.0,72509.0,319660.0,140950.0,302965.0,150375.0
2026-04-14 17:48:45.492191,544551,1609506419144152,4019113818,1.085312,-0.080032,0.044896,3.71,-19.4775,5.36375,-23.528002,-17.848001,-3.656,eccentric,4,3.0,72509.0,319660.0,140950.0,302965.0,150375.0
2026-04-14 17:48:45.544205,544562,1609506419158692,4019128946,1.110688,-0.072224,0.109312,4.5325,-21.2275,7.83125,-22.792002,-18.296001,-6.4,eccentric,4,3.0,66710.0,310570.0,132936.0,294950.0,142412.0
2026-04-14 17:48:45.547263,544563,1609506419167693,4019137722,1.110688,-0.072224,0.109312,4.24375,-24.91125,9.49375,-22.792002,-18.296001,-6.4,eccentric,4,3.0,66710.0,310570.0,132936.0,294950.0,142412.0
2026-04-14 17:48:45.552168,544564,1609506419176638,4019146413,1.110688,-0.072224,0.109312,4.69,-29.8375,10.9375,-22.792002,-18.296001,-6.4,eccentric,4,3.0,66710.0,310570.0,132936.0,294950.0,142412.0
2026-04-14 17:48:45.554660,544565,1609506419191401,4019161362,1.16144,-0.109312,0.13664,6.27375,-32.97875,10.98125,-23.256,-18.328001,-4.432,eccentric,4,3.0,66710.0,310570.0,132936.0,294950.0,142412.0
2026-04-14 17:48:45.556753,544566,1609506419200344,4019170080,1.147776,-0.081984,0.167872,7.44625,-35.2625,10.54375,-23.816002,-18.408,-4.096,eccentric,4,3.0,66710.0,310570.0,132936.0,294950.0,142412.0
2026-04-14 17:48:45.559702,544567,1609506419214989,4019185004,1.147776,-0.081984,0.167872,8.72375,-37.72125,13.06375,-23.816002,-18.408,-4.096,eccentric,4,3.0,66710.0,310570.0,132936.0,294950.0,142412.0
2026-04-14 17:48:45.562220,544568,1609506419224089,4019193713,1.114592,-0.03904,0.066368,7.9275,-40.46,15.1725,-23.744001,-17.648,-4.28,eccentric,4,3.0,66710.0,310570.0,132936.0,294950.0,142412.0
2026-04-14 17:48:45.564202,544569,1609506419233182,4019202452,1.114592,-0.03904,0.066368,5.3725,-42.21875,16.8175,-23.744001,-17.648,-4.28,eccentric,4,3.0,66710.0,310570.0,132936.0,294950.0,142412.0
2026-04-14 17:48:45.575556,544570,1609506419247695,4019217352,1.16144,-0.15616,0.035136,4.76,-44.07375,18.50625,-24.384,-18.36,-4.856,eccentric,4,3.0,66710.0,310570.0,132936.0,294950.0,142412.0
2026-04-14 17:48:45.583521,544571,1609506419256659,4019226059,1.16144,-0.15616,0.035136,5.74,-45.7275,19.31125,-24.384,-18.36,-4.856,eccentric,4,3.0,66710.0,310570.0,132936.0,294950.0,142412.0
2026-04-14 17:48:45.610766,544582,1609506419271172,4019241002,1.173152,-0.128832,0.031232,5.78375,-47.17125,18.62,-23.456001,-18.168001,-5.592001,eccentric,4,3.0,62347.0,301120.0,126594.0,286586.0,135705.0
2026-04-14 17:48:45.615561,544583,1609506419280126,4019249694,1.081408,-0.138592,-0.021472,5.46875,-47.81,19.39,-23.712002,-17.704,-8.008,eccentric,4,3.0,62347.0,301120.0,126594.0,286586.0,135705.0
2026-04-14 17:48:45.623429,544584,1609506419294682,4019264694,1.081408,-0.138592,-0.021472,8.4875,-47.88,22.3125,-23.712002,-17.704,-8.008,eccentric,4,3.0,62347.0,301120.0,126594.0,286586.0,135705.0
2026-04-14 17:48:45.630532,544585,1609506419303685,4019273459,1.10288,-0.03904,-0.011712,11.375,-48.2475,24.3425,-24.472002,-18.056002,-6.8,eccentric,4,3.0,62347.0,301120.0,126594.0,286586.0,135705.0
2026-04-14 17:48:45.639727,544586,1609506419312739,4019282143,1.10288,-0.03904,-0.011712,10.07125,-48.265,23.8,-24.472002,-18.056002,-6.8,eccentric,4,3.0,62347.0,301120.0,126594.0,286586.0,135705.0
2026-04-14 17:48:45.657211,544587,1609506419327250,4019297021,1.145824,-0.121024,0.07808,0.98875,-47.6525,21.245,-24.768002,-17.480001,-6.048,eccentric,4,3.0,62347.0,301120.0,126594.0,286586.0,135705.0
2026-04-14 17:48:45.664219,544588,1609506419336190,4019305705,1.145824,-0.121024,0.07808,-5.04875,-46.3225,19.38125,-24.768002,-17.480001,-6.048,eccentric,4,3.0,62347.0,301120.0,126594.0,286586.0,135705.0
2026-04-14 17:48:45.679698,544589,1609506419350708,4019320661,1.118496,-0.154208,0.132736,-3.91125,-45.00125,19.8625,-24.208002,-17.976002,-7.088,eccentric,4,3.0,62347.0,301120.0,126594.0,286586.0,135705.0
2026-04-14 17:48:45.710816,544600,1609506419359812,4019329405,1.10288,-0.042944,0.148352,-1.9775,-43.16375,17.745,-24.208002,-17.976002,-4.608,eccentric,4,3.0,54839.0,280837.0,115104.0,269993.0,123636.0
2026-04-14 17:48:45.713217,544601,1609506419368824,4019338152,1.100928,-0.042944,0.148352,-4.01625,-41.06375,14.542501,-24.992,-17.696001,-4.608,eccentric,4,3.0,54839.0,280837.0,115104.0,269993.0,123636.0
2026-04-14 17:48:45.718379,544602,1609506419383346,4019353115,1.081408,-0.072224,-0.193248,-8.1375,-39.90875,12.1625,-24.856,-17.832,-6.536,eccentric,4,3.0,54839.0,280837.0,115104.0,269993.0,123636.0
2026-04-14 17:48:45.720896,544603,1609506419392360,4019361821,1.081408,-0.072224,-0.193248,-15.8725,-39.3225,10.17625,-24.856,-17.832,-6.536,eccentric,4,3.0,54839.0,280837.0,115104.0,269993.0,123636.0
2026-04-14 17:48:45.737212,544604,1609506419407025,4019376753,1.079456,-0.203008,-0.169824,-22.81125,-38.675,8.3825,-25.104002,-18.168001,-6.616,eccentric,4,3.0,54839.0,280837.0,115104.0,269993.0,123636.0
2026-04-14 17:48:45.743423,544605,1609506419416021,4019385600,1.079456,-0.203008,-0.169824,-19.8275,-36.925,6.8775,-25.104002,-18.168001,-6.616,eccentric,4,3.0,54839.0,280837.0,115104.0,269993.0,123636.0
2026-04-14 17:48:45.752108,544606,1609506419425126,4019394319,1.075552,-0.265472,0.017568,-8.26875,-32.69875,4.01625,-24.384,-18.432001,-7.872,eccentric,4,3.0,54839.0,280837.0,115104.0,269993.0,123636.0
2026-04-14 17:48:45.777196,544607,1609506419439675,4019409214,1.075552,-0.265472,-0.060512,4.795,-27.58875,1.4875,-24.384,-18.432001,-7.872,eccentric,4,3.0,54839.0,280837.0,115104.0,269993.0,123636.0
2026-04-14 17:48:45.802152,544608,1609506419448586,4019417904,1.03456,-0.040992,-0.052704,8.417501,-23.52,-2.3625,-23.848001,-18.744001,-7.936,eccentric,4,3.0,54839.0,280837.0,115104.0,269993.0,123636.0
2026-04-14 17:48:45.834750,544619,1609506419463725,4019432861,1.011136,-0.148352,-0.025376,0.95375,-22.303751,-6.7025,-23.768002,-18.896002,-7.856,eccentric,4,3.0,54425.0,274262.0,114520.0,264112.0,123159.0
2026-04-14 17:48:45.837241,544620,1609506419472737,4019441625,1.011136,-0.148352,-0.025376,-13.545,-20.85125,-6.405,-23.768002,-18.896002,-7.856,eccentric,4,3.0,54425.0,274262.0,114520.0,264112.0,123159.0
2026-04-14 17:48:45.839710,544621,1609506419481728,4019450359,0.979904,-0.284992,-0.042944,-13.86875,-17.50875,-1.68875,-24.344002,-19.088001,-9.080001,eccentric,4,3.0,54425.0,274262.0,114520.0,264112.0,123159.0
2026-04-14 17:48:45.842233,544622,1609506419496871,4019465348,0.979904,-0.284992,-0.042944,-2.52,-11.52375,-3.29,-24.344002,-19.088001,-9.080001,eccentric,4,3.0,54425.0,274262.0,114520.0,264112.0,123159.0
2026-04-14 17:48:45.844740,544623,1609506419506239,4019476130,0.817888,-0.095648,-0.050752,10.14125,-5.08375,-5.7225,-24.000002,-18.928001,-8.072001,eccentric,4,3.0,54425.0,274262.0,114520.0,264112.0,123159.0
2026-04-14 17:48:45.847978,544624,1609506419520769,4019491065,0.921344,0.005856,-0.0976,11.935,-0.37625,-6.3875,-24.000002,-18.928001,-7.824,eccentric,4,3.0,54425.0,274262.0,114520.0,264112.0,123159.0
2026-04-14 17:48:45.858427,544625,1609506419529724,4019499759,0.921344,0.005856,-0.0976,3.045,2.54625,-7.88375,-23.736002,-19.424002,-7.824,eccentric,4,3.0,54425.0,274262.0,114520.0,264112.0,123159.0
2026-04-14 17:48:45.868154,544626,1609506419538658,4019508447,0.921344,0.005856,-0.0976,-14.28875,2.275,-10.07125,-23.736002,-19.424002,-7.824,eccentric,4,3.0,54425.0,274262.0,114520.0,264112.0,123159.0
2026-04-14 17:48:45.880481,544627,1609506419553177,4019523425,0.817888,-0.171776,-0.099552,-24.8325,3.17625,-6.60625,-23.480001,-19.216002,-8.432,eccentric,4,3.0,54425.0,274262.0,114520.0,264112.0,123159.0
2026-04-14 17:48:45.912197,544638,1609506419562951,4019532328,0.85888,-0.0976,-0.105408,-21.79625,6.30875,-5.8625,-24.312,-19.528002,-7.992001,eccentric,4,3.0,55510.0,281229.0,116311.0,270518.0,125423.0
2026-04-14 17:48:45.914183,544639,1609506419577593,4019547311,0.85888,-0.0976,-0.105408,-16.84375,11.095,-9.66875,-24.312,-19.528002,-7.992001,eccentric,4,3.0,55510.0,281229.0,116311.0,270518.0,125423.0
2026-04-14 17:48:45.916704,544640,1609506419586594,4019556157,0.83936,-0.089792,-0.011712,-18.5675,16.07375,-15.408751,-24.416,-19.576,-5.688,eccentric,4,3.0,55510.0,281229.0,116311.0,270518.0,125423.0
2026-04-14 17:48:45.923430,544641,1609506419595630,4019564955,0.83936,-0.089792,-0.011712,-23.485,18.66375,-19.4425,-24.416,-19.576,-5.688,eccentric,4,3.0,55510.0,281229.0,116311.0,270518.0,125423.0
2026-04-14 17:48:45.939712,544642,1609506419610106,4019579872,0.733952,-0.10736,-0.031232,-24.92,18.795,-19.92375,-24.048,-20.432001,-6.568,eccentric,4,3.0,55510.0,281229.0,116311.0,270518.0,125423.0
2026-04-14 17:48:45.947368,544643,1609506419619020,4019588616,0.733952,-0.10736,-0.031232,-21.48125,17.36875,-16.45875,-24.048,-20.432001,-6.568,eccentric,4,3.0,55510.0,281229.0,116311.0,270518.0,125423.0
2026-04-14 17:48:45.962220,544644,1609506419633602,4019603517,0.69296,-0.105408,0.0,-12.80125,17.36875,-14.542501,-23.264002,-20.544,-6.36,eccentric,4,3.0,55510.0,281229.0,116311.0,270518.0,125423.0
2026-04-14 17:48:45.969247,544645,1609506419642561,4019612289,0.733952,-0.085888,-0.169824,-3.31625,19.7575,-15.2425,-24.352001,-20.44,-2.816,eccentric,4,3.0,55510.0,281229.0,116311.0,270518.0,125423.0
2026-04-14 17:48:45.977974,544646,1609506419651519,4019620973,0.733952,-0.085888,-0.169824,-1.04125,21.9275,-18.06875,-24.352001,-20.44,-2.816,eccentric,4,3.0,55510.0,281229.0,116311.0,270518.0,125423.0
2026-04-14 17:48:46.015427,544657,1609506419666203,4019635927,0.884256,0.052704,0.017568,-7.63,22.42625,-22.37375,-24.008001,-20.672,-5.648,eccentric,4,3.0,77469.0,305532.0,148517.0,290779.0,158309.0
2026-04-14 17:48:46.018441,544658,1609506419675190,4019644737,0.884256,0.052704,0.017568,-22.522501,24.84125,-28.945,-24.008001,-20.672,-5.648,eccentric,4,3.0,77469.0,305532.0,148517.0,290779.0,158309.0
2026-04-14 17:48:46.020943,544659,1609506419689829,4019659651,0.681248,-0.23424,-0.013664,-29.49625,26.425,-31.14125,-22.872002,-21.608002,-5.4,eccentric,4,3.0,77469.0,305532.0,148517.0,290779.0,158309.0
2026-04-14 17:48:46.028434,544660,1609506419698772,4019668336,0.681248,-0.23424,-0.013664,-16.03,22.98625,-23.695,-22.872002,-21.608002,-5.4,eccentric,4,3.0,77469.0,305532.0,148517.0,290779.0,158309.0
2026-04-14 17:48:46.040946,544661,1609506419713275,4019683306,0.65392,-0.07808,-0.027328,5.2675,25.64625,-23.0125,-22.536001,-22.144001,-5.464,eccentric,4,3.0,77469.0,305532.0,148517.0,290779.0,158309.0
2026-04-14 17:48:46.051802,544662,1609506419722316,4019691991,0.909632,-0.021472,-0.21472,17.92,30.1525,-34.29125,-20.488,-22.28,-6.472,eccentric,4,3.0,77469.0,305532.0,148517.0,290779.0,158309.0
2026-04-14 17:48:46.060437,544663,1609506419731252,4019700685,0.909632,-0.021472,-0.21472,13.0725,28.647501,-35.49875,-22.152,-22.28,-6.472,eccentric,4,3.0,77469.0,305532.0,148517.0,290779.0,158309.0
2026-04-14 17:48:46.074575,544664,1609506419745863,4019715573,0.665632,-0.02928,0.158112,-2.56375,30.31,-23.70375,-22.12,-22.336,-3.896,eccentric,4,3.0,77469.0,305532.0,148517.0,290779.0,158309.0
2026-04-14 17:48:46.080331,544665,1609506419754790,4019724320,0.665632,-0.02928,0.158112,-8.75,29.8725,-30.65125,-22.12,-22.336,-3.896,eccentric,4,3.0,77469.0,305532.0,148517.0,290779.0,158309.0
2026-04-14 17:48:46.114210,544676,1609506419769357,4019739279,0.720288,-0.08784,-0.040992,-4.5675,29.37375,-30.87,-22.808,-22.304,-4.856,eccentric,4,3.0,101186.0,324057.0,178190.0,306727.0,188638.0
2026-04-14 17:48:46.116722,544677,1609506419778322,4019748007,0.720288,-0.08784,-0.040992,3.535,32.235,-30.45,-22.808,-22.304,-4.856,eccentric,4,3.0,101186.0,324057.0,178190.0,306727.0,188638.0
2026-04-14 17:48:46.119364,544678,1609506419787370,4019756917,0.681248,-0.122976,-0.232288,6.88625,31.4825,-31.272501,-21.824001,-23.184002,-4.56,eccentric,4,3.0,101186.0,324057.0,178190.0,306727.0,188638.0
2026-04-14 17:48:46.150743,544679,1609506419801922,4019771855,0.681248,-0.122976,-0.232288,3.35125,29.07625,-27.02,-21.824001,-23.184002,-4.56,eccentric,4,3.0,101186.0,324057.0,178190.0,306727.0,188638.0
2026-04-14 17:48:46.184971,544680,1609506419810834,4019780533,0.862784,-0.003904,-0.005856,0.91,29.9075,-24.045,-21.288,-23.064001,-5.504,eccentric,4,3.0,101186.0,324057.0,178190.0,306727.0,188638.0
2026-04-14 17:48:46.187212,544681,1609506419825412,4019795495,0.759328,-0.062464,0.230336,-1.61,34.2125,-25.6725,-20.688002,-23.712002,-4.32,eccentric,4,3.0,101186.0,324057.0,178190.0,306727.0,188638.0
2026-04-14 17:48:46.189221,544682,1609506419834538,4019804205,0.759328,-0.062464,0.230336,-4.89125,38.22,-29.5575,-20.688002,-23.712002,-4.32,eccentric,4,3.0,101186.0,324057.0,178190.0,306727.0,188638.0
2026-04-14 17:48:46.209390,544683,1609506419849019,4019819107,0.757376,-0.140544,0.01952,-4.01625,41.65875,-30.345,-20.776001,-23.840002,-3.656,eccentric,4,3.0,101186.0,324057.0,178190.0,306727.0,188638.0
2026-04-14 17:48:46.212207,544684,1609506419857976,4019827788,0.757376,-0.140544,0.01952,1.785,42.5425,-28.5425,-20.776001,-23.840002,-3.656,eccentric,4,3.0,101186.0,324057.0,178190.0,306727.0,188638.0
2026-04-14 17:48:46.239679,544695,1609506419867031,4019836563,0.798368,-0.099552,-0.083936,5.705,39.2,-26.18,-20.44,-23.928001,-3.592,eccentric,4,3.0,121229.0,334527.0,201260.0,315076.0,211701.0
2026-04-14 17:48:46.241803,544696,1609506419881511,4019851430,0.798368,-0.099552,-0.083936,4.375,37.17875,-22.9775,-20.44,-23.928001,-3.592,eccentric,4,3.0,121229.0,334527.0,201260.0,315076.0,211701.0
2026-04-14 17:48:46.244373,544697,1609506419890566,4019860233,0.70272,0.00976,0.07808,0.315,39.92625,-20.09,-20.336,-24.008001,-3.688,eccentric,4,3.0,121229.0,334527.0,201260.0,315076.0,211701.0
2026-04-14 17:48:46.246940,544698,1609506419905121,4019875218,0.724192,-0.10736,0.083936,-1.88125,48.335,-17.5875,-20.016,-24.664001,-4.384,eccentric,4,3.0,121229.0,334527.0,201260.0,315076.0,211701.0
2026-04-14 17:48:46.250369,544699,1609506419914133,4019883921,0.724192,-0.10736,0.083936,-9.66,50.8025,-23.80875,-20.016,-24.664001,-4.384,eccentric,4,3.0,121229.0,334527.0,201260.0,315076.0,211701.0
2026-04-14 17:48:46.251588,544700,1609506419923263,4019892637,0.724192,-0.162016,-0.173728,-16.65125,50.61,-31.605,-20.016,-24.664001,-4.384,eccentric,4,3.0,121229.0,334527.0,201260.0,315076.0,211701.0
2026-04-14 17:48:46.264180,544701,1609506419937911,4019907617,0.665632,-0.162016,-0.173728,-8.4,46.71625,-32.34,-19.696001,-24.728,-5.072,eccentric,4,3.0,121229.0,334527.0,201260.0,315076.0,211701.0
2026-04-14 17:48:46.273267,544702,1609506419946842,4019916350,0.739808,-0.035136,0.0976,6.825,40.38125,-31.885,-20.248001,-24.688002,-1.84,eccentric,4,3.0,121229.0,334527.0,201260.0,315076.0,211701.0
2026-04-14 17:48:46.316783,544713,1609506419961321,4019931421,0.739808,-0.035136,0.0976,11.45375,39.03375,-27.93,-20.248001,-24.688002,-1.84,eccentric,4,3.0,148262.0,334666.0,232907.0,315162.0,241729.0
2026-04-14 17:48:46.319730,544714,1609506419970293,4019940217,0.616832,-0.033184,-0.056608,7.07875,39.9175,-29.2425,-20.0,-25.240002,-0.808,eccentric,4,3.0,148262.0,334666.0,232907.0,315162.0,241729.0
2026-04-14 17:48:46.322234,544715,1609506419984912,4019955142,0.788608,-0.13664,0.054656,2.26625,38.63125,-32.61125,-19.592001,-25.144001,-1.936,eccentric,4,3.0,148262.0,334666.0,232907.0,315162.0,241729.0
2026-04-14 17:48:46.324732,544716,1609506419994000,4019963824,0.788608,-0.13664,0.054656,7.18375,35.6125,-32.576252,-19.592001,-25.144001,-1.936,eccentric,4,3.0,148262.0,334666.0,232907.0,315162.0,241729.0
2026-04-14 17:48:46.334423,544717,1609506420003093,4019972619,0.788608,-0.13664,0.054656,15.58375,30.3625,-29.40875,-19.592001,-25.144001,-1.936,eccentric,4,3.0,148262.0,334666.0,232907.0,315162.0,241729.0
2026-04-14 17:48:46.346820,544718,1609506420017754,4019987550,0.798368,-0.138592,-0.130784,17.1675,23.86125,-22.303751,-19.672,-25.128,-1.208,eccentric,4,3.0,148262.0,334666.0,232907.0,315162.0,241729.0
2026-04-14 17:48:46.354231,544719,1609506420026839,4019996266,0.737856,-0.003904,0.095648,12.18875,16.58125,-13.195,-18.696001,-25.376001,-1.392,eccentric,4,3.0,148262.0,334666.0,232907.0,315162.0,241729.0
2026-04-14 17:48:46.369297,544720,1609506420041331,4020011166,0.737856,-0.003904,0.095648,11.33125,13.0725,-9.56375,-18.696001,-25.376001,-1.392,eccentric,4,3.0,148262.0,334666.0,232907.0,315162.0,241729.0
2026-04-14 17:48:46.376799,544721,1609506420050297,4020019880,0.774944,-0.00976,-0.07808,12.2325,12.53,-9.9575,-19.656,-25.096,-2.232,eccentric,4,3.0,148262.0,334666.0,232907.0,315162.0,241729.0
2026-04-14 17:48:46.387988,544722,1609506420059228,4020028612,0.774944,-0.00976,-0.07808,9.8,11.585,-11.61125,-19.656,-25.096,-2.232,eccentric,4,3.0,148262.0,334666.0,232907.0,315162.0,241729.0
2026-04-14 17:48:46.418360,544733,1609506420073992,4020043697,0.86864,-0.13664,-0.099552,12.01375,8.3125,-9.91375,-18.872002,-25.736002,-2.504,eccentric,4,3.0,149621.0,336404.0,234909.0,316800.0,243637.0
2026-04-14 17:48:46.420522,544734,1609506420082952,4020052446,0.86864,-0.13664,-0.099552,15.54,2.33625,-5.69625,-18.872002,-25.736002,-2.504,eccentric,4,3.0,149621.0,336404.0,234909.0,316800.0,243637.0
2026-04-14 17:48:46.425468,544735,1609506420097557,4020067339,0.964288,-0.007808,0.160064,15.61875,-4.4625,-0.4725,-18.648,-26.016,-5.144,eccentric,4,3.0,149621.0,336404.0,234909.0,316800.0,243637.0
2026-04-14 17:48:46.432664,544736,1609506420106551,4020076001,0.979904,0.054656,0.30256,11.34875,-7.13125,2.485,-18.176,-25.632002,-3.264,eccentric,4,3.0,149621.0,336404.0,234909.0,316800.0,243637.0
2026-04-14 17:48:46.447720,544737,1609506420121015,4020090924,0.979904,0.054656,0.30256,8.82875,-4.6025,1.015,-18.176,-25.632002,-3.264,eccentric,4,3.0,149621.0,336404.0,234909.0,316800.0,243637.0
2026-04-14 17:48:46.459221,544738,1609506420130124,4020099607,0.921344,-0.050752,-0.07808,9.345,0.65625,-3.5875,-18.704,-25.568,-1.72,eccentric,4,3.0,149621.0,336404.0,234909.0,316800.0,243637.0
2026-04-14 17:48:46.466806,544739,1609506420139103,4020108284,0.921344,-0.050752,-0.07808,13.34375,4.06,-6.11625,-18.704,-25.568,-1.72,eccentric,4,3.0,149621.0,336404.0,234909.0,316800.0,243637.0
2026-04-14 17:48:46.481821,544740,1609506420153605,4020123231,0.977952,0.0,0.105408,19.005,2.3975,-5.74,-19.272001,-25.384,-3.064,eccentric,4,3.0,149621.0,336404.0,234909.0,316800.0,243637.0
2026-04-14 17:48:46.489340,544741,1609506420162541,4020131921,0.977952,0.0,0.105408,21.428751,-3.01875,-2.8,-19.272001,-25.384,-3.064,eccentric,4,3.0,149621.0,336404.0,234909.0,316800.0,243637.0
2026-04-14 17:52:51.547140,590811,1609506665211600,4265181527,1.134112,-0.286944,0.160064,8.575,3.17625,13.16,-25.392002,-17.664001,-1.424,eccentric,4,3.0,76186.0,331742.0,145493.0,314973.0,155641.0
2026-04-14 17:52:51.557180,590812,1609506665220547,4265190265,1.134112,-0.286944,0.160064,5.85375,-1.35625,14.245,-25.392002,-17.664001,-1.424,eccentric,4,3.0,76186.0,331742.0,145493.0,314973.0,155641.0
2026-04-14 17:52:51.602190,590824,1609506665235338,4265205183,1.046272,-0.238144,0.210816,5.36375,-5.62625,16.0125,-24.744001,-17.904001,-1.656,eccentric,4,3.0,78606.0,332291.0,148563.0,315246.0,158506.0
2026-04-14 17:52:51.605198,590825,1609506665244311,4265213946,1.046272,-0.238144,0.210816,5.565,-10.3075,16.23125,-24.744001,-17.904001,-1.656,eccentric,4,3.0,78606.0,332291.0,148563.0,315246.0,158506.0
2026-04-14 17:52:51.607580,590826,1609506665253294,4265222715,1.030656,-0.259616,0.26352,7.00875,-14.60375,17.5875,-25.912,-17.28,-0.512,eccentric,4,3.0,78606.0,332291.0,148563.0,315246.0,158506.0
2026-04-14 17:52:51.610093,590827,1609506665267937,4265237673,1.030656,-0.259616,0.26352,9.5725,-18.366251,18.13,-25.912,-17.28,-0.512,eccentric,4,3.0,78606.0,332291.0,148563.0,315246.0,158506.0
2026-04-14 17:52:51.612038,590828,1609506665276927,4265246467,1.038464,-0.232288,0.173728,12.1275,-22.4525,18.68125,-25.664001,-16.976002,0.192,eccentric,4,3.0,78606.0,332291.0,148563.0,315246.0,158506.0
2026-04-14 17:52:51.640150,590829,1609506665291460,4265261399,0.942816,-0.187392,0.257664,11.68125,-26.69625,19.32875,-25.864,-17.192001,-1.184,eccentric,4,3.0,78606.0,332291.0,148563.0,315246.0,158506.0
2026-04-14 17:52:51.662278,590830,1609506665300383,4265270137,0.942816,-0.187392,0.257664,8.8375,-30.56375,18.33125,-25.864,-17.192001,-1.184,eccentric,4,3.0,78606.0,332291.0,148563.0,315246.0,158506.0
2026-04-14 17:52:51.664690,590831,1609506665309287,4265278835,0.942816,-0.187392,0.257664,6.6325,-34.81625,17.45625,-25.864,-17.192001,-1.184,eccentric,4,3.0,78606.0,332291.0,148563.0,315246.0,158506.0
2026-04-14 17:52:51.667151,590832,1609506665323798,4265293723,1.013088,-0.267424,0.28304,8.198751,-38.885,16.66,-26.36,-17.288,-2.952,eccentric,4,3.0,78606.0,332291.0,148563.0,315246.0,158506.0
2026-04-14 17:52:51.669605,590833,1609506665332821,4265302493,1.01504,-0.232288,0.173728,10.00125,-42.0875,16.40625,-25.768002,-17.528002,-3.552,eccentric,4,3.0,78606.0,332291.0,148563.0,315246.0,158506.0
2026-04-14 17:52:51.697024,590844,1609506665347364,4265317609,1.01504,-0.232288,0.173728,9.72125,-45.49125,16.77375,-25.768002,-17.528002,-3.552,eccentric,4,3.0,71599.0,326136.0,139104.0,310012.0,148804.0
2026-04-14 17:52:51.700105,590845,1609506665356353,4265326332,1.00528,-0.242048,0.318176,6.44,-49.13125,15.995,-25.984001,-17.224,-3.136,eccentric,4,3.0,71599.0,326136.0,139104.0,310012.0,148804.0
2026-04-14 17:52:51.705183,590846,1609506665370921,4265339299,0.977952,-0.255712,0.208864,6.9475,-52.08875,15.96875,-26.248001,-17.296001,-2.664,eccentric,4,3.0,71599.0,326136.0,139104.0,310012.0,148804.0
2026-04-14 17:52:51.715179,590847,1609506665380202,4265350127,0.977952,-0.255712,0.208864,7.76125,-54.99375,16.38875,-26.248001,-17.296001,-2.664,eccentric,4,3.0,71599.0,326136.0,139104.0,310012.0,148804.0
2026-04-14 17:52:51.725184,590848,1609506665389131,4265358953,0.977952,-0.255712,0.208864,6.8775,-57.4,16.555,-26.248001,-17.296001,-2.664,eccentric,4,3.0,71599.0,326136.0,139104.0,310012.0,148804.0
2026-04-14 17:52:51.739702,590849,1609506665403648,4265373839,0.970144,-0.269376,0.02928,7.23625,-59.3075,16.975,-26.976002,-16.624,-2.92,eccentric,4,3.0,71599.0,326136.0,139104.0,310012.0,148804.0
2026-04-14 17:52:51.748623,590850,1609506665412640,4265382516,1.011136,-0.286944,0.0976,6.545,-61.13625,17.6575,-26.048,-16.688002,-5.792,eccentric,4,3.0,71599.0,326136.0,139104.0,310012.0,148804.0
2026-04-14 17:52:51.762460,590851,1609506665427161,4265397498,1.011136,-0.286944,0.0976,4.71625,-62.5275,18.54125,-26.048,-16.688002,-5.792,eccentric,4,3.0,71599.0,326136.0,139104.0,310012.0,148804.0
2026-04-14 17:52:51.794807,590862,1609506665436647,4265406229,1.100928,-0.265472,0.1952,1.93375,-63.00875,18.3925,-26.256,-16.608002,-5.04,eccentric,4,3.0,63652.0,314947.0,128134.0,301134.0,137971.0
2026-04-14 17:52:51.797330,590863,1609506665445670,4265415098,1.100928,-0.265472,0.1952,-3.92,-63.5075,18.55,-26.256,-16.608002,-5.04,eccentric,4,3.0,63652.0,314947.0,128134.0,301134.0,137971.0
2026-04-14 17:52:51.799872,590864,1609506665460211,4265430145,1.087264,-0.320128,0.103456,-10.745,-65.275,18.025,-26.784,-16.512001,-5.528,eccentric,4,3.0,63652.0,314947.0,128134.0,301134.0,137971.0
2026-04-14 17:52:51.808677,590865,1609506665469145,4265438848,1.087264,-0.320128,0.103456,-15.198751,-66.325,18.29625,-26.784,-16.512001,-5.528,eccentric,4,3.0,63652.0,314947.0,128134.0,301134.0,137971.0
2026-04-14 17:52:51.819954,590866,1609506665483694,4265453747,1.095072,-0.423584,-0.011712,-13.51875,-66.4825,19.0575,-26.544,-16.232,-4.76,eccentric,4,3.0,63652.0,314947.0,128134.0,301134.0,137971.0
2026-04-14 17:52:51.827511,590867,1609506665492733,4265462405,1.087264,-0.306464,0.021472,-6.60625,-67.340004,20.78125,-27.552002,-15.848001,-5.312,eccentric,4,3.0,63652.0,314947.0,128134.0,301134.0,137971.0
2026-04-14 17:52:51.837433,590868,1609506665501701,4265471085,1.087264,-0.306464,0.021472,0.07,-68.80125,23.905,-27.552002,-15.848001,-5.312,eccentric,4,3.0,63652.0,314947.0,128134.0,301134.0,137971.0
2026-04-14 17:52:51.853648,590869,1609506665516245,4265486062,1.110688,-0.203008,0.115168,-2.695,-68.85375,23.89625,-27.424002,-16.112001,-6.792,eccentric,4,3.0,63652.0,314947.0,128134.0,301134.0,137971.0
2026-04-14 17:52:51.861118,590870,1609506665525189,4265494742,1.110688,-0.203008,0.115168,-14.77875,-66.85,20.2825,-27.424002,-16.112001,-6.792,eccentric,4,3.0,63652.0,314947.0,128134.0,301134.0,137971.0
2026-04-14 17:52:51.895894,590881,1609506665539919,4265509760,1.09312,-0.35136,-0.070272,-24.14125,-65.19625,15.95125,-26.800001,-15.736001,-7.696001,eccentric,4,3.0,54613.0,303245.0,114457.0,291629.0,124281.0
2026-04-14 17:52:51.898463,590882,1609506665548942,4265518475,1.09312,-0.35136,-0.070272,-26.897501,-63.5075,13.895,-26.800001,-15.736001,-7.696001,eccentric,4,3.0,54613.0,303245.0,114457.0,291629.0,124281.0
2026-04-14 17:52:51.901064,590883,1609506665563571,4265533385,1.14192,-0.443104,0.128832,-19.7225,-61.775,12.495,-26.6,-15.864,-7.968,eccentric,4,3.0,54613.0,303245.0,114457.0,291629.0,124281.0
2026-04-14 17:52:51.908584,590884,1609506665572528,4265542103,1.14192,-0.372832,-0.103456,-6.53625,-59.605,10.47375,-27.28,-16.08,-9.112,eccentric,4,3.0,54613.0,303245.0,114457.0,291629.0,124281.0
2026-04-14 17:52:51.916145,590885,1609506665581480,4265550792,1.14192,-0.372832,-0.103456,5.9325,-57.75,8.8725,-27.28,-16.08,-9.112,eccentric,4,3.0,54613.0,303245.0,114457.0,291629.0,124281.0
2026-04-14 17:52:51.944802,590886,1609506665596017,4265565812,1.179008,-0.271328,-0.027328,7.37625,-55.7025,9.42375,-26.968,-15.712001,-8.632,eccentric,4,3.0,54613.0,303245.0,114457.0,291629.0,124281.0
2026-04-14 17:52:51.947422,590887,1609506665604983,4265574577,1.179008,-0.271328,-0.027328,-2.38,-51.975,9.89625,-26.968,-15.712001,-8.632,eccentric,4,3.0,54613.0,303245.0,114457.0,291629.0,124281.0
2026-04-14 17:52:51.955280,590888,1609506665619530,4265589674,1.026752,-0.349408,-0.261568,-9.21375,-51.38,12.20625,-28.184002,-15.648001,-7.448,eccentric,4,3.0,54613.0,303245.0,114457.0,291629.0,124281.0
2026-04-14 17:52:51.963528,590889,1609506665628634,4265598379,1.026752,-0.349408,-0.261568,-14.6475,-49.21,9.555,-28.184002,-15.648001,-7.448,eccentric,4,3.0,54613.0,303245.0,114457.0,291629.0,124281.0
2026-04-14 17:52:52.063253,590900,1609506665637820,4265607204,0.95648,-0.269376,-0.197152,-19.81,-45.78,1.82875,-27.056002,-16.112001,-8.96,eccentric,4,3.0,65463.0,307193.0,131257.0,295394.0,142274.0
2026-04-14 17:52:52.063393,590901,1609506665652369,4265622171,1.038464,-0.35136,-0.001952,-21.6125,-42.525,-2.345,-27.056002,-15.592001,-6.2,eccentric,4,3.0,65463.0,307193.0,131257.0,295394.0,142274.0
2026-04-14 17:52:52.064710,590902,1609506665661301,4265630845,1.038464,-0.35136,-0.001952,-18.7075,-39.48875,-1.84625,-27.624,-15.592001,-6.2,eccentric,4,3.0,65463.0,307193.0,131257.0,295394.0,142274.0
2026-04-14 17:52:52.067262,590903,1609506665675810,4265645763,0.950624,-0.31232,-0.212768,-13.4575,-35.175,-1.40875,-27.584002,-16.184,-8.032001,eccentric,4,3.0,65463.0,307193.0,131257.0,295394.0,142274.0
2026-04-14 17:52:52.070070,590904,1609506665684754,4265654446,0.950624,-0.31232,-0.212768,-8.715,-29.505001,-4.095,-27.584002,-16.184,-8.032001,eccentric,4,3.0,65463.0,307193.0,131257.0,295394.0,142274.0
2026-04-14 17:52:52.072409,590905,1609506665699379,4265669325,0.915488,-0.271328,-0.189344,-7.455,-24.115,-6.3175,-27.328001,-15.936001,-9.200001,eccentric,4,3.0,65463.0,307193.0,131257.0,295394.0,142274.0
2026-04-14 17:52:52.075043,590906,1609506665708383,4265678022,0.915488,-0.271328,-0.189344,-6.7025,-20.2825,-5.6875,-27.328001,-15.936001,-9.200001,eccentric,4,3.0,65463.0,307193.0,131257.0,295394.0,142274.0
2026-04-14 17:52:52.077215,590907,1609506665717489,4265686740,0.905728,-0.220576,-0.10736,-8.95125,-14.945,-5.73125,-26.568,-16.576,-8.928,eccentric,4,3.0,65463.0,307193.0,131257.0,295394.0,142274.0
2026-04-14 17:52:52.079717,590908,1609506665732013,4265701651,0.905728,-0.220576,-0.10736,-14.16625,-10.40375,-7.76125,-26.568,-16.576,-8.928,eccentric,4,3.0,65463.0,307193.0,131257.0,295394.0,142274.0
2026-04-14 17:52:52.107658,590919,1609506665741092,4265710452,0.997472,-0.257664,0.046848,-19.2325,-5.62625,-8.35625,-26.536001,-17.032001,-8.192,eccentric,4,3.0,70087.0,311176.0,137716.0,299024.0,148705.0
2026-04-14 17:52:52.110236,590920,1609506665755718,4265725430,0.942816,-0.23424,-0.007808,-22.44375,-1.54875,-9.695,-26.248001,-17.024,-9.128,eccentric,4,3.0,70087.0,311176.0,137716.0,299024.0,148705.0
2026-04-14 17:52:52.112221,590921,1609506665764675,4265734223,0.942816,-0.23424,-0.007808,-22.21625,2.9225,-11.095,-26.248001,-17.024,-9.128,eccentric,4,3.0,70087.0,311176.0,137716.0,299024.0,148705.0
2026-04-14 17:52:52.115198,590922,1609506665773697,4265742938,1.009184,-0.2928,-0.132736,-22.365,6.93875,-11.80375,-26.288002,-17.496,-8.224,eccentric,4,3.0,70087.0,311176.0,137716.0,299024.0,148705.0
2026-04-14 17:52:52.122660,590923,1609506665788375,4265757860,1.009184,-0.2928,-0.132736,-23.33625,10.255,-14.096251,-26.288002,-17.496,-8.224,eccentric,4,3.0,70087.0,311176.0,137716.0,299024.0,148705.0
2026-04-14 17:52:52.132765,590924,1609506665797447,4265766555,0.886208,-0.284992,0.001952,-29.723751,15.95125,-18.78625,-27.128002,-17.712,-8.176001,eccentric,4,3.0,70087.0,311176.0,137716.0,299024.0,148705.0
2026-04-14 17:52:52.148990,590925,1609506665811921,4265781474,0.886208,-0.284992,0.001952,-29.05875,19.74,-19.705,-27.128002,-17.712,-8.176001,eccentric,4,3.0,70087.0,311176.0,137716.0,299024.0,148705.0
2026-04-14 17:52:52.158829,590926,1609506665820846,4265790183,0.88816,-0.206912,0.00976,-25.83,23.17,-14.70875,-25.944002,-17.992,-9.496,eccentric,4,3.0,70087.0,311176.0,137716.0,299024.0,148705.0
2026-04-14 17:52:52.170787,590927,1609506665835347,4265805090,0.792512,-0.329888,-0.247904,-23.94875,27.973751,-16.0475,-25.840002,-18.224,-7.632,eccentric,4,3.0,70087.0,311176.0,137716.0,299024.0,148705.0
2026-04-14 17:52:52.198981,590938,1609506665844423,4265813915,0.792512,-0.329888,-0.247904,-14.42875,31.19375,-16.205,-25.840002,-18.224,-7.632,eccentric,4,3.0,72259.0,323392.0,139603.0,308590.0,150169.0
2026-04-14 17:52:52.201489,590939,1609506665853464,4265822628,0.792512,0.044896,-0.044896,-9.42375,34.51875,-18.05125,-25.840002,-18.224,-7.632,eccentric,4,3.0,72259.0,323392.0,139603.0,308590.0,150169.0
2026-04-14 17:52:52.204011,590940,1609506665868017,4265837609,0.737856,0.044896,-0.044896,-14.77,38.43875,-22.54,-26.656002,-18.44,-8.112,eccentric,4,3.0,72259.0,323392.0,139603.0,308590.0,150169.0
2026-04-14 17:52:52.211225,590941,1609506665877072,4265846454,0.796416,-0.327936,-0.091744,-22.56625,42.48125,-33.43375,-26.504002,-18.328001,-5.544,eccentric,4,3.0,72259.0,323392.0,139603.0,308590.0,150169.0
2026-04-14 17:52:52.227877,590942,1609506665891631,4265861380,0.796416,-0.327936,-0.091744,-26.355,44.02125,-37.87,-26.504002,-18.328001,-5.544,eccentric,4,3.0,72259.0,323392.0,139603.0,308590.0,150169.0
2026-04-14 17:52:52.236537,590943,1609506665900545,4265870132,0.708576,-0.201056,0.081984,-18.68125,45.01,-32.9875,-26.432001,-19.320002,-5.784,eccentric,4,3.0,72259.0,323392.0,139603.0,308590.0,150169.0
2026-04-14 17:52:52.246039,590944,1609506665909535,4265878815,0.708576,-0.201056,0.081984,-9.38,48.72,-38.49125,-26.432001,-19.320002,-5.784,eccentric,4,3.0,72259.0,323392.0,139603.0,308590.0,150169.0
2026-04-14 17:52:52.258802,590945,1609506665924048,4265893760,0.655872,-0.085888,-0.128832,0.23625,49.98,-38.6925,-25.008001,-19.640001,-5.44,eccentric,4,3.0,72259.0,323392.0,139603.0,308590.0,150169.0
2026-04-14 17:52:52.267554,590946,1609506665933002,4265902441,0.655872,-0.085888,-0.128832,0.2975,48.78125,-40.8975,-25.008001,-19.640001,-5.44,eccentric,4,3.0,72259.0,323392.0,139603.0,308590.0,150169.0
2026-04-14 17:52:52.296059,590957,1609506665947665,4265917474,0.651968,-0.142496,-0.238144,-6.41375,44.8175,-43.39125,-24.768002,-20.44,-5.568,eccentric,4,3.0,77916.0,336410.0,146311.0,318965.0,156946.0
2026-04-14 17:52:52.299051,590958,1609506665956746,4265926228,0.763232,-0.238144,0.163968,-17.535,41.99125,-43.11125,-24.456001,-20.888,-4.808,eccentric,4,3.0,77916.0,336410.0,146311.0,318965.0,156946.0
2026-04-14 17:52:52.306333,590959,1609506665971312,4265941193,0.763232,-0.238144,0.163968,-27.02,43.56625,-45.9375,-24.456001,-20.888,-4.808,eccentric,4,3.0,77916.0,336410.0,146311.0,318965.0,156946.0
2026-04-14 17:52:52.316520,590960,1609506665980244,4265949885,0.568032,-0.083936,0.037088,-24.78875,46.0425,-46.8125,-24.264002,-21.136002,-4.288,eccentric,4,3.0,77916.0,336410.0,146311.0,318965.0,156946.0
2026-04-14 17:52:52.326493,590961,1609506665989212,4265958603,0.568032,-0.083936,0.037088,-10.823751,47.0225,-46.5675,-24.264002,-21.136002,-4.288,eccentric,4,3.0,77916.0,336410.0,146311.0,318965.0,156946.0
2026-04-14 17:52:52.338679,590962,1609506666003713,4265973536,0.597312,-0.148352,-0.103456,-8.9075,47.18,-48.37,-24.016,-21.656,-3.824,eccentric,4,3.0,77916.0,336410.0,146311.0,318965.0,156946.0
2026-04-14 17:52:52.351125,590963,1609506666012663,4265982237,0.597312,-0.148352,-0.103456,-13.92125,43.155,-47.36375,-24.016,-21.656,-3.824,eccentric,4,3.0,77916.0,336410.0,146311.0,318965.0,156946.0
2026-04-14 17:52:52.373541,590964,1609506666027258,4265997282,0.581696,-0.12688,-0.132736,-14.77,38.24625,-47.3375,-23.048,-22.008001,-3.136,eccentric,4,3.0,77916.0,336410.0,146311.0,318965.0,156946.0
2026-04-14 17:52:52.396120,590965,1609506666036218,4266005972,0.540704,-0.152256,-0.150304,-17.5525,37.56375,-47.915,-22.560001,-22.256,-0.624,eccentric,4,3.0,77916.0,336410.0,146311.0,318965.0,156946.0
2026-04-14 17:52:52.424029,590976,1609506666045349,4266014776,0.540704,-0.152256,-0.150304,-24.4125,37.02125,-47.005,-22.560001,-22.256,-0.624,eccentric,4,3.0,97749.0,345217.0,170631.0,325747.0,181364.0
2026-04-14 17:52:52.426456,590977,1609506666059963,4266029714,0.83936,-0.044896,-0.052704,-26.06625,37.79125,-43.12,-22.664001,-22.12,-1.16,eccentric,4,3.0,97749.0,345217.0,170631.0,325747.0,181364.0
2026-04-14 17:52:52.431805,590978,1609506666069004,4266038422,0.83936,-0.044896,-0.052704,-32.96125,38.675,-38.15,-22.664001,-22.12,-1.16,eccentric,4,3.0,97749.0,345217.0,170631.0,325747.0,181364.0
2026-04-14 17:52:52.432229,590979,1609506666083547,4266053374,0.732,-0.201056,0.11712,-56.30625,38.1675,-33.11,-23.112001,-22.728,-0.68,eccentric,4,3.0,97749.0,345217.0,170631.0,325747.0,181364.0
2026-04-14 17:52:52.433441,590980,1609506666092463,4266062088,0.732,-0.201056,0.11712,-71.96,36.82,-34.055,-23.112001,-22.728,-0.68,eccentric,4,3.0,97749.0,345217.0,170631.0,325747.0,181364.0
2026-04-14 17:52:52.442012,590981,1609506666106996,4266077029,0.83936,-0.18544,-0.072224,-53.62875,39.357502,-32.8125,-22.616001,-22.544,0.12,eccentric,4,3.0,97749.0,345217.0,170631.0,325747.0,181364.0
2026-04-14 17:52:52.451332,590982,1609506666115994,4266085823,0.79056,-0.052704,0.021472,-37.8,43.23375,-39.41,-21.248001,-23.432001,1.296,eccentric,4,3.0,97749.0,345217.0,170631.0,325747.0,181364.0
2026-04-14 17:52:52.460926,590983,1609506666124955,4266094500,0.79056,-0.052704,0.021472,-30.817501,43.82,-38.64,-21.248001,-23.432001,1.296,eccentric,4,3.0,97749.0,345217.0,170631.0,325747.0,181364.0
2026-04-14 17:52:52.498998,590994,1609506666139552,4266109796,0.802272,-0.044896,0.0976,-26.20625,43.1725,-38.815,-21.008001,-23.920002,0.68,eccentric,4,3.0,111958.0,352841.0,187292.0,333028.0,197553.0
2026-04-14 17:52:52.501467,590995,1609506666148688,4266118613,0.802272,-0.044896,0.0976,-28.7,41.4575,-38.5,-21.008001,-23.920002,0.68,eccentric,4,3.0,111958.0,352841.0,187292.0,333028.0,197553.0
2026-04-14 17:52:52.504016,590996,1609506666163215,4266131622,0.696864,-0.066368,0.113216,-30.616251,41.55375,-38.395,-22.232,-23.488,2.584,eccentric,4,3.0,111958.0,352841.0,187292.0,333028.0,197553.0
2026-04-14 17:52:52.510191,590997,1609506666172610,4266142425,0.696864,-0.066368,0.113216,-31.710001,42.14,-39.8475,-22.232,-23.488,2.584,eccentric,4,3.0,111958.0,352841.0,187292.0,333028.0,197553.0
2026-04-14 17:52:52.517702,590998,1609506666181527,4266151158,0.854976,-0.158112,-0.0976,-29.067501,39.41875,-40.0225,-21.496,-23.808,1.856,eccentric,4,3.0,111958.0,352841.0,187292.0,333028.0,197553.0
2026-04-14 17:52:52.532832,590999,1609506666196107,4266166098,0.694912,0.042944,-0.03904,-26.11,36.40875,-38.50875,-19.768002,-24.464,-1.008,eccentric,4,3.0,111958.0,352841.0,187292.0,333028.0,197553.0
2026-04-14 17:52:52.539851,591000,1609506666205041,4266174815,0.694912,0.042944,-0.03904,-24.605,36.505,-32.52375,-19.768002,-24.464,-1.008,eccentric,4,3.0,111958.0,352841.0,187292.0,333028.0,197553.0
2026-04-14 17:52:52.555235,591001,1609506666219530,4266189701,0.737856,-0.025376,0.103456,-25.585001,39.03375,-31.89375,-19.456001,-24.472002,1.352,eccentric,4,3.0,111958.0,352841.0,187292.0,333028.0,197553.0
2026-04-14 17:52:52.582757,591002,1609506666228477,4266198388,0.737856,-0.025376,0.103456,-27.13375,42.69125,-38.15875,-19.456001,-24.472002,1.352,eccentric,4,3.0,111958.0,352841.0,187292.0,333028.0,197553.0
2026-04-14 17:52:52.609832,591013,1609506666243449,4266213403,0.772992,-0.11712,-0.113216,-25.33125,45.19375,-38.7625,-18.912,-24.632002,4.632,eccentric,4,3.0,117557.0,353703.0,193627.0,333700.0,204297.0
2026-04-14 17:52:52.612286,591014,1609506666252553,4266222135,0.772992,-0.11712,-0.113216,-23.05625,44.765,-36.35625,-18.912,-24.632002,4.632,eccentric,4,3.0,117557.0,353703.0,193627.0,333700.0,204297.0
2026-04-14 17:52:52.615254,591015,1609506666261497,4266230854,0.743712,-0.017568,0.025376,-23.31,40.0575,-31.42125,-19.36,-24.808,3.52,eccentric,4,3.0,117557.0,353703.0,193627.0,333700.0,204297.0
2026-04-14 17:52:52.617743,591016,1609506666276199,4266245867,0.774944,-0.066368,-0.0488,-21.98875,35.83125,-26.48625,-19.36,-24.808,5.568,eccentric,4,3.0,117557.0,353703.0,193627.0,333700.0,204297.0
2026-04-14 17:52:52.619793,591017,1609506666285208,4266254587,0.778848,-0.066368,-0.0488,-20.615,32.59375,-22.4,-19.36,-24.464,4.488,eccentric,4,3.0,117557.0,353703.0,193627.0,333700.0,204297.0
2026-04-14 17:52:52.629476,591018,1609506666294149,4266263286,0.778848,-0.066368,-0.0488,-21.77,27.79,-19.3025,-19.36,-24.464,4.488,eccentric,4,3.0,117557.0,353703.0,193627.0,333700.0,204297.0
2026-04-14 17:52:52.644649,591019,1609506666308679,4266278250,0.85888,-0.095648,0.080032,-19.99375,23.16125,-14.533751,-18.016,-25.264002,2.488,eccentric,4,3.0,117557.0,353703.0,193627.0,333700.0,204297.0
2026-04-14 17:52:52.653848,591020,1609506666317691,4266286973,0.88816,-0.0976,-0.011712,-20.16875,18.27875,-10.19375,-18.768002,-24.488,5.888001,eccentric,4,3.0,117557.0,353703.0,193627.0,333700.0,204297.0
2026-04-14 17:52:52.668804,591021,1609506666332142,4266302097,0.88816,-0.0976,-0.011712,-21.58625,12.5125,-5.9325,-18.768002,-24.488,5.888001,eccentric,4,3.0,117557.0,353703.0,193627.0,333700.0,204297.0
2026-04-14 17:52:52.700246,591032,1609506666341529,4266310922,0.899872,-0.023424,0.121024,-21.42,9.292501,-3.70125,-18.344002,-24.704,4.432,eccentric,4,3.0,117372.0,351591.0,193501.0,331675.0,204064.0
2026-04-14 17:52:52.702489,591033,1609506666356305,4266325972,0.899872,-0.023424,0.042944,-15.645,9.42375,-4.38375,-18.344002,-24.704,4.432,eccentric,4,3.0,117372.0,351591.0,193501.0,331675.0,204064.0
2026-04-14 17:52:52.705218,591034,1609506666365275,4266334648,0.890112,-0.167872,0.042944,-13.02,11.165,-4.8475,-19.904001,-23.808,5.2,eccentric,4,3.0,117372.0,351591.0,193501.0,331675.0,204064.0
2026-04-14 17:52:52.713268,591035,1609506666374270,4266343337,0.890112,-0.167872,0.042944,-8.6275,10.73625,-1.77625,-19.904001,-23.808,5.2,eccentric,4,3.0,117372.0,351591.0,193501.0,331675.0,204064.0
2026-04-14 17:52:52.742610,591036,1609506666388796,4266358268,0.958432,-0.044896,0.12688,-4.1825,8.04125,3.045,-19.552,-24.488,4.328,eccentric,4,3.0,117372.0,351591.0,193501.0,331675.0,204064.0
2026-04-14 17:52:52.767728,591037,1609506666397833,4266366958,0.815936,-0.033184,0.089792,-5.62625,3.3075,8.5925,-19.136002,-24.240002,4.664,eccentric,4,3.0,117372.0,351591.0,193501.0,331675.0,204064.0
2026-04-14 17:52:52.775257,591038,1609506666412333,4266381828,0.815936,-0.033184,0.089792,-9.9225,-2.975,13.7725,-19.136002,-24.240002,4.664,eccentric,4,3.0,117372.0,351591.0,193501.0,331675.0,204064.0
2026-04-14 17:52:52.777831,591039,1609506666421294,4266390510,0.8296,0.027328,0.22448,-7.1225,-4.99625,11.61125,-19.400002,-24.04,4.744,eccentric,4,3.0,117372.0,351591.0,193501.0,331675.0,204064.0
2026-04-14 17:52:52.779719,591040,1609506666430220,4266399221,0.8296,0.027328,0.22448,-1.70625,-3.5,9.1875,-19.400002,-24.04,4.744,eccentric,4,3.0,117372.0,351591.0,193501.0,331675.0,204064.0
2026-04-14 17:52:52.807732,591051,1609506666444858,4266414147,0.872544,-0.072224,0.218624,0.46375,-2.625,9.14375,-19.328001,-24.320002,3.464,eccentric,4,3.0,109590.0,353262.0,184363.0,333420.0,194816.0
2026-04-14 17:52:52.810220,591052,1609506666453915,4266422978,0.872544,-0.072224,0.218624,5.11,-3.56125,10.91125,-19.328001,-24.320002,3.464,eccentric,4,3.0,109590.0,353262.0,184363.0,333420.0,194816.0
2026-04-14 17:52:52.814673,591053,1609506666468766,4266437984,0.843264,-0.005856,0.035136,9.4325,-6.58875,13.72875,-19.616001,-24.152,4.376,eccentric,4,3.0,109590.0,353262.0,184363.0,333420.0,194816.0
2026-04-14 17:52:52.814869,591054,1609506666477731,4266446681,0.9272,-0.040992,0.294752,8.8025,-11.095,16.86125,-19.616001,-24.448002,4.176,eccentric,4,3.0,109590.0,353262.0,184363.0,333420.0,194816.0
2026-04-14 17:52:52.820860,591055,1609506666486822,4266455384,0.9272,-0.040992,0.294752,7.58625,-14.55125,19.46875,-19.704,-24.448002,4.176,eccentric,4,3.0,109590.0,353262.0,184363.0,333420.0,194816.0
2026-04-14 17:52:52.836099,591056,1609506666501873,4266470311,0.903776,-0.080032,0.109312,10.1325,-16.4675,19.6175,-19.328001,-24.056002,3.328,eccentric,4,3.0,109590.0,353262.0,184363.0,333420.0,194816.0
2026-04-14 17:52:52.847373,591057,1609506666511152,4266481099,0.903776,-0.080032,0.109312,12.41625,-16.6775,20.29125,-19.328001,-24.056002,3.328,eccentric,4,3.0,109590.0,353262.0,184363.0,333420.0,194816.0
2026-04-14 17:52:52.858663,591058,1609506666525655,4266494020,0.913536,-0.042944,0.216672,14.752501,-15.70625,20.51875,-19.416,-23.720001,2.792,eccentric,4,3.0,109590.0,353262.0,184363.0,333420.0,194816.0
2026-04-14 17:52:52.871040,591059,1609506666534824,4266504862,0.913536,-0.042944,0.216672,17.33375,-15.37375,19.97625,-19.416,-23.720001,2.792,eccentric,4,3.0,109590.0,353262.0,184363.0,333420.0,194816.0
2026-04-14 17:52:52.904520,591070,1609506666544284,4266514071,0.847168,0.017568,0.150304,17.82375,-14.62125,17.80625,-20.096,-23.568,4.176,eccentric,4,3.0,107441.0,352774.0,182161.0,332961.0,192568.0
2026-04-14 17:52:52.905878,591071,1609506666559064,4266529026,0.89792,-0.105408,0.103456,17.7625,-13.20375,15.91625,-19.752,-23.736002,1.576,eccentric,4,3.0,107441.0,352774.0,182161.0,332961.0,192568.0
2026-04-14 17:52:52.906959,591072,1609506666568130,4266537751,0.89792,-0.105408,0.103456,16.94,-10.73625,13.7375,-19.752,-23.736002,1.576,eccentric,4,3.0,107441.0,352774.0,182161.0,332961.0,192568.0
2026-04-14 17:52:52.913616,591073,1609506666577176,4266546483,0.89792,-0.105408,0.103456,19.1975,-9.58125,12.80125,-19.752,-23.736002,1.576,eccentric,4,3.0,107441.0,352774.0,182161.0,332961.0,192568.0
2026-04-14 17:52:52.927312,591074,1609506666591690,4266561411,0.884256,-0.109312,0.216672,24.19375,-11.33125,12.92375,-20.0,-23.816002,1.808,eccentric,4,3.0,107441.0,352774.0,182161.0,332961.0,192568.0
2026-04-14 17:52:52.936151,591075,1609506666600642,4266570239,0.825696,-0.05856,0.013664,29.995,-14.84,13.755,-20.472,-24.272001,1.464,eccentric,4,3.0,107441.0,352774.0,182161.0,332961.0,192568.0
2026-04-14 17:52:52.949946,591076,1609506666615143,4266585143,0.825696,-0.05856,0.013664,31.6225,-17.92,14.27125,-20.472,-24.272001,1.464,eccentric,4,3.0,107441.0,352774.0,182161.0,332961.0,192568.0
2026-04-14 17:52:52.959908,591077,1609506666624072,4266593846,0.833504,-0.070272,0.1464,30.065,-20.685,14.9975,-20.096,-23.896002,2.0,eccentric,4,3.0,107441.0,352774.0,182161.0,332961.0,192568.0
2026-04-14 17:52:52.974904,591078,1609506666638637,4266608727,0.755424,-0.154208,0.013664,24.8675,-22.95125,16.6425,-20.096,-23.896002,2.0,eccentric,4,3.0,107441.0,352774.0,182161.0,332961.0,192568.0
2026-04-14 17:52:53.001979,591089,1609506666647688,4266617579,0.76128,-0.154208,0.013664,24.4825,-25.0775,18.90875,-21.320002,-23.160002,2.024,eccentric,4,3.0,98151.0,351754.0,171164.0,332097.0,181491.0
2026-04-14 17:52:53.004755,591090,1609506666656669,4266626333,0.76128,-0.154208,0.013664,29.53125,-28.105,20.58875,-21.320002,-23.160002,2.024,eccentric,4,3.0,98151.0,351754.0,171164.0,332097.0,181491.0
2026-04-14 17:52:53.007306,591091,1609506666671354,4266641245,0.77104,-0.105408,-0.015616,35.28875,-30.87875,22.3125,-22.080002,-23.368002,3.448,eccentric,4,3.0,98151.0,351754.0,171164.0,332097.0,181491.0
2026-04-14 17:52:53.014778,591092,1609506666680482,4266650086,0.767136,-0.083936,0.150304,38.87625,-31.33375,22.715,-22.192001,-23.36,1.096,eccentric,4,3.0,98151.0,351754.0,171164.0,332097.0,181491.0
2026-04-14 17:52:53.032333,591093,1609506666694967,4266664986,0.767136,-0.083936,0.150304,38.28125,-29.88125,22.51375,-22.192001,-23.36,1.096,eccentric,4,3.0,98151.0,351754.0,171164.0,332097.0,181491.0
2026-04-14 17:52:53.039634,591094,1609506666703917,4266673691,0.716384,-0.162016,0.05856,35.3675,-29.61,22.96875,-21.808,-23.36,-0.152,eccentric,4,3.0,98151.0,351754.0,171164.0,332097.0,181491.0
2026-04-14 17:52:53.054586,591095,1609506666718439,4266688631,0.716384,-0.162016,0.05856,34.23875,-33.46875,24.40375,-21.808,-23.36,-0.152,eccentric,4,3.0,98151.0,351754.0,171164.0,332097.0,181491.0
2026-04-14 17:52:53.062263,591096,1609506666727380,4266697371,0.667584,-0.142496,-0.138592,39.8475,-40.03125,27.055,-21.904001,-22.592001,-2.272,eccentric,4,3.0,98151.0,351754.0,171164.0,332097.0,181491.0
2026-04-14 17:52:53.072558,591097,1609506666736450,4266706056,0.667584,-0.142496,-0.138592,41.97375,-43.35625,28.63875,-21.904001,-22.592001,-2.272,eccentric,4,3.0,98151.0,351754.0,171164.0,332097.0,181491.0
