pc_time,serial_num,sensor_ts,host_ts,ax,ay,az,gx,gy,gz,mx,my,mz,phase,rpe,weight_kg,ppg_a,ppg_b,ppg_c,ppg_d,ppg_e
2026-04-14 18:08:33.481735,767878,1609507607094046,5207063882,0.525088,-0.47824,-0.51728,-31.43875,98.49,-68.3025,7.632,21.536001,-29.584002,concentric,6,3.0,57356.0,261086.0,119620.0,259762.0,127098.0
2026-04-14 18:08:33.484266,767879,1609507607103017,5207072674,0.491904,-0.386496,-0.622688,-28.02625,100.09125,-69.755,5.144,21.528002,-29.192001,concentric,6,3.0,57356.0,261086.0,119620.0,259762.0,127098.0
2026-04-14 18:08:33.486730,767880,1609507607117543,5207087601,0.491904,-0.386496,-0.622688,-18.85625,99.18125,-70.25375,5.144,21.528002,-29.192001,concentric,6,3.0,57356.0,261086.0,119620.0,259762.0,127098.0
2026-04-14 18:08:33.492689,767881,1609507607126506,5207096308,0.491904,-0.244,-0.353312,-17.68375,96.53875,-73.80625,3.784,21.880001,-28.128002,concentric,6,3.0,57356.0,261086.0,119620.0,259762.0,127098.0
2026-04-14 18:08:33.506687,767882,1609507607141015,5207111233,0.583648,-0.257664,-0.413824,-26.565,92.277504,-73.22,3.784,21.880001,-28.912,concentric,6,3.0,57356.0,261086.0,119620.0,259762.0,127098.0
2026-04-14 18:08:33.516832,767883,1609507607150001,5207119934,0.583648,-0.257664,-0.413824,-42.0525,87.9725,-65.7125,2.504,21.584002,-28.912,concentric,6,3.0,57356.0,261086.0,119620.0,259762.0,127098.0
2026-04-14 18:08:33.549693,767884,1609507607164500,5207132854,0.735904,-0.269376,-0.296704,-63.41125,88.92625,-60.305,1.8,20.456001,-30.816002,concentric,6,3.0,57356.0,261086.0,119620.0,259762.0,127098.0
2026-04-14 18:08:33.573802,767885,1609507607173830,5207143624,0.735904,-0.269376,-0.296704,-65.17,91.44625,-54.985,1.8,20.456001,-30.816002,concentric,6,3.0,57356.0,261086.0,119620.0,259762.0,127098.0
2026-04-14 18:08:33.599265,767886,1609507607182994,5207152377,0.612928,-0.27328,-0.298656,-63.638752,93.765,-58.1,-0.128,20.072,-30.624,concentric,6,3.0,57356.0,261086.0,119620.0,259762.0,127098.0
2026-04-14 18:08:33.631353,767897,1609507607197585,5207167434,0.612928,-0.27328,-0.298656,-59.14125,94.26375,-62.92125,-0.128,20.072,-30.624,concentric,6,3.0,93806.0,294425.0,178185.0,287532.0,187546.0
2026-04-14 18:08:33.634327,767898,1609507607206529,5207176180,0.587552,-0.308416,-0.640256,-56.77875,90.72875,-61.78375,-1.416,19.800001,-30.504002,concentric,6,3.0,93806.0,294425.0,178185.0,287532.0,187546.0
2026-04-14 18:08:33.636818,767899,1609507607221114,5207191066,0.587552,-0.308416,-0.261568,-56.46375,86.56375,-57.5225,-1.416,19.800001,-30.504002,concentric,6,3.0,93806.0,294425.0,178185.0,287532.0,187546.0
2026-04-14 18:08:33.639365,767900,1609507607230064,5207199753,0.519232,-0.220576,-0.261568,-48.545002,84.55125,-53.41875,-2.648,19.712002,-32.712,concentric,6,3.0,93806.0,294425.0,178185.0,287532.0,187546.0
2026-04-14 18:08:33.641447,767901,1609507607239002,5207208443,0.519232,-0.220576,-0.261568,-35.91875,81.26125,-52.50875,-2.648,19.712002,-32.712,concentric,6,3.0,93806.0,294425.0,178185.0,287532.0,187546.0
2026-04-14 18:08:33.643824,767902,1609507607253633,5207223357,0.433344,-0.199104,-0.407968,-26.915,74.655,-53.138752,-3.6,19.248001,-31.808,concentric,6,3.0,93806.0,294425.0,178185.0,287532.0,187546.0
2026-04-14 18:08:33.646836,767903,1609507607262591,5207232110,0.669536,-0.25376,-0.423584,-25.3575,65.808754,-55.0375,-4.032,18.648,-33.688,concentric,6,3.0,93806.0,294425.0,178185.0,287532.0,187546.0
2026-04-14 18:08:33.649357,767904,1609507607277132,5207247131,0.669536,-0.25376,-0.423584,-31.0625,56.34125,-54.48625,-4.032,18.648,-33.688,concentric,6,3.0,93806.0,294425.0,178185.0,287532.0,187546.0
2026-04-14 18:08:33.651460,767905,1609507607286085,5207255928,0.75152,-0.183488,-0.210816,-19.90625,50.42625,-48.69375,-4.368,18.68,-31.960001,concentric,6,3.0,93806.0,294425.0,178185.0,287532.0,187546.0
2026-04-14 18:08:33.680094,767916,1609507607300895,5207270994,0.75152,-0.183488,-0.210816,-20.29125,49.805,-50.46125,-4.368,18.68,-31.960001,concentric,6,3.0,140790.0,324468.0,235569.0,313821.0,244582.0
2026-04-14 18:08:33.682683,767917,1609507607309970,5207279781,0.718336,-0.152256,-0.378688,-4.9875,44.24,-55.37875,-5.776001,18.720001,-29.656002,concentric,6,3.0,140790.0,324468.0,235569.0,313821.0,244582.0
2026-04-14 18:08:33.685482,767918,1609507607318977,5207288482,0.718336,-0.152256,-0.378688,-3.745,43.77625,-61.04,-5.776001,18.720001,-29.656002,concentric,6,3.0,140790.0,324468.0,235569.0,313821.0,244582.0
2026-04-14 18:08:33.699299,767919,1609507607333513,5207303374,0.85888,-0.148352,-0.306464,-8.77625,44.63375,-58.205,-7.216001,19.168001,-29.728,concentric,6,3.0,140790.0,324468.0,235569.0,313821.0,244582.0
2026-04-14 18:08:33.706803,767920,1609507607342544,5207312060,0.825696,-0.230336,-0.2928,-18.27,46.97875,-50.5575,-7.216001,18.088001,-32.304,concentric,6,3.0,140790.0,324468.0,235569.0,313821.0,244582.0
2026-04-14 18:08:33.721765,767921,1609507607357061,5207326985,0.825696,-0.230336,-0.2928,-28.34125,46.34875,-45.57875,-6.480001,18.088001,-32.304,concentric,6,3.0,140790.0,324468.0,235569.0,313821.0,244582.0
2026-04-14 18:08:33.733040,767922,1609507607365987,5207335668,0.802272,-0.357216,-0.316224,-24.955,44.05625,-40.78375,-7.056,17.504002,-32.008003,concentric,6,3.0,140790.0,324468.0,235569.0,313821.0,244582.0
2026-04-14 18:08:33.740546,767923,1609507607374896,5207344372,0.802272,-0.357216,-0.316224,-31.255001,44.02125,-37.45,-7.056,17.504002,-32.008003,concentric,6,3.0,140790.0,324468.0,235569.0,313821.0,244582.0
2026-04-14 18:08:33.755529,767924,1609507607389407,5207359287,0.786656,-0.286944,-0.163968,-17.45625,44.485,-27.41375,-8.656,18.08,-31.240002,concentric,6,3.0,140790.0,324468.0,235569.0,313821.0,244582.0
2026-04-14 18:08:33.783994,767935,1609507607398406,5207368087,0.786656,-0.286944,-0.163968,-8.82,45.36,-26.80125,-8.656,18.08,-31.240002,concentric,6,3.0,176963.0,346877.0,276525.0,332318.0,280946.0
2026-04-14 18:08:33.786533,767936,1609507607412983,5207383095,0.714432,-0.042944,-0.181536,13.72875,43.0325,-24.2025,-8.824,18.480001,-30.576002,concentric,6,3.0,176963.0,346877.0,276525.0,332318.0,280946.0
2026-04-14 18:08:33.788248,767937,1609507607421939,5207391820,0.714432,-0.042944,-0.181536,29.75,38.52625,-21.98875,-8.824,18.480001,-30.576002,concentric,6,3.0,176963.0,346877.0,276525.0,332318.0,280946.0
2026-04-14 18:08:33.805497,767938,1609507607436548,5207406749,0.706624,-0.183488,-0.505568,23.065,32.305,-18.2,-9.216001,18.832,-28.272001,concentric,6,3.0,176963.0,346877.0,276525.0,332318.0,280946.0
2026-04-14 18:08:33.811412,767939,1609507607445451,5207415453,0.792512,-0.251808,-0.193248,4.445,22.6975,-11.34,-9.768001,18.256,-30.264002,concentric,6,3.0,176963.0,346877.0,276525.0,332318.0,280946.0
2026-04-14 18:08:33.820139,767940,1609507607454418,5207424142,0.792512,-0.251808,-0.193248,-18.803751,20.32625,-13.877501,-9.768001,18.256,-30.264002,concentric,6,3.0,176963.0,346877.0,276525.0,332318.0,280946.0
2026-04-14 18:08:33.835532,767941,1609507607468909,5207439070,0.843264,-0.11712,-0.040992,-8.225,24.47375,-17.6925,-9.04,18.048,-31.528002,concentric,6,3.0,176963.0,346877.0,276525.0,332318.0,280946.0
2026-04-14 18:08:33.842755,767942,1609507607477860,5207447767,0.843264,-0.11712,-0.040992,4.19125,19.43375,-23.73875,-9.04,18.048,-31.528002,concentric,6,3.0,176963.0,346877.0,276525.0,332318.0,280946.0
2026-04-14 18:08:33.881162,767953,1609507607492471,5207460790,0.901824,0.01952,-0.00976,23.835001,15.33875,-27.2475,-9.328,18.648,-31.336002,concentric,6,3.0,196525.0,353968.0,299825.0,339218.0,299213.0
2026-04-14 18:08:33.884096,767954,1609507607501817,5207471641,0.901824,0.01952,-0.00976,23.66875,15.46125,-30.51125,-9.328,18.648,-31.336002,concentric,6,3.0,196525.0,353968.0,299825.0,339218.0,299213.0
2026-04-14 18:08:33.886680,767955,1609507607511007,5207480483,0.726144,-0.1952,-0.396256,9.56375,13.7725,-22.26,-10.328,18.936,-29.616001,concentric,6,3.0,196525.0,353968.0,299825.0,339218.0,299213.0
2026-04-14 18:08:33.891409,767956,1609507607525570,5207495389,0.970144,-0.40016,-0.230336,-5.355,8.70625,-10.33375,-11.040001,19.088001,-29.080002,concentric,6,3.0,196525.0,353968.0,299825.0,339218.0,299213.0
2026-04-14 18:08:33.916761,767957,1609507607534673,5207504218,0.970144,-0.40016,-0.230336,-17.3425,3.29,-0.98,-11.040001,19.088001,-29.080002,concentric,6,3.0,196525.0,353968.0,299825.0,339218.0,299213.0
2026-04-14 18:08:33.941414,767958,1609507607549141,5207519118,0.735904,-0.261568,-0.167872,-14.02625,2.17875,6.2125,-11.120001,18.832,-30.264002,concentric,6,3.0,196525.0,353968.0,299825.0,339218.0,299213.0
2026-04-14 18:08:33.951798,767959,1609507607558056,5207527794,0.735904,-0.261568,-0.167872,5.1625,2.84375,7.175,-11.120001,18.832,-30.264002,concentric,6,3.0,196525.0,353968.0,299825.0,339218.0,299213.0
2026-04-14 18:08:33.956232,767960,1609507607566990,5207536472,0.743712,-0.00976,-0.240096,24.73625,3.1675,4.71625,-10.664001,19.36,-29.992,concentric,6,3.0,196525.0,353968.0,299825.0,339218.0,299213.0
2026-04-14 18:08:33.956564,767961,1609507607581492,5207551378,0.743712,-0.00976,-0.240096,33.6175,3.19375,2.2925,-10.664001,19.36,-29.992,concentric,6,3.0,196525.0,353968.0,299825.0,339218.0,299213.0
2026-04-14 18:08:33.958780,767962,1609507607590455,5207560125,0.882304,-0.11712,-0.320128,22.65375,3.01,1.8375,-10.512,19.392,-29.928001,concentric,6,3.0,196525.0,353968.0,299825.0,339218.0,299213.0
2026-04-14 18:08:33.989149,767974,1609507607605155,5207575115,0.905728,-0.18544,-0.376736,1.05875,2.8175,2.6075,-10.440001,19.12,-29.928001,concentric,6,3.0,195587.0,351468.0,298310.0,336523.0,298519.0
2026-04-14 18:08:33.991608,767975,1609507607614223,5207583850,0.905728,-0.18544,-0.376736,-4.445,3.98125,4.1825,-10.440001,19.12,-29.928001,concentric,6,3.0,195587.0,351468.0,298310.0,336523.0,298519.0
2026-04-14 18:08:33.995155,767976,1609507607628735,5207598737,0.925248,-0.148352,-0.320128,1.11125,4.76875,2.30125,-10.368,19.392,-30.248001,concentric,6,3.0,195587.0,351468.0,298310.0,336523.0,298519.0
2026-04-14 18:08:34.003059,767977,1609507607637686,5207607436,0.925248,-0.148352,-0.320128,8.4,4.55,2.10875,-10.368,19.392,-30.248001,concentric,6,3.0,195587.0,351468.0,298310.0,336523.0,298519.0
2026-04-14 18:08:34.034335,767978,1609507607646610,5207616122,0.841312,-0.134688,-0.30256,12.7575,3.40375,2.05625,-10.168,19.512001,-29.712002,concentric,6,3.0,195587.0,351468.0,298310.0,336523.0,298519.0
2026-04-14 18:08:34.036841,767979,1609507607661178,5207631014,0.841312,-0.134688,-0.30256,9.91375,1.5925,1.86375,-10.168,19.512001,-29.712002,concentric,6,3.0,195587.0,351468.0,298310.0,336523.0,298519.0
2026-04-14 18:08:34.039336,767980,1609507607670192,5207639732,0.85888,-0.148352,-0.284992,3.56125,0.8575,0.84,-9.72,19.128,-30.760002,concentric,6,3.0,195587.0,351468.0,298310.0,336523.0,298519.0
2026-04-14 18:08:34.050182,767981,1609507607684696,5207654617,0.940864,-0.158112,-0.324032,0.7525,2.82625,-0.56875,-9.72,19.272001,-31.080002,concentric,6,3.0,195587.0,351468.0,298310.0,336523.0,298519.0
2026-04-14 18:08:34.083016,767992,1609507607694269,5207663279,0.940864,-0.158112,-0.324032,2.73,3.99875,-3.0275,-9.472,19.272001,-31.080002,concentric,6,3.0,191895.0,350037.0,293850.0,335267.0,295020.0
2026-04-14 18:08:34.085488,767993,1609507607703365,5207672033,0.940864,-0.158112,-0.324032,-2.59875,4.10375,-5.3025,-9.472,19.272001,-31.080002,concentric,6,3.0,191895.0,350037.0,293850.0,335267.0,295020.0
2026-04-14 18:08:34.088022,767994,1609507607718254,5207687037,0.913536,-0.138592,-0.150304,-4.7775,3.2375,-4.3575,-11.112,19.92,-27.072,concentric,6,3.0,191895.0,350037.0,293850.0,335267.0,295020.0
2026-04-14 18:08:34.093825,767995,1609507607727656,5207697834,0.856928,-0.193248,-0.343552,-4.8825,2.05625,-6.475,-11.368001,19.592001,-29.960001,concentric,6,3.0,191895.0,350037.0,293850.0,335267.0,295020.0
2026-04-14 18:08:34.105534,767996,1609507607742169,5207710695,0.856928,-0.193248,-0.343552,-4.585,1.04125,-6.37,-11.368001,19.592001,-29.960001,concentric,6,3.0,191895.0,350037.0,293850.0,335267.0,295020.0
2026-04-14 18:08:34.118963,767997,1609507607751711,5207721475,0.884256,-0.21472,-0.376736,-6.57125,-0.34125,-4.655,-9.808001,19.048,-31.072002,concentric,6,3.0,191895.0,350037.0,293850.0,335267.0,295020.0
2026-04-14 18:08:34.126408,767998,1609507607760645,5207730175,0.884256,-0.21472,-0.376736,-9.065,-1.645,-2.0475,-9.808001,19.048,-31.072002,concentric,6,3.0,191895.0,350037.0,293850.0,335267.0,295020.0
2026-04-14 18:08:34.142831,767999,1609507607775176,5207745112,0.9272,-0.183488,-0.148352,-7.35875,-2.87,1.05,-9.816001,19.008001,-30.864002,concentric,6,3.0,191895.0,350037.0,293850.0,335267.0,295020.0
2026-04-14 18:08:34.149278,768000,1609507607784150,5207753955,0.9272,-0.183488,-0.148352,-4.6025,-3.5,1.4,-9.816001,19.008001,-30.864002,concentric,6,3.0,191895.0,350037.0,293850.0,335267.0,295020.0
2026-04-14 18:08:34.183917,768011,1609507607798768,5207768933,0.835456,-0.160064,-0.308416,-1.77625,-4.48875,1.72375,-9.688001,19.04,-30.808,concentric,6,3.0,186666.0,349487.0,287643.0,334793.0,289844.0
2026-04-14 18:08:34.186448,768012,1609507607807722,5207777742,0.884256,-0.142496,-0.3904,1.02375,-5.74875,2.02125,-9.944,19.616001,-30.088001,concentric,6,3.0,186666.0,349487.0,287643.0,334793.0,289844.0
2026-04-14 18:08:34.188865,768013,1609507607816685,5207786442,0.884256,-0.142496,-0.3904,0.56875,-5.775,1.925,-9.944,19.616001,-30.088001,concentric,6,3.0,186666.0,349487.0,287643.0,334793.0,289844.0
2026-04-14 18:08:34.196439,768014,1609507607831200,5207801575,0.847168,-0.083936,-0.320128,0.595,-4.1475,0.62125,-10.368,19.328001,-30.136002,concentric,6,3.0,186666.0,349487.0,287643.0,334793.0,289844.0
2026-04-14 18:08:34.206468,768015,1609507607840135,5207810297,0.847168,-0.083936,-0.320128,-1.365,-1.54875,-0.945,-10.368,19.328001,-30.136002,concentric,6,3.0,186666.0,349487.0,287643.0,334793.0,289844.0
2026-04-14 18:08:34.218972,768016,1609507607854640,5207823133,0.890112,-0.150304,-0.249856,-4.36625,-0.23625,-1.95125,-9.344001,19.192001,-31.072002,concentric,6,3.0,186666.0,349487.0,287643.0,334793.0,289844.0
2026-04-14 18:08:34.232082,768017,1609507607864119,5207833882,0.890112,-0.150304,-0.249856,-4.4975,-0.65625,-1.58375,-9.344001,19.192001,-31.072002,concentric,6,3.0,186666.0,349487.0,287643.0,334793.0,289844.0
2026-04-14 18:08:34.239032,768018,1609507607873090,5207842694,0.93696,-0.187392,-0.247904,-1.61,-2.33625,-0.67375,-9.336,19.472,-30.368002,concentric,6,3.0,186666.0,349487.0,287643.0,334793.0,289844.0
2026-04-14 18:08:34.252686,768019,1609507607887681,5207857577,0.83936,-0.134688,-0.378688,1.96875,-3.3775,0.81375,-9.208,19.568,-29.304,concentric,6,3.0,186666.0,349487.0,287643.0,334793.0,289844.0
2026-04-14 18:08:34.338820,768030,1609507607897305,5207866308,0.83936,-0.134688,-0.378688,3.05375,-3.1675,1.56625,-9.208,19.568,-29.304,concentric,6,3.0,184759.0,349314.0,285404.0,334718.0,287798.0
2026-04-14 18:08:34.341404,768031,1609507607912014,5207881234,0.942816,-0.189344,-0.203008,2.3625,-2.12625,1.2425,-10.92,19.864,-29.160002,concentric,6,3.0,184759.0,349314.0,285404.0,334718.0,287798.0
2026-04-14 18:08:34.343884,768032,1609507607920939,5207889920,0.942816,-0.189344,-0.203008,1.5575,-1.4525,1.23375,-10.92,19.864,-29.160002,concentric,6,3.0,184759.0,349314.0,285404.0,334718.0,287798.0
2026-04-14 18:08:34.346345,768033,1609507607929873,5207898666,0.925248,-0.191296,-0.345504,2.695,-1.14625,0.86625,-11.040001,20.304,-29.488,concentric,6,3.0,184759.0,349314.0,285404.0,334718.0,287798.0
2026-04-14 18:08:34.348955,768034,1609507607944903,5207913573,0.925248,-0.191296,-0.345504,4.82125,-1.95125,0.6125,-11.040001,20.304,-29.488,concentric,6,3.0,184759.0,349314.0,285404.0,334718.0,287798.0
2026-04-14 18:08:34.351460,768035,1609507607954211,5207924363,0.921344,-0.128832,-0.284992,3.535,-2.1525,-0.9275,-10.736,19.648,-30.12,concentric,6,3.0,184759.0,349314.0,285404.0,334718.0,287798.0
2026-04-14 18:08:34.354026,768036,1609507607963186,5207933084,0.921344,-0.128832,-0.284992,3.36875,-0.25375,-1.155,-10.736,19.648,-30.12,concentric,6,3.0,184759.0,349314.0,285404.0,334718.0,287798.0
2026-04-14 18:08:34.356459,768037,1609507607977850,5207948003,0.853024,-0.142496,-0.2928,-0.07875,2.28375,-2.0125,-10.336,19.672,-29.808,concentric,6,3.0,184759.0,349314.0,285404.0,334718.0,287798.0
2026-04-14 18:08:34.358903,768038,1609507607986918,5207956748,0.833504,-0.216672,-0.40992,-2.835,3.54375,-1.23375,-10.064,19.92,-27.792002,concentric,6,3.0,184759.0,349314.0,285404.0,334718.0,287798.0
2026-04-14 18:08:34.386704,768049,1609507608001476,5207971858,0.833504,-0.216672,-0.40992,-2.03875,3.8325,0.06125,-10.064,19.92,-27.792002,concentric,6,3.0,181293.0,348536.0,281166.0,333959.0,284225.0
2026-04-14 18:08:34.389344,768050,1609507608010486,5207980614,0.876448,-0.150304,-0.189344,0.49875,2.26625,1.32125,-9.984,20.048,-30.064001,concentric,6,3.0,181293.0,348536.0,281166.0,333959.0,284225.0
2026-04-14 18:08:34.391678,768051,1609507608025087,5207993510,0.876448,-0.150304,-0.189344,1.785,0.6125,1.14625,-9.984,20.048,-30.064001,concentric,6,3.0,181293.0,348536.0,281166.0,333959.0,284225.0
2026-04-14 18:08:34.399298,768052,1609507608034362,5208004459,0.843264,-0.124928,-0.173728,2.87875,0.42875,0.3675,-10.536,19.592001,-29.080002,concentric,6,3.0,181293.0,348536.0,281166.0,333959.0,284225.0
2026-04-14 18:08:34.408103,768053,1609507608043405,5208013165,0.843264,-0.124928,-0.173728,2.1,0.665,0.21,-10.536,19.592001,-29.080002,concentric,6,3.0,181293.0,348536.0,281166.0,333959.0,284225.0
2026-04-14 18:08:34.424756,768054,1609507608058051,5208028043,0.919392,-0.177632,-0.144448,0.805,1.155,0.7175,-8.84,19.488,-30.992,concentric,6,3.0,181293.0,348536.0,281166.0,333959.0,284225.0
2026-04-14 18:08:34.432944,768055,1609507608067027,5208036755,0.89792,-0.1952,-0.316224,0.4725,1.30375,1.4875,-8.84,19.488,-30.208002,concentric,6,3.0,181293.0,348536.0,281166.0,333959.0,284225.0
2026-04-14 18:08:34.446632,768056,1609507608081525,5208051693,0.89792,-0.1952,-0.316224,0.88375,0.72625,3.15,-9.232,19.472,-30.208002,concentric,6,3.0,181293.0,348536.0,281166.0,333959.0,284225.0
2026-04-14 18:08:34.456729,768057,1609507608090462,5208060380,0.864736,-0.183488,-0.359168,0.91875,-0.00875,2.87,-9.480001,19.92,-29.704,concentric,6,3.0,181293.0,348536.0,281166.0,333959.0,284225.0
2026-04-14 18:08:34.484296,768068,1609507608099614,5208069213,0.864736,-0.183488,-0.359168,0.8225,-0.1225,2.555,-9.480001,19.92,-29.704,concentric,6,3.0,176089.0,346544.0,275118.0,332289.0,279171.0
2026-04-14 18:08:34.486321,768069,1609507608114284,5208084171,0.929152,-0.21472,-0.269376,0.51625,0.11375,2.79125,-9.352,19.808,-29.744001,concentric,6,3.0,176089.0,346544.0,275118.0,332289.0,279171.0
2026-04-14 18:08:34.489303,768070,1609507608123254,5208092888,0.929152,-0.21472,-0.269376,0.39375,0.0175,2.63375,-9.352,19.808,-29.744001,concentric,6,3.0,176089.0,346544.0,275118.0,332289.0,279171.0
2026-04-14 18:08:34.504294,768071,1609507608137790,5208107793,0.901824,-0.173728,-0.12688,1.26,0.105,2.7475,-9.400001,19.832,-31.008001,concentric,6,3.0,176089.0,346544.0,275118.0,332289.0,279171.0
2026-04-14 18:08:34.512814,768072,1609507608146782,5208116490,0.901824,-0.173728,-0.12688,2.12625,-0.4025,3.045,-9.400001,19.832,-31.008001,concentric,6,3.0,176089.0,346544.0,275118.0,332289.0,279171.0
2026-04-14 18:08:34.522263,768073,1609507608155795,5208125261,0.919392,-0.208864,-0.26352,1.46125,-1.98625,3.325,-9.392,19.904001,-30.960001,concentric,6,3.0,176089.0,346544.0,275118.0,332289.0,279171.0
2026-04-14 18:08:34.536663,768074,1609507608170274,5208140201,0.860832,-0.15616,-0.15616,1.51375,-3.15875,3.70125,-9.184,19.736,-30.248001,concentric,6,3.0,176089.0,346544.0,275118.0,332289.0,279171.0
2026-04-14 18:08:34.544186,768075,1609507608179272,5208149046,0.860832,-0.15616,-0.15616,0.84,-3.73625,3.64875,-9.184,19.736,-30.248001,concentric,6,3.0,176089.0,346544.0,275118.0,332289.0,279171.0
2026-04-14 18:08:34.561797,768076,1609507608193767,5208163936,0.827648,-0.177632,-0.275232,-0.39375,-4.19125,3.5875,-8.96,19.904001,-29.792002,concentric,6,3.0,176089.0,346544.0,275118.0,332289.0,279171.0
2026-04-14 18:08:34.589203,768087,1609507608202795,5208172675,0.827648,-0.177632,-0.275232,-1.12,-3.5,3.50875,-8.96,19.904001,-29.792002,concentric,6,3.0,174014.0,345829.0,272570.0,331597.0,276953.0
2026-04-14 18:08:34.591676,768088,1609507608217522,5208187621,0.812032,-0.167872,-0.23424,-0.805,-3.94625,3.29875,-9.544001,19.896002,-29.616001,concentric,6,3.0,174014.0,345829.0,272570.0,331597.0,276953.0
2026-04-14 18:08:34.593907,768089,1609507608226599,5208196327,0.812032,-0.167872,-0.23424,0.07875,-4.27,4.2,-9.544001,19.896002,-29.616001,concentric,6,3.0,174014.0,345829.0,272570.0,331597.0,276953.0
2026-04-14 18:08:34.600574,768090,1609507608235730,5208205109,0.794464,-0.177632,-0.318176,0.56,-4.78625,4.9175,-9.464001,20.112001,-30.240002,concentric,6,3.0,174014.0,345829.0,272570.0,331597.0,276953.0
2026-04-14 18:08:34.616645,768091,1609507608250257,5208220071,0.856928,-0.189344,-0.122976,-0.06125,-5.2325,5.8275,-8.824,19.936,-30.616001,concentric,6,3.0,174014.0,345829.0,272570.0,331597.0,276953.0
2026-04-14 18:08:34.624951,768092,1609507608259277,5208228774,0.856928,-0.189344,-0.122976,-0.4025,-5.55625,6.90375,-8.824,19.936,-30.616001,concentric,6,3.0,174014.0,345829.0,272570.0,331597.0,276953.0
2026-04-14 18:08:34.653837,768093,1609507608273775,5208243699,0.886208,-0.232288,-0.177632,1.70625,-5.06625,7.77,-8.408,19.688002,-30.400002,concentric,6,3.0,174014.0,345829.0,272570.0,331597.0,276953.0
2026-04-14 18:08:34.679319,768094,1609507608282751,5208252378,0.886208,-0.232288,-0.177632,4.865,-4.97,8.95125,-8.408,19.688002,-30.400002,concentric,6,3.0,174014.0,345829.0,272570.0,331597.0,276953.0
2026-04-14 18:08:34.703825,768095,1609507608291682,5208261048,0.733952,-0.201056,-0.306464,8.1375,-5.88875,11.13,-10.064,20.808,-28.704,concentric,6,3.0,174014.0,345829.0,272570.0,331597.0,276953.0
2026-04-14 18:08:34.734219,768106,1609507608306274,5208276087,0.733952,-0.201056,-0.306464,11.4275,-8.05,13.895,-10.064,20.808,-28.704,concentric,6,3.0,165979.0,343050.0,262951.0,329025.0,268492.0
2026-04-14 18:08:34.736759,768107,1609507608315218,5208284794,0.81008,-0.212768,-0.13664,11.90875,-11.20875,17.17625,-9.912001,20.928001,-29.544,concentric,6,3.0,165979.0,343050.0,262951.0,329025.0,268492.0
2026-04-14 18:08:34.739324,768108,1609507608329736,5208299716,0.774944,-0.25376,-0.228384,11.1125,-13.72875,20.615,-8.712001,20.984001,-29.264002,concentric,6,3.0,165979.0,343050.0,262951.0,329025.0,268492.0
2026-04-14 18:08:34.741563,768109,1609507608338633,5208308399,0.774944,-0.25376,-0.228384,11.73375,-15.3825,24.35125,-8.712001,20.984001,-29.264002,concentric,6,3.0,165979.0,343050.0,262951.0,329025.0,268492.0
2026-04-14 18:08:34.744042,768110,1609507608353143,5208323413,0.743712,-0.27328,-0.337696,12.3725,-17.7625,27.965,-8.208,20.904001,-29.400002,concentric,6,3.0,165979.0,343050.0,262951.0,329025.0,268492.0
2026-04-14 18:08:34.746800,768111,1609507608362110,5208332121,0.743712,-0.27328,-0.337696,13.16,-20.125,31.36,-8.208,20.904001,-29.400002,concentric,6,3.0,165979.0,343050.0,262951.0,329025.0,268492.0
2026-04-14 18:08:34.749296,768112,1609507608371086,5208340858,0.714432,-0.251808,-0.3416,13.877501,-22.225,35.58625,-7.768001,21.096,-29.44,concentric,6,3.0,165979.0,343050.0,262951.0,329025.0,268492.0
2026-04-14 18:08:34.751429,768113,1609507608385614,5208355737,0.714432,-0.251808,-0.3416,14.95375,-24.99,39.2525,-7.768001,21.096,-29.44,concentric,6,3.0,165979.0,343050.0,262951.0,329025.0,268492.0
2026-04-14 18:08:34.763045,768114,1609507608394631,5208364518,0.83936,-0.257664,-0.0976,13.4225,-26.5475,40.18875,-7.288001,21.288,-29.272001,concentric,6,3.0,165979.0,343050.0,262951.0,329025.0,268492.0
2026-04-14 18:08:34.790542,768125,1609507608409360,5208379478,0.730048,-0.210816,-0.122976,19.92375,-26.705,41.93,-7.288001,21.808,-29.432001,concentric,6,3.0,150510.0,332891.0,244604.0,319935.0,252082.0
2026-04-14 18:08:34.794611,768126,1609507608418507,5208388194,0.730048,-0.210816,-0.122976,26.075,-26.95,42.1925,-6.576,21.808,-29.432001,concentric,6,3.0,150510.0,332891.0,244604.0,319935.0,252082.0
2026-04-14 18:08:34.795150,768127,1609507608427536,5208396915,0.730048,-0.210816,-0.122976,25.165,-28.88375,41.7025,-6.576,21.808,-29.432001,concentric,6,3.0,150510.0,332891.0,244604.0,319935.0,252082.0
2026-04-14 18:08:34.807996,768128,1609507608442047,5208411808,0.843264,-0.25376,-0.191296,19.03125,-32.96125,44.0125,-5.904,21.648,-28.152,concentric,6,3.0,150510.0,332891.0,244604.0,319935.0,252082.0
2026-04-14 18:08:34.819108,768129,1609507608450951,5208420492,0.765184,-0.296704,-0.427488,8.40875,-36.68875,46.357502,-5.136,22.04,-29.128002,concentric,6,3.0,150510.0,332891.0,244604.0,319935.0,252082.0
2026-04-14 18:08:34.831728,768130,1609507608465528,5208435452,0.765184,-0.296704,-0.427488,4.94375,-38.12375,48.83375,-5.136,22.04,-29.128002,concentric,6,3.0,150510.0,332891.0,244604.0,319935.0,252082.0
2026-04-14 18:08:34.838968,768131,1609507608474520,5208444170,0.757376,-0.327936,-0.281088,2.7125,-39.33125,47.57375,-3.432,22.04,-29.024002,concentric,6,3.0,150510.0,332891.0,244604.0,319935.0,252082.0
2026-04-14 18:08:34.855528,768132,1609507608489022,5208459048,0.757376,-0.327936,-0.218624,6.69375,-38.85875,46.8825,-3.432,22.04,-29.024002,concentric,6,3.0,150510.0,332891.0,244604.0,319935.0,252082.0
2026-04-14 18:08:34.890055,768143,1609507608498117,5208467673,0.753472,-0.388448,-0.20496,12.425,-39.20875,48.0025,-3.312,21.856,-29.368002,concentric,6,3.0,132637.0,317875.0,223214.0,306316.0,232085.0
2026-04-14 18:08:34.899250,768144,1609507608507071,5208476425,0.753472,-0.388448,-0.20496,14.14875,-42.51625,49.3325,-3.312,21.856,-29.368002,concentric,6,3.0,132637.0,317875.0,223214.0,306316.0,232085.0
2026-04-14 18:08:34.899539,768145,1609507608521630,5208491362,0.726144,-0.394304,-0.484096,16.345,-47.451252,53.165,-3.664,22.752,-28.768002,concentric,6,3.0,132637.0,317875.0,223214.0,306316.0,232085.0
2026-04-14 18:08:34.900158,768146,1609507608530599,5208500099,0.776896,-0.329888,-0.3904,20.83375,-52.12375,56.315,-2.328,22.76,-26.408,concentric,6,3.0,132637.0,317875.0,223214.0,306316.0,232085.0
2026-04-14 18:08:34.926344,768147,1609507608545127,5208515022,0.776896,-0.329888,-0.3904,17.745,-53.75125,54.08375,-2.328,22.76,-26.408,concentric,6,3.0,132637.0,317875.0,223214.0,306316.0,232085.0
2026-04-14 18:08:34.929282,768148,1609507608554249,5208523759,0.651968,-0.3416,-0.406016,18.6375,-53.12125,54.8975,0.152,22.480001,-29.744001,concentric,6,3.0,132637.0,317875.0,223214.0,306316.0,232085.0
2026-04-14 18:08:34.931600,768149,1609507608563180,5208532440,0.651968,-0.3416,-0.406016,12.0225,-53.760002,54.705,0.152,22.480001,-29.744001,concentric,6,3.0,132637.0,317875.0,223214.0,306316.0,232085.0
2026-04-14 18:08:34.942614,768150,1609507608577872,5208547323,0.509472,-0.40992,-0.415776,4.71625,-55.39625,54.94125,0.92,22.816002,-29.704,concentric,6,3.0,132637.0,317875.0,223214.0,306316.0,232085.0
2026-04-14 18:08:34.950140,768151,1609507608586924,5208556078,0.509472,-0.40992,-0.415776,7.0175,-59.50875,58.87,0.92,22.816002,-29.704,concentric,6,3.0,132637.0,317875.0,223214.0,306316.0,232085.0
2026-04-14 18:08:34.992596,768162,1609507608601893,5208571206,0.55632,-0.40016,-0.552416,12.32,-66.1325,61.495,1.2,22.768002,-29.12,concentric,6,3.0,113887.0,300320.0,200673.0,290772.0,209886.0
2026-04-14 18:08:34.994911,768163,1609507608610871,5208580054,0.636352,-0.335744,-0.320128,6.62375,-72.590004,61.25875,2.304,22.904001,-30.848001,concentric,6,3.0,113887.0,300320.0,200673.0,290772.0,209886.0
2026-04-14 18:08:35.019271,768164,1609507608619798,5208588773,0.636352,-0.335744,-0.320128,1.6275,-75.32,63.07875,2.304,22.904001,-30.848001,concentric,6,3.0,113887.0,300320.0,200673.0,290772.0,209886.0
2026-04-14 18:08:35.044350,768165,1609507608634382,5208603715,0.513376,-0.40992,-0.324032,0.67375,-75.04,63.98875,3.152,22.480001,-28.664001,concentric,6,3.0,113887.0,300320.0,200673.0,290772.0,209886.0
2026-04-14 18:08:35.046834,768166,1609507608643362,5208612440,0.513376,-0.40992,-0.324032,-7.86625,-74.78625,60.541252,3.152,22.480001,-28.664001,concentric,6,3.0,113887.0,300320.0,200673.0,290772.0,209886.0
2026-04-14 18:08:35.051567,768167,1609507608657859,5208627308,0.450912,-0.45872,-0.445056,-7.7175,-77.805,61.46,4.144,22.552002,-29.368002,eccentric,6,3.0,113887.0,300320.0,200673.0,290772.0,209886.0
2026-04-14 18:08:35.054177,768168,1609507608667005,5208636032,0.450912,-0.45872,-0.445056,-3.63125,-83.69375,63.77875,4.144,22.552002,-29.368002,eccentric,6,3.0,113887.0,300320.0,200673.0,290772.0,209886.0
2026-04-14 18:08:35.056250,768169,1609507608681508,5208650982,0.542656,-0.431392,-0.564128,-1.02375,-90.53625,64.19875,5.024,22.744001,-27.696001,eccentric,6,3.0,113887.0,300320.0,200673.0,290772.0,209886.0
2026-04-14 18:08:35.067703,768170,1609507608690441,5208659676,0.542656,-0.431392,-0.349408,-2.19625,-94.246254,65.625,5.024,22.744001,-27.696001,eccentric,6,3.0,113887.0,300320.0,200673.0,290772.0,209886.0
2026-04-14 18:08:35.091377,768181,1609507608699983,5208668436,0.568032,-0.407968,-0.349408,0.11375,-94.80625,67.3225,6.56,22.456001,-28.608002,eccentric,6,3.0,73738.0,262983.0,148238.0,257486.0,156674.0
2026-04-14 18:08:35.093539,768182,1609507608714912,5208683486,0.44896,-0.56608,-0.589504,-4.31375,-93.9925,63.875,7.504,22.344002,-28.288002,eccentric,6,3.0,73738.0,262983.0,148238.0,257486.0,156674.0
2026-04-14 18:08:35.096327,768183,1609507608724342,5208694272,0.44896,-0.56608,-0.589504,-6.99125,-94.535,62.09,7.504,22.344002,-28.288002,eccentric,6,3.0,73738.0,262983.0,148238.0,257486.0,156674.0
2026-04-14 18:08:35.098855,768184,1609507608733291,5208703001,0.460672,-0.59536,-0.776896,-4.36625,-97.23,62.8775,9.752001,21.616001,-28.016,eccentric,6,3.0,73738.0,262983.0,148238.0,257486.0,156674.0
2026-04-14 18:08:35.112728,768185,1609507608747794,5208717915,0.460672,-0.59536,-0.776896,-0.95375,-101.00125,62.5275,9.752001,21.616001,-28.016,eccentric,6,3.0,73738.0,262983.0,148238.0,257486.0,156674.0
2026-04-14 18:08:35.122737,768186,1609507608756737,5208726611,0.573888,-0.50752,-0.503616,7.875,-102.31375,63.65625,12.080001,20.992,-28.232002,eccentric,6,3.0,73738.0,262983.0,148238.0,257486.0,156674.0
2026-04-14 18:08:35.138957,768187,1609507608771269,5208741534,0.573888,-0.528992,-0.41968,13.1775,-100.66875,64.11125,12.080001,20.992,-26.184002,eccentric,6,3.0,73738.0,262983.0,148238.0,257486.0,156674.0
2026-04-14 18:08:35.145220,768188,1609507608780166,5208750310,0.511424,-0.528992,-0.41968,16.45875,-97.41375,62.86,12.856001,21.168001,-25.952002,eccentric,6,3.0,73738.0,262983.0,148238.0,257486.0,156674.0
2026-04-14 18:08:35.158841,768189,1609507608794667,5208763210,0.374784,-0.706624,-0.874496,14.91,-94.99875,59.92875,14.416,20.480001,-27.872002,eccentric,6,3.0,73738.0,262983.0,148238.0,257486.0,156674.0
2026-04-14 18:08:35.191414,768200,1609507608804273,5208774385,0.374784,-0.706624,-0.874496,10.85875,-96.8275,58.28375,14.416,20.480001,-27.872002,eccentric,6,3.0,49566.0,196577.0,108455.0,203497.0,114610.0
2026-04-14 18:08:35.196398,768201,1609507608813248,5208783139,0.437248,-0.710528,-0.890112,3.2375,-98.595,59.85,14.864,20.320002,-28.872002,eccentric,6,3.0,49566.0,196577.0,108455.0,203497.0,114610.0
2026-04-14 18:08:35.198702,768202,1609507608827824,5208798081,0.437248,-0.710528,-0.890112,0.665,-100.03,59.21125,14.864,20.320002,-28.872002,eccentric,6,3.0,49566.0,196577.0,108455.0,203497.0,114610.0
2026-04-14 18:08:35.202789,768203,1609507608836805,5208806835,0.632448,-0.708576,-0.64416,5.76625,-97.90375,56.51625,16.584002,20.352001,-26.672,eccentric,6,3.0,49566.0,196577.0,108455.0,203497.0,114610.0
2026-04-14 18:08:35.215258,768204,1609507608851315,5208819712,0.632448,-0.708576,-0.64416,6.965,-95.69,55.5275,16.584002,20.352001,-26.672,eccentric,6,3.0,49566.0,196577.0,108455.0,203497.0,114610.0
2026-04-14 18:08:35.225064,768205,1609507608860565,5208830553,0.538752,-0.772992,-0.745664,10.52625,-90.43125,56.665,17.52,20.176,-23.872002,eccentric,6,3.0,49566.0,196577.0,108455.0,203497.0,114610.0
2026-04-14 18:08:35.233986,768206,1609507608869558,5208839366,0.538752,-0.772992,-0.745664,5.67875,-86.05625,51.05625,17.52,20.176,-23.872002,eccentric,6,3.0,49566.0,196577.0,108455.0,203497.0,114610.0
2026-04-14 18:08:35.250151,768207,1609507608884063,5208854253,0.296704,-0.794464,-0.806176,3.0975,-87.4825,44.96625,18.448,19.744001,-25.992,eccentric,6,3.0,49566.0,196577.0,108455.0,203497.0,114610.0
2026-04-14 18:08:35.261130,768208,1609507608893005,5208862950,0.269376,-0.679296,-0.757376,5.3025,-85.67125,42.30625,17.544,20.192001,-23.44,eccentric,6,3.0,49566.0,196577.0,108455.0,203497.0,114610.0
2026-04-14 18:08:35.320628,768219,1609507608907560,5208877919,0.269376,-0.679296,-0.757376,8.82875,-84.805,42.70875,17.544,20.192001,-23.44,eccentric,6,3.0,41629.0,187039.0,92382.0,194628.0,96995.0
2026-04-14 18:08:35.322994,768220,1609507608916542,5208886800,0.296704,-0.646112,-0.745664,9.42375,-83.965004,42.6475,18.312,19.496,-23.776001,eccentric,6,3.0,41629.0,187039.0,92382.0,194628.0,96995.0
2026-04-14 18:08:35.325133,768221,1609507608925612,5208895500,0.296704,-0.646112,-0.745664,5.83625,-82.985,42.14875,18.312,19.496,-23.776001,eccentric,6,3.0,41629.0,187039.0,92382.0,194628.0,96995.0
2026-04-14 18:08:35.328091,768222,1609507608940235,5208910387,0.216672,-0.75152,-0.827648,-2.82625,-82.705,40.62625,20.328001,19.184,-23.592001,eccentric,6,3.0,41629.0,187039.0,92382.0,194628.0,96995.0
2026-04-14 18:08:35.330585,768223,1609507608949187,5208919140,0.216672,-0.75152,-0.827648,-6.825,-81.121254,38.00125,20.328001,19.184,-23.592001,eccentric,6,3.0,41629.0,187039.0,92382.0,194628.0,96995.0
2026-04-14 18:08:35.333097,768224,1609507608963715,5208934031,0.142496,-0.772992,-0.864736,-2.59875,-78.23375,36.085,21.048,18.84,-22.992,eccentric,6,3.0,41629.0,187039.0,92382.0,194628.0,96995.0
2026-04-14 18:08:35.338994,768225,1609507608972662,5208942719,0.080032,-0.698816,-0.905728,3.92,-77.402504,34.86,21.048,18.84,-23.848001,eccentric,6,3.0,41629.0,187039.0,92382.0,194628.0,96995.0
2026-04-14 18:08:35.350620,768226,1609507608987172,5208955685,0.083936,-0.698816,-0.905728,10.17625,-75.74875,32.01625,21.864,18.912,-23.848001,eccentric,6,3.0,41629.0,187039.0,92382.0,194628.0,96995.0
2026-04-14 18:08:35.363637,768227,1609507608996531,5208966448,0.163968,-0.694912,-0.737856,9.10875,-74.06875,32.34875,22.496,18.04,-23.080002,eccentric,6,3.0,41629.0,187039.0,92382.0,194628.0,96995.0
2026-04-14 18:08:35.435616,768238,1609507609005649,5208975347,0.163968,-0.694912,-0.737856,3.98125,-74.2175,34.99125,22.496,18.04,-23.080002,eccentric,6,3.0,38114.0,186648.0,85291.0,194858.0,88836.0
2026-04-14 18:08:35.438078,768239,1609507609020261,5208990314,0.15616,-0.763232,-0.593408,-0.84,-72.87,34.3175,23.648,17.84,-23.208,eccentric,6,3.0,38114.0,186648.0,85291.0,194858.0,88836.0
2026-04-14 18:08:35.440564,768240,1609507609029195,5208999060,0.15616,-0.763232,-0.593408,-3.50875,-72.52875,33.74875,23.648,17.84,-23.208,eccentric,6,3.0,38114.0,186648.0,85291.0,194858.0,88836.0
2026-04-14 18:08:35.442620,768241,1609507609043736,5209014074,0.052704,-0.732,-0.921344,3.4475,-70.5775,33.8625,24.136002,17.960001,-22.064001,eccentric,6,3.0,38114.0,186648.0,85291.0,194858.0,88836.0
2026-04-14 18:08:35.445571,768242,1609507609052714,5209022768,0.052704,-0.732,-0.921344,10.87625,-69.0725,31.68375,24.136002,17.960001,-22.064001,eccentric,6,3.0,38114.0,186648.0,85291.0,194858.0,88836.0
2026-04-14 18:08:35.448069,768243,1609507609061732,5209031470,0.042944,-0.706624,-0.909632,14.20125,-68.215004,32.6025,25.168001,17.544,-22.776001,eccentric,6,3.0,38114.0,186648.0,85291.0,194858.0,88836.0
2026-04-14 18:08:35.450565,768244,1609507609076417,5209046431,0.13664,-0.835456,-0.90768,13.3525,-67.36625,36.1725,25.416,17.608002,-21.416,eccentric,6,3.0,38114.0,186648.0,85291.0,194858.0,88836.0
2026-04-14 18:08:35.452958,768245,1609507609085395,5209055160,0.13664,-0.835456,-0.90768,5.1275,-69.60625,38.29875,25.416,17.608002,-21.416,eccentric,6,3.0,38114.0,186648.0,85291.0,194858.0,88836.0
2026-04-14 18:08:35.489317,768256,1609507609099939,5209070225,0.150304,-0.802272,-0.833504,1.995,-66.885,39.0075,26.144001,16.824001,-20.824001,eccentric,6,3.0,36371.0,184746.0,81930.0,193160.0,84858.0
2026-04-14 18:08:35.491463,768257,1609507609108957,5209078978,0.150304,-0.802272,-0.833504,1.00625,-62.7725,34.43125,26.144001,16.824001,-20.824001,eccentric,6,3.0,36371.0,184746.0,81930.0,193160.0,84858.0
2026-04-14 18:08:35.494013,768258,1609507609117930,5209087766,0.109312,-0.798368,-0.851072,0.77875,-59.99,31.92,25.336,17.232,-18.968,eccentric,6,3.0,36371.0,184746.0,81930.0,193160.0,84858.0
2026-04-14 18:08:35.499316,768259,1609507609132477,5209102723,0.109312,-0.798368,-0.851072,5.60875,-56.4025,30.94,25.336,17.232,-18.968,eccentric,6,3.0,36371.0,184746.0,81930.0,193160.0,84858.0
2026-04-14 18:08:35.512685,768260,1609507609141395,5209111410,0.037088,-0.730048,-0.880352,8.6275,-56.245,29.39125,26.416,16.6,-19.080002,eccentric,6,3.0,36371.0,184746.0,81930.0,193160.0,84858.0
2026-04-14 18:08:35.518996,768261,1609507609155905,5209124303,0.0488,-0.880352,-0.882304,0.5425,-55.55375,28.56875,27.36,16.152,-18.288,eccentric,6,3.0,36371.0,184746.0,81930.0,193160.0,84858.0
2026-04-14 18:08:35.530231,768262,1609507609165171,5209135071,0.0488,-0.880352,-0.882304,-9.66,-53.20875,28.525,27.36,16.152,-18.288,eccentric,6,3.0,36371.0,184746.0,81930.0,193160.0,84858.0
2026-04-14 18:08:35.547112,768263,1609507609179695,5209149956,0.062464,-0.85888,-0.929152,-10.57,-49.1575,29.6975,26.664001,16.136002,-18.176,eccentric,6,3.0,36371.0,184746.0,81930.0,193160.0,84858.0
2026-04-14 18:08:35.555063,768264,1609507609188793,5209158666,0.062464,-0.85888,-0.929152,-5.08375,-45.1675,26.55625,26.664001,16.136002,-18.176,eccentric,6,3.0,36371.0,184746.0,81930.0,193160.0,84858.0
2026-04-14 18:08:35.562716,768265,1609507609197719,5209167419,-0.005856,-0.80032,-0.8296,-2.07375,-37.835,23.4325,27.424002,15.576001,-18.744001,eccentric,6,3.0,36371.0,184746.0,81930.0,193160.0,84858.0
2026-04-14 18:08:35.590311,768276,1609507609212373,5209180765,-0.005856,-0.80032,-0.8296,-3.31625,-32.90875,21.48125,27.424002,15.576001,-18.744001,eccentric,6,3.0,35707.0,183129.0,80574.0,191911.0,83084.0
2026-04-14 18:08:35.592769,768277,1609507609221683,5209191588,-0.085888,-0.786656,-0.935008,-2.7825,-31.0625,20.04625,27.480001,15.816001,-17.592001,eccentric,6,3.0,35707.0,183129.0,80574.0,191911.0,83084.0
2026-04-14 18:08:35.604010,768278,1609507609236229,5209206590,-0.037088,-0.8784,-0.8784,-8.47,-27.991251,18.47125,27.688002,15.6,-16.992,eccentric,6,3.0,35707.0,183129.0,80574.0,191911.0,83084.0
2026-04-14 18:08:35.610145,768279,1609507609245171,5209215336,-0.037088,-0.8784,-0.8784,-11.8475,-22.960001,15.30375,27.688002,15.6,-16.992,eccentric,6,3.0,35707.0,183129.0,80574.0,191911.0,83084.0
2026-04-14 18:08:35.621510,768280,1609507609254189,5209224013,-0.037088,-0.8784,-0.681248,-9.66875,-16.8875,12.81875,27.688002,15.6,-16.992,eccentric,6,3.0,35707.0,183129.0,80574.0,191911.0,83084.0
2026-04-14 18:08:35.636491,768281,1609507609268758,5209239024,-0.044896,-0.788608,-0.681248,-4.165,-8.89875,10.01,27.992,15.448001,-17.488,eccentric,6,3.0,35707.0,183129.0,80574.0,191911.0,83084.0
2026-04-14 18:08:35.645852,768282,1609507609277701,5209247745,-0.013664,-0.825696,-0.782752,-1.04125,-2.51125,5.76625,27.864002,15.488001,-18.808,eccentric,6,3.0,35707.0,183129.0,80574.0,191911.0,83084.0
2026-04-14 18:08:35.658778,768283,1609507609292334,5209262638,-0.013664,-0.825696,-0.782752,-3.8325,0.665,2.2575,27.864002,15.488001,-18.808,eccentric,6,3.0,35707.0,183129.0,80574.0,191911.0,83084.0
2026-04-14 18:08:35.690259,768294,1609507609301332,5209271415,-0.101504,-0.817888,-0.854976,-5.0225,4.1125,0.30625,28.640001,15.384001,-18.504002,eccentric,6,3.0,35508.0,182058.0,80001.0,190489.0,82650.0
2026-04-14 18:08:35.692543,768295,1609507609310523,5209280184,-0.101504,-0.817888,-0.854976,-2.52875,8.295,-2.8175,28.640001,15.384001,-18.504002,eccentric,6,3.0,35508.0,182058.0,80001.0,190489.0,82650.0
2026-04-14 18:08:35.695034,768296,1609507609325068,5209295181,-0.10736,-0.804224,-0.833504,-1.95125,11.64625,-5.94125,27.712002,15.616001,-17.512001,eccentric,6,3.0,35508.0,182058.0,80001.0,190489.0,82650.0
2026-04-14 18:08:35.701445,768297,1609507609334033,5209303913,-0.10736,-0.804224,-0.833504,0.16625,16.2225,-8.1725,27.712002,15.616001,-17.512001,eccentric,6,3.0,35508.0,182058.0,80001.0,190489.0,82650.0
2026-04-14 18:08:35.714012,768298,1609507609348601,5209318948,-0.0976,-0.798368,-0.970144,3.40375,22.47875,-12.24125,27.192001,15.688001,-15.52,eccentric,6,3.0,35508.0,182058.0,80001.0,190489.0,82650.0
2026-04-14 18:08:35.728703,768299,1609507609357579,5209327657,-0.122976,-0.772992,-0.812032,3.6225,27.685,-16.415,27.744001,15.808001,-18.296001,eccentric,6,3.0,35508.0,182058.0,80001.0,190489.0,82650.0
2026-04-14 18:08:35.753954,768300,1609507609372088,5209340495,-0.122976,-0.772992,-0.812032,3.28125,30.1175,-18.68125,27.744001,15.808001,-18.296001,eccentric,6,3.0,35508.0,182058.0,80001.0,190489.0,82650.0
2026-04-14 18:08:35.776275,768301,1609507609381320,5209351244,-0.054656,-0.866688,-0.929152,0.72625,31.33375,-23.0825,26.6,16.04,-19.288,eccentric,6,3.0,35508.0,182058.0,80001.0,190489.0,82650.0
2026-04-14 18:08:35.779000,768302,1609507609390407,5209359953,-0.054656,-0.866688,-0.929152,-2.17,32.78625,-26.31125,26.6,16.04,-19.288,eccentric,6,3.0,35508.0,182058.0,80001.0,190489.0,82650.0
2026-04-14 18:08:35.806441,768313,1609507609405102,5209375441,0.02928,-0.821792,-0.778848,0.16625,36.855,-28.21875,26.984001,16.296001,-18.560001,eccentric,6,3.0,36064.0,180670.0,80668.0,188550.0,83719.0
2026-04-14 18:08:35.808970,768314,1609507609414111,5209384122,0.02928,-0.821792,-0.778848,2.05625,42.13125,-32.2,26.984001,16.296001,-18.560001,eccentric,6,3.0,36064.0,180670.0,80668.0,188550.0,83719.0
2026-04-14 18:08:35.811298,768315,1609507609428675,5209399053,0.03904,-0.817888,-0.919392,3.57875,47.7575,-35.105,26.28,16.952002,-19.144001,eccentric,6,3.0,36064.0,180670.0,80668.0,188550.0,83719.0
2026-04-14 18:08:35.813988,768316,1609507609437675,5209407883,0.001952,-0.75152,-0.763232,4.3225,51.9575,-37.52,25.624,17.144001,-20.488,eccentric,6,3.0,36064.0,180670.0,80668.0,188550.0,83719.0
2026-04-14 18:08:35.816439,768317,1609507609446748,5209416607,0.001952,-0.75152,-0.763232,1.82875,53.89125,-40.04875,25.624,17.144001,-20.488,eccentric,6,3.0,36064.0,180670.0,80668.0,188550.0,83719.0
2026-04-14 18:08:35.828774,768318,1609507609461291,5209431533,0.0976,-0.860832,-0.895968,-1.72375,55.545002,-42.18375,24.184002,17.856,-18.792002,eccentric,6,3.0,36064.0,180670.0,80668.0,188550.0,83719.0
2026-04-14 18:08:35.838036,768319,1609507609470252,5209440254,0.0976,-0.860832,-0.895968,-4.20875,57.05,-45.57,24.184002,17.856,-18.792002,eccentric,6,3.0,36064.0,180670.0,80668.0,188550.0,83719.0
2026-04-14 18:08:35.848829,768320,1609507609484748,5209453105,0.074176,-0.827648,-1.016992,-3.64,58.87,-46.66375,24.296001,17.384,-21.256,eccentric,6,3.0,36064.0,180670.0,80668.0,188550.0,83719.0
2026-04-14 18:08:35.859972,768321,1609507609493941,5209463952,0.074176,-0.827648,-1.016992,-1.98625,61.7225,-48.055,24.296001,17.384,-21.256,eccentric,6,3.0,36064.0,180670.0,80668.0,188550.0,83719.0
2026-04-14 18:08:35.891588,768332,1609507609502862,5209472670,0.142496,-0.782752,-0.948672,-2.38875,63.9975,-49.49,25.192001,17.976002,-21.784,eccentric,6,3.0,37055.0,179123.0,82215.0,186640.0,85732.0
2026-04-14 18:08:35.893766,768333,1609507609517930,5209487652,0.220576,-0.75152,-0.675392,-4.8475,66.45625,-50.28625,23.328001,18.456001,-22.832,eccentric,6,3.0,37055.0,179123.0,82215.0,186640.0,85732.0
2026-04-14 18:08:35.896533,768334,1609507609526893,5209496374,0.220576,-0.75152,-0.675392,-10.955,67.375,-53.445,23.328001,18.456001,-22.832,eccentric,6,3.0,37055.0,179123.0,82215.0,186640.0,85732.0
2026-04-14 18:08:35.906538,768335,1609507609541430,5209511329,0.16592,-0.817888,-0.954528,-18.62,69.08125,-56.1575,22.712002,18.904001,-22.032001,eccentric,6,3.0,37055.0,179123.0,82215.0,186640.0,85732.0
2026-04-14 18:08:35.918470,768336,1609507609550441,5209520050,0.16592,-0.817888,-0.954528,-22.18125,71.82875,-56.9275,22.712002,18.904001,-22.032001,eccentric,6,3.0,37055.0,179123.0,82215.0,186640.0,85732.0
2026-04-14 18:08:35.946465,768337,1609507609559374,5209528778,0.13664,-0.76128,-0.876448,-19.48625,73.91125,-56.90125,21.904001,19.096,-22.376001,eccentric,6,3.0,37055.0,179123.0,82215.0,186640.0,85732.0
2026-04-14 18:08:35.958785,768338,1609507609573890,5209543651,0.13664,-0.76128,-0.876448,-16.07375,76.08125,-57.33875,21.904001,19.096,-22.376001,eccentric,6,3.0,37055.0,179123.0,82215.0,186640.0,85732.0
2026-04-14 18:08:35.961462,768339,1609507609582796,5209552346,0.238144,-0.743712,-0.767136,-13.86,77.74375,-57.015,20.936,19.128,-23.696001,eccentric,6,3.0,37055.0,179123.0,82215.0,186640.0,85732.0
2026-04-14 18:08:35.964122,768340,1609507609597254,5209567242,0.167872,-0.628544,-0.753472,-12.495,79.38,-55.3525,20.84,19.248001,-23.560001,eccentric,6,3.0,37055.0,179123.0,82215.0,186640.0,85732.0
