pc_time,serial_num,sensor_ts,host_ts,ax,ay,az,gx,gy,gz,mx,my,mz,phase,rpe,weight_kg,ppg_a,ppg_b,ppg_c,ppg_d,ppg_e
2026-04-14 18:08:40.275504,769152,1609507613910388,5213879215,0.696864,-0.2928,-0.271328,9.91375,-34.90375,45.52625,-5.944,24.76,-28.392002,eccentric,6,3.0,138382.0,348733.0,230734.0,334074.0,236464.0
2026-04-14 18:08:40.285153,769153,1609507613919831,5213889988,0.696864,-0.2928,-0.271328,10.6575,-37.826252,45.82375,-5.944,24.76,-28.392002,eccentric,6,3.0,138382.0,348733.0,230734.0,334074.0,236464.0
2026-04-14 18:08:40.320571,769164,1609507613934429,5213903229,0.65392,-0.333792,-0.296704,12.20625,-40.22375,48.50125,-5.448,24.416,-27.960001,eccentric,6,3.0,116471.0,337610.0,204424.0,324144.0,211263.0
2026-04-14 18:08:40.333050,769165,1609507613943879,5213914098,0.65392,-0.333792,-0.296704,11.61125,-42.81375,52.28125,-5.448,24.416,-27.960001,eccentric,6,3.0,116471.0,337610.0,204424.0,324144.0,211263.0
2026-04-14 18:08:40.336605,769166,1609507613952842,5213922820,0.714432,-0.35136,-0.06832,11.48875,-45.63125,56.23625,-5.28,25.272001,-27.536001,eccentric,6,3.0,116471.0,337610.0,204424.0,324144.0,211263.0
2026-04-14 18:08:40.336820,769167,1609507613967398,5213935775,0.642208,-0.353312,-0.318176,10.4475,-49.07875,58.0125,-3.728,25.016,-28.160002,eccentric,6,3.0,116471.0,337610.0,204424.0,324144.0,211263.0
2026-04-14 18:08:40.343916,769168,1609507613976654,5213946528,0.642208,-0.353312,-0.318176,9.8875,-52.52625,59.447502,-3.728,25.016,-28.160002,eccentric,6,3.0,116471.0,337610.0,204424.0,324144.0,211263.0
2026-04-14 18:08:40.350161,769169,1609507613985646,5213955248,0.66368,-0.316224,-0.160064,10.535,-55.85125,60.59375,-3.728,24.960001,-25.160002,eccentric,6,3.0,116471.0,337610.0,204424.0,324144.0,211263.0
2026-04-14 18:08:40.366415,769170,1609507614000173,5213970214,0.66368,-0.316224,-0.160064,11.38375,-58.975,64.0325,-2.568,24.960001,-25.160002,eccentric,6,3.0,116471.0,337610.0,204424.0,324144.0,211263.0
2026-04-14 18:08:40.374911,769171,1609507614009131,5213978922,0.573888,-0.38064,-0.325984,9.21375,-63.5425,67.36625,-1.152,24.904001,-27.648,eccentric,6,3.0,116471.0,337610.0,204424.0,324144.0,211263.0
2026-04-14 18:08:40.390230,769172,1609507614023646,5213993861,0.573888,-0.38064,-0.325984,-1.02375,-70.13125,68.29375,-1.152,24.904001,-27.648,eccentric,6,3.0,116471.0,337610.0,204424.0,324144.0,211263.0
2026-04-14 18:08:40.442481,769183,1609507614032719,5214002652,0.587552,-0.499712,-0.316224,-11.97,-75.1975,73.535,0.136,24.920002,-28.424002,eccentric,6,3.0,84141.0,309006.0,163282.0,296160.0,170857.0
2026-04-14 18:08:40.445229,769184,1609507614047302,5214017612,0.609024,-0.394304,-0.236192,-16.765,-79.9575,79.05625,1.264,24.68,-28.568,eccentric,6,3.0,84141.0,309006.0,163282.0,296160.0,170857.0
2026-04-14 18:08:40.447641,769185,1609507614056231,5214026296,0.609024,-0.394304,-0.236192,-6.51,-81.69875,77.48125,1.264,24.68,-28.568,eccentric,6,3.0,84141.0,309006.0,163282.0,296160.0,170857.0
2026-04-14 18:08:40.450236,769186,1609507614065177,5214034973,0.609024,-0.394304,-0.236192,11.45375,-80.36,71.42625,1.264,24.68,-28.568,eccentric,6,3.0,84141.0,309006.0,163282.0,296160.0,170857.0
2026-04-14 18:08:40.455254,769187,1609507614079747,5214049934,0.579744,-0.314272,-0.425536,20.88625,-78.8725,67.0425,2.6,25.000002,-28.488,eccentric,6,3.0,84141.0,309006.0,163282.0,296160.0,170857.0
2026-04-14 18:08:40.457927,769188,1609507614088679,5214058704,0.525088,-0.460672,-0.431392,4.71625,-81.01625,67.996254,4.104,24.448002,-28.12,eccentric,6,3.0,84141.0,309006.0,163282.0,296160.0,170857.0
2026-04-14 18:08:40.469091,769189,1609507614103173,5214071548,0.525088,-0.460672,-0.431392,-23.3625,-85.5575,71.715004,4.104,24.448002,-28.12,eccentric,6,3.0,84141.0,309006.0,163282.0,296160.0,170857.0
2026-04-14 18:08:40.477881,769190,1609507614112373,5214082370,0.511424,-0.581696,-0.501664,-36.4,-86.28375,76.72875,5.32,24.104002,-27.808,eccentric,6,3.0,84141.0,309006.0,163282.0,296160.0,170857.0
2026-04-14 18:08:40.490356,769191,1609507614126925,5214095289,0.694912,-0.562176,-0.433344,-29.3125,-86.3975,78.505,6.000001,24.104002,-31.480001,eccentric,6,3.0,84141.0,309006.0,163282.0,296160.0,170857.0
2026-04-14 18:08:40.564355,769202,1609507614136326,5214106359,0.694912,-0.562176,-0.433344,-15.4875,-84.02625,75.18,6.000001,24.104002,-31.480001,eccentric,6,3.0,70579.0,282543.0,144205.0,271479.0,152527.0
2026-04-14 18:08:40.566831,769203,1609507614145504,5214115146,0.694912,-0.562176,-0.433344,-1.46125,-81.31375,72.05625,6.000001,24.104002,-31.480001,eccentric,6,3.0,70579.0,282543.0,144205.0,271479.0,152527.0
2026-04-14 18:08:40.568914,769204,1609507614159994,5214130099,0.636352,-0.57584,-0.571936,-2.9925,-80.77125,67.92625,6.72,23.968,-28.344002,eccentric,6,3.0,70579.0,282543.0,144205.0,271479.0,152527.0
2026-04-14 18:08:40.571807,769205,1609507614168992,5214138801,1.856352,-1.358592,-0.753472,-14.83125,-78.3125,64.7675,8.056001,22.992,-28.680002,eccentric,6,3.0,70579.0,282543.0,144205.0,271479.0,152527.0
2026-04-14 18:08:40.574347,769206,1609507614183486,5214153756,1.856352,-1.358592,-0.753472,-48.30875,-72.38875,46.83875,8.056001,22.992,-28.680002,eccentric,6,3.0,70579.0,282543.0,144205.0,271479.0,152527.0
2026-04-14 18:08:40.576855,769207,1609507614192433,5214162453,0.689056,-0.406016,-0.691008,-105.6475,-76.4225,25.725,9.96,22.928001,-28.272001,eccentric,6,3.0,70579.0,282543.0,144205.0,271479.0,152527.0
2026-04-14 18:08:40.579355,769208,1609507614201359,5214171143,0.689056,-0.406016,-0.691008,8.65375,-66.885,55.20375,9.96,22.928001,-28.272001,eccentric,6,3.0,70579.0,282543.0,144205.0,271479.0,152527.0
2026-04-14 18:08:40.581792,769209,1609507614215921,5214186041,0.222528,-0.460672,-0.261568,90.055,-79.16125,30.73875,10.048,23.448002,-28.240002,eccentric,6,3.0,70579.0,282543.0,144205.0,271479.0,152527.0
2026-04-14 18:08:40.593184,769210,1609507614224949,5214194732,0.222528,-0.460672,-0.261568,2.3625,-76.29125,-21.72625,10.048,23.448002,-28.240002,eccentric,6,3.0,70579.0,282543.0,144205.0,271479.0,152527.0
2026-04-14 18:08:40.619857,769221,1609507614239797,5214209713,0.964288,-0.792512,-0.710528,-68.59125,-66.683754,28.37625,11.216001,22.608002,-28.720001,eccentric,6,3.0,63288.0,267133.0,131910.0,259604.0,140027.0
2026-04-14 18:08:40.622432,769222,1609507614248759,5214218447,0.480192,-1.013088,-0.548512,-72.6775,-72.65125,62.2825,10.040001,22.696001,-26.168001,eccentric,6,3.0,63288.0,267133.0,131910.0,259604.0,140027.0
2026-04-14 18:08:40.624967,769223,1609507614257761,5214227144,0.480192,-1.013088,-0.548512,-43.28625,-67.375,25.515,10.040001,22.696001,-26.168001,eccentric,6,3.0,63288.0,267133.0,131910.0,259604.0,140027.0
2026-04-14 18:08:40.638179,769224,1609507614272263,5214242034,0.677344,-0.636352,-0.521184,-0.07875,-65.1875,13.06375,11.384001,22.720001,-26.928001,eccentric,6,3.0,63288.0,267133.0,131910.0,259604.0,140027.0
2026-04-14 18:08:40.646813,769225,1609507614281183,5214250758,0.677344,-0.636352,-0.521184,19.285,-58.14375,27.755001,11.384001,22.720001,-26.928001,eccentric,6,3.0,63288.0,267133.0,131910.0,259604.0,140027.0
2026-04-14 18:08:40.663024,769226,1609507614295707,5214265669,0.441152,-0.626592,-0.685152,15.68,-48.763752,27.16875,12.8,21.976002,-27.480001,eccentric,6,3.0,63288.0,267133.0,131910.0,259604.0,140027.0
2026-04-14 18:08:40.673087,769227,1609507614304671,5214274361,0.441152,-0.626592,-0.685152,9.292501,-43.40875,23.63375,12.8,21.976002,-27.480001,eccentric,6,3.0,63288.0,267133.0,131910.0,259604.0,140027.0
2026-04-14 18:08:40.688086,769228,1609507614319263,5214289226,0.464576,-0.583648,-0.679296,8.5925,-39.61125,27.72,13.704,22.424002,-26.416,eccentric,6,3.0,63288.0,267133.0,131910.0,259604.0,140027.0
2026-04-14 18:08:40.697860,769229,1609507614328200,5214297955,0.421632,-0.802272,-0.757376,8.79375,-36.9425,28.97125,13.752001,22.320002,-27.184002,eccentric,6,3.0,63288.0,267133.0,131910.0,259604.0,140027.0
2026-04-14 18:08:40.721172,769240,1609507614337173,5214306754,0.421632,-0.802272,-0.757376,7.9625,-31.01,29.96875,13.752001,22.320002,-27.184002,eccentric,6,3.0,52148.0,238216.0,112878.0,235918.0,119575.0
2026-04-14 18:08:40.723598,769241,1609507614351822,5214321709,0.626592,-0.85888,-0.511424,8.05,-29.26875,32.19125,13.864,22.2,-25.976002,eccentric,6,3.0,52148.0,238216.0,112878.0,235918.0,119575.0
2026-04-14 18:08:40.726210,769242,1609507614360746,5214330422,0.626592,-0.85888,-0.511424,8.68,-31.36875,29.67125,13.864,22.2,-25.976002,eccentric,6,3.0,52148.0,238216.0,112878.0,235918.0,119575.0
2026-04-14 18:08:40.741141,769243,1609507614375383,5214345350,0.66368,-0.560224,-0.75152,9.45,-32.41875,27.85125,13.952001,22.232,-26.128002,eccentric,6,3.0,52148.0,238216.0,112878.0,235918.0,119575.0
2026-04-14 18:08:40.750174,769244,1609507614384365,5214354076,0.66368,-0.560224,-0.75152,6.8425,-33.6,21.5075,13.952001,22.232,-26.128002,eccentric,6,3.0,52148.0,238216.0,112878.0,235918.0,119575.0
2026-04-14 18:08:40.757791,769245,1609507614393309,5214362792,0.532896,-0.626592,-0.704672,-5.215,-31.928751,10.85,15.016001,21.976002,-26.992,eccentric,6,3.0,52148.0,238216.0,112878.0,235918.0,119575.0
2026-04-14 18:08:40.773955,769246,1609507614407913,5214377692,0.532896,-0.720288,-0.6344,-16.1525,-31.115,6.0725,15.016001,21.976002,-26.992,eccentric,6,3.0,52148.0,238216.0,112878.0,235918.0,119575.0
2026-04-14 18:08:40.782792,769247,1609507614417020,5214386385,0.279136,-0.732,-0.6344,-15.93375,-32.3925,6.755,15.080001,22.272001,-26.712002,eccentric,6,3.0,52148.0,238216.0,112878.0,235918.0,119575.0
2026-04-14 18:08:40.821289,769258,1609507614431531,5214401797,0.324032,-0.593408,-0.704672,-6.6325,-35.34125,12.11,15.792001,21.512001,-26.504002,eccentric,6,3.0,48302.0,223499.0,105256.0,223914.0,111294.0
2026-04-14 18:08:40.823717,769259,1609507614440617,5214410599,0.324032,-0.593408,-0.704672,3.395,-39.7075,15.61875,15.792001,21.512001,-26.504002,eccentric,6,3.0,48302.0,223499.0,105256.0,223914.0,111294.0
2026-04-14 18:08:40.826191,769260,1609507614455287,5214425533,0.353312,-0.462624,-0.45872,9.09125,-44.63375,15.295,14.552001,22.560001,-25.472002,eccentric,6,3.0,48302.0,223499.0,105256.0,223914.0,111294.0
2026-04-14 18:08:40.830118,769261,1609507614464298,5214434274,0.353312,-0.462624,-0.45872,11.042501,-49.49,12.355001,14.552001,22.560001,-25.472002,eccentric,6,3.0,48302.0,223499.0,105256.0,223914.0,111294.0
2026-04-14 18:08:40.837689,769262,1609507614473252,5214443015,0.308416,-0.558272,-0.562176,6.79,-53.55875,10.50875,16.064001,21.776001,-25.008001,eccentric,6,3.0,48302.0,223499.0,105256.0,223914.0,111294.0
2026-04-14 18:08:40.853967,769263,1609507614487764,5214457911,0.308416,-0.558272,-0.562176,6.58,-56.665,11.24375,16.064001,21.776001,-25.008001,eccentric,6,3.0,48302.0,223499.0,105256.0,223914.0,111294.0
2026-04-14 18:08:40.864082,769264,1609507614496723,5214466629,0.173728,-0.5368,-0.732,13.81625,-60.865,12.59125,17.768002,21.816002,-24.408,eccentric,6,3.0,48302.0,223499.0,105256.0,223914.0,111294.0
2026-04-14 18:08:40.897828,769265,1609507614511227,5214481505,0.220576,-0.443104,-0.443104,21.56875,-66.395,16.72125,18.408,21.880001,-23.944,eccentric,6,3.0,48302.0,223499.0,105256.0,223914.0,111294.0
2026-04-14 18:08:40.922809,769266,1609507614520137,5214490225,0.220576,-0.443104,-0.443104,20.3175,-71.05,22.5925,18.408,21.880001,-23.944,eccentric,6,3.0,48302.0,223499.0,105256.0,223914.0,111294.0
2026-04-14 18:08:40.930251,769267,1609507614529076,5214498908,0.25376,-0.708576,-0.694912,2.79125,-74.6375,26.71375,18.408,21.920002,-23.144001,eccentric,6,3.0,48302.0,223499.0,105256.0,223914.0,111294.0
2026-04-14 18:08:40.960146,769278,1609507614543600,5214513863,0.25376,-0.708576,-0.694912,-9.292501,-75.8975,30.21375,18.168001,21.920002,-23.144001,eccentric,6,3.0,40981.0,189655.0,91005.0,195720.0,95263.0
2026-04-14 18:08:40.962797,769279,1609507614552528,5214522542,0.31232,-0.77104,-0.804224,1.225,-74.75125,32.45375,19.016,21.352001,-22.776001,eccentric,6,3.0,40981.0,189655.0,91005.0,195720.0,95263.0
2026-04-14 18:08:40.965294,769280,1609507614567094,5214535552,0.31232,-0.77104,-0.804224,21.88375,-72.808754,35.06125,19.016,21.352001,-22.776001,eccentric,6,3.0,40981.0,189655.0,91005.0,195720.0,95263.0
2026-04-14 18:08:40.968097,769281,1609507614576489,5214546353,0.230336,-0.558272,-0.5856,38.82375,-70.72625,38.2725,19.44,21.720001,-22.000002,eccentric,6,3.0,40981.0,189655.0,91005.0,195720.0,95263.0
2026-04-14 18:08:40.970614,769282,1609507614585739,5214555229,0.230336,-0.558272,-0.5856,35.5425,-72.24,39.1825,19.44,21.720001,-22.000002,eccentric,6,3.0,40981.0,189655.0,91005.0,195720.0,95263.0
2026-04-14 18:08:40.973176,769283,1609507614600261,5214570208,0.259616,-0.659776,-0.628544,19.27625,-74.48875,41.23,20.616001,21.064001,-21.216002,eccentric,6,3.0,40981.0,189655.0,91005.0,195720.0,95263.0
2026-04-14 18:08:40.987911,769284,1609507614609238,5214578920,0.259616,-0.83936,-0.568032,1.79375,-77.6125,42.84875,20.616001,21.064001,-21.216002,eccentric,6,3.0,40981.0,189655.0,91005.0,195720.0,95263.0
2026-04-14 18:08:40.988830,769285,1609507614623780,5214593849,0.425536,-0.83936,-0.568032,-14.0875,-82.652504,45.263752,20.416,21.296001,-19.208,eccentric,6,3.0,40981.0,189655.0,91005.0,195720.0,95263.0
2026-04-14 18:08:41.021536,769296,1609507614633245,5214602895,0.300608,-0.882304,-0.90768,-15.14625,-81.13,47.03125,22.12,20.856,-22.176,eccentric,6,3.0,37270.0,187853.0,83476.0,194590.0,86763.0
2026-04-14 18:08:41.023989,769297,1609507614642341,5214611762,0.300608,-0.882304,-0.90768,-4.62875,-78.11125,45.33375,22.12,20.856,-22.176,eccentric,6,3.0,37270.0,187853.0,83476.0,194590.0,86763.0
2026-04-14 18:08:41.026282,769298,1609507614656866,5214626704,0.222528,-0.65392,-0.700768,9.8175,-77.5425,48.2475,23.696001,19.816002,-21.456001,eccentric,6,3.0,37270.0,187853.0,83476.0,194590.0,86763.0
2026-04-14 18:08:41.031546,769299,1609507614665891,5214635471,0.222528,-0.65392,-0.700768,13.02875,-77.8925,50.7675,23.696001,19.816002,-21.456001,eccentric,6,3.0,37270.0,187853.0,83476.0,194590.0,86763.0
2026-04-14 18:08:41.068895,769300,1609507614680540,5214650388,0.0976,-0.763232,-0.81984,-1.5575,-78.5575,47.24125,24.416,19.232,-21.232,eccentric,6,3.0,37270.0,187853.0,83476.0,194590.0,86763.0
2026-04-14 18:08:41.071327,769301,1609507614689487,5214659113,0.0976,-0.763232,-0.854976,-16.1,-74.777504,46.305,24.416,19.232,-21.232,eccentric,6,3.0,37270.0,187853.0,83476.0,194590.0,86763.0
2026-04-14 18:08:41.073710,769302,1609507614703984,5214673997,0.01952,-0.843264,-0.854976,-19.88875,-72.59875,42.8925,24.824001,18.880001,-19.008001,eccentric,6,3.0,37270.0,187853.0,83476.0,194590.0,86763.0
2026-04-14 18:08:41.081667,769303,1609507614712944,5214682683,0.140544,-0.749568,-0.685152,-18.34,-73.12375,42.35875,25.136002,18.76,-19.392,eccentric,6,3.0,37270.0,187853.0,83476.0,194590.0,86763.0
2026-04-14 18:08:41.086428,769304,1609507614721876,5214691331,0.140544,-0.749568,-0.685152,-17.8675,-72.7825,44.8875,25.136002,18.76,-19.392,eccentric,6,3.0,37270.0,187853.0,83476.0,194590.0,86763.0
2026-04-14 18:08:41.123932,769315,1609507614736619,5214706251,0.03904,-0.81008,-0.882304,-20.895,-70.76125,41.23,25.512001,18.664001,-19.872002,eccentric,6,3.0,36281.0,185773.0,81469.0,193247.0,84189.0
2026-04-14 18:08:41.126256,769316,1609507614745634,5214715064,0.03904,-0.81008,-0.882304,-21.74375,-67.50625,38.28125,25.512001,18.664001,-19.872002,eccentric,6,3.0,36281.0,185773.0,81469.0,193247.0,84189.0
2026-04-14 18:08:41.128906,769317,1609507614760336,5214729978,-0.013664,-0.81984,-0.689056,-19.215,-63.735,38.5875,25.912,17.896,-18.328001,eccentric,6,3.0,36281.0,185773.0,81469.0,193247.0,84189.0
2026-04-14 18:08:41.135208,769318,1609507614769465,5214738751,-0.013664,-0.81984,-0.689056,-16.2225,-57.715,36.70625,25.912,17.896,-18.328001,eccentric,6,3.0,36281.0,185773.0,81469.0,193247.0,84189.0
2026-04-14 18:08:41.144031,769319,1609507614778533,5214747512,-0.062464,-0.81008,-0.872544,-9.7825,-51.42375,34.1775,26.496002,17.720001,-17.848001,eccentric,6,3.0,36281.0,185773.0,81469.0,193247.0,84189.0
2026-04-14 18:08:41.157922,769320,1609507614793049,5214762506,-0.021472,-0.81008,-0.6832,-5.5825,-46.36625,32.6375,27.640001,17.344002,-18.032001,eccentric,6,3.0,36281.0,185773.0,81469.0,193247.0,84189.0
2026-04-14 18:08:41.170472,769321,1609507614802011,5214771213,-0.021472,-0.81008,-0.6832,-10.31625,-43.015,30.66,27.640001,17.344002,-18.032001,eccentric,6,3.0,36281.0,185773.0,81469.0,193247.0,84189.0
2026-04-14 18:08:41.183935,769322,1609507614816600,5214786110,0.001952,-0.890112,-0.847168,-15.79375,-37.826252,27.09,27.592001,16.536001,-18.336,eccentric,6,3.0,36281.0,185773.0,81469.0,193247.0,84189.0
2026-04-14 18:08:41.190164,769323,1609507614825535,5214794828,0.001952,-0.890112,-0.847168,-14.7175,-32.62875,22.14625,27.592001,16.536001,-18.336,eccentric,6,3.0,36281.0,185773.0,81469.0,193247.0,84189.0
2026-04-14 18:08:41.227806,769334,1609507614840114,5214810463,0.017568,-0.89792,-0.954528,-12.04875,-26.635,18.47125,27.728,16.720001,-18.640001,eccentric,6,3.0,35781.0,183326.0,80487.0,191172.0,82900.0
2026-04-14 18:08:41.230583,769335,1609507614849086,5214819159,0.017568,-0.89792,-0.954528,-9.61625,-19.29375,15.12,27.728,16.720001,-18.640001,eccentric,6,3.0,35781.0,183326.0,80487.0,191172.0,82900.0
2026-04-14 18:08:41.233119,769336,1609507614858148,5214827882,0.060512,-1.038464,-0.884256,-11.865,-13.7375,11.45375,28.128002,16.504002,-18.464,eccentric,6,3.0,35781.0,183326.0,80487.0,191172.0,82900.0
2026-04-14 18:08:41.239336,769337,1609507614872739,5214842818,0.072224,-0.944768,-1.036512,-11.725,-5.7575,9.65125,27.872002,16.480001,-19.44,eccentric,6,3.0,35781.0,183326.0,80487.0,191172.0,82900.0
2026-04-14 18:08:41.269493,769338,1609507614881697,5214851585,0.072224,-0.944768,-1.036512,-7.30625,3.99875,3.955,27.872002,16.480001,-19.44,eccentric,6,3.0,35781.0,183326.0,80487.0,191172.0,82900.0
2026-04-14 18:08:41.291444,769339,1609507614896191,5214864581,0.042944,-0.964288,-1.081408,-7.84875,13.3875,-5.0575,26.872002,16.640001,-17.968,eccentric,6,3.0,35781.0,183326.0,80487.0,191172.0,82900.0
2026-04-14 18:08:41.293822,769340,1609507614905488,5214875321,0.042944,-0.964288,-1.081408,-16.555,21.42,-13.055,26.872002,16.640001,-17.968,eccentric,6,3.0,35781.0,183326.0,80487.0,191172.0,82900.0
2026-04-14 18:08:41.296560,769341,1609507614914427,5214884027,0.0,-1.011136,-1.202432,-21.44625,27.64125,-19.1625,26.752,16.912,-18.568,eccentric,6,3.0,35781.0,183326.0,80487.0,191172.0,82900.0
2026-04-14 18:08:41.299352,769342,1609507614929034,5214898926,0.0,-1.011136,-1.202432,-18.585001,33.74,-23.415,26.752,16.912,-18.568,eccentric,6,3.0,35781.0,183326.0,80487.0,191172.0,82900.0
2026-04-14 18:08:41.328858,769353,1609507614938253,5214907731,0.042944,-0.958432,-1.204384,-15.09375,39.50625,-26.95,26.312002,16.696001,-19.528002,eccentric,6,3.0,36250.0,180986.0,80931.0,187811.0,83848.0
2026-04-14 18:08:41.331836,769354,1609507614952875,5214922728,0.066368,-0.901824,-1.026752,-13.86,46.41,-31.01,26.488,16.744001,-19.92,eccentric,6,3.0,36250.0,180986.0,80931.0,187811.0,83848.0
2026-04-14 18:08:41.334334,769355,1609507614961889,5214931484,0.066368,-0.901824,-1.026752,-13.97375,56.1925,-35.665,26.488,16.744001,-19.92,eccentric,6,3.0,36250.0,180986.0,80931.0,187811.0,83848.0
2026-04-14 18:08:41.336858,769356,1609507614970880,5214940216,0.066368,-0.901824,-1.026752,-15.21625,65.77375,-43.89875,26.488,16.744001,-19.92,eccentric,6,3.0,36250.0,180986.0,80931.0,187811.0,83848.0
2026-04-14 18:08:41.353203,769357,1609507614985370,5214955163,0.054656,-0.85888,-0.8784,-11.025,72.6425,-51.42375,25.784,17.608002,-19.92,eccentric,6,3.0,36250.0,180986.0,80931.0,187811.0,83848.0
2026-04-14 18:08:41.361722,769358,1609507614994292,5214963842,0.003904,-0.860832,-1.06384,-3.7625,79.14375,-58.59875,24.840002,18.456001,-20.048,eccentric,6,3.0,36250.0,180986.0,80931.0,187811.0,83848.0
2026-04-14 18:08:41.374981,769359,1609507615008834,5214978769,0.003904,-0.860832,-1.06384,5.5825,83.37875,-63.21,24.840002,18.456001,-20.048,eccentric,6,3.0,36250.0,180986.0,80931.0,187811.0,83848.0
2026-04-14 18:08:41.383044,769360,1609507615017793,5214987522,0.06832,-0.733952,-1.018944,12.7575,85.47875,-66.50875,23.256,19.152,-22.016,eccentric,6,3.0,36250.0,180986.0,80931.0,187811.0,83848.0
2026-04-14 18:08:41.425086,769371,1609507615032427,5215002874,0.13664,-0.76128,-1.016992,14.0,87.01,-69.04625,23.256,19.272001,-21.960001,eccentric,6,3.0,38632.0,177542.0,84875.0,183754.0,88658.0
2026-04-14 18:08:41.427778,769372,1609507615041582,5215011630,0.13664,-0.76128,-1.016992,7.86625,89.495,-72.59875,23.384,19.272001,-21.960001,eccentric,6,3.0,38632.0,177542.0,84875.0,183754.0,88658.0
2026-04-14 18:08:41.430190,769373,1609507615050594,5215020426,0.13664,-0.76128,-1.016992,-2.96625,91.56875,-74.935,23.384,19.272001,-21.960001,eccentric,6,3.0,38632.0,177542.0,84875.0,183754.0,88658.0
2026-04-14 18:08:41.433176,769374,1609507615065095,5215035419,0.122976,-0.755424,-0.847168,-9.28375,92.98625,-76.18625,21.472,20.184,-21.44,eccentric,6,3.0,38632.0,177542.0,84875.0,183754.0,88658.0
2026-04-14 18:08:41.440624,769375,1609507615074046,5215044155,0.296704,-0.817888,-0.841312,-14.315001,92.8375,-78.81125,20.216002,20.288,-22.656,eccentric,6,3.0,38632.0,177542.0,84875.0,183754.0,88658.0
2026-04-14 18:08:41.454911,769376,1609507615088637,5215057061,0.296704,-0.817888,-0.841312,-16.66,91.98875,-80.36,20.216002,20.288,-22.656,eccentric,6,3.0,38632.0,177542.0,84875.0,183754.0,88658.0
2026-04-14 18:08:41.462870,769377,1609507615097919,5215067838,0.406016,-0.767136,-0.704672,-15.54875,90.65,-80.683754,19.744001,20.912,-23.328001,eccentric,6,3.0,38632.0,177542.0,84875.0,183754.0,88658.0
2026-04-14 18:08:41.472828,769378,1609507615106897,5215076543,0.406016,-0.767136,-0.704672,-17.07125,91.7525,-79.05625,19.744001,20.912,-23.328001,eccentric,6,3.0,38632.0,177542.0,84875.0,183754.0,88658.0
2026-04-14 18:08:41.489021,769379,1609507615121420,5215091458,0.363072,-0.71248,-0.696864,-20.335001,94.14125,-79.5375,18.768002,20.992,-24.712002,eccentric,6,3.0,38632.0,177542.0,84875.0,183754.0,88658.0
2026-04-14 18:08:41.495292,769380,1609507615130494,5215100222,0.363072,-0.71248,-0.696864,-20.86,96.04,-80.885,18.768002,20.992,-24.712002,eccentric,6,3.0,38632.0,177542.0,84875.0,183754.0,88658.0
2026-04-14 18:08:41.525032,769391,1609507615145112,5215115224,0.37088,-0.650016,-0.706624,-19.04875,96.50375,-80.99,17.816,21.400002,-25.624,eccentric,6,3.0,41804.0,175219.0,90511.0,181347.0,94967.0
2026-04-14 18:08:41.527679,769392,1609507615154064,5215123962,0.423584,-0.612928,-0.665632,-16.80875,95.73375,-80.61375,16.2,21.672,-27.128002,eccentric,6,3.0,41804.0,175219.0,90511.0,181347.0,94967.0
2026-04-14 18:08:41.530179,769393,1609507615163096,5215132711,0.423584,-0.612928,-0.665632,-20.1075,94.4825,-82.5125,16.2,21.672,-27.128002,eccentric,6,3.0,41804.0,175219.0,90511.0,181347.0,94967.0
2026-04-14 18:08:41.542540,769394,1609507615177693,5215147644,0.40016,-0.610976,-0.804224,-24.01,93.17875,-84.30625,15.016001,21.536001,-26.344002,concentric,6,3.0,41804.0,175219.0,90511.0,181347.0,94967.0
2026-04-14 18:08:41.552606,769395,1609507615186640,5215156335,0.40016,-0.610976,-0.804224,-33.6875,89.8625,-86.835,15.016001,21.536001,-26.344002,concentric,6,3.0,41804.0,175219.0,90511.0,181347.0,94967.0
2026-04-14 18:08:41.569949,769396,1609507615201178,5215171224,0.50752,-0.626592,-0.687104,-35.7175,90.4575,-83.20375,13.656001,22.184002,-26.968,concentric,6,3.0,41804.0,175219.0,90511.0,181347.0,94967.0
2026-04-14 18:08:41.575078,769397,1609507615210113,5215179942,0.50752,-0.626592,-0.687104,-33.88,93.31875,-77.42875,13.656001,22.184002,-26.968,concentric,6,3.0,41804.0,175219.0,90511.0,181347.0,94967.0
2026-04-14 18:08:41.591438,769398,1609507615224600,5215194890,0.40016,-0.501664,-0.493856,-26.635,95.996254,-77.86625,11.744,22.048,-27.432001,concentric,6,3.0,41804.0,175219.0,90511.0,181347.0,94967.0
2026-04-14 18:08:41.726518,769409,1609507615233525,5215203975,0.357216,-0.40016,-0.679296,-18.96125,95.6725,-80.4825,11.744,24.096,-27.136002,concentric,6,3.0,49536.0,249308.0,104672.0,245583.0,109532.0
2026-04-14 18:08:41.735823,769410,1609507615242651,5215212729,0.357216,-0.40016,-0.679296,-17.955,95.165,-79.8875,10.048,22.720001,-27.136002,concentric,6,3.0,49536.0,249308.0,104672.0,245583.0,109532.0
2026-04-14 18:08:41.735917,769411,1609507615257157,5215225632,0.525088,-0.474336,-0.528992,-24.185,94.49125,-78.23375,9.160001,22.400002,-27.536001,concentric,6,3.0,49536.0,249308.0,104672.0,245583.0,109532.0
2026-04-14 18:08:41.735974,769412,1609507615266500,5215236426,0.525088,-0.474336,-0.528992,-36.05875,94.52625,-78.37375,9.160001,22.400002,-27.536001,concentric,6,3.0,49536.0,249308.0,104672.0,245583.0,109532.0
2026-04-14 18:08:41.736222,769413,1609507615281044,5215251303,0.474336,-0.564128,-0.632448,-41.195,98.0,-74.83,7.496,22.848001,-28.296001,concentric,6,3.0,49536.0,249308.0,104672.0,245583.0,109532.0
2026-04-14 18:08:41.738878,769414,1609507615290070,5215259991,0.474336,-0.564128,-0.632448,-33.25,100.40625,-70.0,7.496,22.848001,-28.296001,concentric,6,3.0,49536.0,249308.0,104672.0,245583.0,109532.0
2026-04-14 18:08:41.741435,769415,1609507615299021,5215268717,0.407968,-0.503616,-0.640256,-15.47,100.1175,-68.145,6.440001,22.888,-27.816002,concentric,6,3.0,49536.0,249308.0,104672.0,245583.0,109532.0
2026-04-14 18:08:41.744288,769416,1609507615313666,5215283676,0.407968,-0.300608,-0.534848,6.5625,98.2625,-68.705,6.440001,22.888,-27.816002,concentric,6,3.0,49536.0,249308.0,104672.0,245583.0,109532.0
2026-04-14 18:08:41.746373,769417,1609507615322596,5215292408,0.505568,-0.300608,-0.534848,16.9575,94.08875,-67.83875,5.232,23.192001,-29.464,concentric,6,3.0,49536.0,249308.0,104672.0,245583.0,109532.0
2026-04-14 18:08:41.776902,769428,1609507615337369,5215307355,0.525088,-0.1952,-0.421632,13.125,91.07,-63.822502,4.624,22.736002,-29.152002,concentric,6,3.0,91657.0,302821.0,173578.0,289907.0,183115.0
2026-04-14 18:08:41.779460,769429,1609507615346336,5215316018,0.525088,-0.1952,-0.421632,0.0175,92.00625,-62.545002,4.624,22.736002,-29.152002,concentric,6,3.0,91657.0,302821.0,173578.0,289907.0,183115.0
2026-04-14 18:08:41.781881,769430,1609507615360862,5215330960,0.509472,-0.427488,-0.716384,-20.685,94.08,-63.0,3.296,22.800001,-29.656002,concentric,6,3.0,91657.0,302821.0,173578.0,289907.0,183115.0
2026-04-14 18:08:41.783905,769431,1609507615369791,5215339702,0.509472,-0.427488,-0.716384,-27.81625,94.246254,-57.37375,3.296,22.800001,-29.656002,concentric,6,3.0,91657.0,302821.0,173578.0,289907.0,183115.0
2026-04-14 18:08:41.786880,769432,1609507615378803,5215348423,0.669536,-0.486048,-0.56608,-26.5125,90.4225,-54.0575,2.072,22.672,-29.544,concentric,6,3.0,91657.0,302821.0,173578.0,289907.0,183115.0
2026-04-14 18:08:41.789456,769433,1609507615393358,5215363349,0.669536,-0.486048,-0.56608,-15.9775,87.4475,-56.175,2.072,22.672,-29.544,concentric,6,3.0,91657.0,302821.0,173578.0,289907.0,183115.0
2026-04-14 18:08:41.791612,769434,1609507615402466,5215372077,0.745664,-0.308416,-0.349408,-0.77,84.5775,-63.035,0.944,22.792002,-29.712002,concentric,6,3.0,91657.0,302821.0,173578.0,289907.0,183115.0
2026-04-14 18:08:41.794408,769435,1609507615417079,5215387041,0.841312,-0.220576,-0.359168,-1.47875,85.88125,-66.6225,-0.168,22.544,-29.512001,concentric,6,3.0,91657.0,302821.0,173578.0,289907.0,183115.0
2026-04-14 18:08:41.796882,769436,1609507615426092,5215395757,0.841312,-0.220576,-0.359168,-5.46,86.63375,-62.0025,-0.168,22.544,-29.512001,concentric,6,3.0,91657.0,302821.0,173578.0,289907.0,183115.0
2026-04-14 18:08:41.803283,769437,1609507615435065,5215404470,0.64416,-0.160064,-0.316224,-20.83375,87.465004,-59.21125,-0.168,22.44,-32.896,concentric,6,3.0,91657.0,302821.0,173578.0,289907.0,183115.0
2026-04-14 18:08:41.833063,769448,1609507615449823,5215419432,0.64416,-0.160064,-0.316224,-22.40875,85.1725,-60.62875,-1.472,22.44,-32.896,concentric,6,3.0,156639.0,325334.0,253259.0,310349.0,259491.0
2026-04-14 18:08:41.835470,769449,1609507615458811,5215428333,0.54656,-0.275232,-0.503616,-23.6425,83.7375,-64.155,-3.504,22.376001,-28.448002,concentric,6,3.0,156639.0,325334.0,253259.0,310349.0,259491.0
2026-04-14 18:08:41.839213,769450,1609507615473357,5215443259,0.54656,-0.275232,-0.503616,-28.60375,79.38,-62.895,-3.504,22.376001,-28.448002,concentric,6,3.0,156639.0,325334.0,253259.0,310349.0,259491.0
2026-04-14 18:08:41.848117,769451,1609507615482312,5215451931,0.739808,-0.46848,-0.208864,-32.82125,76.0375,-54.2675,-4.728,22.504002,-29.12,concentric,6,3.0,156639.0,325334.0,253259.0,310349.0,259491.0
2026-04-14 18:08:41.858164,769452,1609507615491299,5215460661,0.739808,-0.46848,-0.208864,-27.116251,75.85375,-45.64,-4.728,22.504002,-29.12,concentric,6,3.0,156639.0,325334.0,253259.0,310349.0,259491.0
2026-04-14 18:08:41.870597,769453,1609507615505787,5215475552,0.67344,-0.343552,-0.249856,-4.1475,72.7125,-49.5775,-5.448,22.416,-29.728,concentric,6,3.0,156639.0,325334.0,253259.0,310349.0,259491.0
2026-04-14 18:08:41.879367,769454,1609507615514777,5215484242,0.67344,-0.343552,-0.171776,13.86875,69.29125,-57.18125,-5.448,22.416,-29.728,concentric,6,3.0,156639.0,325334.0,253259.0,310349.0,259491.0
2026-04-14 18:08:41.895607,769455,1609507615529316,5215499157,0.700768,0.064416,-0.169824,31.10625,66.57,-60.9,-5.976,22.272001,-29.696001,concentric,6,3.0,156639.0,325334.0,253259.0,310349.0,259491.0
2026-04-14 18:08:41.926713,769466,1609507615538691,5215508061,0.75152,-0.245952,-0.571936,14.8925,63.55125,-65.4675,-6.736001,22.024,-29.304,concentric,6,3.0,175572.0,337785.0,275531.0,322231.0,278233.0
2026-04-14 18:08:41.929210,769467,1609507615553374,5215523042,0.75152,-0.245952,-0.571936,-16.4675,52.6225,-62.3,-6.736001,22.024,-29.304,concentric,6,3.0,175572.0,337785.0,275531.0,322231.0,278233.0
2026-04-14 18:08:41.931715,769468,1609507615562360,5215531746,0.784704,-0.199104,-0.130784,-27.43125,41.58875,-52.57875,-8.360001,22.6,-27.840002,concentric,6,3.0,175572.0,337785.0,275531.0,322231.0,278233.0
2026-04-14 18:08:41.938013,769469,1609507615571342,5215540451,0.784704,-0.199104,-0.130784,-8.47875,38.99875,-50.12,-8.360001,22.6,-27.840002,concentric,6,3.0,175572.0,337785.0,275531.0,322231.0,278233.0
2026-04-14 18:08:41.951719,769470,1609507615585863,5215555335,0.804224,-0.244,-0.115168,-5.53,42.37625,-58.1175,-9.144,22.496,-28.28,concentric,6,3.0,175572.0,337785.0,275531.0,322231.0,278233.0
2026-04-14 18:08:41.960467,769471,1609507615594796,5215564078,0.804224,-0.244,-0.115168,-9.09125,38.482502,-50.715,-9.144,22.496,-28.28,concentric,6,3.0,175572.0,337785.0,275531.0,322231.0,278233.0
2026-04-14 18:08:41.974322,769472,1609507615609395,5215579147,0.65392,-0.343552,-0.271328,-13.60625,37.94,-35.49,-8.568001,21.776001,-28.808,concentric,6,3.0,175572.0,337785.0,275531.0,322231.0,278233.0
2026-04-14 18:08:41.999410,769473,1609507615618332,5215587849,0.669536,-0.119072,-0.119072,-3.40375,33.0225,-25.9875,-9.704,22.192001,-27.744001,concentric,6,3.0,175572.0,337785.0,275531.0,322231.0,278233.0
2026-04-14 18:08:42.024203,769474,1609507615627240,5215596511,0.669536,-0.119072,-0.119072,4.80375,26.3025,-23.91375,-9.704,22.192001,-27.744001,concentric,6,3.0,175572.0,337785.0,275531.0,322231.0,278233.0
2026-04-14 18:08:42.074086,769485,1609507615641867,5215611429,0.825696,-0.201056,-0.11712,2.45,23.2925,-20.09875,-10.176001,22.184002,-28.080002,concentric,6,3.0,177398.0,348481.0,277981.0,332428.0,279697.0
2026-04-14 18:08:42.076509,769486,1609507615650837,5215620174,0.825696,-0.201056,-0.11712,-14.9975,21.39375,-13.08125,-10.176001,22.184002,-28.080002,concentric,6,3.0,177398.0,348481.0,277981.0,332428.0,279697.0
2026-04-14 18:08:42.079018,769487,1609507615665367,5215635199,0.749568,-0.335744,-0.177632,-22.14625,19.66125,-3.10625,-10.512,21.808,-27.944002,concentric,6,3.0,177398.0,348481.0,277981.0,332428.0,279697.0
2026-04-14 18:08:42.081886,769488,1609507615674319,5215643882,0.749568,-0.335744,-0.177632,-9.28375,21.5425,-1.44375,-10.512,21.808,-27.944002,concentric,6,3.0,177398.0,348481.0,277981.0,332428.0,279697.0
2026-04-14 18:08:42.084429,769489,1609507615688898,5215658799,0.778848,-0.12688,0.005856,7.245,22.60125,-5.5825,-10.288,22.344002,-27.448002,concentric,6,3.0,177398.0,348481.0,277981.0,332428.0,279697.0
2026-04-14 18:08:42.086868,769490,1609507615697846,5215667537,0.86864,-0.111264,0.007808,29.18125,12.99375,-6.13375,-10.728001,22.472,-27.912,concentric,6,3.0,177398.0,348481.0,277981.0,332428.0,279697.0
2026-04-14 18:08:42.089355,769491,1609507615706876,5215676272,0.86864,-0.111264,0.007808,21.5775,9.9575,-5.8975,-10.728001,22.472,-27.912,concentric,6,3.0,177398.0,348481.0,277981.0,332428.0,279697.0
2026-04-14 18:08:42.091581,769492,1609507615721594,5215691234,1.009184,-0.382592,-0.119072,2.87,6.09875,2.73,-9.536,22.312,-29.312002,concentric,6,3.0,177398.0,348481.0,277981.0,332428.0,279697.0
2026-04-14 18:08:42.098171,769493,1609507615730578,5215699993,1.009184,-0.382592,-0.119072,-9.9575,5.0925,9.42375,-9.536,22.312,-29.312002,concentric,6,3.0,177398.0,348481.0,277981.0,332428.0,279697.0
2026-04-14 18:08:42.130241,769504,1609507615745265,5215715542,0.9272,-0.05856,-0.1952,-8.00625,4.2875,8.0325,-9.664001,22.2,-28.472002,concentric,6,3.0,184180.0,352215.0,286062.0,336088.0,285932.0
2026-04-14 18:08:42.132425,769505,1609507615754320,5215724249,0.9272,-0.05856,-0.1952,7.0175,8.16375,-0.7875,-9.664001,22.2,-28.472002,concentric,6,3.0,184180.0,352215.0,286062.0,336088.0,285932.0
2026-04-14 18:08:42.134731,769506,1609507615763275,5215733054,0.90768,-0.124928,-0.158112,1.3825,8.18125,-6.5625,-9.672001,22.048,-28.824001,concentric,6,3.0,184180.0,352215.0,286062.0,336088.0,285932.0
2026-04-14 18:08:42.143544,769507,1609507615777819,5215747985,0.89792,-0.300608,-0.089792,-7.30625,7.2625,-6.2125,-9.928,22.088001,-29.912,concentric,6,3.0,184180.0,352215.0,286062.0,336088.0,285932.0
2026-04-14 18:08:42.156205,769508,1609507615786828,5215756677,0.89792,-0.300608,-0.089792,-9.0125,4.15625,-9.00375,-9.928,22.088001,-29.912,concentric,6,3.0,184180.0,352215.0,286062.0,336088.0,285932.0
2026-04-14 18:08:42.167608,769509,1609507615801303,5215771620,0.86864,-0.21472,-0.130784,-7.175,-1.49625,-7.02625,-10.904,22.344002,-27.800001,concentric,6,3.0,184180.0,352215.0,286062.0,336088.0,285932.0
2026-04-14 18:08:42.176150,769510,1609507615810328,5215780299,0.86864,-0.21472,-0.130784,-3.99875,-4.55,-3.8325,-10.904,22.344002,-27.800001,concentric,6,3.0,184180.0,352215.0,286062.0,336088.0,285932.0
2026-04-14 18:08:42.191185,769511,1609507615824854,5215793219,0.960384,-0.187392,-0.218624,-5.355,-4.34,-0.11375,-9.712001,21.736002,-29.432001,concentric,6,3.0,184180.0,352215.0,286062.0,336088.0,285932.0
2026-04-14 18:08:42.203398,769512,1609507615834121,5215803984,0.960384,-0.187392,-0.218624,-8.9775,-1.96,2.8875,-9.712001,21.736002,-29.432001,concentric,6,3.0,184180.0,352215.0,286062.0,336088.0,285932.0
2026-04-14 18:08:42.228955,769523,1609507615843441,5215812776,0.944768,-0.210816,-0.16592,-11.6025,-0.665,4.3225,-9.56,21.936,-28.936,concentric,6,3.0,176716.0,353165.0,276748.0,337005.0,277980.0
2026-04-14 18:08:42.231507,769524,1609507615857959,5215827752,0.919392,-0.173728,-0.15616,-3.71875,-1.4,3.99,-9.992001,22.552002,-28.848001,concentric,6,3.0,176716.0,353165.0,276748.0,337005.0,277980.0
2026-04-14 18:08:42.233982,769525,1609507615866897,5215836503,0.919392,-0.173728,-0.15616,3.07125,-3.605,1.11125,-9.992001,22.552002,-28.848001,concentric,6,3.0,176716.0,353165.0,276748.0,337005.0,277980.0
2026-04-14 18:08:42.247878,769526,1609507615881441,5215851424,0.919392,-0.187392,-0.132736,0.8225,-4.55,-0.25375,-10.592001,21.728,-29.184002,concentric,6,3.0,176716.0,353165.0,276748.0,337005.0,277980.0
2026-04-14 18:08:42.260312,769527,1609507615890406,5215860194,0.919392,-0.187392,-0.132736,-3.42125,-2.66875,-1.07625,-10.592001,21.728,-29.184002,concentric,6,3.0,176716.0,353165.0,276748.0,337005.0,277980.0
2026-04-14 18:08:42.265301,769528,1609507615899341,5215868905,0.98576,-0.226432,-0.294752,-10.07125,-0.63875,-1.2775,-9.56,22.096,-28.816002,concentric,6,3.0,176716.0,353165.0,276748.0,337005.0,277980.0
2026-04-14 18:08:42.281529,769529,1609507615913885,5215883951,0.98576,-0.226432,-0.294752,-6.93,1.33875,-0.88375,-9.56,22.096,-28.816002,concentric,6,3.0,176716.0,353165.0,276748.0,337005.0,277980.0
2026-04-14 18:08:42.289821,769530,1609507615922817,5215892653,0.895968,-0.193248,-0.206912,-0.70875,1.32125,-1.6625,-9.752001,22.12,-28.752,concentric,6,3.0,176716.0,353165.0,276748.0,337005.0,277980.0
2026-04-14 18:08:42.396389,769541,1609507615937353,5215908028,0.895968,-0.193248,-0.206912,3.7275,-0.37625,-1.1725,-9.752001,22.12,-28.752,concentric,6,3.0,170489.0,351762.0,269307.0,335775.0,271788.0
2026-04-14 18:08:42.398805,769542,1609507615946342,5215914721,0.9272,-0.218624,-0.103456,4.78625,-2.31,-1.26,-9.512,22.512001,-28.416002,concentric,6,3.0,170489.0,351762.0,269307.0,335775.0,271788.0
2026-04-14 18:08:42.423899,769543,1609507615955581,5215925519,0.9272,-0.218624,-0.103456,1.18125,-3.7275,-0.46375,-9.512,22.512001,-28.416002,concentric,6,3.0,170489.0,351762.0,269307.0,335775.0,271788.0
2026-04-14 18:08:42.434050,769544,1609507615970200,5215940448,0.948672,-0.238144,-0.109312,-3.63125,-4.24375,1.715,-11.160001,22.68,-26.640001,concentric,6,3.0,170489.0,351762.0,269307.0,335775.0,271788.0
2026-04-14 18:08:42.436527,769545,1609507615979120,5215949157,0.931104,-0.140544,-0.12688,-2.47625,-3.0625,1.51375,-11.064,22.288,-27.968,concentric,6,3.0,170489.0,351762.0,269307.0,335775.0,271788.0
2026-04-14 18:08:42.438984,769546,1609507615993725,5215964043,0.931104,-0.140544,-0.12688,-2.31875,-1.75,0.58625,-11.064,22.288,-27.968,concentric,6,3.0,170489.0,351762.0,269307.0,335775.0,271788.0
2026-04-14 18:08:42.441460,769547,1609507616002843,5215972725,0.919392,-0.216672,-0.26352,-6.02875,-1.365,1.7325,-10.280001,22.848001,-28.032001,concentric,6,3.0,170489.0,351762.0,269307.0,335775.0,271788.0
2026-04-14 18:08:42.444047,769548,1609507616017327,5215987589,0.919392,-0.216672,-0.26352,-7.945,-1.23375,2.3975,-10.280001,22.848001,-28.032001,concentric,6,3.0,170489.0,351762.0,269307.0,335775.0,271788.0
2026-04-14 18:08:42.446430,769549,1609507616026250,5215996525,0.860832,-0.226432,-0.17568,-7.3675,-1.1375,1.75,-10.192,22.504002,-28.184002,concentric,6,3.0,170489.0,351762.0,269307.0,335775.0,271788.0
2026-04-14 18:08:42.449041,769550,1609507616035187,5216005215,0.860832,-0.226432,-0.17568,-5.4075,-1.77625,1.49625,-10.192,22.504002,-28.184002,concentric,6,3.0,170489.0,351762.0,269307.0,335775.0,271788.0
2026-04-14 18:08:42.480261,769561,1609507616049777,5216020159,0.894016,-0.160064,-0.080032,-2.835,-2.5025,0.595,-10.208,22.304,-28.272001,concentric,6,3.0,169945.0,351250.0,268520.0,335407.0,270918.0
2026-04-14 18:08:42.481318,769562,1609507616058723,5216028924,0.894016,-0.199104,-0.158112,-2.87875,-2.2925,-0.42875,-10.208,22.304,-28.272001,concentric,6,3.0,169945.0,351250.0,268520.0,335407.0,270918.0
2026-04-14 18:08:42.483864,769563,1609507616073230,5216041784,0.88816,-0.199104,-0.158112,-5.92375,-2.625,0.6475,-10.336,22.464,-31.072002,concentric,6,3.0,169945.0,351250.0,268520.0,335407.0,270918.0
2026-04-14 18:08:42.487924,769564,1609507616082586,5216052616,0.845216,-0.240096,-0.228384,-8.28625,-2.555,2.9925,-9.272,21.808,-29.136002,concentric,6,3.0,169945.0,351250.0,268520.0,335407.0,270918.0
2026-04-14 18:08:42.490533,769565,1609507616091601,5216061327,0.845216,-0.240096,-0.228384,-8.21625,-3.045,4.68125,-9.272,21.808,-29.136002,concentric,6,3.0,169945.0,351250.0,268520.0,335407.0,270918.0
2026-04-14 18:08:42.491412,769566,1609507616106246,5216076251,0.831552,-0.21472,-0.18544,-5.845,-3.22875,6.5625,-9.024,22.128,-29.328001,concentric,6,3.0,169945.0,351250.0,268520.0,335407.0,270918.0
2026-04-14 18:08:42.493703,769567,1609507616115265,5216085004,0.831552,-0.21472,-0.18544,-1.4525,-3.71,7.1225,-9.024,22.128,-29.328001,concentric,6,3.0,169945.0,351250.0,268520.0,335407.0,270918.0
2026-04-14 18:08:42.496403,769568,1609507616129761,5216099942,0.85888,-0.17568,-0.122976,3.1675,-3.52625,6.685,-9.104,22.184002,-28.880001,concentric,6,3.0,169945.0,351250.0,268520.0,335407.0,270918.0
2026-04-14 18:08:42.529053,769579,1609507616138672,5216109094,0.85888,-0.17568,-0.122976,4.73375,-2.7125,7.28875,-9.104,22.184002,-28.880001,concentric,6,3.0,167991.0,350373.0,265935.0,334611.0,268470.0
2026-04-14 18:08:42.531551,769580,1609507616153377,5216122000,0.813984,-0.210816,-0.18544,2.93125,-2.5025,9.275,-8.864,21.992,-27.224,concentric,6,3.0,167991.0,350373.0,265935.0,334611.0,268470.0
2026-04-14 18:08:42.534020,769581,1609507616162833,5216132790,0.843264,-0.245952,-0.17568,0.95375,-2.6425,11.4625,-8.64,21.992,-29.112001,concentric,6,3.0,167991.0,350373.0,265935.0,334611.0,268470.0
2026-04-14 18:08:42.539107,769582,1609507616171795,5216141515,0.843264,-0.245952,-0.17568,0.0,-3.59625,12.8975,-8.64,21.992,-29.112001,concentric,6,3.0,167991.0,350373.0,265935.0,334611.0,268470.0
2026-04-14 18:08:42.551540,769583,1609507616186450,5216156456,0.823744,-0.240096,-0.281088,1.75875,-4.97,14.035,-8.664001,22.36,-29.264002,concentric,6,3.0,167991.0,350373.0,265935.0,334611.0,268470.0
2026-04-14 18:08:42.560287,769584,1609507616195433,5216165154,0.823744,-0.240096,-0.281088,6.43125,-6.93875,15.0325,-8.664001,22.36,-29.264002,concentric,6,3.0,167991.0,350373.0,265935.0,334611.0,268470.0
2026-04-14 18:08:42.573923,769585,1609507616204516,5216173861,0.880352,-0.226432,-0.06832,10.6575,-8.46125,15.408751,-8.416,22.472,-28.984001,concentric,6,3.0,167991.0,350373.0,265935.0,334611.0,268470.0
2026-04-14 18:08:42.585462,769586,1609507616218992,5216188766,0.880352,-0.226432,-0.06832,10.66625,-10.40375,17.73625,-8.416,22.472,-28.984001,concentric,6,3.0,167991.0,350373.0,265935.0,334611.0,268470.0
2026-04-14 18:08:42.592709,769587,1609507616227944,5216197543,0.847168,-0.265472,-0.140544,7.84875,-12.06625,21.41125,-8.104,22.632002,-30.488,concentric,6,3.0,167991.0,350373.0,265935.0,334611.0,268470.0
2026-04-14 18:08:42.629389,769598,1609507616242558,5216212610,0.843264,-0.242048,-0.281088,4.76875,-12.6875,23.3275,-8.392,23.096,-27.800001,concentric,6,3.0,154617.0,347304.0,249768.0,331737.0,254253.0
2026-04-14 18:08:42.631859,769599,1609507616251579,5216221345,0.843264,-0.242048,-0.281088,6.34375,-13.4225,23.49375,-8.392,23.096,-27.800001,concentric,6,3.0,154617.0,347304.0,249768.0,331737.0,254253.0
2026-04-14 18:08:42.633840,769600,1609507616266187,5216236347,0.782752,-0.162016,-0.152256,11.31375,-14.035,21.2625,-8.392,23.352001,-27.816002,concentric,6,3.0,154617.0,347304.0,249768.0,331737.0,254253.0
2026-04-14 18:08:42.641525,769601,1609507616275240,5216245043,0.782752,-0.162016,-0.152256,13.60625,-14.51625,20.37875,-8.392,23.352001,-27.816002,concentric,6,3.0,154617.0,347304.0,249768.0,331737.0,254253.0
2026-04-14 18:08:42.649194,769602,1609507616284197,5216253752,0.788608,-0.242048,-0.25376,10.57,-15.39125,22.72375,-7.28,22.776001,-28.896002,concentric,6,3.0,154617.0,347304.0,249768.0,331737.0,254253.0
2026-04-14 18:08:42.664370,769603,1609507616298695,5216268654,0.788608,-0.242048,-0.25376,6.3175,-16.45,26.4075,-7.28,22.776001,-28.896002,concentric,6,3.0,154617.0,347304.0,249768.0,331737.0,254253.0
2026-04-14 18:08:42.676464,769604,1609507616307628,5216277469,0.876448,-0.294752,-0.08784,3.24625,-18.165,29.015,-6.672,23.328001,-28.312002,concentric,6,3.0,154617.0,347304.0,249768.0,331737.0,254253.0
2026-04-14 18:08:42.689252,769605,1609507616322143,5216292370,0.786656,-0.300608,-0.33184,4.935,-20.13375,31.185,-6.512,23.536001,-27.800001,concentric,6,3.0,154617.0,347304.0,249768.0,331737.0,254253.0
2026-04-14 18:08:42.697647,769606,1609507616331096,5216301075,0.786656,-0.300608,-0.33184,4.55875,-21.77,31.12375,-6.512,23.536001,-27.800001,concentric,6,3.0,154617.0,347304.0,249768.0,331737.0,254253.0
2026-04-14 18:08:42.778744,769617,1609507616345812,5216314468,0.8296,-0.226432,-0.060512,7.20125,-22.54,30.9575,-5.76,23.184002,-28.920002,concentric,6,3.0,142512.0,341645.0,235331.0,326666.0,241336.0
2026-04-14 18:08:42.782117,769618,1609507616355158,5216325251,0.8296,-0.226432,-0.060512,12.60875,-22.995,30.4325,-5.76,23.184002,-28.920002,concentric,6,3.0,142512.0,341645.0,235331.0,326666.0,241336.0
2026-04-14 18:08:42.786720,769619,1609507616364106,5216333937,0.796416,-0.296704,-0.288896,12.29375,-23.40625,31.1325,-7.272,24.168001,-27.856,concentric,6,3.0,142512.0,341645.0,235331.0,326666.0,241336.0
2026-04-14 18:08:42.789217,769620,1609507616378769,5216348846,0.796416,-0.296704,-0.288896,7.77,-24.28125,35.35875,-7.272,24.168001,-27.856,concentric,6,3.0,142512.0,341645.0,235331.0,326666.0,241336.0
2026-04-14 18:08:42.791338,769621,1609507616387705,5216357808,0.80032,-0.329888,-0.218624,0.20125,-26.39875,39.0775,-5.552,24.048,-27.616001,concentric,6,3.0,142512.0,341645.0,235331.0,326666.0,241336.0
2026-04-14 18:08:42.794221,769622,1609507616402224,5216370665,0.769088,-0.269376,-0.162016,-5.88,-29.26,40.215,-5.112001,23.824001,-28.088001,concentric,6,3.0,142512.0,341645.0,235331.0,326666.0,241336.0
2026-04-14 18:08:42.796749,769623,1609507616411603,5216381613,0.769088,-0.269376,-0.162016,-4.48,-32.36625,40.76625,-5.112001,23.824001,-28.088001,concentric,6,3.0,142512.0,341645.0,235331.0,326666.0,241336.0
2026-04-14 18:08:42.801288,769624,1609507616420557,5216390310,0.769088,-0.269376,-0.162016,-3.70125,-34.1775,38.89375,-5.112001,23.824001,-28.088001,concentric,6,3.0,142512.0,341645.0,235331.0,326666.0,241336.0
2026-04-14 18:08:42.804204,769625,1609507616435355,5216405198,0.704672,-0.294752,-0.318176,-2.6075,-33.4775,37.87875,-4.232,23.752,-26.016,concentric,6,3.0,142512.0,341645.0,235331.0,326666.0,241336.0
2026-04-14 18:08:42.831767,769636,1609507616444576,5216414026,0.67344,-0.343552,-0.210816,-2.765,-33.41625,39.27,-3.88,23.536001,-28.960001,concentric,6,3.0,131549.0,332380.0,221901.0,317665.0,228959.0
2026-04-14 18:08:42.834218,769637,1609507616453790,5216422789,0.67344,-0.343552,-0.210816,-2.5025,-35.420002,41.8425,-3.88,23.536001,-28.960001,concentric,6,3.0,131549.0,332380.0,221901.0,317665.0,228959.0
2026-04-14 18:08:42.836794,769638,1609507616468442,5216437683,0.726144,-0.398208,-0.298656,-1.49625,-39.29625,43.8025,-3.224,23.416,-31.28,concentric,6,3.0,131549.0,332380.0,221901.0,317665.0,228959.0
2026-04-14 18:08:42.843116,769639,1609507616477367,5216446425,0.726144,-0.398208,-0.298656,-2.10875,-43.25125,46.40125,-3.224,23.416,-31.28,concentric,6,3.0,131549.0,332380.0,221901.0,317665.0,228959.0
2026-04-14 18:08:42.857801,769640,1609507616492014,5216461360,0.661728,-0.33184,-0.197152,-4.55,-46.90875,50.28625,-1.64,23.368002,-28.616001,concentric,6,3.0,131549.0,332380.0,221901.0,317665.0,228959.0
2026-04-14 18:08:42.865669,769641,1609507616500960,5216470103,0.661728,-0.33184,-0.197152,-3.15875,-49.5075,52.05375,-1.64,23.368002,-28.616001,concentric,6,3.0,131549.0,332380.0,221901.0,317665.0,228959.0
2026-04-14 18:08:42.881710,769642,1609507616515560,5216485002,0.587552,-0.306464,-0.206912,3.17625,-51.63375,52.045002,-0.504,23.880001,-28.112001,concentric,6,3.0,131549.0,332380.0,221901.0,317665.0,228959.0
2026-04-14 18:08:42.891427,769643,1609507616524666,5216493735,0.523136,-0.36112,-0.298656,4.27,-52.96375,52.3425,0.68,23.184002,-28.808,concentric,6,3.0,131549.0,332380.0,221901.0,317665.0,228959.0
2026-04-14 18:08:42.898037,769644,1609507616533735,5216502452,0.523136,-0.36112,-0.298656,6.02875,-54.95,55.90375,0.68,23.184002,-28.808,concentric,6,3.0,131549.0,332380.0,221901.0,317665.0,228959.0
2026-04-14 18:08:42.933119,769655,1609507616548745,5216517676,0.612928,-0.443104,-0.413824,5.73125,-57.98625,60.48,0.6,23.480001,-29.368002,concentric,6,3.0,115075.0,316283.0,202171.0,302287.0,210217.0
2026-04-14 18:08:42.935611,769656,1609507616557773,5216526424,0.612928,-0.443104,-0.413824,3.98125,-61.57375,63.6825,0.6,23.480001,-29.368002,concentric,6,3.0,115075.0,316283.0,202171.0,302287.0,210217.0
2026-04-14 18:08:42.938024,769657,1609507616567006,5216537269,0.636352,-0.398208,-0.404064,8.505,-63.65625,64.67125,1.336,24.064001,-28.056002,concentric,6,3.0,115075.0,316283.0,202171.0,302287.0,210217.0
2026-04-14 18:08:42.945195,769658,1609507616581529,5216550174,0.636352,-0.398208,-0.404064,11.68125,-65.0475,62.48375,1.336,24.064001,-28.056002,concentric,6,3.0,115075.0,316283.0,202171.0,302287.0,210217.0
2026-04-14 18:08:42.957735,769659,1609507616590744,5216560934,0.583648,-0.413824,-0.45872,8.636251,-66.5875,60.47125,3.464,23.608002,-28.944002,concentric,6,3.0,115075.0,316283.0,202171.0,302287.0,210217.0
2026-04-14 18:08:42.989211,769660,1609507616605276,5216573787,0.499712,-0.421632,-0.423584,4.73375,-69.6325,61.3375,4.888,23.216002,-28.880001,concentric,6,3.0,115075.0,316283.0,202171.0,302287.0,210217.0
2026-04-14 18:08:42.996851,769661,1609507616614648,5216584570,0.499712,-0.421632,-0.423584,0.2625,-73.5875,63.0175,4.888,23.216002,-28.880001,concentric,6,3.0,115075.0,316283.0,202171.0,302287.0,210217.0
2026-04-14 18:08:42.999372,769662,1609507616623653,5216593295,0.51728,-0.472384,-0.544608,-5.5825,-79.44125,62.7725,5.12,23.584002,-28.000002,concentric,6,3.0,115075.0,316283.0,202171.0,302287.0,210217.0
2026-04-14 18:08:43.004359,769663,1609507616638431,5216608213,0.51728,-0.472384,-0.544608,-8.18125,-81.55,65.73875,5.12,23.584002,-28.000002,concentric,6,3.0,115075.0,316283.0,202171.0,302287.0,210217.0
2026-04-14 18:08:43.034831,769674,1609507616647785,5216617073,0.54656,-0.466528,-0.52704,-1.54,-84.0175,68.95875,6.552001,23.04,-28.424002,concentric,6,3.0,81668.0,289018.0,159539.0,277377.0,167570.0
2026-04-14 18:08:43.036357,769675,1609507616662488,5216632078,0.54656,-0.466528,-0.544608,-0.5775,-86.3975,65.3625,6.552001,23.04,-28.424002,concentric,6,3.0,81668.0,289018.0,159539.0,277377.0,167570.0
2026-04-14 18:08:43.038691,769676,1609507616671431,5216640787,0.450912,-0.484096,-0.544608,-2.66,-88.15625,63.51625,7.456,23.000002,-25.896002,concentric,6,3.0,81668.0,289018.0,159539.0,277377.0,167570.0
2026-04-14 18:08:43.047295,769677,1609507616680440,5216649487,0.450912,-0.484096,-0.544608,-5.74875,-90.8425,64.6625,7.456,23.000002,-25.896002,concentric,6,3.0,81668.0,289018.0,159539.0,277377.0,167570.0
2026-04-14 18:08:43.059090,769678,1609507616694973,5216664442,0.470432,-0.564128,-0.66368,-11.795,-94.2025,61.7925,9.712001,22.704,-28.080002,concentric,6,3.0,81668.0,289018.0,159539.0,277377.0,167570.0
2026-04-14 18:08:43.069213,769679,1609507616703975,5216673145,0.601216,-0.591456,-0.511424,-13.11625,-96.11,61.36375,11.008,21.936,-29.832,concentric,6,3.0,81668.0,289018.0,159539.0,277377.0,167570.0
2026-04-14 18:08:43.104338,769680,1609507616718551,5216688025,0.601216,-0.591456,-0.511424,-13.125,-95.340004,65.09125,11.008,21.936,-29.832,concentric,6,3.0,81668.0,289018.0,159539.0,277377.0,167570.0
2026-04-14 18:08:43.129319,769681,1609507616727539,5216696922,0.548512,-0.568032,-0.452864,-4.24375,-93.9225,68.08375,11.456,22.368002,-27.848001,concentric,6,3.0,81668.0,289018.0,159539.0,277377.0,167570.0
2026-04-14 18:08:43.140809,769682,1609507616736471,5216705588,0.548512,-0.568032,-0.452864,2.7825,-93.17875,64.35625,11.456,22.368002,-27.848001,concentric,6,3.0,81668.0,289018.0,159539.0,277377.0,167570.0
2026-04-14 18:08:43.166320,769693,1609507616751001,5216720830,0.384544,-0.597312,-0.568032,3.0275,-93.905,60.06875,11.704,22.288,-26.208002,concentric,6,3.0,53077.0,231507.0,115187.0,230920.0,121702.0
2026-04-14 18:08:43.168721,769694,1609507616759927,5216729571,0.384544,-0.597312,-0.568032,3.75375,-97.3525,58.135002,11.704,22.288,-26.208002,concentric,6,3.0,53077.0,231507.0,115187.0,230920.0,121702.0
2026-04-14 18:08:43.171747,769695,1609507616774547,5216744467,0.365024,-0.626592,-0.714432,3.465,-98.56,55.93875,13.512001,21.696001,-25.960001,concentric,6,3.0,53077.0,231507.0,115187.0,230920.0,121702.0
2026-04-14 18:08:43.174262,769696,1609507616783543,5216753163,0.489952,-0.601216,-0.525088,-1.155,-99.925,56.4725,13.512001,21.696001,-25.048,concentric,6,3.0,53077.0,231507.0,115187.0,230920.0,121702.0
2026-04-14 18:08:43.176441,769697,1609507616798127,5216768128,0.493856,-0.601216,-0.525088,-6.50125,-98.5775,63.95375,15.152,21.000002,-25.048,concentric,6,3.0,53077.0,231507.0,115187.0,230920.0,121702.0
2026-04-14 18:08:43.178965,769698,1609507616807110,5216776852,0.488,-0.755424,-0.65392,-3.4125,-94.92875,67.10375,16.528,21.000002,-25.552002,concentric,6,3.0,53077.0,231507.0,115187.0,230920.0,121702.0
2026-04-14 18:08:43.181835,769699,1609507616816053,5216785568,0.488,-0.755424,-0.65392,-3.64875,-92.7325,62.11625,16.528,21.000002,-25.552002,concentric,6,3.0,53077.0,231507.0,115187.0,230920.0,121702.0
2026-04-14 18:08:43.196861,769700,1609507616830544,5216800465,0.284992,-0.739808,-0.81008,3.7625,-91.79625,61.15375,17.424002,20.912,-24.944,concentric,6,3.0,53077.0,231507.0,115187.0,230920.0,121702.0
2026-04-14 18:08:43.203949,769701,1609507616839480,5216809400,0.284992,-0.739808,-0.81008,15.9075,-90.195,58.38,17.424002,20.912,-24.944,concentric,6,3.0,53077.0,231507.0,115187.0,230920.0,121702.0
2026-04-14 18:08:43.234729,769712,1609507616854077,5216824330,0.265472,-0.655872,-0.835456,20.8425,-90.02875,55.58,18.04,20.024,-25.312,concentric,6,3.0,42013.0,191093.0,93199.0,197056.0,97880.0
2026-04-14 18:08:43.235306,769713,1609507616863054,5216833169,0.265472,-0.655872,-0.835456,10.96375,-92.02375,54.34625,18.04,20.024,-25.312,concentric,6,3.0,42013.0,191093.0,93199.0,197056.0,97880.0
2026-04-14 18:08:43.244184,769714,1609507616877579,5216846027,0.368928,-0.774944,-0.884256,-2.10875,-90.685,59.5525,19.152,20.208,-22.968,concentric,6,3.0,42013.0,191093.0,93199.0,197056.0,97880.0
2026-04-14 18:08:43.253039,769715,1609507616886901,5216856793,0.3416,-0.870592,-0.85888,-0.98,-88.375,63.35,21.088001,19.392,-24.296001,concentric,6,3.0,42013.0,191093.0,93199.0,197056.0,97880.0
2026-04-14 18:08:43.261736,769716,1609507616896050,5216865500,0.3416,-0.870592,-0.85888,9.0475,-84.37625,58.44125,21.088001,19.392,-24.296001,concentric,6,3.0,42013.0,191093.0,93199.0,197056.0,97880.0
