pc_time,serial_num,sensor_ts,host_ts,ax,ay,az,gx,gy,gz,mx,my,mz,phase,rpe,weight_kg,ppg_a,ppg_b,ppg_c,ppg_d,ppg_e
2026-04-14 18:08:44.304889,769902,1609507617862357,5217832226,0.579744,-0.40016,-0.603168,-17.91125,91.07,-66.03625,4.384,22.136002,-29.608002,concentric,6,3.0,116679.0,320323.0,205321.0,306360.0,214280.0
2026-04-14 18:08:44.307932,769903,1609507617871304,5217840971,0.583648,-0.413824,-0.636352,-19.38125,91.4725,-67.06,3.016,22.104002,-29.696001,concentric,6,3.0,116679.0,320323.0,205321.0,306360.0,214280.0
2026-04-14 18:08:44.310165,769904,1609507617880343,5217849641,0.583648,-0.413824,-0.636352,-14.56,89.67875,-69.97375,3.016,22.104002,-29.696001,concentric,6,3.0,116679.0,320323.0,205321.0,306360.0,214280.0
2026-04-14 18:08:44.312604,769905,1609507617894823,5217864570,0.61488,-0.376736,-0.33184,-12.85375,86.42375,-73.40375,1.624,22.168001,-29.904001,concentric,6,3.0,116679.0,320323.0,205321.0,306360.0,214280.0
2026-04-14 18:08:44.315479,769906,1609507617903745,5217873279,0.61488,-0.376736,-0.33184,-9.1,84.621254,-72.87875,1.624,22.168001,-29.904001,concentric,6,3.0,116679.0,320323.0,205321.0,306360.0,214280.0
2026-04-14 18:08:44.317734,769907,1609507617918233,5217888173,0.696864,-0.298656,-0.325984,-9.9575,82.6,-70.9975,0.416,22.344002,-30.672,concentric,6,3.0,116679.0,320323.0,205321.0,306360.0,214280.0
2026-04-14 18:08:44.320479,769908,1609507617927246,5217896899,0.696864,-0.298656,-0.325984,-17.57,84.3325,-67.83,0.416,22.344002,-30.672,concentric,6,3.0,116679.0,320323.0,205321.0,306360.0,214280.0
2026-04-14 18:08:44.323008,769909,1609507617941759,5217911825,0.835456,-0.279136,-0.347456,-22.81125,87.31625,-65.16125,-1.016,22.160002,-29.760002,concentric,6,3.0,116679.0,320323.0,205321.0,306360.0,214280.0
2026-04-14 18:08:44.353032,769920,1609507617950837,5217920625,0.835456,-0.294752,-0.4392,-25.585001,89.1275,-68.6175,-1.016,22.160002,-29.760002,concentric,6,3.0,161350.0,341370.0,259028.0,326088.0,264168.0
2026-04-14 18:08:44.355620,769921,1609507617959954,5217929334,0.71248,-0.284992,-0.4392,-15.9075,89.88,-73.815,-1.96,21.992,-31.256002,concentric,6,3.0,161350.0,341370.0,259028.0,326088.0,264168.0
2026-04-14 18:08:44.357885,769922,1609507617974509,5217944337,0.755424,-0.365024,-0.41968,-17.045,93.3975,-75.9325,-3.448,22.304,-29.136002,concentric,6,3.0,161350.0,341370.0,259028.0,326088.0,264168.0
2026-04-14 18:08:44.359996,769923,1609507617983469,5217953049,0.755424,-0.365024,-0.41968,-16.73875,92.5925,-74.585,-3.448,22.304,-29.136002,concentric,6,3.0,161350.0,341370.0,259028.0,326088.0,264168.0
2026-04-14 18:08:44.364159,769924,1609507617998006,5217967961,0.616832,-0.363072,-0.310368,-13.13375,93.03875,-74.8825,-5.744,22.400002,-29.088001,concentric,6,3.0,161350.0,341370.0,259028.0,326088.0,264168.0
2026-04-14 18:08:44.373995,769925,1609507618006944,5217976772,0.616832,-0.363072,-0.310368,2.03,94.4825,-71.44375,-5.744,22.400002,-29.088001,concentric,6,3.0,161350.0,341370.0,259028.0,326088.0,264168.0
2026-04-14 18:08:44.382648,769926,1609507618015886,5217985464,0.482144,-0.109312,-0.335744,29.35625,84.84875,-67.62,-6.552001,22.312,-29.608002,concentric,6,3.0,161350.0,341370.0,259028.0,326088.0,264168.0
2026-04-14 18:08:44.395518,769927,1609507618030441,5218000406,0.482144,-0.109312,-0.335744,41.37875,74.08625,-70.1225,-6.552001,22.312,-29.608002,concentric,6,3.0,161350.0,341370.0,259028.0,326088.0,264168.0
2026-04-14 18:08:44.405917,769928,1609507618039403,5218009114,0.620736,-0.265472,-0.181536,43.61,63.84875,-69.825,-6.704001,22.376001,-29.312002,concentric,6,3.0,161350.0,341370.0,259028.0,326088.0,264168.0
2026-04-14 18:08:44.441284,769939,1609507618054587,5218024043,0.601216,-0.2928,-0.359168,22.63625,49.84,-62.22125,-7.704001,22.752,-28.712002,concentric,6,3.0,162720.0,353276.0,259848.0,337191.0,263308.0
2026-04-14 18:08:44.443842,769940,1609507618063690,5218032893,0.601216,-0.2928,-0.359168,17.710001,36.19875,-51.388752,-7.704001,22.752,-28.712002,concentric,6,3.0,162720.0,353276.0,259848.0,337191.0,263308.0
2026-04-14 18:08:44.446495,769941,1609507618072663,5218041708,0.749568,-0.1952,-0.304512,22.7675,27.5275,-51.24,-7.896,22.896002,-28.376001,concentric,6,3.0,162720.0,353276.0,259848.0,337191.0,263308.0
2026-04-14 18:08:44.453189,769942,1609507618087196,5218056656,0.749568,-0.1952,-0.304512,25.3925,19.87125,-49.18375,-7.896,22.896002,-28.376001,concentric,6,3.0,162720.0,353276.0,259848.0,337191.0,263308.0
2026-04-14 18:08:44.461922,769943,1609507618096125,5218065355,0.636352,-0.076128,-0.201056,19.50375,16.49375,-43.715,-8.512,22.936,-28.248001,concentric,6,3.0,162720.0,353276.0,259848.0,337191.0,263308.0
2026-04-14 18:08:44.478595,769944,1609507618110675,5218080280,0.636352,-0.076128,-0.201056,14.84,16.0475,-38.185,-8.512,22.936,-28.248001,concentric,6,3.0,162720.0,353276.0,259848.0,337191.0,263308.0
2026-04-14 18:08:44.488963,769945,1609507618119621,5218088989,0.69296,-0.2928,-0.095648,8.00625,13.440001,-34.93,-8.704,22.960001,-28.680002,concentric,6,3.0,162720.0,353276.0,259848.0,337191.0,263308.0
2026-04-14 18:08:44.500471,769946,1609507618134325,5218103921,0.759328,-0.505568,-0.33184,-12.46,15.30375,-27.545,-8.96,23.016,-28.512001,concentric,6,3.0,162720.0,353276.0,259848.0,337191.0,263308.0
2026-04-14 18:08:44.508718,769947,1609507618143243,5218112617,0.759328,-0.505568,-0.33184,-15.12875,20.20375,-20.50125,-8.96,23.016,-28.512001,concentric,6,3.0,162720.0,353276.0,259848.0,337191.0,263308.0
2026-04-14 18:08:44.541372,769958,1609507618152680,5218121351,0.821792,-0.245952,-0.349408,-15.5575,22.9775,-13.5275,-8.96,23.016,-28.784002,concentric,6,3.0,160315.0,352522.0,256878.0,336465.0,260586.0
2026-04-14 18:08:44.543781,769959,1609507618167491,5218136385,0.823744,-0.245952,-0.349408,0.5775,25.803751,-3.24625,-9.416,22.856,-28.784002,concentric,6,3.0,160315.0,352522.0,256878.0,336465.0,260586.0
2026-04-14 18:08:44.546925,769960,1609507618176438,5218145096,0.6832,-0.076128,-0.12688,17.61375,25.76875,-1.1375,-10.328,23.048,-27.104002,concentric,6,3.0,160315.0,352522.0,256878.0,336465.0,260586.0
2026-04-14 18:08:44.575103,769961,1609507618185665,5218155848,0.6832,-0.076128,-0.12688,11.8825,21.09625,4.9875,-10.328,23.048,-27.104002,concentric,6,3.0,160315.0,352522.0,256878.0,336465.0,260586.0
2026-04-14 18:08:44.580145,769962,1609507618200502,5218170760,0.833504,-0.242048,-0.13664,4.8825,18.1125,6.0025,-9.64,22.816002,-28.232002,concentric,6,3.0,160315.0,352522.0,256878.0,336465.0,260586.0
2026-04-14 18:08:44.580493,769963,1609507618209430,5218179439,0.833504,-0.242048,-0.13664,-4.025,15.26,8.67125,-9.64,22.816002,-28.232002,concentric,6,3.0,160315.0,352522.0,256878.0,336465.0,260586.0
2026-04-14 18:08:44.608443,769964,1609507618223976,5218192334,0.925248,-0.18544,-0.277184,6.5975,17.21125,9.345,-9.464001,23.128,-28.048002,concentric,6,3.0,160315.0,352522.0,256878.0,336465.0,260586.0
2026-04-14 18:08:44.610115,769965,1609507618233158,5218203073,0.923296,-0.093696,-0.07808,5.985,16.75625,1.95125,-9.464001,23.032001,-28.232002,concentric,6,3.0,160315.0,352522.0,256878.0,336465.0,260586.0
2026-04-14 18:08:44.612852,769966,1609507618242128,5218211809,0.923296,-0.093696,-0.07808,6.97375,16.30125,3.28125,-9.84,23.032001,-28.232002,concentric,6,3.0,160315.0,352522.0,256878.0,336465.0,260586.0
2026-04-14 18:08:44.642898,769977,1609507618256738,5218225134,0.804224,-0.244,-0.206912,1.70625,12.145,-1.19875,-9.648001,23.072,-28.008001,concentric,6,3.0,163341.0,354334.0,260723.0,338368.0,263985.0
2026-04-14 18:08:44.648232,769978,1609507618266052,5218235910,0.804224,-0.244,-0.206912,-5.60875,7.1575,1.30375,-9.648001,23.072,-28.008001,concentric,6,3.0,163341.0,354334.0,260723.0,338368.0,263985.0
2026-04-14 18:08:44.650657,769979,1609507618280635,5218250841,0.911584,-0.30256,-0.037088,-0.20125,5.52125,-0.95375,-9.632001,23.112001,-27.312002,concentric,6,3.0,163341.0,354334.0,260723.0,338368.0,263985.0
2026-04-14 18:08:44.656958,769980,1609507618289554,5218259555,0.911584,-0.30256,-0.037088,0.46375,4.31375,-0.69125,-9.632001,23.112001,-27.312002,concentric,6,3.0,163341.0,354334.0,260723.0,338368.0,263985.0
2026-04-14 18:08:44.663894,769981,1609507618298680,5218268266,0.933056,-0.154208,-0.11712,3.40375,3.6575,3.80625,-9.968,23.432001,-27.552002,concentric,6,3.0,163341.0,354334.0,260723.0,338368.0,263985.0
2026-04-14 18:08:44.680085,769982,1609507618313284,5218283165,0.854976,-0.163968,-0.183488,5.01375,3.9725,3.29,-9.968,23.432001,-25.504002,concentric,6,3.0,163341.0,354334.0,260723.0,338368.0,263985.0
2026-04-14 18:08:44.688689,769983,1609507618322222,5218291837,0.851072,-0.163968,-0.183488,0.49,3.66625,3.22875,-9.832001,23.160002,-25.800001,concentric,6,3.0,163341.0,354334.0,260723.0,338368.0,263985.0
2026-04-14 18:08:44.701727,769984,1609507618336718,5218306804,0.870592,-0.347456,-0.259616,-8.8725,2.485,3.6925,-9.6,23.064001,-28.296001,concentric,6,3.0,163341.0,354334.0,260723.0,338368.0,263985.0
2026-04-14 18:08:44.711848,769985,1609507618345653,5218315505,0.870592,-0.347456,-0.259616,-16.37125,0.90125,5.83625,-9.6,23.064001,-28.296001,concentric,6,3.0,163341.0,354334.0,260723.0,338368.0,263985.0
2026-04-14 18:08:44.741505,769996,1609507618360214,5218330560,0.901824,-0.187392,-0.115168,-20.04625,-1.95125,7.04375,-10.352,23.536001,-26.968,concentric,6,3.0,162496.0,354409.0,259801.0,338378.0,263236.0
2026-04-14 18:08:44.744223,769997,1609507618369261,5218339330,0.901824,-0.187392,-0.115168,-12.15375,-3.955,8.89875,-10.352,23.536001,-26.968,concentric,6,3.0,162496.0,354409.0,259801.0,338378.0,263236.0
2026-04-14 18:08:44.746861,769998,1609507618378210,5218348045,0.923296,-0.06832,-0.144448,7.67375,-1.51375,0.2975,-10.440001,23.44,-26.992,concentric,6,3.0,162496.0,354409.0,259801.0,338378.0,263236.0
2026-04-14 18:08:44.759235,769999,1609507618392833,5218362947,0.923296,-0.06832,-0.144448,-0.79625,-1.0675,-6.90375,-10.440001,23.44,-26.992,concentric,6,3.0,162496.0,354409.0,259801.0,338378.0,263236.0
2026-04-14 18:08:44.774241,770000,1609507618401789,5218371640,0.882304,-0.3416,-0.236192,-15.8725,-2.065,-2.23125,-10.256001,23.160002,-27.816002,concentric,6,3.0,162496.0,354409.0,259801.0,338378.0,263236.0
2026-04-14 18:08:44.782581,770001,1609507618416294,5218386539,0.81008,-0.423584,-0.3416,-20.37,-3.6225,-0.06125,-9.488001,22.888,-27.992,concentric,6,3.0,162496.0,354409.0,259801.0,338378.0,263236.0
2026-04-14 18:08:44.790504,770002,1609507618425292,5218395283,0.81008,-0.423584,-0.3416,-16.73875,-7.0175,3.745,-9.488001,22.888,-27.992,concentric,6,3.0,162496.0,354409.0,259801.0,338378.0,263236.0
2026-04-14 18:08:44.805511,770003,1609507618439790,5218408158,0.817888,-0.095648,-0.308416,-6.13375,-8.2075,6.37,-9.512,23.128,-27.904001,concentric,6,3.0,162496.0,354409.0,259801.0,338378.0,263236.0
2026-04-14 18:08:44.816343,770004,1609507618449013,5218418934,0.817888,-0.095648,-0.308416,7.42875,-4.78625,3.6925,-9.512,23.128,-27.904001,concentric,6,3.0,162496.0,354409.0,259801.0,338378.0,263236.0
2026-04-14 18:08:44.844432,770015,1609507618458086,5218427683,0.91744,-0.216672,-0.081984,5.57375,-1.7675,1.715,-9.632001,23.048,-26.984001,concentric,6,3.0,164064.0,354858.0,261886.0,338979.0,265002.0
2026-04-14 18:08:44.846879,770016,1609507618472718,5218442658,0.91744,-0.216672,-0.081984,-5.53875,-0.9625,4.31375,-9.632001,23.048,-26.984001,concentric,6,3.0,164064.0,354858.0,261886.0,338979.0,265002.0
2026-04-14 18:08:44.849349,770017,1609507618481778,5218451411,0.83936,-0.407968,-0.27328,-11.59375,-1.02375,8.2075,-9.368,23.024,-26.712002,concentric,6,3.0,164064.0,354858.0,261886.0,338979.0,265002.0
2026-04-14 18:08:44.864009,770018,1609507618496329,5218466332,0.8296,-0.191296,-0.298656,-6.85125,-0.8575,10.45625,-9.0,22.976002,-28.272001,concentric,6,3.0,164064.0,354858.0,261886.0,338979.0,265002.0
2026-04-14 18:08:44.871386,770019,1609507618505264,5218475159,0.8296,-0.191296,-0.298656,4.17375,-0.51625,9.9575,-9.0,22.976002,-28.272001,concentric,6,3.0,164064.0,354858.0,261886.0,338979.0,265002.0
2026-04-14 18:08:44.880522,770020,1609507618514316,5218483872,0.8296,-0.191296,-0.140544,7.5425,0.77875,5.81875,-9.0,22.976002,-28.272001,concentric,6,3.0,164064.0,354858.0,261886.0,338979.0,265002.0
2026-04-14 18:08:44.910599,770021,1609507618528816,5218498785,0.853024,-0.130784,-0.140544,1.4,2.485,3.85875,-8.984,23.008001,-27.720001,concentric,6,3.0,164064.0,354858.0,261886.0,338979.0,265002.0
2026-04-14 18:08:44.913139,770022,1609507618537743,5218507481,0.9272,-0.368928,-0.072224,-9.1,2.555,3.89375,-9.176001,23.048,-27.976002,concentric,6,3.0,164064.0,354858.0,261886.0,338979.0,265002.0
2026-04-14 18:08:44.987983,770033,1609507618552280,5218522415,0.9272,-0.368928,-0.072224,-12.03125,0.95375,3.71,-9.176001,23.048,-27.976002,concentric,6,3.0,160210.0,354202.0,256863.0,338284.0,260441.0
2026-04-14 18:08:44.990486,770034,1609507618561214,5218531318,0.85888,-0.28304,-0.101504,-6.86,-2.42375,3.28125,-10.096001,23.496,-27.296001,concentric,6,3.0,160210.0,354202.0,256863.0,338284.0,260441.0
2026-04-14 18:08:44.992751,770035,1609507618575765,5218544177,0.823744,-0.1464,-0.284992,2.72125,-3.64875,1.8375,-9.624001,23.328001,-28.44,concentric,6,3.0,160210.0,354202.0,256863.0,338284.0,260441.0
2026-04-14 18:08:44.995254,770036,1609507618584991,5218554925,0.823744,-0.1464,-0.284992,9.84375,-2.37125,-1.82,-9.624001,23.328001,-28.44,concentric,6,3.0,160210.0,354202.0,256863.0,338284.0,260441.0
2026-04-14 18:08:44.997996,770037,1609507618593931,5218563611,0.823744,-0.1464,-0.284992,6.67625,0.60375,-4.13875,-9.624001,23.328001,-28.44,concentric,6,3.0,160210.0,354202.0,256863.0,338284.0,260441.0
2026-04-14 18:08:45.000663,770038,1609507618608457,5218578489,0.929152,-0.269376,-0.121024,0.42875,1.9075,-2.30125,-9.832001,23.384,-29.736002,concentric,6,3.0,160210.0,354202.0,256863.0,338284.0,260441.0
2026-04-14 18:08:45.003190,770039,1609507618617409,5218587201,0.90768,-0.339648,-0.138592,0.0175,0.805,-1.16375,-8.96,23.176,-28.464,concentric,6,3.0,160210.0,354202.0,256863.0,338284.0,260441.0
2026-04-14 18:08:45.005644,770040,1609507618632065,5218602106,0.90768,-0.339648,-0.138592,4.38375,-1.47,-1.2075,-8.96,23.176,-28.464,concentric,6,3.0,160210.0,354202.0,256863.0,338284.0,260441.0
2026-04-14 18:08:45.008151,770041,1609507618641135,5218610801,0.90768,-0.21472,-0.072224,9.79125,-2.8525,-1.42625,-8.712001,23.024,-27.872002,concentric,6,3.0,160210.0,354202.0,256863.0,338284.0,260441.0
2026-04-14 18:08:45.014397,770042,1609507618650132,5218619547,0.90768,-0.21472,-0.072224,12.32,-2.52875,-1.9075,-8.712001,23.024,-27.872002,concentric,6,3.0,160210.0,354202.0,256863.0,338284.0,260441.0
2026-04-14 18:08:45.043142,770053,1609507618664779,5218634519,0.837408,-0.206912,-0.244,12.145,-2.415,-2.65125,-10.624001,23.984001,-26.016,concentric,6,3.0,157243.0,353649.0,253514.0,337918.0,257571.0
2026-04-14 18:08:45.045629,770054,1609507618673965,5218643250,0.837408,-0.206912,-0.244,9.19625,-2.17875,-2.415,-10.624001,23.984001,-26.016,concentric,6,3.0,157243.0,353649.0,253514.0,337918.0,257571.0
2026-04-14 18:08:45.052744,770055,1609507618688493,5218658202,0.90768,-0.306464,-0.247904,6.67625,-2.1525,-0.67375,-8.648001,23.872002,-30.856,concentric,6,3.0,157243.0,353649.0,253514.0,337918.0,257571.0
2026-04-14 18:08:45.063002,770056,1609507618697426,5218666922,0.831552,-0.271328,-0.255712,6.44,-3.26375,0.37625,-8.792001,23.224,-25.528002,concentric,6,3.0,157243.0,353649.0,253514.0,337918.0,257571.0
2026-04-14 18:08:45.071713,770057,1609507618706344,5218675599,0.831552,-0.271328,-0.255712,7.28,-4.52375,1.0325,-8.792001,23.224,-25.528002,concentric,6,3.0,157243.0,353649.0,253514.0,337918.0,257571.0
2026-04-14 18:08:45.090086,770058,1609507618720831,5218690487,0.913536,-0.22448,-0.074176,8.86375,-3.73625,1.26875,-8.856,23.624,-27.808,concentric,6,3.0,157243.0,353649.0,253514.0,337918.0,257571.0
2026-04-14 18:08:45.096551,770059,1609507618729843,5218699243,0.913536,-0.22448,-0.074176,6.85125,-3.255,1.35625,-8.856,23.624,-27.808,concentric,6,3.0,157243.0,353649.0,253514.0,337918.0,257571.0
2026-04-14 18:08:45.110165,770060,1609507618744357,5218714136,0.872544,-0.279136,-0.279136,4.4625,-3.10625,2.02125,-8.448,23.696001,-27.840002,concentric,6,3.0,157243.0,353649.0,253514.0,337918.0,257571.0
2026-04-14 18:08:45.120326,770061,1609507618753454,5218722855,0.872544,-0.279136,-0.279136,2.37125,-3.75375,3.05375,-8.448,23.696001,-27.840002,concentric,6,3.0,157243.0,353649.0,253514.0,337918.0,257571.0
2026-04-14 18:08:45.149393,770072,1609507618768025,5218737793,0.825696,-0.25376,-0.144448,-0.0875,-5.04875,3.22875,-8.888001,24.408,-26.888,concentric,6,3.0,157909.0,353400.0,254196.0,337666.0,258104.0
2026-04-14 18:08:45.152208,770073,1609507618776973,5218746620,0.905728,-0.21472,-0.013664,-0.07875,-6.09875,3.80625,-9.312,24.128,-27.152,concentric,6,3.0,157909.0,353400.0,254196.0,337666.0,258104.0
2026-04-14 18:08:45.153334,770074,1609507618785948,5218755387,0.905728,-0.21472,-0.013664,-0.09625,-6.16,2.26625,-9.312,24.128,-27.152,concentric,6,3.0,157909.0,353400.0,254196.0,337666.0,258104.0
2026-04-14 18:08:45.167781,770075,1609507618800462,5218770424,0.845216,-0.244,-0.269376,-3.43875,-5.565,1.47875,-8.264,23.848001,-27.872002,concentric,6,3.0,157909.0,353400.0,254196.0,337666.0,258104.0
2026-04-14 18:08:45.175113,770076,1609507618809413,5218779124,0.845216,-0.244,-0.269376,-7.27125,-5.5475,2.02125,-8.264,23.848001,-27.872002,concentric,6,3.0,157909.0,353400.0,254196.0,337666.0,258104.0
2026-04-14 18:08:45.189023,770077,1609507618823937,5218794178,0.81008,-0.275232,-0.208864,-9.0475,-6.44,2.51125,-9.032001,23.808,-27.000002,concentric,6,3.0,157909.0,353400.0,254196.0,337666.0,258104.0
2026-04-14 18:08:45.197826,770078,1609507618832868,5218802892,0.81008,-0.275232,-0.208864,-8.86375,-7.595,3.45625,-9.032001,23.808,-27.000002,concentric,6,3.0,157909.0,353400.0,254196.0,337666.0,258104.0
2026-04-14 18:08:45.214078,770079,1609507618847439,5218817790,0.821792,-0.314272,-0.304512,-9.03875,-8.8375,4.64625,-8.136001,23.864,-27.184002,concentric,6,3.0,157909.0,353400.0,254196.0,337666.0,258104.0
2026-04-14 18:08:45.245498,770090,1609507618856773,5218826842,0.821792,-0.314272,-0.089792,-8.155,-9.45,6.3875,-8.136001,23.864,-27.184002,concentric,6,3.0,155553.0,353341.0,251304.0,337640.0,255454.0
2026-04-14 18:08:45.246835,770091,1609507618865781,5218835579,0.895968,-0.251808,-0.089792,-6.58,-10.0275,6.92125,-7.8,23.784,-28.400002,concentric,6,3.0,155553.0,353341.0,251304.0,337640.0,255454.0
2026-04-14 18:08:45.248606,770092,1609507618880512,5218850707,0.851072,-0.238144,-0.060512,-6.62375,-10.00125,7.0,-7.672,23.432001,-28.088001,concentric,6,3.0,155553.0,353341.0,251304.0,337640.0,255454.0
2026-04-14 18:08:45.255151,770093,1609507618889543,5218859435,0.851072,-0.238144,-0.060512,-8.61,-9.905,6.8425,-7.672,23.432001,-28.088001,concentric,6,3.0,155553.0,353341.0,251304.0,337640.0,255454.0
2026-04-14 18:08:45.267859,770094,1609507618904049,5218872424,0.864736,-0.277184,-0.0488,-11.76,-10.14125,8.23375,-8.896001,23.824001,-29.344002,concentric,6,3.0,155553.0,353341.0,251304.0,337640.0,255454.0
2026-04-14 18:08:45.278858,770095,1609507618913262,5218883191,0.864736,-0.277184,-0.0488,-13.7375,-10.40375,8.925,-8.896001,23.824001,-29.344002,concentric,6,3.0,155553.0,353341.0,251304.0,337640.0,255454.0
2026-04-14 18:08:45.333081,770096,1609507618922213,5218891880,0.8296,-0.259616,-0.10736,-14.56875,-11.62875,9.05625,-7.328001,23.216002,-28.488,concentric,6,3.0,155553.0,353341.0,251304.0,337640.0,255454.0
2026-04-14 18:08:45.334657,770097,1609507618936708,5218906820,0.8296,-0.259616,-0.091744,-14.105001,-12.8975,9.79125,-7.328001,23.216002,-28.488,concentric,6,3.0,155553.0,353341.0,251304.0,337640.0,255454.0
2026-04-14 18:08:45.336167,770098,1609507618945759,5218915510,0.880352,-0.25376,-0.089792,-11.042501,-13.60625,9.835,-7.096,23.128,-27.560001,concentric,6,3.0,155553.0,353341.0,251304.0,337640.0,255454.0
2026-04-14 18:08:45.364280,770109,1609507618960450,5218930623,0.874496,-0.310368,-0.162016,-10.21125,-14.49875,10.3075,-7.408001,23.776001,-27.584002,concentric,6,3.0,145918.0,351528.0,239769.0,336072.0,244847.0
2026-04-14 18:08:45.369392,770110,1609507618969390,5218939319,0.874496,-0.310368,-0.162016,-10.68375,-14.761251,12.22375,-7.408001,23.776001,-27.584002,concentric,6,3.0,145918.0,351528.0,239769.0,336072.0,244847.0
2026-04-14 18:08:45.371912,770111,1609507618978412,5218948016,0.747616,-0.325984,-0.261568,-12.04,-15.11125,15.21625,-7.648,23.472002,-27.160002,concentric,6,3.0,145918.0,351528.0,239769.0,336072.0,244847.0
2026-04-14 18:08:45.374359,770112,1609507618993063,5218963053,0.747616,-0.325984,-0.261568,-13.440001,-15.54,18.235,-7.648,23.472002,-27.160002,concentric,6,3.0,145918.0,351528.0,239769.0,336072.0,244847.0
2026-04-14 18:08:45.376849,770113,1609507619002052,5218971785,0.80032,-0.31232,-0.251808,-10.78875,-16.82625,20.36125,-7.368001,23.576,-27.488,concentric,6,3.0,145918.0,351528.0,239769.0,336072.0,244847.0
2026-04-14 18:08:45.383180,770114,1609507619016713,5218986689,0.80032,-0.31232,-0.251808,-2.3975,-18.2875,21.4375,-7.368001,23.576,-27.488,concentric,6,3.0,145918.0,351528.0,239769.0,336072.0,244847.0
2026-04-14 18:08:45.391440,770115,1609507619025643,5218995390,0.728096,-0.267424,-0.345504,3.29,-18.76,21.7875,-6.952,23.496,-27.832,concentric,6,3.0,145918.0,351528.0,239769.0,336072.0,244847.0
2026-04-14 18:08:45.401912,770116,1609507619034618,5219004087,0.728096,-0.267424,-0.345504,4.55,-19.31125,23.5725,-6.952,23.496,-27.832,concentric,6,3.0,145918.0,351528.0,239769.0,336072.0,244847.0
2026-04-14 18:08:45.414445,770117,1609507619049088,5219019119,0.782752,-0.281088,-0.109312,3.465,-19.59125,27.405,-5.528,23.496,-27.696001,concentric,6,3.0,145918.0,351528.0,239769.0,336072.0,244847.0
2026-04-14 18:08:45.446726,770128,1609507619058074,5219027889,0.8296,-0.392352,-0.163968,-0.595,-20.51,30.8875,-5.528,23.496,-28.400002,concentric,6,3.0,133097.0,344516.0,224361.0,329566.0,230533.0
2026-04-14 18:08:45.449177,770129,1609507619072730,5219043039,0.833504,-0.392352,-0.163968,-2.91375,-20.97375,33.8275,-6.088,23.952002,-28.400002,concentric,6,3.0,133097.0,344516.0,224361.0,329566.0,230533.0
2026-04-14 18:08:45.451246,770130,1609507619081782,5219051753,0.671488,-0.294752,-0.32208,-4.3575,-22.54875,36.155,-6.416,23.720001,-27.288002,concentric,6,3.0,133097.0,344516.0,224361.0,329566.0,230533.0
2026-04-14 18:08:45.463120,770131,1609507619096372,5219066710,0.671488,-0.294752,-0.32208,3.7975,-23.28375,37.63375,-6.416,23.720001,-27.288002,concentric,6,3.0,133097.0,344516.0,224361.0,329566.0,230533.0
2026-04-14 18:08:45.473116,770132,1609507619105497,5219075432,0.667584,-0.27328,-0.244,11.305,-23.065,36.26,-4.28,23.44,-29.240002,concentric,6,3.0,133097.0,344516.0,224361.0,329566.0,230533.0
2026-04-14 18:08:45.479356,770133,1609507619114555,5219084154,0.667584,-0.27328,-0.244,14.58625,-23.19625,38.482502,-4.28,23.44,-29.240002,concentric,6,3.0,133097.0,344516.0,224361.0,329566.0,230533.0
2026-04-14 18:08:45.495639,770134,1609507619129062,5219099052,0.6832,-0.411872,-0.325984,12.45125,-24.19375,46.585,-3.768,23.888,-28.696001,concentric,6,3.0,133097.0,344516.0,224361.0,329566.0,230533.0
2026-04-14 18:08:45.506881,770135,1609507619138019,5219107752,0.6832,-0.411872,-0.435296,4.4975,-27.86875,54.32,-3.768,23.888,-28.696001,concentric,6,3.0,133097.0,344516.0,224361.0,329566.0,230533.0
2026-04-14 18:08:45.518981,770136,1609507619152500,5219122630,0.698816,-0.450912,-0.425536,7.5075,-30.9575,59.35125,-2.888,24.136002,-27.488,concentric,6,3.0,133097.0,344516.0,224361.0,329566.0,230533.0
2026-04-14 18:08:45.580661,770147,1609507619161728,5219131474,0.706624,-0.314272,-0.365024,12.60875,-32.68125,58.66875,-2.84,24.416,-27.320002,concentric,6,3.0,119972.0,331867.0,207841.0,316853.0,214995.0
2026-04-14 18:08:45.583184,770148,1609507619170801,5219140210,0.706624,-0.314272,-0.365024,18.94375,-34.13375,56.55125,-2.84,24.416,-27.320002,concentric,6,3.0,119972.0,331867.0,207841.0,316853.0,214995.0
2026-04-14 18:08:45.585148,770149,1609507619185348,5219155116,0.66368,-0.327936,-0.279136,26.95,-35.315,51.8875,-1.936,24.688002,-27.232,concentric,6,3.0,119972.0,331867.0,207841.0,316853.0,214995.0
2026-04-14 18:08:45.588172,770150,1609507619194307,5219163818,0.66368,-0.327936,-0.279136,23.45875,-36.9775,50.89875,-1.936,24.688002,-27.232,concentric,6,3.0,119972.0,331867.0,207841.0,316853.0,214995.0
2026-04-14 18:08:45.590662,770151,1609507619208917,5219178736,0.577792,-0.437248,-0.431392,15.16375,-39.69,56.91,-1.48,24.688002,-27.272001,concentric,6,3.0,119972.0,331867.0,207841.0,316853.0,214995.0
2026-04-14 18:08:45.595664,770152,1609507619217869,5219187427,0.577792,-0.437248,-0.431392,5.04875,-45.05375,63.638752,-1.48,24.688002,-27.272001,concentric,6,3.0,119972.0,331867.0,207841.0,316853.0,214995.0
2026-04-14 18:08:45.597964,770153,1609507619232391,5219202363,0.798368,-0.587552,-0.28304,-1.00625,-51.28375,67.08625,-0.304,24.568,-27.032001,concentric,6,3.0,119972.0,331867.0,207841.0,316853.0,214995.0
2026-04-14 18:08:45.611423,770154,1609507619241405,5219211071,0.665632,-0.378688,-0.12688,0.67375,-54.355,67.36625,0.68,25.240002,-26.088001,concentric,6,3.0,119972.0,331867.0,207841.0,316853.0,214995.0
2026-04-14 18:08:45.615007,770155,1609507619250327,5219219780,0.665632,-0.378688,-0.12688,11.94375,-54.5825,65.21375,0.68,25.240002,-26.088001,concentric,6,3.0,119972.0,331867.0,207841.0,316853.0,214995.0
2026-04-14 18:08:45.651769,770166,1609507619265153,5219234824,0.626592,-0.343552,-0.247904,23.96625,-54.87125,60.08625,1.544,24.944,-28.04,concentric,6,3.0,111661.0,314926.0,197636.0,300490.0,205469.0
2026-04-14 18:08:45.676869,770167,1609507619274158,5219243538,0.626592,-0.343552,-0.247904,21.3325,-56.420002,56.5075,1.544,24.944,-28.04,concentric,6,3.0,111661.0,314926.0,197636.0,300490.0,205469.0
2026-04-14 18:08:45.704816,770168,1609507619288674,5219258437,0.521184,-0.486048,-0.486048,10.66625,-58.7475,58.388752,3.432,24.320002,-27.944002,concentric,6,3.0,111661.0,314926.0,197636.0,300490.0,205469.0
2026-04-14 18:08:45.705240,770169,1609507619297598,5219267165,0.521184,-0.486048,-0.486048,-2.8175,-63.28,60.26125,3.432,24.320002,-27.944002,concentric,6,3.0,111661.0,314926.0,197636.0,300490.0,205469.0
2026-04-14 18:08:45.706357,770170,1609507619306628,5219275955,0.708576,-0.650016,-0.306464,-11.917501,-66.5,63.857502,4.72,24.480001,-27.728,concentric,6,3.0,111661.0,314926.0,197636.0,300490.0,205469.0
2026-04-14 18:08:45.708863,770171,1609507619321137,5219290899,0.60512,-0.5368,-0.36112,-11.97,-69.308754,65.86125,6.064,23.936,-27.024002,concentric,6,3.0,111661.0,314926.0,197636.0,300490.0,205469.0
2026-04-14 18:08:45.712168,770172,1609507619330079,5219299591,0.60512,-0.5368,-0.36112,-3.29875,-68.145,64.33,6.064,23.936,-27.024002,concentric,6,3.0,111661.0,314926.0,197636.0,300490.0,205469.0
2026-04-14 18:08:45.714699,770173,1609507619344633,5219314619,0.589504,-0.46848,-0.464576,14.761251,-68.29375,61.4425,6.656,24.656002,-26.712002,concentric,6,3.0,111661.0,314926.0,197636.0,300490.0,205469.0
2026-04-14 18:08:45.721733,770174,1609507619353651,5219323433,0.589504,-0.46848,-0.464576,18.83875,-69.2475,56.97125,6.656,24.656002,-26.712002,concentric,6,3.0,111661.0,314926.0,197636.0,300490.0,205469.0
2026-04-14 18:08:45.749263,770185,1609507619368268,5219338434,0.560224,-0.538752,-0.480192,11.5325,-69.9475,56.13125,6.864,24.608002,-26.888,concentric,6,3.0,84291.0,291516.0,163209.0,279043.0,171102.0
2026-04-14 18:08:45.751899,770186,1609507619377337,5219347143,0.560224,-0.538752,-0.480192,2.0125,-71.86375,57.61,6.864,24.608002,-26.888,concentric,6,3.0,84291.0,291516.0,163209.0,279043.0,171102.0
2026-04-14 18:08:45.754382,770187,1609507619386451,5219355876,0.544608,-0.640256,-0.50752,-9.511251,-73.36,57.63625,7.880001,24.192001,-26.152,concentric,6,3.0,84291.0,291516.0,163209.0,279043.0,171102.0
2026-04-14 18:08:45.766576,770188,1609507619400997,5219370791,0.687104,-0.687104,-0.452864,-8.7675,-73.01,59.78,10.0,23.888,-27.312002,concentric,6,3.0,84291.0,291516.0,163209.0,279043.0,171102.0
2026-04-14 18:08:45.775196,770189,1609507619409930,5219379501,0.687104,-0.687104,-0.452864,-3.94625,-71.28625,62.78125,10.0,23.888,-27.312002,concentric,6,3.0,84291.0,291516.0,163209.0,279043.0,171102.0
2026-04-14 18:08:45.791486,770190,1609507619424561,5219394450,0.534848,-0.581696,-0.474336,6.335,-68.10125,64.07625,10.776001,23.840002,-26.304,concentric,6,3.0,84291.0,291516.0,163209.0,279043.0,171102.0
2026-04-14 18:08:45.797705,770191,1609507619433557,5219403220,0.534848,-0.581696,-0.474336,16.73875,-66.21125,62.8425,10.776001,23.840002,-26.304,concentric,6,3.0,84291.0,291516.0,163209.0,279043.0,171102.0
2026-04-14 18:08:45.808517,770192,1609507619442638,5219411971,0.515328,-0.677344,-0.540704,17.56125,-66.3425,57.74125,11.704,23.696001,-26.664001,concentric,6,3.0,84291.0,291516.0,163209.0,279043.0,171102.0
2026-04-14 18:08:45.822538,770193,1609507619457310,5219426910,0.515328,-0.677344,-0.540704,12.43375,-65.54625,55.79,11.704,23.696001,-26.664001,concentric,6,3.0,84291.0,291516.0,163209.0,279043.0,171102.0
2026-04-14 18:08:45.850286,770204,1609507619466297,5219435654,0.657824,-0.755424,-0.486048,1.79375,-63.32375,63.44625,11.6,23.048,-26.048,concentric,6,3.0,68082.0,271885.0,139826.0,262501.0,147969.0
2026-04-14 18:08:45.852834,770205,1609507619480843,5219450660,0.610976,-0.749568,-0.646112,-2.73875,-59.71875,67.97875,11.6,23.048,-28.168001,concentric,6,3.0,68082.0,271885.0,139826.0,262501.0,147969.0
2026-04-14 18:08:45.857932,770206,1609507619489859,5219459424,0.622688,-0.749568,-0.646112,5.6875,-57.11125,61.985,13.576,23.288002,-28.168001,concentric,6,3.0,68082.0,271885.0,139826.0,262501.0,147969.0
2026-04-14 18:08:45.865298,770207,1609507619498788,5219468115,0.622688,-0.749568,-0.646112,11.515,-54.71375,55.125,13.576,23.288002,-28.168001,concentric,6,3.0,68082.0,271885.0,139826.0,262501.0,147969.0
2026-04-14 18:08:45.879015,770208,1609507619513287,5219483065,0.568032,-0.724192,-0.530944,9.415,-55.25625,53.235,14.776001,22.856,-25.608002,concentric,6,3.0,68082.0,271885.0,139826.0,262501.0,147969.0
2026-04-14 18:08:45.888920,770209,1609507619522229,5219491749,0.31232,-0.79056,-0.74176,2.765,-57.6625,50.93375,14.480001,23.2,-23.224,concentric,6,3.0,68082.0,271885.0,139826.0,262501.0,147969.0
2026-04-14 18:08:45.901304,770210,1609507619536913,5219506738,0.31232,-0.79056,-0.74176,-3.61375,-59.045002,47.06625,14.480001,23.2,-23.224,concentric,6,3.0,68082.0,271885.0,139826.0,262501.0,147969.0
2026-04-14 18:08:45.911464,770211,1609507619545970,5219515446,0.386496,-0.808128,-0.60512,-9.9925,-60.48,47.76625,15.696001,22.84,-24.960001,concentric,6,3.0,68082.0,271885.0,139826.0,262501.0,147969.0
2026-04-14 18:08:45.954080,770222,1609507619561021,5219530425,0.386496,-0.808128,-0.60512,-8.82,-59.675,52.1675,15.696001,22.84,-24.960001,concentric,6,3.0,57425.0,256765.0,121999.0,250484.0,129377.0
2026-04-14 18:08:45.956565,770223,1609507619570033,5219539249,0.368928,-0.677344,-0.482144,-1.42625,-59.78875,50.58375,16.224,22.160002,-21.968,concentric,6,3.0,57425.0,256765.0,121999.0,250484.0,129377.0
2026-04-14 18:08:45.959044,770224,1609507619578949,5219547936,0.368928,-0.677344,-0.482144,-2.26625,-61.232502,44.10875,16.224,22.160002,-21.968,concentric,6,3.0,57425.0,256765.0,121999.0,250484.0,129377.0
2026-04-14 18:08:45.961463,770225,1609507619593514,5219562829,0.226432,-0.708576,-0.665632,-8.21625,-62.545002,39.235,17.576,21.824001,-25.008001,concentric,6,3.0,57425.0,256765.0,121999.0,250484.0,129377.0
2026-04-14 18:08:45.966448,770226,1609507619602497,5219571564,0.18544,-0.755424,-0.747616,-11.73375,-64.84625,37.7825,18.224,21.920002,-26.44,concentric,6,3.0,57425.0,256765.0,121999.0,250484.0,129377.0
2026-04-14 18:08:45.982787,770227,1609507619617442,5219586479,0.18544,-0.755424,-0.747616,-12.48625,-66.885,36.9425,18.224,21.920002,-26.44,concentric,6,3.0,57425.0,256765.0,121999.0,250484.0,129377.0
2026-04-14 18:08:45.991495,770228,1609507619626794,5219595296,0.284992,-0.755424,-0.466528,-10.465,-67.3225,38.15,18.592001,21.320002,-23.28,concentric,6,3.0,57425.0,256765.0,121999.0,250484.0,129377.0
2026-04-14 18:08:46.001330,770229,1609507619636771,5219606248,0.284992,-0.755424,-0.466528,-12.25,-67.29625,38.535,18.592001,21.320002,-23.28,eccentric,6,3.0,57425.0,256765.0,121999.0,250484.0,129377.0
2026-04-14 18:08:46.012069,770230,1609507619645966,5219615128,0.25376,-0.794464,-0.681248,-12.0225,-66.7275,38.9025,19.68,20.824001,-23.968,eccentric,6,3.0,57425.0,256765.0,121999.0,250484.0,129377.0
2026-04-14 18:08:46.094736,770241,1609507619660605,5219630204,0.25376,-0.794464,-0.681248,-11.03375,-66.22875,36.93375,19.68,20.824001,-23.968,eccentric,6,3.0,48857.0,227072.0,106238.0,224890.0,112375.0
2026-04-14 18:08:46.106294,770242,1609507619670028,5219639012,0.152256,-0.763232,-0.759328,-9.77375,-67.121254,34.0725,20.496,20.480001,-23.656002,eccentric,6,3.0,48857.0,227072.0,106238.0,224890.0,112375.0
2026-04-14 18:08:46.106403,770243,1609507619684542,5219653910,0.122976,-0.700768,-0.685152,-9.73875,-67.6025,30.2575,20.960001,20.216002,-23.664001,eccentric,6,3.0,48857.0,227072.0,106238.0,224890.0,112375.0
2026-04-14 18:08:46.106459,770244,1609507619693519,5219662614,0.122976,-0.700768,-0.685152,-10.1325,-67.4625,30.86125,20.960001,20.216002,-23.664001,eccentric,6,3.0,48857.0,227072.0,106238.0,224890.0,112375.0
2026-04-14 18:08:46.106510,770245,1609507619702435,5219671327,0.193248,-0.728096,-0.618784,-14.46375,-67.1825,32.4625,20.960001,20.056002,-22.832,eccentric,6,3.0,48857.0,227072.0,106238.0,224890.0,112375.0
2026-04-14 18:08:46.106558,770246,1609507619717011,5219686279,0.193248,-0.728096,-0.618784,-18.06875,-64.435,34.475,21.752,20.056002,-22.832,eccentric,6,3.0,48857.0,227072.0,106238.0,224890.0,112375.0
2026-04-14 18:08:46.110037,770247,1609507619725951,5219695052,0.242048,-0.845216,-0.813984,-20.30875,-62.16875,32.06,21.752,19.648,-21.808,eccentric,6,3.0,48857.0,227072.0,106238.0,224890.0,112375.0
2026-04-14 18:08:46.112565,770248,1609507619740461,5219709979,0.242048,-0.845216,-0.813984,-18.27875,-59.57875,30.65125,21.752,19.648,-21.808,eccentric,6,3.0,48857.0,227072.0,106238.0,224890.0,112375.0
2026-04-14 18:08:46.115076,770249,1609507619749382,5219718728,0.132736,-0.815936,-0.856928,-14.20125,-57.1025,29.11125,21.728,19.240002,-21.464,eccentric,6,3.0,48857.0,227072.0,106238.0,224890.0,112375.0
2026-04-14 18:08:46.157769,770260,1609507619764658,5219733797,0.199104,-0.845216,-0.880352,-11.66375,-56.44625,25.90875,22.800001,18.784,-22.720001,eccentric,6,3.0,41207.0,193628.0,91315.0,199395.0,95520.0
2026-04-14 18:08:46.160247,770261,1609507619773764,5219742612,0.199104,-0.845216,-0.880352,-10.0975,-55.1425,23.35375,22.800001,18.784,-22.720001,eccentric,6,3.0,41207.0,193628.0,91315.0,199395.0,95520.0
2026-04-14 18:08:46.162873,770262,1609507619783328,5219753439,0.201056,-0.899872,-0.952576,-14.7,-53.6025,24.6925,23.624,18.472,-21.824001,eccentric,6,3.0,41207.0,193628.0,91315.0,199395.0,95520.0
2026-04-14 18:08:46.190378,770263,1609507619797957,5219766342,0.201056,-0.899872,-0.952576,-16.6775,-50.30375,27.6325,23.624,18.472,-21.824001,eccentric,6,3.0,41207.0,193628.0,91315.0,199395.0,95520.0
2026-04-14 18:08:46.192697,770264,1609507619807567,5219777136,0.294752,-0.968192,-0.874496,-14.07,-46.15625,26.985,24.232,18.624,-21.976002,eccentric,6,3.0,41207.0,193628.0,91315.0,199395.0,95520.0
2026-04-14 18:08:46.195141,770265,1609507619816494,5219785836,0.294752,-0.968192,-0.874496,-1.14625,-40.075,27.3,24.232,18.624,-21.976002,eccentric,6,3.0,41207.0,193628.0,91315.0,199395.0,95520.0
2026-04-14 18:08:46.197750,770266,1609507619830942,5219800771,0.163968,-0.815936,-0.853024,11.34875,-34.44,27.116251,24.656002,18.336,-21.608002,eccentric,6,3.0,41207.0,193628.0,91315.0,199395.0,95520.0
2026-04-14 18:08:46.205141,770267,1609507619839883,5219809494,0.163968,-0.815936,-0.853024,13.51,-30.21375,25.54125,24.656002,18.336,-21.608002,eccentric,6,3.0,41207.0,193628.0,91315.0,199395.0,95520.0
2026-04-14 18:08:46.220306,770268,1609507619854384,5219824429,0.035136,-0.753472,-0.892064,10.24625,-26.78375,23.98375,24.720001,18.104,-21.272001,eccentric,6,3.0,41207.0,193628.0,91315.0,199395.0,95520.0
2026-04-14 18:08:46.256585,770279,1609507619863773,5219833254,0.066368,-0.81984,-0.642208,6.08125,-23.87875,20.53625,24.608002,17.944,-21.624,eccentric,6,3.0,39355.0,191308.0,87287.0,197536.0,91040.0
2026-04-14 18:08:46.258886,770280,1609507619872785,5219842001,0.074176,-0.81984,-0.642208,0.30625,-20.51875,19.241251,24.608002,17.944,-21.624,eccentric,6,3.0,39355.0,191308.0,87287.0,197536.0,91040.0
2026-04-14 18:08:46.267316,770281,1609507619887408,5219857009,0.081984,-0.772992,-0.655872,2.82625,-17.43875,21.7,24.016,18.36,-20.224,eccentric,6,3.0,39355.0,191308.0,87287.0,197536.0,91040.0
2026-04-14 18:08:46.267404,770282,1609507619896532,5219865732,0.081984,-0.772992,-0.655872,8.44375,-16.31,23.68625,24.016,18.36,-20.224,eccentric,6,3.0,39355.0,191308.0,87287.0,197536.0,91040.0
2026-04-14 18:08:46.276555,770283,1609507619911019,5219880761,0.05856,-0.75152,-0.56608,12.38125,-14.28875,23.26625,24.336,18.208,-19.744001,eccentric,6,3.0,39355.0,191308.0,87287.0,197536.0,91040.0
2026-04-14 18:08:46.286350,770284,1609507619919932,5219889449,0.05856,-0.75152,-0.56608,9.7125,-13.9125,20.76375,24.336,18.208,-19.744001,eccentric,6,3.0,39355.0,191308.0,87287.0,197536.0,91040.0
2026-04-14 18:08:46.293951,770285,1609507619928860,5219898151,0.003904,-0.815936,-0.620736,3.70125,-14.02625,18.725,24.584002,18.024,-20.488,eccentric,6,3.0,39355.0,191308.0,87287.0,197536.0,91040.0
2026-04-14 18:08:46.310333,770286,1609507619943390,5219913142,0.003904,-0.815936,-0.782752,1.61875,-14.6475,17.255,24.584002,18.024,-20.488,eccentric,6,3.0,39355.0,191308.0,87287.0,197536.0,91040.0
2026-04-14 18:08:46.317848,770287,1609507619952316,5219921834,-0.021472,-0.792512,-0.782752,2.14375,-15.645,15.72375,25.12,17.480001,-21.752,eccentric,6,3.0,39355.0,191308.0,87287.0,197536.0,91040.0
2026-04-14 18:08:46.356426,770298,1609507619966935,5219936853,0.12688,-0.874496,-0.622688,-0.93625,-15.645,13.5975,25.44,17.264,-20.832,eccentric,6,3.0,39419.0,192167.0,87128.0,198350.0,90894.0
2026-04-14 18:08:46.359213,770299,1609507619975914,5219945651,0.12688,-0.874496,-0.622688,-9.98375,-16.45,11.042501,25.44,17.264,-20.832,eccentric,6,3.0,39419.0,192167.0,87128.0,198350.0,90894.0
2026-04-14 18:08:46.359998,770300,1609507619990495,5219960583,0.089792,-0.853024,-0.618784,-13.51,-16.8875,10.17625,25.256,17.696001,-19.064001,eccentric,6,3.0,39419.0,192167.0,87128.0,198350.0,90894.0
2026-04-14 18:08:46.365472,770301,1609507619999506,5219969269,0.089792,-0.853024,-0.618784,-13.78125,-17.3425,6.67625,25.256,17.696001,-19.064001,eccentric,6,3.0,39419.0,192167.0,87128.0,198350.0,90894.0
2026-04-14 18:08:46.372997,770302,1609507620008619,5219977997,0.017568,-0.882304,-0.894016,-17.36,-17.0275,3.35125,25.640001,17.088001,-19.712002,eccentric,6,3.0,39419.0,192167.0,87128.0,198350.0,90894.0
2026-04-14 18:08:46.411879,770303,1609507620023187,5219992911,0.017568,-0.882304,-0.894016,-22.21625,-16.3275,1.0325,25.640001,17.088001,-19.712002,eccentric,6,3.0,39419.0,192167.0,87128.0,198350.0,90894.0
2026-04-14 18:08:46.414409,770304,1609507620032096,5220001588,0.07808,-0.905728,-0.794464,-27.50125,-15.05,-1.16375,25.36,17.368,-21.712002,eccentric,6,3.0,39419.0,192167.0,87128.0,198350.0,90894.0
2026-04-14 18:08:46.416834,770305,1609507620046589,5220016488,0.081984,-0.921344,-0.921344,-29.575,-13.25625,-3.3775,25.968,16.896,-20.608002,eccentric,6,3.0,39419.0,192167.0,87128.0,198350.0,90894.0
2026-04-14 18:08:46.439435,770306,1609507620055545,5220025275,0.081984,-0.921344,-0.921344,-29.8025,-9.84375,-6.15125,25.968,16.896,-20.608002,eccentric,6,3.0,39419.0,192167.0,87128.0,198350.0,90894.0
2026-04-14 18:08:46.468866,770317,1609507620070130,5220040272,0.15616,-0.942816,-0.862784,-27.545,-4.4625,-9.65125,25.968,16.584002,-21.064001,eccentric,6,3.0,39517.0,192513.0,87133.0,198549.0,90913.0
2026-04-14 18:08:46.471449,770318,1609507620079089,5220049037,0.15616,-0.942816,-0.862784,-25.83,1.2775,-13.53625,25.968,16.584002,-21.064001,eccentric,6,3.0,39517.0,192513.0,87133.0,198549.0,90913.0
2026-04-14 18:08:46.473954,770319,1609507620088062,5220057827,0.054656,-0.86864,-0.856928,-23.178751,6.7375,-16.42375,25.616001,16.608002,-20.392,eccentric,6,3.0,39517.0,192513.0,87133.0,198549.0,90913.0
2026-04-14 18:08:46.476484,770320,1609507620102563,5220072850,0.054656,-0.86864,-0.856928,-22.9425,11.5675,-19.1975,25.616001,16.608002,-20.392,eccentric,6,3.0,39517.0,192513.0,87133.0,198549.0,90913.0
2026-04-14 18:08:46.478934,770321,1609507620111516,5220081563,0.154208,-0.942816,-0.79056,-24.115,16.8525,-21.62125,25.496,16.904001,-20.624,eccentric,6,3.0,39517.0,192513.0,87133.0,198549.0,90913.0
2026-04-14 18:08:46.491460,770322,1609507620126053,5220094431,0.10736,-0.895968,-0.786656,-23.975,22.9075,-24.75375,24.264002,17.216002,-22.968,eccentric,6,3.0,39517.0,192513.0,87133.0,198549.0,90913.0
2026-04-14 18:08:46.501593,770323,1609507620135473,5220105236,0.10736,-0.895968,-0.786656,-16.73875,29.4525,-27.57125,24.264002,17.216002,-22.968,eccentric,6,3.0,39517.0,192513.0,87133.0,198549.0,90913.0
2026-04-14 18:08:46.509043,770324,1609507620144413,5220113943,0.10736,-0.895968,-0.786656,-9.2575,34.2125,-32.82125,24.264002,17.216002,-22.968,eccentric,6,3.0,39517.0,192513.0,87133.0,198549.0,90913.0
2026-04-14 18:08:46.525201,770325,1609507620159071,5220128874,0.199104,-0.890112,-0.85888,-5.95,38.80625,-36.65375,24.928001,17.04,-20.152,eccentric,6,3.0,39517.0,192513.0,87133.0,198549.0,90913.0
2026-04-14 18:08:46.552689,770336,1609507620168109,5220138073,0.152256,-0.921344,-0.942816,-7.4725,43.2425,-41.86,24.400002,17.528002,-22.472,eccentric,6,3.0,41103.0,200787.0,89810.0,206262.0,93953.0
2026-04-14 18:08:46.556186,770337,1609507620182626,5220151117,0.152256,-0.921344,-0.942816,-5.18,45.675,-44.9575,24.400002,17.528002,-22.472,eccentric,6,3.0,41103.0,200787.0,89810.0,206262.0,93953.0
2026-04-14 18:08:46.557810,770338,1609507620191990,5220161909,0.212768,-0.884256,-0.903776,-2.75625,47.78375,-47.73125,23.728,17.904001,-22.528002,eccentric,6,3.0,41103.0,200787.0,89810.0,206262.0,93953.0
2026-04-14 18:08:46.566267,770339,1609507620200912,5220170608,0.212768,-0.884256,-0.903776,0.51625,51.5025,-50.16375,23.728,17.904001,-22.528002,eccentric,6,3.0,41103.0,200787.0,89810.0,206262.0,93953.0
2026-04-14 18:08:46.583950,770340,1609507620215418,5220185484,0.142496,-0.81008,-0.815936,2.49375,55.3,-53.4975,22.328001,18.544,-22.44,eccentric,6,3.0,41103.0,200787.0,89810.0,206262.0,93953.0
2026-04-14 18:08:46.588897,770341,1609507620224429,5220194240,0.142496,-0.81008,-0.815936,5.08375,59.045002,-56.2975,22.328001,18.544,-22.44,eccentric,6,3.0,41103.0,200787.0,89810.0,206262.0,93953.0
2026-04-14 18:08:46.605303,770342,1609507620238933,5220209156,0.245952,-0.784704,-0.691008,6.3525,61.15375,-59.4125,20.800001,19.2,-23.400002,eccentric,6,3.0,41103.0,200787.0,89810.0,206262.0,93953.0
2026-04-14 18:08:46.615317,770343,1609507620247871,5220217843,0.218624,-0.76128,-0.925248,6.76375,63.23625,-61.6875,21.632002,19.304,-25.544,eccentric,6,3.0,41103.0,200787.0,89810.0,206262.0,93953.0
2026-04-14 18:08:46.655281,770354,1609507620262346,5220232644,0.218624,-0.76128,-0.925248,5.39,65.38875,-64.75,21.632002,19.304,-25.544,eccentric,6,3.0,42488.0,207770.0,92327.0,212023.0,96782.0
2026-04-14 18:08:46.656991,770355,1609507620271342,5220241368,0.238144,-0.825696,-0.93696,-3.17625,67.2175,-68.48625,20.632002,19.984001,-24.112001,eccentric,6,3.0,42488.0,207770.0,92327.0,212023.0,96782.0
2026-04-14 18:08:46.659997,770356,1609507620280477,5220250165,0.238144,-0.825696,-0.93696,-8.56625,69.86875,-70.27125,20.632002,19.984001,-24.112001,eccentric,6,3.0,42488.0,207770.0,92327.0,212023.0,96782.0
2026-04-14 18:08:46.664960,770357,1609507620294984,5220265058,0.4392,-0.860832,-0.694912,-10.56125,72.275,-71.96,19.688002,20.736,-23.248001,eccentric,6,3.0,42488.0,207770.0,92327.0,212023.0,96782.0
2026-04-14 18:08:46.669989,770358,1609507620303921,5220273874,0.4392,-0.860832,-0.694912,-8.14625,75.845,-72.07375,19.688002,20.736,-23.248001,eccentric,6,3.0,42488.0,207770.0,92327.0,212023.0,96782.0
