pc_time,serial_num,sensor_ts,host_ts,ax,ay,az,gx,gy,gz,mx,my,mz,phase,rpe,weight_kg,ppg_a,ppg_b,ppg_c,ppg_d,ppg_e,ppg_f,ppg_g,ppg_h,ppg_i,ppg_j
2026-05-06 15:47:20.795059,377805,1609504704282351,2304194134,0.925248,-0.031232,-0.01952,-3.99,-0.735,-2.905,-35.536003,-17.640001,-87.656006,none,3,5.0,38146.0,46885.0,73511.0,105019.0,33181.0,54234.0,30844.0,59588.0,21514.0,18941.0
2026-05-06 15:47:20.799858,377806,1609504704296954,2304209305,0.905728,-0.035136,-0.027328,-3.70125,-0.49875,-2.59875,-35.384003,-18.256,-87.064,none,3,5.0,38146.0,46885.0,73511.0,105019.0,33181.0,54234.0,30844.0,59588.0,21514.0,18941.0
2026-05-06 15:47:20.803660,377807,1609504704306008,2304218003,0.905728,-0.035136,-0.027328,-3.8675,-0.4025,-2.52875,-35.384003,-18.256,-87.064,none,3,5.0,38146.0,46885.0,73511.0,105019.0,33181.0,54234.0,30844.0,59588.0,21514.0,18941.0
2026-05-06 15:47:20.811152,377808,1609504704320555,2304233011,0.91744,-0.027328,0.00976,-4.06,-0.63,-2.87,-35.0,-16.456001,-87.48,none,3,5.0,38146.0,46885.0,73511.0,105019.0,33181.0,54234.0,30844.0,59588.0,21514.0,18941.0
2026-05-06 15:47:20.821029,377809,1609504704329591,2304241713,0.91744,-0.027328,0.00976,-2.56375,-0.72625,-2.9225,-35.0,-16.456001,-87.48,none,3,5.0,38146.0,46885.0,73511.0,105019.0,33181.0,54234.0,30844.0,59588.0,21514.0,18941.0
2026-05-06 15:47:20.829935,377810,1609504704338572,2304250465,0.90768,-0.005856,0.01952,-0.91875,-0.98,-3.19375,-35.768,-15.792001,-89.064,none,3,5.0,38146.0,46885.0,73511.0,105019.0,33181.0,54234.0,30844.0,59588.0,21514.0,18941.0
2026-05-06 15:47:20.862678,377811,1609504704353077,2304265380,0.925248,-0.025376,-0.001952,-0.35,-1.07625,-3.87625,-35.272003,-14.200001,-89.192,none,3,5.0,38146.0,46885.0,73511.0,105019.0,33181.0,54234.0,30844.0,59588.0,21514.0,18941.0
2026-05-06 15:47:20.864956,377812,1609504704362006,2304274101,0.925248,-0.025376,-0.001952,-1.30375,-0.77,-4.08625,-35.272003,-14.200001,-89.192,none,3,5.0,38146.0,46885.0,73511.0,105019.0,33181.0,54234.0,30844.0,59588.0,21514.0,18941.0
2026-05-06 15:47:20.867602,377813,1609504704376489,2304289009,0.915488,-0.027328,0.033184,-2.44125,-0.77875,-4.05125,-34.936,-14.528001,-88.928,none,3,5.0,38146.0,46885.0,73511.0,105019.0,33181.0,54234.0,30844.0,59588.0,21514.0,18941.0
2026-05-06 15:47:20.897327,377824,1609504704385608,2304297951,0.915488,-0.027328,0.033184,-3.21125,-0.455,-3.70125,-34.936,-14.528001,-88.928,none,3,5.0,38002.0,46726.0,73492.0,104911.0,33175.0,54253.0,30848.0,59572.0,21503.0,18927.0
2026-05-06 15:47:20.899782,377825,1609504704400342,2304312940,0.913536,-0.02928,0.0,-2.6775,-0.4375,-4.03375,-35.144,-14.248001,-88.688,none,3,5.0,38002.0,46726.0,73492.0,104911.0,33175.0,54253.0,30848.0,59572.0,21503.0,18927.0
2026-05-06 15:47:20.902510,377826,1609504704409352,2304321669,0.913536,-0.02928,0.0,-1.3125,-0.1575,-3.9025,-35.144,-14.248001,-88.688,none,3,5.0,38002.0,46726.0,73492.0,104911.0,33175.0,54253.0,30848.0,59572.0,21503.0,18927.0
2026-05-06 15:47:20.908805,377827,1609504704418371,2304330395,0.913536,-0.015616,0.01952,-0.5775,0.07875,-3.43,-35.408,-14.184001,-88.16,none,3,5.0,38002.0,46726.0,73492.0,104911.0,33175.0,54253.0,30848.0,59572.0,21503.0,18927.0
2026-05-06 15:47:20.955091,377828,1609504704432897,2304345303,0.919392,-0.031232,-0.001952,-1.26,-0.1225,-3.395,-35.456,-14.432001,-90.568,none,3,5.0,38002.0,46726.0,73492.0,104911.0,33175.0,54253.0,30848.0,59572.0,21503.0,18927.0
2026-05-06 15:47:20.980150,377829,1609504704441824,2304354053,0.919392,-0.031232,-0.001952,-2.77375,-0.175,-2.26625,-35.456,-14.432001,-90.568,none,3,5.0,38002.0,46726.0,73492.0,104911.0,33175.0,54253.0,30848.0,59572.0,21503.0,18927.0
2026-05-06 15:47:20.985259,377830,1609504704456377,2304369033,0.913536,-0.031232,-0.003904,-4.03375,0.14,-1.8025,-35.184002,-14.488001,-88.856,none,3,5.0,38002.0,46726.0,73492.0,104911.0,33175.0,54253.0,30848.0,59572.0,21503.0,18927.0
2026-05-06 15:47:20.987716,377831,1609504704465298,2304377729,0.913536,-0.031232,-0.003904,-3.22875,0.035,-1.68875,-35.184002,-14.488001,-88.856,none,3,5.0,38002.0,46726.0,73492.0,104911.0,33175.0,54253.0,30848.0,59572.0,21503.0,18927.0
2026-05-06 15:47:20.990228,377832,1609504704474236,2304386417,0.933056,-0.01952,0.017568,-2.2575,-0.1925,-1.54875,-34.968002,-14.208001,-88.672005,none,3,5.0,38002.0,46726.0,73492.0,104911.0,33175.0,54253.0,30848.0,59572.0,21503.0,18927.0
2026-05-06 15:47:21.021775,377843,1609504704488827,2304401431,0.933056,-0.01952,0.017568,-2.065,-0.2975,-1.855,-34.968002,-14.208001,-88.672005,none,3,5.0,38009.0,46708.0,73436.0,104746.0,33160.0,54211.0,30794.0,59421.0,21498.0,18911.0
2026-05-06 15:47:21.025549,377844,1609504704497866,2304410179,0.9272,-0.005856,0.015616,-1.785,-0.53375,-1.93375,-35.36,-14.240001,-88.816,none,3,5.0,38009.0,46708.0,73436.0,104746.0,33160.0,54211.0,30794.0,59421.0,21498.0,18911.0
2026-05-06 15:47:21.026098,377845,1609504704512578,2304425153,0.933056,-0.021472,0.033184,-0.44625,-0.77,-2.89625,-35.184002,-16.032001,-87.672005,none,3,5.0,38009.0,46708.0,73436.0,104746.0,33160.0,54211.0,30794.0,59421.0,21498.0,18911.0
2026-05-06 15:47:21.028472,377846,1609504704521620,2304433910,0.933056,-0.021472,0.033184,-0.62125,-0.88375,-3.5175,-35.184002,-16.032001,-87.672005,none,3,5.0,38009.0,46708.0,73436.0,104746.0,33160.0,54211.0,30794.0,59421.0,21498.0,18911.0
2026-05-06 15:47:21.031249,377847,1609504704530605,2304442638,0.933056,-0.021472,0.033184,-1.65375,-0.945,-3.24625,-35.184002,-16.032001,-87.672005,none,3,5.0,38009.0,46708.0,73436.0,104746.0,33160.0,54211.0,30794.0,59421.0,21498.0,18911.0
2026-05-06 15:47:21.034683,377848,1609504704545121,2304457648,0.929152,-0.027328,0.027328,-2.47625,-0.42,-3.85,-35.008003,-14.512001,-89.008,none,3,5.0,38009.0,46708.0,73436.0,104746.0,33160.0,54211.0,30794.0,59421.0,21498.0,18911.0
2026-05-06 15:47:21.048797,377849,1609504704554041,2304466352,0.921344,-0.02928,0.003904,-2.47625,-0.21875,-3.94625,-35.280003,-15.752001,-87.424,none,3,5.0,38009.0,46708.0,73436.0,104746.0,33160.0,54211.0,30794.0,59421.0,21498.0,18911.0
2026-05-06 15:47:21.062632,377850,1609504704568558,2304481294,0.921344,-0.02928,0.003904,-2.3625,-0.20125,-4.54125,-35.280003,-15.752001,-87.424,none,3,5.0,38009.0,46708.0,73436.0,104746.0,33160.0,54211.0,30794.0,59421.0,21498.0,18911.0
2026-05-06 15:47:21.071391,377851,1609504704577471,2304489974,0.911584,0.0,0.02928,-3.185,-0.42875,-4.24375,-35.440002,-16.008001,-87.73601,none,3,5.0,38009.0,46708.0,73436.0,104746.0,33160.0,54211.0,30794.0,59421.0,21498.0,18911.0
2026-05-06 15:47:21.098910,377862,1609504704592050,2304503200,0.911584,0.0,0.00976,-3.43,-0.07,-4.38375,-35.440002,-16.008001,-87.73601,none,3,5.0,37966.0,46654.0,73365.0,104699.0,33120.0,54156.0,30788.0,59395.0,21455.0,18891.0
2026-05-06 15:47:21.101428,377863,1609504704601682,2304514051,0.89792,-0.003904,0.00976,-2.9225,0.09625,-5.08375,-35.264,-14.896001,-88.96001,none,3,5.0,37966.0,46654.0,73365.0,104699.0,33120.0,54156.0,30788.0,59395.0,21455.0,18891.0
2026-05-06 15:47:21.106971,377864,1609504704610727,2304522786,0.89792,-0.003904,0.00976,-3.22875,0.315,-4.85625,-35.264,-14.896001,-88.96001,none,3,5.0,37966.0,46654.0,73365.0,104699.0,33120.0,54156.0,30788.0,59395.0,21455.0,18891.0
2026-05-06 15:47:21.120175,377865,1609504704625271,2304537726,0.89792,-0.027328,-0.033184,-4.4275,0.41125,-5.06625,-35.384003,-14.592001,-89.304,none,3,5.0,37966.0,46654.0,73365.0,104699.0,33120.0,54156.0,30788.0,59395.0,21455.0,18891.0
2026-05-06 15:47:21.123873,377866,1609504704634255,2304546508,0.903776,-0.02928,-0.00976,-4.75125,0.6475,-4.83875,-35.4,-14.68,-90.992004,none,3,5.0,37966.0,46654.0,73365.0,104699.0,33120.0,54156.0,30788.0,59395.0,21455.0,18891.0
2026-05-06 15:47:21.157718,377867,1609504704648721,2304561428,0.903776,-0.02928,-0.00976,-4.48875,0.875,-4.4275,-35.4,-14.68,-90.992004,none,3,5.0,37966.0,46654.0,73365.0,104699.0,33120.0,54156.0,30788.0,59395.0,21455.0,18891.0
2026-05-06 15:47:21.160243,377868,1609504704657632,2304570177,0.909632,-0.001952,0.025376,-3.43,0.58625,-4.55875,-34.784,-15.104001,-88.47201,none,3,5.0,37966.0,46654.0,73365.0,104699.0,33120.0,54156.0,30788.0,59395.0,21455.0,18891.0
2026-05-06 15:47:21.162751,377869,1609504704666558,2304578861,0.909632,-0.001952,0.025376,-2.135,0.4375,-4.0075,-34.784,-15.104001,-88.47201,none,3,5.0,37966.0,46654.0,73365.0,104699.0,33120.0,54156.0,30788.0,59395.0,21455.0,18891.0
2026-05-06 15:47:21.171279,377870,1609504704681068,2304591841,0.923296,-0.00976,0.021472,-1.16375,0.77,-3.6575,-34.960003,-14.512001,-89.11201,none,3,5.0,37966.0,46654.0,73365.0,104699.0,33120.0,54156.0,30788.0,59395.0,21455.0,18891.0
2026-05-06 15:47:21.200373,377881,1609504704690412,2304602705,0.923296,-0.00976,0.021472,-2.5725,0.6125,-3.325,-34.960003,-14.512001,-89.11201,none,3,5.0,37974.0,46627.0,73373.0,104733.0,33096.0,54148.0,30782.0,59420.0,21487.0,18885.0
2026-05-06 15:47:21.206527,377882,1609504704704965,2304617715,0.909632,-0.02928,0.005856,-3.89375,0.455,-2.555,-35.176003,-16.640001,-87.784004,none,3,5.0,37974.0,46627.0,73373.0,104733.0,33096.0,54148.0,30782.0,59420.0,21487.0,18885.0
2026-05-06 15:47:21.206617,377883,1609504704713953,2304626420,0.923296,-0.035136,-0.003904,-4.8125,0.83125,-2.4325,-35.344,-15.944001,-87.136,none,3,5.0,37974.0,46627.0,73373.0,104733.0,33096.0,54148.0,30782.0,59420.0,21487.0,18885.0
2026-05-06 15:47:21.220046,377884,1609504704728452,2304639419,0.923296,-0.035136,-0.003904,-5.04,1.26,-1.9775,-35.344,-15.944001,-87.136,none,3,5.0,37974.0,46627.0,73373.0,104733.0,33096.0,54148.0,30782.0,59420.0,21487.0,18885.0
2026-05-06 15:47:21.228667,377885,1609504704737845,2304650239,0.919392,-0.017568,0.00976,-4.2,1.21625,-1.65375,-35.088,-14.688001,-88.58401,none,3,5.0,37974.0,46627.0,73373.0,104733.0,33096.0,54148.0,30782.0,59420.0,21487.0,18885.0
2026-05-06 15:47:21.237639,377886,1609504704746794,2304658930,0.919392,-0.017568,0.00976,-2.695,0.98875,-1.53125,-35.088,-14.688001,-88.58401,none,3,5.0,37974.0,46627.0,73373.0,104733.0,33096.0,54148.0,30782.0,59420.0,21487.0,18885.0
2026-05-06 15:47:21.252703,377887,1609504704761361,2304673917,0.90768,-0.001952,0.015616,-2.9225,0.875,-1.8725,-35.112003,-15.104001,-89.576004,none,3,5.0,37974.0,46627.0,73373.0,104733.0,33096.0,54148.0,30782.0,59420.0,21487.0,18885.0
2026-05-06 15:47:21.261459,377888,1609504704770341,2304682702,0.90768,-0.001952,0.015616,-4.235,0.76125,-1.42625,-35.112003,-15.104001,-89.576004,none,3,5.0,37974.0,46627.0,73373.0,104733.0,33096.0,54148.0,30782.0,59420.0,21487.0,18885.0
2026-05-06 15:47:21.302964,377899,1609504704785326,2304696136,0.915488,-0.015616,0.02928,-5.34625,1.63625,-1.46125,-35.264,-15.272,-88.656006,none,3,5.0,37854.0,46539.0,73257.0,104661.0,32971.0,54071.0,30731.0,59379.0,21425.0,18869.0
2026-05-06 15:47:21.303125,377900,1609504704794665,2304706991,0.921344,-0.027328,0.050752,-5.635,1.53125,-2.3275,-35.248,-14.952001,-87.976006,none,3,5.0,37854.0,46539.0,73257.0,104661.0,32971.0,54071.0,30731.0,59379.0,21425.0,18869.0
2026-05-06 15:47:21.327508,377901,1609504704803605,2304715756,0.921344,-0.027328,0.050752,-6.60625,1.3475,-2.0475,-35.248,-14.952001,-87.976006,none,3,5.0,37854.0,46539.0,73257.0,104661.0,32971.0,54071.0,30731.0,59379.0,21425.0,18869.0
2026-05-06 15:47:21.352691,377902,1609504704818130,2304730696,0.923296,-0.027328,0.035136,-6.27375,1.05,-1.575,-35.048,-15.976001,-87.688,none,3,5.0,37854.0,46539.0,73257.0,104661.0,32971.0,54071.0,30731.0,59379.0,21425.0,18869.0
2026-05-06 15:47:21.377686,377903,1609504704827031,2304739536,0.923296,-0.027328,0.035136,-5.4425,1.0325,-1.9775,-35.048,-15.976001,-87.688,none,3,5.0,37854.0,46539.0,73257.0,104661.0,32971.0,54071.0,30731.0,59379.0,21425.0,18869.0
2026-05-06 15:47:21.402447,377904,1609504704841711,2304752456,0.915488,0.0,0.00976,-5.67875,1.085,-2.3975,-35.312,-14.68,-87.616005,none,3,5.0,37854.0,46539.0,73257.0,104661.0,32971.0,54071.0,30731.0,59379.0,21425.0,18869.0
2026-05-06 15:47:21.413726,377905,1609504704850919,2304763268,0.915488,0.0,0.00976,-4.92625,0.8575,-2.45875,-35.312,-14.68,-87.616005,none,3,5.0,37854.0,46539.0,73257.0,104661.0,32971.0,54071.0,30731.0,59379.0,21425.0,18869.0
2026-05-06 15:47:21.416078,377906,1609504704859908,2304771968,0.923296,-0.015616,0.013664,-4.2175,0.49875,-3.00125,-35.2,-15.288001,-88.504005,none,3,5.0,37854.0,46539.0,73257.0,104661.0,32971.0,54071.0,30731.0,59379.0,21425.0,18869.0
2026-05-06 15:47:21.418675,377907,1609504704874414,2304786868,0.923296,-0.046848,0.023424,-5.08375,0.5075,-3.26375,-35.2,-15.288001,-88.504005,none,3,5.0,37854.0,46539.0,73257.0,104661.0,32971.0,54071.0,30731.0,59379.0,21425.0,18869.0
2026-05-06 15:47:21.453614,377918,1609504704883340,2304795695,0.919392,-0.037088,0.023424,-6.545,0.79625,-3.08,-35.424,-14.800001,-88.496,none,3,5.0,37755.0,46552.0,73296.0,104621.0,32946.0,54089.0,30765.0,59381.0,21402.0,18878.0
2026-05-06 15:47:21.456211,377919,1609504704898361,2304810674,0.91744,-0.017568,0.02928,-7.44625,1.16375,-3.47375,-35.472,-18.392,-86.200005,none,3,5.0,37755.0,46552.0,73296.0,104621.0,32946.0,54089.0,30765.0,59381.0,21402.0,18878.0
2026-05-06 15:47:21.458617,377920,1609504704907359,2304819385,0.91744,-0.017568,0.02928,-6.09,0.945,-3.01875,-35.472,-18.392,-86.200005,none,3,5.0,37755.0,46552.0,73296.0,104621.0,32946.0,54089.0,30765.0,59381.0,21402.0,18878.0
2026-05-06 15:47:21.461146,377921,1609504704916285,2304828050,0.919392,-0.005856,0.00976,-4.20875,0.58625,-2.7475,-35.480003,-15.088,-90.248,none,3,5.0,37755.0,46552.0,73296.0,104621.0,32946.0,54089.0,30765.0,59381.0,21402.0,18878.0
2026-05-06 15:47:21.463626,377922,1609504704930919,2304842956,0.919392,-0.005856,0.00976,-3.36,1.19875,-2.975,-35.480003,-15.088,-90.248,none,3,5.0,37755.0,46552.0,73296.0,104621.0,32946.0,54089.0,30765.0,59381.0,21402.0,18878.0
2026-05-06 15:47:21.469767,377923,1609504704940093,2304851720,0.903776,-0.007808,0.011712,-4.0425,1.575,-2.4675,-35.456,-15.072001,-88.54401,none,3,5.0,37755.0,46552.0,73296.0,104621.0,32946.0,54089.0,30765.0,59381.0,21402.0,18878.0
2026-05-06 15:47:21.471030,377924,1609504704954714,2304866703,0.903776,-0.007808,0.011712,-5.57375,0.6825,-3.03625,-35.456,-15.072001,-88.54401,none,3,5.0,37755.0,46552.0,73296.0,104621.0,32946.0,54089.0,30765.0,59381.0,21402.0,18878.0
2026-05-06 15:47:21.476353,377925,1609504704963770,2304875493,0.9272,-0.01952,0.044896,-6.99125,0.70875,-3.2375,-35.544003,-14.592001,-88.104004,none,3,5.0,37755.0,46552.0,73296.0,104621.0,32946.0,54089.0,30765.0,59381.0,21402.0,18878.0
2026-05-06 15:47:21.476520,377926,1609504704972701,2304884265,0.9272,-0.01952,0.044896,-6.58,0.91875,-3.3775,-35.544003,-14.592001,-88.104004,none,3,5.0,37755.0,46552.0,73296.0,104621.0,32946.0,54089.0,30765.0,59381.0,21402.0,18878.0
2026-05-06 15:47:21.503746,377937,1609504704987802,2304899516,0.909632,-0.005856,0.007808,-4.2525,0.525,-3.5175,-35.824,-16.52,-87.328,none,3,5.0,37625.0,46533.0,73322.0,104634.0,32920.0,54127.0,30805.0,59415.0,21381.0,18902.0
2026-05-06 15:47:21.506309,377938,1609504704996951,2304908377,0.919392,-0.015616,0.011712,-3.14125,-0.00875,-3.5875,-35.816,-16.832,-87.28001,none,3,5.0,37625.0,46533.0,73322.0,104634.0,32920.0,54127.0,30805.0,59415.0,21381.0,18902.0
2026-05-06 15:47:21.508822,377939,1609504705011726,2304923408,0.919392,-0.015616,0.011712,-3.955,0.2275,-3.605,-35.816,-16.832,-87.28001,none,3,5.0,37625.0,46533.0,73322.0,104634.0,32920.0,54127.0,30805.0,59415.0,21381.0,18902.0
2026-05-06 15:47:21.511325,377940,1609504705020836,2304932183,0.903776,-0.015616,0.005856,-3.71,0.30625,-3.5525,-35.56,-17.192001,-87.04,none,3,5.0,37625.0,46533.0,73322.0,104634.0,32920.0,54127.0,30805.0,59415.0,21381.0,18902.0
2026-05-06 15:47:21.520085,377941,1609504705029875,2304940964,0.903776,-0.015616,0.005856,-2.9225,-0.30625,-3.3425,-35.56,-17.192001,-87.04,none,3,5.0,37625.0,46533.0,73322.0,104634.0,32920.0,54127.0,30805.0,59415.0,21381.0,18902.0
2026-05-06 15:47:21.547688,377942,1609504705044703,2304955887,0.899872,-0.027328,-0.015616,-3.26375,-0.13125,-3.22875,-35.544003,-14.944,-88.784004,none,3,5.0,37625.0,46533.0,73322.0,104634.0,32920.0,54127.0,30805.0,59415.0,21381.0,18902.0
2026-05-06 15:47:21.549925,377943,1609504705054040,2304966710,0.899872,-0.027328,-0.015616,-3.98125,-0.00875,-2.80875,-35.544003,-14.944,-88.784004,none,3,5.0,37625.0,46533.0,73322.0,104634.0,32920.0,54127.0,30805.0,59415.0,21381.0,18902.0
2026-05-06 15:47:21.552581,377944,1609504705062952,2304975416,0.90768,-0.021472,-0.003904,-3.1325,-0.48125,-2.31875,-35.480003,-15.112,-89.008,none,3,5.0,37625.0,46533.0,73322.0,104634.0,32920.0,54127.0,30805.0,59415.0,21381.0,18902.0
2026-05-06 15:47:21.566777,377945,1609504705077438,2304988290,0.913536,-0.013664,0.035136,-1.4175,-0.49875,-2.09125,-35.640003,-15.416,-89.624,none,3,5.0,37625.0,46533.0,73322.0,104634.0,32920.0,54127.0,30805.0,59415.0,21381.0,18902.0
2026-05-06 15:47:21.606348,377956,1609504705087176,2304999114,0.913536,-0.013664,0.035136,0.14,-0.04375,-2.345,-35.640003,-15.416,-89.624,none,3,5.0,37603.0,46462.0,73264.0,104394.0,32834.0,54067.0,30757.0,59267.0,21352.0,18875.0
2026-05-06 15:47:21.608810,377957,1609504705101872,2305014122,0.913536,-0.013664,0.044896,-0.3675,-0.55125,-1.82875,-35.416,-14.952001,-88.272,none,3,5.0,37603.0,46462.0,73264.0,104394.0,32834.0,54067.0,30757.0,59267.0,21352.0,18875.0
2026-05-06 15:47:21.611385,377958,1609504705110857,2305022884,0.913536,-0.013664,0.044896,-2.49375,-0.72625,-1.2075,-35.416,-14.952001,-88.272,none,3,5.0,37603.0,46462.0,73264.0,104394.0,32834.0,54067.0,30757.0,59267.0,21352.0,18875.0
2026-05-06 15:47:21.613803,377959,1609504705119809,2305031595,0.909632,-0.01952,0.031232,-3.12375,-0.665,-1.7325,-35.600002,-16.424002,-87.312004,none,3,5.0,37603.0,46462.0,73264.0,104394.0,32834.0,54067.0,30757.0,59267.0,21352.0,18875.0
2026-05-06 15:47:21.627272,377960,1609504705134335,2305046543,0.909632,-0.01952,0.031232,-2.4325,-0.735,-1.75,-35.600002,-16.424002,-87.312004,none,3,5.0,37603.0,46462.0,73264.0,104394.0,32834.0,54067.0,30757.0,59267.0,21352.0,18875.0
2026-05-06 15:47:21.633628,377961,1609504705143250,2305055267,0.915488,-0.025376,0.02928,-2.47625,-0.98,-1.54875,-35.52,-15.944001,-88.296005,none,3,5.0,37603.0,46462.0,73264.0,104394.0,32834.0,54067.0,30757.0,59267.0,21352.0,18875.0
2026-05-06 15:47:21.648831,377962,1609504705157729,2305070368,0.89792,-0.027328,-0.005856,-1.2425,-1.015,-1.49625,-35.424,-16.632,-90.704,none,3,5.0,37603.0,46462.0,73264.0,104394.0,32834.0,54067.0,30757.0,59267.0,21352.0,18875.0
2026-05-06 15:47:21.660215,377963,1609504705166651,2305079087,0.89792,-0.027328,-0.005856,-0.39375,-1.0325,-1.015,-35.424,-16.632,-90.704,none,3,5.0,37603.0,46462.0,73264.0,104394.0,32834.0,54067.0,30757.0,59267.0,21352.0,18875.0
2026-05-06 15:47:21.695074,377964,1609504705181282,2305093980,0.901824,-0.023424,0.021472,-0.9275,-1.40875,-1.155,-35.672,-16.944,-87.656006,none,3,5.0,37603.0,46462.0,73264.0,104394.0,32834.0,54067.0,30757.0,59267.0,21352.0,18875.0
2026-05-06 15:47:21.792381,377975,1609504705190410,2305102712,0.901824,-0.023424,0.021472,-2.30125,-1.53125,-1.14625,-35.672,-16.944,-87.656006,none,3,5.0,37702.0,46476.0,73213.0,104348.0,32827.0,54015.0,30685.0,59179.0,21336.0,18840.0
2026-05-06 15:47:21.794857,377976,1609504705199421,2305111479,0.903776,-0.015616,0.001952,-2.065,-1.32125,-0.91875,-35.624,-14.736001,-88.96001,none,3,5.0,37702.0,46476.0,73213.0,104348.0,32827.0,54015.0,30685.0,59179.0,21336.0,18840.0
2026-05-06 15:47:21.797231,377977,1609504705213912,2305126415,0.903776,-0.015616,0.001952,-1.505,-1.47,-0.97125,-35.624,-14.736001,-88.96001,none,3,5.0,37702.0,46476.0,73213.0,104348.0,32827.0,54015.0,30685.0,59179.0,21336.0,18840.0
2026-05-06 15:47:21.802400,377978,1609504705222851,2305135136,0.90768,-0.02928,-0.00976,-1.2075,-1.51375,-1.44375,-35.584003,-15.088,-88.576004,none,3,5.0,37702.0,46476.0,73213.0,104348.0,32827.0,54015.0,30685.0,59179.0,21336.0,18840.0
2026-05-06 15:47:21.804806,377979,1609504705237355,2305150161,0.923296,-0.025376,0.037088,-1.8725,-1.505,-1.2075,-35.584003,-15.088,-84.48,none,3,5.0,37702.0,46476.0,73213.0,104348.0,32827.0,54015.0,30685.0,59179.0,21336.0,18840.0
2026-05-06 15:47:21.807291,377980,1609504705246308,2305158938,0.921344,-0.025376,0.037088,-1.44375,-1.4,-1.75,-35.648003,-18.224,-85.656006,none,3,5.0,37702.0,46476.0,73213.0,104348.0,32827.0,54015.0,30685.0,59179.0,21336.0,18840.0
2026-05-06 15:47:21.809622,377981,1609504705255243,2305167633,0.921344,-0.025376,0.037088,-0.37625,-1.19875,-1.61,-35.648003,-18.224,-85.656006,none,3,5.0,37702.0,46476.0,73213.0,104348.0,32827.0,54015.0,30685.0,59179.0,21336.0,18840.0
2026-05-06 15:47:21.812173,377982,1609504705269722,2305180538,0.91744,-0.023424,0.042944,-0.1225,-1.9075,-2.09125,-35.480003,-14.424001,-88.8,none,3,5.0,37702.0,46476.0,73213.0,104348.0,32827.0,54015.0,30685.0,59179.0,21336.0,18840.0
2026-05-06 15:47:21.814675,377983,1609504705278936,2305191306,0.899872,-0.013664,0.011712,-0.42,-1.95125,-1.7325,-35.264,-14.648001,-88.728004,none,3,5.0,37702.0,46476.0,73213.0,104348.0,32827.0,54015.0,30685.0,59179.0,21336.0,18840.0
2026-05-06 15:47:21.842515,377994,1609504705293541,2305204294,0.899872,-0.013664,0.011712,-0.7175,-1.4875,-2.0475,-35.264,-14.648001,-88.728004,none,3,5.0,37786.0,46615.0,73254.0,104432.0,32892.0,54090.0,30725.0,59237.0,21355.0,18879.0
2026-05-06 15:47:21.845034,377995,1609504705302886,2305215108,0.925248,-0.025376,0.01952,-0.6825,-1.365,-2.485,-35.536003,-16.464,-87.76,none,3,5.0,37786.0,46615.0,73254.0,104432.0,32892.0,54090.0,30725.0,59237.0,21355.0,18879.0
2026-05-06 15:47:21.847307,377996,1609504705312006,2305223863,0.925248,-0.025376,0.01952,-0.34125,-1.05875,-3.2725,-35.536003,-16.464,-87.76,none,3,5.0,37786.0,46615.0,73254.0,104432.0,32892.0,54090.0,30725.0,59237.0,21355.0,18879.0
2026-05-06 15:47:21.852863,377997,1609504705326540,2305238816,0.905728,-0.01952,0.011712,-0.63,-1.11125,-3.22,-35.800003,-16.544,-87.368004,none,3,5.0,37786.0,46615.0,73254.0,104432.0,32892.0,54090.0,30725.0,59237.0,21355.0,18879.0
2026-05-06 15:47:21.853421,377998,1609504705335535,2305247594,0.905728,-0.01952,0.011712,-0.595,-1.2425,-2.73875,-35.800003,-16.544,-87.368004,none,3,5.0,37786.0,46615.0,73254.0,104432.0,32892.0,54090.0,30725.0,59237.0,21355.0,18879.0
2026-05-06 15:47:21.861291,377999,1609504705350074,2305262543,0.921344,-0.027328,0.015616,-1.5225,-1.68,-2.72125,-35.480003,-16.128,-87.37601,none,3,5.0,37786.0,46615.0,73254.0,104432.0,32892.0,54090.0,30725.0,59237.0,21355.0,18879.0
2026-05-06 15:47:21.863650,378000,1609504705358955,2305271311,0.9272,-0.021472,0.00976,-1.72375,-1.42625,-2.3975,-35.600002,-15.472001,-89.464005,none,3,5.0,37786.0,46615.0,73254.0,104432.0,32892.0,54090.0,30725.0,59237.0,21355.0,18879.0
2026-05-06 15:47:21.866267,378001,1609504705373649,2305286287,0.9272,-0.021472,0.00976,-1.02375,-1.82875,-2.09125,-35.600002,-15.472001,-89.464005,none,3,5.0,37786.0,46615.0,73254.0,104432.0,32892.0,54090.0,30725.0,59237.0,21355.0,18879.0
2026-05-06 15:47:21.872525,378002,1609504705382773,2305295072,0.9272,-0.027328,0.03904,-0.09625,-1.7675,-2.33625,-35.488003,-16.896,-86.608,none,3,5.0,37786.0,46615.0,73254.0,104432.0,32892.0,54090.0,30725.0,59237.0,21355.0,18879.0
2026-05-06 15:47:21.901171,378013,1609504705391868,2305303860,0.9272,-0.027328,0.03904,0.035,-1.82875,-2.09125,-35.488003,-16.896,-86.608,none,3,5.0,37745.0,46628.0,73275.0,104455.0,32900.0,54076.0,30720.0,59257.0,21394.0,18881.0
2026-05-06 15:47:21.903881,378014,1609504705406645,2305318885,0.91744,-0.033184,-0.021472,0.35875,-2.0475,-1.715,-35.696003,-17.944,-86.384,none,3,5.0,37745.0,46628.0,73275.0,104455.0,32900.0,54076.0,30720.0,59257.0,21394.0,18881.0
2026-05-06 15:47:21.906369,378015,1609504705415691,2305327667,0.91744,-0.033184,-0.021472,1.365,-2.35375,-0.9625,-35.696003,-17.944,-86.384,none,3,5.0,37745.0,46628.0,73275.0,104455.0,32900.0,54076.0,30720.0,59257.0,21394.0,18881.0
2026-05-06 15:47:21.922441,378016,1609504705430196,2305342602,0.915488,-0.013664,-0.013664,1.65375,-2.625,-0.84875,-35.384003,-18.104,-87.48801,none,3,5.0,37745.0,46628.0,73275.0,104455.0,32900.0,54076.0,30720.0,59257.0,21394.0,18881.0
2026-05-06 15:47:21.931071,378017,1609504705439129,2305351388,0.91744,-0.011712,0.033184,1.35625,-2.21375,-1.155,-35.384003,-14.264001,-89.152,none,3,5.0,37745.0,46628.0,73275.0,104455.0,32900.0,54076.0,30720.0,59257.0,21394.0,18881.0
2026-05-06 15:47:21.940041,378018,1609504705448163,2305360167,0.91744,-0.011712,0.033184,0.42,-2.24875,-1.81125,-35.416,-14.264001,-89.152,none,3,5.0,37745.0,46628.0,73275.0,104455.0,32900.0,54076.0,30720.0,59257.0,21394.0,18881.0
2026-05-06 15:47:21.957359,378019,1609504705462879,2305375127,0.905728,-0.033184,-0.02928,-0.16625,-2.19625,-1.47,-35.144,-14.192,-88.632,none,3,5.0,37745.0,46628.0,73275.0,104455.0,32900.0,54076.0,30720.0,59257.0,21394.0,18881.0
2026-05-06 15:47:21.964844,378020,1609504705471858,2305383893,0.905728,-0.033184,-0.02928,-0.2625,-2.19625,-1.63625,-35.144,-14.192,-88.632,none,3,5.0,37745.0,46628.0,73275.0,104455.0,32900.0,54076.0,30720.0,59257.0,21394.0,18881.0
2026-05-06 15:47:22.037465,378031,1609504705486339,2305398857,0.909632,-0.035136,0.003904,0.11375,-2.02125,-1.19875,-35.144,-15.720001,-87.75201,none,3,5.0,37737.0,46656.0,73274.0,104559.0,32948.0,54165.0,30746.0,59329.0,21404.0,18926.0
2026-05-06 15:47:22.062642,378032,1609504705495515,2305407592,0.909632,-0.035136,0.003904,0.21,-2.24875,-0.805,-35.144,-15.720001,-87.75201,none,3,5.0,37737.0,46656.0,73274.0,104559.0,32948.0,54165.0,30746.0,59329.0,21404.0,18926.0
2026-05-06 15:47:22.087729,378033,1609504705504491,2305416366,0.90768,-0.023424,-0.007808,0.77875,-2.10875,-0.69125,-35.184002,-14.248001,-88.920006,none,3,5.0,37737.0,46656.0,73274.0,104559.0,32948.0,54165.0,30746.0,59329.0,21404.0,18926.0
2026-05-06 15:47:22.108956,378034,1609504705518971,2305431347,0.90768,-0.023424,0.03904,0.3675,-2.16125,-1.18125,-35.184002,-14.248001,-88.920006,none,3,5.0,37737.0,46656.0,73274.0,104559.0,32948.0,54165.0,30746.0,59329.0,21404.0,18926.0
2026-05-06 15:47:22.111501,378035,1609504705527876,2305440099,0.925248,-0.011712,0.031232,-0.07,-1.77625,-1.4875,-35.208,-14.248001,-89.024,none,3,5.0,37737.0,46656.0,73274.0,104559.0,32948.0,54165.0,30746.0,59329.0,21404.0,18926.0
2026-05-06 15:47:22.113833,378036,1609504705542551,2305455073,0.911584,-0.033184,-0.021472,-0.6125,-1.63625,-2.3275,-35.424,-15.464001,-86.936005,none,3,5.0,37737.0,46656.0,73274.0,104559.0,32948.0,54165.0,30746.0,59329.0,21404.0,18926.0
2026-05-06 15:47:22.116278,378037,1609504705551545,2305463866,0.911584,-0.033184,-0.021472,-1.49625,-1.49625,-2.52,-35.424,-15.464001,-86.936005,none,3,5.0,37737.0,46656.0,73274.0,104559.0,32948.0,54165.0,30746.0,59329.0,21404.0,18926.0
2026-05-06 15:47:22.118933,378038,1609504705566025,2305476810,0.919392,-0.050752,-0.021472,-3.3075,-0.84,-2.45875,-35.296,-14.392001,-88.79201,none,3,5.0,37737.0,46656.0,73274.0,104559.0,32948.0,54165.0,30746.0,59329.0,21404.0,18926.0
2026-05-06 15:47:22.121462,378039,1609504705575239,2305487582,0.919392,-0.050752,-0.021472,-2.135,-0.91,-2.56375,-35.296,-14.392001,-88.79201,none,3,5.0,37737.0,46656.0,73274.0,104559.0,32948.0,54165.0,30746.0,59329.0,21404.0,18926.0
2026-05-06 15:47:22.124003,378040,1609504705584141,2305496347,0.921344,-0.037088,0.017568,-0.3325,-1.155,-2.4325,-35.416,-17.880001,-87.20801,none,3,5.0,37737.0,46656.0,73274.0,104559.0,32948.0,54165.0,30746.0,59329.0,21404.0,18926.0
2026-05-06 15:47:22.153778,378051,1609504705598683,2305511303,0.921344,-0.037088,0.017568,0.7525,-1.225,-1.82,-35.416,-17.880001,-87.20801,none,3,5.0,37851.0,46702.0,73327.0,104677.0,33015.0,54274.0,30800.0,59424.0,21464.0,18966.0
2026-05-06 15:47:22.158808,378052,1609504705607757,2305520040,0.919392,-0.02928,-0.021472,1.05,-1.72375,-1.68875,-35.048,-14.440001,-89.616005,none,3,5.0,37851.0,46702.0,73327.0,104677.0,33015.0,54274.0,30800.0,59424.0,21464.0,18966.0
2026-05-06 15:47:22.161311,378053,1609504705622258,2305535022,0.921344,-0.021472,0.02928,-0.2975,-1.39125,-1.8375,-35.192,-14.136001,-89.952,none,3,5.0,37851.0,46702.0,73327.0,104677.0,33015.0,54274.0,30800.0,59424.0,21464.0,18966.0
2026-05-06 15:47:22.163684,378054,1609504705631219,2305543815,0.921344,-0.021472,0.02928,-1.715,-1.2425,-2.33625,-35.192,-14.136001,-89.952,none,3,5.0,37851.0,46702.0,73327.0,104677.0,33015.0,54274.0,30800.0,59424.0,21464.0,18966.0
2026-05-06 15:47:22.166335,378055,1609504705645753,2305556711,0.921344,-0.040992,0.0,-2.35375,-0.88375,-3.07125,-35.744003,-15.888001,-87.712006,none,3,5.0,37851.0,46702.0,73327.0,104677.0,33015.0,54274.0,30800.0,59424.0,21464.0,18966.0
2026-05-06 15:47:22.168836,378056,1609504705655180,2305567636,0.921344,-0.040992,0.0,-3.045,-0.44625,-3.07125,-35.744003,-15.888001,-87.712006,none,3,5.0,37851.0,46702.0,73327.0,104677.0,33015.0,54274.0,30800.0,59424.0,21464.0,18966.0
2026-05-06 15:47:22.171368,378057,1609504705664155,2305576358,0.921344,-0.037088,0.013664,-2.9225,-0.91,-3.70125,-35.328003,-16.336,-87.96001,none,3,5.0,37851.0,46702.0,73327.0,104677.0,33015.0,54274.0,30800.0,59424.0,21464.0,18966.0
2026-05-06 15:47:22.173871,378058,1609504705678745,2305591326,0.921344,-0.037088,0.013664,-1.715,-1.225,-3.33375,-35.328003,-16.336,-87.96001,none,3,5.0,37851.0,46702.0,73327.0,104677.0,33015.0,54274.0,30800.0,59424.0,21464.0,18966.0
2026-05-06 15:47:22.203912,378069,1609504705687696,2305600126,0.925248,-0.035136,0.013664,-1.54875,-1.23375,-2.68625,-35.264,-15.720001,-87.336006,none,3,5.0,37959.0,46807.0,73442.0,104815.0,33117.0,54372.0,30834.0,59486.0,21523.0,19008.0
2026-05-06 15:47:22.206438,378070,1609504705697163,2305608970,0.925248,-0.035136,0.013664,-2.5725,-1.26,-2.73875,-35.264,-15.720001,-87.336006,none,3,5.0,37959.0,46807.0,73442.0,104815.0,33117.0,54372.0,30834.0,59486.0,21523.0,19008.0
2026-05-06 15:47:22.208960,378071,1609504705711797,2305623932,0.90768,-0.023424,-0.01952,-2.49375,-1.26,-3.10625,-35.216003,-15.912001,-87.352005,none,3,5.0,37959.0,46807.0,73442.0,104815.0,33117.0,54372.0,30834.0,59486.0,21523.0,19008.0
2026-05-06 15:47:22.211440,378072,1609504705720821,2305632673,0.90768,-0.023424,-0.003904,-1.40875,-1.51375,-3.57875,-35.216003,-15.912001,-87.352005,none,3,5.0,37959.0,46807.0,73442.0,104815.0,33117.0,54372.0,30834.0,59486.0,21523.0,19008.0
2026-05-06 15:47:22.245458,378073,1609504705735312,2305647609,0.923296,-0.031232,-0.003904,-0.56,-1.3125,-3.395,-35.56,-17.472,-86.47201,none,3,5.0,37959.0,46807.0,73442.0,104815.0,33117.0,54372.0,30834.0,59486.0,21523.0,19008.0
2026-05-06 15:47:22.247362,378074,1609504705744216,2305656316,0.921344,-0.044896,0.007808,-1.61875,-0.8575,-3.0625,-35.288002,-14.480001,-88.952,none,3,5.0,37959.0,46807.0,73442.0,104815.0,33117.0,54372.0,30834.0,59486.0,21523.0,19008.0
2026-05-06 15:47:22.250340,378075,1609504705753575,2305665455,0.921344,-0.044896,0.007808,-3.07125,-0.9275,-2.8875,-35.288002,-14.480001,-88.952,none,3,5.0,37959.0,46807.0,73442.0,104815.0,33117.0,54372.0,30834.0,59486.0,21523.0,19008.0
2026-05-06 15:47:22.259106,378076,1609504705768134,2305679256,0.91744,-0.027328,0.00976,-4.34,-1.0675,-3.01875,-35.528,-14.144001,-89.184006,none,3,5.0,37959.0,46807.0,73442.0,104815.0,33117.0,54372.0,30834.0,59486.0,21523.0,19008.0
2026-05-06 15:47:22.272850,378077,1609504705777449,2305690067,0.91744,-0.027328,0.00976,-2.66,-0.88375,-3.115,-35.528,-14.144001,-89.184006,none,3,5.0,37959.0,46807.0,73442.0,104815.0,33117.0,54372.0,30834.0,59486.0,21523.0,19008.0
2026-05-06 15:47:22.317667,378088,1609504705792430,2305705064,0.90768,-0.01952,-0.015616,-1.7325,-0.8575,-3.59625,-35.456,-14.72,-88.96001,none,3,5.0,37948.0,46856.0,73444.0,104719.0,33108.0,54358.0,30828.0,59462.0,21508.0,19013.0
2026-05-06 15:47:22.319972,378089,1609504705801505,2305713807,0.90768,-0.03904,-0.007808,-1.5225,-0.63,-3.92875,-35.456,-14.72,-88.96001,none,3,5.0,37948.0,46856.0,73444.0,104719.0,33108.0,54358.0,30828.0,59462.0,21508.0,19013.0
2026-05-06 15:47:22.322446,378090,1609504705810452,2305722648,0.915488,-0.03904,-0.007808,-2.0825,-0.28,-3.52625,-35.120003,-15.480001,-87.976006,none,3,5.0,37948.0,46856.0,73444.0,104719.0,33108.0,54358.0,30828.0,59462.0,21508.0,19013.0
2026-05-06 15:47:22.326539,378091,1609504705824983,2305737578,0.919392,-0.037088,0.023424,-3.0275,-0.67375,-3.4125,-34.936,-15.912001,-87.840004,none,3,5.0,37948.0,46856.0,73444.0,104719.0,33108.0,54358.0,30828.0,59462.0,21508.0,19013.0
2026-05-06 15:47:22.327795,378092,1609504705833927,2305746297,0.919392,-0.037088,0.023424,-3.70125,-0.315,-3.47375,-34.936,-15.912001,-87.840004,none,3,5.0,37948.0,46856.0,73444.0,104719.0,33108.0,54358.0,30828.0,59462.0,21508.0,19013.0
2026-05-06 15:47:22.338795,378093,1609504705848481,2305759321,0.923296,-0.027328,0.007808,-3.42125,-0.0525,-3.29875,-35.320004,-16.08,-87.712006,none,3,5.0,37948.0,46856.0,73444.0,104719.0,33108.0,54358.0,30828.0,59462.0,21508.0,19013.0
2026-05-06 15:47:22.347499,378094,1609504705857878,2305770162,0.923296,-0.027328,0.007808,-3.22875,-0.6125,-3.61375,-35.320004,-16.08,-87.712006,none,3,5.0,37948.0,46856.0,73444.0,104719.0,33108.0,54358.0,30828.0,59462.0,21508.0,19013.0
2026-05-06 15:47:22.363741,378095,1609504705866903,2305778864,0.915488,-0.013664,0.033184,-3.10625,-0.65625,-3.89375,-35.04,-14.944,-88.41601,none,3,5.0,37948.0,46856.0,73444.0,104719.0,33108.0,54358.0,30828.0,59462.0,21508.0,19013.0
2026-05-06 15:47:22.372894,378096,1609504705881422,2305793747,0.915488,-0.013664,0.033184,-2.96625,-0.34125,-4.15625,-35.04,-14.944,-88.41601,none,3,5.0,37948.0,46856.0,73444.0,104719.0,33108.0,54358.0,30828.0,59462.0,21508.0,19013.0
2026-05-06 15:47:22.454313,378107,1609504705890951,2305802712,0.921344,-0.037088,0.011712,-3.45625,-0.74375,-3.7275,-35.016003,-14.536,-87.96001,none,3,5.0,38002.0,46849.0,73384.0,104640.0,33093.0,54330.0,30818.0,59354.0,21484.0,18983.0
2026-05-06 15:47:22.478448,378108,1609504705905600,2305817837,0.9272,-0.033184,0.013664,-4.22625,-0.5425,-3.40375,-35.288002,-14.704,-89.04,none,3,5.0,38002.0,46849.0,73384.0,104640.0,33093.0,54330.0,30818.0,59354.0,21484.0,18983.0
2026-05-06 15:47:22.480029,378109,1609504705914554,2305826538,0.9272,-0.033184,0.013664,-3.91125,-0.42,-3.4825,-35.288002,-14.704,-89.04,none,3,5.0,38002.0,46849.0,73384.0,104640.0,33093.0,54330.0,30818.0,59354.0,21484.0,18983.0
2026-05-06 15:47:22.482587,378110,1609504705923511,2305835270,0.905728,-0.025376,-0.021472,-3.78,-0.72625,-3.7625,-35.264,-14.696001,-89.456,none,3,5.0,38002.0,46849.0,73384.0,104640.0,33093.0,54330.0,30818.0,59354.0,21484.0,18983.0
2026-05-06 15:47:22.485147,378111,1609504705938003,2305850224,0.905728,-0.025376,-0.021472,-3.47375,-0.34125,-4.13,-35.264,-14.696001,-89.456,none,3,5.0,38002.0,46849.0,73384.0,104640.0,33093.0,54330.0,30818.0,59354.0,21484.0,18983.0
2026-05-06 15:47:22.487955,378112,1609504705947000,2305858963,0.91744,-0.02928,-0.023424,-3.17625,-0.37625,-4.34875,-35.392002,-14.376,-89.144005,none,3,5.0,38002.0,46849.0,73384.0,104640.0,33093.0,54330.0,30818.0,59354.0,21484.0,18983.0
2026-05-06 15:47:22.494266,378113,1609504705961502,2305873885,0.91744,-0.02928,-0.023424,-3.63125,-0.28,-4.2175,-35.392002,-14.376,-89.144005,none,3,5.0,38002.0,46849.0,73384.0,104640.0,33093.0,54330.0,30818.0,59354.0,21484.0,18983.0
2026-05-06 15:47:22.496401,378114,1609504705970454,2305882590,0.905728,-0.02928,-0.02928,-4.01625,-0.07875,-4.515,-35.176003,-14.712001,-89.464005,none,3,5.0,38002.0,46849.0,73384.0,104640.0,33093.0,54330.0,30818.0,59354.0,21484.0,18983.0
2026-05-06 15:47:22.500627,378115,1609504705984956,2305897508,0.921344,-0.021472,0.040992,-4.08625,-0.3675,-4.03375,-35.4,-14.656001,-88.984,none,3,5.0,38002.0,46849.0,73384.0,104640.0,33093.0,54330.0,30818.0,59354.0,21484.0,18983.0
2026-05-06 15:47:22.526554,378126,1609504705994092,2305906304,0.921344,-0.021472,0.040992,-4.19125,-0.56,-4.03375,-35.4,-14.656001,-88.984,none,3,5.0,37980.0,46905.0,73388.0,104752.0,33138.0,54391.0,30816.0,59418.0,21512.0,19001.0
2026-05-06 15:47:22.529127,378127,1609504706003129,2305915105,0.921344,-0.031232,-0.031232,-4.095,-0.27125,-4.165,-35.4,-14.656001,-88.984,none,3,5.0,37980.0,46905.0,73388.0,104752.0,33138.0,54391.0,30816.0,59418.0,21512.0,19001.0
2026-05-06 15:47:22.531143,378128,1609504706017634,2305930112,0.909632,-0.031232,-0.031232,-3.5875,-0.105,-4.29625,-35.0,-15.192,-89.464005,none,3,5.0,37980.0,46905.0,73388.0,104752.0,33138.0,54391.0,30816.0,59418.0,21512.0,19001.0
2026-05-06 15:47:22.533682,378129,1609504706026690,2305938842,0.909632,-0.021472,0.0,-2.9575,-0.06125,-4.1125,-35.392002,-16.800001,-87.04,none,3,5.0,37980.0,46905.0,73388.0,104752.0,33138.0,54391.0,30816.0,59418.0,21512.0,19001.0
2026-05-06 15:47:22.536553,378130,1609504706041299,2305953785,0.909632,-0.021472,0.0,-2.94,-0.1225,-3.70125,-35.392002,-16.800001,-87.04,none,3,5.0,37980.0,46905.0,73388.0,104752.0,33138.0,54391.0,30816.0,59418.0,21512.0,19001.0
2026-05-06 15:47:22.542548,378131,1609504706050224,2305962513,0.91744,-0.023424,0.01952,-2.94875,0.14875,-3.28125,-35.792,-18.024,-86.064,none,3,5.0,37980.0,46905.0,73388.0,104752.0,33138.0,54391.0,30816.0,59418.0,21512.0,19001.0
2026-05-06 15:47:22.551671,378132,1609504706059264,2305971285,0.91744,-0.023424,0.01952,-3.99875,0.42875,-3.31625,-35.792,-18.024,-86.064,none,3,5.0,37980.0,46905.0,73388.0,104752.0,33138.0,54391.0,30816.0,59418.0,21512.0,19001.0
2026-05-06 15:47:22.565020,378133,1609504706073898,2305986312,0.919392,-0.01952,-0.007808,-3.99,-0.18375,-3.64,-35.208,-16.184,-89.20801,none,3,5.0,37980.0,46905.0,73388.0,104752.0,33138.0,54391.0,30816.0,59418.0,21512.0,19001.0
2026-05-06 15:47:22.574214,378134,1609504706082838,2305995037,0.919392,-0.01952,-0.007808,-2.94875,0.2275,-3.56125,-35.208,-16.184,-89.20801,none,3,5.0,37980.0,46905.0,73388.0,104752.0,33138.0,54391.0,30816.0,59418.0,21512.0,19001.0
2026-05-06 15:47:22.612047,378145,1609504706097517,2306010277,0.905728,-0.005856,-0.015616,-1.04125,0.1575,-4.2175,-35.264,-14.752001,-89.41601,none,3,5.0,38098.0,46986.0,73468.0,104821.0,33184.0,54486.0,30839.0,59470.0,21548.0,19040.0
2026-05-06 15:47:22.613757,378146,1609504706106485,2306019115,0.903776,-0.01952,-0.033184,-1.14625,0.13125,-5.03125,-35.2,-14.688001,-89.11201,none,3,5.0,38098.0,46986.0,73468.0,104821.0,33184.0,54486.0,30839.0,59470.0,21548.0,19040.0
2026-05-06 15:47:22.616575,378147,1609504706121014,2306031949,0.903776,-0.01952,-0.033184,-1.5925,-0.21,-4.6025,-35.2,-14.688001,-89.11201,none,3,5.0,38098.0,46986.0,73468.0,104821.0,33184.0,54486.0,30839.0,59470.0,21548.0,19040.0
2026-05-06 15:47:22.650884,378148,1609504706130377,2306042719,0.899872,-0.015616,0.013664,-1.295,-0.25375,-4.5325,-35.224003,-16.072,-87.384,none,3,5.0,38098.0,46986.0,73468.0,104821.0,33184.0,54486.0,30839.0,59470.0,21548.0,19040.0
2026-05-06 15:47:22.653019,378149,1609504706139365,2306051481,0.899872,-0.015616,0.013664,-1.58375,-0.42875,-4.24375,-35.224003,-16.072,-87.384,none,3,5.0,38098.0,46986.0,73468.0,104821.0,33184.0,54486.0,30839.0,59470.0,21548.0,19040.0
2026-05-06 15:47:22.655467,378150,1609504706153996,2306066437,0.915488,-0.021472,-0.027328,-2.8175,-0.06125,-3.7275,-35.248,-14.440001,-88.84801,none,3,5.0,38098.0,46986.0,73468.0,104821.0,33184.0,54486.0,30839.0,59470.0,21548.0,19040.0
2026-05-06 15:47:22.660516,378151,1609504706162971,2306075148,0.915488,-0.021472,-0.027328,-2.70375,-0.0875,-3.57875,-35.248,-14.440001,-88.84801,none,3,5.0,38098.0,46986.0,73468.0,104821.0,33184.0,54486.0,30839.0,59470.0,21548.0,19040.0
2026-05-06 15:47:22.669253,378152,1609504706177530,2306090106,0.921344,-0.015616,0.015616,-2.38,-0.07,-3.885,-35.032,-14.832001,-89.11201,none,3,5.0,38098.0,46986.0,73468.0,104821.0,33184.0,54486.0,30839.0,59470.0,21548.0,19040.0
2026-05-06 15:47:22.678014,378153,1609504706186460,2306098829,0.91744,-0.021472,-0.01952,-1.54875,-0.14,-3.3075,-35.136,-14.784,-90.94401,none,3,5.0,38098.0,46986.0,73468.0,104821.0,33184.0,54486.0,30839.0,59470.0,21548.0,19040.0
2026-05-06 15:47:22.717858,378165,1609504706195623,2306107719,0.91744,-0.021472,-0.01952,-0.44625,-0.51625,-3.0975,-35.136,-14.784,-90.94401,none,3,5.0,38143.0,47085.0,73504.0,104812.0,33177.0,54511.0,30839.0,59441.0,21553.0,19058.0
2026-05-06 15:47:22.720317,378166,1609504706210213,2306122699,0.90768,-0.015616,-0.033184,-0.2275,-0.5775,-3.24625,-35.392002,-17.528002,-86.672005,none,3,5.0,38143.0,47085.0,73504.0,104812.0,33177.0,54511.0,30839.0,59441.0,21553.0,19058.0
2026-05-06 15:47:22.722853,378167,1609504706219216,2306131483,0.90768,-0.015616,-0.033184,-0.76125,-0.49,-2.94875,-35.392002,-17.528002,-86.672005,none,3,5.0,38143.0,47085.0,73504.0,104812.0,33177.0,54511.0,30839.0,59441.0,21553.0,19058.0
2026-05-06 15:47:22.725369,378168,1609504706233859,2306146527,0.915488,0.001952,-0.015616,-0.93625,-0.58625,-3.6225,-35.288002,-17.768002,-86.96001,none,3,5.0,38143.0,47085.0,73504.0,104812.0,33177.0,54511.0,30839.0,59441.0,21553.0,19058.0
2026-05-06 15:47:22.734125,378169,1609504706242880,2306155231,0.915488,0.001952,-0.015616,-0.665,0.0175,-4.3575,-35.288002,-17.768002,-86.96001,none,3,5.0,38143.0,47085.0,73504.0,104812.0,33177.0,54511.0,30839.0,59441.0,21553.0,19058.0
2026-05-06 15:47:22.742848,378170,1609504706251926,2306164030,0.915488,-0.005856,-0.001952,-0.91,-0.14875,-5.03125,-35.056004,-15.152,-89.368004,none,3,5.0,38143.0,47085.0,73504.0,104812.0,33177.0,54511.0,30839.0,59441.0,21553.0,19058.0
2026-05-06 15:47:22.783026,378171,1609504706266432,2306178952,0.919392,-0.023424,0.013664,-0.8575,-0.28875,-5.04875,-35.440002,-14.728001,-88.26401,none,3,5.0,38143.0,47085.0,73504.0,104812.0,33177.0,54511.0,30839.0,59441.0,21553.0,19058.0
2026-05-06 15:47:22.807849,378172,1609504706275335,2306187806,0.919392,-0.023424,0.013664,-1.295,-0.2975,-4.865,-35.440002,-14.728001,-88.26401,none,3,5.0,38143.0,47085.0,73504.0,104812.0,33177.0,54511.0,30839.0,59441.0,21553.0,19058.0
2026-05-06 15:47:22.832829,378173,1609504706289801,2306200674,0.899872,-0.015616,-0.007808,-1.16375,-0.74375,-4.025,-35.184002,-14.792001,-88.888,none,3,5.0,38143.0,47085.0,73504.0,104812.0,33177.0,54511.0,30839.0,59441.0,21553.0,19058.0
2026-05-06 15:47:22.866764,378184,1609504706299126,2306211666,0.899872,-0.015616,-0.007808,-0.805,-0.2975,-3.675,-35.184002,-14.792001,-88.888,none,3,5.0,38162.0,47121.0,73541.0,104894.0,33232.0,54565.0,30895.0,59496.0,21569.0,19088.0
2026-05-06 15:47:22.869259,378185,1609504706313751,2306224586,0.913536,-0.011712,-0.015616,-1.74125,-0.30625,-3.0975,-34.960003,-15.024001,-89.256004,none,3,5.0,38162.0,47121.0,73541.0,104894.0,33232.0,54565.0,30895.0,59496.0,21569.0,19088.0
2026-05-06 15:47:22.871748,378186,1609504706323075,2306235385,0.913536,-0.011712,-0.015616,-1.72375,0.1225,-2.96625,-34.960003,-15.024001,-89.256004,none,3,5.0,38162.0,47121.0,73541.0,104894.0,33232.0,54565.0,30895.0,59496.0,21569.0,19088.0
2026-05-06 15:47:22.873677,378187,1609504706332030,2306244148,0.90768,-0.023424,-0.02928,-1.93375,0.20125,-2.6775,-34.768,-14.944,-88.840004,none,3,5.0,38162.0,47121.0,73541.0,104894.0,33232.0,54565.0,30895.0,59496.0,21569.0,19088.0
2026-05-06 15:47:22.878126,378188,1609504706346537,2306259057,0.89792,-0.00976,0.00976,-2.73875,-0.14875,-2.16125,-35.232002,-14.768001,-88.856,none,3,5.0,38162.0,47121.0,73541.0,104894.0,33232.0,54565.0,30895.0,59496.0,21569.0,19088.0
2026-05-06 15:47:22.878598,378189,1609504706355470,2306267758,0.89792,-0.00976,0.00976,-1.89875,-0.16625,-1.60125,-35.232002,-14.768001,-88.856,none,3,5.0,38162.0,47121.0,73541.0,104894.0,33232.0,54565.0,30895.0,59496.0,21569.0,19088.0
2026-05-06 15:47:22.881097,378190,1609504706370052,2306282711,0.9272,0.001952,0.017568,-0.5075,-0.0525,-1.91625,-35.288002,-18.064001,-86.58401,none,3,5.0,38162.0,47121.0,73541.0,104894.0,33232.0,54565.0,30895.0,59496.0,21569.0,19088.0
2026-05-06 15:47:22.883544,378191,1609504706379149,2306291453,0.9272,0.001952,0.017568,0.805,-0.13125,-2.10875,-35.288002,-18.064001,-86.58401,none,3,5.0,38162.0,47121.0,73541.0,104894.0,33232.0,54565.0,30895.0,59496.0,21569.0,19088.0
2026-05-06 15:47:22.887083,378192,1609504706388127,2306300184,0.925248,-0.005856,0.0,-0.1225,-0.00875,-2.2225,-35.048,-18.08,-87.408005,none,3,5.0,38162.0,47121.0,73541.0,104894.0,33232.0,54565.0,30895.0,59496.0,21569.0,19088.0
2026-05-06 15:47:22.923461,378203,1609504706402777,2306315205,0.925248,-0.005856,0.0,-2.19625,-0.07875,-3.29,-35.048,-18.08,-87.408005,none,3,5.0,38156.0,47123.0,73551.0,104913.0,33216.0,54590.0,30925.0,59540.0,21573.0,19090.0
2026-05-06 15:47:22.928549,378204,1609504706412135,2306324006,0.89792,-0.01952,-0.00976,-4.13,-0.0525,-3.1675,-35.432003,-18.656,-86.248,none,3,5.0,38156.0,47123.0,73551.0,104913.0,33216.0,54590.0,30925.0,59540.0,21573.0,19090.0
2026-05-06 15:47:22.930902,378205,1609504706426646,2306338958,0.919392,-0.027328,-0.017568,-4.06,-0.04375,-2.5025,-35.432003,-14.856001,-87.712006,none,3,5.0,38156.0,47123.0,73551.0,104913.0,33216.0,54590.0,30925.0,59540.0,21573.0,19090.0
2026-05-06 15:47:22.933432,378206,1609504706435565,2306347668,0.919392,-0.027328,-0.017568,-3.10625,-0.9975,-2.31,-35.24,-14.856001,-87.712006,none,3,5.0,38156.0,47123.0,73551.0,104913.0,33216.0,54590.0,30925.0,59540.0,21573.0,19090.0
2026-05-06 15:47:22.935965,378207,1609504706444509,2306356410,0.919392,-0.027328,-0.017568,-0.5775,-1.12,-1.88125,-35.24,-14.856001,-87.712006,none,3,5.0,38156.0,47123.0,73551.0,104913.0,33216.0,54590.0,30925.0,59540.0,21573.0,19090.0
2026-05-06 15:47:22.950117,378208,1609504706459025,2306371340,0.905728,0.001952,0.007808,1.1375,-0.91,-2.07375,-35.208,-16.400002,-87.816,none,3,5.0,38156.0,47123.0,73551.0,104913.0,33216.0,54590.0,30925.0,59540.0,21573.0,19090.0
2026-05-06 15:47:22.961404,378209,1609504706467970,2306380137,0.90768,-0.007808,-0.007808,0.25375,-0.95375,-1.7325,-34.960003,-16.448,-85.872,none,3,5.0,38156.0,47123.0,73551.0,104913.0,33216.0,54590.0,30925.0,59540.0,21573.0,19090.0
2026-05-06 15:47:22.976924,378210,1609504706482500,2306395055,0.90768,-0.007808,-0.007808,-3.255,-0.84,-1.28625,-34.960003,-16.448,-85.872,none,3,5.0,38156.0,47123.0,73551.0,104913.0,33216.0,54590.0,30925.0,59540.0,21573.0,19090.0
2026-05-06 15:47:23.008796,378221,1609504706491448,2306404220,0.929152,-0.013664,0.031232,-5.45125,-0.77,-1.26,-35.04,-14.944,-89.07201,none,3,5.0,38114.0,47093.0,73524.0,104772.0,33200.0,54529.0,30888.0,59448.0,21569.0,19067.0
2026-05-06 15:47:23.011316,378222,1609504706506001,2306417151,0.929152,-0.013664,0.031232,-6.02,-0.63875,-2.1,-35.04,-14.944,-89.07201,none,3,5.0,38114.0,47093.0,73524.0,104772.0,33200.0,54529.0,30888.0,59448.0,21569.0,19067.0
2026-05-06 15:47:23.013747,378223,1609504706515367,2306427973,0.923296,-0.005856,0.005856,-3.78875,-0.7525,-2.415,-35.032,-15.024001,-88.05601,none,3,5.0,38114.0,47093.0,73524.0,104772.0,33200.0,54529.0,30888.0,59448.0,21569.0,19067.0
2026-05-06 15:47:23.020184,378224,1609504706524352,2306436697,0.923296,-0.005856,0.005856,-1.4175,-1.35625,-2.6775,-35.032,-15.024001,-88.05601,none,3,5.0,38114.0,47093.0,73524.0,104772.0,33200.0,54529.0,30888.0,59448.0,21569.0,19067.0
2026-05-06 15:47:23.031453,378225,1609504706538949,2306449704,0.923296,-0.005856,0.031232,-1.56625,-1.58375,-2.5025,-35.288002,-14.920001,-89.05601,none,3,5.0,38114.0,47093.0,73524.0,104772.0,33200.0,54529.0,30888.0,59448.0,21569.0,19067.0
2026-05-06 15:47:23.040080,378226,1609504706548124,2306460485,0.919392,-0.005856,0.035136,-2.8,-1.19875,-2.03,-35.136,-14.672001,-89.408005,none,3,5.0,38114.0,47093.0,73524.0,104772.0,33200.0,54529.0,30888.0,59448.0,21569.0,19067.0
2026-05-06 15:47:23.054006,378227,1609504706562630,2306473398,0.919392,-0.005856,0.035136,-3.63125,-1.0675,-2.30125,-35.136,-14.672001,-89.408005,none,3,5.0,38114.0,47093.0,73524.0,104772.0,33200.0,54529.0,30888.0,59448.0,21569.0,19067.0
2026-05-06 15:47:23.063818,378228,1609504706571961,2306484173,0.915488,-0.017568,0.007808,-4.05125,-1.11125,-2.16125,-35.04,-14.984001,-88.8,none,3,5.0,38114.0,47093.0,73524.0,104772.0,33200.0,54529.0,30888.0,59448.0,21569.0,19067.0
2026-05-06 15:47:23.076155,378229,1609504706580909,2306492886,0.915488,-0.017568,0.007808,-3.63125,-1.26,-2.14375,-35.04,-14.984001,-88.8,none,3,5.0,38114.0,47093.0,73524.0,104772.0,33200.0,54529.0,30888.0,59448.0,21569.0,19067.0
2026-05-06 15:47:23.112493,378240,1609504706596145,2306507847,0.909632,-0.023424,-0.025376,-3.64,-1.35625,-1.84625,-35.064003,-14.648001,-89.248,none,3,5.0,38157.0,47131.0,73488.0,104634.0,33209.0,54511.0,30856.0,59343.0,21578.0,19052.0
2026-05-06 15:47:23.114890,378241,1609504706605146,2306516719,0.909632,-0.023424,-0.025376,-3.1675,-1.53125,-1.785,-35.064003,-14.648001,-89.248,none,3,5.0,38157.0,47131.0,73488.0,104634.0,33209.0,54511.0,30856.0,59343.0,21578.0,19052.0
2026-05-06 15:47:23.117349,378242,1609504706614303,2306525471,0.929152,-0.023424,0.013664,-3.03625,-1.75,-1.00625,-35.528,-16.6,-87.776,none,3,5.0,38157.0,47131.0,73488.0,104634.0,33209.0,54511.0,30856.0,59343.0,21578.0,19052.0
2026-05-06 15:47:23.119918,378243,1609504706629247,2306540448,0.89792,-0.007808,-0.021472,-3.57,-1.435,-1.23375,-35.280003,-16.52,-86.52801,none,3,5.0,38157.0,47131.0,73488.0,104634.0,33209.0,54511.0,30856.0,59343.0,21578.0,19052.0
2026-05-06 15:47:23.128585,378244,1609504706638647,2306551326,0.89792,-0.007808,-0.021472,-3.80625,-1.4525,-1.2775,-35.280003,-16.52,-86.52801,none,3,5.0,38157.0,47131.0,73488.0,104634.0,33209.0,54511.0,30856.0,59343.0,21578.0,19052.0
2026-05-06 15:47:23.162570,378245,1609504706653243,2306564196,0.931104,-0.017568,0.013664,-3.675,-1.295,-0.945,-34.904003,-15.000001,-89.352005,none,3,5.0,38157.0,47131.0,73488.0,104634.0,33209.0,54511.0,30856.0,59343.0,21578.0,19052.0
2026-05-06 15:47:23.187519,378246,1609504706662637,2306575035,0.931104,-0.017568,0.013664,-4.17375,-1.39125,-1.40875,-34.904003,-15.000001,-89.352005,none,3,5.0,38157.0,47131.0,73488.0,104634.0,33209.0,54511.0,30856.0,59343.0,21578.0,19052.0
2026-05-06 15:47:23.197515,378247,1609504706671579,2306583794,0.929152,-0.031232,0.031232,-4.34875,-0.86625,-1.42625,-34.920002,-15.088,-89.01601,none,3,5.0,38157.0,47131.0,73488.0,104634.0,33209.0,54511.0,30856.0,59343.0,21578.0,19052.0
2026-05-06 15:47:23.200242,378248,1609504706686092,2306598718,0.929152,-0.031232,0.031232,-4.48,-0.6825,-1.435,-34.920002,-15.088,-89.01601,none,3,5.0,38157.0,47131.0,73488.0,104634.0,33209.0,54511.0,30856.0,59343.0,21578.0,19052.0
2026-05-06 15:47:23.232705,378259,1609504706695469,2306607514,0.905728,-0.031232,-0.054656,-4.38375,-0.93625,-1.1025,-35.008003,-14.272,-88.784004,none,3,5.0,38236.0,47197.0,73533.0,104752.0,33291.0,54605.0,30876.0,59393.0,21600.0,19089.0
2026-05-06 15:47:23.235336,378260,1609504706704686,2306616396,0.905728,-0.031232,-0.054656,-3.63125,-1.02375,-0.91,-35.008003,-14.272,-88.784004,none,3,5.0,38236.0,47197.0,73533.0,104752.0,33291.0,54605.0,30876.0,59393.0,21600.0,19089.0
2026-05-06 15:47:23.237659,378261,1609504706719284,2306631374,0.909632,-0.017568,-0.011712,-2.6075,-0.76125,-0.84875,-35.136,-15.376,-89.024,none,3,5.0,38236.0,47197.0,73533.0,104752.0,33291.0,54605.0,30876.0,59393.0,21600.0,19089.0
2026-05-06 15:47:23.240194,378262,1609504706728263,2306640158,0.909632,-0.017568,0.00976,-2.91375,-0.90125,-1.1725,-35.136,-15.376,-89.024,none,3,5.0,38236.0,47197.0,73533.0,104752.0,33291.0,54605.0,30876.0,59393.0,21600.0,19089.0
2026-05-06 15:47:23.242700,378263,1609504706742818,2306655151,0.905728,-0.00976,0.00976,-4.12125,-0.735,-1.0675,-35.008003,-14.656001,-90.20801,none,3,5.0,38236.0,47197.0,73533.0,104752.0,33291.0,54605.0,30876.0,59393.0,21600.0,19089.0
2026-05-06 15:47:23.245206,378264,1609504706751743,2306663865,0.909632,-0.01952,-0.005856,-3.56125,-0.77875,-1.40875,-35.112003,-14.952001,-89.352005,none,3,5.0,38236.0,47197.0,73533.0,104752.0,33291.0,54605.0,30876.0,59393.0,21600.0,19089.0
2026-05-06 15:47:23.258780,378265,1609504706766297,2306678810,0.909632,-0.01952,-0.005856,-3.59625,-0.7525,-2.07375,-35.112003,-14.952001,-89.352005,none,3,5.0,38236.0,47197.0,73533.0,104752.0,33291.0,54605.0,30876.0,59393.0,21600.0,19089.0
2026-05-06 15:47:23.291717,378266,1609504706775227,2306687500,0.919392,-0.03904,-0.031232,-5.5125,-0.56875,-1.26,-35.120003,-14.568001,-88.79201,none,3,5.0,38236.0,47197.0,73533.0,104752.0,33291.0,54605.0,30876.0,59393.0,21600.0,19089.0
2026-05-06 15:47:23.292571,378267,1609504706784223,2306696236,0.919392,-0.03904,-0.031232,-5.95875,-0.48125,-0.35875,-35.120003,-14.568001,-88.79201,none,3,5.0,38236.0,47197.0,73533.0,104752.0,33291.0,54605.0,30876.0,59393.0,21600.0,19089.0
2026-05-06 15:47:23.327530,378278,1609504706798968,2306711231,0.923296,-0.033184,0.015616,-5.25875,-0.67375,-0.41125,-35.0,-14.848001,-89.07201,none,3,5.0,38304.0,47241.0,73608.0,104857.0,33330.0,54652.0,30898.0,59463.0,21629.0,19110.0
2026-05-06 15:47:23.332556,378279,1609504706807946,2306720083,0.923296,-0.033184,0.015616,-5.11875,-0.86625,-0.06125,-35.0,-14.848001,-89.07201,none,3,5.0,38304.0,47241.0,73608.0,104857.0,33330.0,54652.0,30898.0,59463.0,21629.0,19110.0
2026-05-06 15:47:23.335027,378280,1609504706822574,2306735066,0.89792,0.0,0.011712,-4.06,-0.81375,-0.1925,-34.864002,-16.216002,-89.600006,none,3,5.0,38304.0,47241.0,73608.0,104857.0,33330.0,54652.0,30898.0,59463.0,21629.0,19110.0
2026-05-06 15:47:23.337547,378281,1609504706831616,2306743780,0.901824,-0.013664,-0.025376,-2.8525,-1.05,-0.2625,-34.976,-16.392,-87.8,none,3,5.0,38304.0,47241.0,73608.0,104857.0,33330.0,54652.0,30898.0,59463.0,21629.0,19110.0
2026-05-06 15:47:23.340100,378282,1609504706840571,2306752513,0.901824,-0.013664,-0.025376,-3.14125,-0.72625,-0.65625,-34.976,-16.392,-87.8,none,3,5.0,38304.0,47241.0,73608.0,104857.0,33330.0,54652.0,30898.0,59463.0,21629.0,19110.0
2026-05-06 15:47:23.346512,378283,1609504706855096,2306767452,0.925248,-0.042944,-0.00976,-4.12125,-0.7525,-0.5775,-34.992,-16.648,-87.312004,none,3,5.0,38304.0,47241.0,73608.0,104857.0,33330.0,54652.0,30898.0,59463.0,21629.0,19110.0
2026-05-06 15:47:23.355395,378284,1609504706864034,2306776162,0.925248,-0.042944,-0.00976,-5.075,-1.12875,-0.79625,-34.992,-16.648,-87.312004,none,3,5.0,38304.0,47241.0,73608.0,104857.0,33330.0,54652.0,30898.0,59463.0,21629.0,19110.0
2026-05-06 15:47:23.388778,378285,1609504706878551,2306791098,0.91744,-0.023424,0.015616,-4.7075,-1.19,-0.69125,-35.096,-16.208,-87.68001,none,3,5.0,38304.0,47241.0,73608.0,104857.0,33330.0,54652.0,30898.0,59463.0,21629.0,19110.0
2026-05-06 15:47:23.391241,378286,1609504706887473,2306799805,0.91744,-0.023424,0.015616,-4.06875,-1.35625,-0.8575,-35.096,-16.208,-87.68001,none,3,5.0,38304.0,47241.0,73608.0,104857.0,33330.0,54652.0,30898.0,59463.0,21629.0,19110.0
2026-05-06 15:47:23.418845,378297,1609504706902075,2306812879,0.91744,-0.017568,-0.003904,-3.2025,-1.32125,-0.65625,-35.184002,-14.64,-89.096,none,3,5.0,38335.0,47284.0,73642.0,104865.0,33366.0,54672.0,30904.0,59448.0,21647.0,19133.0
2026-05-06 15:47:23.421417,378298,1609504706911342,2306823680,0.921344,-0.033184,-0.00976,-3.325,-1.1025,-0.42,-35.120003,-14.848001,-90.52801,none,3,5.0,38335.0,47284.0,73642.0,104865.0,33366.0,54672.0,30904.0,59448.0,21647.0,19133.0
2026-05-06 15:47:23.423861,378299,1609504706920486,2306832447,0.921344,-0.033184,-0.00976,-4.34875,-1.19875,-0.86625,-35.120003,-14.848001,-90.52801,none,3,5.0,38335.0,47284.0,73642.0,104865.0,33366.0,54672.0,30904.0,59448.0,21647.0,19133.0
2026-05-06 15:47:23.426388,378300,1609504706935149,2306847507,0.925248,-0.035136,-0.013664,-5.1625,-0.9625,-1.04125,-35.056004,-14.608001,-88.672005,none,3,5.0,38335.0,47284.0,73642.0,104865.0,33366.0,54672.0,30904.0,59448.0,21647.0,19133.0
2026-05-06 15:47:23.435178,378301,1609504706944207,2306856240,0.925248,-0.035136,-0.013664,-5.32875,-0.79625,-1.21625,-35.056004,-14.608001,-88.672005,none,3,5.0,38335.0,47284.0,73642.0,104865.0,33366.0,54672.0,30904.0,59448.0,21647.0,19133.0
2026-05-06 15:47:23.468824,378302,1609504706958710,2306871127,0.919392,-0.015616,-0.007808,-4.90875,-0.77,-1.4525,-35.24,-14.808001,-89.048004,none,3,5.0,38335.0,47284.0,73642.0,104865.0,33366.0,54672.0,30904.0,59448.0,21647.0,19133.0
2026-05-06 15:47:23.471302,378303,1609504706967656,2306879870,0.919392,-0.015616,-0.007808,-4.1125,-0.5075,-1.855,-35.24,-14.808001,-89.048004,none,3,5.0,38335.0,47284.0,73642.0,104865.0,33366.0,54672.0,30904.0,59448.0,21647.0,19133.0
2026-05-06 15:47:23.473793,378304,1609504706976568,2306888742,0.90768,-0.025376,0.0,-3.63125,-0.58625,-2.37125,-34.664,-15.016001,-89.08,none,3,5.0,38335.0,47284.0,73642.0,104865.0,33366.0,54672.0,30904.0,59448.0,21647.0,19133.0
2026-05-06 15:47:23.482578,378305,1609504706991092,2306903667,0.905728,-0.035136,-0.005856,-4.01625,-0.5775,-2.415,-35.280003,-16.616001,-87.144005,none,3,5.0,38335.0,47284.0,73642.0,104865.0,33366.0,54672.0,30904.0,59448.0,21647.0,19133.0
2026-05-06 15:47:23.536294,378316,1609504707000160,2306912456,0.905728,-0.035136,-0.005856,-4.34875,-1.04125,-2.07375,-35.280003,-16.616001,-87.144005,none,3,5.0,38344.0,47293.0,73683.0,104911.0,33413.0,54716.0,30945.0,59487.0,21688.0,19152.0
2026-05-06 15:47:23.562580,378317,1609504707014776,2306927429,0.91744,-0.02928,-0.001952,-4.2525,-0.6825,-1.53125,-35.0,-14.848001,-88.816,none,3,5.0,38344.0,47293.0,73683.0,104911.0,33413.0,54716.0,30945.0,59487.0,21688.0,19152.0
2026-05-06 15:47:23.587720,378318,1609504707023769,2306936147,0.91744,-0.02928,-0.001952,-2.8175,-0.56875,-2.28375,-35.0,-14.848001,-88.816,none,3,5.0,38344.0,47293.0,73683.0,104911.0,33413.0,54716.0,30945.0,59487.0,21688.0,19152.0
2026-05-06 15:47:23.590207,378319,1609504707038303,2306949070,0.905728,-0.023424,-0.001952,-2.49375,-0.4025,-2.66,-34.888,-15.224001,-88.984,none,3,5.0,38344.0,47293.0,73683.0,104911.0,33413.0,54716.0,30945.0,59487.0,21688.0,19152.0
2026-05-06 15:47:23.592677,378320,1609504707047543,2306959843,0.905728,-0.023424,-0.001952,-4.61125,-0.315,-2.49375,-34.888,-15.224001,-88.984,none,3,5.0,38344.0,47293.0,73683.0,104911.0,33413.0,54716.0,30945.0,59487.0,21688.0,19152.0
2026-05-06 15:47:23.595203,378321,1609504707056456,2306968594,0.913536,-0.044896,0.005856,-5.985,-0.35,-2.91375,-35.104,-15.360001,-88.784004,none,3,5.0,38344.0,47293.0,73683.0,104911.0,33413.0,54716.0,30945.0,59487.0,21688.0,19152.0
2026-05-06 15:47:23.597556,378322,1609504707070971,2306983505,0.913536,-0.044896,-0.02928,-5.0925,-0.06125,-2.72125,-35.104,-15.360001,-88.784004,none,3,5.0,38344.0,47293.0,73683.0,104911.0,33413.0,54716.0,30945.0,59487.0,21688.0,19152.0
2026-05-06 15:47:23.600204,378323,1609504707080009,2306992252,0.905728,-0.0488,-0.02928,-3.92,0.315,-2.765,-35.120003,-14.448001,-89.152,none,3,5.0,38344.0,47293.0,73683.0,104911.0,33413.0,54716.0,30945.0,59487.0,21688.0,19152.0
2026-05-06 15:47:23.633539,378334,1609504707094538,2307007641,0.91744,-0.044896,0.005856,-3.3775,-0.28875,-2.135,-34.928,-14.976001,-88.936005,none,3,5.0,38330.0,47294.0,73735.0,104935.0,33456.0,54746.0,30969.0,59564.0,21696.0,19173.0
2026-05-06 15:47:23.634696,378335,1609504707103535,2307014293,0.91744,-0.044896,0.005856,-3.84125,-0.2275,-1.44375,-34.928,-14.976001,-88.936005,none,3,5.0,38330.0,47294.0,73735.0,104935.0,33456.0,54746.0,30969.0,59564.0,21696.0,19173.0
2026-05-06 15:47:23.639948,378336,1609504707112777,2307025110,0.931104,-0.044896,0.013664,-4.8475,0.14,-1.72375,-34.856003,-16.352001,-89.36,none,3,5.0,38330.0,47294.0,73735.0,104935.0,33456.0,54746.0,30969.0,59564.0,21696.0,19173.0
2026-05-06 15:47:23.642556,378337,1609504707127421,2307040202,0.931104,-0.044896,0.013664,-4.27,0.00875,-1.9425,-34.856003,-16.352001,-89.36,none,3,5.0,38330.0,47294.0,73735.0,104935.0,33456.0,54746.0,30969.0,59564.0,21696.0,19173.0
2026-05-06 15:47:23.645071,378338,1609504707136470,2307048946,0.903776,-0.031232,0.040992,-3.12375,-0.4375,-2.03,-35.008003,-17.136002,-87.504005,none,3,5.0,38330.0,47294.0,73735.0,104935.0,33456.0,54746.0,30969.0,59564.0,21696.0,19173.0
2026-05-06 15:47:23.647498,378339,1609504707151009,2307061822,0.903776,-0.031232,0.040992,-3.00125,-0.55125,-1.70625,-35.008003,-17.136002,-87.504005,none,3,5.0,38330.0,47294.0,73735.0,104935.0,33456.0,54746.0,30969.0,59564.0,21696.0,19173.0
2026-05-06 15:47:23.650041,378340,1609504707160312,2307072566,0.905728,-0.052704,-0.033184,-2.80875,-0.49,-1.21625,-34.896,-14.52,-88.896,none,3,5.0,38330.0,47294.0,73735.0,104935.0,33456.0,54746.0,30969.0,59564.0,21696.0,19173.0
2026-05-06 15:47:23.663667,378341,1609504707169241,2307081269,0.905728,-0.052704,-0.033184,-2.63375,-0.6475,-1.225,-34.896,-14.52,-88.896,none,3,5.0,38330.0,47294.0,73735.0,104935.0,33456.0,54746.0,30969.0,59564.0,21696.0,19173.0
2026-05-06 15:47:23.677432,378342,1609504707183786,2307096191,0.909632,-0.044896,0.005856,-3.01,-0.1925,-1.82875,-35.264,-15.248001,-89.088005,none,3,5.0,38330.0,47294.0,73735.0,104935.0,33456.0,54746.0,30969.0,59564.0,21696.0,19173.0
2026-05-06 15:47:23.683642,378343,1609504707192807,2307104949,0.911584,-0.035136,-0.01952,-2.6775,0.2275,-1.91625,-35.4,-14.824,-89.928,none,3,5.0,38330.0,47294.0,73735.0,104935.0,33456.0,54746.0,30969.0,59564.0,21696.0,19173.0
2026-05-06 15:47:23.720762,378354,1609504707207382,2307119993,0.911584,-0.035136,-0.01952,-1.085,-0.315,-2.4675,-35.4,-14.824,-89.928,none,3,5.0,38302.0,47218.0,73682.0,104906.0,33446.0,54762.0,30976.0,59548.0,21717.0,19191.0
2026-05-06 15:47:23.722494,378355,1609504707216324,2307128784,0.913536,-0.021472,0.00976,-0.41125,-0.49,-3.045,-35.36,-15.176001,-89.01601,none,3,5.0,38302.0,47218.0,73682.0,104906.0,33446.0,54762.0,30976.0,59548.0,21717.0,19191.0
2026-05-06 15:47:23.724984,378356,1609504707230836,2307141664,0.913536,-0.021472,0.00976,-1.12,-0.14875,-3.42125,-35.36,-15.176001,-89.01601,none,3,5.0,38302.0,47218.0,73682.0,104906.0,33446.0,54762.0,30976.0,59548.0,21717.0,19191.0
2026-05-06 15:47:23.732948,378357,1609504707240213,2307152563,0.919392,-0.040992,0.013664,-1.5925,0.21,-4.78625,-35.416,-18.504002,-86.94401,none,3,5.0,38302.0,47218.0,73682.0,104906.0,33446.0,54762.0,30976.0,59548.0,21717.0,19191.0
2026-05-06 15:47:23.741273,378358,1609504707249153,2307161312,0.919392,-0.040992,0.013664,-2.45,0.0175,-4.795,-35.416,-18.504002,-86.94401,none,3,5.0,38302.0,47218.0,73682.0,104906.0,33446.0,54762.0,30976.0,59548.0,21717.0,19191.0
2026-05-06 15:47:23.757563,378359,1609504707263832,2307176220,0.905728,-0.033184,-0.003904,-2.61625,0.25375,-4.8125,-35.0,-15.128,-88.632,none,3,5.0,38302.0,47218.0,73682.0,104906.0,33446.0,54762.0,30976.0,59548.0,21717.0,19191.0
2026-05-06 15:47:23.763684,378360,1609504707272766,2307185010,0.905728,-0.035136,-0.013664,-2.6075,0.875,-4.66375,-35.0,-15.128,-88.632,none,3,5.0,38302.0,47218.0,73682.0,104906.0,33446.0,54762.0,30976.0,59548.0,21717.0,19191.0
2026-05-06 15:47:23.785173,378361,1609504707287244,2307199915,0.903776,-0.035136,-0.013664,-2.94,0.88375,-4.445,-35.176003,-14.824,-89.48,none,3,5.0,38302.0,47218.0,73682.0,104906.0,33446.0,54762.0,30976.0,59548.0,21717.0,19191.0
2026-05-06 15:47:23.816371,378372,1609504707296143,2307208819,0.921344,-0.017568,0.007808,-2.51125,0.8925,-4.1125,-34.976,-15.408001,-89.12,none,3,5.0,38272.0,47182.0,73645.0,104606.0,33387.0,54660.0,30924.0,59313.0,21655.0,19116.0
2026-05-06 15:47:23.818662,378373,1609504707305222,2307217576,0.921344,-0.017568,0.007808,-1.77625,0.9625,-4.3575,-34.976,-15.408001,-89.12,none,3,5.0,38272.0,47182.0,73645.0,104606.0,33387.0,54660.0,30924.0,59313.0,21655.0,19116.0
2026-05-06 15:47:23.821108,378374,1609504707319814,2307232572,0.921344,-0.017568,0.007808,-1.0325,1.015,-4.83,-35.248,-15.960001,-89.192,none,3,5.0,38272.0,47182.0,73645.0,104606.0,33387.0,54660.0,30924.0,59313.0,21655.0,19116.0
2026-05-06 15:47:23.826321,378375,1609504707328929,2307241278,0.921344,-0.017568,0.007808,-1.68875,0.95375,-5.29375,-35.248,-15.960001,-89.192,none,3,5.0,38272.0,47182.0,73645.0,104606.0,33387.0,54660.0,30924.0,59313.0,21655.0,19116.0
2026-05-06 15:47:23.832520,378376,1609504707343466,2307254235,0.90768,-0.033184,0.021472,-4.66375,0.65625,-4.99625,-35.312,-16.864,-87.128006,none,3,5.0,38272.0,47182.0,73645.0,104606.0,33387.0,54660.0,30924.0,59313.0,21655.0,19116.0
2026-05-06 15:47:23.843761,378377,1609504707352730,2307265079,0.90768,-0.033184,0.021472,-6.055,0.88375,-4.33125,-35.312,-16.864,-87.128006,none,3,5.0,38272.0,47182.0,73645.0,104606.0,33387.0,54660.0,30924.0,59313.0,21655.0,19116.0
2026-05-06 15:47:23.853784,378378,1609504707361651,2307273778,0.90768,-0.050752,-0.023424,-4.47125,1.16375,-3.92,-35.448,-16.712,-87.912,none,3,5.0,38272.0,47182.0,73645.0,104606.0,33387.0,54660.0,30924.0,59313.0,21655.0,19116.0
2026-05-06 15:47:23.867704,378379,1609504707376337,2307288756,0.915488,-0.013664,0.011712,-2.51125,1.00625,-3.92,-35.08,-15.840001,-88.94401,none,3,5.0,38272.0,47182.0,73645.0,104606.0,33387.0,54660.0,30924.0,59313.0,21655.0,19116.0
2026-05-06 15:47:23.899946,378380,1609504707385294,2307297547,0.915488,-0.013664,0.011712,0.0,0.8575,-4.06875,-35.08,-15.840001,-88.94401,none,3,5.0,38272.0,47182.0,73645.0,104606.0,33387.0,54660.0,30924.0,59313.0,21655.0,19116.0
2026-05-06 15:47:23.985158,378391,1609504707399937,2307312549,0.915488,-0.01952,-0.023424,1.68875,0.76125,-3.92875,-35.048,-14.928,-88.936005,none,3,5.0,38197.0,47181.0,73611.0,104548.0,33394.0,54654.0,30894.0,59292.0,21661.0,19103.0
2026-05-06 15:47:23.987638,378392,1609504707408979,2307321377,0.915488,-0.01952,-0.023424,0.665,0.385,-4.24375,-35.048,-14.928,-88.936005,none,3,5.0,38197.0,47181.0,73611.0,104548.0,33394.0,54654.0,30894.0,59292.0,21661.0,19103.0
2026-05-06 15:47:23.990147,378393,1609504707417908,2307330120,0.921344,-0.031232,0.007808,-0.95375,0.20125,-4.2875,-35.04,-15.024001,-88.576004,none,3,5.0,38197.0,47181.0,73611.0,104548.0,33394.0,54654.0,30894.0,59292.0,21661.0,19103.0
2026-05-06 15:47:23.992643,378394,1609504707432433,2307345131,0.921344,-0.031232,0.007808,-2.8,0.21875,-4.4625,-35.04,-15.024001,-88.576004,none,3,5.0,38197.0,47181.0,73611.0,104548.0,33394.0,54654.0,30894.0,59292.0,21661.0,19103.0
2026-05-06 15:47:23.995137,378395,1609504707441336,2307353831,0.923296,-0.03904,0.013664,-3.5175,0.595,-5.03125,-35.208,-15.256001,-91.464005,none,3,5.0,38197.0,47181.0,73611.0,104548.0,33394.0,54654.0,30894.0,59292.0,21661.0,19103.0
2026-05-06 15:47:23.997559,378396,1609504707455826,2307366678,0.903776,-0.021472,0.001952,-2.38875,0.53375,-5.565,-34.856003,-15.016001,-89.48,none,3,5.0,38197.0,47181.0,73611.0,104548.0,33394.0,54654.0,30894.0,59292.0,21661.0,19103.0
2026-05-06 15:47:24.001549,378397,1609504707465138,2307377438,0.903776,-0.021472,0.001952,-0.44625,0.56,-5.8275,-34.856003,-15.016001,-89.48,none,3,5.0,38197.0,47181.0,73611.0,104548.0,33394.0,54654.0,30894.0,59292.0,21661.0,19103.0
2026-05-06 15:47:24.012130,378398,1609504707479638,2307390399,0.919392,-0.021472,0.027328,-0.00875,0.62125,-5.9675,-35.448,-15.280001,-88.816,none,3,5.0,38197.0,47181.0,73611.0,104548.0,33394.0,54654.0,30894.0,59292.0,21661.0,19103.0
2026-05-06 15:47:24.013315,378399,1609504707488887,2307401206,0.919392,-0.021472,0.027328,-0.51625,0.09625,-5.915,-35.448,-15.280001,-88.816,none,3,5.0,38197.0,47181.0,73611.0,104548.0,33394.0,54654.0,30894.0,59292.0,21661.0,19103.0
2026-05-06 15:47:24.047593,378410,1609504707497958,2307410175,0.929152,-0.031232,0.025376,-0.98875,0.35875,-5.635,-35.384003,-16.872002,-86.968,none,3,5.0,38145.0,47107.0,73504.0,104621.0,33427.0,54665.0,30883.0,59351.0,21663.0,19122.0
2026-05-06 15:47:24.050202,378411,1609504707512594,2307425340,0.929152,-0.031232,0.025376,-1.7675,0.70875,-5.7925,-35.384003,-16.872002,-86.968,none,3,5.0,38145.0,47107.0,73504.0,104621.0,33427.0,54665.0,30883.0,59351.0,21663.0,19122.0
2026-05-06 15:47:24.052696,378412,1609504707521550,2307434145,0.909632,-0.025376,0.027328,-2.7125,1.05,-5.8975,-35.688004,-18.672,-86.54401,none,3,5.0,38145.0,47107.0,73504.0,104621.0,33427.0,54665.0,30883.0,59351.0,21663.0,19122.0
2026-05-06 15:47:24.055173,378413,1609504707536177,2307447040,0.923296,-0.042944,-0.011712,-2.45,0.8225,-5.52125,-35.24,-18.656,-86.22401,none,3,5.0,38145.0,47107.0,73504.0,104621.0,33427.0,54665.0,30883.0,59351.0,21663.0,19122.0
2026-05-06 15:47:24.057640,378414,1609504707545755,2307457918,0.923296,-0.042944,-0.011712,-1.75,0.27125,-4.99625,-35.24,-18.656,-86.22401,none,3,5.0,38145.0,47107.0,73504.0,104621.0,33427.0,54665.0,30883.0,59351.0,21663.0,19122.0
2026-05-06 15:47:24.060171,378415,1609504707554877,2307466678,0.923296,-0.042944,-0.001952,-1.07625,-0.30625,-4.62875,-35.24,-18.656,-86.22401,none,3,5.0,38145.0,47107.0,73504.0,104621.0,33427.0,54665.0,30883.0,59351.0,21663.0,19122.0
2026-05-06 15:47:24.062691,378416,1609504707569381,2307481665,0.911584,-0.015616,-0.001952,0.4375,-0.2275,-3.955,-35.216003,-18.752,-86.992004,none,3,5.0,38145.0,47107.0,73504.0,104621.0,33427.0,54665.0,30883.0,59351.0,21663.0,19122.0
2026-05-06 15:47:24.068936,378417,1609504707578371,2307490416,0.913536,-0.015616,0.017568,1.12875,-0.42,-4.7775,-35.512,-17.144001,-87.744,none,3,5.0,38145.0,47107.0,73504.0,104621.0,33427.0,54665.0,30883.0,59351.0,21663.0,19122.0
2026-05-06 15:47:24.103988,378418,1609504707592858,2307505387,0.913536,-0.015616,0.017568,-0.02625,0.035,-4.48875,-35.512,-17.144001,-87.744,none,3,5.0,38145.0,47107.0,73504.0,104621.0,33427.0,54665.0,30883.0,59351.0,21663.0,19122.0
2026-05-06 15:47:24.129985,378429,1609504707602017,2307514157,0.909632,-0.023424,0.02928,-2.205,0.315,-4.27,-35.120003,-14.864,-88.688,none,3,5.0,38230.0,47120.0,73537.0,104694.0,33496.0,54749.0,30905.0,59408.0,21728.0,19141.0
2026-05-06 15:47:24.132577,378430,1609504707611191,2307522890,0.909632,-0.023424,0.02928,-3.7625,0.37625,-4.29625,-35.120003,-14.864,-88.688,none,3,5.0,38230.0,47120.0,73537.0,104694.0,33496.0,54749.0,30905.0,59408.0,21728.0,19141.0
2026-05-06 15:47:24.135095,378431,1609504707625876,2307537965,0.935008,-0.01952,0.013664,-2.93125,0.69125,-4.2,-35.272003,-15.496,-88.80801,none,3,5.0,38230.0,47120.0,73537.0,104694.0,33496.0,54749.0,30905.0,59408.0,21728.0,19141.0
2026-05-06 15:47:24.137567,378432,1609504707634892,2307546727,0.935008,-0.01952,0.013664,-1.8725,0.35875,-4.8825,-35.272003,-15.496,-88.80801,none,3,5.0,38230.0,47120.0,73537.0,104694.0,33496.0,54749.0,30905.0,59408.0,21728.0,19141.0
2026-05-06 15:47:24.139909,378433,1609504707649393,2307561738,0.921344,-0.011712,-0.017568,-1.9425,0.315,-4.89125,-35.36,-16.44,-89.520004,none,3,5.0,38230.0,47120.0,73537.0,104694.0,33496.0,54749.0,30905.0,59408.0,21728.0,19141.0
2026-05-06 15:47:24.150189,378434,1609504707658389,2307570415,0.901824,-0.001952,-0.01952,-2.58125,0.49875,-5.215,-35.256,-15.496,-89.296005,none,3,5.0,38230.0,47120.0,73537.0,104694.0,33496.0,54749.0,30905.0,59408.0,21728.0,19141.0
2026-05-06 15:47:24.158907,378435,1609504707667312,2307579107,0.901824,-0.001952,-0.01952,-2.31875,0.245,-5.45125,-35.256,-15.496,-89.296005,none,3,5.0,38230.0,47120.0,73537.0,104694.0,33496.0,54749.0,30905.0,59408.0,21728.0,19141.0
2026-05-06 15:47:24.175203,378436,1609504707681829,2307594039,0.9272,-0.013664,0.01952,-2.98375,0.6125,-5.355,-35.440002,-18.784,-86.592,none,3,5.0,38230.0,47120.0,73537.0,104694.0,33496.0,54749.0,30905.0,59408.0,21728.0,19141.0
2026-05-06 15:47:24.181469,378437,1609504707690828,2307602748,0.9272,-0.013664,0.01952,-4.92625,0.95375,-5.53875,-35.440002,-18.784,-86.592,none,3,5.0,38230.0,47120.0,73537.0,104694.0,33496.0,54749.0,30905.0,59408.0,21728.0,19141.0
2026-05-06 15:47:24.222581,378448,1609504707705582,2307617796,0.921344,-0.027328,-0.031232,-6.23875,1.42625,-5.20625,-35.192,-15.688001,-89.064,none,3,5.0,38309.0,47177.0,73639.0,104786.0,33577.0,54839.0,30950.0,59443.0,21756.0,19185.0
2026-05-06 15:47:24.225092,378449,1609504707714685,2307626549,0.921344,-0.027328,-0.031232,-5.34625,1.3125,-5.39875,-35.192,-15.688001,-89.064,none,3,5.0,38309.0,47177.0,73639.0,104786.0,33577.0,54839.0,30950.0,59443.0,21756.0,19185.0
2026-05-06 15:47:24.227593,378450,1609504707723802,2307635306,0.91744,-0.005856,-0.00976,-2.8875,0.60375,-5.74875,-35.2,-15.208001,-88.888,none,3,5.0,38309.0,47177.0,73639.0,104786.0,33577.0,54839.0,30950.0,59443.0,21756.0,19185.0
2026-05-06 15:47:24.230051,378451,1609504707738392,2307650317,0.915488,0.001952,0.013664,-1.19,0.39375,-5.52125,-35.304,-15.472001,-88.632,none,3,5.0,38309.0,47177.0,73639.0,104786.0,33577.0,54839.0,30950.0,59443.0,21756.0,19185.0
2026-05-06 15:47:24.238861,378452,1609504707747323,2307659057,0.915488,0.001952,0.013664,-1.47875,0.7875,-5.0925,-35.304,-15.472001,-88.632,none,3,5.0,38309.0,47177.0,73639.0,104786.0,33577.0,54839.0,30950.0,59443.0,21756.0,19185.0
2026-05-06 15:47:24.267600,378453,1609504707761820,2307674006,0.899872,-0.011712,0.001952,-3.57875,0.77,-4.725,-35.56,-17.432001,-87.47201,none,3,5.0,38309.0,47177.0,73639.0,104786.0,33577.0,54839.0,30950.0,59443.0,21756.0,19185.0
2026-05-06 15:47:24.292940,378454,1609504707770755,2307682727,0.899872,-0.011712,0.001952,-5.10125,1.28625,-4.13,-35.56,-17.432001,-87.47201,none,3,5.0,38309.0,47177.0,73639.0,104786.0,33577.0,54839.0,30950.0,59443.0,21756.0,19185.0
2026-05-06 15:47:24.301282,378455,1609504707785275,2307697711,0.901824,-0.02928,-0.021472,-5.1625,1.75,-3.71,-35.24,-15.64,-88.72,none,3,5.0,38309.0,47177.0,73639.0,104786.0,33577.0,54839.0,30950.0,59443.0,21756.0,19185.0
2026-05-06 15:47:24.303741,378456,1609504707794223,2307706404,0.901824,-0.02928,-0.021472,-4.585,1.4875,-3.08875,-35.24,-15.64,-88.72,none,3,5.0,38309.0,47177.0,73639.0,104786.0,33577.0,54839.0,30950.0,59443.0,21756.0,19185.0
2026-05-06 15:47:24.343923,378467,1609504707803214,2307715256,0.90768,-0.007808,0.033184,-3.45625,1.49625,-2.3275,-35.224003,-15.528001,-88.664,none,3,5.0,38423.0,47208.0,73713.0,104888.0,33647.0,54936.0,30982.0,59520.0,21798.0,19209.0
2026-05-06 15:47:24.346414,378468,1609504707817760,2307730302,0.905728,-0.00976,0.023424,-2.73,1.47875,-1.39125,-35.280003,-15.248001,-89.008,none,3,5.0,38423.0,47208.0,73713.0,104888.0,33647.0,54936.0,30982.0,59520.0,21798.0,19209.0
2026-05-06 15:47:24.348852,378469,1609504707826821,2307739068,0.905728,-0.00976,0.023424,-3.92875,1.63625,-1.19,-35.280003,-15.248001,-89.008,none,3,5.0,38423.0,47208.0,73713.0,104888.0,33647.0,54936.0,30982.0,59520.0,21798.0,19209.0
2026-05-06 15:47:24.351446,378470,1609504707841559,2307754071,0.90768,-0.025376,0.017568,-5.55625,1.70625,-0.4025,-35.480003,-18.192001,-86.064,none,3,5.0,38423.0,47208.0,73713.0,104888.0,33647.0,54936.0,30982.0,59520.0,21798.0,19209.0
2026-05-06 15:47:24.353944,378471,1609504707850599,2307762800,0.90768,-0.025376,0.017568,-6.3,1.5225,0.35,-35.480003,-18.192001,-86.064,none,3,5.0,38423.0,47208.0,73713.0,104888.0,33647.0,54936.0,30982.0,59520.0,21798.0,19209.0
2026-05-06 15:47:24.356452,378472,1609504707859621,2307771487,0.892064,-0.033184,0.015616,-5.075,1.65375,0.79625,-34.944,-15.784,-88.76,none,3,5.0,38423.0,47208.0,73713.0,104888.0,33647.0,54936.0,30982.0,59520.0,21798.0,19209.0
2026-05-06 15:47:24.365194,378473,1609504707874191,2307786447,0.892064,-0.033184,0.015616,-5.64375,1.6275,1.925,-34.944,-15.784,-88.76,none,3,5.0,38423.0,47208.0,73713.0,104888.0,33647.0,54936.0,30982.0,59520.0,21798.0,19209.0
2026-05-06 15:47:24.373945,378474,1609504707883165,2307795160,0.892064,-0.044896,0.02928,-5.92375,2.1875,3.4825,-35.208,-15.896001,-88.688,none,3,5.0,38423.0,47208.0,73713.0,104888.0,33647.0,54936.0,30982.0,59520.0,21798.0,19209.0
2026-05-06 15:47:24.407424,378475,1609504707897671,2307810126,0.876448,-0.076128,0.003904,-5.915,2.415,5.0575,-35.208,-15.896001,-88.36,none,3,5.0,38423.0,47208.0,73713.0,104888.0,33647.0,54936.0,30982.0,59520.0,21798.0,19209.0
2026-05-06 15:47:24.434701,378486,1609504707906789,2307818930,0.874496,-0.076128,0.003904,-6.4925,3.2375,6.90375,-35.376003,-15.096001,-88.36,none,3,5.0,38485.0,47260.0,73692.0,104994.0,33692.0,54959.0,30974.0,59595.0,21821.0,19238.0
2026-05-06 15:47:24.437446,378487,1609504707921311,2307833912,0.864736,-0.06832,0.013664,-7.6475,3.9025,9.03,-35.648003,-15.376,-88.312004,none,3,5.0,38485.0,47260.0,73692.0,104994.0,33692.0,54959.0,30974.0,59595.0,21821.0,19238.0
2026-05-06 15:47:24.440072,378488,1609504707930242,2307842655,0.864736,-0.06832,0.013664,-8.0675,3.94625,12.20625,-35.648003,-15.376,-88.312004,none,3,5.0,38485.0,47260.0,73692.0,104994.0,33692.0,54959.0,30974.0,59595.0,21821.0,19238.0
2026-05-06 15:47:24.442508,378489,1609504707939238,2307851427,0.843264,-0.091744,-0.02928,-7.875,4.34,15.82875,-35.328003,-16.968,-88.16,none,3,5.0,38485.0,47260.0,73692.0,104994.0,33692.0,54959.0,30974.0,59595.0,21821.0,19238.0
2026-05-06 15:47:24.445106,378490,1609504707953836,2307866395,0.843264,-0.091744,-0.02928,-8.155,5.1625,19.55625,-35.328003,-16.968,-88.16,none,3,5.0,38485.0,47260.0,73692.0,104994.0,33692.0,54959.0,30974.0,59595.0,21821.0,19238.0
2026-05-06 15:47:24.453800,378491,1609504707962784,2307875109,0.804224,-0.113216,0.027328,-10.01875,6.08125,23.9225,-35.24,-15.264001,-88.128006,none,3,5.0,38485.0,47260.0,73692.0,104994.0,33692.0,54959.0,30974.0,59595.0,21821.0,19238.0
2026-05-06 15:47:24.475948,378492,1609504707977431,2307890119,0.804224,-0.113216,0.027328,-10.3425,6.06375,29.8725,-35.24,-15.264001,-88.128006,none,3,5.0,38485.0,47260.0,73692.0,104994.0,33692.0,54959.0,30974.0,59595.0,21821.0,19238.0
2026-05-06 15:47:24.477559,378493,1609504707986532,2307898849,0.776896,-0.193248,-0.031232,-9.82625,6.5625,36.68,-35.824,-14.264001,-89.44,none,3,5.0,38485.0,47260.0,73692.0,104994.0,33692.0,54959.0,30974.0,59595.0,21821.0,19238.0
2026-05-06 15:47:24.486389,378494,1609504707995524,2307907560,0.776896,-0.193248,-0.031232,-10.6225,6.34375,43.0675,-35.824,-14.264001,-89.44,none,3,5.0,38485.0,47260.0,73692.0,104994.0,33692.0,54959.0,30974.0,59595.0,21821.0,19238.0
2026-05-06 15:47:24.517359,378505,1609504708010190,2307922620,0.772992,-0.144448,0.027328,-13.53625,6.3875,47.4425,-36.16,-15.048,-86.888,none,3,5.0,38565.0,47160.0,73359.0,104893.0,33691.0,54773.0,30759.0,59462.0,21805.0,19146.0
2026-05-06 15:47:24.519940,378506,1609504708019138,2307931322,0.732,-0.085888,-0.0488,-7.84875,7.0175,51.63375,-36.0,-13.200001,-85.104004,none,3,5.0,38565.0,47160.0,73359.0,104893.0,33691.0,54773.0,30759.0,59462.0,21805.0,19146.0
2026-05-06 15:47:24.528555,378507,1609504708033725,2307946420,0.732,-0.085888,-0.0488,-2.09125,6.3175,53.7425,-36.0,-13.200001,-85.104004,concentric,3,5.0,38565.0,47160.0,73359.0,104893.0,33691.0,54773.0,30759.0,59462.0,21805.0,19146.0
2026-05-06 15:47:24.535596,378508,1609504708042718,2307955152,0.786656,-0.124928,-0.042944,-1.2075,5.45125,57.65375,-36.168003,-12.240001,-87.856,concentric,3,5.0,38565.0,47160.0,73359.0,104893.0,33691.0,54773.0,30759.0,59462.0,21805.0,19146.0
2026-05-06 15:47:24.567748,378509,1609504708057297,2307968121,0.786656,-0.124928,-0.042944,-3.885,4.5325,64.1025,-36.168003,-12.240001,-87.856,concentric,3,5.0,38565.0,47160.0,73359.0,104893.0,33691.0,54773.0,30759.0,59462.0,21805.0,19146.0
2026-05-06 15:47:24.567875,378510,1609504708066691,2307978901,0.880352,-0.220576,0.001952,-19.425,3.22875,64.8375,-36.264,-11.112,-87.37601,concentric,3,5.0,38565.0,47160.0,73359.0,104893.0,33691.0,54773.0,30759.0,59462.0,21805.0,19146.0
2026-05-06 15:47:24.570311,378511,1609504708075684,2307987627,0.880352,-0.220576,0.001952,-35.81375,3.36,61.24125,-36.264,-11.112,-87.37601,concentric,3,5.0,38565.0,47160.0,73359.0,104893.0,33691.0,54773.0,30759.0,59462.0,21805.0,19146.0
2026-05-06 15:47:24.579850,378512,1609504708090219,2308002589,0.812032,-0.15616,0.0,-32.59375,3.465,57.4525,-36.408,-11.200001,-88.192,concentric,3,5.0,38565.0,47160.0,73359.0,104893.0,33691.0,54773.0,30759.0,59462.0,21805.0,19146.0
2026-05-06 15:47:24.593805,378513,1609504708099124,2308011305,0.655872,-0.152256,0.080032,-26.90625,0.91,50.8025,-36.408,-11.200001,-88.192,concentric,3,5.0,38565.0,47160.0,73359.0,104893.0,33691.0,54773.0,30759.0,59462.0,21805.0,19146.0
2026-05-06 15:47:24.696157,378524,1609504708113753,2308026288,0.665632,-0.152256,0.080032,-16.8525,-1.855,49.32375,-36.976,-12.104001,-88.352005,concentric,3,5.0,38793.0,47391.0,72782.0,105703.0,33906.0,54938.0,30487.0,59852.0,21916.0,19212.0
2026-05-06 15:47:24.698849,378525,1609504708122712,2308035083,0.718336,-0.353312,-0.060512,-7.39375,-4.795,55.90375,-36.608,-11.248,-87.416,concentric,3,5.0,38793.0,47391.0,72782.0,105703.0,33906.0,54938.0,30487.0,59852.0,21916.0,19212.0
2026-05-06 15:47:24.701365,378526,1609504708131643,2308043805,0.718336,-0.353312,-0.060512,-4.99625,-3.955,67.06875,-36.608,-11.248,-87.416,concentric,3,5.0,38793.0,47391.0,72782.0,105703.0,33906.0,54938.0,30487.0,59852.0,21916.0,19212.0
2026-05-06 15:47:24.703868,378527,1609504708146218,2308058731,0.991616,-0.411872,-0.044896,-17.605,-1.0325,72.7475,-36.376003,-8.472,-88.216,concentric,3,5.0,38793.0,47391.0,72782.0,105703.0,33906.0,54938.0,30487.0,59852.0,21916.0,19212.0
2026-05-06 15:47:24.706417,378528,1609504708155158,2308067448,0.991616,-0.411872,-0.044896,-40.20625,5.39875,68.03125,-36.376003,-8.472,-88.216,concentric,3,5.0,38793.0,47391.0,72782.0,105703.0,33906.0,54938.0,30487.0,59852.0,21916.0,19212.0
2026-05-06 15:47:24.708883,378529,1609504708169653,2308080413,0.739808,-0.052704,0.091744,-42.42875,11.4975,56.97125,-36.624,-8.08,-88.424,concentric,3,5.0,38793.0,47391.0,72782.0,105703.0,33906.0,54938.0,30487.0,59852.0,21916.0,19212.0
2026-05-06 15:47:24.715161,378530,1609504708178841,2308091200,0.739808,-0.052704,0.091744,-19.67,12.25875,41.65,-36.624,-8.08,-88.424,concentric,3,5.0,38793.0,47391.0,72782.0,105703.0,33906.0,54938.0,30487.0,59852.0,21916.0,19212.0
2026-05-06 15:47:24.717699,378531,1609504708193458,2308106189,0.513376,-0.183488,0.0488,-10.815,9.94,32.92625,-36.816,-7.488,-86.496,concentric,3,5.0,38793.0,47391.0,72782.0,105703.0,33906.0,54938.0,30487.0,59852.0,21916.0,19212.0
2026-05-06 15:47:24.745159,378542,1609504708202413,2308114943,0.661728,-0.476288,-0.10736,-14.44625,10.0625,44.695,-37.152,-6.896,-88.176,concentric,3,5.0,39682.0,47890.0,72495.0,107100.0,34668.0,55463.0,30326.0,60605.0,22289.0,19474.0
2026-05-06 15:47:24.747645,378543,1609504708211381,2308123703,0.661728,-0.476288,-0.10736,-17.2375,10.955,65.28375,-37.152,-6.896,-88.176,concentric,3,5.0,39682.0,47890.0,72495.0,107100.0,34668.0,55463.0,30326.0,60605.0,22289.0,19474.0
2026-05-06 15:47:24.753178,378544,1609504708226205,2308138677,0.870592,-0.462624,-0.042944,-32.96125,11.8125,70.21,-37.184002,-6.296001,-87.968,concentric,3,5.0,39682.0,47890.0,72495.0,107100.0,34668.0,55463.0,30326.0,60605.0,22289.0,19474.0
2026-05-06 15:47:24.753572,378545,1609504708235221,2308147428,0.870592,-0.462624,-0.042944,-41.92125,15.81125,64.58375,-37.184002,-6.296001,-87.968,concentric,3,5.0,39682.0,47890.0,72495.0,107100.0,34668.0,55463.0,30326.0,60605.0,22289.0,19474.0
2026-05-06 15:47:24.754863,378546,1609504708249729,2308160542,0.6344,-0.197152,0.115168,-28.16625,17.01,53.19125,-37.488003,-7.488,-86.768005,concentric,3,5.0,39682.0,47890.0,72495.0,107100.0,34668.0,55463.0,30326.0,60605.0,22289.0,19474.0
2026-05-06 15:47:24.759476,378547,1609504708259015,2308171368,0.6344,-0.197152,0.115168,-15.12,16.40625,39.62,-37.488003,-7.488,-86.768005,concentric,3,5.0,39682.0,47890.0,72495.0,107100.0,34668.0,55463.0,30326.0,60605.0,22289.0,19474.0
2026-05-06 15:47:24.759976,378548,1609504708267947,2308180139,0.460672,-0.216672,0.037088,4.4975,13.8075,40.04,-37.672,-6.000001,-86.520004,concentric,3,5.0,39682.0,47890.0,72495.0,107100.0,34668.0,55463.0,30326.0,60605.0,22289.0,19474.0
2026-05-06 15:47:24.773830,378549,1609504708282578,2308195084,0.716384,-0.433344,-0.152256,6.3875,12.4075,50.3125,-37.736,-4.168,-87.768005,concentric,3,5.0,39682.0,47890.0,72495.0,107100.0,34668.0,55463.0,30326.0,60605.0,22289.0,19474.0
2026-05-06 15:47:24.782597,378550,1609504708291520,2308203858,0.716384,-0.433344,-0.152256,-11.698751,10.57875,59.71875,-37.736,-4.168,-87.768005,concentric,3,5.0,39682.0,47890.0,72495.0,107100.0,34668.0,55463.0,30326.0,60605.0,22289.0,19474.0
2026-05-06 15:47:24.819995,378561,1609504708306341,2308219273,0.94672,-0.50752,-0.103456,-30.135,10.31625,59.010002,-37.712,-3.4,-88.01601,concentric,3,5.0,40774.0,48783.0,73318.0,107847.0,35572.0,56381.0,30683.0,60961.0,22739.0,19851.0
2026-05-06 15:47:24.822603,378562,1609504708315571,2308228020,0.94672,-0.50752,-0.103456,-34.1775,13.58875,46.75125,-37.712,-3.4,-88.01601,concentric,3,5.0,40774.0,48783.0,73318.0,107847.0,35572.0,56381.0,30683.0,60961.0,22739.0,19851.0
2026-05-06 15:47:24.825135,378563,1609504708324690,2308236802,0.671488,-0.304512,0.179584,-33.355,12.08375,29.3825,-37.52,-3.568,-87.920006,concentric,3,5.0,40774.0,48783.0,73318.0,107847.0,35572.0,56381.0,30683.0,60961.0,22739.0,19851.0
2026-05-06 15:47:24.831422,378564,1609504708339307,2308251789,0.671488,-0.304512,0.179584,-19.6175,11.19125,19.1625,-37.52,-3.568,-87.920006,concentric,3,5.0,40774.0,48783.0,73318.0,107847.0,35572.0,56381.0,30683.0,60961.0,22739.0,19851.0
2026-05-06 15:47:24.838927,378565,1609504708348243,2308260608,0.646112,-0.464576,0.089792,0.60375,10.01875,15.74125,-37.84,-2.336,-87.152,concentric,3,5.0,40774.0,48783.0,73318.0,107847.0,35572.0,56381.0,30683.0,60961.0,22739.0,19851.0
2026-05-06 15:47:24.855085,378566,1609504708362736,2308273498,0.714432,-0.382592,-0.072224,2.135,6.65,25.08625,-38.056004,-1.808,-88.024,concentric,3,5.0,40774.0,48783.0,73318.0,107847.0,35572.0,56381.0,30683.0,60961.0,22739.0,19851.0
2026-05-06 15:47:24.866332,378567,1609504708371939,2308284384,0.714432,-0.382592,-0.072224,-11.94375,11.2875,45.59625,-38.056004,-1.808,-88.024,concentric,3,5.0,40774.0,48783.0,73318.0,107847.0,35572.0,56381.0,30683.0,60961.0,22739.0,19851.0
2026-05-06 15:47:24.873797,378568,1609504708380884,2308293083,0.714432,-0.382592,-0.01952,-14.735,12.0225,40.03125,-38.056004,-1.808,-88.024,concentric,3,5.0,40774.0,48783.0,73318.0,107847.0,35572.0,56381.0,30683.0,60961.0,22739.0,19851.0
2026-05-06 15:47:24.887632,378569,1609504708395414,2308308011,0.825696,-0.493856,-0.01952,-22.21625,13.16,23.38875,-38.408,-1.608,-88.43201,concentric,3,5.0,40774.0,48783.0,73318.0,107847.0,35572.0,56381.0,30683.0,60961.0,22739.0,19851.0
2026-05-06 15:47:24.923630,378581,1609504708404818,2308316755,0.720288,-0.36112,0.162016,-30.91375,17.15875,12.9325,-38.424004,-1.376,-88.05601,concentric,3,5.0,41466.0,49684.0,74543.0,107803.0,36028.0,57120.0,31271.0,60871.0,22933.0,20138.0
2026-05-06 15:47:24.926138,378582,1609504708419484,2308331834,0.720288,-0.36112,0.162016,-17.5525,16.5025,3.57,-38.424004,-1.376,-88.05601,concentric,3,5.0,41466.0,49684.0,74543.0,107803.0,36028.0,57120.0,31271.0,60871.0,22933.0,20138.0
2026-05-06 15:47:24.928911,378583,1609504708428433,2308340851,0.69296,-0.388448,0.064416,-2.09125,12.92375,3.465,-38.744003,-3.056,-85.84801,concentric,3,5.0,41466.0,49684.0,74543.0,107803.0,36028.0,57120.0,31271.0,60871.0,22933.0,20138.0
2026-05-06 15:47:24.931379,378584,1609504708437408,2308349574,0.69296,-0.388448,0.064416,4.69875,11.55,10.21125,-38.744003,-3.056,-85.84801,concentric,3,5.0,41466.0,49684.0,74543.0,107803.0,36028.0,57120.0,31271.0,60871.0,22933.0,20138.0
2026-05-06 15:47:24.946241,378585,1609504708451943,2308364606,0.718336,-0.308416,-0.011712,1.12,11.80375,11.47125,-38.824,-0.44,-88.176,concentric,3,5.0,41466.0,49684.0,74543.0,107803.0,36028.0,57120.0,31271.0,60871.0,22933.0,20138.0
2026-05-06 15:47:24.951048,378586,1609504708460870,2308373337,0.718336,-0.308416,-0.011712,0.53375,14.2275,8.56625,-38.824,-0.44,-88.176,concentric,3,5.0,41466.0,49684.0,74543.0,107803.0,36028.0,57120.0,31271.0,60871.0,22933.0,20138.0
2026-05-06 15:47:24.965015,378587,1609504708475489,2308386250,0.786656,-0.349408,0.005856,1.0675,16.59,3.31625,-38.952003,-1.4,-86.312004,concentric,3,5.0,41466.0,49684.0,74543.0,107803.0,36028.0,57120.0,31271.0,60871.0,22933.0,20138.0
2026-05-06 15:47:25.001355,378588,1609504708484815,2308397037,0.74176,-0.388448,0.167872,-12.29375,18.06,-3.22875,-39.480003,-2.232,-85.456,concentric,3,5.0,41466.0,49684.0,74543.0,107803.0,36028.0,57120.0,31271.0,60871.0,22933.0,20138.0
2026-05-06 15:47:25.026341,378589,1609504708493907,2308405767,0.74176,-0.388448,0.167872,-19.39875,18.85625,-12.39,-39.480003,-2.232,-85.456,concentric,3,5.0,41466.0,49684.0,74543.0,107803.0,36028.0,57120.0,31271.0,60871.0,22933.0,20138.0
2026-05-06 15:47:25.068861,378600,1609504708508836,2308420838,0.798368,-0.329888,0.115168,-15.61875,15.5225,-18.06,-39.248,0.048,-87.48801,concentric,3,5.0,42143.0,50795.0,76008.0,107342.0,36537.0,58077.0,32009.0,60549.0,23214.0,20561.0
2026-05-06 15:47:25.071346,378601,1609504708517823,2308429642,0.798368,-0.329888,0.115168,-11.20875,14.175,-14.11375,-39.248,0.048,-87.48801,concentric,3,5.0,42143.0,50795.0,76008.0,107342.0,36537.0,58077.0,32009.0,60549.0,23214.0,20561.0
2026-05-06 15:47:25.076303,378602,1609504708532326,2308444585,1.01504,-0.247904,0.07808,-3.57875,12.99375,-16.96625,-39.896004,-0.008,-87.58401,concentric,3,5.0,42143.0,50795.0,76008.0,107342.0,36537.0,58077.0,32009.0,60549.0,23214.0,20561.0
2026-05-06 15:47:25.078743,378603,1609504708541275,2308453325,1.01504,-0.247904,0.07808,5.46,9.0825,-15.89875,-39.896004,-0.008,-87.58401,concentric,3,5.0,42143.0,50795.0,76008.0,107342.0,36537.0,58077.0,32009.0,60549.0,23214.0,20561.0
2026-05-06 15:47:25.081171,378604,1609504708550195,2308462010,0.882304,-0.318176,0.105408,16.63375,6.37,-19.13625,-40.136,0.152,-87.664,concentric,3,5.0,42143.0,50795.0,76008.0,107342.0,36537.0,58077.0,32009.0,60549.0,23214.0,20561.0
2026-05-06 15:47:25.083800,378605,1609504708564919,2308477212,0.886208,-0.368928,0.121024,8.9075,4.54125,-31.07125,-40.304,-0.032,-87.136,concentric,3,5.0,42143.0,50795.0,76008.0,107342.0,36537.0,58077.0,32009.0,60549.0,23214.0,20561.0
2026-05-06 15:47:25.086126,378606,1609504708574012,2308485968,0.886208,-0.368928,0.121024,1.5575,1.05,-33.92375,-40.304,-0.032,-87.136,concentric,3,5.0,42143.0,50795.0,76008.0,107342.0,36537.0,58077.0,32009.0,60549.0,23214.0,20561.0
2026-05-06 15:47:25.088611,378607,1609504708588652,2308500960,0.981856,-0.2928,0.247904,-11.89125,-0.63,-34.08125,-40.456,-2.0,-86.576004,concentric,3,5.0,42143.0,50795.0,76008.0,107342.0,36537.0,58077.0,32009.0,60549.0,23214.0,20561.0
2026-05-06 15:47:25.091241,378608,1609504708597602,2308509700,0.981856,-0.2928,0.247904,-14.56,-1.2075,-34.06375,-40.456,-2.0,-86.576004,concentric,3,5.0,42143.0,50795.0,76008.0,107342.0,36537.0,58077.0,32009.0,60549.0,23214.0,20561.0
2026-05-06 15:47:25.130512,378619,1609504708612274,2308525060,1.001376,-0.314272,0.242048,-5.76625,-0.49,-34.15125,-40.704002,-2.432,-86.512,concentric,3,5.0,41261.0,50933.0,76414.0,106172.0,35754.0,58229.0,32201.0,59910.0,22765.0,20537.0
2026-05-06 15:47:25.134230,378620,1609504708621429,2308533846,1.001376,-0.314272,0.242048,-1.65375,0.72625,-34.965,-40.704002,-2.432,-86.512,concentric,3,5.0,41261.0,50933.0,76414.0,106172.0,35754.0,58229.0,32201.0,59910.0,22765.0,20537.0
2026-05-06 15:47:25.135061,378621,1609504708630430,2308542574,1.013088,-0.324032,0.16592,-2.66875,3.3775,-36.2775,-41.136,-1.872,-87.48801,concentric,3,5.0,41261.0,50933.0,76414.0,106172.0,35754.0,58229.0,32201.0,59910.0,22765.0,20537.0
2026-05-06 15:47:25.137580,378622,1609504708645027,2308557506,0.99552,-0.306464,0.167872,-2.12625,6.86,-37.47625,-41.632004,-0.84,-87.872,concentric,3,5.0,41261.0,50933.0,76414.0,106172.0,35754.0,58229.0,32201.0,59910.0,22765.0,20537.0
2026-05-06 15:47:25.146316,378623,1609504708653967,2308566235,0.99552,-0.306464,0.167872,-5.705,8.77625,-41.93,-41.632004,-0.84,-87.872,concentric,3,5.0,41261.0,50933.0,76414.0,106172.0,35754.0,58229.0,32201.0,59910.0,22765.0,20537.0
2026-05-06 15:47:25.160180,378624,1609504708668492,2308581210,1.040416,-0.339648,0.298656,-12.285,10.99875,-49.56875,-42.24,-4.768,-85.344,concentric,3,5.0,41261.0,50933.0,76414.0,106172.0,35754.0,58229.0,32201.0,59910.0,22765.0,20537.0
2026-05-06 15:47:25.168972,378625,1609504708677510,2308589892,1.040416,-0.339648,0.298656,-11.795,14.595,-50.88125,-42.24,-4.768,-85.344,concentric,3,5.0,41261.0,50933.0,76414.0,106172.0,35754.0,58229.0,32201.0,59910.0,22765.0,20537.0
2026-05-06 15:47:25.177714,378626,1609504708686524,2308598631,1.020896,-0.466528,0.261568,-12.1625,20.615,-49.09625,-42.192,-2.176,-87.48,concentric,3,5.0,41261.0,50933.0,76414.0,106172.0,35754.0,58229.0,32201.0,59910.0,22765.0,20537.0
2026-05-06 15:47:25.207705,378627,1609504708701070,2308613544,1.020896,-0.466528,0.261568,-13.8425,24.64,-48.8425,-42.192,-2.176,-87.48,concentric,3,5.0,41261.0,50933.0,76414.0,106172.0,35754.0,58229.0,32201.0,59910.0,22765.0,20537.0
2026-05-06 15:47:25.234780,378638,1609504708710180,2308622300,1.136064,-0.347456,0.07808,-7.46375,25.4975,-48.335,-42.832,-2.248,-87.384,concentric,3,5.0,41289.0,51289.0,76434.0,106115.0,35750.0,58506.0,32140.0,59774.0,22777.0,20668.0
2026-05-06 15:47:25.237514,378639,1609504708724869,2308637437,1.186816,-0.25376,0.119072,9.14375,28.04375,-44.70375,-43.536003,-2.944,-85.73601,concentric,3,5.0,41289.0,51289.0,76434.0,106115.0,35750.0,58506.0,32140.0,59774.0,22777.0,20668.0
2026-05-06 15:47:25.242498,378640,1609504708733822,2308646162,1.186816,-0.25376,0.119072,20.3,26.38125,-47.62625,-43.536003,-2.944,-85.73601,concentric,3,5.0,41289.0,51289.0,76434.0,106115.0,35750.0,58506.0,32140.0,59774.0,22777.0,20668.0
2026-05-06 15:47:25.247673,378641,1609504708743075,2308654946,1.186816,-0.25376,0.119072,17.73625,28.49,-52.08875,-43.536003,-2.944,-85.73601,concentric,3,5.0,41289.0,51289.0,76434.0,106115.0,35750.0,58506.0,32140.0,59774.0,22777.0,20668.0
2026-05-06 15:47:25.252621,378642,1609504708757749,2308669994,1.069696,-0.294752,0.22448,10.22875,29.6975,-54.55625,-44.280003,-4.768,-86.4,concentric,3,5.0,41289.0,51289.0,76434.0,106115.0,35750.0,58506.0,32140.0,59774.0,22777.0,20668.0
2026-05-06 15:47:25.258901,378643,1609504708766713,2308678742,1.009184,-0.35136,0.130784,0.98,30.205,-54.985,-44.440002,-5.6,-84.536,concentric,3,5.0,41289.0,51289.0,76434.0,106115.0,35750.0,58506.0,32140.0,59774.0,22777.0,20668.0
2026-05-06 15:47:25.272668,378644,1609504708781252,2308693700,1.009184,-0.35136,0.130784,-5.88,30.10875,-54.775,-44.440002,-5.6,-84.536,concentric,3,5.0,41289.0,51289.0,76434.0,106115.0,35750.0,58506.0,32140.0,59774.0,22777.0,20668.0
2026-05-06 15:47:25.281438,378645,1609504708790212,2308702475,1.075552,-0.236192,0.163968,-6.2475,29.5925,-53.095,-44.848003,-4.568,-85.256004,concentric,3,5.0,41289.0,51289.0,76434.0,106115.0,35750.0,58506.0,32140.0,59774.0,22777.0,20668.0
2026-05-06 15:47:25.342629,378656,1609504708804779,2308717762,1.038464,-0.226432,0.138592,-2.8175,29.44375,-48.69375,-44.848003,-5.6,-83.32001,concentric,3,5.0,40071.0,50377.0,75589.0,104977.0,34731.0,57571.0,31756.0,59163.0,22305.0,20262.0
2026-05-06 15:47:25.344962,378657,1609504708813818,2308726573,1.038464,-0.226432,0.138592,0.0175,29.015,-45.03625,-45.704002,-5.6,-83.32001,concentric,3,5.0,40071.0,50377.0,75589.0,104977.0,34731.0,57571.0,31756.0,59163.0,22305.0,20262.0
2026-05-06 15:47:25.369929,378658,1609504708822743,2308735308,1.038464,-0.226432,0.138592,-7.02625,28.7525,-45.9725,-45.704002,-5.6,-83.32001,concentric,3,5.0,40071.0,50377.0,75589.0,104977.0,34731.0,57571.0,31756.0,59163.0,22305.0,20262.0
2026-05-06 15:47:25.395081,378659,1609504708837571,2308750343,1.020896,-0.26352,0.115168,-11.261251,27.50125,-43.33875,-45.632004,-6.104,-84.504005,concentric,3,5.0,40071.0,50377.0,75589.0,104977.0,34731.0,57571.0,31756.0,59163.0,22305.0,20262.0
2026-05-06 15:47:25.403937,378660,1609504708846522,2308759263,1.038464,-0.177632,0.163968,-9.8,26.48625,-38.675,-46.288002,-9.528001,-81.8,concentric,3,5.0,40071.0,50377.0,75589.0,104977.0,34731.0,57571.0,31756.0,59163.0,22305.0,20262.0
2026-05-06 15:47:25.406450,378661,1609504708861116,2308772189,1.038464,-0.177632,0.163968,-7.5425,23.84375,-35.735,-46.288002,-9.528001,-81.8,concentric,3,5.0,40071.0,50377.0,75589.0,104977.0,34731.0,57571.0,31756.0,59163.0,22305.0,20262.0
2026-05-06 15:47:25.408979,378662,1609504708870417,2308782965,1.003328,-0.167872,0.128832,-3.0625,20.25625,-33.81,-46.120003,-6.976,-83.688,concentric,3,5.0,40071.0,50377.0,75589.0,104977.0,34731.0,57571.0,31756.0,59163.0,22305.0,20262.0
2026-05-06 15:47:25.411449,378663,1609504708879324,2308791679,1.003328,-0.167872,0.128832,-7.105,19.11,-32.165,-46.120003,-6.976,-83.688,concentric,3,5.0,40071.0,50377.0,75589.0,104977.0,34731.0,57571.0,31756.0,59163.0,22305.0,20262.0
2026-05-06 15:47:25.413882,378664,1609504708893866,2308806586,1.00528,-0.1952,0.199104,-15.505,17.61375,-29.49625,-46.648003,-7.288001,-83.44,concentric,3,5.0,40071.0,50377.0,75589.0,104977.0,34731.0,57571.0,31756.0,59163.0,22305.0,20262.0
2026-05-06 15:47:25.416442,378665,1609504708902819,2308815304,1.00528,-0.1952,0.199104,-20.78125,16.14375,-23.7825,-46.648003,-7.288001,-83.44,concentric,3,5.0,40071.0,50377.0,75589.0,104977.0,34731.0,57571.0,31756.0,59163.0,22305.0,20262.0
2026-05-06 15:47:25.448810,378676,1609504708917398,2308828203,1.018944,-0.173728,0.18544,-23.765,13.011251,-20.0725,-46.944004,-7.224001,-83.664,concentric,3,5.0,38870.0,48704.0,74652.0,103665.0,33760.0,55881.0,31319.0,58509.0,21852.0,19606.0
2026-05-06 15:47:25.451302,378677,1609504708926672,2308839018,1.040416,-0.242048,0.173728,-26.46875,9.52,-17.73625,-47.408,-9.704,-82.75201,concentric,3,5.0,38870.0,48704.0,74652.0,103665.0,33760.0,55881.0,31319.0,58509.0,21852.0,19606.0
2026-05-06 15:47:25.453778,378678,1609504708935621,2308847794,1.040416,-0.242048,0.173728,-24.14125,7.6125,-12.9675,-47.408,-9.704,-82.75201,concentric,3,5.0,38870.0,48704.0,74652.0,103665.0,33760.0,55881.0,31319.0,58509.0,21852.0,19606.0
2026-05-06 15:47:25.456306,378679,1609504708950205,2308862745,1.050176,-0.296704,0.15616,-21.77875,6.69375,-8.91625,-47.224003,-8.976001,-82.11201,concentric,3,5.0,38870.0,48704.0,74652.0,103665.0,33760.0,55881.0,31319.0,58509.0,21852.0,19606.0
2026-05-06 15:47:25.458822,378680,1609504708959132,2308871511,1.050176,-0.296704,0.15616,-18.05125,7.44625,-4.06875,-47.224003,-8.976001,-82.11201,concentric,3,5.0,38870.0,48704.0,74652.0,103665.0,33760.0,55881.0,31319.0,58509.0,21852.0,19606.0
2026-05-06 15:47:25.464950,378681,1609504708973624,2308884392,1.01504,-0.242048,0.222528,-11.80375,7.105,0.49,-47.272003,-9.704,-81.416,concentric,3,5.0,38870.0,48704.0,74652.0,103665.0,33760.0,55881.0,31319.0,58509.0,21852.0,19606.0
2026-05-06 15:47:25.478858,378682,1609504708982828,2308895267,1.01504,-0.242048,0.222528,-8.0325,6.8075,2.065,-47.272003,-9.704,-81.416,concentric,3,5.0,38870.0,48704.0,74652.0,103665.0,33760.0,55881.0,31319.0,58509.0,21852.0,19606.0
2026-05-06 15:47:25.481342,378683,1609504708991857,2308904076,0.993568,-0.240096,0.232288,-6.3175,7.9625,3.57875,-47.392002,-9.400001,-81.952,concentric,3,5.0,38870.0,48704.0,74652.0,103665.0,33760.0,55881.0,31319.0,58509.0,21852.0,19606.0
2026-05-06 15:47:25.546130,378694,1609504709006481,2308918960,0.991616,-0.275232,0.218624,-4.57625,8.96875,4.01625,-47.4,-7.16,-82.76,concentric,3,5.0,38523.0,47997.0,74226.0,103304.0,33383.0,55289.0,31083.0,58310.0,21700.0,19415.0
2026-05-06 15:47:25.548757,378695,1609504709015687,2308927729,0.991616,-0.275232,0.218624,-4.61125,9.415,3.77125,-47.4,-7.16,-82.76,concentric,3,5.0,38523.0,47997.0,74226.0,103304.0,33383.0,55289.0,31083.0,58310.0,21700.0,19415.0
2026-05-06 15:47:25.551253,378696,1609504709030248,2308942658,0.974048,-0.28304,0.203008,-3.9725,9.730001,2.59875,-47.160004,-7.536,-82.968,concentric,3,5.0,38523.0,47997.0,74226.0,103304.0,33383.0,55289.0,31083.0,58310.0,21700.0,19415.0
2026-05-06 15:47:25.553722,378697,1609504709039242,2308951379,0.974048,-0.28304,0.203008,-3.85,9.52,1.0675,-47.160004,-7.536,-82.968,concentric,3,5.0,38523.0,47997.0,74226.0,103304.0,33383.0,55289.0,31083.0,58310.0,21700.0,19415.0
2026-05-06 15:47:25.556263,378698,1609504709053856,2308966329,0.950624,-0.27328,0.16592,-3.1675,10.36,1.23375,-47.480003,-7.448,-83.352005,concentric,3,5.0,38523.0,47997.0,74226.0,103304.0,33383.0,55289.0,31083.0,58310.0,21700.0,19415.0
2026-05-06 15:47:25.558766,378699,1609504709062778,2308975084,0.950624,-0.27328,0.16592,-0.06125,11.725,1.96875,-47.480003,-7.448,-83.352005,concentric,3,5.0,38523.0,47997.0,74226.0,103304.0,33383.0,55289.0,31083.0,58310.0,21700.0,19415.0
2026-05-06 15:47:25.563794,378700,1609504709071772,2308983809,0.944768,-0.267424,0.177632,1.32125,13.965,1.8375,-47.688004,-9.512,-81.008,concentric,3,5.0,38523.0,47997.0,74226.0,103304.0,33383.0,55289.0,31083.0,58310.0,21700.0,19415.0
2026-05-06 15:47:25.577700,378701,1609504709086313,2308998695,0.944768,-0.267424,0.203008,1.14625,14.7875,-0.0525,-47.688004,-9.512,-81.008,concentric,3,5.0,38523.0,47997.0,74226.0,103304.0,33383.0,55289.0,31083.0,58310.0,21700.0,19415.0
2026-05-06 15:47:25.586436,378702,1609504709095221,2309007474,0.948672,-0.249856,0.203008,0.53375,15.645,-2.26625,-47.808002,-8.784,-83.28001,concentric,3,5.0,38523.0,47997.0,74226.0,103304.0,33383.0,55289.0,31083.0,58310.0,21700.0,19415.0
2026-05-06 15:47:25.626966,378713,1609504709109925,2309022459,0.977952,-0.26352,0.203008,0.32375,15.12,-4.0425,-47.440002,-7.6,-82.26401,eccentric,3,5.0,37629.0,47278.0,73715.0,102273.0,32690.0,54526.0,30812.0,57766.0,21327.0,19078.0
2026-05-06 15:47:25.628298,378714,1609504709118877,2309031257,0.977952,-0.26352,0.203008,-1.60125,13.36125,-5.845,-47.440002,-7.6,-82.26401,eccentric,3,5.0,37629.0,47278.0,73715.0,102273.0,32690.0,54526.0,30812.0,57766.0,21327.0,19078.0
2026-05-06 15:47:25.631410,378715,1609504709128044,2309040051,1.030656,-0.30256,0.1952,-4.375,10.9375,-6.67625,-47.704002,-9.496,-80.384,eccentric,3,5.0,37629.0,47278.0,73715.0,102273.0,32690.0,54526.0,30812.0,57766.0,21327.0,19078.0
2026-05-06 15:47:25.632223,378716,1609504709142624,2309055022,1.030656,-0.30256,0.1952,-5.5825,7.1925,-5.45125,-47.704002,-9.496,-80.384,eccentric,3,5.0,37629.0,47278.0,73715.0,102273.0,32690.0,54526.0,30812.0,57766.0,21327.0,19078.0
2026-05-06 15:47:25.642377,378717,1609504709151579,2309063753,1.050176,-0.277184,0.216672,-5.15375,2.31875,-2.73875,-47.808002,-10.768001,-79.472,eccentric,3,5.0,37629.0,47278.0,73715.0,102273.0,32690.0,54526.0,30812.0,57766.0,21327.0,19078.0
2026-05-06 15:47:25.662606,378718,1609504709166097,2309078676,1.050176,-0.277184,0.216672,-4.57625,-1.53125,-0.7,-47.808002,-10.768001,-79.472,eccentric,3,5.0,37629.0,47278.0,73715.0,102273.0,32690.0,54526.0,30812.0,57766.0,21327.0,19078.0
2026-05-06 15:47:25.665035,378719,1609504709175017,2309087411,1.040416,-0.265472,0.226432,-3.745,-4.29625,-1.28625,-47.584003,-9.200001,-81.824005,eccentric,3,5.0,37629.0,47278.0,73715.0,102273.0,32690.0,54526.0,30812.0,57766.0,21327.0,19078.0
2026-05-06 15:47:25.678849,378720,1609504709189519,2309100306,1.104832,-0.247904,0.298656,-2.3275,-7.175,-1.435,-47.176003,-7.696001,-82.58401,eccentric,3,5.0,37629.0,47278.0,73715.0,102273.0,32690.0,54526.0,30812.0,57766.0,21327.0,19078.0
2026-05-06 15:47:25.699000,378721,1609504709198748,2309111132,1.104832,-0.247904,0.298656,2.2925,-8.56625,1.51375,-47.176003,-7.696001,-82.58401,eccentric,3,5.0,37629.0,47278.0,73715.0,102273.0,32690.0,54526.0,30812.0,57766.0,21327.0,19078.0
2026-05-06 15:47:25.793729,378732,1609504709207723,2309120204,1.079456,-0.28304,0.290848,5.7575,-7.595,3.4825,-47.176003,-7.624001,-82.088005,eccentric,3,5.0,37243.0,46641.0,73293.0,101890.0,32403.0,53918.0,30620.0,57595.0,21156.0,18818.0
2026-05-06 15:47:25.795972,378733,1609504709222326,2309133118,1.079456,-0.28304,0.290848,6.1775,-5.04,4.1125,-47.04,-7.624001,-82.088005,eccentric,3,5.0,37243.0,46641.0,73293.0,101890.0,32403.0,53918.0,30620.0,57595.0,21156.0,18818.0
2026-05-06 15:47:25.798560,378734,1609504709231556,2309143927,1.032608,-0.284992,0.238144,5.8975,-4.80375,5.52125,-47.048,-8.184,-81.352005,eccentric,3,5.0,37243.0,46641.0,73293.0,101890.0,32403.0,53918.0,30620.0,57595.0,21156.0,18818.0
2026-05-06 15:47:25.805102,378735,1609504709246028,2309156786,1.032608,-0.284992,0.238144,8.505,-5.355,7.5425,-47.048,-8.184,-81.352005,eccentric,3,5.0,37243.0,46641.0,73293.0,101890.0,32403.0,53918.0,30620.0,57595.0,21156.0,18818.0
2026-05-06 15:47:25.812436,378736,1609504709255249,2309167722,1.061888,-0.238144,0.286944,10.70125,-6.79,9.7825,-46.456,-7.472,-83.032005,eccentric,3,5.0,37243.0,46641.0,73293.0,101890.0,32403.0,53918.0,30620.0,57595.0,21156.0,18818.0
2026-05-06 15:47:25.812779,378737,1609504709264151,2309176440,1.061888,-0.238144,0.286944,11.6025,-7.1925,11.795,-46.456,-7.472,-83.032005,eccentric,3,5.0,37243.0,46641.0,73293.0,101890.0,32403.0,53918.0,30620.0,57595.0,21156.0,18818.0
2026-05-06 15:47:25.814903,378738,1609504709278683,2309191381,1.038464,-0.228384,0.22448,12.90625,-6.615,13.3875,-46.408,-7.416,-82.664,eccentric,3,5.0,37243.0,46641.0,73293.0,101890.0,32403.0,53918.0,30620.0,57595.0,21156.0,18818.0
2026-05-06 15:47:25.817377,378739,1609504709287665,2309200148,1.038464,-0.228384,0.208864,11.935,-6.44,12.55625,-46.408,-7.416,-82.664,eccentric,3,5.0,37243.0,46641.0,73293.0,101890.0,32403.0,53918.0,30620.0,57595.0,21156.0,18818.0
2026-05-06 15:47:25.847399,378740,1609504709302209,2309213020,1.011136,-0.257664,0.210816,8.67125,-7.77,10.395,-46.160004,-6.960001,-85.72,eccentric,3,5.0,37243.0,46641.0,73293.0,101890.0,32403.0,53918.0,30620.0,57595.0,21156.0,18818.0
2026-05-06 15:47:25.875211,378751,1609504709312327,2309223855,1.016992,-0.251808,0.245952,5.145,-10.92875,8.505,-45.984,-9.824,-80.840004,eccentric,3,5.0,37285.0,46583.0,73437.0,101849.0,32469.0,53925.0,30698.0,57568.0,21183.0,18808.0
2026-05-06 15:47:25.877680,378752,1609504709321358,2309232669,1.016992,-0.251808,0.245952,3.57875,-13.86,9.61625,-45.984,-9.824,-80.840004,eccentric,3,5.0,37285.0,46583.0,73437.0,101849.0,32469.0,53925.0,30698.0,57568.0,21183.0,18808.0
2026-05-06 15:47:25.880063,378753,1609504709336082,2309247849,1.028704,-0.238144,0.2928,0.63875,-15.56625,11.025,-45.704002,-6.776001,-83.152,eccentric,3,5.0,37285.0,46583.0,73437.0,101849.0,32469.0,53925.0,30698.0,57568.0,21183.0,18808.0
2026-05-06 15:47:25.882698,378754,1609504709345085,2309256665,1.028704,-0.238144,0.2928,-2.0125,-16.35375,11.042501,-45.704002,-6.776001,-83.152,eccentric,3,5.0,37285.0,46583.0,73437.0,101849.0,32469.0,53925.0,30698.0,57568.0,21183.0,18808.0
2026-05-06 15:47:25.885210,378755,1609504709359605,2309271576,1.022848,-0.23424,0.20496,-0.77,-16.65125,11.4975,-44.944,-7.256001,-83.672005,eccentric,3,5.0,37285.0,46583.0,73437.0,101849.0,32469.0,53925.0,30698.0,57568.0,21183.0,18808.0
2026-05-06 15:47:25.890693,378756,1609504709368602,2309280361,1.022848,-0.267424,0.261568,3.3775,-17.5525,10.47375,-44.944,-7.256001,-83.672005,eccentric,3,5.0,37285.0,46583.0,73437.0,101849.0,32469.0,53925.0,30698.0,57568.0,21183.0,18808.0
2026-05-06 15:47:25.891095,378757,1609504709377664,2309289201,1.069696,-0.267424,0.261568,5.22375,-18.41,8.09375,-44.568,-6.704001,-82.84801,eccentric,3,5.0,37285.0,46583.0,73437.0,101849.0,32469.0,53925.0,30698.0,57568.0,21183.0,18808.0
2026-05-06 15:47:25.892464,378758,1609504709392226,2309304217,1.038464,-0.279136,0.238144,9.1875,-18.0425,6.36125,-44.08,-6.832,-83.26401,eccentric,3,5.0,37285.0,46583.0,73437.0,101849.0,32469.0,53925.0,30698.0,57568.0,21183.0,18808.0
2026-05-06 15:47:25.894951,378759,1609504709401154,2309312926,1.038464,-0.279136,0.238144,10.64,-17.75375,6.2475,-44.08,-6.832,-83.26401,eccentric,3,5.0,37285.0,46583.0,73437.0,101849.0,32469.0,53925.0,30698.0,57568.0,21183.0,18808.0
2026-05-06 15:47:25.929851,378770,1609504709415842,2309327947,1.016992,-0.17568,0.251808,11.50625,-18.97,5.3725,-44.144,-8.664001,-81.048004,eccentric,3,5.0,38250.0,46779.0,73657.0,102363.0,33259.0,54137.0,30762.0,57768.0,21516.0,18831.0
2026-05-06 15:47:25.932292,378771,1609504709424793,2309336730,1.016992,-0.17568,0.251808,12.34625,-19.39875,5.9675,-44.144,-8.664001,-81.048004,eccentric,3,5.0,38250.0,46779.0,73657.0,102363.0,33259.0,54137.0,30762.0,57768.0,21516.0,18831.0
2026-05-06 15:47:25.935018,378772,1609504709433866,2309345446,1.032608,-0.142496,0.197152,8.1725,-20.02,4.69875,-43.904003,-8.824,-83.048004,eccentric,3,5.0,38250.0,46779.0,73657.0,102363.0,33259.0,54137.0,30762.0,57768.0,21516.0,18831.0
2026-05-06 15:47:25.938791,378773,1609504709448559,2309360387,1.032608,-0.142496,0.197152,5.6525,-18.165,0.51625,-43.904003,-8.824,-83.048004,eccentric,3,5.0,38250.0,46779.0,73657.0,102363.0,33259.0,54137.0,30762.0,57768.0,21516.0,18831.0
2026-05-06 15:47:25.947590,378774,1609504709457572,2309369105,1.001376,-0.251808,0.22448,6.58,-16.45875,-2.485,-43.448,-8.736,-84.352005,eccentric,3,5.0,38250.0,46779.0,73657.0,102363.0,33259.0,54137.0,30762.0,57768.0,21516.0,18831.0
2026-05-06 15:47:25.962728,378775,1609504709472095,2309384103,1.003328,-0.206912,0.134688,1.81125,-14.105001,-4.8475,-43.288002,-7.64,-84.536,eccentric,3,5.0,38250.0,46779.0,73657.0,102363.0,33259.0,54137.0,30762.0,57768.0,21516.0,18831.0
2026-05-06 15:47:25.973963,378776,1609504709481043,2309392828,1.003328,-0.206912,0.134688,1.51375,-10.6225,-6.15125,-43.288002,-7.64,-84.536,eccentric,3,5.0,38250.0,46779.0,73657.0,102363.0,33259.0,54137.0,30762.0,57768.0,21516.0,18831.0
2026-05-06 15:47:25.980110,378777,1609504709489961,2309401543,0.960384,-0.081984,0.218624,8.4875,-10.73625,-5.6,-41.24,-7.816001,-82.384,eccentric,3,5.0,38250.0,46779.0,73657.0,102363.0,33259.0,54137.0,30762.0,57768.0,21516.0,18831.0
2026-05-06 15:47:25.996400,378778,1609504709504466,2309416488,0.960384,-0.081984,0.218624,15.39125,-11.73375,-6.0025,-42.704002,-7.816001,-82.384,eccentric,3,5.0,38250.0,46779.0,73657.0,102363.0,33259.0,54137.0,30762.0,57768.0,21516.0,18831.0
2026-05-06 15:47:26.027505,378789,1609504709513474,2309425332,0.843264,-0.101504,0.265472,20.125,-14.315001,-10.1325,-42.256,-8.480001,-84.776,eccentric,3,5.0,39036.0,47423.0,73931.0,103407.0,33928.0,54648.0,30907.0,58299.0,21850.0,19044.0
2026-05-06 15:47:26.029985,378790,1609504709528185,2309440340,0.843264,-0.101504,0.265472,16.0475,-17.70125,-15.3475,-42.256,-8.480001,-84.776,eccentric,3,5.0,39036.0,47423.0,73931.0,103407.0,33928.0,54648.0,30907.0,58299.0,21850.0,19044.0
2026-05-06 15:47:26.032572,378791,1609504709537196,2309449059,0.845216,-0.183488,0.236192,5.01375,-18.0425,-17.52625,-42.536003,-11.536,-83.90401,eccentric,3,5.0,39036.0,47423.0,73931.0,103407.0,33928.0,54648.0,30907.0,58299.0,21850.0,19044.0
2026-05-06 15:47:26.056332,378792,1609504709551749,2309463978,0.968192,-0.124928,0.11712,-7.20125,-16.16125,-18.05125,-41.608,-10.416,-83.840004,eccentric,3,5.0,39036.0,47423.0,73931.0,103407.0,33928.0,54648.0,30907.0,58299.0,21850.0,19044.0
2026-05-06 15:47:26.058792,378793,1609504709560757,2309472784,0.968192,-0.124928,0.11712,-10.15,-9.9575,-17.29875,-41.608,-10.416,-83.840004,eccentric,3,5.0,39036.0,47423.0,73931.0,103407.0,33928.0,54648.0,30907.0,58299.0,21850.0,19044.0
2026-05-06 15:47:26.061132,378794,1609504709569653,2309481511,0.968192,-0.124928,0.11712,3.92,-9.21375,-17.3075,-41.608,-10.416,-83.840004,eccentric,3,5.0,39036.0,47423.0,73931.0,103407.0,33928.0,54648.0,30907.0,58299.0,21850.0,19044.0
2026-05-06 15:47:26.078886,378795,1609504709584336,2309496545,0.843264,-0.064416,0.16592,15.8375,-10.96375,-21.84,-41.224003,-9.240001,-84.104004,eccentric,3,5.0,39036.0,47423.0,73931.0,103407.0,33928.0,54648.0,30907.0,58299.0,21850.0,19044.0
2026-05-06 15:47:26.103767,378796,1609504709593274,2309505256,0.747616,-0.183488,0.210816,21.8575,-14.735,-30.09125,-40.784,-10.400001,-85.47201,eccentric,3,5.0,39036.0,47423.0,73931.0,103407.0,33928.0,54648.0,30907.0,58299.0,21850.0,19044.0
2026-05-06 15:47:26.128807,378797,1609504709607781,2309520239,0.747616,-0.183488,0.210816,18.725,-16.38,-35.2275,-40.784,-10.400001,-85.47201,eccentric,3,5.0,39036.0,47423.0,73931.0,103407.0,33928.0,54648.0,30907.0,58299.0,21850.0,19044.0
2026-05-06 15:47:26.160194,378808,1609504709616894,2309529004,0.808128,-0.132736,0.290848,12.0575,-14.14875,-31.3425,-40.816,-10.152,-85.248,eccentric,3,5.0,39406.0,47855.0,74187.0,103829.0,34252.0,55060.0,31018.0,58541.0,22044.0,19231.0
2026-05-06 15:47:26.165190,378809,1609504709625851,2309537759,0.808128,-0.132736,0.290848,11.3225,-11.36625,-26.55625,-40.816,-10.152,-85.248,eccentric,3,5.0,39406.0,47855.0,74187.0,103829.0,34252.0,55060.0,31018.0,58541.0,22044.0,19231.0
2026-05-06 15:47:26.167599,378810,1609504709640350,2309552667,0.845216,-0.033184,0.095648,17.3075,-8.3125,-28.0175,-40.424004,-10.848001,-85.560005,eccentric,3,5.0,39406.0,47855.0,74187.0,103829.0,34252.0,55060.0,31018.0,58541.0,22044.0,19231.0
2026-05-06 15:47:26.170202,378811,1609504709649263,2309561381,0.845216,-0.033184,0.095648,21.51625,-6.62375,-34.51875,-40.424004,-10.848001,-85.560005,eccentric,3,5.0,39406.0,47855.0,74187.0,103829.0,34252.0,55060.0,31018.0,58541.0,22044.0,19231.0
2026-05-06 15:47:26.172703,378812,1609504709663958,2309576325,0.759328,0.003904,0.042944,24.68375,-8.365,-39.83875,-39.992,-10.896001,-84.536,eccentric,3,5.0,39406.0,47855.0,74187.0,103829.0,34252.0,55060.0,31018.0,58541.0,22044.0,19231.0
2026-05-06 15:47:26.175200,378813,1609504709672922,2309585026,0.74176,-0.085888,0.271328,23.695,-10.71,-42.8225,-39.696003,-11.816001,-85.896,eccentric,3,5.0,39406.0,47855.0,74187.0,103829.0,34252.0,55060.0,31018.0,58541.0,22044.0,19231.0
2026-05-06 15:47:26.178996,378814,1609504709687454,2309599970,0.74176,-0.085888,0.271328,12.6875,-10.08875,-43.2075,-39.696003,-11.816001,-85.896,eccentric,3,5.0,39406.0,47855.0,74187.0,103829.0,34252.0,55060.0,31018.0,58541.0,22044.0,19231.0
2026-05-06 15:47:26.187578,378815,1609504709696544,2309608753,0.716384,-0.150304,0.1464,-1.61,-8.198751,-42.83125,-39.752003,-12.392,-85.600006,eccentric,3,5.0,39406.0,47855.0,74187.0,103829.0,34252.0,55060.0,31018.0,58541.0,22044.0,19231.0
2026-05-06 15:47:26.196408,378816,1609504709705667,2309617476,0.716384,-0.150304,0.1464,-5.88875,-7.60375,-44.3975,-39.752003,-12.392,-85.600006,eccentric,3,5.0,39406.0,47855.0,74187.0,103829.0,34252.0,55060.0,31018.0,58541.0,22044.0,19231.0
2026-05-06 15:47:26.227592,378827,1609504709720257,2309632568,0.759328,-0.031232,0.007808,10.185,-10.22,-43.54875,-39.576,-12.824,-85.840004,eccentric,3,5.0,39858.0,48434.0,74410.0,103983.0,34682.0,55609.0,31148.0,58648.0,22277.0,19455.0
2026-05-06 15:47:26.230063,378828,1609504709729317,2309641347,0.759328,-0.031232,0.007808,28.875,-13.78125,-41.7375,-39.576,-12.824,-85.840004,eccentric,3,5.0,39858.0,48434.0,74410.0,103983.0,34682.0,55609.0,31148.0,58648.0,22277.0,19455.0
2026-05-06 15:47:26.236416,378829,1609504709743902,2309656296,0.767136,0.05856,0.148352,33.005,-16.2225,-43.72375,-39.424004,-14.264001,-83.504005,eccentric,3,5.0,39858.0,48434.0,74410.0,103983.0,34682.0,55609.0,31148.0,58648.0,22277.0,19455.0
2026-05-06 15:47:26.243989,378830,1609504709752895,2309665111,0.788608,-0.122976,0.242048,30.54625,-16.0475,-47.97625,-38.760002,-13.6,-87.73601,eccentric,3,5.0,39858.0,48434.0,74410.0,103983.0,34682.0,55609.0,31148.0,58648.0,22277.0,19455.0
2026-05-06 15:47:26.257702,378831,1609504709761846,2309673790,0.788608,-0.122976,0.242048,10.9725,-12.18875,-51.91375,-38.760002,-13.6,-87.73601,eccentric,3,5.0,39858.0,48434.0,74410.0,103983.0,34682.0,55609.0,31148.0,58648.0,22277.0,19455.0
2026-05-06 15:47:26.269151,378832,1609504709776390,2309688786,0.71248,-0.003904,0.005856,-5.075,-6.39625,-45.21125,-38.600002,-14.440001,-85.992004,eccentric,3,5.0,39858.0,48434.0,74410.0,103983.0,34682.0,55609.0,31148.0,58648.0,22277.0,19455.0
2026-05-06 15:47:26.278448,378833,1609504709785284,2309697496,0.71248,-0.003904,0.005856,-3.1325,-3.78875,-39.31375,-38.600002,-14.440001,-85.992004,eccentric,3,5.0,39858.0,48434.0,74410.0,103983.0,34682.0,55609.0,31148.0,58648.0,22277.0,19455.0
2026-05-06 15:47:26.291336,378834,1609504709799880,2309712418,0.753472,0.095648,0.042944,10.167501,-9.31,-41.83375,-38.480003,-15.016001,-86.184006,eccentric,3,5.0,39858.0,48434.0,74410.0,103983.0,34682.0,55609.0,31148.0,58648.0,22277.0,19455.0
2026-05-06 15:47:26.304980,378835,1609504709808797,2309721155,0.753472,0.095648,0.042944,20.545,-16.905,-49.83125,-38.480003,-15.016001,-86.184006,eccentric,3,5.0,39858.0,48434.0,74410.0,103983.0,34682.0,55609.0,31148.0,58648.0,22277.0,19455.0
2026-05-06 15:47:26.332452,378846,1609504709823525,2309736242,0.77104,0.015616,0.18544,29.295,-18.92625,-54.4425,-38.088,-16.736,-84.744,eccentric,3,5.0,39747.0,48617.0,74499.0,103893.0,34542.0,55806.0,31241.0,58615.0,22214.0,19516.0
2026-05-06 15:47:26.334880,378847,1609504709832574,2309744976,0.757376,-0.111264,0.284992,35.0875,-16.87875,-50.42625,-38.088,-19.808,-85.520004,eccentric,3,5.0,39747.0,48617.0,74499.0,103893.0,34542.0,55806.0,31241.0,58615.0,22214.0,19516.0
2026-05-06 15:47:26.337333,378848,1609504709841561,2309753708,0.757376,-0.111264,0.284992,20.71125,-12.25875,-47.99375,-37.824,-19.808,-85.520004,eccentric,3,5.0,39747.0,48617.0,74499.0,103893.0,34542.0,55806.0,31241.0,58615.0,22214.0,19516.0
2026-05-06 15:47:26.351351,378849,1609504709856079,2309768651,0.61488,0.031232,0.011712,5.3375,-7.665,-47.94125,-37.448,-18.064001,-85.48801,eccentric,3,5.0,39747.0,48617.0,74499.0,103893.0,34542.0,55806.0,31241.0,58615.0,22214.0,19516.0
2026-05-06 15:47:26.357631,378850,1609504709864991,2309777344,0.61488,0.031232,0.011712,6.99125,-7.8575,-44.98375,-37.448,-18.064001,-85.48801,eccentric,3,5.0,39747.0,48617.0,74499.0,103893.0,34542.0,55806.0,31241.0,58615.0,22214.0,19516.0
2026-05-06 15:47:26.372164,378851,1609504709879501,2309792241,0.772992,0.05856,0.070272,16.695,-11.61125,-41.44,-37.032,-16.464,-85.68,eccentric,3,5.0,39747.0,48617.0,74499.0,103893.0,34542.0,55806.0,31241.0,58615.0,22214.0,19516.0
2026-05-06 15:47:26.379861,378852,1609504709888468,2309801052,0.772992,0.05856,0.070272,22.61,-14.48125,-40.74875,-37.032,-16.464,-85.68,eccentric,3,5.0,39747.0,48617.0,74499.0,103893.0,34542.0,55806.0,31241.0,58615.0,22214.0,19516.0
2026-05-06 15:47:26.392527,378853,1609504709902938,2309813904,0.876448,-0.044896,0.148352,23.1875,-12.775,-42.74375,-36.952003,-17.688002,-86.552,eccentric,3,5.0,39747.0,48617.0,74499.0,103893.0,34542.0,55806.0,31241.0,58615.0,22214.0,19516.0
2026-05-06 15:47:26.431467,378864,1609504709912445,2309824821,0.876448,-0.044896,0.101504,17.5875,-8.5925,-42.6125,-36.952003,-17.688002,-86.552,eccentric,3,5.0,40773.0,49427.0,75517.0,104367.0,35346.0,56614.0,31751.0,58863.0,22549.0,19791.0
2026-05-06 15:47:26.433946,378865,1609504709921477,2309833585,0.704672,0.06832,0.099552,7.32375,-8.09375,-43.89875,-36.736,-19.568,-85.656006,eccentric,3,5.0,40773.0,49427.0,75517.0,104367.0,35346.0,56614.0,31751.0,58863.0,22549.0,19791.0
2026-05-06 15:47:26.436431,378866,1609504709935984,2309848708,0.691008,0.122976,0.023424,0.20125,-9.765,-46.34,-36.424004,-20.128,-85.888,eccentric,3,5.0,40773.0,49427.0,75517.0,104367.0,35346.0,56614.0,31751.0,58863.0,22549.0,19791.0
2026-05-06 15:47:26.438888,378867,1609504709944925,2309857478,0.691008,0.122976,0.023424,-1.505,-12.635,-44.24,-36.424004,-20.128,-85.888,eccentric,3,5.0,40773.0,49427.0,75517.0,104367.0,35346.0,56614.0,31751.0,58863.0,22549.0,19791.0
2026-05-06 15:47:26.472529,378868,1609504709959498,2309870314,0.884256,-0.023424,0.052704,7.315,-14.77875,-39.8825,-36.144,-19.888,-86.144005,eccentric,3,5.0,40773.0,49427.0,75517.0,104367.0,35346.0,56614.0,31751.0,58863.0,22549.0,19791.0
2026-05-06 15:47:26.497468,378869,1609504709968762,2309881092,0.884256,-0.023424,0.052704,17.8325,-12.46875,-35.6825,-36.144,-19.888,-86.144005,eccentric,3,5.0,40773.0,49427.0,75517.0,104367.0,35346.0,56614.0,31751.0,58863.0,22549.0,19791.0
2026-05-06 15:47:26.522711,378870,1609504709977698,2309889867,0.788608,-0.021472,0.103456,22.645,-8.86375,-33.11875,-35.752003,-18.552,-86.952,eccentric,3,5.0,40773.0,49427.0,75517.0,104367.0,35346.0,56614.0,31751.0,58863.0,22549.0,19791.0
2026-05-06 15:47:26.545218,378871,1609504709992249,2309904880,0.788608,-0.021472,0.103456,17.4125,-8.8025,-31.605,-35.752003,-18.552,-86.952,eccentric,3,5.0,40773.0,49427.0,75517.0,104367.0,35346.0,56614.0,31751.0,58863.0,22549.0,19791.0
2026-05-06 15:47:26.549601,378872,1609504710001177,2309913570,0.774944,0.10736,0.06832,8.636251,-9.87,-29.2075,-35.816,-18.824001,-86.69601,eccentric,3,5.0,40773.0,49427.0,75517.0,104367.0,35346.0,56614.0,31751.0,58863.0,22549.0,19791.0
2026-05-06 15:47:26.575052,378883,1609504710016258,2309927088,0.813984,0.13664,0.03904,2.6425,-11.96125,-27.43125,-35.592003,-18.880001,-87.456,eccentric,3,5.0,41646.0,50415.0,76238.0,104956.0,36089.0,57461.0,32130.0,59128.0,22907.0,20115.0
