pc_time,serial_num,sensor_ts,host_ts,ax,ay,az,gx,gy,gz,mx,my,mz,phase,rpe,weight_kg,ppg_a,ppg_b,ppg_c,ppg_d,ppg_e,ppg_f,ppg_g,ppg_h,ppg_i,ppg_j
2026-05-06 15:47:29.456409,379420,1609504712900001,2312812123,0.796416,-0.066368,0.093696,-27.01125,-2.23125,28.70875,-37.176003,-18.168001,-85.824005,concentric,3,5.0,40213.0,49029.0,75772.0,103185.0,35170.0,56434.0,31947.0,58237.0,22504.0,19715.0
2026-05-06 15:47:29.483857,379421,1609504712914501,2312827018,0.796416,-0.066368,0.093696,-29.35625,-1.65375,33.5125,-37.176003,-18.168001,-85.824005,concentric,3,5.0,40213.0,49029.0,75772.0,103185.0,35170.0,56434.0,31947.0,58237.0,22504.0,19715.0
2026-05-06 15:47:29.486221,379422,1609504712923413,2312835783,0.837408,-0.17568,0.081984,-25.9175,-1.26,40.50375,-37.280003,-16.456001,-84.64001,concentric,3,5.0,40213.0,49029.0,75772.0,103185.0,35170.0,56434.0,31947.0,58237.0,22504.0,19715.0
2026-05-06 15:47:29.516132,379433,1609504712932797,2312844841,0.837408,-0.17568,0.081984,-24.185,-2.2575,45.84125,-37.280003,-16.456001,-84.64001,concentric,3,5.0,40490.0,48862.0,75701.0,103604.0,35418.0,56338.0,31907.0,58505.0,22656.0,19731.0
2026-05-06 15:47:29.518556,379434,1609504712947439,2312859800,0.845216,0.033184,0.093696,-20.65,-1.715,46.69875,-37.432003,-17.096,-85.632,concentric,3,5.0,40490.0,48862.0,75701.0,103604.0,35418.0,56338.0,31907.0,58505.0,22656.0,19731.0
2026-05-06 15:47:29.521049,379435,1609504712956344,2312868484,0.79056,0.1464,0.042944,-11.10375,-1.53125,40.74875,-37.704002,-16.144001,-86.4,concentric,3,5.0,40490.0,48862.0,75701.0,103604.0,35418.0,56338.0,31907.0,58505.0,22656.0,19731.0
2026-05-06 15:47:29.523480,379436,1609504712970967,2312883542,0.79056,0.1464,0.042944,-1.4175,-2.205,30.695,-37.704002,-16.144001,-86.4,concentric,3,5.0,40490.0,48862.0,75701.0,103604.0,35418.0,56338.0,31907.0,58505.0,22656.0,19731.0
2026-05-06 15:47:29.525936,379437,1609504712979898,2312892315,0.739808,-0.001952,0.037088,-2.40625,-1.35625,25.865,-37.552002,-15.768001,-85.352005,concentric,3,5.0,40490.0,48862.0,75701.0,103604.0,35418.0,56338.0,31907.0,58505.0,22656.0,19731.0
2026-05-06 15:47:29.528373,379438,1609504712988812,2312901032,0.739808,-0.001952,0.037088,-8.89,0.245,29.085001,-37.552002,-15.768001,-85.352005,concentric,3,5.0,40490.0,48862.0,75701.0,103604.0,35418.0,56338.0,31907.0,58505.0,22656.0,19731.0
2026-05-06 15:47:29.530907,379439,1609504713003515,2312916040,0.706624,-0.193248,-0.001952,-9.79125,-0.32375,36.1025,-37.784,-14.912001,-85.656006,concentric,3,5.0,40490.0,48862.0,75701.0,103604.0,35418.0,56338.0,31907.0,58505.0,22656.0,19731.0
2026-05-06 15:47:29.533490,379440,1609504713012565,2312924808,0.706624,-0.193248,-0.001952,-7.665,-1.49625,45.56125,-37.784,-14.912001,-85.656006,concentric,3,5.0,40490.0,48862.0,75701.0,103604.0,35418.0,56338.0,31907.0,58505.0,22656.0,19731.0
2026-05-06 15:47:29.535936,379441,1609504713027196,2312939737,0.716384,-0.203008,0.132736,-10.49125,-3.00125,59.10625,-38.168003,-17.584002,-83.824005,concentric,3,5.0,40490.0,48862.0,75701.0,103604.0,35418.0,56338.0,31907.0,58505.0,22656.0,19731.0
2026-05-06 15:47:29.568710,379452,1609504713036363,2312948534,0.706624,-0.05856,0.11712,-19.90625,-0.86625,70.91875,-38.168003,-15.536001,-84.560005,concentric,3,5.0,40554.0,49394.0,75558.0,104248.0,35498.0,56944.0,31802.0,58833.0,22716.0,20033.0
2026-05-06 15:47:29.571149,379453,1609504713045402,2312957312,0.706624,-0.05856,0.11712,-28.5425,4.05125,77.245,-38.208,-15.760001,-84.560005,concentric,3,5.0,40554.0,49394.0,75558.0,104248.0,35498.0,56944.0,31802.0,58833.0,22716.0,20033.0
2026-05-06 15:47:29.573585,379454,1609504713059931,2312972277,0.616832,-0.017568,0.037088,-32.13,5.32,76.60625,-38.376003,-14.168,-84.656006,concentric,3,5.0,40554.0,49394.0,75558.0,104248.0,35498.0,56944.0,31802.0,58833.0,22716.0,20033.0
2026-05-06 15:47:29.576306,379455,1609504713068866,2312981067,0.616832,-0.017568,0.037088,-33.31125,5.29375,75.81,-38.376003,-14.168,-84.656006,concentric,3,5.0,40554.0,49394.0,75558.0,104248.0,35498.0,56944.0,31802.0,58833.0,22716.0,20033.0
2026-05-06 15:47:29.578824,379456,1609504713083615,2312996019,0.687104,-0.13664,0.0488,-28.9975,4.40125,81.2525,-38.536003,-13.312,-86.416,concentric,3,5.0,40554.0,49394.0,75558.0,104248.0,35498.0,56944.0,31802.0,58833.0,22716.0,20033.0
2026-05-06 15:47:29.582405,379457,1609504713092615,2313004786,0.687104,-0.13664,0.0488,-30.03,3.15,85.14625,-38.536003,-13.312,-86.416,concentric,3,5.0,40554.0,49394.0,75558.0,104248.0,35498.0,56944.0,31802.0,58833.0,22716.0,20033.0
2026-05-06 15:47:29.607554,379458,1609504713107120,2313019749,0.784704,-0.230336,0.066368,-45.5,4.97875,80.027504,-38.552002,-11.480001,-85.744,concentric,3,5.0,40554.0,49394.0,75558.0,104248.0,35498.0,56944.0,31802.0,58833.0,22716.0,20033.0
2026-05-06 15:47:29.610043,379459,1609504713116042,2313028473,0.784704,-0.230336,0.066368,-56.1225,7.175,71.67125,-38.552002,-11.480001,-85.744,concentric,3,5.0,40554.0,49394.0,75558.0,104248.0,35498.0,56944.0,31802.0,58833.0,22716.0,20033.0
2026-05-06 15:47:29.616461,379460,1609504713124971,2313037192,0.704672,-0.150304,0.0976,-41.22125,6.06375,65.02125,-39.144,-10.232,-86.744,concentric,3,5.0,40554.0,49394.0,75558.0,104248.0,35498.0,56944.0,31802.0,58833.0,22716.0,20033.0
2026-05-06 15:47:29.650130,379471,1609504713139706,2313052259,0.759328,-0.187392,-0.01952,-14.28,2.1,63.0,-38.664,-11.120001,-84.08,concentric,3,5.0,39882.0,48542.0,75000.0,103809.0,34953.0,56179.0,31522.0,58634.0,22389.0,19678.0
2026-05-06 15:47:29.652635,379472,1609504713148858,2313061046,0.759328,-0.187392,-0.01952,-1.645,-0.06125,66.2375,-38.664,-11.120001,-84.08,concentric,3,5.0,39882.0,48542.0,75000.0,103809.0,34953.0,56179.0,31522.0,58634.0,22389.0,19678.0
2026-05-06 15:47:29.655131,379473,1609504713163431,2313076069,0.931104,-0.238144,0.0488,-6.9475,-0.63875,70.93625,-39.112003,-11.56,-83.128006,concentric,3,5.0,39882.0,48542.0,75000.0,103809.0,34953.0,56179.0,31522.0,58634.0,22389.0,19678.0
2026-05-06 15:47:29.686477,379474,1609504713172551,2313084782,0.931104,-0.238144,0.0488,-29.79375,-0.3675,65.135,-39.112003,-11.56,-83.128006,concentric,3,5.0,39882.0,48542.0,75000.0,103809.0,34953.0,56179.0,31522.0,58634.0,22389.0,19678.0
2026-05-06 15:47:29.687926,379475,1609504713181612,2313093444,0.856928,-0.238144,0.105408,-41.9125,-2.0825,50.70625,-39.032,-8.408,-85.560005,concentric,3,5.0,39882.0,48542.0,75000.0,103809.0,34953.0,56179.0,31522.0,58634.0,22389.0,19678.0
2026-05-06 15:47:29.689739,379476,1609504713196076,2313108353,0.856928,-0.238144,0.105408,-31.45625,-6.86875,35.945,-39.032,-8.408,-85.560005,concentric,3,5.0,39882.0,48542.0,75000.0,103809.0,34953.0,56179.0,31522.0,58634.0,22389.0,19678.0
2026-05-06 15:47:29.696184,379477,1609504713205059,2313117103,0.79056,-0.298656,-0.01952,-9.66,-12.15375,32.36625,-39.064003,-7.096,-83.888,concentric,3,5.0,39882.0,48542.0,75000.0,103809.0,34953.0,56179.0,31522.0,58634.0,22389.0,19678.0
2026-05-06 15:47:29.713614,379478,1609504713219530,2313132007,0.827648,-0.347456,0.05856,13.23875,-15.16375,41.8425,-38.816,-5.76,-85.936005,concentric,3,5.0,39882.0,48542.0,75000.0,103809.0,34953.0,56179.0,31522.0,58634.0,22389.0,19678.0
2026-05-06 15:47:29.720179,379479,1609504713228447,2313140734,0.827648,-0.347456,0.05856,28.93625,-15.5225,52.89375,-38.816,-5.76,-85.936005,concentric,3,5.0,39882.0,48542.0,75000.0,103809.0,34953.0,56179.0,31522.0,58634.0,22389.0,19678.0
2026-05-06 15:47:29.747650,379490,1609504713243195,2313155778,0.835456,-0.314272,0.236192,24.77125,-14.02625,56.420002,-38.616,-7.208,-85.568,concentric,3,5.0,39994.0,48802.0,75106.0,103971.0,35030.0,56501.0,31474.0,58682.0,22406.0,19804.0
2026-05-06 15:47:29.750219,379491,1609504713252236,2313164584,0.835456,-0.314272,0.236192,-5.075,-9.31875,50.1725,-38.616,-7.208,-85.568,concentric,3,5.0,39994.0,48802.0,75106.0,103971.0,35030.0,56501.0,31474.0,58682.0,22406.0,19804.0
2026-05-06 15:47:29.752713,379492,1609504713261249,2313173326,0.689056,-0.11712,0.179584,-21.525,-3.92,43.02375,-38.848003,-6.56,-85.648,concentric,3,5.0,39994.0,48802.0,75106.0,103971.0,35030.0,56501.0,31474.0,58682.0,22406.0,19804.0
2026-05-06 15:47:29.774259,379493,1609504713275778,2313188302,0.689056,-0.11712,0.179584,-4.515,-2.0475,40.29375,-38.848003,-6.56,-85.648,concentric,3,5.0,39994.0,48802.0,75106.0,103971.0,35030.0,56501.0,31474.0,58682.0,22406.0,19804.0
2026-05-06 15:47:29.796243,379494,1609504713284676,2313197008,0.691008,-0.232288,-0.013664,13.16,-4.5325,38.36,-38.192,-3.64,-86.616005,concentric,3,5.0,39994.0,48802.0,75106.0,103971.0,35030.0,56501.0,31474.0,58682.0,22406.0,19804.0
2026-05-06 15:47:29.811165,379495,1609504713299172,2313211918,0.81008,-0.329888,0.089792,16.12625,-4.06875,39.10375,-38.408,-2.6,-85.232,concentric,3,5.0,39994.0,48802.0,75106.0,103971.0,35030.0,56501.0,31474.0,58682.0,22406.0,19804.0
2026-05-06 15:47:29.816237,379496,1609504713308123,2313220620,0.81008,-0.329888,0.089792,5.38125,-1.54875,42.37625,-38.408,-2.6,-85.232,concentric,3,5.0,39994.0,48802.0,75106.0,103971.0,35030.0,56501.0,31474.0,58682.0,22406.0,19804.0
2026-05-06 15:47:29.818755,379497,1609504713322658,2313233510,0.749568,-0.238144,0.16592,-11.8475,5.5825,41.763752,-38.696003,-2.408,-86.992004,concentric,3,5.0,39994.0,48802.0,75106.0,103971.0,35030.0,56501.0,31474.0,58682.0,22406.0,19804.0
2026-05-06 15:47:29.822541,379498,1609504713331953,2313244311,0.749568,-0.238144,0.16592,-23.56375,10.50875,30.65125,-38.696003,-2.408,-86.992004,concentric,3,5.0,39994.0,48802.0,75106.0,103971.0,35030.0,56501.0,31474.0,58682.0,22406.0,19804.0
2026-05-06 15:47:29.855189,379509,1609504713341036,2313253163,0.669536,-0.230336,0.111264,-16.42375,12.6525,20.01125,-38.776,-2.176,-86.216,concentric,3,5.0,40318.0,49061.0,76165.0,102886.0,35151.0,56522.0,31971.0,57984.0,22399.0,19739.0
2026-05-06 15:47:29.857711,379510,1609504713355635,2313268135,0.669536,-0.230336,0.111264,0.46375,10.7625,17.33375,-38.776,-2.176,-86.216,concentric,3,5.0,40318.0,49061.0,76165.0,102886.0,35151.0,56522.0,31971.0,57984.0,22399.0,19739.0
2026-05-06 15:47:29.860190,379511,1609504713364557,2313276874,0.679296,-0.3416,0.12688,5.6175,6.76375,18.12125,-38.816,-1.144,-86.664,concentric,3,5.0,40318.0,49061.0,76165.0,102886.0,35151.0,56522.0,31971.0,57984.0,22399.0,19739.0
2026-05-06 15:47:29.872429,379512,1609504713379083,2313291831,0.806176,-0.49776,0.17568,4.69,2.75625,21.245,-40.864002,-0.488,-84.54401,concentric,3,5.0,40318.0,49061.0,76165.0,102886.0,35151.0,56522.0,31971.0,57984.0,22399.0,19739.0
2026-05-06 15:47:29.879827,379513,1609504713388063,2313300558,0.806176,-0.49776,0.17568,3.89375,2.00375,24.745,-39.144,-0.488,-84.54401,concentric,3,5.0,40318.0,49061.0,76165.0,102886.0,35151.0,56522.0,31971.0,57984.0,22399.0,19739.0
2026-05-06 15:47:29.888774,379514,1609504713396999,2313309271,0.806176,-0.49776,0.17568,-8.785,5.13625,25.40125,-39.144,-0.488,-84.54401,concentric,3,5.0,40318.0,49061.0,76165.0,102886.0,35151.0,56522.0,31971.0,57984.0,22399.0,19739.0
2026-05-06 15:47:29.905129,379515,1609504713411590,2313324206,0.856928,-0.226432,0.1952,-3.29875,8.68,22.96875,-39.456,-1.744,-85.43201,concentric,3,5.0,40318.0,49061.0,76165.0,102886.0,35151.0,56522.0,31971.0,57984.0,22399.0,19739.0
2026-05-06 15:47:29.913898,379516,1609504713420512,2313332913,0.899872,-0.228384,0.081984,18.9,5.10125,6.65,-39.528004,0.28,-89.05601,concentric,3,5.0,40318.0,49061.0,76165.0,102886.0,35151.0,56522.0,31971.0,57984.0,22399.0,19739.0
2026-05-06 15:47:29.949829,379527,1609504713435174,2313347942,0.899872,-0.228384,0.081984,20.76375,1.6975,-7.93625,-39.528004,0.28,-89.05601,concentric,3,5.0,41237.0,50368.0,77237.0,103431.0,35903.0,57795.0,32513.0,58225.0,22787.0,20264.0
2026-05-06 15:47:29.952301,379528,1609504713444161,2313356738,0.925248,-0.343552,0.15616,1.5225,2.485,-5.97625,-39.416,0.288,-86.75201,concentric,3,5.0,41237.0,50368.0,77237.0,103431.0,35903.0,57795.0,32513.0,58225.0,22787.0,20264.0
2026-05-06 15:47:29.954821,379529,1609504713453185,2313365652,0.925248,-0.343552,0.15616,-18.7775,4.03375,-0.27125,-39.416,0.288,-86.75201,concentric,3,5.0,41237.0,50368.0,77237.0,103431.0,35903.0,57795.0,32513.0,58225.0,22787.0,20264.0
2026-05-06 15:47:29.957322,379530,1609504713467805,2313378565,0.923296,-0.36112,0.173728,-17.47375,8.7675,3.185,-39.768,-1.112,-84.48801,concentric,3,5.0,41237.0,50368.0,77237.0,103431.0,35903.0,57795.0,32513.0,58225.0,22787.0,20264.0
2026-05-06 15:47:29.971092,379531,1609504713477080,2313389357,0.923296,-0.36112,0.173728,-28.34125,8.785,-12.775,-39.768,-1.112,-84.48801,concentric,3,5.0,41237.0,50368.0,77237.0,103431.0,35903.0,57795.0,32513.0,58225.0,22787.0,20264.0
2026-05-06 15:47:29.991144,379532,1609504713491715,2313404302,1.013088,-0.35136,0.13664,-13.06375,6.3525,-16.21375,-40.144,0.632,-86.784004,concentric,3,5.0,41237.0,50368.0,77237.0,103431.0,35903.0,57795.0,32513.0,58225.0,22787.0,20264.0
2026-05-06 15:47:29.993567,379533,1609504713500618,2313413003,0.944768,-0.26352,0.05856,12.11875,5.04,-9.98375,-39.920002,0.976,-86.304,concentric,3,5.0,41237.0,50368.0,77237.0,103431.0,35903.0,57795.0,32513.0,58225.0,22787.0,20264.0
2026-05-06 15:47:30.007591,379534,1609504713515119,2313425896,0.944768,-0.26352,0.05856,11.96125,0.98875,-19.678751,-39.920002,0.976,-86.304,concentric,3,5.0,41237.0,50368.0,77237.0,103431.0,35903.0,57795.0,32513.0,58225.0,22787.0,20264.0
2026-05-06 15:47:30.016415,379535,1609504713524422,2313436707,0.925248,-0.281088,0.187392,26.08375,-3.045,-27.825,-40.352,1.08,-86.576004,concentric,3,5.0,41237.0,50368.0,77237.0,103431.0,35903.0,57795.0,32513.0,58225.0,22787.0,20264.0
2026-05-06 15:47:30.026417,379536,1609504713533394,2313445449,0.925248,-0.281088,0.187392,22.4875,-5.25,-32.31375,-40.352,1.08,-86.576004,concentric,3,5.0,41237.0,50368.0,77237.0,103431.0,35903.0,57795.0,32513.0,58225.0,22787.0,20264.0
2026-05-06 15:47:30.059552,379547,1609504713548043,2313460850,0.866688,-0.21472,0.25376,18.4975,-5.18875,-29.8025,-40.592003,0.584,-86.728004,concentric,3,5.0,41500.0,51130.0,77666.0,103639.0,36111.0,58514.0,32738.0,58289.0,22864.0,20587.0
2026-05-06 15:47:30.061046,379548,1609504713557016,2313469551,0.866688,-0.21472,0.25376,1.5925,-3.75375,-27.43125,-40.592003,0.584,-86.728004,concentric,3,5.0,41500.0,51130.0,77666.0,103639.0,36111.0,58514.0,32738.0,58289.0,22864.0,20587.0
2026-05-06 15:47:30.063755,379549,1609504713571593,2313482483,0.884256,-0.189344,0.228384,14.385,-3.19375,-26.90625,-40.992,-0.616,-85.288,concentric,3,5.0,41500.0,51130.0,77666.0,103639.0,36111.0,58514.0,32738.0,58289.0,22864.0,20587.0
2026-05-06 15:47:30.072694,379550,1609504713580965,2313493271,0.935008,-0.242048,0.148352,21.02625,-2.3975,-29.1725,-41.208,-0.504,-85.84801,concentric,3,5.0,41500.0,51130.0,77666.0,103639.0,36111.0,58514.0,32738.0,58289.0,22864.0,20587.0
2026-05-06 15:47:30.081244,379551,1609504713589877,2313501983,0.935008,-0.242048,0.148352,11.45375,1.19,-28.11375,-41.208,-0.504,-85.84801,concentric,3,5.0,41500.0,51130.0,77666.0,103639.0,36111.0,58514.0,32738.0,58289.0,22864.0,20587.0
2026-05-06 15:47:30.114825,379552,1609504713604417,2313516932,0.977952,-0.269376,0.230336,-2.345,6.0025,-26.32875,-41.304,0.608,-86.424,concentric,3,5.0,41500.0,51130.0,77666.0,103639.0,36111.0,58514.0,32738.0,58289.0,22864.0,20587.0
2026-05-06 15:47:30.117287,379553,1609504713613538,2313525757,0.977952,-0.269376,0.230336,-20.13375,10.1325,-27.825,-41.304,0.608,-86.424,concentric,3,5.0,41500.0,51130.0,77666.0,103639.0,36111.0,58514.0,32738.0,58289.0,22864.0,20587.0
2026-05-06 15:47:30.120049,379554,1609504713628061,2313540710,1.030656,-0.267424,0.222528,-20.615,12.83625,-28.84,-41.944,0.76,-87.880005,concentric,3,5.0,41500.0,51130.0,77666.0,103639.0,36111.0,58514.0,32738.0,58289.0,22864.0,20587.0
2026-05-06 15:47:30.212641,379565,1609504713637472,2313549486,1.030656,-0.267424,0.222528,-9.3275,12.985,-29.91625,-41.944,0.76,-87.880005,concentric,3,5.0,41856.0,51843.0,78163.0,103932.0,36434.0,59218.0,32994.0,58430.0,23037.0,20804.0
2026-05-06 15:47:30.214984,379566,1609504713646611,2313558218,1.069696,-0.30256,0.242048,0.95375,12.985,-30.93125,-41.976,0.08,-86.22401,concentric,3,5.0,41856.0,51843.0,78163.0,103932.0,36434.0,59218.0,32994.0,58430.0,23037.0,20804.0
2026-05-06 15:47:30.217729,379567,1609504713661128,2313573158,1.052128,-0.329888,0.203008,2.6775,12.9675,-29.00625,-41.976,0.152,-85.576004,concentric,3,5.0,41856.0,51843.0,78163.0,103932.0,36434.0,59218.0,32994.0,58430.0,23037.0,20804.0
2026-05-06 15:47:30.220236,379568,1609504713670077,2313581889,1.052128,-0.329888,0.203008,-5.29375,13.3875,-28.63875,-42.728,0.152,-85.576004,concentric,3,5.0,41856.0,51843.0,78163.0,103932.0,36434.0,59218.0,32994.0,58430.0,23037.0,20804.0
2026-05-06 15:47:30.222719,379569,1609504713684775,2313597133,1.110688,-0.271328,0.187392,-6.895,11.3575,-27.76375,-43.032,-0.2,-86.128006,concentric,3,5.0,41856.0,51843.0,78163.0,103932.0,36434.0,59218.0,32994.0,58430.0,23037.0,20804.0
2026-05-06 15:47:30.225219,379570,1609504713693742,2313605911,1.110688,-0.271328,0.187392,-11.15625,7.9625,-25.55,-43.032,-0.2,-86.128006,concentric,3,5.0,41856.0,51843.0,78163.0,103932.0,36434.0,59218.0,32994.0,58430.0,23037.0,20804.0
2026-05-06 15:47:30.227702,379571,1609504713702753,2313614635,1.081408,-0.226432,0.169824,-14.49,4.2875,-24.535,-43.344,-0.544,-83.816,concentric,3,5.0,41856.0,51843.0,78163.0,103932.0,36434.0,59218.0,32994.0,58430.0,23037.0,20804.0
2026-05-06 15:47:30.232496,379572,1609504713717374,2313629734,1.081408,-0.226432,0.169824,-13.265,0.875,-26.78375,-43.344,-0.544,-83.816,concentric,3,5.0,41856.0,51843.0,78163.0,103932.0,36434.0,59218.0,32994.0,58430.0,23037.0,20804.0
2026-05-06 15:47:30.234917,379573,1609504713726297,2313638531,1.04432,-0.347456,0.1952,-10.7625,-2.52,-28.84,-43.496002,-2.224,-84.632,concentric,3,5.0,41856.0,51843.0,78163.0,103932.0,36434.0,59218.0,32994.0,58430.0,23037.0,20804.0
2026-05-06 15:47:30.262297,379584,1609504713741234,2313652082,1.04432,-0.347456,0.210816,-13.265,-3.7275,-28.04375,-43.496002,-2.224,-84.632,concentric,3,5.0,42132.0,52271.0,78516.0,104216.0,36657.0,59628.0,33130.0,58563.0,23173.0,21004.0
2026-05-06 15:47:30.264816,379585,1609504713750813,2313662934,1.061888,-0.447008,0.20496,-19.85375,-2.73,-24.465,-43.480003,-3.168,-84.75201,concentric,3,5.0,42132.0,52271.0,78516.0,104216.0,36657.0,59628.0,33130.0,58563.0,23173.0,21004.0
2026-05-06 15:47:30.267245,379586,1609504713759875,2313671880,1.061888,-0.447008,0.20496,-26.81875,-1.74125,-20.3875,-43.480003,-3.168,-84.75201,concentric,3,5.0,42132.0,52271.0,78516.0,104216.0,36657.0,59628.0,33130.0,58563.0,23173.0,21004.0
2026-05-06 15:47:30.269723,379587,1609504713774569,2313686922,1.124352,-0.359168,0.158112,-22.5575,-1.4875,-15.295,-43.760002,-2.736,-86.560005,concentric,3,5.0,42132.0,52271.0,78516.0,104216.0,36657.0,59628.0,33130.0,58563.0,23173.0,21004.0
2026-05-06 15:47:30.275985,379588,1609504713783551,2313695658,1.139968,-0.353312,0.193248,-12.87125,-1.40875,-13.0375,-43.960003,-2.984,-85.44,concentric,3,5.0,42132.0,52271.0,78516.0,104216.0,36657.0,59628.0,33130.0,58563.0,23173.0,21004.0
2026-05-06 15:47:30.289812,379589,1609504713798079,2313710563,1.139968,-0.353312,0.193248,-12.0925,-0.4725,-10.4825,-43.960003,-2.984,-85.44,concentric,3,5.0,42132.0,52271.0,78516.0,104216.0,36657.0,59628.0,33130.0,58563.0,23173.0,21004.0
2026-05-06 15:47:30.298692,379590,1609504713807021,2313719304,1.114592,-0.433344,0.201056,-12.8625,1.75875,-7.27125,-43.776,-2.496,-85.272,concentric,3,5.0,42132.0,52271.0,78516.0,104216.0,36657.0,59628.0,33130.0,58563.0,23173.0,21004.0
2026-05-06 15:47:30.326340,379591,1609504713815930,2313728113,1.114592,-0.433344,0.201056,-10.955,4.36625,-5.145,-43.776,-2.496,-85.272,concentric,3,5.0,42132.0,52271.0,78516.0,104216.0,36657.0,59628.0,33130.0,58563.0,23173.0,21004.0
2026-05-06 15:47:30.328821,379592,1609504713830403,2313743024,1.15168,-0.445056,0.212768,-9.79125,6.125,-2.5025,-44.152,-1.0,-86.176,concentric,3,5.0,42132.0,52271.0,78516.0,104216.0,36657.0,59628.0,33130.0,58563.0,23173.0,21004.0
2026-05-06 15:47:30.361306,379603,1609504713839510,2313751810,1.15168,-0.445056,0.212768,-9.948751,7.76125,1.21625,-44.152,-1.0,-86.176,concentric,3,5.0,41890.0,52382.0,78412.0,104431.0,36477.0,59780.0,33116.0,58702.0,23124.0,21094.0
2026-05-06 15:47:30.363971,379604,1609504713854127,2313766859,1.134112,-0.406016,0.179584,-10.85875,7.93625,4.27,-43.976,-1.832,-86.05601,concentric,3,5.0,41890.0,52382.0,78412.0,104431.0,36477.0,59780.0,33116.0,58702.0,23124.0,21094.0
2026-05-06 15:47:30.366359,379605,1609504713863112,2313775646,1.106784,-0.447008,0.11712,-13.7025,8.1025,5.9675,-44.216003,-0.832,-86.424,concentric,3,5.0,41890.0,52382.0,78412.0,104431.0,36477.0,59780.0,33116.0,58702.0,23124.0,21094.0
2026-05-06 15:47:30.368868,379606,1609504713872071,2313784365,1.106784,-0.447008,0.11712,-14.98875,7.91,8.225,-44.216003,-0.832,-86.424,concentric,3,5.0,41890.0,52382.0,78412.0,104431.0,36477.0,59780.0,33116.0,58702.0,23124.0,21094.0
2026-05-06 15:47:30.382551,379607,1609504713886648,2313799334,1.059936,-0.45872,0.162016,-14.7175,6.78125,11.7075,-44.280003,-1.464,-84.296005,concentric,3,5.0,41890.0,52382.0,78412.0,104431.0,36477.0,59780.0,33116.0,58702.0,23124.0,21094.0
2026-05-06 15:47:30.386268,379608,1609504713895568,2313808052,1.059936,-0.45872,0.162016,-11.82125,6.11625,14.9275,-44.280003,-1.464,-84.296005,concentric,3,5.0,41890.0,52382.0,78412.0,104431.0,36477.0,59780.0,33116.0,58702.0,23124.0,21094.0
2026-05-06 15:47:30.405159,379609,1609504713910082,2313820903,1.01504,-0.382592,0.099552,-4.06875,6.685,17.08,-44.280003,-2.6,-84.464005,concentric,3,5.0,41890.0,52382.0,78412.0,104431.0,36477.0,59780.0,33116.0,58702.0,23124.0,21094.0
2026-05-06 15:47:30.411402,379610,1609504713919370,2313831681,1.01504,-0.382592,0.099552,-6.5975,6.93875,17.10625,-44.280003,-2.6,-84.464005,concentric,3,5.0,41890.0,52382.0,78412.0,104431.0,36477.0,59780.0,33116.0,58702.0,23124.0,21094.0
2026-05-06 15:47:30.425219,379611,1609504713933967,2313846666,0.952576,-0.396256,0.103456,-14.105001,7.5425,16.52875,-44.320004,-0.968,-85.68,concentric,3,5.0,41890.0,52382.0,78412.0,104431.0,36477.0,59780.0,33116.0,58702.0,23124.0,21094.0
2026-05-06 15:47:30.459901,379622,1609504713943064,2313855439,0.93696,-0.460672,0.113216,-20.09875,8.86375,15.93375,-44.320004,-0.968,-85.54401,concentric,3,5.0,41628.0,51890.0,78076.0,103774.0,36212.0,59207.0,32925.0,58300.0,23032.0,20883.0
2026-05-06 15:47:30.462320,379623,1609504713952245,2313864296,0.944768,-0.460672,0.113216,-23.9925,8.6275,16.555,-44.496002,-0.896,-85.54401,concentric,3,5.0,41628.0,51890.0,78076.0,103774.0,36212.0,59207.0,32925.0,58300.0,23032.0,20883.0
2026-05-06 15:47:30.468613,379624,1609504713966819,2313879242,0.954528,-0.402112,0.11712,-24.29875,6.9825,18.1825,-44.184002,-0.464,-85.216,concentric,3,5.0,41628.0,51890.0,78076.0,103774.0,36212.0,59207.0,32925.0,58300.0,23032.0,20883.0
2026-05-06 15:47:30.471061,379625,1609504713975803,2313887985,0.954528,-0.402112,0.11712,-23.178751,5.08375,17.8675,-44.184002,-0.464,-85.216,concentric,3,5.0,41628.0,51890.0,78076.0,103774.0,36212.0,59207.0,32925.0,58300.0,23032.0,20883.0
2026-05-06 15:47:30.485185,379626,1609504713990381,2313902920,0.948672,-0.413824,0.169824,-22.96875,2.44125,18.1825,-44.128002,-4.096,-83.05601,concentric,3,5.0,41628.0,51890.0,78076.0,103774.0,36212.0,59207.0,32925.0,58300.0,23032.0,20883.0
2026-05-06 15:47:30.546151,379627,1609504713999311,2313911622,0.948672,-0.413824,0.169824,-18.13875,-0.62125,19.0925,-44.128002,-4.096,-83.05601,eccentric,3,5.0,41628.0,51890.0,78076.0,103774.0,36212.0,59207.0,32925.0,58300.0,23032.0,20883.0
2026-05-06 15:47:30.548746,379628,1609504714008280,2313920356,0.958432,-0.464576,0.103456,-11.725,-2.31,18.24375,-43.648003,-0.432,-86.05601,eccentric,3,5.0,41628.0,51890.0,78076.0,103774.0,36212.0,59207.0,32925.0,58300.0,23032.0,20883.0
2026-05-06 15:47:30.551296,379629,1609504714022812,2313935280,0.958432,-0.464576,0.103456,-9.6075,-4.03375,15.3475,-43.648003,-0.432,-86.05601,eccentric,3,5.0,41628.0,51890.0,78076.0,103774.0,36212.0,59207.0,32925.0,58300.0,23032.0,20883.0
2026-05-06 15:47:30.556290,379630,1609504714031771,2313943992,0.979904,-0.36112,0.083936,-14.2275,-4.24375,12.635,-43.656002,-0.008,-87.448006,eccentric,3,5.0,41628.0,51890.0,78076.0,103774.0,36212.0,59207.0,32925.0,58300.0,23032.0,20883.0
2026-05-06 15:47:30.587560,379641,1609504714046308,2313958982,0.99552,-0.398208,0.158112,-14.20125,-5.71375,12.8625,-43.736004,-0.632,-85.76,eccentric,3,5.0,41738.0,51984.0,77772.0,104014.0,36346.0,59316.0,32758.0,58437.0,23138.0,20994.0
2026-05-06 15:47:30.590137,379642,1609504714055220,2313967690,0.99552,-0.398208,0.158112,-5.0925,-9.948751,12.6875,-43.736004,-0.632,-85.76,eccentric,3,5.0,41738.0,51984.0,77772.0,104014.0,36346.0,59316.0,32758.0,58437.0,23138.0,20994.0
2026-05-06 15:47:30.592631,379643,1609504714069734,2313980581,0.976,-0.427488,0.150304,-12.90625,-12.4425,12.48625,-42.920002,-2.328,-84.920006,eccentric,3,5.0,41738.0,51984.0,77772.0,104014.0,36346.0,59316.0,32758.0,58437.0,23138.0,20994.0
2026-05-06 15:47:30.595125,379644,1609504714079192,2313991411,0.976,-0.427488,0.150304,-17.491251,-14.2975,14.88375,-42.920002,-2.328,-84.920006,eccentric,3,5.0,41738.0,51984.0,77772.0,104014.0,36346.0,59316.0,32758.0,58437.0,23138.0,20994.0
2026-05-06 15:47:30.597422,379645,1609504714088181,2314000178,1.01504,-0.450912,0.173728,-21.14875,-15.7675,16.14375,-43.160004,-2.2,-85.312004,eccentric,3,5.0,41738.0,51984.0,77772.0,104014.0,36346.0,59316.0,32758.0,58437.0,23138.0,20994.0
2026-05-06 15:47:30.600115,379646,1609504714102747,2314015115,1.01504,-0.450912,0.173728,-19.915,-16.19625,14.39375,-43.160004,-2.2,-85.312004,eccentric,3,5.0,41738.0,51984.0,77772.0,104014.0,36346.0,59316.0,32758.0,58437.0,23138.0,20994.0
2026-05-06 15:47:30.602608,379647,1609504714111751,2314023827,1.0248,-0.445056,0.103456,-10.14125,-14.98875,15.1725,-42.736004,-2.136,-84.73601,eccentric,3,5.0,41738.0,51984.0,77772.0,104014.0,36346.0,59316.0,32758.0,58437.0,23138.0,20994.0
2026-05-06 15:47:30.636294,379648,1609504714126279,2314038738,0.979904,-0.363072,0.181536,-1.6275,-15.89875,17.465,-42.344,-0.048,-86.80801,eccentric,3,5.0,41738.0,51984.0,77772.0,104014.0,36346.0,59316.0,32758.0,58437.0,23138.0,20994.0
2026-05-06 15:47:30.638790,379649,1609504714135217,2314047451,0.979904,-0.363072,0.181536,2.91375,-16.16125,19.075,-42.344,-0.048,-86.80801,eccentric,3,5.0,41738.0,51984.0,77772.0,104014.0,36346.0,59316.0,32758.0,58437.0,23138.0,20994.0
2026-05-06 15:47:30.672719,379660,1609504714144337,2314056189,0.979904,-0.38064,0.091744,0.1225,-15.16375,18.85625,-42.344,-0.048,-86.80801,eccentric,3,5.0,41504.0,51283.0,77196.0,104028.0,36148.0,58684.0,32478.0,58483.0,23061.0,20782.0
2026-05-06 15:47:30.675211,379661,1609504714158848,2314071208,0.933056,-0.38064,0.091744,-1.6975,-15.190001,16.3275,-41.84,-0.376,-88.90401,eccentric,3,5.0,41504.0,51283.0,77196.0,104028.0,36148.0,58684.0,32478.0,58483.0,23061.0,20782.0
2026-05-06 15:47:30.677633,379662,1609504714167863,2314080064,0.993568,-0.396256,0.121024,-12.845,-14.5075,12.66125,-41.272003,-0.232,-87.22401,eccentric,3,5.0,41504.0,51283.0,77196.0,104028.0,36148.0,58684.0,32478.0,58483.0,23061.0,20782.0
2026-05-06 15:47:30.680003,379663,1609504714182397,2314094996,0.993568,-0.396256,0.121024,-18.7775,-14.63875,13.5275,-41.272003,-0.232,-87.22401,eccentric,3,5.0,41504.0,51283.0,77196.0,104028.0,36148.0,58684.0,32478.0,58483.0,23061.0,20782.0
2026-05-06 15:47:30.682521,379664,1609504714191330,2314103740,0.981856,-0.44896,0.085888,-15.2775,-14.761251,14.385,-41.624,-3.864,-87.368004,eccentric,3,5.0,41504.0,51283.0,77196.0,104028.0,36148.0,58684.0,32478.0,58483.0,23061.0,20782.0
2026-05-06 15:47:30.691207,379665,1609504714200494,2314112476,0.981856,-0.44896,0.085888,-7.8575,-13.7725,12.53,-41.624,-3.864,-87.368004,eccentric,3,5.0,41504.0,51283.0,77196.0,104028.0,36148.0,58684.0,32478.0,58483.0,23061.0,20782.0
2026-05-06 15:47:30.725497,379666,1609504714215071,2314127502,0.974048,-0.42944,0.111264,-10.78,-12.69625,8.47875,-40.84,-0.736,-87.408005,eccentric,3,5.0,41504.0,51283.0,77196.0,104028.0,36148.0,58684.0,32478.0,58483.0,23061.0,20782.0
2026-05-06 15:47:30.727523,379667,1609504714224028,2314136205,0.974048,-0.42944,0.111264,-2.1525,-13.95625,7.76125,-40.84,-0.736,-87.408005,eccentric,3,5.0,41504.0,51283.0,77196.0,104028.0,36148.0,58684.0,32478.0,58483.0,23061.0,20782.0
2026-05-06 15:47:30.762605,379678,1609504714238544,2314151048,0.96624,-0.431392,0.132736,0.2625,-13.125,5.13625,-40.760002,-0.192,-86.560005,eccentric,3,5.0,41335.0,50682.0,76720.0,103983.0,36000.0,58173.0,32236.0,58480.0,22936.0,20551.0
2026-05-06 15:47:30.767611,379679,1609504714247551,2314159806,0.95648,-0.37088,0.128832,8.3125,-13.440001,3.7275,-40.472,-2.456,-86.672005,eccentric,3,5.0,41335.0,50682.0,76720.0,103983.0,36000.0,58173.0,32236.0,58480.0,22936.0,20551.0
2026-05-06 15:47:30.769937,379680,1609504714262097,2314174812,0.95648,-0.37088,0.128832,2.3625,-12.46875,1.3825,-40.472,-2.456,-86.672005,eccentric,3,5.0,41335.0,50682.0,76720.0,103983.0,36000.0,58173.0,32236.0,58480.0,22936.0,20551.0
2026-05-06 15:47:30.772601,379681,1609504714271027,2314183540,0.935008,-0.359168,0.040992,13.25625,-12.5475,0.84875,-40.016003,-0.376,-87.648,eccentric,3,5.0,41335.0,50682.0,76720.0,103983.0,36000.0,58173.0,32236.0,58480.0,22936.0,20551.0
2026-05-06 15:47:30.778899,379682,1609504714279958,2314192257,0.935008,-0.359168,0.040992,13.60625,-12.1625,-2.4675,-40.016003,-0.376,-87.648,eccentric,3,5.0,41335.0,50682.0,76720.0,103983.0,36000.0,58173.0,32236.0,58480.0,22936.0,20551.0
2026-05-06 15:47:30.787538,379683,1609504714294511,2314207305,0.938912,-0.316224,0.105408,12.1275,-13.93875,-7.09625,-39.808002,-0.984,-87.976006,eccentric,3,5.0,41335.0,50682.0,76720.0,103983.0,36000.0,58173.0,32236.0,58480.0,22936.0,20551.0
2026-05-06 15:47:30.796177,379684,1609504714303581,2314216054,0.938912,-0.316224,0.105408,4.4975,-14.875,-7.7875,-39.808002,-0.984,-87.976006,eccentric,3,5.0,41335.0,50682.0,76720.0,103983.0,36000.0,58173.0,32236.0,58480.0,22936.0,20551.0
2026-05-06 15:47:30.810108,379685,1609504714318076,2314228940,0.935008,-0.31232,0.187392,5.075,-16.625,-8.5575,-39.832,-0.752,-87.47201,eccentric,3,5.0,41335.0,50682.0,76720.0,103983.0,36000.0,58173.0,32236.0,58480.0,22936.0,20551.0
2026-05-06 15:47:30.818872,379686,1609504714327382,2314239734,0.911584,-0.316224,0.074176,-3.08875,-15.8375,-9.86125,-39.280003,-1.44,-87.616005,eccentric,3,5.0,41335.0,50682.0,76720.0,103983.0,36000.0,58173.0,32236.0,58480.0,22936.0,20551.0
2026-05-06 15:47:30.827703,379687,1609504714336302,2314248459,0.911584,-0.316224,0.074176,-3.49125,-14.542501,-10.22,-39.280003,-1.44,-87.616005,eccentric,3,5.0,41335.0,50682.0,76720.0,103983.0,36000.0,58173.0,32236.0,58480.0,22936.0,20551.0
2026-05-06 15:47:30.855148,379698,1609504714351042,2314263672,0.913536,-0.40016,0.027328,-1.155,-12.92375,-13.65,-39.232002,-1.816,-87.912,eccentric,3,5.0,41147.0,50117.0,76454.0,103753.0,35836.0,57606.0,32121.0,58400.0,22817.0,20276.0
2026-05-06 15:47:30.882736,379699,1609504714360051,2314272427,0.913536,-0.40016,0.027328,3.01875,-11.94375,-17.78875,-39.232002,-1.816,-87.912,eccentric,3,5.0,41147.0,50117.0,76454.0,103753.0,35836.0,57606.0,32121.0,58400.0,22817.0,20276.0
2026-05-06 15:47:30.908554,379700,1609504714374655,2314287370,0.856928,-0.382592,0.113216,6.53625,-10.63125,-18.45375,-38.84,-2.712,-88.296005,eccentric,3,5.0,41147.0,50117.0,76454.0,103753.0,35836.0,57606.0,32121.0,58400.0,22817.0,20276.0
2026-05-06 15:47:30.918894,379701,1609504714383672,2314296064,0.856928,-0.382592,0.113216,7.6825,-9.625,-17.1325,-38.84,-2.712,-88.296005,eccentric,3,5.0,41147.0,50117.0,76454.0,103753.0,35836.0,57606.0,32121.0,58400.0,22817.0,20276.0
2026-05-06 15:47:30.921365,379702,1609504714398158,2314308928,0.870592,-0.265472,0.132736,11.13,-7.77,-16.8,-38.928,-2.28,-88.088005,eccentric,3,5.0,41147.0,50117.0,76454.0,103753.0,35836.0,57606.0,32121.0,58400.0,22817.0,20276.0
2026-05-06 15:47:30.923890,379703,1609504714407436,2314319689,0.864736,-0.20496,-0.015616,18.48,-6.16,-15.365,-38.432003,-2.688,-88.984,eccentric,3,5.0,41147.0,50117.0,76454.0,103753.0,35836.0,57606.0,32121.0,58400.0,22817.0,20276.0
2026-05-06 15:47:30.926327,379704,1609504714416363,2314328387,0.864736,-0.20496,-0.015616,20.65,-4.585,-16.485,-38.432003,-2.688,-88.984,eccentric,3,5.0,41147.0,50117.0,76454.0,103753.0,35836.0,57606.0,32121.0,58400.0,22817.0,20276.0
2026-05-06 15:47:30.928772,379705,1609504714430939,2314343291,0.845216,-0.318176,0.040992,18.803751,-2.54625,-20.772501,-38.464,-2.544,-88.024,eccentric,3,5.0,41147.0,50117.0,76454.0,103753.0,35836.0,57606.0,32121.0,58400.0,22817.0,20276.0
2026-05-06 15:47:30.983675,379716,1609504714439899,2314351965,0.845216,-0.318176,0.040992,12.53,-2.8525,-26.43375,-38.464,-2.544,-88.024,eccentric,3,5.0,41557.0,50323.0,76524.0,104301.0,36178.0,57797.0,32157.0,58709.0,23001.0,20393.0
2026-05-06 15:47:30.986191,379717,1609504714454809,2314367037,0.80032,-0.324032,0.187392,9.45,-0.035,-27.79,-38.192,-3.88,-87.576004,eccentric,3,5.0,41557.0,50323.0,76524.0,104301.0,36178.0,57797.0,32157.0,58709.0,23001.0,20393.0
2026-05-06 15:47:30.989401,379718,1609504714463763,2314375836,0.80032,-0.324032,0.187392,6.81625,-0.02625,-27.265,-38.192,-3.88,-87.576004,eccentric,3,5.0,41557.0,50323.0,76524.0,104301.0,36178.0,57797.0,32157.0,58709.0,23001.0,20393.0
2026-05-06 15:47:30.991025,379719,1609504714472843,2314384530,0.776896,-0.189344,0.12688,8.365,2.94,-25.31375,-38.288002,-3.952,-87.632,eccentric,3,5.0,41557.0,50323.0,76524.0,104301.0,36178.0,57797.0,32157.0,58709.0,23001.0,20393.0
2026-05-06 15:47:30.996622,379720,1609504714487337,2314399458,0.730048,-0.275232,-0.003904,15.35625,4.4275,-21.95375,-38.544003,-3.872,-85.192,eccentric,3,5.0,41557.0,50323.0,76524.0,104301.0,36178.0,57797.0,32157.0,58709.0,23001.0,20393.0
2026-05-06 15:47:30.996727,379721,1609504714496275,2314408237,0.730048,-0.275232,-0.003904,14.21875,4.4975,-27.4225,-38.544003,-3.872,-85.192,eccentric,3,5.0,41557.0,50323.0,76524.0,104301.0,36178.0,57797.0,32157.0,58709.0,23001.0,20393.0
2026-05-06 15:47:31.005041,379722,1609504714510886,2314423289,0.843264,-0.347456,0.044896,5.985,3.675,-35.90125,-38.56,-4.864,-87.616005,eccentric,3,5.0,41557.0,50323.0,76524.0,104301.0,36178.0,57797.0,32157.0,58709.0,23001.0,20393.0
2026-05-06 15:47:31.011283,379723,1609504714519817,2314432000,0.843264,-0.347456,0.044896,6.02,5.215,-36.732502,-38.56,-4.864,-87.616005,eccentric,3,5.0,41557.0,50323.0,76524.0,104301.0,36178.0,57797.0,32157.0,58709.0,23001.0,20393.0
2026-05-06 15:47:31.019997,379724,1609504714528766,2314440694,0.817888,-0.183488,0.18544,7.39375,8.12,-33.32875,-38.008003,-5.376,-84.936005,eccentric,3,5.0,41557.0,50323.0,76524.0,104301.0,36178.0,57797.0,32157.0,58709.0,23001.0,20393.0
2026-05-06 15:47:31.061442,379735,1609504714543717,2314455744,0.817888,-0.183488,0.18544,8.53125,8.435,-32.52375,-38.008003,-5.376,-84.936005,eccentric,3,5.0,41452.0,50088.0,76294.0,104115.0,36112.0,57582.0,32039.0,58607.0,22947.0,20269.0
2026-05-06 15:47:31.063854,379736,1609504714552732,2314464534,0.700768,-0.11712,0.083936,10.63125,7.945,-35.4375,-38.408,-6.072001,-87.144005,eccentric,3,5.0,41452.0,50088.0,76294.0,104115.0,36112.0,57582.0,32039.0,58607.0,22947.0,20269.0
2026-05-06 15:47:31.066356,379737,1609504714567278,2314479445,0.700768,-0.11712,0.031232,13.36125,5.60875,-39.4275,-38.408,-6.072001,-87.144005,eccentric,3,5.0,41452.0,50088.0,76294.0,104115.0,36112.0,57582.0,32039.0,58607.0,22947.0,20269.0
2026-05-06 15:47:31.068970,379738,1609504714576238,2314488222,0.837408,-0.255712,0.031232,12.573751,0.735,-41.3175,-38.976,-8.208,-86.00001,eccentric,3,5.0,41452.0,50088.0,76294.0,104115.0,36112.0,57582.0,32039.0,58607.0,22947.0,20269.0
2026-05-06 15:47:31.081494,379739,1609504714590757,2314503173,0.83936,-0.265472,0.208864,-4.025,-1.42625,-44.8525,-38.192,-8.032001,-86.824005,eccentric,3,5.0,41452.0,50088.0,76294.0,104115.0,36112.0,57582.0,32039.0,58607.0,22947.0,20269.0
2026-05-06 15:47:31.094859,379740,1609504714599682,2314511879,0.83936,-0.265472,0.208864,-5.985,-0.6475,-45.71,-38.192,-8.032001,-86.824005,eccentric,3,5.0,41452.0,50088.0,76294.0,104115.0,36112.0,57582.0,32039.0,58607.0,22947.0,20269.0
2026-05-06 15:47:31.101356,379741,1609504714608618,2314520619,0.714432,-0.26352,0.150304,-1.2775,0.21,-47.31125,-38.52,-7.272,-87.76,eccentric,3,5.0,41452.0,50088.0,76294.0,104115.0,36112.0,57582.0,32039.0,58607.0,22947.0,20269.0
2026-05-06 15:47:31.115185,379742,1609504714623240,2314535599,0.714432,-0.26352,0.150304,1.21625,1.05,-48.04625,-38.52,-7.272,-87.76,eccentric,3,5.0,41452.0,50088.0,76294.0,104115.0,36112.0,57582.0,32039.0,58607.0,22947.0,20269.0
2026-05-06 15:47:31.123636,379743,1609504714632149,2314544331,0.794464,-0.310368,0.040992,10.0275,-0.14875,-43.6625,-38.432003,-8.592,-86.896,eccentric,3,5.0,41452.0,50088.0,76294.0,104115.0,36112.0,57582.0,32039.0,58607.0,22947.0,20269.0
2026-05-06 15:47:31.160109,379754,1609504714646787,2314559486,0.794464,-0.310368,0.040992,8.82,-1.16375,-40.451252,-38.432003,-8.592,-86.896,eccentric,3,5.0,41530.0,50073.0,76279.0,103086.0,36136.0,57527.0,32025.0,58052.0,22873.0,20125.0
2026-05-06 15:47:31.162733,379755,1609504714655798,2314568246,0.903776,-0.25376,0.062464,9.135,0.51625,-42.3325,-38.344,-9.432,-87.28001,eccentric,3,5.0,41530.0,50073.0,76279.0,103086.0,36136.0,57527.0,32025.0,58052.0,22873.0,20125.0
2026-05-06 15:47:31.165209,379756,1609504714664836,2314577024,0.903776,-0.25376,0.062464,20.64125,1.16375,-47.67875,-38.344,-9.432,-87.28001,eccentric,3,5.0,41530.0,50073.0,76279.0,103086.0,36136.0,57527.0,32025.0,58052.0,22873.0,20125.0
2026-05-06 15:47:31.171434,379757,1609504714679368,2314591980,0.827648,-0.132736,0.218624,25.99625,2.3275,-54.853752,-38.392002,-9.864,-86.73601,eccentric,3,5.0,41530.0,50073.0,76279.0,103086.0,36136.0,57527.0,32025.0,58052.0,22873.0,20125.0
2026-05-06 15:47:31.179910,379758,1609504714688318,2314600721,0.827648,-0.144448,0.140544,35.21,3.255,-58.1175,-38.392002,-9.864,-86.73601,eccentric,3,5.0,41530.0,50073.0,76279.0,103086.0,36136.0,57527.0,32025.0,58052.0,22873.0,20125.0
2026-05-06 15:47:31.192549,379759,1609504714702822,2314613595,0.700768,-0.144448,0.140544,41.2475,1.12,-56.665,-38.024002,-11.472,-87.728004,eccentric,3,5.0,41530.0,50073.0,76279.0,103086.0,36136.0,57527.0,32025.0,58052.0,22873.0,20125.0
2026-05-06 15:47:31.206296,379760,1609504714712043,2314624380,0.835456,-0.245952,0.054656,34.51875,1.33875,-54.81,-38.384003,-10.256001,-86.16801,eccentric,3,5.0,41530.0,50073.0,76279.0,103086.0,36136.0,57527.0,32025.0,58052.0,22873.0,20125.0
2026-05-06 15:47:31.220143,379761,1609504714726661,2314639341,0.835456,-0.245952,0.054656,28.0,1.16375,-54.52125,-38.384003,-10.256001,-86.16801,eccentric,3,5.0,41530.0,50073.0,76279.0,103086.0,36136.0,57527.0,32025.0,58052.0,22873.0,20125.0
2026-05-06 15:47:31.248939,379762,1609504714735603,2314648039,0.847168,-0.15616,0.142496,23.19625,1.46125,-60.7075,-38.440002,-12.032001,-87.408005,eccentric,3,5.0,41530.0,50073.0,76279.0,103086.0,36136.0,57527.0,32025.0,58052.0,22873.0,20125.0
2026-05-06 15:47:31.326439,379773,1609504714745014,2314656930,0.847168,-0.15616,0.142496,31.4125,0.91875,-72.8175,-38.440002,-12.032001,-87.408005,eccentric,3,5.0,42044.0,50349.0,76335.0,103586.0,36603.0,57760.0,32111.0,58370.0,23142.0,20219.0
2026-05-06 15:47:31.328984,379774,1609504714759628,2314671992,0.767136,-0.122976,0.160064,54.73125,-4.3925,-81.41875,-37.72,-11.320001,-86.520004,eccentric,3,5.0,42044.0,50349.0,76335.0,103586.0,36603.0,57760.0,32111.0,58370.0,23142.0,20219.0
2026-05-06 15:47:31.331448,379775,1609504714768557,2314680695,0.767136,-0.122976,0.160064,68.69625,-8.02375,-82.67,-37.72,-11.320001,-86.520004,eccentric,3,5.0,42044.0,50349.0,76335.0,103586.0,36603.0,57760.0,32111.0,58370.0,23142.0,20219.0
2026-05-06 15:47:31.334017,379776,1609504714783054,2314695664,0.806176,-0.134688,0.0488,71.225,-8.33875,-75.635,-37.84,-11.52,-86.408005,eccentric,3,5.0,42044.0,50349.0,76335.0,103586.0,36603.0,57760.0,32111.0,58370.0,23142.0,20219.0
2026-05-06 15:47:31.336479,379777,1609504714791962,2314704356,0.786656,-0.031232,-0.02928,68.39,-5.285,-66.4125,-37.584003,-11.752001,-86.864006,eccentric,3,5.0,42044.0,50349.0,76335.0,103586.0,36603.0,57760.0,32111.0,58370.0,23142.0,20219.0
2026-05-06 15:47:31.338961,379778,1609504714800962,2314713096,0.786656,-0.031232,-0.02928,65.16125,-0.14,-62.93,-37.584003,-11.752001,-86.864006,eccentric,3,5.0,42044.0,50349.0,76335.0,103586.0,36603.0,57760.0,32111.0,58370.0,23142.0,20219.0
2026-05-06 15:47:31.341449,379779,1609504714815659,2314728051,0.69296,0.042944,0.081984,54.32875,2.0125,-66.50875,-37.424004,-12.080001,-86.984,eccentric,3,5.0,42044.0,50349.0,76335.0,103586.0,36603.0,57760.0,32111.0,58370.0,23142.0,20219.0
2026-05-06 15:47:31.344071,379780,1609504714824583,2314736791,0.69296,0.042944,0.081984,45.82375,0.595,-69.58875,-37.424004,-12.080001,-86.984,eccentric,3,5.0,42044.0,50349.0,76335.0,103586.0,36603.0,57760.0,32111.0,58370.0,23142.0,20219.0
2026-05-06 15:47:31.346531,379781,1609504714839167,2314751749,0.769088,-0.11712,0.163968,32.9,-0.18375,-73.955,-37.640003,-13.256001,-86.72,eccentric,3,5.0,42044.0,50349.0,76335.0,103586.0,36603.0,57760.0,32111.0,58370.0,23142.0,20219.0
2026-05-06 15:47:31.380057,379793,1609504714848338,2314760985,0.769088,-0.11712,0.163968,20.71125,0.4025,-74.41875,-37.640003,-13.256001,-86.72,eccentric,3,5.0,42430.0,50932.0,76474.0,103651.0,37007.0,58261.0,32250.0,58481.0,23405.0,20497.0
2026-05-06 15:47:31.382508,379794,1609504714857352,2314769712,0.745664,-0.066368,0.12688,25.9525,2.03875,-67.48,-37.224003,-13.776001,-85.816,eccentric,3,5.0,42430.0,50932.0,76474.0,103651.0,37007.0,58261.0,32250.0,58481.0,23405.0,20497.0
2026-05-06 15:47:31.385074,379795,1609504714872057,2314784671,0.76128,0.0,0.081984,36.46125,2.86125,-66.1675,-37.088,-15.696001,-85.672005,eccentric,3,5.0,42430.0,50932.0,76474.0,103651.0,37007.0,58261.0,32250.0,58481.0,23405.0,20497.0
2026-05-06 15:47:31.387560,379796,1609504714881096,2314793412,0.76128,0.0,0.081984,33.11,2.38,-69.36125,-37.088,-15.696001,-85.672005,eccentric,3,5.0,42430.0,50932.0,76474.0,103651.0,37007.0,58261.0,32250.0,58481.0,23405.0,20497.0
2026-05-06 15:47:31.390019,379797,1609504714895810,2314808419,0.776896,0.091744,0.00976,32.62875,2.975,-65.66875,-37.152,-16.216002,-85.656006,eccentric,3,5.0,42430.0,50932.0,76474.0,103651.0,37007.0,58261.0,32250.0,58481.0,23405.0,20497.0
2026-05-06 15:47:31.398697,379798,1609504714904937,2314817135,0.776896,0.091744,0.00976,35.7,1.6975,-63.23625,-37.152,-16.216002,-85.656006,eccentric,3,5.0,42430.0,50932.0,76474.0,103651.0,37007.0,58261.0,32250.0,58481.0,23405.0,20497.0
2026-05-06 15:47:31.404910,379799,1609504714913881,2314825843,0.825696,0.035136,0.10736,38.01875,1.00625,-64.07625,-37.464,-16.032001,-86.576004,eccentric,3,5.0,42430.0,50932.0,76474.0,103651.0,37007.0,58261.0,32250.0,58481.0,23405.0,20497.0
2026-05-06 15:47:31.428817,379800,1609504714928414,2314840840,0.825696,0.035136,0.10736,32.2525,-1.015,-64.0675,-37.464,-16.032001,-86.576004,eccentric,3,5.0,42430.0,50932.0,76474.0,103651.0,37007.0,58261.0,32250.0,58481.0,23405.0,20497.0
2026-05-06 15:47:31.431318,379801,1609504714937332,2314849636,0.76128,0.044896,0.085888,27.098751,-1.82875,-61.59125,-36.728,-15.584001,-85.912,eccentric,3,5.0,42430.0,50932.0,76474.0,103651.0,37007.0,58261.0,32250.0,58481.0,23405.0,20497.0
2026-05-06 15:47:31.467949,379812,1609504714951942,2314864646,0.784704,0.103456,0.11712,27.13375,-3.10625,-58.135002,-36.968002,-17.744001,-86.240005,eccentric,3,5.0,41170.0,49919.0,75885.0,102328.0,36037.0,57326.0,32033.0,57761.0,22955.0,20107.0
2026-05-06 15:47:31.469760,379813,1609504714960956,2314873539,0.784704,0.103456,0.11712,20.825,-3.5,-56.56,-36.968002,-17.744001,-86.240005,eccentric,3,5.0,41170.0,49919.0,75885.0,102328.0,36037.0,57326.0,32033.0,57761.0,22955.0,20107.0
2026-05-06 15:47:31.472445,379814,1609504714975626,2314886441,0.804224,0.040992,0.064416,19.845,-3.2375,-55.5975,-36.664,-16.496,-87.312004,eccentric,3,5.0,41170.0,49919.0,75885.0,102328.0,36037.0,57326.0,32033.0,57761.0,22955.0,20107.0
2026-05-06 15:47:31.476309,379815,1609504714984904,2314897225,0.804224,0.040992,0.064416,18.13,-2.1175,-54.94125,-36.664,-16.496,-87.312004,eccentric,3,5.0,41170.0,49919.0,75885.0,102328.0,36037.0,57326.0,32033.0,57761.0,22955.0,20107.0
2026-05-06 15:47:31.485120,379816,1609504714993871,2314905944,0.782752,0.025376,0.128832,13.125,-2.275,-51.14375,-36.584003,-16.896,-87.600006,eccentric,3,5.0,41170.0,49919.0,75885.0,102328.0,36037.0,57326.0,32033.0,57761.0,22955.0,20107.0
2026-05-06 15:47:31.498932,379817,1609504715008383,2314920895,0.782752,0.025376,0.128832,15.77625,-3.045,-44.065,-36.584003,-16.896,-87.600006,eccentric,3,5.0,41170.0,49919.0,75885.0,102328.0,36037.0,57326.0,32033.0,57761.0,22955.0,20107.0
2026-05-06 15:47:31.507690,379818,1609504715017306,2314929775,0.784704,0.105408,0.140544,20.37,-4.97875,-37.905,-36.648003,-16.912,-86.69601,eccentric,3,5.0,41170.0,49919.0,75885.0,102328.0,36037.0,57326.0,32033.0,57761.0,22955.0,20107.0
2026-05-06 15:47:31.521438,379819,1609504715031795,2314942657,0.8296,0.183488,0.074176,21.00875,-6.195,-32.095,-36.344,-16.984001,-86.520004,eccentric,3,5.0,41170.0,49919.0,75885.0,102328.0,36037.0,57326.0,32033.0,57761.0,22955.0,20107.0
2026-05-06 15:47:31.535118,379820,1609504715041106,2314953565,0.8296,0.183488,0.074176,17.1675,-4.99625,-29.56625,-36.344,-16.984001,-86.520004,eccentric,3,5.0,41170.0,49919.0,75885.0,102328.0,36037.0,57326.0,32033.0,57761.0,22955.0,20107.0
2026-05-06 15:47:31.567436,379831,1609504715050358,2314962354,0.8296,0.183488,0.074176,8.67125,-2.98375,-29.77625,-36.344,-16.984001,-86.520004,eccentric,3,5.0,40491.0,49190.0,75664.0,101976.0,35623.0,56750.0,31967.0,57641.0,22770.0,19889.0
2026-05-06 15:47:31.569838,379832,1609504715064934,2314977372,0.862784,0.066368,0.07808,0.09625,-0.7175,-29.46125,-36.232002,-18.888,-85.536,eccentric,3,5.0,40491.0,49190.0,75664.0,101976.0,35623.0,56750.0,31967.0,57641.0,22770.0,19889.0
2026-05-06 15:47:31.572394,379833,1609504715073939,2314986116,0.833504,0.001952,0.095648,-1.7675,0.62125,-25.43625,-36.376003,-18.984001,-85.856,eccentric,3,5.0,40491.0,49190.0,75664.0,101976.0,35623.0,56750.0,31967.0,57641.0,22770.0,19889.0
2026-05-06 15:47:31.605140,379834,1609504715088446,2315001040,0.833504,0.001952,0.095648,5.24125,-1.56625,-18.31375,-36.376003,-18.984001,-85.856,eccentric,3,5.0,40491.0,49190.0,75664.0,101976.0,35623.0,56750.0,31967.0,57641.0,22770.0,19889.0
2026-05-06 15:47:31.630021,379835,1609504715097453,2315009877,0.894016,0.169824,0.148352,14.323751,-4.2875,-11.3225,-35.960003,-17.336,-86.936005,eccentric,3,5.0,40491.0,49190.0,75664.0,101976.0,35623.0,56750.0,31967.0,57641.0,22770.0,19889.0
2026-05-06 15:47:31.655837,379836,1609504715106387,2315018648,0.894016,0.169824,0.148352,15.9425,-5.5125,-5.74875,-35.960003,-17.336,-86.936005,eccentric,3,5.0,40491.0,49190.0,75664.0,101976.0,35623.0,56750.0,31967.0,57641.0,22770.0,19889.0
