pc_time,serial_num,sensor_ts,host_ts,ax,ay,az,gx,gy,gz,mx,my,mz,phase,rpe,weight_kg,ppg_a,ppg_b,ppg_c,ppg_d,ppg_e,ppg_f,ppg_g,ppg_h,ppg_i,ppg_j
2026-05-06 15:47:34.101503,380307,1609504717598708,2317510778,0.841312,0.134688,0.249856,-21.8925,-0.805,6.5975,-39.808002,-16.248001,-81.54401,concentric,3,5.0,41877.0,50736.0,76846.0,103727.0,37107.0,58673.0,32537.0,58525.0,23513.0,20693.0
2026-05-06 15:47:34.103706,380308,1609504717613294,2317525775,0.833504,0.11712,0.30256,-21.00875,-0.4375,8.417501,-40.536003,-18.68,-79.968,concentric,3,5.0,41877.0,50736.0,76846.0,103727.0,37107.0,58673.0,32537.0,58525.0,23513.0,20693.0
2026-05-06 15:47:34.117651,380309,1609504717622279,2317534474,0.833504,0.11712,0.30256,-21.0525,0.7875,11.94375,-40.536003,-18.68,-79.968,concentric,3,5.0,41877.0,50736.0,76846.0,103727.0,37107.0,58673.0,32537.0,58525.0,23513.0,20693.0
2026-05-06 15:47:34.123771,380310,1609504717631194,2317543254,0.870592,0.152256,0.271328,-22.11125,1.6275,14.56,-40.376003,-15.912001,-82.768005,concentric,3,5.0,41877.0,50736.0,76846.0,103727.0,37107.0,58673.0,32537.0,58525.0,23513.0,20693.0
2026-05-06 15:47:34.137519,380311,1609504717645689,2317558157,0.870592,0.152256,0.271328,-28.647501,2.485,16.975,-40.376003,-15.912001,-82.768005,concentric,3,5.0,41877.0,50736.0,76846.0,103727.0,37107.0,58673.0,32537.0,58525.0,23513.0,20693.0
2026-05-06 15:47:34.167255,380312,1609504717654728,2317566890,0.837408,0.189344,0.20496,-31.1325,2.79125,17.99875,-40.008003,-15.968,-82.28001,concentric,3,5.0,41877.0,50736.0,76846.0,103727.0,37107.0,58673.0,32537.0,58525.0,23513.0,20693.0
2026-05-06 15:47:34.251364,380323,1609504717669537,2317581871,0.837408,0.189344,0.20496,-30.05625,1.8025,16.40625,-40.008003,-15.968,-82.28001,concentric,3,5.0,41058.0,50183.0,76501.0,103258.0,36491.0,58143.0,32380.0,58323.0,23236.0,20483.0
2026-05-06 15:47:34.253791,380324,1609504717678489,2317590615,0.84912,0.162016,0.173728,-24.59625,0.27125,15.81125,-40.04,-16.136002,-79.608,concentric,3,5.0,41058.0,50183.0,76501.0,103258.0,36491.0,58143.0,32380.0,58323.0,23236.0,20483.0
2026-05-06 15:47:34.256350,380325,1609504717692996,2317605539,0.862784,0.1464,0.286944,-17.8325,-0.44625,14.07875,-40.304,-15.960001,-80.048004,concentric,3,5.0,41058.0,50183.0,76501.0,103258.0,36491.0,58143.0,32380.0,58323.0,23236.0,20483.0
2026-05-06 15:47:34.258856,380326,1609504717701915,2317614231,0.862784,0.1464,0.286944,-16.14375,-0.0175,12.495,-40.304,-15.960001,-80.048004,concentric,3,5.0,41058.0,50183.0,76501.0,103258.0,36491.0,58143.0,32380.0,58323.0,23236.0,20483.0
2026-05-06 15:47:34.261436,380327,1609504717710901,2317622943,0.862784,0.1464,0.245952,-17.59625,0.875,12.67,-40.304,-15.960001,-80.048004,concentric,3,5.0,41058.0,50183.0,76501.0,103258.0,36491.0,58143.0,32380.0,58323.0,23236.0,20483.0
2026-05-06 15:47:34.263832,380328,1609504717725375,2317637881,0.847168,0.099552,0.245952,-21.84875,1.995,14.34125,-40.504,-15.68,-81.48801,concentric,3,5.0,41058.0,50183.0,76501.0,103258.0,36491.0,58143.0,32380.0,58323.0,23236.0,20483.0
2026-05-06 15:47:34.273108,380329,1609504717734305,2317646631,0.827648,0.07808,0.23424,-24.56125,2.765,16.49375,-40.336002,-15.384001,-82.08,concentric,3,5.0,41058.0,50183.0,76501.0,103258.0,36491.0,58143.0,32380.0,58323.0,23236.0,20483.0
2026-05-06 15:47:34.274903,380330,1609504717748867,2317661606,0.827648,0.07808,0.23424,-24.0625,2.3275,18.22625,-40.336002,-15.384001,-82.08,concentric,3,5.0,41058.0,50183.0,76501.0,103258.0,36491.0,58143.0,32380.0,58323.0,23236.0,20483.0
2026-05-06 15:47:34.280323,380331,1609504717757858,2317670335,0.812032,0.124928,0.220576,-20.405,1.435,21.0875,-39.944,-15.840001,-81.8,concentric,3,5.0,41058.0,50183.0,76501.0,103258.0,36491.0,58143.0,32380.0,58323.0,23236.0,20483.0
2026-05-06 15:47:34.307534,380342,1609504717772415,2317683276,0.817888,0.081984,0.206912,-15.95125,0.7525,22.995,-40.24,-15.416,-83.560005,concentric,3,5.0,40233.0,49243.0,76049.0,102559.0,35815.0,57344.0,32188.0,58002.0,22901.0,20131.0
2026-05-06 15:47:34.310055,380343,1609504717781966,2317694107,0.817888,0.081984,0.206912,-13.5275,0.385,23.4325,-40.24,-15.416,-83.560005,concentric,3,5.0,40233.0,49243.0,76049.0,102559.0,35815.0,57344.0,32188.0,58002.0,22901.0,20131.0
2026-05-06 15:47:34.312424,380344,1609504717790873,2317702871,0.817888,0.081984,0.206912,-13.48375,0.02625,23.82625,-40.24,-15.416,-83.560005,concentric,3,5.0,40233.0,49243.0,76049.0,102559.0,35815.0,57344.0,32188.0,58002.0,22901.0,20131.0
2026-05-06 15:47:34.314799,380345,1609504717805486,2317717882,0.767136,0.02928,0.259616,-12.85375,-0.74375,25.9525,-40.992,-18.176,-80.984,concentric,3,5.0,40233.0,49243.0,76049.0,102559.0,35815.0,57344.0,32188.0,58002.0,22901.0,20131.0
2026-05-06 15:47:34.317330,380346,1609504717814422,2317726604,0.75152,-0.025376,0.228384,-8.6275,-0.91875,30.28375,-41.104,-17.544,-79.656006,concentric,3,5.0,40233.0,49243.0,76049.0,102559.0,35815.0,57344.0,32188.0,58002.0,22901.0,20131.0
2026-05-06 15:47:34.319884,380347,1609504717828962,2317741611,0.75152,-0.025376,0.228384,-3.07125,-0.90125,37.75625,-41.104,-17.544,-79.656006,concentric,3,5.0,40233.0,49243.0,76049.0,102559.0,35815.0,57344.0,32188.0,58002.0,22901.0,20131.0
2026-05-06 15:47:34.333793,380348,1609504717837977,2317750373,0.776896,-0.013664,0.257664,-2.24,-0.60375,44.05625,-41.056004,-15.064001,-80.416,concentric,3,5.0,40233.0,49243.0,76049.0,102559.0,35815.0,57344.0,32188.0,58002.0,22901.0,20131.0
2026-05-06 15:47:34.337584,380349,1609504717846904,2317759091,0.776896,-0.013664,0.257664,-4.1475,-0.385,48.107502,-41.056004,-15.064001,-80.416,concentric,3,5.0,40233.0,49243.0,76049.0,102559.0,35815.0,57344.0,32188.0,58002.0,22901.0,20131.0
2026-05-06 15:47:34.393686,380360,1609504717861838,2317774574,0.704672,0.003904,0.187392,-4.71625,-1.49625,50.75875,-40.752003,-13.448001,-81.008,concentric,3,5.0,40111.0,48813.0,75625.0,102214.0,35689.0,56943.0,31932.0,57764.0,22786.0,19926.0
2026-05-06 15:47:34.396113,380361,1609504717870833,2317783388,0.704672,0.003904,0.187392,-8.19,-3.8675,55.58875,-40.752003,-13.448001,-81.008,concentric,3,5.0,40111.0,48813.0,75625.0,102214.0,35689.0,56943.0,31932.0,57764.0,22786.0,19926.0
2026-05-06 15:47:34.398854,380362,1609504717885389,2317796264,0.691008,-0.044896,0.245952,-11.73375,-4.4625,63.07,-40.736,-13.392,-79.08,concentric,3,5.0,40111.0,48813.0,75625.0,102214.0,35689.0,56943.0,31932.0,57764.0,22786.0,19926.0
2026-05-06 15:47:34.401355,380363,1609504717894780,2317807097,0.720288,-0.095648,0.171776,-15.0675,-4.90875,70.665,-40.968002,-12.56,-80.79201,concentric,3,5.0,40111.0,48813.0,75625.0,102214.0,35689.0,56943.0,31932.0,57764.0,22786.0,19926.0
2026-05-06 15:47:34.403855,380364,1609504717903718,2317815803,0.720288,-0.095648,0.171776,-22.12875,-3.40375,76.125,-40.968002,-12.56,-80.79201,concentric,3,5.0,40111.0,48813.0,75625.0,102214.0,35689.0,56943.0,31932.0,57764.0,22786.0,19926.0
2026-05-06 15:47:34.410177,380365,1609504717918262,2317830745,0.733952,-0.015616,0.210816,-29.785,-1.00625,78.53125,-41.232002,-11.456,-80.69601,concentric,3,5.0,40111.0,48813.0,75625.0,102214.0,35689.0,56943.0,31932.0,57764.0,22786.0,19926.0
2026-05-06 15:47:34.418930,380366,1609504717927180,2317839581,0.733952,-0.015616,0.210816,-32.2175,1.33875,76.71125,-41.232002,-11.456,-80.69601,concentric,3,5.0,40111.0,48813.0,75625.0,102214.0,35689.0,56943.0,31932.0,57764.0,22786.0,19926.0
2026-05-06 15:47:34.432697,380367,1609504717941716,2317852594,0.681248,-0.025376,0.162016,-29.81125,0.245,72.1,-40.72,-9.936001,-81.136,concentric,3,5.0,40111.0,48813.0,75625.0,102214.0,35689.0,56943.0,31932.0,57764.0,22786.0,19926.0
2026-05-06 15:47:34.443948,380368,1609504717951052,2317863410,0.681248,-0.025376,0.162016,-27.317501,-2.40625,69.44,-40.72,-9.936001,-81.136,concentric,3,5.0,40111.0,48813.0,75625.0,102214.0,35689.0,56943.0,31932.0,57764.0,22786.0,19926.0
2026-05-06 15:47:34.452700,380369,1609504717960155,2317872237,0.767136,-0.134688,0.279136,-25.445,-3.6925,72.21375,-41.232002,-9.264001,-81.888,concentric,3,5.0,40111.0,48813.0,75625.0,102214.0,35689.0,56943.0,31932.0,57764.0,22786.0,19926.0
2026-05-06 15:47:34.482537,380380,1609504717974797,2317887258,0.808128,-0.12688,0.244,-26.31125,-4.165,77.98,-41.288002,-7.032001,-81.008,concentric,3,5.0,41503.0,49725.0,76154.0,103094.0,36865.0,57779.0,32169.0,58250.0,23370.0,20289.0
2026-05-06 15:47:34.485008,380381,1609504717983806,2317895990,0.808128,-0.12688,0.244,-35.420002,-2.47625,77.0175,-41.288002,-7.032001,-81.008,concentric,3,5.0,41503.0,49725.0,76154.0,103094.0,36865.0,57779.0,32169.0,58250.0,23370.0,20289.0
2026-05-06 15:47:34.491327,380382,1609504717998461,2317910907,0.733952,-0.01952,0.124928,-34.34375,-1.95125,74.08625,-40.960003,-6.096,-82.688,concentric,3,5.0,41503.0,49725.0,76154.0,103094.0,36865.0,57779.0,32169.0,58250.0,23370.0,20289.0
2026-05-06 15:47:34.500161,380383,1609504718007392,2317919691,0.733952,-0.01952,0.124928,-26.48625,-4.50625,71.5925,-40.960003,-6.096,-82.688,concentric,3,5.0,41503.0,49725.0,76154.0,103094.0,36865.0,57779.0,32169.0,58250.0,23370.0,20289.0
2026-05-06 15:47:34.506418,380384,1609504718016297,2317928516,0.689056,-0.121024,0.02928,-19.285,-8.16375,68.145,-40.456,-5.272,-81.520004,concentric,3,5.0,41503.0,49725.0,76154.0,103094.0,36865.0,57779.0,32169.0,58250.0,23370.0,20289.0
2026-05-06 15:47:34.546362,380385,1609504718030842,2317943423,0.689056,-0.121024,0.02928,-10.675,-12.29375,67.75125,-40.456,-5.272,-81.520004,concentric,3,5.0,41503.0,49725.0,76154.0,103094.0,36865.0,57779.0,32169.0,58250.0,23370.0,20289.0
2026-05-06 15:47:34.571269,380386,1609504718039766,2317952156,0.72224,-0.277184,0.21472,-11.66375,-16.345,67.59375,-40.464,-3.968,-82.688,concentric,3,5.0,41503.0,49725.0,76154.0,103094.0,36865.0,57779.0,32169.0,58250.0,23370.0,20289.0
2026-05-06 15:47:34.596185,380387,1609504718054251,2317965014,0.75152,-0.247904,0.345504,-12.8275,-16.65125,70.00875,-40.24,-3.152,-82.84801,concentric,3,5.0,41503.0,49725.0,76154.0,103094.0,36865.0,57779.0,32169.0,58250.0,23370.0,20289.0
2026-05-06 15:47:34.628691,380398,1609504718064099,2317976007,0.75152,-0.247904,0.345504,-14.41125,-16.28375,73.4125,-40.24,-3.152,-82.84801,concentric,3,5.0,42058.0,51136.0,76923.0,103982.0,37335.0,59161.0,32512.0,58703.0,23613.0,20871.0
2026-05-06 15:47:34.631188,380399,1609504718073153,2317984735,0.75152,-0.247904,0.345504,-19.67,-15.198751,76.055,-40.24,-3.152,-82.84801,concentric,3,5.0,42058.0,51136.0,76923.0,103982.0,37335.0,59161.0,32512.0,58703.0,23613.0,20871.0
2026-05-06 15:47:34.633591,380400,1609504718087657,2317999681,0.720288,-0.20496,0.144448,-17.99875,-16.05625,73.87625,-39.976,-1.992,-82.52801,concentric,3,5.0,42058.0,51136.0,76923.0,103982.0,37335.0,59161.0,32512.0,58703.0,23613.0,20871.0
2026-05-06 15:47:34.636087,380401,1609504718096596,2318008397,0.70272,-0.199104,0.158112,-23.3275,-17.15,64.277504,-39.832,-0.904,-83.36,concentric,3,5.0,42058.0,51136.0,76923.0,103982.0,37335.0,59161.0,32512.0,58703.0,23613.0,20871.0
2026-05-06 15:47:34.640678,380402,1609504718111178,2318023480,0.70272,-0.199104,0.158112,-16.12625,-18.0075,62.39625,-39.832,-0.904,-83.36,concentric,3,5.0,42058.0,51136.0,76923.0,103982.0,37335.0,59161.0,32512.0,58703.0,23613.0,20871.0
2026-05-06 15:47:34.641354,380403,1609504718120124,2318032217,0.67344,-0.290848,0.122976,1.54875,-24.08875,65.56375,-39.440002,-0.128,-84.048004,concentric,3,5.0,42058.0,51136.0,76923.0,103982.0,37335.0,59161.0,32512.0,58703.0,23613.0,20871.0
2026-05-06 15:47:34.643700,380404,1609504718134663,2318047137,0.689056,-0.38064,0.212768,6.90375,-27.90375,66.57,-39.440002,1.184,-85.864006,concentric,3,5.0,42058.0,51136.0,76923.0,103982.0,37335.0,59161.0,32512.0,58703.0,23613.0,20871.0
2026-05-06 15:47:34.648733,380405,1609504718143620,2318055865,0.689056,-0.38064,0.212768,1.155,-26.25,68.24125,-38.928,1.184,-85.864006,concentric,3,5.0,42058.0,51136.0,76923.0,103982.0,37335.0,59161.0,32512.0,58703.0,23613.0,20871.0
2026-05-06 15:47:34.652310,380406,1609504718152590,2318064617,0.689056,-0.38064,0.212768,-15.61875,-22.53125,69.2475,-38.928,1.184,-85.864006,concentric,3,5.0,42058.0,51136.0,76923.0,103982.0,37335.0,59161.0,32512.0,58703.0,23613.0,20871.0
2026-05-06 15:47:34.679830,380417,1609504718167278,2318079624,0.675392,-0.298656,0.2928,-33.06625,-16.73875,67.06875,-38.584003,1.96,-87.16,concentric,3,5.0,40750.0,51115.0,76848.0,103278.0,36296.0,59209.0,32436.0,58331.0,23180.0,20982.0
2026-05-06 15:47:34.685096,380418,1609504718176288,2318088367,0.579744,-0.257664,0.245952,-31.35125,-11.24375,67.655,-38.112003,1.184,-84.136,concentric,3,5.0,40750.0,51115.0,76848.0,103278.0,36296.0,59209.0,32436.0,58331.0,23180.0,20982.0
2026-05-06 15:47:34.687569,380419,1609504718190816,2318103322,0.579744,-0.257664,0.245952,-22.8025,-12.99375,65.9575,-38.112003,1.184,-84.136,concentric,3,5.0,40750.0,51115.0,76848.0,103278.0,36296.0,59209.0,32436.0,58331.0,23180.0,20982.0
2026-05-06 15:47:34.690143,380420,1609504718199797,2318112061,0.569984,-0.456768,0.181536,-15.53125,-14.04375,64.63625,-37.456,2.04,-83.96001,concentric,3,5.0,40750.0,51115.0,76848.0,103278.0,36296.0,59209.0,32436.0,58331.0,23180.0,20982.0
2026-05-06 15:47:34.703948,380421,1609504718208808,2318120813,0.569984,-0.456768,0.181536,-13.20375,-16.14375,63.58625,-37.456,2.04,-83.96001,concentric,3,5.0,40750.0,51115.0,76848.0,103278.0,36296.0,59209.0,32436.0,58331.0,23180.0,20982.0
2026-05-06 15:47:34.717674,380422,1609504718223358,2318135717,0.665632,-0.476288,0.144448,1.96875,-13.71125,67.22625,-37.568,5.296001,-85.624,concentric,3,5.0,40750.0,51115.0,76848.0,103278.0,36296.0,59209.0,32436.0,58331.0,23180.0,20982.0
2026-05-06 15:47:34.723950,380423,1609504718232273,2318144471,0.665632,-0.476288,0.144448,14.18375,-12.0925,65.8175,-37.568,5.296001,-85.624,concentric,3,5.0,40750.0,51115.0,76848.0,103278.0,36296.0,59209.0,32436.0,58331.0,23180.0,20982.0
2026-05-06 15:47:34.737729,380424,1609504718246760,2318159405,0.806176,-0.37088,0.18544,18.99625,-11.6025,62.072502,-37.048,6.440001,-85.048004,concentric,3,5.0,40750.0,51115.0,76848.0,103278.0,36296.0,59209.0,32436.0,58331.0,23180.0,20982.0
2026-05-06 15:47:34.751257,380425,1609504718255796,2318168130,0.76128,-0.290848,0.142496,11.1825,-8.47875,60.9,-36.640003,7.376,-86.392006,concentric,3,5.0,40750.0,51115.0,76848.0,103278.0,36296.0,59209.0,32436.0,58331.0,23180.0,20982.0
2026-05-06 15:47:34.813718,380436,1609504718270561,2318183331,0.76128,-0.290848,0.142496,-10.17625,-5.95,53.9175,-36.640003,7.376,-86.392006,concentric,3,5.0,39865.0,50039.0,77058.0,101314.0,35623.0,58182.0,32561.0,57260.0,22878.0,20616.0
2026-05-06 15:47:34.816433,380437,1609504718279551,2318192183,0.733952,-0.441152,0.13664,-26.08375,-4.0425,41.3525,-36.808002,4.384,-83.624,concentric,3,5.0,39865.0,50039.0,77058.0,101314.0,35623.0,58182.0,32561.0,57260.0,22878.0,20616.0
2026-05-06 15:47:34.818974,380438,1609504718288573,2318200914,0.733952,-0.441152,0.13664,-21.5775,-3.94625,29.8725,-36.808002,4.384,-83.624,concentric,3,5.0,39865.0,50039.0,77058.0,101314.0,35623.0,58182.0,32561.0,57260.0,22878.0,20616.0
2026-05-06 15:47:34.821428,380439,1609504718303104,2318215842,0.757376,-0.6344,0.1952,-32.9175,-0.35,28.525,-36.784,8.288,-85.728004,concentric,3,5.0,39865.0,50039.0,77058.0,101314.0,35623.0,58182.0,32561.0,57260.0,22878.0,20616.0
2026-05-06 15:47:34.829033,380440,1609504718312026,2318224586,0.757376,-0.6344,0.1952,-36.05875,4.17375,38.42125,-36.784,8.288,-85.728004,concentric,3,5.0,39865.0,50039.0,77058.0,101314.0,35623.0,58182.0,32561.0,57260.0,22878.0,20616.0
2026-05-06 15:47:34.835200,380441,1609504718326464,2318237430,0.720288,-0.45872,0.220576,-27.58,6.16,42.91875,-36.608,8.624001,-85.816,concentric,3,5.0,39865.0,50039.0,77058.0,101314.0,35623.0,58182.0,32561.0,57260.0,22878.0,20616.0
2026-05-06 15:47:34.837664,380442,1609504718335928,2318248261,0.720288,-0.396256,0.193248,-17.57,8.575,33.27625,-36.608,8.624001,-85.816,concentric,3,5.0,39865.0,50039.0,77058.0,101314.0,35623.0,58182.0,32561.0,57260.0,22878.0,20616.0
2026-05-06 15:47:34.840203,380443,1609504718344853,2318257018,0.730048,-0.396256,0.193248,-13.16875,6.71125,14.9275,-36.528,7.728,-82.624,concentric,3,5.0,39865.0,50039.0,77058.0,101314.0,35623.0,58182.0,32561.0,57260.0,22878.0,20616.0
2026-05-06 15:47:34.855872,380444,1609504718359487,2318272140,0.81984,-0.359168,0.138592,-15.60125,3.0975,4.69875,-37.184002,7.776001,-84.920006,concentric,3,5.0,39865.0,50039.0,77058.0,101314.0,35623.0,58182.0,32561.0,57260.0,22878.0,20616.0
2026-05-06 15:47:34.887699,380455,1609504718368578,2318280926,0.81984,-0.359168,0.138592,-19.94125,3.395,0.32375,-37.184002,7.776001,-84.920006,concentric,3,5.0,39204.0,49353.0,76747.0,100309.0,35170.0,57646.0,32420.0,56825.0,22703.0,20472.0
2026-05-06 15:47:34.890186,380456,1609504718383247,2318295908,0.872544,-0.521184,0.230336,-16.485,2.625,-9.38875,-37.136,7.848001,-84.024,concentric,3,5.0,39204.0,49353.0,76747.0,100309.0,35170.0,57646.0,32420.0,56825.0,22703.0,20472.0
2026-05-06 15:47:34.896241,380457,1609504718392236,2318304619,0.872544,-0.521184,0.230336,-9.31,3.5175,-12.4425,-37.136,7.848001,-84.024,concentric,3,5.0,39204.0,49353.0,76747.0,100309.0,35170.0,57646.0,32420.0,56825.0,22703.0,20472.0
2026-05-06 15:47:34.953486,380458,1609504718401235,2318313343,0.813984,-0.396256,0.345504,-8.96,8.53125,-2.1525,-37.104,8.240001,-84.968,concentric,3,5.0,39204.0,49353.0,76747.0,100309.0,35170.0,57646.0,32420.0,56825.0,22703.0,20472.0
2026-05-06 15:47:34.961072,380459,1609504718415851,2318328283,0.813984,-0.396256,0.345504,-3.01,11.305,1.435,-37.104,8.240001,-84.968,concentric,3,5.0,39204.0,49353.0,76747.0,100309.0,35170.0,57646.0,32420.0,56825.0,22703.0,20472.0
2026-05-06 15:47:34.963658,380460,1609504718424753,2318336989,0.864736,-0.288896,0.210816,1.5575,14.48125,-4.8475,-37.36,7.904,-84.536,concentric,3,5.0,39204.0,49353.0,76747.0,100309.0,35170.0,57646.0,32420.0,56825.0,22703.0,20472.0
2026-05-06 15:47:34.966278,380461,1609504718439318,2318351902,0.938912,-0.353312,0.20496,1.1725,17.4475,-12.53875,-37.736,10.048,-85.32001,concentric,3,5.0,39204.0,49353.0,76747.0,100309.0,35170.0,57646.0,32420.0,56825.0,22703.0,20472.0
2026-05-06 15:47:34.968781,380462,1609504718448415,2318360644,0.938912,-0.353312,0.20496,-3.80625,20.1075,-18.147501,-37.736,10.048,-85.32001,concentric,3,5.0,39204.0,49353.0,76747.0,100309.0,35170.0,57646.0,32420.0,56825.0,22703.0,20472.0
2026-05-06 15:47:35.003965,380473,1609504718462847,2318375998,0.91744,-0.402112,0.40016,-13.22125,22.65375,-23.0475,-37.960003,10.016001,-85.36,concentric,3,5.0,38818.0,48663.0,76602.0,99479.0,34799.0,57100.0,32336.0,56339.0,22473.0,20139.0
2026-05-06 15:47:35.006473,380474,1609504718471874,2318382667,0.91744,-0.402112,0.40016,-10.1325,22.155,-24.10625,-37.960003,10.016001,-85.36,concentric,3,5.0,38818.0,48663.0,76602.0,99479.0,34799.0,57100.0,32336.0,56339.0,22473.0,20139.0
2026-05-06 15:47:35.008924,380475,1609504718481285,2318393468,0.931104,-0.49776,0.212768,-2.96625,21.035,-24.56125,-38.984,10.080001,-84.976006,concentric,3,5.0,38818.0,48663.0,76602.0,99479.0,34799.0,57100.0,32336.0,56339.0,22473.0,20139.0
2026-05-06 15:47:35.011444,380476,1609504718496101,2318408690,0.931104,-0.49776,0.212768,-2.35375,19.43375,-25.43625,-38.984,10.080001,-84.976006,concentric,3,5.0,38818.0,48663.0,76602.0,99479.0,34799.0,57100.0,32336.0,56339.0,22473.0,20139.0
2026-05-06 15:47:35.013803,380477,1609504718505045,2318417400,1.030656,-0.488,0.17568,-5.9325,19.94125,-23.16125,-39.120003,7.976,-83.088005,concentric,3,5.0,38818.0,48663.0,76602.0,99479.0,34799.0,57100.0,32336.0,56339.0,22473.0,20139.0
2026-05-06 15:47:35.016423,380478,1609504718519623,2318432361,1.065792,-0.513376,0.16592,-9.14375,18.3925,-22.7675,-39.88,9.472,-84.69601,concentric,3,5.0,38818.0,48663.0,76602.0,99479.0,34799.0,57100.0,32336.0,56339.0,22473.0,20139.0
2026-05-06 15:47:35.020165,380479,1609504718528682,2318441076,1.065792,-0.513376,0.16592,-9.31875,18.17375,-30.275,-39.88,9.472,-84.69601,concentric,3,5.0,38818.0,48663.0,76602.0,99479.0,34799.0,57100.0,32336.0,56339.0,22473.0,20139.0
2026-05-06 15:47:35.029003,380480,1609504718537680,2318449816,1.097024,-0.593408,0.269376,-21.60375,14.595,-42.42875,-39.88,9.472,-85.01601,concentric,3,5.0,38818.0,48663.0,76602.0,99479.0,34799.0,57100.0,32336.0,56339.0,22473.0,20139.0
2026-05-06 15:47:35.062585,380481,1609504718552263,2318464726,1.104832,-0.593408,0.269376,-21.53375,9.0125,-44.1525,-40.68,8.704,-85.01601,concentric,3,5.0,38818.0,48663.0,76602.0,99479.0,34799.0,57100.0,32336.0,56339.0,22473.0,20139.0
2026-05-06 15:47:35.064886,380482,1609504718561207,2318473445,1.108736,-0.708576,0.089792,-12.45125,4.48875,-42.41125,-40.752003,8.72,-84.28001,concentric,3,5.0,38818.0,48663.0,76602.0,99479.0,34799.0,57100.0,32336.0,56339.0,22473.0,20139.0
2026-05-06 15:47:35.092531,380493,1609504718575809,2318488519,1.108736,-0.708576,0.089792,-11.85625,1.16375,-43.3125,-40.752003,8.72,-84.28001,concentric,3,5.0,38864.0,49141.0,76414.0,99439.0,34851.0,57602.0,32237.0,56267.0,22548.0,20422.0
2026-05-06 15:47:35.100012,380494,1609504718584786,2318497273,1.216096,-0.757376,0.152256,-14.542501,-0.79625,-38.99875,-41.320004,8.672001,-84.304,concentric,3,5.0,38864.0,49141.0,76414.0,99439.0,34851.0,57602.0,32237.0,56267.0,22548.0,20422.0
2026-05-06 15:47:35.102295,380495,1609504718593780,2318506134,1.216096,-0.757376,0.152256,1.3825,-0.21,-30.07375,-41.320004,8.672001,-84.304,concentric,3,5.0,38864.0,49141.0,76414.0,99439.0,34851.0,57602.0,32237.0,56267.0,22548.0,20422.0
2026-05-06 15:47:35.104746,380496,1609504718608359,2318521111,1.149728,-0.691008,0.218624,2.14375,1.86375,-23.12625,-41.384003,8.232,-84.368004,concentric,3,5.0,38864.0,49141.0,76414.0,99439.0,34851.0,57602.0,32237.0,56267.0,22548.0,20422.0
2026-05-06 15:47:35.109858,380497,1609504718617276,2318529835,1.149728,-0.691008,0.218624,11.935,4.34,-21.77875,-41.384003,8.232,-84.368004,concentric,3,5.0,38864.0,49141.0,76414.0,99439.0,34851.0,57602.0,32237.0,56267.0,22548.0,20422.0
2026-05-06 15:47:35.123824,380498,1609504718631894,2318542692,1.067744,-0.560224,0.163968,24.07125,4.62875,-21.13125,-41.488003,8.776,-81.11201,concentric,3,5.0,38864.0,49141.0,76414.0,99439.0,34851.0,57602.0,32237.0,56267.0,22548.0,20422.0
2026-05-06 15:47:35.132533,380499,1609504718641275,2318553506,1.01504,-0.525088,0.171776,29.63625,4.71625,-20.23875,-41.768,8.592,-83.824005,concentric,3,5.0,38864.0,49141.0,76414.0,99439.0,34851.0,57602.0,32237.0,56267.0,22548.0,20422.0
2026-05-06 15:47:35.142119,380500,1609504718650265,2318562256,1.01504,-0.525088,0.171776,27.3525,5.355,-19.66125,-41.768,8.592,-83.824005,concentric,3,5.0,38864.0,49141.0,76414.0,99439.0,34851.0,57602.0,32237.0,56267.0,22548.0,20422.0
2026-05-06 15:47:35.205050,380511,1609504718664775,2318577164,0.933056,-0.55632,0.220576,29.855,6.23875,-17.7625,-42.256,7.440001,-82.464005,concentric,3,5.0,39204.0,48897.0,76521.0,99131.0,35130.0,57345.0,32314.0,56094.0,22695.0,20307.0
2026-05-06 15:47:35.207478,380512,1609504718673787,2318585944,0.933056,-0.55632,0.220576,21.11375,8.435,-13.92125,-42.256,7.440001,-82.464005,concentric,3,5.0,39204.0,48897.0,76521.0,99131.0,35130.0,57345.0,32314.0,56094.0,22695.0,20307.0
2026-05-06 15:47:35.209933,380513,1609504718688422,2318600906,0.831552,-0.402112,0.177632,10.78875,11.38375,-7.76125,-42.000004,8.936001,-83.248,concentric,3,5.0,39204.0,48897.0,76521.0,99131.0,35130.0,57345.0,32314.0,56094.0,22695.0,20307.0
2026-05-06 15:47:35.212381,380514,1609504718697324,2318609650,0.831552,-0.402112,0.177632,14.35875,11.97875,-6.44875,-42.000004,8.936001,-83.248,concentric,3,5.0,39204.0,48897.0,76521.0,99131.0,35130.0,57345.0,32314.0,56094.0,22695.0,20307.0
2026-05-06 15:47:35.214976,380515,1609504718712003,2318624701,0.806176,-0.378688,0.181536,10.92875,13.50125,-10.325,-42.272003,7.08,-83.008,concentric,3,5.0,39204.0,48897.0,76521.0,99131.0,35130.0,57345.0,32314.0,56094.0,22695.0,20307.0
2026-05-06 15:47:35.220096,380516,1609504718720957,2318633465,0.792512,-0.40016,0.261568,2.87875,14.4025,-10.63125,-42.760002,7.12,-81.560005,concentric,3,5.0,39204.0,48897.0,76521.0,99131.0,35130.0,57345.0,32314.0,56094.0,22695.0,20307.0
2026-05-06 15:47:35.222549,380517,1609504718730015,2318642206,0.792512,-0.40016,0.261568,1.44375,15.47875,-7.62125,-42.760002,7.12,-81.560005,concentric,3,5.0,39204.0,48897.0,76521.0,99131.0,35130.0,57345.0,32314.0,56094.0,22695.0,20307.0
2026-05-06 15:47:35.240373,380518,1609504718744501,2318657116,0.788608,-0.421632,0.181536,-5.7925,16.05625,-8.05,-42.376003,6.520001,-80.36,concentric,3,5.0,39204.0,48897.0,76521.0,99131.0,35130.0,57345.0,32314.0,56094.0,22695.0,20307.0
2026-05-06 15:47:35.245046,380519,1609504718753486,2318665830,0.788608,-0.421632,0.181536,-10.78875,16.7475,-10.43875,-42.376003,6.520001,-80.36,concentric,3,5.0,39204.0,48897.0,76521.0,99131.0,35130.0,57345.0,32314.0,56094.0,22695.0,20307.0
2026-05-06 15:47:35.342520,380530,1609504718768160,2318680783,0.835456,-0.41968,0.230336,-11.5325,16.31875,-9.00375,-42.936,6.656,-81.54401,eccentric,3,5.0,39565.0,48933.0,76818.0,99179.0,35353.0,57300.0,32404.0,56113.0,22827.0,20263.0
2026-05-06 15:47:35.345051,380531,1609504718777123,2318689596,0.835456,-0.41968,0.230336,-10.91125,12.915,-7.42875,-42.936,6.656,-81.54401,eccentric,3,5.0,39565.0,48933.0,76818.0,99179.0,35353.0,57300.0,32404.0,56113.0,22827.0,20263.0
2026-05-06 15:47:35.347491,380532,1609504718786039,2318698317,0.866688,-0.452864,0.20496,-7.00875,10.07125,-6.18625,-43.288002,8.504001,-82.328,eccentric,3,5.0,39565.0,48933.0,76818.0,99179.0,35353.0,57300.0,32404.0,56113.0,22827.0,20263.0
2026-05-06 15:47:35.349902,380533,1609504718800552,2318713224,0.911584,-0.466528,0.193248,-5.32875,7.2275,-3.85,-42.832,8.56,-81.448006,eccentric,3,5.0,39565.0,48933.0,76818.0,99179.0,35353.0,57300.0,32404.0,56113.0,22827.0,20263.0
2026-05-06 15:47:35.352243,380534,1609504718809694,2318721920,0.911584,-0.466528,0.193248,-6.16,4.06,-0.69125,-42.832,8.56,-81.448006,eccentric,3,5.0,39565.0,48933.0,76818.0,99179.0,35353.0,57300.0,32404.0,56113.0,22827.0,20263.0
2026-05-06 15:47:35.354886,380535,1609504718824216,2318736958,0.923296,-0.515328,0.173728,-7.84,2.1525,0.60375,-43.176003,8.312,-82.096,eccentric,3,5.0,39565.0,48933.0,76818.0,99179.0,35353.0,57300.0,32404.0,56113.0,22827.0,20263.0
2026-05-06 15:47:35.357296,380536,1609504718833129,2318745663,0.923296,-0.515328,0.173728,-10.03625,1.04125,1.39125,-43.176003,8.312,-82.096,eccentric,3,5.0,39565.0,48933.0,76818.0,99179.0,35353.0,57300.0,32404.0,56113.0,22827.0,20263.0
2026-05-06 15:47:35.359733,380537,1609504718847636,2318758635,0.9272,-0.530944,0.257664,-26.74,1.7675,0.18375,-42.792004,8.224,-82.52801,eccentric,3,5.0,39565.0,48933.0,76818.0,99179.0,35353.0,57300.0,32404.0,56113.0,22827.0,20263.0
2026-05-06 15:47:35.362126,380538,1609504718857282,2318769471,0.9272,-0.530944,0.257664,-24.80625,0.315,0.385,-42.792004,8.224,-82.52801,eccentric,3,5.0,39565.0,48933.0,76818.0,99179.0,35353.0,57300.0,32404.0,56113.0,22827.0,20263.0
2026-05-06 15:47:35.396245,380549,1609504718866427,2318778374,0.933056,-0.61488,0.232288,-10.22875,-0.2975,2.51125,-42.976,7.784,-82.336006,eccentric,3,5.0,39731.0,49250.0,76604.0,99729.0,35490.0,57653.0,32329.0,56401.0,22906.0,20457.0
2026-05-06 15:47:35.398761,380550,1609504718881108,2318793318,0.952576,-0.550464,0.251808,-0.48125,0.035,1.1725,-43.048,8.624001,-81.84801,eccentric,3,5.0,39731.0,49250.0,76604.0,99729.0,35490.0,57653.0,32329.0,56401.0,22906.0,20457.0
2026-05-06 15:47:35.401430,380551,1609504718890151,2318802080,0.952576,-0.550464,0.251808,5.76625,0.105,1.25125,-43.048,8.624001,-81.84801,eccentric,3,5.0,39731.0,49250.0,76604.0,99729.0,35490.0,57653.0,32329.0,56401.0,22906.0,20457.0
2026-05-06 15:47:35.403939,380552,1609504718904715,2318817035,0.935008,-0.47824,0.179584,7.09625,1.33875,5.1275,-43.144,8.784,-82.48,eccentric,3,5.0,39731.0,49250.0,76604.0,99729.0,35490.0,57653.0,32329.0,56401.0,22906.0,20457.0
2026-05-06 15:47:35.406414,380553,1609504718913703,2318825766,0.935008,-0.47824,0.179584,5.0925,3.7625,7.28875,-43.144,8.784,-82.48,eccentric,3,5.0,39731.0,49250.0,76604.0,99729.0,35490.0,57653.0,32329.0,56401.0,22906.0,20457.0
2026-05-06 15:47:35.417843,380554,1609504718922757,2318834536,0.884256,-0.513376,0.26352,-1.75875,4.06,3.33375,-43.048,5.416,-80.01601,eccentric,3,5.0,39731.0,49250.0,76604.0,99729.0,35490.0,57653.0,32329.0,56401.0,22906.0,20457.0
2026-05-06 15:47:35.448769,380555,1609504718937260,2318849445,0.884256,-0.513376,0.26352,-8.295,5.1275,1.82875,-43.048,5.416,-80.01601,eccentric,3,5.0,39731.0,49250.0,76604.0,99729.0,35490.0,57653.0,32329.0,56401.0,22906.0,20457.0
2026-05-06 15:47:35.451292,380556,1609504718946174,2318858147,0.892064,-0.515328,0.320128,-11.87375,6.1775,3.14125,-42.832,8.488001,-82.296005,eccentric,3,5.0,39731.0,49250.0,76604.0,99729.0,35490.0,57653.0,32329.0,56401.0,22906.0,20457.0
2026-05-06 15:47:35.453801,380557,1609504718960695,2318873061,0.892064,-0.450912,0.261568,-10.21125,6.545,5.06625,-42.832,8.488001,-82.296005,eccentric,3,5.0,39731.0,49250.0,76604.0,99729.0,35490.0,57653.0,32329.0,56401.0,22906.0,20457.0
2026-05-06 15:47:35.491445,380568,1609504718970249,2318881928,0.845216,-0.450912,0.261568,-6.41375,6.09,3.99875,-42.968002,9.04,-82.288,eccentric,3,5.0,39804.0,49380.0,76768.0,99541.0,35510.0,57743.0,32412.0,56309.0,22937.0,20505.0
2026-05-06 15:47:35.493808,380569,1609504718979461,2318890712,0.845216,-0.450912,0.261568,-5.9325,5.48625,2.30125,-42.968002,9.04,-82.288,eccentric,3,5.0,39804.0,49380.0,76768.0,99541.0,35510.0,57743.0,32412.0,56309.0,22937.0,20505.0
2026-05-06 15:47:35.496314,380570,1609504718994499,2318905672,0.827648,-0.4392,0.218624,-7.8575,4.6025,0.76125,-43.2,8.568001,-81.36,eccentric,3,5.0,39804.0,49380.0,76768.0,99541.0,35510.0,57743.0,32412.0,56309.0,22937.0,20505.0
2026-05-06 15:47:35.498729,380571,1609504719003842,2318916456,0.833504,-0.49776,0.242048,-8.8025,2.30125,-0.13125,-42.496002,7.056,-81.37601,eccentric,3,5.0,39804.0,49380.0,76768.0,99541.0,35510.0,57743.0,32412.0,56309.0,22937.0,20505.0
2026-05-06 15:47:35.505130,380572,1609504719012869,2318925179,0.833504,-0.49776,0.242048,-9.47625,0.2625,-1.0325,-42.496002,7.056,-81.37601,eccentric,3,5.0,39804.0,49380.0,76768.0,99541.0,35510.0,57743.0,32412.0,56309.0,22937.0,20505.0
2026-05-06 15:47:35.519910,380573,1609504719027362,2318940147,0.845216,-0.450912,0.349408,-12.9325,-1.60125,-1.26,-42.656002,6.584,-81.200005,eccentric,3,5.0,39804.0,49380.0,76768.0,99541.0,35510.0,57743.0,32412.0,56309.0,22937.0,20505.0
2026-05-06 15:47:35.528594,380574,1609504719036266,2318948897,0.845216,-0.450912,0.349408,-8.86375,-3.5,0.2975,-42.656002,6.584,-81.200005,eccentric,3,5.0,39804.0,49380.0,76768.0,99541.0,35510.0,57743.0,32412.0,56309.0,22937.0,20505.0
2026-05-06 15:47:35.542553,380575,1609504719050817,2318961758,0.804224,-0.474336,0.28304,1.12875,-5.66125,0.6475,-42.376003,8.056001,-82.22401,eccentric,3,5.0,39804.0,49380.0,76768.0,99541.0,35510.0,57743.0,32412.0,56309.0,22937.0,20505.0
2026-05-06 15:47:35.551429,380576,1609504719060219,2318972592,0.804224,-0.474336,0.28304,6.965,-6.76375,-1.04125,-42.376003,8.056001,-82.22401,eccentric,3,5.0,39804.0,49380.0,76768.0,99541.0,35510.0,57743.0,32412.0,56309.0,22937.0,20505.0
2026-05-06 15:47:35.588991,380587,1609504719069826,2318981857,0.835456,-0.452864,0.271328,8.35625,-7.0175,-0.46375,-42.248,8.152,-77.096,eccentric,3,5.0,40032.0,49592.0,76828.0,99559.0,35712.0,57876.0,32402.0,56284.0,23027.0,20549.0
2026-05-06 15:47:35.594359,380588,1609504719084530,2318996903,0.85888,-0.411872,0.218624,3.94625,-6.37,1.91625,-42.504,4.928001,-80.192,eccentric,3,5.0,40032.0,49592.0,76828.0,99559.0,35712.0,57876.0,32402.0,56284.0,23027.0,20549.0
2026-05-06 15:47:35.594733,380589,1609504719093475,2319005734,0.85888,-0.411872,0.218624,-8.0675,-7.11375,2.59875,-42.504,4.928001,-80.192,eccentric,3,5.0,40032.0,49592.0,76828.0,99559.0,35712.0,57876.0,32402.0,56284.0,23027.0,20549.0
2026-05-06 15:47:35.602053,380590,1609504719108019,2319020700,0.940864,-0.47824,0.259616,-19.52125,-8.05875,2.2225,-41.984,7.824,-82.90401,eccentric,3,5.0,40032.0,49592.0,76828.0,99559.0,35712.0,57876.0,32402.0,56284.0,23027.0,20549.0
2026-05-06 15:47:35.608811,380591,1609504719116923,2319029443,0.940864,-0.47824,0.259616,-23.7825,-9.59875,1.75875,-41.984,7.824,-82.90401,eccentric,3,5.0,40032.0,49592.0,76828.0,99559.0,35712.0,57876.0,32402.0,56284.0,23027.0,20549.0
2026-05-06 15:47:35.617558,380592,1609504719125840,2319038194,0.968192,-0.56608,0.32208,-23.0825,-11.38375,1.295,-41.760002,7.344,-82.936005,eccentric,3,5.0,40032.0,49592.0,76828.0,99559.0,35712.0,57876.0,32402.0,56284.0,23027.0,20549.0
2026-05-06 15:47:35.633789,380593,1609504719140418,2319053149,0.968192,-0.56608,0.32208,-10.05375,-12.10125,1.3125,-41.760002,7.344,-82.936005,eccentric,3,5.0,40032.0,49592.0,76828.0,99559.0,35712.0,57876.0,32402.0,56284.0,23027.0,20549.0
2026-05-06 15:47:35.658834,380594,1609504719149379,2319061848,1.009184,-0.52704,0.1952,-0.02625,-12.0925,2.17875,-41.816,7.632,-82.888,eccentric,3,5.0,40032.0,49592.0,76828.0,99559.0,35712.0,57876.0,32402.0,56284.0,23027.0,20549.0
2026-05-06 15:47:35.683915,380595,1609504719163882,2319074737,1.026752,-0.413824,0.158112,-2.86125,-11.261251,3.78,-41.608,7.328001,-82.616005,eccentric,3,5.0,40032.0,49592.0,76828.0,99559.0,35712.0,57876.0,32402.0,56284.0,23027.0,20549.0
2026-05-06 15:47:35.760250,380607,1609504719173379,2319085607,1.026752,-0.413824,0.158112,-11.03375,-10.29,4.69,-41.608,7.328001,-82.616005,eccentric,3,5.0,40303.0,49668.0,76043.0,100385.0,35951.0,57985.0,32008.0,56681.0,23139.0,20591.0
2026-05-06 15:47:35.762677,380608,1609504719182349,2319094394,1.026752,-0.51728,0.187392,-15.5575,-11.025,4.17375,-41.608,7.328001,-82.616005,eccentric,3,5.0,40303.0,49668.0,76043.0,100385.0,35951.0,57985.0,32008.0,56681.0,23139.0,20591.0
2026-05-06 15:47:35.765201,380609,1609504719196836,2319109478,0.99552,-0.51728,0.187392,-20.51,-12.495,3.6925,-41.152,7.32,-80.840004,eccentric,3,5.0,40303.0,49668.0,76043.0,100385.0,35951.0,57985.0,32008.0,56681.0,23139.0,20591.0
2026-05-06 15:47:35.767676,380610,1609504719205768,2319118188,1.001376,-0.591456,0.212768,-18.235,-13.09,3.0975,-40.52,7.208,-83.43201,eccentric,3,5.0,40303.0,49668.0,76043.0,100385.0,35951.0,57985.0,32008.0,56681.0,23139.0,20591.0
2026-05-06 15:47:35.770231,380611,1609504719220386,2319131218,1.001376,-0.591456,0.212768,-8.4525,-13.230001,6.51875,-40.52,7.208,-83.43201,eccentric,3,5.0,40303.0,49668.0,76043.0,100385.0,35951.0,57985.0,32008.0,56681.0,23139.0,20591.0
2026-05-06 15:47:35.772698,380612,1609504719229716,2319142018,0.99552,-0.454816,0.181536,-1.44375,-11.795,10.99875,-40.384003,6.352,-83.872,eccentric,3,5.0,40303.0,49668.0,76043.0,100385.0,35951.0,57985.0,32008.0,56681.0,23139.0,20591.0
2026-05-06 15:47:35.782379,380613,1609504719244232,2319156943,0.944768,-0.384544,0.074176,1.19,-10.1325,12.3725,-40.368,6.832,-84.832,eccentric,3,5.0,40303.0,49668.0,76043.0,100385.0,35951.0,57985.0,32008.0,56681.0,23139.0,20591.0
2026-05-06 15:47:35.782951,380614,1609504719253199,2319165694,0.944768,-0.384544,0.074176,1.44375,-7.35,9.8175,-40.368,6.832,-84.832,eccentric,3,5.0,40303.0,49668.0,76043.0,100385.0,35951.0,57985.0,32008.0,56681.0,23139.0,20591.0
2026-05-06 15:47:35.783626,380615,1609504719262259,2319174459,0.944768,-0.384544,0.074176,4.20875,-5.41625,2.02125,-40.368,6.832,-84.832,eccentric,3,5.0,40303.0,49668.0,76043.0,100385.0,35951.0,57985.0,32008.0,56681.0,23139.0,20591.0
2026-05-06 15:47:35.815219,380626,1609504719277001,2319189622,0.903776,-0.4392,0.154208,-1.42625,-6.83375,-3.22,-40.24,5.992,-83.648,eccentric,3,5.0,40721.0,50017.0,75920.0,101237.0,36317.0,58337.0,31924.0,57156.0,23313.0,20742.0
2026-05-06 15:47:35.817674,380627,1609504719285939,2319198345,0.870592,-0.443104,0.244,-5.8275,-6.265,0.455,-40.016003,6.376,-84.024,eccentric,3,5.0,40721.0,50017.0,75920.0,101237.0,36317.0,58337.0,31924.0,57156.0,23313.0,20742.0
2026-05-06 15:47:35.820202,380628,1609504719300761,2319213464,0.870592,-0.443104,0.244,-4.69875,-5.565,5.50375,-40.016003,6.376,-84.024,eccentric,3,5.0,40721.0,50017.0,75920.0,101237.0,36317.0,58337.0,31924.0,57156.0,23313.0,20742.0
2026-05-06 15:47:35.822640,380629,1609504719309700,2319222242,0.845216,-0.41968,0.179584,0.14,-3.5,-0.49,-39.528004,4.248,-82.888,eccentric,3,5.0,40721.0,50017.0,75920.0,101237.0,36317.0,58337.0,31924.0,57156.0,23313.0,20742.0
2026-05-06 15:47:35.825119,380630,1609504719318682,2319230985,0.845216,-0.41968,0.179584,2.8525,-3.35125,-6.79875,-39.528004,4.248,-82.888,eccentric,3,5.0,40721.0,50017.0,75920.0,101237.0,36317.0,58337.0,31924.0,57156.0,23313.0,20742.0
2026-05-06 15:47:35.827714,380631,1609504719333204,2319245890,0.894016,-0.339648,0.105408,1.72375,-1.1025,-7.21,-39.832,3.672,-82.464005,eccentric,3,5.0,40721.0,50017.0,75920.0,101237.0,36317.0,58337.0,31924.0,57156.0,23313.0,20742.0
2026-05-06 15:47:35.835210,380632,1609504719342210,2319254637,0.894016,-0.339648,0.105408,-3.35125,-0.49,-6.93,-39.832,3.672,-82.464005,eccentric,3,5.0,40721.0,50017.0,75920.0,101237.0,36317.0,58337.0,31924.0,57156.0,23313.0,20742.0
2026-05-06 15:47:35.847694,380633,1609504719356683,2319267633,0.845216,-0.333792,0.20496,-11.31375,-0.035,-11.3225,-39.72,3.512,-81.22401,eccentric,3,5.0,40721.0,50017.0,75920.0,101237.0,36317.0,58337.0,31924.0,57156.0,23313.0,20742.0
2026-05-06 15:47:35.858990,380634,1609504719366102,2319278400,0.778848,-0.431392,0.216672,-17.4825,0.41125,-20.53625,-39.864002,2.624,-83.144005,eccentric,3,5.0,40721.0,50017.0,75920.0,101237.0,36317.0,58337.0,31924.0,57156.0,23313.0,20742.0
2026-05-06 15:47:35.901301,380645,1609504719375211,2319287179,0.778848,-0.431392,0.216672,-23.1875,-1.49625,-22.855,-39.864002,2.624,-83.144005,eccentric,3,5.0,40668.0,49644.0,75946.0,101287.0,36250.0,57890.0,31939.0,57194.0,23228.0,20525.0
2026-05-06 15:47:35.903761,380646,1609504719389826,2319302108,0.792512,-0.404064,0.1952,-26.4425,-0.525,-18.9525,-39.504,3.872,-84.22401,eccentric,3,5.0,40668.0,49644.0,75946.0,101287.0,36250.0,57890.0,31939.0,57194.0,23228.0,20525.0
2026-05-06 15:47:35.906338,380647,1609504719398801,2319310822,0.792512,-0.404064,0.1952,-22.6625,-2.05625,-22.9075,-39.504,3.872,-84.22401,eccentric,3,5.0,40668.0,49644.0,75946.0,101287.0,36250.0,57890.0,31939.0,57194.0,23228.0,20525.0
2026-05-06 15:47:35.908874,380648,1609504719413352,2319325795,0.860832,-0.353312,0.132736,-15.89,-1.96,-26.53875,-39.448,3.032,-84.04,eccentric,3,5.0,40668.0,49644.0,75946.0,101287.0,36250.0,57890.0,31939.0,57194.0,23228.0,20525.0
2026-05-06 15:47:35.915144,380649,1609504719422317,2319334536,0.860832,-0.353312,0.132736,-2.8875,-1.7325,-31.57875,-39.448,3.032,-84.04,eccentric,3,5.0,40668.0,49644.0,75946.0,101287.0,36250.0,57890.0,31939.0,57194.0,23228.0,20525.0
2026-05-06 15:47:35.931238,380650,1609504719436835,2319349553,0.84912,-0.382592,0.183488,-4.305,-2.75625,-35.97125,-40.04,2.28,-82.58401,eccentric,3,5.0,40668.0,49644.0,75946.0,101287.0,36250.0,57890.0,31939.0,57194.0,23228.0,20525.0
2026-05-06 15:47:35.937453,380651,1609504719445750,2319358247,0.782752,-0.378688,0.23424,-12.60875,-2.70375,-37.1,-39.328003,1.376,-82.608,eccentric,3,5.0,40668.0,49644.0,75946.0,101287.0,36250.0,57890.0,31939.0,57194.0,23228.0,20525.0
2026-05-06 15:47:35.945096,380652,1609504719454698,2319366953,0.782752,-0.378688,0.23424,-16.02125,-3.07125,-39.29625,-39.328003,1.376,-82.608,eccentric,3,5.0,40668.0,49644.0,75946.0,101287.0,36250.0,57890.0,31939.0,57194.0,23228.0,20525.0
2026-05-06 15:47:36.100082,380663,1609504719469176,2319382096,0.796416,-0.339648,0.201056,-12.32,-3.8675,-39.26125,-39.88,0.928,-84.37601,eccentric,3,5.0,40816.0,49648.0,75992.0,101387.0,36325.0,57861.0,31962.0,57279.0,23261.0,20517.0
2026-05-06 15:47:36.102540,380664,1609504719478230,2319390904,0.796416,-0.339648,0.201056,-6.08125,-4.2,-39.83,-39.88,0.928,-84.37601,eccentric,3,5.0,40816.0,49648.0,75992.0,101387.0,36325.0,57861.0,31962.0,57279.0,23261.0,20517.0
2026-05-06 15:47:36.105000,380665,1609504719492808,2319403728,0.847168,-0.345504,0.20496,-4.8475,-4.15625,-46.235,-39.744003,-0.472,-84.672005,eccentric,3,5.0,40816.0,49648.0,75992.0,101387.0,36325.0,57861.0,31962.0,57279.0,23261.0,20517.0
2026-05-06 15:47:36.107636,380666,1609504719502382,2319414682,0.847168,-0.345504,0.20496,-5.22375,-2.59,-52.40375,-39.744003,-0.472,-84.672005,eccentric,3,5.0,40816.0,49648.0,75992.0,101387.0,36325.0,57861.0,31962.0,57279.0,23261.0,20517.0
2026-05-06 15:47:36.110140,380667,1609504719511396,2319423439,0.851072,-0.310368,0.208864,-0.175,-0.23625,-54.64375,-39.984,-2.48,-83.288,eccentric,3,5.0,40816.0,49648.0,75992.0,101387.0,36325.0,57861.0,31962.0,57279.0,23261.0,20517.0
2026-05-06 15:47:36.112744,380668,1609504719525874,2319438387,0.815936,-0.343552,0.244,0.23625,1.12875,-55.2825,-40.168003,-1.544,-83.08,eccentric,3,5.0,40816.0,49648.0,75992.0,101387.0,36325.0,57861.0,31962.0,57279.0,23261.0,20517.0
2026-05-06 15:47:36.115413,380669,1609504719534807,2319447085,0.815936,-0.343552,0.244,0.84875,2.7475,-55.95625,-40.168003,-1.544,-83.08,eccentric,3,5.0,40816.0,49648.0,75992.0,101387.0,36325.0,57861.0,31962.0,57279.0,23261.0,20517.0
2026-05-06 15:47:36.117714,380670,1609504719549315,2319462050,0.749568,-0.363072,0.257664,-8.91625,2.80875,-61.34625,-40.120003,-2.624,-84.456,eccentric,3,5.0,40816.0,49648.0,75992.0,101387.0,36325.0,57861.0,31962.0,57279.0,23261.0,20517.0
2026-05-06 15:47:36.120234,380671,1609504719558233,2319470771,0.749568,-0.363072,0.257664,-15.855001,3.64,-66.5,-40.120003,-2.624,-84.456,eccentric,3,5.0,40816.0,49648.0,75992.0,101387.0,36325.0,57861.0,31962.0,57279.0,23261.0,20517.0
2026-05-06 15:47:36.126436,380672,1609504719567299,2319479604,0.813984,-0.249856,0.242048,-10.99875,1.35625,-69.85125,-40.072002,-4.696,-84.00001,eccentric,3,5.0,40816.0,49648.0,75992.0,101387.0,36325.0,57861.0,31962.0,57279.0,23261.0,20517.0
2026-05-06 15:47:36.158996,380683,1609504719581876,2319494571,0.813984,-0.249856,0.242048,-0.595,3.54375,-72.4325,-40.072002,-4.696,-84.00001,eccentric,3,5.0,40072.0,48947.0,75568.0,100945.0,35695.0,57135.0,31777.0,57064.0,22923.0,20154.0
2026-05-06 15:47:36.161497,380684,1609504719590810,2319503274,0.83936,-0.076128,0.167872,23.26625,3.08875,-66.63125,-40.248,-5.0,-84.096,eccentric,3,5.0,40072.0,48947.0,75568.0,100945.0,35695.0,57135.0,31777.0,57064.0,22923.0,20154.0
2026-05-06 15:47:36.163871,380685,1609504719605333,2319516153,0.83936,-0.076128,0.122976,32.62,2.80875,-62.79875,-40.248,-5.0,-84.096,eccentric,3,5.0,40072.0,48947.0,75568.0,100945.0,35695.0,57135.0,31777.0,57064.0,22923.0,20154.0
2026-05-06 15:47:36.171154,380686,1609504719614628,2319526974,0.759328,-0.187392,0.122976,20.51,1.8725,-69.69375,-40.4,-5.952,-84.048004,eccentric,3,5.0,40072.0,48947.0,75568.0,100945.0,35695.0,57135.0,31777.0,57064.0,22923.0,20154.0
2026-05-06 15:47:36.172502,380687,1609504719629179,2319539993,0.792512,-0.359168,0.290848,4.83,2.16125,-77.86625,-40.36,-7.304,-84.20801,eccentric,3,5.0,40072.0,48947.0,75568.0,100945.0,35695.0,57135.0,31777.0,57064.0,22923.0,20154.0
2026-05-06 15:47:36.176104,380688,1609504719638508,2319550865,0.792512,-0.359168,0.290848,-5.95875,0.0175,-80.31625,-40.36,-7.304,-84.20801,eccentric,3,5.0,40072.0,48947.0,75568.0,100945.0,35695.0,57135.0,31777.0,57064.0,22923.0,20154.0
2026-05-06 15:47:36.178441,380689,1609504719647534,2319559707,0.76128,-0.26352,0.363072,-7.81375,0.0175,-81.55,-40.376003,-10.0,-85.144005,eccentric,3,5.0,40072.0,48947.0,75568.0,100945.0,35695.0,57135.0,31777.0,57064.0,22923.0,20154.0
2026-05-06 15:47:36.180595,380690,1609504719662169,2319574670,0.76128,-0.26352,0.363072,11.20875,-0.5075,-81.375,-40.376003,-10.0,-85.144005,eccentric,3,5.0,40072.0,48947.0,75568.0,100945.0,35695.0,57135.0,31777.0,57064.0,22923.0,20154.0
2026-05-06 15:47:36.207471,380701,1609504719671242,2319583421,0.669536,-0.027328,0.271328,40.670002,-1.505,-79.86125,-40.088,-10.672001,-82.712006,eccentric,3,5.0,39447.0,48160.0,75395.0,99781.0,35172.0,56290.0,31755.0,56477.0,22646.0,19752.0
2026-05-06 15:47:36.209871,380702,1609504719685772,2319598389,0.669536,-0.027328,0.271328,67.57625,-5.78375,-79.38875,-40.088,-10.672001,-82.712006,eccentric,3,5.0,39447.0,48160.0,75395.0,99781.0,35172.0,56290.0,31755.0,56477.0,22646.0,19752.0
2026-05-06 15:47:36.212419,380703,1609504719694811,2319607128,0.749568,-0.134688,0.167872,67.83875,-6.685,-82.81,-39.984,-11.120001,-83.352005,eccentric,3,5.0,39447.0,48160.0,75395.0,99781.0,35172.0,56290.0,31755.0,56477.0,22646.0,19752.0
2026-05-06 15:47:36.214878,380704,1609504719703848,2319616198,0.749568,-0.134688,0.167872,48.5275,-3.1325,-85.8025,-39.984,-11.120001,-83.352005,eccentric,3,5.0,39447.0,48160.0,75395.0,99781.0,35172.0,56290.0,31755.0,56477.0,22646.0,19752.0
2026-05-06 15:47:36.217330,380705,1609504719718358,2319629147,0.706624,-0.037088,0.226432,39.3225,0.42,-83.25625,-40.024002,-11.744,-82.552,eccentric,3,5.0,39447.0,48160.0,75395.0,99781.0,35172.0,56290.0,31755.0,56477.0,22646.0,19752.0
2026-05-06 15:47:36.220113,380706,1609504719727647,2319639943,0.554368,0.085888,0.13664,30.79125,3.99,-79.82625,-40.4,-14.256001,-80.568,eccentric,3,5.0,39447.0,48160.0,75395.0,99781.0,35172.0,56290.0,31755.0,56477.0,22646.0,19752.0
2026-05-06 15:47:36.233970,380707,1609504719742248,2319654952,0.554368,0.085888,0.13664,26.45125,4.7425,-78.058754,-40.4,-14.256001,-80.568,eccentric,3,5.0,39447.0,48160.0,75395.0,99781.0,35172.0,56290.0,31755.0,56477.0,22646.0,19752.0
2026-05-06 15:47:36.242703,380708,1609504719751199,2319663659,0.704672,-0.07808,0.06832,23.905,4.6725,-79.17875,-39.608,-13.032001,-83.536,eccentric,3,5.0,39447.0,48160.0,75395.0,99781.0,35172.0,56290.0,31755.0,56477.0,22646.0,19752.0
2026-05-06 15:47:36.251462,380709,1609504719760225,2319672393,0.704672,-0.07808,0.06832,19.01375,5.1975,-80.902504,-39.608,-13.032001,-83.536,eccentric,3,5.0,39447.0,48160.0,75395.0,99781.0,35172.0,56290.0,31755.0,56477.0,22646.0,19752.0
2026-05-06 15:47:36.293965,380720,1609504719775199,2319687350,0.774944,-0.128832,0.21472,7.77,6.5975,-83.37,-39.784,-13.096001,-83.632,eccentric,3,5.0,39647.0,48698.0,75342.0,100107.0,35365.0,56707.0,31774.0,56538.0,22671.0,19834.0
2026-05-06 15:47:36.296351,380721,1609504719784220,2319696210,0.774944,-0.128832,0.21472,7.035,10.4825,-84.98,-39.784,-13.096001,-83.632,eccentric,3,5.0,39647.0,48698.0,75342.0,100107.0,35365.0,56707.0,31774.0,56538.0,22671.0,19834.0
2026-05-06 15:47:36.299047,380722,1609504719798737,2319711206,0.622688,0.033184,0.30256,14.35875,10.43875,-81.15625,-40.04,-14.568001,-83.304,eccentric,3,5.0,39647.0,48698.0,75342.0,100107.0,35365.0,56707.0,31774.0,56538.0,22671.0,19834.0
2026-05-06 15:47:36.301456,380723,1609504719807686,2319719938,0.687104,0.07808,0.13664,15.02375,8.925,-77.25375,-39.784,-15.704,-81.728004,eccentric,3,5.0,39647.0,48698.0,75342.0,100107.0,35365.0,56707.0,31774.0,56538.0,22671.0,19834.0
2026-05-06 15:47:36.307716,380724,1609504719816630,2319728746,0.687104,0.07808,0.13664,11.5325,5.87125,-74.17375,-39.784,-15.704,-81.728004,eccentric,3,5.0,39647.0,48698.0,75342.0,100107.0,35365.0,56707.0,31774.0,56538.0,22671.0,19834.0
2026-05-06 15:47:36.327720,380725,1609504719831162,2319743630,0.784704,0.007808,0.111264,13.3175,4.7075,-70.4375,-39.656002,-17.76,-82.96001,eccentric,3,5.0,39647.0,48698.0,75342.0,100107.0,35365.0,56707.0,31774.0,56538.0,22671.0,19834.0
2026-05-06 15:47:36.330212,380726,1609504719840272,2319752378,0.784704,0.007808,0.111264,17.22875,2.24,-68.81,-39.656002,-17.76,-82.96001,eccentric,3,5.0,39647.0,48698.0,75342.0,100107.0,35365.0,56707.0,31774.0,56538.0,22671.0,19834.0
2026-05-06 15:47:36.364600,380727,1609504719854758,2319767311,0.749568,-0.08784,0.240096,15.30375,0.27125,-68.145,-39.376003,-16.896,-85.568,eccentric,3,5.0,39647.0,48698.0,75342.0,100107.0,35365.0,56707.0,31774.0,56538.0,22671.0,19834.0
2026-05-06 15:47:36.370027,380728,1609504719863650,2319776005,0.749568,-0.08784,0.240096,13.5975,0.07875,-63.06125,-39.376003,-16.896,-85.568,eccentric,3,5.0,39647.0,48698.0,75342.0,100107.0,35365.0,56707.0,31774.0,56538.0,22671.0,19834.0
2026-05-06 15:47:36.438952,380739,1609504719878461,2319791004,0.648064,0.091744,0.27328,9.26625,-1.25125,-57.2425,-39.336002,-16.880001,-83.560005,eccentric,3,5.0,40133.0,49353.0,75650.0,100947.0,35743.0,57390.0,31994.0,56960.0,22849.0,20106.0
2026-05-06 15:47:36.441478,380740,1609504719887444,2319799728,0.648064,0.091744,0.163968,12.9325,-2.3625,-52.5525,-39.336002,-16.880001,-83.560005,eccentric,3,5.0,40133.0,49353.0,75650.0,100947.0,35743.0,57390.0,31994.0,56960.0,22849.0,20106.0
2026-05-06 15:47:36.443950,380741,1609504719896388,2319808424,0.735904,0.105408,0.169824,18.3225,-4.445,-49.0,-39.136,-17.52,-83.896,eccentric,3,5.0,40133.0,49353.0,75650.0,100947.0,35743.0,57390.0,31994.0,56960.0,22849.0,20106.0
2026-05-06 15:47:36.449982,380742,1609504719910998,2319823384,0.767136,-0.027328,0.13664,16.38,-5.17125,-47.8625,-39.160004,-18.528002,-83.48801,eccentric,3,5.0,40133.0,49353.0,75650.0,100947.0,35743.0,57390.0,31994.0,56960.0,22849.0,20106.0
2026-05-06 15:47:36.450390,380743,1609504719920127,2319832149,0.767136,-0.027328,0.13664,17.3775,-4.76,-43.72375,-39.160004,-18.528002,-83.48801,eccentric,3,5.0,40133.0,49353.0,75650.0,100947.0,35743.0,57390.0,31994.0,56960.0,22849.0,20106.0
2026-05-06 15:47:36.451231,380744,1609504719934654,2319847065,0.802272,-0.025376,0.158112,18.50625,-5.62625,-37.905,-38.976,-18.496,-83.496,eccentric,3,5.0,40133.0,49353.0,75650.0,100947.0,35743.0,57390.0,31994.0,56960.0,22849.0,20106.0
2026-05-06 15:47:36.459560,380745,1609504719943692,2319855828,0.802272,-0.025376,0.158112,17.29875,-6.76375,-29.81125,-38.976,-18.496,-83.496,eccentric,3,5.0,40133.0,49353.0,75650.0,100947.0,35743.0,57390.0,31994.0,56960.0,22849.0,20106.0
2026-05-06 15:47:36.459699,380746,1609504719952663,2319864578,0.77104,0.076128,0.27328,11.165,-6.55375,-21.11375,-39.008003,-21.224,-82.704,eccentric,3,5.0,40133.0,49353.0,75650.0,100947.0,35743.0,57390.0,31994.0,56960.0,22849.0,20106.0
2026-05-06 15:47:36.463217,380747,1609504719967209,2319879537,0.77104,0.076128,0.27328,10.01875,-6.685,-17.9725,-39.008003,-21.224,-82.704,eccentric,3,5.0,40133.0,49353.0,75650.0,100947.0,35743.0,57390.0,31994.0,56960.0,22849.0,20106.0
2026-05-06 15:47:36.492348,380758,1609504719976455,2319888349,0.808128,0.101504,0.163968,14.385,-7.74375,-15.75875,-38.408,-20.392,-82.184006,eccentric,3,5.0,40064.0,49276.0,75822.0,101101.0,35800.0,57382.0,32094.0,57060.0,22899.0,20108.0
2026-05-06 15:47:36.494871,380759,1609504719991021,2319903331,0.854976,0.056608,0.169824,14.14,-8.2075,-12.6875,-38.512,-19.984001,-83.05601,eccentric,3,5.0,40064.0,49276.0,75822.0,101101.0,35800.0,57382.0,32094.0,57060.0,22899.0,20108.0
