pc_time,serial_num,sensor_ts,host_ts,ax,ay,az,gx,gy,gz,mx,my,mz,phase,rpe,weight_kg,ppg_a,ppg_b,ppg_c,ppg_d,ppg_e
2026-04-14 17:20:16.428669,223288,1609504710137012,2310107052,-1.18096,-0.148352,-0.103456,20.60625,22.7675,-58.05625,18.928001,29.480001,13.824,eccentric,4,3.0,115442.0,292935.0,191227.0,283755.0,205241.0
2026-04-14 17:20:16.431087,223289,1609504710151530,2310119896,-1.159488,-0.179584,-0.183488,25.94375,22.88125,-56.638752,17.944,29.648,14.880001,eccentric,4,3.0,115442.0,292935.0,191227.0,283755.0,205241.0
2026-04-14 17:20:16.433499,223290,1609504710160803,2310130726,-1.159488,-0.179584,-0.183488,21.98,27.23875,-55.27375,17.944,29.648,14.880001,eccentric,4,3.0,115442.0,292935.0,191227.0,283755.0,205241.0
2026-04-14 17:20:16.442305,223291,1609504710169749,2310139431,-1.1712,-0.138592,0.007808,15.88125,31.3075,-54.775,17.584002,30.000002,14.584001,eccentric,4,3.0,115442.0,292935.0,191227.0,283755.0,205241.0
2026-04-14 17:20:16.458760,223292,1609504710184244,2310154305,-1.1712,-0.138592,0.007808,16.31,34.107502,-53.92625,17.584002,30.000002,14.584001,eccentric,4,3.0,115442.0,292935.0,191227.0,283755.0,205241.0
2026-04-14 17:20:16.466162,223293,1609504710193194,2310162989,-1.163392,-0.257664,-0.216672,12.29375,34.92125,-54.5475,17.592001,29.472002,12.888001,eccentric,4,3.0,115442.0,292935.0,191227.0,283755.0,205241.0
2026-04-14 17:20:16.480062,223294,1609504710207748,2310177924,-1.130208,-0.247904,-0.130784,12.6,33.1275,-50.82875,17.272001,29.624,15.264001,eccentric,4,3.0,115442.0,292935.0,191227.0,283755.0,205241.0
2026-04-14 17:20:16.490121,223295,1609504710216649,2310186582,-1.130208,-0.247904,-0.130784,18.445,31.35125,-47.1975,17.272001,29.624,15.264001,eccentric,4,3.0,115442.0,292935.0,191227.0,283755.0,205241.0
2026-04-14 17:20:16.598870,223306,1609504710231176,2310201482,-1.065792,-0.142496,-0.070272,21.1925,29.26875,-46.7425,17.240002,29.472002,12.712001,eccentric,4,3.0,121219.0,298509.0,197163.0,286145.0,211175.0
2026-04-14 17:20:16.601482,223307,1609504710240473,2310210285,-1.065792,-0.142496,-0.070272,23.8,27.78125,-44.77375,17.240002,29.472002,12.712001,eccentric,4,3.0,121219.0,298509.0,197163.0,286145.0,211175.0
2026-04-14 17:20:16.603955,223308,1609504710249393,2310218955,-1.030656,-0.130784,-0.115168,15.785,27.65,-48.29125,16.768002,29.856,12.728001,eccentric,4,3.0,121219.0,298509.0,197163.0,286145.0,211175.0
2026-04-14 17:20:16.606491,223309,1609504710263965,2310233830,-1.030656,-0.130784,-0.115168,7.86625,28.56875,-49.02625,16.768002,29.856,12.728001,eccentric,4,3.0,121219.0,298509.0,197163.0,286145.0,211175.0
2026-04-14 17:20:16.608914,223310,1609504710272960,2310242509,-1.095072,-0.324032,-0.121024,2.14375,33.43375,-50.16375,16.504002,29.792002,12.080001,eccentric,4,3.0,121219.0,298509.0,197163.0,286145.0,211175.0
2026-04-14 17:20:16.611508,223311,1609504710287534,2310257364,-1.067744,-0.300608,-0.333792,-4.06875,37.26625,-49.34125,16.032001,29.904001,11.52,eccentric,4,3.0,121219.0,298509.0,197163.0,286145.0,211175.0
2026-04-14 17:20:16.613964,223312,1609504710296434,2310266072,-1.067744,-0.300608,-0.333792,2.0475,38.0275,-43.65375,16.032001,29.904001,11.52,eccentric,4,3.0,121219.0,298509.0,197163.0,286145.0,211175.0
2026-04-14 17:20:16.616368,223313,1609504710310968,2310280994,-1.09312,-0.11712,-0.210816,13.09,33.5125,-40.81,15.472001,29.928001,12.224001,eccentric,4,3.0,121219.0,298509.0,197163.0,286145.0,211175.0
2026-04-14 17:20:16.618917,223314,1609504710320018,2310289720,-1.09312,-0.11712,-0.210816,14.02625,27.51,-40.013752,15.472001,29.928001,12.224001,eccentric,4,3.0,121219.0,298509.0,197163.0,286145.0,211175.0
2026-04-14 17:20:16.621456,223315,1609504710328930,2310298405,-0.899872,-0.218624,0.037088,11.54125,24.45625,-41.545002,15.344001,29.856,11.76,eccentric,4,3.0,121219.0,298509.0,197163.0,286145.0,211175.0
2026-04-14 17:20:16.648760,223326,1609504710343493,2310313370,-0.899872,-0.218624,0.037088,3.08,25.5325,-46.235,15.344001,29.856,11.76,eccentric,4,3.0,120736.0,300635.0,194599.0,283575.0,209064.0
2026-04-14 17:20:16.651327,223327,1609504710352563,2310322147,-1.020896,-0.32208,-0.144448,-3.43875,31.7975,-46.1125,14.848001,30.112001,12.304001,eccentric,4,3.0,120736.0,300635.0,194599.0,283575.0,209064.0
2026-04-14 17:20:16.653788,223328,1609504710367094,2310337038,-1.020896,-0.335744,-0.335744,-2.8525,38.54375,-42.21875,14.848001,30.112001,12.304001,eccentric,4,3.0,120736.0,300635.0,194599.0,283575.0,209064.0
2026-04-14 17:20:16.656300,223329,1609504710376022,2310345712,-1.016992,-0.335744,-0.335744,-1.3125,39.45375,-38.2375,14.224001,30.44,13.456,eccentric,4,3.0,120736.0,300635.0,194599.0,283575.0,209064.0
2026-04-14 17:20:16.659073,223330,1609504710384992,2310354426,-1.016992,-0.335744,-0.335744,1.33,34.81625,-35.455,14.224001,30.44,13.456,eccentric,4,3.0,120736.0,300635.0,194599.0,283575.0,209064.0
2026-04-14 17:20:16.674190,223331,1609504710399460,2310369292,-0.952576,-0.124928,-0.242048,4.78625,28.315,-37.91375,13.296001,30.848001,12.648001,eccentric,4,3.0,120736.0,300635.0,194599.0,283575.0,209064.0
2026-04-14 17:20:16.681760,223332,1609504710408382,2310377988,-0.724192,-0.35136,0.02928,3.40375,24.045,-42.00875,12.912001,30.664001,10.488001,eccentric,4,3.0,120736.0,300635.0,194599.0,283575.0,209064.0
2026-04-14 17:20:16.699278,223333,1609504710422845,2310392865,-0.724192,-0.35136,0.02928,-8.4,25.655,-50.49625,12.912001,30.664001,10.488001,eccentric,4,3.0,120736.0,300635.0,194599.0,283575.0,209064.0
2026-04-14 17:20:16.760365,223344,1609504710431764,2310401509,-0.853024,-0.402112,-0.187392,-11.92625,30.135,-49.638752,13.256001,30.320002,11.328,eccentric,4,3.0,110709.0,299730.0,179038.0,281148.0,194375.0
2026-04-14 17:20:16.762754,223345,1609504710446333,2310416444,-0.853024,-0.402112,-0.187392,-5.5825,37.905,-47.22375,13.256001,30.320002,11.328,eccentric,4,3.0,110709.0,299730.0,179038.0,281148.0,194375.0
2026-04-14 17:20:16.765472,223346,1609504710455233,2310425105,-0.84912,-0.35136,-0.232288,-1.26,40.66125,-39.69875,13.112,30.720001,11.232,eccentric,4,3.0,110709.0,299730.0,179038.0,281148.0,194375.0
2026-04-14 17:20:16.767422,223347,1609504710464157,2310433784,-0.84912,-0.35136,-0.232288,-4.5675,40.48625,-40.85375,13.112,30.720001,11.232,eccentric,4,3.0,110709.0,299730.0,179038.0,281148.0,194375.0
2026-04-14 17:20:16.770468,223348,1609504710478734,2310448685,-0.77104,-0.226432,-0.240096,-7.16625,33.5475,-39.96125,12.576,30.936,10.752001,eccentric,4,3.0,110709.0,299730.0,179038.0,281148.0,194375.0
2026-04-14 17:20:16.773054,223349,1609504710487656,2310457412,-0.77104,-0.366976,-0.210816,-0.44625,27.93875,-42.5775,12.576,30.936,10.752001,eccentric,4,3.0,110709.0,299730.0,179038.0,281148.0,194375.0
2026-04-14 17:20:16.775495,223350,1609504710502142,2310472379,-0.759328,-0.368928,-0.210816,-3.4825,21.42,-47.36375,12.128,31.072002,10.392,eccentric,4,3.0,110709.0,299730.0,179038.0,281148.0,194375.0
2026-04-14 17:20:16.785154,223351,1609504710511036,2310481094,-0.724192,-0.28304,-0.089792,0.34125,19.52125,-43.09375,12.168,31.216002,10.792001,eccentric,4,3.0,110709.0,299730.0,179038.0,281148.0,194375.0
2026-04-14 17:20:16.797690,223352,1609504710525530,2310493921,-0.724192,-0.28304,-0.089792,3.29875,22.07625,-41.43125,12.168,31.216002,10.792001,eccentric,4,3.0,110709.0,299730.0,179038.0,281148.0,194375.0
2026-04-14 17:20:16.830180,223363,1609504710535090,2310504888,-0.632448,-0.489952,-0.378688,-3.91125,27.825,-41.3525,11.808001,31.272001,10.52,eccentric,4,3.0,102240.0,299950.0,167418.0,280322.0,182589.0
2026-04-14 17:20:16.834338,223364,1609504710544188,2310513622,-0.632448,-0.489952,-0.378688,-13.125,29.1375,-37.3625,11.808001,31.272001,10.52,eccentric,4,3.0,102240.0,299950.0,167418.0,280322.0,182589.0
2026-04-14 17:20:16.834879,223365,1609504710558760,2310528509,-0.698816,-0.261568,-0.30256,-5.5475,24.38625,-34.4925,11.584001,31.256002,11.032001,eccentric,4,3.0,102240.0,299950.0,167418.0,280322.0,182589.0
2026-04-14 17:20:16.845336,223366,1609504710567746,2310537172,-0.698816,-0.261568,-0.30256,5.64375,17.12375,-33.10125,11.584001,31.256002,11.032001,eccentric,4,3.0,102240.0,299950.0,167418.0,280322.0,182589.0
2026-04-14 17:20:16.855019,223367,1609504710582244,2310552147,-0.609024,-0.324032,-0.130784,3.56125,14.42,-37.24875,10.632001,31.672,10.672001,eccentric,4,3.0,102240.0,299950.0,167418.0,280322.0,182589.0
2026-04-14 17:20:16.865064,223368,1609504710591221,2310560861,-0.59536,-0.3416,-0.122976,-0.48125,13.7725,-34.895,10.288,31.960001,11.872001,eccentric,4,3.0,102240.0,299950.0,167418.0,280322.0,182589.0
2026-04-14 17:20:16.895156,223369,1609504710600139,2310569550,-0.59536,-0.3416,-0.122976,-5.005,16.96625,-32.3225,10.288,31.960001,11.872001,eccentric,4,3.0,102240.0,299950.0,167418.0,280322.0,182589.0
2026-04-14 17:20:16.920151,223370,1609504710614607,2310584420,-0.603168,-0.443104,-0.40016,-9.03,17.57,-31.7625,9.952001,31.920002,11.472,eccentric,4,3.0,102240.0,299950.0,167418.0,280322.0,182589.0
2026-04-14 17:20:16.945049,223371,1609504710623563,2310593125,-0.603168,-0.443104,-0.40016,-12.6875,14.7175,-31.00125,9.952001,31.920002,11.472,eccentric,4,3.0,102240.0,299950.0,167418.0,280322.0,182589.0
2026-04-14 17:20:16.972555,223382,1609504710638233,2310608477,-0.480192,-0.304512,-0.0976,-5.145,8.7675,-26.78375,9.528001,31.808,11.432,eccentric,4,3.0,95629.0,303751.0,158862.0,283936.0,175237.0
2026-04-14 17:20:16.975077,223383,1609504710647138,2310617179,-0.480192,-0.304512,-0.0976,5.03125,2.45,-23.28375,9.528001,31.808,11.432,eccentric,4,3.0,95629.0,303751.0,158862.0,283936.0,175237.0
2026-04-14 17:20:16.977606,223384,1609504710661593,2310629999,-0.509472,-0.325984,0.001952,4.33125,-1.21625,-20.37875,10.064,32.008003,12.56,eccentric,4,3.0,95629.0,303751.0,158862.0,283936.0,175237.0
2026-04-14 17:20:16.979997,223385,1609504710670868,2310640784,-0.589504,-0.286944,-0.08784,1.8375,-2.87875,-18.8825,8.544001,32.384003,12.464001,eccentric,4,3.0,95629.0,303751.0,158862.0,283936.0,175237.0
2026-04-14 17:20:16.982605,223386,1609504710679886,2310649457,-0.589504,-0.286944,-0.08784,-2.79125,-3.50875,-16.59875,8.544001,32.384003,12.464001,eccentric,4,3.0,95629.0,303751.0,158862.0,283936.0,175237.0
2026-04-14 17:20:16.984885,223387,1609504710694474,2310664398,-0.577792,-0.386496,-0.314272,-4.7775,-5.01375,-15.05,8.320001,32.280003,11.712001,eccentric,4,3.0,95629.0,303751.0,158862.0,283936.0,175237.0
2026-04-14 17:20:16.987606,223388,1609504710703476,2310673094,-0.577792,-0.386496,-0.314272,-3.50875,-6.57125,-12.62625,8.320001,32.280003,11.712001,eccentric,4,3.0,95629.0,303751.0,158862.0,283936.0,175237.0
2026-04-14 17:20:16.991413,223389,1609504710717981,2310687977,-0.603168,-0.2928,-0.206912,-3.35125,-9.1525,-7.13125,9.400001,31.904001,11.496,eccentric,4,3.0,95629.0,303751.0,158862.0,283936.0,175237.0
2026-04-14 17:20:17.002413,223390,1609504710726896,2310696642,-0.603168,-0.2928,-0.206912,4.06,-11.89125,-1.67125,9.400001,31.904001,11.496,eccentric,4,3.0,95629.0,303751.0,158862.0,283936.0,175237.0
2026-04-14 17:20:17.036024,223401,1609504710736258,2310705394,-0.632448,-0.365024,-0.21472,3.98125,-15.8725,1.39125,9.904,31.672,10.688001,eccentric,4,3.0,98184.0,303080.0,162343.0,283637.0,179473.0
2026-04-14 17:20:17.036489,223402,1609504710750823,2310720322,-0.691008,-0.347456,-0.15616,1.435,-19.6175,6.69375,10.088,31.912,11.320001,eccentric,4,3.0,98184.0,303080.0,162343.0,283637.0,179473.0
2026-04-14 17:20:17.038682,223403,1609504710759721,2310728992,-0.691008,-0.347456,-0.15616,0.385,-19.52125,12.24125,10.088,31.912,11.320001,eccentric,4,3.0,98184.0,303080.0,162343.0,283637.0,179473.0
2026-04-14 17:20:17.046313,223404,1609504710774225,2310743986,-0.732,-0.294752,-0.337696,-7.4375,-16.59875,17.47375,9.8,32.056,11.360001,eccentric,4,3.0,98184.0,303080.0,162343.0,283637.0,179473.0
2026-04-14 17:20:17.055413,223405,1609504710783247,2310752684,-0.732,-0.294752,-0.337696,-12.36375,-14.980001,20.9825,9.8,32.056,11.360001,eccentric,4,3.0,98184.0,303080.0,162343.0,283637.0,179473.0
2026-04-14 17:20:17.071770,223406,1609504710797750,2310767562,-0.735904,-0.359168,-0.464576,-8.95125,-16.89625,22.9775,9.904,31.296001,10.400001,eccentric,4,3.0,98184.0,303080.0,162343.0,283637.0,179473.0
2026-04-14 17:20:17.081802,223407,1609504710806679,2310776237,-0.735904,-0.359168,-0.464576,-6.50125,-24.38625,25.76875,9.904,31.296001,10.400001,eccentric,4,3.0,98184.0,303080.0,162343.0,283637.0,179473.0
2026-04-14 17:20:17.089287,223408,1609504710815584,2310784905,-0.778848,-0.275232,-0.247904,2.49375,-31.3775,28.98875,10.656,31.536001,10.8,eccentric,4,3.0,98184.0,303080.0,162343.0,283637.0,179473.0
2026-04-14 17:20:17.104258,223409,1609504710830118,2310799832,-0.778848,-0.452864,-0.148352,-0.0875,-34.3,31.36875,10.656,31.536001,11.696,eccentric,4,3.0,98184.0,303080.0,162343.0,283637.0,179473.0
2026-04-14 17:20:17.137076,223420,1609504710839110,2310808590,-0.772992,-0.452864,-0.148352,-6.25625,-32.095,36.74125,11.192,31.224,11.696,eccentric,4,3.0,100516.0,302816.0,165794.0,283546.0,182614.0
2026-04-14 17:20:17.138714,223421,1609504710853732,2310823478,-0.80032,-0.222528,-0.111264,-8.3825,-28.48125,43.42625,10.360001,31.656002,12.72,eccentric,4,3.0,100516.0,302816.0,165794.0,283546.0,182614.0
2026-04-14 17:20:17.144075,223422,1609504710862697,2310832230,-0.80032,-0.222528,-0.111264,-5.04875,-26.9675,48.37875,10.360001,31.656002,12.72,eccentric,4,3.0,100516.0,302816.0,165794.0,283546.0,182614.0
2026-04-14 17:20:17.144153,223423,1609504710871617,2310840937,-0.821792,-0.310368,-0.189344,-5.88875,-28.2625,48.11625,10.416,31.664001,12.736001,eccentric,4,3.0,100516.0,302816.0,165794.0,283546.0,182614.0
2026-04-14 17:20:17.159128,223424,1609504710886114,2310855867,-0.821792,-0.310368,-0.189344,-8.155,-30.82625,48.51,10.416,31.664001,12.736001,eccentric,4,3.0,100516.0,302816.0,165794.0,283546.0,182614.0
2026-04-14 17:20:17.168888,223425,1609504710895109,2310864552,-0.89792,-0.296704,-0.132736,-7.945,-33.215,53.12125,12.384001,31.192001,10.624001,eccentric,4,3.0,100516.0,302816.0,165794.0,283546.0,182614.0
2026-04-14 17:20:17.185127,223426,1609504710909599,2310879429,-0.89792,-0.296704,-0.132736,-7.62125,-32.515,59.1325,12.384001,31.192001,10.624001,eccentric,4,3.0,100516.0,302816.0,165794.0,283546.0,182614.0
2026-04-14 17:20:17.191544,223427,1609504710918528,2310888139,-0.895968,-0.288896,-0.290848,-10.3075,-29.522501,64.60125,13.240001,30.968002,10.832001,eccentric,4,3.0,100516.0,302816.0,165794.0,283546.0,182614.0
2026-04-14 17:20:17.208005,223428,1609504710933052,2310903048,-0.925248,-0.201056,-0.261568,-13.48375,-27.2125,68.20625,14.112,31.112001,11.512,eccentric,4,3.0,100516.0,302816.0,165794.0,283546.0,182614.0
2026-04-14 17:20:17.260372,223439,1609504710942031,2310911805,-0.925248,-0.201056,-0.261568,-13.011251,-26.25875,69.1425,14.112,31.112001,11.512,eccentric,4,3.0,102192.0,303032.0,168499.0,283978.0,185161.0
2026-04-14 17:20:17.284993,223440,1609504710951027,2310920490,-0.95648,-0.25376,-0.249856,-12.62625,-28.7525,67.27875,14.112,31.112001,11.024,eccentric,4,3.0,102192.0,303032.0,168499.0,283978.0,185161.0
2026-04-14 17:20:17.310599,223441,1609504710965565,2310935400,-0.95648,-0.25376,-0.249856,-14.48125,-30.065,64.3825,14.120001,31.2,11.024,eccentric,4,3.0,102192.0,303032.0,168499.0,283978.0,185161.0
2026-04-14 17:20:17.312969,223442,1609504710974489,2310944134,-0.876448,-0.306464,-0.062464,-17.465,-31.5875,66.31625,14.320001,30.728,12.120001,eccentric,4,3.0,102192.0,303032.0,168499.0,283978.0,185161.0
2026-04-14 17:20:17.315438,223443,1609504710988955,2310958992,-0.876448,-0.306464,-0.062464,-17.5875,-33.04875,72.42375,14.320001,30.728,12.120001,eccentric,4,3.0,102192.0,303032.0,168499.0,283978.0,185161.0
2026-04-14 17:20:17.319666,223444,1609504710997861,2310967656,-0.853024,-0.142496,0.003904,-15.33875,-33.85375,76.81625,15.592001,30.552002,9.76,eccentric,4,3.0,102192.0,303032.0,168499.0,283978.0,185161.0
2026-04-14 17:20:17.320230,223445,1609504711012372,2310982526,-0.860832,-0.121024,-0.23424,-16.9575,-36.2775,77.9975,15.992001,30.432001,13.040001,eccentric,4,3.0,102192.0,303032.0,168499.0,283978.0,185161.0
2026-04-14 17:20:17.322397,223446,1609504711021286,2310991221,-0.860832,-0.121024,-0.23424,-14.44625,-39.10375,72.66875,15.992001,30.432001,13.040001,eccentric,4,3.0,102192.0,303032.0,168499.0,283978.0,185161.0
2026-04-14 17:20:17.325249,223447,1609504711030180,2310999890,-0.860832,-0.121024,-0.23424,-13.475,-41.51,63.98,15.992001,30.432001,13.040001,eccentric,4,3.0,102192.0,303032.0,168499.0,283978.0,185161.0
2026-04-14 17:20:17.385092,223458,1609504711045113,2311014974,-1.00528,-0.32208,-0.060512,-20.265,-40.41625,68.74,16.76,30.232002,12.752001,eccentric,4,3.0,105020.0,302435.0,172776.0,283755.0,188886.0
2026-04-14 17:20:17.388019,223459,1609504711054066,2311023655,-0.974048,-0.130784,-0.023424,-26.97625,-32.8125,73.31625,16.992,30.248001,13.128,eccentric,4,3.0,105020.0,302435.0,172776.0,283755.0,188886.0
2026-04-14 17:20:17.390511,223460,1609504711068636,2311038562,-0.974048,-0.130784,-0.023424,-25.19125,-27.3525,78.855,16.992,30.248001,13.128,eccentric,4,3.0,105020.0,302435.0,172776.0,283755.0,188886.0
2026-04-14 17:20:17.393042,223461,1609504711077575,2311047259,-1.056032,-0.007808,-0.169824,-22.925,-24.17625,78.21625,17.560001,29.976002,12.944,eccentric,4,3.0,105020.0,302435.0,172776.0,283755.0,188886.0
2026-04-14 17:20:17.395202,223462,1609504711092047,2311062125,-1.149728,-0.201056,-0.197152,-26.53,-24.89375,67.54125,17.560001,29.704,12.888001,eccentric,4,3.0,105020.0,302435.0,172776.0,283755.0,188886.0
2026-04-14 17:20:17.398009,223463,1609504711100977,2311070818,-1.149728,-0.201056,-0.197152,-23.47625,-32.4275,60.15625,18.432001,29.704,12.888001,eccentric,4,3.0,105020.0,302435.0,172776.0,283755.0,188886.0
2026-04-14 17:20:17.400111,223464,1609504711109822,2311079476,-1.149728,-0.201056,-0.197152,-22.855,-34.7375,58.7475,18.432001,29.704,12.888001,eccentric,4,3.0,105020.0,302435.0,172776.0,283755.0,188886.0
2026-04-14 17:20:17.402380,223465,1609504711124312,2311094348,-0.993568,-0.318176,-0.255712,-36.365,-29.77625,63.21875,19.992,29.52,12.664001,eccentric,4,3.0,105020.0,302435.0,172776.0,283755.0,188886.0
2026-04-14 17:20:17.407324,223466,1609504711133258,2311103032,-1.294176,0.132736,-0.181536,-36.8025,-25.87375,71.44375,20.224,29.352001,10.376,eccentric,4,3.0,105020.0,302435.0,172776.0,283755.0,188886.0
2026-04-14 17:20:17.442850,223478,1609504711147848,2311117944,-1.294176,0.132736,-0.181536,-23.45,-27.86,69.48375,20.224,29.352001,10.376,eccentric,4,3.0,111453.0,299566.0,182238.0,281813.0,197925.0
2026-04-14 17:20:17.445031,223479,1609504711156801,2311126728,-1.311744,-0.251808,-0.40016,-14.7,-32.06875,53.62875,20.784,28.936,12.544001,eccentric,4,3.0,111453.0,299566.0,182238.0,281813.0,197925.0
2026-04-14 17:20:17.447907,223480,1609504711171293,2311141628,-1.311744,-0.251808,-0.40016,-20.8775,-42.8225,46.9875,20.784,28.936,12.544001,eccentric,4,3.0,111453.0,299566.0,182238.0,281813.0,197925.0
2026-04-14 17:20:17.454295,223481,1609504711180223,2311150325,-1.03456,-0.203008,-0.025376,-26.4775,-46.4975,52.5,21.328001,28.632002,12.248,eccentric,4,3.0,111453.0,299566.0,182238.0,281813.0,197925.0
2026-04-14 17:20:17.463005,223482,1609504711189203,2311159010,-1.03456,-0.203008,-0.025376,-21.98,-38.59625,57.49625,21.328001,28.632002,12.248,eccentric,4,3.0,111453.0,299566.0,182238.0,281813.0,197925.0
2026-04-14 17:20:17.476793,223483,1609504711203725,2311173975,-1.260992,-0.031232,-0.089792,-27.1775,-29.6625,60.0425,22.648,28.288002,12.288,eccentric,4,3.0,111453.0,299566.0,182238.0,281813.0,197925.0
2026-04-14 17:20:17.487510,223484,1609504711212659,2311182662,-1.153632,-0.220576,-0.335744,-34.86,-24.50875,58.51125,22.648,28.288002,15.840001,eccentric,4,3.0,111453.0,299566.0,182238.0,281813.0,197925.0
2026-04-14 17:20:17.499296,223485,1609504711227164,2311195510,-1.153632,-0.220576,-0.335744,-34.37,-21.56,48.95625,22.920002,27.968,15.840001,eccentric,4,3.0,111453.0,299566.0,182238.0,281813.0,197925.0
2026-04-14 17:20:17.535020,223496,1609504711236407,2311206223,-1.241472,-0.122976,-0.306464,-28.30625,-27.7025,45.47375,22.136002,27.728,15.040001,eccentric,4,3.0,114170.0,296772.0,186252.0,280517.0,200845.0
2026-04-14 17:20:17.537443,223497,1609504711245806,2311215000,-1.241472,-0.122976,-0.306464,-14.74375,-35.48125,49.7525,22.136002,27.728,15.040001,eccentric,4,3.0,114170.0,296772.0,186252.0,280517.0,200845.0
2026-04-14 17:20:17.542904,223498,1609504711260340,2311229990,-1.225856,-0.005856,-0.06832,-8.995,-39.43625,46.655,22.736002,26.680002,13.400001,eccentric,4,3.0,114170.0,296772.0,186252.0,280517.0,200845.0
2026-04-14 17:20:17.545162,223499,1609504711269286,2311238720,-1.225856,-0.005856,-0.06832,-13.18625,-40.232502,45.28125,22.736002,26.680002,13.400001,eccentric,4,3.0,114170.0,296772.0,186252.0,280517.0,200845.0
2026-04-14 17:20:17.557947,223500,1609504711283784,2311253638,-1.120448,-0.10736,-0.13664,-19.8625,-36.513752,42.60375,22.728,26.208002,13.408001,eccentric,4,3.0,114170.0,296772.0,186252.0,280517.0,200845.0
2026-04-14 17:20:17.565511,223501,1609504711292756,2311262371,-1.120448,-0.10736,-0.148352,-24.12375,-29.96875,36.60125,22.728,26.208002,13.408001,eccentric,4,3.0,114170.0,296772.0,186252.0,280517.0,200845.0
2026-04-14 17:20:17.574262,223502,1609504711301747,2311271035,-1.296128,-0.148352,-0.148352,-21.21875,-26.4775,38.91125,22.912,25.648,13.328001,eccentric,4,3.0,114170.0,296772.0,186252.0,280517.0,200845.0
2026-04-14 17:20:17.589262,223503,1609504711316221,2311285972,-1.22,-0.037088,-0.171776,-23.975,-24.98125,39.7075,22.904001,25.064001,13.352,eccentric,4,3.0,114170.0,296772.0,186252.0,280517.0,200845.0
2026-04-14 17:20:17.603027,223504,1609504711325148,2311294641,-1.22,-0.037088,-0.171776,-20.475,-23.56375,38.045002,22.904001,25.064001,13.352,eccentric,4,3.0,114170.0,296772.0,186252.0,280517.0,200845.0
2026-04-14 17:20:17.692551,223515,1609504711339829,2311309635,-1.303936,-0.02928,-0.119072,-12.67,-27.86875,39.62,22.952002,25.168001,13.824,concentric,4,3.0,111311.0,290818.0,183425.0,276515.0,197846.0
2026-04-14 17:20:17.695392,223516,1609504711348843,2311318370,-1.303936,-0.02928,-0.119072,-9.0825,-32.1475,36.9425,22.952002,25.168001,13.824,concentric,4,3.0,111311.0,290818.0,183425.0,276515.0,197846.0
2026-04-14 17:20:17.697764,223517,1609504711363298,2311333240,-1.237568,0.011712,-0.294752,-4.19125,-34.41375,26.6,22.312,24.576,13.416,concentric,4,3.0,111311.0,290818.0,183425.0,276515.0,197846.0
2026-04-14 17:20:17.700963,223518,1609504711372219,2311341938,-1.237568,0.011712,-0.294752,4.1825,-37.31875,22.56625,22.312,24.576,13.416,concentric,4,3.0,111311.0,290818.0,183425.0,276515.0,197846.0
2026-04-14 17:20:17.702415,223519,1609504711381065,2311350592,-1.231712,-0.179584,0.00976,-7.2975,-36.91625,22.47875,21.848001,24.824001,14.000001,concentric,4,3.0,111311.0,290818.0,183425.0,276515.0,197846.0
2026-04-14 17:20:17.705374,223520,1609504711395566,2311365482,-1.21024,-0.052704,0.003904,-19.678751,-28.98875,24.57,22.192001,24.776001,12.84,concentric,4,3.0,111311.0,290818.0,183425.0,276515.0,197846.0
2026-04-14 17:20:17.709257,223521,1609504711404492,2311374166,-1.21024,-0.052704,0.003904,-13.4575,-23.44125,27.62375,22.192001,24.776001,12.84,concentric,4,3.0,111311.0,290818.0,183425.0,276515.0,197846.0
2026-04-14 17:20:17.709721,223522,1609504711418983,2311389060,-1.212192,-0.042944,-0.1952,-4.69875,-22.26,31.29,22.272001,24.480001,12.512001,concentric,4,3.0,111311.0,290818.0,183425.0,276515.0,197846.0
2026-04-14 17:20:17.712252,223523,1609504711428009,2311397742,-1.212192,-0.042944,-0.1952,-4.33125,-20.8425,29.9775,22.272001,24.480001,12.512001,concentric,4,3.0,111311.0,290818.0,183425.0,276515.0,197846.0
2026-04-14 17:20:17.744571,223534,1609504711442817,2311412925,-1.323456,0.052704,-0.265472,-4.585,-21.81375,25.3575,21.960001,24.76,13.736001,concentric,4,3.0,106270.0,283778.0,177352.0,270571.0,191399.0
2026-04-14 17:20:17.744853,223535,1609504711451833,2311421757,-1.323456,0.052704,-0.265472,0.07875,-26.7575,21.7175,21.960001,24.76,13.736001,concentric,4,3.0,106270.0,283778.0,177352.0,270571.0,191399.0
2026-04-14 17:20:17.745014,223536,1609504711460762,2311430481,-1.202432,-0.050752,-0.158112,4.06875,-28.72625,16.33625,22.096,25.088001,14.320001,concentric,4,3.0,106270.0,283778.0,177352.0,270571.0,191399.0
2026-04-14 17:20:17.749951,223537,1609504711475257,2311445382,-1.167296,-0.064416,0.056608,-2.905,-28.32375,10.2375,21.432001,24.904001,11.416,concentric,4,3.0,106270.0,283778.0,177352.0,270571.0,191399.0
2026-04-14 17:20:17.756173,223538,1609504711484188,2311454080,-1.167296,-0.064416,0.056608,-4.4275,-26.355,11.7425,21.432001,24.904001,11.416,concentric,4,3.0,106270.0,283778.0,177352.0,270571.0,191399.0
2026-04-14 17:20:17.772538,223539,1609504711498733,2311468971,-1.262944,-0.119072,-0.134688,0.51625,-23.10875,12.95875,23.160002,24.768002,11.392,concentric,4,3.0,106270.0,283778.0,177352.0,270571.0,191399.0
2026-04-14 17:20:17.781513,223540,1609504711507742,2311477634,-1.262944,-0.119072,-0.134688,1.05,-23.37125,13.25625,23.160002,24.768002,11.392,concentric,4,3.0,106270.0,283778.0,177352.0,270571.0,191399.0
2026-04-14 17:20:17.796652,223541,1609504711522215,2311492504,-1.223904,-0.072224,-0.290848,4.0075,-23.6075,16.51125,23.056002,24.584002,11.344001,concentric,4,3.0,106270.0,283778.0,177352.0,270571.0,191399.0
2026-04-14 17:20:17.803834,223542,1609504711531108,2311501256,-1.223904,-0.072224,-0.290848,8.09375,-23.93125,17.42125,23.056002,24.584002,11.344001,concentric,4,3.0,106270.0,283778.0,177352.0,270571.0,191399.0
2026-04-14 17:20:17.835264,223553,1609504711540137,2311509974,-1.198528,-0.03904,-0.105408,8.89875,-26.6525,19.285,23.272001,24.528002,11.664001,concentric,4,3.0,99040.0,278810.0,169093.0,266212.0,183104.0
2026-04-14 17:20:17.837714,223554,1609504711554703,2311525000,-1.104832,-0.025376,0.152256,8.435,-24.85875,20.9475,23.272001,24.528002,12.416,concentric,4,3.0,99040.0,278810.0,169093.0,266212.0,183104.0
2026-04-14 17:20:17.840211,223555,1609504711563685,2311533731,-1.106784,-0.025376,0.152256,7.2275,-21.4725,18.55875,22.856,24.76,12.416,concentric,4,3.0,99040.0,278810.0,169093.0,266212.0,183104.0
2026-04-14 17:20:17.850141,223556,1609504711578230,2311546585,-1.16144,-0.109312,-0.005856,2.52875,-19.4425,17.1675,22.888,25.008001,11.816001,concentric,4,3.0,99040.0,278810.0,169093.0,266212.0,183104.0
2026-04-14 17:20:17.861646,223557,1609504711587496,2311557319,-1.16144,-0.109312,-0.005856,-1.75,-19.6175,18.147501,22.888,25.008001,11.816001,concentric,4,3.0,99040.0,278810.0,169093.0,266212.0,183104.0
2026-04-14 17:20:17.868906,223558,1609504711596503,2311566030,-1.134112,-0.050752,-0.1464,-0.93625,-21.945,17.3075,22.416,24.328001,13.240001,concentric,4,3.0,99040.0,278810.0,169093.0,266212.0,183104.0
2026-04-14 17:20:17.883967,223559,1609504711610988,2311580952,-1.134112,-0.050752,-0.1464,12.635,-25.0075,16.91375,22.416,24.328001,13.240001,concentric,4,3.0,99040.0,278810.0,169093.0,266212.0,183104.0
2026-04-14 17:20:17.892359,223560,1609504711619932,2311589642,-1.098976,0.056608,0.163968,24.80625,-27.69375,14.00875,23.216002,24.432001,12.776001,concentric,4,3.0,99040.0,278810.0,169093.0,266212.0,183104.0
2026-04-14 17:20:17.908890,223561,1609504711634376,2311604511,-1.098976,0.056608,0.163968,25.0075,-28.39375,7.945,23.216002,24.432001,12.776001,concentric,4,3.0,99040.0,278810.0,169093.0,266212.0,183104.0
2026-04-14 17:20:17.936490,223572,1609504711643441,2311613293,-1.134112,0.085888,0.119072,19.3025,-25.9175,1.89875,22.728,24.936,14.824,concentric,4,3.0,89797.0,271374.0,158745.0,259425.0,172432.0
2026-04-14 17:20:17.938928,223573,1609504711657953,2311628279,-1.08336,-0.072224,0.160064,10.6925,-22.645,-3.955,21.104,25.168001,14.824,concentric,4,3.0,89797.0,271374.0,158745.0,259425.0,172432.0
2026-04-14 17:20:17.941460,223574,1609504711666945,2311637023,-1.08336,-0.072224,0.160064,0.735,-20.93875,-7.27125,21.104,25.168001,14.824,concentric,4,3.0,89797.0,271374.0,158745.0,259425.0,172432.0
2026-04-14 17:20:17.951494,223575,1609504711675900,2311645719,-1.16144,-0.181536,-0.193248,-4.2,-18.6375,-5.0225,21.480001,25.056002,14.592001,concentric,4,3.0,89797.0,271374.0,158745.0,259425.0,172432.0
2026-04-14 17:20:17.968001,223576,1609504711690412,2311660615,-1.16144,-0.181536,-0.193248,-3.15875,-17.00125,-2.96625,21.480001,25.056002,14.592001,concentric,4,3.0,89797.0,271374.0,158745.0,259425.0,172432.0
2026-04-14 17:20:17.996621,223577,1609504711699340,2311669288,-1.138016,-0.081984,-0.119072,6.5275,-15.6975,1.47875,22.536001,24.408,13.272,concentric,4,3.0,89797.0,271374.0,158745.0,259425.0,172432.0
2026-04-14 17:20:18.021731,223578,1609504711713809,2311684144,-1.138016,-0.081984,-0.119072,17.14125,-13.64125,5.075,22.536001,24.408,13.272,concentric,4,3.0,89797.0,271374.0,158745.0,259425.0,172432.0
2026-04-14 17:20:18.046873,223579,1609504711722725,2311692818,-1.169248,-0.021472,0.074176,20.1775,-13.2125,5.01375,21.848001,24.736002,12.080001,concentric,4,3.0,89797.0,271374.0,158745.0,259425.0,172432.0
2026-04-14 17:20:18.073602,223580,1609504711737177,2311705635,-1.145824,-0.050752,-0.02928,16.24875,-13.04625,5.01375,22.016,24.624,15.448001,concentric,4,3.0,89797.0,271374.0,158745.0,259425.0,172432.0
2026-04-14 17:20:18.110477,223591,1609504711746539,2311716602,-1.145824,-0.050752,-0.02928,11.22625,-12.39875,3.94625,22.016,24.624,15.448001,concentric,4,3.0,83795.0,267368.0,150913.0,255296.0,164592.0
2026-04-14 17:20:18.112426,223592,1609504711755487,2311725326,-1.145824,-0.050752,-0.138592,12.11875,-9.6075,1.65375,22.016,24.624,15.448001,concentric,4,3.0,83795.0,267368.0,150913.0,255296.0,164592.0
2026-04-14 17:20:18.115402,223593,1609504711770036,2311740218,-1.231712,-0.021472,-0.134688,11.10375,-8.49625,-1.82,21.768002,24.720001,12.136001,concentric,4,3.0,83795.0,267368.0,150913.0,255296.0,164592.0
2026-04-14 17:20:18.117989,223594,1609504711778933,2311748940,-1.21024,-0.076128,0.083936,10.98125,-9.292501,-3.43,22.160002,24.328001,13.832001,concentric,4,3.0,83795.0,267368.0,150913.0,255296.0,164592.0
2026-04-14 17:20:18.120484,223595,1609504711793407,2311761748,-1.21024,-0.076128,0.083936,11.9525,-11.82125,-3.49125,22.160002,24.328001,13.832001,concentric,4,3.0,83795.0,267368.0,150913.0,255296.0,164592.0
2026-04-14 17:20:18.122984,223596,1609504711802523,2311772536,-1.130208,-0.095648,0.037088,14.83125,-12.46875,-3.7275,22.240002,24.160002,14.384001,concentric,4,3.0,83795.0,267368.0,150913.0,255296.0,164592.0
2026-04-14 17:20:18.125089,223597,1609504711811460,2311781209,-1.130208,-0.095648,0.037088,20.15125,-9.73875,-3.21125,22.240002,24.160002,14.384001,concentric,4,3.0,83795.0,267368.0,150913.0,255296.0,164592.0
2026-04-14 17:20:18.127764,223598,1609504711825968,2311796117,-1.208288,-0.015616,-0.056608,20.60625,-7.11375,-2.89625,22.104002,23.536001,14.264001,concentric,4,3.0,83795.0,267368.0,150913.0,255296.0,164592.0
2026-04-14 17:20:18.130483,223599,1609504711834912,2311804878,-1.208288,-0.015616,-0.056608,16.63375,-5.46,-2.84375,22.104002,23.536001,14.264001,concentric,4,3.0,83795.0,267368.0,150913.0,255296.0,164592.0
2026-04-14 17:20:18.157999,223610,1609504711849497,2311819860,-1.163392,-0.081984,-0.093696,9.292501,-5.075,-3.38625,20.904001,24.192001,16.720001,concentric,4,3.0,83697.0,267804.0,151098.0,256112.0,164834.0
2026-04-14 17:20:18.162438,223611,1609504711858509,2311828620,-1.106784,-0.033184,0.183488,6.7725,-4.5675,-2.6775,20.68,24.248001,15.112,concentric,4,3.0,83697.0,267804.0,151098.0,256112.0,164834.0
2026-04-14 17:20:18.162798,223612,1609504711873021,2311841475,-1.106784,-0.033184,0.183488,8.93375,-3.64,-2.84375,20.68,24.248001,15.112,concentric,4,3.0,83697.0,267804.0,151098.0,256112.0,164834.0
2026-04-14 17:20:18.166096,223613,1609504711882262,2311852224,-1.126304,-0.027328,0.031232,12.1625,-1.89,-3.815,20.52,23.832,15.648001,concentric,4,3.0,83697.0,267804.0,151098.0,256112.0,164834.0
2026-04-14 17:20:18.171034,223614,1609504711891173,2311860927,-1.126304,-0.027328,0.031232,9.49375,-1.4525,-4.52375,20.52,23.832,15.648001,concentric,4,3.0,83697.0,267804.0,151098.0,256112.0,164834.0
2026-04-14 17:20:18.179146,223615,1609504711905692,2311875828,-1.1712,-0.025376,0.089792,7.06125,-1.26875,-4.9,21.2,23.632002,15.872001,concentric,4,3.0,83697.0,267804.0,151098.0,256112.0,164834.0
2026-04-14 17:20:18.188634,223616,1609504711914691,2311884524,-1.1712,-0.025376,0.089792,6.7025,-2.485,-5.25875,21.2,23.632002,15.872001,concentric,4,3.0,83697.0,267804.0,151098.0,256112.0,164834.0
2026-04-14 17:20:18.202905,223617,1609504711929136,2311899401,-1.153632,-0.095648,-0.109312,9.16125,-3.54375,-3.70125,22.104002,23.392,15.408001,concentric,4,3.0,83697.0,267804.0,151098.0,256112.0,164834.0
2026-04-14 17:20:18.212973,223618,1609504711938111,2311908107,-1.118496,0.02928,0.193248,14.62125,-2.52,-0.805,21.720001,23.560001,14.816001,concentric,4,3.0,83697.0,267804.0,151098.0,256112.0,164834.0
2026-04-14 17:20:18.240144,223629,1609504711947121,2311916865,-1.118496,0.02928,0.193248,18.10375,-1.7325,1.19,21.720001,23.560001,14.816001,concentric,4,3.0,82628.0,267057.0,149972.0,255564.0,163581.0
2026-04-14 17:20:18.242991,223630,1609504711961661,2311931751,-1.116544,0.052704,0.216672,15.8025,0.04375,1.39125,21.216002,23.528002,15.440001,concentric,4,3.0,82628.0,267057.0,149972.0,255564.0,163581.0
2026-04-14 17:20:18.245151,223631,1609504711970586,2311940479,-1.116544,0.052704,0.216672,7.035,0.945,0.07,21.216002,23.528002,15.440001,concentric,4,3.0,82628.0,267057.0,149972.0,255564.0,163581.0
2026-04-14 17:20:18.258849,223632,1609504711985077,2311955384,-1.175104,-0.03904,0.035136,-2.66,0.90125,-0.1925,22.248001,23.12,14.976001,concentric,4,3.0,82628.0,267057.0,149972.0,255564.0,163581.0
2026-04-14 17:20:18.268683,223633,1609504711994020,2311964059,-1.175104,-0.03904,0.035136,-4.50625,0.67375,0.07875,22.248001,23.12,14.976001,concentric,4,3.0,82628.0,267057.0,149972.0,255564.0,163581.0
2026-04-14 17:20:18.280337,223634,1609504712008587,2311976931,-1.067744,-0.076128,0.080032,1.54875,-0.1575,1.995,22.384,23.104002,15.168001,concentric,4,3.0,82628.0,267057.0,149972.0,255564.0,163581.0
2026-04-14 17:20:18.291294,223635,1609504712017754,2311987659,-1.09312,0.062464,0.163968,9.61625,1.05,4.90875,22.384,23.104002,14.664001,concentric,4,3.0,82628.0,267057.0,149972.0,255564.0,163581.0
2026-04-14 17:20:18.299873,223636,1609504712026700,2311996411,-1.09312,0.062464,0.163968,11.10375,2.1525,5.215,22.368002,23.368002,14.664001,concentric,4,3.0,82628.0,267057.0,149972.0,255564.0,163581.0
2026-04-14 17:20:18.337956,223647,1609504712041570,2312011318,-1.16144,0.072224,0.081984,5.7925,2.45,3.38625,21.472,23.240002,15.408001,concentric,4,3.0,82977.0,266862.0,150593.0,255506.0,164299.0
2026-04-14 17:20:18.362367,223648,1609504712050530,2312020140,-1.16144,0.072224,0.081984,-1.00625,2.84375,0.07,21.472,23.240002,15.408001,concentric,4,3.0,82977.0,266862.0,150593.0,255506.0,164299.0
2026-04-14 17:20:18.387690,223649,1609504712065086,2312035088,-1.095072,-0.033184,0.169824,-6.16,1.855,-2.58125,22.2,23.04,15.160001,concentric,4,3.0,82977.0,266862.0,150593.0,255506.0,164299.0
2026-04-14 17:20:18.390350,223650,1609504712073999,2312043766,-1.095072,-0.033184,0.169824,-5.11,1.21625,-2.835,22.2,23.04,15.160001,concentric,4,3.0,82977.0,266862.0,150593.0,255506.0,164299.0
2026-04-14 17:20:18.415520,223651,1609504712082901,2312052438,-1.177056,-0.001952,-0.01952,1.2425,1.5925,-2.8,22.368002,22.464,15.064001,concentric,4,3.0,82977.0,266862.0,150593.0,255506.0,164299.0
2026-04-14 17:20:18.420489,223652,1609504712097374,2312067318,-1.177056,-0.001952,-0.01952,6.4225,1.68875,-2.59,22.368002,22.464,15.064001,concentric,4,3.0,82977.0,266862.0,150593.0,255506.0,164299.0
2026-04-14 17:20:18.423035,223653,1609504712106297,2312076022,-1.139968,0.056608,0.171776,7.105,1.5225,-1.39125,22.328001,22.808,13.984,concentric,4,3.0,82977.0,266862.0,150593.0,255506.0,164299.0
2026-04-14 17:20:18.425439,223654,1609504712120816,2312090907,-1.21024,0.027328,-0.037088,3.71875,1.7675,-2.33625,22.592001,23.256,15.808001,concentric,4,3.0,82977.0,266862.0,150593.0,255506.0,164299.0
2026-04-14 17:20:18.428015,223655,1609504712129722,2312099572,-1.21024,0.027328,-0.037088,-1.015,2.6425,-3.89375,22.592001,23.256,15.808001,concentric,4,3.0,82977.0,266862.0,150593.0,255506.0,164299.0
2026-04-14 17:20:18.454739,223666,1609504712144876,2312114635,-1.19072,-0.083936,0.08784,-6.51,3.70125,-4.76,21.84,23.392,16.136002,concentric,4,3.0,87114.0,268958.0,155434.0,257508.0,169444.0
2026-04-14 17:20:18.457326,223667,1609504712153829,2312123360,-1.19072,-0.083936,0.08784,-9.02125,4.01625,-3.91125,21.84,23.392,16.136002,concentric,4,3.0,87114.0,268958.0,155434.0,257508.0,169444.0
2026-04-14 17:20:18.460055,223668,1609504712162782,2312132037,-1.143872,-0.124928,0.128832,-5.3025,2.98375,-0.07875,21.744001,22.848001,16.136002,concentric,4,3.0,87114.0,268958.0,155434.0,257508.0,169444.0
2026-04-14 17:20:18.462427,223669,1609504712177317,2312146955,-1.143872,-0.124928,0.128832,4.41,3.5525,4.52375,21.744001,22.848001,16.136002,concentric,4,3.0,87114.0,268958.0,155434.0,257508.0,169444.0
2026-04-14 17:20:18.465367,223670,1609504712186243,2312155623,-1.204384,0.007808,-0.089792,15.58375,4.99625,8.1025,21.920002,22.800001,15.552001,concentric,4,3.0,87114.0,268958.0,155434.0,257508.0,169444.0
2026-04-14 17:20:18.475341,223671,1609504712200765,2312170540,-1.266848,0.10736,0.130784,16.73875,6.755,6.9125,21.976002,22.856,16.648,concentric,4,3.0,87114.0,268958.0,155434.0,257508.0,169444.0
2026-04-14 17:20:18.482674,223672,1609504712209705,2312179217,-1.266848,0.10736,0.130784,8.70625,7.2625,4.31375,21.976002,22.856,16.648,concentric,4,3.0,87114.0,268958.0,155434.0,257508.0,169444.0
2026-04-14 17:20:18.497823,223673,1609504712224178,2312194073,-1.251232,-0.13664,-0.0976,-4.83875,8.86375,1.05,22.528002,22.84,15.6,concentric,4,3.0,87114.0,268958.0,155434.0,257508.0,169444.0
2026-04-14 17:20:18.509252,223674,1609504712233118,2312202754,-1.251232,-0.13664,-0.0976,-19.95,11.2,-2.17875,22.528002,22.84,15.6,concentric,4,3.0,87114.0,268958.0,155434.0,257508.0,169444.0
2026-04-14 17:20:18.540096,223685,1609504712242061,2312211429,-1.286368,-0.16592,-0.040992,-21.7875,12.5475,-1.0675,22.016,22.344002,14.584001,concentric,4,3.0,95997.0,276132.0,166370.0,265050.0,180759.0
2026-04-14 17:20:18.545102,223686,1609504712257042,2312226385,-1.286368,-0.16592,-0.040992,-5.29375,11.45375,3.40375,22.016,22.344002,14.584001,concentric,4,3.0,95997.0,276132.0,166370.0,265050.0,180759.0
2026-04-14 17:20:18.545182,223687,1609504712265962,2312235108,-1.167296,-0.040992,0.02928,10.47375,7.98,5.4075,21.512001,22.128,16.904001,concentric,4,3.0,95997.0,276132.0,166370.0,265050.0,180759.0
2026-04-14 17:20:18.553690,223688,1609504712280466,2312250035,-1.225856,0.052704,-0.0488,17.70125,8.0325,5.2675,22.144001,21.952002,13.976001,concentric,4,3.0,95997.0,276132.0,166370.0,265050.0,180759.0
2026-04-14 17:20:18.564119,223689,1609504712289404,2312258730,-1.225856,0.052704,-0.0488,14.35875,9.0475,1.96,22.144001,21.952002,13.976001,concentric,4,3.0,95997.0,276132.0,166370.0,265050.0,180759.0
2026-04-14 17:20:18.571610,223690,1609504712298401,2312267433,-1.225856,0.052704,-0.0488,-1.505,10.63125,-3.395,22.144001,21.952002,13.976001,concentric,4,3.0,95997.0,276132.0,166370.0,265050.0,180759.0
2026-04-14 17:20:18.586807,223691,1609504712312897,2312282371,-1.173152,-0.076128,0.10736,-15.33875,13.667501,-7.35875,22.824001,22.104002,15.344001,concentric,4,3.0,95997.0,276132.0,166370.0,265050.0,180759.0
2026-04-14 17:20:18.596807,223692,1609504712321833,2312291047,-1.225856,-0.1464,-0.062464,-18.83875,15.23375,-7.77875,22.712002,22.344002,15.488001,concentric,4,3.0,95997.0,276132.0,166370.0,265050.0,180759.0
2026-04-14 17:20:18.609365,223693,1609504712336308,2312305931,-1.225856,-0.1464,-0.062464,-12.1625,15.4525,-6.32625,22.712002,22.344002,15.488001,concentric,4,3.0,95997.0,276132.0,166370.0,265050.0,180759.0
2026-04-14 17:20:18.664219,223704,1609504712345376,2312314619,-1.143872,-0.001952,0.076128,-0.91875,15.198751,-5.8625,23.240002,21.640001,14.208001,concentric,4,3.0,103147.0,281490.0,175391.0,270990.0,189829.0
2026-04-14 17:20:18.666321,223705,1609504712359948,2312329601,-1.128256,0.015616,-0.003904,6.615,13.32625,-7.0175,23.240002,21.640001,12.696001,concentric,4,3.0,103147.0,281490.0,175391.0,270990.0,189829.0
2026-04-14 17:20:18.669218,223706,1609504712368892,2312338281,-1.138016,0.015616,-0.003904,4.2875,10.87625,-9.555,22.424002,21.784,12.696001,concentric,4,3.0,103147.0,281490.0,175391.0,270990.0,189829.0
2026-04-14 17:20:18.671797,223707,1609504712377807,2312346955,-1.138016,0.015616,-0.003904,-4.9,10.6575,-14.84,22.424002,21.784,12.696001,concentric,4,3.0,103147.0,281490.0,175391.0,270990.0,189829.0
2026-04-14 17:20:18.674262,223708,1609504712392298,2312361926,-1.188768,-0.050752,0.064416,-12.41625,12.24125,-20.475,22.248001,21.968,15.328001,concentric,4,3.0,103147.0,281490.0,175391.0,270990.0,189829.0
2026-04-14 17:20:18.676438,223709,1609504712401220,2312370604,-1.237568,-0.10736,-0.169824,-10.40375,13.16,-23.40625,22.112001,22.488,17.048,concentric,4,3.0,103147.0,281490.0,175391.0,270990.0,189829.0
2026-04-14 17:20:18.689263,223710,1609504712415807,2312385578,-1.237568,-0.10736,-0.169824,-4.34,11.52375,-24.6225,22.112001,22.488,17.048,concentric,4,3.0,103147.0,281490.0,175391.0,270990.0,189829.0
2026-04-14 17:20:18.701835,223711,1609504712424739,2312394272,-1.245376,-0.015616,0.037088,-0.67375,9.59875,-25.50625,22.984001,21.352001,14.392001,concentric,4,3.0,103147.0,281490.0,175391.0,270990.0,189829.0
2026-04-14 17:20:18.737430,223712,1609504712439227,2312409146,-1.245376,-0.015616,0.037088,2.77375,9.00375,-27.1075,22.984001,21.352001,14.392001,concentric,4,3.0,103147.0,281490.0,175391.0,270990.0,189829.0
2026-04-14 17:20:18.785103,223723,1609504712448260,2312418368,-1.23952,0.042944,0.007808,3.84125,9.7475,-28.630001,22.432001,21.272001,15.496,concentric,4,3.0,107650.0,285867.0,180488.0,275226.0,195049.0
2026-04-14 17:20:18.787973,223724,1609504712457224,2312427023,-1.23952,0.042944,0.007808,-1.68,11.095,-31.815,22.432001,21.272001,15.496,concentric,4,3.0,107650.0,285867.0,180488.0,275226.0,195049.0
2026-04-14 17:20:18.790011,223725,1609504712471847,2312441950,-1.23952,-0.046848,0.124928,-8.86375,15.32125,-34.99125,22.488,21.248001,14.040001,concentric,4,3.0,107650.0,285867.0,180488.0,275226.0,195049.0
2026-04-14 17:20:18.793012,223726,1609504712480769,2312450657,-1.257088,-0.132736,-0.206912,-14.79625,20.06375,-38.0275,22.488,21.248001,13.096001,concentric,4,3.0,107650.0,285867.0,180488.0,275226.0,195049.0
2026-04-14 17:20:18.795168,223727,1609504712495289,2312465577,-1.257088,-0.132736,-0.206912,-10.7275,24.6575,-39.45375,22.160002,21.328001,13.096001,concentric,4,3.0,107650.0,285867.0,180488.0,275226.0,195049.0
2026-04-14 17:20:18.797974,223728,1609504712504220,2312474289,-1.218048,-0.03904,-0.03904,-2.59875,24.99,-40.5825,21.664001,21.664001,15.688001,concentric,4,3.0,107650.0,285867.0,180488.0,275226.0,195049.0
2026-04-14 17:20:18.802554,223729,1609504712513196,2312482979,-1.218048,-0.03904,-0.03904,4.1825,22.61875,-41.5975,21.664001,21.664001,15.688001,concentric,4,3.0,107650.0,285867.0,180488.0,275226.0,195049.0
2026-04-14 17:20:18.805117,223730,1609504712527705,2312497925,-1.290272,-0.025376,-0.023424,0.76125,17.3775,-44.3275,20.960001,21.584002,15.536001,concentric,4,3.0,107650.0,285867.0,180488.0,275226.0,195049.0
2026-04-14 17:20:18.820214,223731,1609504712536622,2312506607,-1.290272,-0.025376,-0.023424,-1.855,13.25625,-45.885,20.960001,21.584002,15.536001,concentric,4,3.0,107650.0,285867.0,180488.0,275226.0,195049.0
2026-04-14 17:20:18.847599,223742,1609504712551168,2312519541,-1.204384,-0.023424,0.216672,-1.1725,14.77,-48.4925,21.544,21.44,15.304001,concentric,4,3.0,113155.0,291059.0,186400.0,279783.0,201219.0
2026-04-14 17:20:18.849945,223743,1609504712560375,2312530325,-1.204384,-0.023424,0.216672,-1.575,21.6825,-51.38,21.544,21.44,15.304001,concentric,4,3.0,113155.0,291059.0,186400.0,279783.0,201219.0
2026-04-14 17:20:18.852581,223744,1609504712574905,2312545262,-1.169248,-0.138592,0.056608,-7.0175,26.8625,-54.0575,20.720001,22.28,16.720001,concentric,4,3.0,113155.0,291059.0,186400.0,279783.0,201219.0
2026-04-14 17:20:18.858909,223745,1609504712583810,2312553950,-1.282464,-0.052704,0.011712,-4.48875,28.7,-53.59375,20.536001,23.320002,18.192001,concentric,4,3.0,113155.0,291059.0,186400.0,279783.0,201219.0
2026-04-14 17:20:18.866207,223746,1609504712592728,2312562630,-1.282464,-0.052704,0.011712,5.075,25.1825,-53.54125,20.536001,23.320002,18.192001,concentric,4,3.0,113155.0,291059.0,186400.0,279783.0,201219.0
2026-04-14 17:20:18.881486,223747,1609504712607210,2312577487,-1.313696,-0.033184,-0.20496,11.6725,20.116251,-56.0175,21.504002,23.096,17.144001,concentric,4,3.0,113155.0,291059.0,186400.0,279783.0,201219.0
2026-04-14 17:20:18.888934,223748,1609504712616110,2312586200,-1.313696,-0.033184,-0.20496,10.89375,15.75875,-58.54625,21.504002,23.096,17.144001,concentric,4,3.0,113155.0,291059.0,186400.0,279783.0,201219.0
2026-04-14 17:20:18.903904,223749,1609504712630580,2312599012,-1.184864,-0.064416,0.050752,7.21875,13.1425,-61.99375,20.592001,24.296001,16.952002,concentric,4,3.0,113155.0,291059.0,186400.0,279783.0,201219.0
2026-04-14 17:20:18.915220,223750,1609504712639851,2312609751,-1.184864,-0.064416,0.050752,5.6875,12.2325,-64.8375,20.592001,24.296001,16.952002,concentric,4,3.0,113155.0,291059.0,186400.0,279783.0,201219.0
2026-04-14 17:20:18.942477,223761,1609504712654439,2312624748,-1.173152,-0.08784,-0.085888,7.32375,12.95,-65.33625,20.856,24.808,16.904001,concentric,4,3.0,115818.0,293453.0,189223.0,281911.0,204009.0
2026-04-14 17:20:18.945082,223762,1609504712663386,2312633451,-1.165344,-0.06832,0.113216,5.55625,14.7,-66.35125,20.088001,25.712002,18.016,concentric,4,3.0,115818.0,293453.0,189223.0,281911.0,204009.0
2026-04-14 17:20:18.947601,223763,1609504712672332,2312642135,-1.165344,-0.06832,0.113216,2.19625,17.73625,-66.28125,20.088001,25.712002,18.016,concentric,4,3.0,115818.0,293453.0,189223.0,281911.0,204009.0
2026-04-14 17:20:18.960059,223764,1609504712686842,2312657067,-1.27856,-0.042944,-0.18544,4.83875,21.385,-66.17625,19.6,26.616001,17.136002,concentric,4,3.0,115818.0,293453.0,189223.0,281911.0,204009.0
2026-04-14 17:20:18.968861,223765,1609504712695751,2312665723,-1.27856,-0.042944,-0.18544,8.0675,23.30125,-68.45125,19.6,26.616001,17.136002,concentric,4,3.0,115818.0,293453.0,189223.0,281911.0,204009.0
2026-04-14 17:20:18.983913,223766,1609504712710232,2312678582,-1.245376,-0.001952,-0.08784,10.22,23.94,-70.49875,19.104,27.016,16.784,concentric,4,3.0,115818.0,293453.0,189223.0,281911.0,204009.0
2026-04-14 17:20:18.992715,223767,1609504712719403,2312689368,-1.245376,-0.001952,-0.08784,12.66125,23.98375,-72.26625,19.104,27.016,16.784,concentric,4,3.0,115818.0,293453.0,189223.0,281911.0,204009.0
