pc_time,serial_num,sensor_ts,host_ts,ax,ay,az,gx,gy,gz,mx,my,mz,phase,rpe,weight_kg,ppg_a,ppg_b,ppg_c,ppg_d,ppg_e
2026-04-14 17:20:23.066131,224536,1609504716771946,2316741823,-1.124352,-0.111264,0.007808,-1.05,-28.4375,21.7175,21.072,26.032001,11.88,concentric,4,3.0,98182.0,282085.0,165923.0,267212.0,180683.0
2026-04-14 17:20:23.069199,224537,1609504716780967,2316750572,-1.124352,-0.111264,0.007808,-4.27875,-25.8475,21.5075,21.072,26.032001,11.88,concentric,4,3.0,98182.0,282085.0,165923.0,267212.0,180683.0
2026-04-14 17:20:23.071588,224538,1609504716795487,2316765487,-1.206336,-0.03904,-0.099552,-3.535,-25.1825,23.33625,21.2,25.728,11.808001,concentric,4,3.0,98182.0,282085.0,165923.0,267212.0,180683.0
2026-04-14 17:20:23.078003,224539,1609504716804454,2316774181,-1.206336,-0.03904,-0.099552,5.9675,-28.7175,25.52375,21.2,25.728,11.808001,concentric,4,3.0,98182.0,282085.0,165923.0,267212.0,180683.0
2026-04-14 17:20:23.092639,224540,1609504716818921,2316789057,-1.138016,-0.13664,-0.277184,9.98375,-30.02125,21.62125,21.784,25.560001,11.624001,concentric,4,3.0,98182.0,282085.0,165923.0,267212.0,180683.0
2026-04-14 17:20:23.101138,224541,1609504716827867,2316797719,-1.138016,-0.13664,-0.277184,2.625,-31.7275,15.61,21.784,25.560001,11.624001,concentric,4,3.0,98182.0,282085.0,165923.0,267212.0,180683.0
2026-04-14 17:20:23.127440,224542,1609504716842332,2316812615,-1.128256,-0.03904,0.003904,9.1175,-32.8125,19.4775,22.024,25.984001,13.432001,concentric,4,3.0,98182.0,282085.0,165923.0,267212.0,180683.0
2026-04-14 17:20:23.129998,224543,1609504716851239,2316821303,-1.188768,-0.037088,-0.154208,15.35625,-29.09375,18.165,20.712002,26.472002,13.432001,concentric,4,3.0,98182.0,282085.0,165923.0,267212.0,180683.0
2026-04-14 17:20:23.159122,224544,1609504716860148,2316829994,-1.188768,-0.037088,-0.154208,7.95375,-23.87,13.0025,20.712002,26.472002,13.432001,concentric,4,3.0,98182.0,282085.0,165923.0,267212.0,180683.0
2026-04-14 17:20:23.243512,224555,1609504716874738,2316845038,-1.231712,-0.072224,0.0,-1.4525,-20.60625,14.25375,22.424002,25.840002,11.112,concentric,4,3.0,91750.0,274142.0,158661.0,260660.0,173121.0
2026-04-14 17:20:23.247068,224556,1609504716883683,2316853768,-1.231712,-0.072224,0.0,-6.85125,-20.4575,16.0125,22.424002,25.840002,11.112,concentric,4,3.0,91750.0,274142.0,158661.0,260660.0,173121.0
2026-04-14 17:20:23.248412,224557,1609504716898316,2316866706,-1.216096,-0.12688,-0.105408,-6.1775,-20.86875,17.5,22.352001,25.672,11.552001,concentric,4,3.0,91750.0,274142.0,158661.0,260660.0,173121.0
2026-04-14 17:20:23.248495,224558,1609504716907524,2316877452,-1.216096,-0.12688,-0.105408,-0.34125,-22.12875,17.96375,22.352001,25.672,11.552001,concentric,4,3.0,91750.0,274142.0,158661.0,260660.0,173121.0
2026-04-14 17:20:23.251196,224559,1609504716921989,2316890352,-1.175104,-0.054656,-0.173728,7.9625,-24.91125,20.44875,22.056002,25.992,11.184001,concentric,4,3.0,91750.0,274142.0,158661.0,260660.0,173121.0
2026-04-14 17:20:23.253669,224560,1609504716931143,2316901088,-1.16144,-0.050752,-0.072224,17.84125,-24.491251,21.30625,22.472,25.840002,12.536,concentric,4,3.0,91750.0,274142.0,158661.0,260660.0,173121.0
2026-04-14 17:20:23.256177,224561,1609504716940035,2316909738,-1.16144,-0.050752,-0.072224,17.38625,-24.185,17.75375,22.472,25.840002,12.536,concentric,4,3.0,91750.0,274142.0,158661.0,260660.0,173121.0
2026-04-14 17:20:23.258817,224562,1609504716954538,2316924665,-1.110688,-0.027328,0.064416,8.05,-23.24875,14.0175,21.832,25.832,12.896001,concentric,4,3.0,91750.0,274142.0,158661.0,260660.0,173121.0
2026-04-14 17:20:23.261368,224563,1609504716963709,2316933383,-1.110688,-0.027328,0.064416,2.5025,-22.575,11.89125,21.832,25.832,12.896001,concentric,4,3.0,91750.0,274142.0,158661.0,260660.0,173121.0
2026-04-14 17:20:23.291476,224574,1609504716978278,2316948334,-1.196576,-0.072224,-0.18544,2.45,-23.65125,8.35625,21.800001,26.12,12.736001,concentric,4,3.0,82657.0,265350.0,147939.0,252494.0,161639.0
2026-04-14 17:20:23.293994,224575,1609504716987329,2316957066,-1.196576,-0.072224,-0.18544,3.9725,-24.5,6.11625,21.800001,26.12,12.736001,concentric,4,3.0,82657.0,265350.0,147939.0,252494.0,161639.0
2026-04-14 17:20:23.296491,224576,1609504716996396,2316965771,-1.196576,-0.080032,-0.148352,3.45625,-24.99,4.305,21.048,26.376001,12.928,concentric,4,3.0,82657.0,265350.0,147939.0,252494.0,161639.0
2026-04-14 17:20:23.298836,224577,1609504717011008,2316980747,-1.100928,-0.187392,0.105408,4.13875,-24.491251,2.12625,21.272001,26.136002,11.808001,concentric,4,3.0,82657.0,265350.0,147939.0,252494.0,161639.0
2026-04-14 17:20:23.301491,224578,1609504717020014,2316989451,-1.100928,-0.187392,0.105408,1.63625,-23.17,0.67375,21.272001,26.136002,11.808001,concentric,4,3.0,82657.0,265350.0,147939.0,252494.0,161639.0
2026-04-14 17:20:23.308943,224579,1609504717034532,2317004353,-1.16144,-0.140544,-0.113216,0.39375,-20.1075,2.05625,21.088001,26.008001,14.440001,concentric,4,3.0,82657.0,265350.0,147939.0,252494.0,161639.0
2026-04-14 17:20:23.317860,224580,1609504717043482,2317013121,-1.16144,-0.140544,-0.113216,5.46875,-17.64,4.41875,21.088001,26.008001,14.440001,concentric,4,3.0,82657.0,265350.0,147939.0,252494.0,161639.0
2026-04-14 17:20:23.331259,224581,1609504717057952,2317028007,-1.247328,-0.085888,-0.138592,10.2025,-15.79375,3.885,20.52,26.448002,13.6,concentric,4,3.0,82657.0,265350.0,147939.0,252494.0,161639.0
2026-04-14 17:20:23.340089,224582,1609504717066883,2317036700,-1.247328,-0.085888,-0.138592,6.02875,-14.60375,1.1725,20.52,26.448002,13.6,concentric,4,3.0,82657.0,265350.0,147939.0,252494.0,161639.0
2026-04-14 17:20:23.367724,224593,1609504717075876,2317045465,-1.198528,-0.07808,-0.15616,-3.4825,-15.085,-1.4525,22.184002,26.080002,12.352,concentric,4,3.0,73894.0,257390.0,137041.0,245320.0,150182.0
2026-04-14 17:20:23.370234,224594,1609504717090445,2317060409,-1.22976,-0.199104,-0.199104,-5.73125,-14.23625,-4.29625,22.184002,26.080002,12.352,concentric,4,3.0,73894.0,257390.0,137041.0,245320.0,150182.0
2026-04-14 17:20:23.377729,224595,1609504717099485,2317069090,-1.22,-0.199104,-0.199104,-5.74875,-15.07625,-9.00375,21.696001,25.920002,12.8,concentric,4,3.0,73894.0,257390.0,137041.0,245320.0,150182.0
2026-04-14 17:20:23.386488,224596,1609504717113967,2317084036,-1.179008,-0.189344,0.050752,-3.465,-16.75625,-8.98625,21.296001,26.28,12.880001,concentric,4,3.0,73894.0,257390.0,137041.0,245320.0,150182.0
2026-04-14 17:20:23.397731,224597,1609504717122924,2317092769,-1.179008,-0.189344,0.050752,3.03625,-15.58375,-4.41,21.296001,26.28,12.880001,concentric,4,3.0,73894.0,257390.0,137041.0,245320.0,150182.0
2026-04-14 17:20:23.404954,224598,1609504717131857,2317101478,-1.13216,-0.163968,0.101504,9.45875,-10.75375,-3.10625,21.408,26.416,12.984,concentric,4,3.0,73894.0,257390.0,137041.0,245320.0,150182.0
2026-04-14 17:20:23.420390,224599,1609504717146350,2317116333,-1.13216,-0.163968,0.101504,8.7325,-7.8575,-3.14125,21.408,26.416,12.984,concentric,4,3.0,73894.0,257390.0,137041.0,245320.0,150182.0
2026-04-14 17:20:23.427967,224600,1609504717155293,2317124997,-1.13216,-0.122976,0.050752,3.07125,-8.155,-0.93625,20.968,26.872002,12.408001,concentric,4,3.0,73894.0,257390.0,137041.0,245320.0,150182.0
2026-04-14 17:20:23.468023,224611,1609504717170045,2317140424,-1.13216,-0.122976,0.050752,-0.16625,-8.28625,0.49,20.968,26.872002,12.408001,concentric,4,3.0,67719.0,251588.0,129201.0,240859.0,142173.0
2026-04-14 17:20:23.470540,224612,1609504717179152,2317149132,-1.124352,-0.206912,-0.083936,-1.4,-9.87,-0.84875,21.168001,26.528002,12.648001,concentric,4,3.0,67719.0,251588.0,129201.0,240859.0,142173.0
2026-04-14 17:20:23.473036,224613,1609504717193696,2317162054,-1.167296,-0.148352,-0.072224,0.175,-11.6025,0.30625,20.536001,26.704,13.896001,concentric,4,3.0,67719.0,251588.0,129201.0,240859.0,142173.0
2026-04-14 17:20:23.478026,224614,1609504717202979,2317172837,-1.167296,-0.148352,-0.072224,5.20625,-10.71,2.44125,20.536001,26.704,13.896001,concentric,4,3.0,67719.0,251588.0,129201.0,240859.0,142173.0
2026-04-14 17:20:23.507614,224615,1609504717211898,2317181521,-1.165344,-0.083936,0.07808,7.175,-7.67375,2.135,20.376001,26.552002,15.328001,concentric,4,3.0,67719.0,251588.0,129201.0,240859.0,142173.0
2026-04-14 17:20:23.532662,224616,1609504717226373,2317196388,-1.165344,-0.083936,0.07808,3.49125,-5.60875,1.40875,20.376001,26.552002,15.328001,concentric,4,3.0,67719.0,251588.0,129201.0,240859.0,142173.0
2026-04-14 17:20:23.547979,224617,1609504717235308,2317205064,-1.177056,-0.167872,-0.154208,-1.65375,-5.27625,1.32125,19.720001,26.872002,14.704,concentric,4,3.0,67719.0,251588.0,129201.0,240859.0,142173.0
2026-04-14 17:20:23.549975,224618,1609504717249777,2317219960,-1.177056,-0.167872,-0.154208,-4.4625,-6.25625,0.74375,19.720001,26.872002,14.704,concentric,4,3.0,67719.0,251588.0,129201.0,240859.0,142173.0
2026-04-14 17:20:23.552373,224619,1609504717258666,2317228687,-1.157536,-0.130784,-0.142496,1.28625,-5.90625,1.65375,20.008001,26.744001,14.312,concentric,4,3.0,67719.0,251588.0,129201.0,240859.0,142173.0
2026-04-14 17:20:23.580121,224630,1609504717273734,2317243573,-1.173152,-0.052704,0.072224,7.42,-6.53625,1.5225,20.640001,26.480001,14.088,concentric,4,3.0,62536.0,245491.0,122790.0,236298.0,135525.0
2026-04-14 17:20:23.582315,224631,1609504717282748,2317252320,-1.173152,-0.052704,0.072224,7.4375,-6.60625,1.04125,20.640001,26.480001,14.088,concentric,4,3.0,62536.0,245491.0,122790.0,236298.0,135525.0
2026-04-14 17:20:23.588034,224632,1609504717291783,2317261026,-1.079456,-0.103456,0.16592,3.89375,-5.9675,0.97125,20.640001,26.480001,14.472001,concentric,4,3.0,62536.0,245491.0,122790.0,236298.0,135525.0
2026-04-14 17:20:23.590523,224633,1609504717306281,2317275930,-1.089216,-0.103456,0.16592,-1.715,-5.53875,0.39375,20.448002,26.296001,14.472001,concentric,4,3.0,62536.0,245491.0,122790.0,236298.0,135525.0
2026-04-14 17:20:23.593065,224634,1609504717315329,2317284612,-1.184864,-0.162016,-0.091744,-7.91,-5.46,0.2975,20.288,26.304,13.936001,concentric,4,3.0,62536.0,245491.0,122790.0,236298.0,135525.0
2026-04-14 17:20:23.606056,224635,1609504717329795,2317299527,-1.184864,-0.162016,-0.091744,-8.785,-5.39,2.14375,20.288,26.304,13.936001,concentric,4,3.0,62536.0,245491.0,122790.0,236298.0,135525.0
2026-04-14 17:20:23.614106,224636,1609504717338713,2317308241,-1.149728,-0.158112,-0.115168,-3.47375,-5.43375,4.025,20.912,26.328001,11.728001,concentric,4,3.0,62536.0,245491.0,122790.0,236298.0,135525.0
2026-04-14 17:20:23.620457,224637,1609504717347617,2317316926,-1.149728,-0.158112,-0.115168,3.66625,-4.8825,5.88,20.912,26.328001,11.728001,concentric,4,3.0,62536.0,245491.0,122790.0,236298.0,135525.0
2026-04-14 17:20:23.636808,224638,1609504717362079,2317331864,-1.081408,-0.109312,0.025376,6.99125,-3.85,7.315,21.544,25.528002,12.976001,concentric,4,3.0,62536.0,245491.0,122790.0,236298.0,135525.0
2026-04-14 17:20:23.668010,224649,1609504717371134,2317340582,-1.081408,-0.109312,0.025376,5.1625,-1.9775,7.5075,21.544,25.528002,12.976001,concentric,4,3.0,62213.0,244379.0,122469.0,235607.0,135195.0
2026-04-14 17:20:23.670542,224650,1609504717385776,2317355519,-1.095072,-0.12688,-0.0488,-1.295,-0.1225,7.0875,21.480001,25.784,13.384001,concentric,4,3.0,62213.0,244379.0,122469.0,235607.0,135195.0
2026-04-14 17:20:23.673052,224651,1609504717394737,2317364198,-1.0736,-0.12688,0.0976,-6.83375,1.26875,7.04375,21.192001,25.936,12.896001,concentric,4,3.0,62213.0,244379.0,122469.0,235607.0,135195.0
2026-04-14 17:20:23.676809,224652,1609504717403669,2317372871,-1.0736,-0.12688,0.0976,-9.87,2.1175,6.92125,21.192001,25.936,12.896001,concentric,4,3.0,62213.0,244379.0,122469.0,235607.0,135195.0
2026-04-14 17:20:23.693773,224653,1609504717418081,2317387869,-1.145824,-0.066368,0.050752,-10.1325,1.7675,5.8275,21.288,26.128002,14.256001,concentric,4,3.0,62213.0,244379.0,122469.0,235607.0,135195.0
2026-04-14 17:20:23.700305,224654,1609504717427048,2317396546,-1.145824,-0.066368,0.050752,-5.215,1.72375,5.32,21.288,26.128002,14.256001,concentric,4,3.0,62213.0,244379.0,122469.0,235607.0,135195.0
2026-04-14 17:20:23.716249,224655,1609504717441520,2317411407,-1.077504,-0.062464,0.140544,-1.63625,1.75,2.59875,21.736002,25.984001,12.920001,concentric,4,3.0,62213.0,244379.0,122469.0,235607.0,135195.0
2026-04-14 17:20:23.724132,224656,1609504717450454,2317420125,-1.077504,-0.062464,0.140544,-1.6275,2.275,0.0875,21.736002,25.984001,12.920001,concentric,4,3.0,62213.0,244379.0,122469.0,235607.0,135195.0
2026-04-14 17:20:23.739282,224657,1609504717464930,2317435018,-1.091168,-0.11712,-0.074176,-3.15875,2.7125,-1.2075,21.04,25.936,12.728001,concentric,4,3.0,62213.0,244379.0,122469.0,235607.0,135195.0
2026-04-14 17:20:23.801604,224668,1609504717474364,2317444118,-1.120448,-0.173728,-0.142496,-7.0875,3.045,-3.28125,21.048,26.088001,14.016001,concentric,4,3.0,63735.0,246076.0,124437.0,237031.0,137247.0
2026-04-14 17:20:23.804157,224669,1609504717483335,2317452844,-1.120448,-0.173728,-0.142496,-10.26375,3.2375,-2.66875,21.048,26.088001,14.016001,concentric,4,3.0,63735.0,246076.0,124437.0,237031.0,137247.0
2026-04-14 17:20:23.806659,224670,1609504717497767,2317467727,-1.0736,-0.132736,0.128832,-9.695,4.03375,-0.09625,21.152,26.44,14.040001,concentric,4,3.0,63735.0,246076.0,124437.0,237031.0,137247.0
2026-04-14 17:20:23.809134,224671,1609504717506736,2317476456,-1.0736,-0.132736,0.128832,-5.145,5.04875,1.715,21.152,26.44,14.040001,concentric,4,3.0,63735.0,246076.0,124437.0,237031.0,137247.0
2026-04-14 17:20:23.811776,224672,1609504717521327,2317491395,-1.169248,-0.05856,-0.027328,1.085,6.48375,2.45875,21.264002,26.152,13.976001,concentric,4,3.0,63735.0,246076.0,124437.0,237031.0,137247.0
2026-04-14 17:20:23.813866,224673,1609504717530237,2317500137,-1.169248,-0.05856,-0.027328,3.49125,7.09625,1.0675,21.264002,26.152,13.976001,concentric,4,3.0,63735.0,246076.0,124437.0,237031.0,137247.0
2026-04-14 17:20:23.818828,224674,1609504717544869,2317515011,-1.145824,-0.054656,0.044896,0.81375,7.7,-0.72625,21.176,26.008001,13.472001,concentric,4,3.0,63735.0,246076.0,124437.0,237031.0,137247.0
2026-04-14 17:20:23.827609,224675,1609504717553835,2317523678,-1.118496,-0.18544,-0.167872,-4.62,8.505,-2.17875,21.800001,25.920002,12.056001,concentric,4,3.0,63735.0,246076.0,124437.0,237031.0,137247.0
2026-04-14 17:20:23.835228,224676,1609504717562764,2317532432,-1.118496,-0.18544,-0.167872,-9.6425,8.70625,-3.2375,21.800001,25.920002,12.056001,concentric,4,3.0,63735.0,246076.0,124437.0,237031.0,137247.0
2026-04-14 17:20:23.942736,224687,1609504717577412,2317547464,-1.108736,-0.105408,0.08784,-10.64875,9.30125,-3.31625,22.096,25.816002,12.744,concentric,4,3.0,67968.0,251862.0,129961.0,241890.0,142981.0
2026-04-14 17:20:23.945244,224688,1609504717586389,2317556198,-1.108736,-0.105408,0.08784,-5.71375,10.395,-4.10375,22.096,25.816002,12.744,concentric,4,3.0,67968.0,251862.0,129961.0,241890.0,142981.0
2026-04-14 17:20:23.947695,224689,1609504717600893,2317571066,-1.198528,-0.023424,-0.0976,-3.52625,10.96375,-8.0675,21.432001,25.968,16.072,concentric,4,3.0,67968.0,251862.0,129961.0,241890.0,142981.0
2026-04-14 17:20:23.950175,224690,1609504717609914,2317579781,-1.198528,-0.023424,-0.0976,-6.57125,9.24875,-14.93625,21.432001,25.968,16.072,concentric,4,3.0,67968.0,251862.0,129961.0,241890.0,142981.0
2026-04-14 17:20:23.952558,224691,1609504717618809,2317588476,-1.136064,-0.115168,0.089792,-11.025,6.3875,-21.81375,20.648,26.752,14.632001,concentric,4,3.0,67968.0,251862.0,129961.0,241890.0,142981.0
2026-04-14 17:20:23.955198,224692,1609504717633277,2317603372,-1.136064,-0.115168,0.089792,-10.85875,5.97625,-26.74,20.648,26.752,14.632001,concentric,4,3.0,67968.0,251862.0,129961.0,241890.0,142981.0
2026-04-14 17:20:23.957654,224693,1609504717642197,2317612041,-1.081408,-0.324032,-0.023424,-13.8425,6.53625,-31.473751,20.064001,26.688002,14.480001,concentric,4,3.0,67968.0,251862.0,129961.0,241890.0,142981.0
2026-04-14 17:20:23.960194,224694,1609504717656728,2317626887,-1.143872,-0.31232,-0.18544,-13.440001,7.0175,-30.84375,19.968,26.648,13.440001,concentric,4,3.0,67968.0,251862.0,129961.0,241890.0,142981.0
2026-04-14 17:20:23.962697,224695,1609504717665656,2317635654,-1.143872,-0.31232,-0.18544,-4.2875,8.91625,-26.460001,19.968,26.648,13.440001,concentric,4,3.0,67968.0,251862.0,129961.0,241890.0,142981.0
2026-04-14 17:20:23.999961,224706,1609504717680206,2317648562,-1.126304,-0.177632,0.080032,6.44,12.11875,-24.57,20.480001,26.384,13.368001,concentric,4,3.0,76551.0,260311.0,140306.0,248888.0,154019.0
2026-04-14 17:20:24.002609,224707,1609504717689518,2317659335,-1.126304,-0.177632,0.080032,8.05,14.8925,-25.8825,20.480001,26.384,13.368001,concentric,4,3.0,76551.0,260311.0,140306.0,248888.0,154019.0
2026-04-14 17:20:24.005046,224708,1609504717698559,2317668056,-1.182912,-0.228384,-0.140544,4.0075,18.3925,-27.25625,20.416,26.584002,13.176001,concentric,4,3.0,76551.0,260311.0,140306.0,248888.0,154019.0
2026-04-14 17:20:24.007612,224709,1609504717713171,2317683017,-1.182912,-0.228384,-0.140544,-4.13875,21.95375,-29.47875,20.416,26.584002,13.176001,concentric,4,3.0,76551.0,260311.0,140306.0,248888.0,154019.0
2026-04-14 17:20:24.010151,224710,1609504717722106,2317691714,-1.22,-0.232288,-0.093696,-8.47875,25.655,-30.07375,21.368002,26.752,12.432,concentric,4,3.0,76551.0,260311.0,140306.0,248888.0,154019.0
2026-04-14 17:20:24.012651,224711,1609504717736634,2317706608,-1.2688,-0.257664,-0.249856,-9.4325,28.525,-30.03,20.512001,26.712002,9.952001,concentric,4,3.0,76551.0,260311.0,140306.0,248888.0,154019.0
2026-04-14 17:20:24.020207,224712,1609504717745571,2317715295,-1.2688,-0.257664,-0.249856,-9.7125,30.52875,-30.80875,20.512001,26.712002,9.952001,concentric,4,3.0,76551.0,260311.0,140306.0,248888.0,154019.0
2026-04-14 17:20:24.027709,224713,1609504717754522,2317724001,-1.2688,-0.242048,-0.230336,-6.4225,30.77375,-32.138752,20.512001,26.712002,9.952001,concentric,4,3.0,76551.0,260311.0,140306.0,248888.0,154019.0
2026-04-14 17:20:24.041461,224714,1609504717769003,2317738932,-1.235616,-0.242048,-0.230336,1.44375,28.7875,-34.9125,21.096,26.640001,11.928,concentric,4,3.0,76551.0,260311.0,140306.0,248888.0,154019.0
2026-04-14 17:20:24.070121,224725,1609504717778069,2317747879,-1.253184,-0.169824,-0.066368,9.555,24.815,-37.24,20.28,27.128002,13.096001,concentric,4,3.0,92358.0,273786.0,159355.0,261267.0,173960.0
2026-04-14 17:20:24.073061,224726,1609504717792573,2317762817,-1.253184,-0.169824,-0.066368,8.61875,21.95375,-39.305,20.28,27.128002,13.096001,concentric,4,3.0,92358.0,273786.0,159355.0,261267.0,173960.0
2026-04-14 17:20:24.075553,224727,1609504717801506,2317771534,-1.266848,-0.216672,-0.007808,0.49,22.155,-40.11875,20.736,26.736002,11.960001,concentric,4,3.0,92358.0,273786.0,159355.0,261267.0,173960.0
2026-04-14 17:20:24.087405,224728,1609504717815989,2317784456,-1.223904,-0.40992,-0.197152,-9.58125,24.70125,-37.9575,20.728,26.664001,12.136001,concentric,4,3.0,92358.0,273786.0,159355.0,261267.0,173960.0
2026-04-14 17:20:24.099222,224729,1609504717825297,2317795194,-1.223904,-0.40992,-0.197152,-14.98875,26.64375,-36.8025,20.728,26.664001,12.136001,concentric,4,3.0,92358.0,273786.0,159355.0,261267.0,173960.0
2026-04-14 17:20:24.107494,224730,1609504717834242,2317803895,-1.223904,-0.40992,-0.197152,-10.01875,28.16625,-35.49,20.728,26.664001,12.136001,concentric,4,3.0,92358.0,273786.0,159355.0,261267.0,173960.0
2026-04-14 17:20:24.121454,224731,1609504717848717,2317818728,-1.29808,-0.150304,-0.203008,11.99625,30.7825,-33.78375,19.744001,26.248001,11.504001,concentric,4,3.0,92358.0,273786.0,159355.0,261267.0,173960.0
2026-04-14 17:20:24.130202,224732,1609504717857669,2317827417,-1.202432,-0.08784,-0.031232,21.65625,30.415,-37.8175,19.248001,26.512001,13.336,concentric,4,3.0,92358.0,273786.0,159355.0,261267.0,173960.0
2026-04-14 17:20:24.171202,224743,1609504717872156,2317842252,-1.202432,-0.08784,-0.031232,12.0225,28.44625,-41.46625,19.248001,26.512001,13.336,concentric,4,3.0,107562.0,286894.0,176838.0,273464.0,192052.0
2026-04-14 17:20:24.175454,224744,1609504717881140,2317850999,-1.255136,-0.277184,-0.093696,-5.55625,27.95625,-44.75625,19.936,26.392002,12.416,concentric,4,3.0,107562.0,286894.0,176838.0,273464.0,192052.0
2026-04-14 17:20:24.179915,224745,1609504717895698,2317865978,-1.300032,-0.296704,-0.206912,-19.678751,27.71125,-44.54625,19.936,28.44,13.56,concentric,4,3.0,107562.0,286894.0,176838.0,273464.0,192052.0
2026-04-14 17:20:24.181477,224746,1609504717904660,2317874658,-1.300032,-0.296704,-0.206912,-13.53625,30.35375,-38.5175,19.2,26.752,13.56,concentric,4,3.0,107562.0,286894.0,176838.0,273464.0,192052.0
2026-04-14 17:20:24.186337,224747,1609504717913583,2317883372,-1.300032,-0.296704,-0.206912,-1.11125,31.6225,-37.3625,19.2,26.752,13.56,concentric,4,3.0,107562.0,286894.0,176838.0,273464.0,192052.0
2026-04-14 17:20:24.201445,224748,1609504717928050,2317898249,-1.262944,-0.101504,-0.050752,9.3275,31.00125,-36.75,19.592001,26.752,13.344001,concentric,4,3.0,107562.0,286894.0,176838.0,273464.0,192052.0
2026-04-14 17:20:24.210208,224749,1609504717937041,2317906925,-1.362496,-0.138592,-0.115168,10.84125,28.84,-38.745,18.336,26.848001,13.072001,concentric,4,3.0,107562.0,286894.0,176838.0,273464.0,192052.0
2026-04-14 17:20:24.243670,224750,1609504717951526,2317921829,-1.362496,-0.138592,-0.115168,4.6725,25.165,-40.85375,18.336,26.848001,13.072001,eccentric,4,3.0,107562.0,286894.0,176838.0,273464.0,192052.0
2026-04-14 17:20:24.269477,224751,1609504717960428,2317930486,-1.28832,-0.333792,-0.103456,-3.2025,25.33125,-38.4125,19.264002,27.264002,14.160001,eccentric,4,3.0,107562.0,286894.0,176838.0,273464.0,192052.0
2026-04-14 17:20:24.321411,224762,1609504717975351,2317945421,-1.28832,-0.333792,-0.103456,-10.823751,29.26875,-34.3525,19.264002,27.264002,14.160001,eccentric,4,3.0,114151.0,295768.0,183988.0,280744.0,199321.0
2026-04-14 17:20:24.323953,224763,1609504717984353,2317954142,-1.313696,-0.134688,-0.134688,-9.03,34.34375,-28.848751,19.088001,27.744001,13.200001,eccentric,4,3.0,114151.0,295768.0,183988.0,280744.0,199321.0
2026-04-14 17:20:24.326459,224764,1609504717993256,2317962790,-1.313696,-0.134688,-0.134688,2.87,37.1,-26.565,19.088001,27.744001,13.200001,eccentric,4,3.0,114151.0,295768.0,183988.0,280744.0,199321.0
2026-04-14 17:20:24.328903,224765,1609504718007765,2317977748,-1.329312,0.027328,-0.095648,9.59875,35.4375,-28.56,19.496,28.44,14.480001,eccentric,4,3.0,114151.0,295768.0,183988.0,280744.0,199321.0
2026-04-14 17:20:24.331464,224766,1609504718016680,2317986483,-1.292224,-0.210816,-0.249856,6.81625,32.69875,-33.18,19.496,29.192001,14.472001,eccentric,4,3.0,114151.0,295768.0,183988.0,280744.0,199321.0
2026-04-14 17:20:24.333913,224767,1609504718031367,2318001400,-1.292224,-0.210816,-0.249856,-1.33875,29.155,-39.515,19.288,29.192001,14.472001,eccentric,4,3.0,114151.0,295768.0,183988.0,280744.0,199321.0
2026-04-14 17:20:24.336519,224768,1609504718040326,2318010192,-1.18096,-0.327936,-0.12688,-8.05875,26.18875,-39.1825,19.368,29.720001,14.080001,eccentric,4,3.0,114151.0,295768.0,183988.0,280744.0,199321.0
2026-04-14 17:20:24.338939,224769,1609504718049257,2318018880,-1.18096,-0.327936,-0.12688,-3.395,28.07875,-32.8125,19.368,29.720001,14.080001,eccentric,4,3.0,114151.0,295768.0,183988.0,280744.0,199321.0
2026-04-14 17:20:24.341538,224770,1609504718063814,2318033804,-1.29808,-0.12688,-0.080032,-0.5775,28.7,-25.935,19.664001,30.840002,13.776001,eccentric,4,3.0,114151.0,295768.0,183988.0,280744.0,199321.0
2026-04-14 17:20:24.346524,224771,1609504718072727,2318042525,-1.29808,-0.12688,-0.080032,5.3025,29.9075,-18.9875,19.664001,30.840002,13.776001,eccentric,4,3.0,114151.0,295768.0,183988.0,280744.0,199321.0
2026-04-14 17:20:24.373848,224782,1609504718087290,2318057592,-1.218048,0.001952,-0.11712,8.8025,29.19875,-21.95375,19.960001,30.560001,13.160001,eccentric,4,3.0,116802.0,300606.0,187858.0,284962.0,203062.0
2026-04-14 17:20:24.376404,224783,1609504718096327,2318066276,-1.218048,0.001952,-0.11712,11.83,25.61125,-28.0525,19.960001,30.560001,13.160001,eccentric,4,3.0,116802.0,300606.0,187858.0,284962.0,203062.0
2026-04-14 17:20:24.406484,224784,1609504718110853,2318079249,-1.147776,-0.0976,-0.07808,13.34375,21.93625,-32.7425,19.632002,31.248001,14.064001,eccentric,4,3.0,116802.0,300606.0,187858.0,284962.0,203062.0
2026-04-14 17:20:24.416337,224785,1609504718120040,2318090045,-1.136064,-0.347456,-0.208864,-2.8175,19.18,-39.2875,18.584002,31.768002,12.84,eccentric,4,3.0,116802.0,300606.0,187858.0,284962.0,203062.0
2026-04-14 17:20:24.418985,224786,1609504718128962,2318098718,-1.136064,-0.347456,-0.208864,-12.34625,21.035,-35.6475,18.584002,31.768002,12.84,eccentric,4,3.0,116802.0,300606.0,187858.0,284962.0,203062.0
2026-04-14 17:20:24.421494,224787,1609504718143459,2318113574,-1.184864,-0.226432,-0.269376,-7.00875,25.366251,-29.51375,19.064001,31.344002,12.440001,eccentric,4,3.0,116802.0,300606.0,187858.0,284962.0,203062.0
2026-04-14 17:20:24.426486,224788,1609504718152391,2318122240,-1.184864,-0.226432,-0.269376,8.26,24.491251,-22.4875,19.064001,31.344002,12.440001,eccentric,4,3.0,116802.0,300606.0,187858.0,284962.0,203062.0
2026-04-14 17:20:24.440218,224789,1609504718166868,2318137179,-1.145824,0.10736,-0.140544,25.69875,22.39125,-24.64875,18.936,31.088001,11.416,eccentric,4,3.0,116802.0,300606.0,187858.0,284962.0,203062.0
2026-04-14 17:20:24.472620,224800,1609504718175825,2318146011,-1.145824,0.10736,-0.140544,25.13,17.465,-35.1925,18.936,31.088001,11.416,eccentric,4,3.0,114557.0,302742.0,184638.0,286133.0,199678.0
2026-04-14 17:20:24.475019,224801,1609504718184816,2318154735,-1.089216,-0.171776,-0.21472,9.45875,13.8425,-42.945,18.096,30.648,10.672001,eccentric,4,3.0,114557.0,302742.0,184638.0,286133.0,199678.0
2026-04-14 17:20:24.477640,224802,1609504718199356,2318169696,-1.100928,-0.427488,-0.160064,-5.845,14.27125,-49.14875,18.368,31.04,10.248,eccentric,4,3.0,114557.0,302742.0,184638.0,286133.0,199678.0
2026-04-14 17:20:24.482575,224803,1609504718208370,2318178400,-1.100928,-0.427488,-0.160064,-8.72375,20.4225,-44.31875,18.368,31.04,10.248,eccentric,4,3.0,114557.0,302742.0,184638.0,286133.0,199678.0
2026-04-14 17:20:24.495137,224804,1609504718222857,2318191249,-1.182912,-0.02928,-0.242048,0.76125,25.3225,-34.0375,17.832,31.096,10.64,eccentric,4,3.0,114557.0,302742.0,184638.0,286133.0,199678.0
2026-04-14 17:20:24.506471,224805,1609504718232070,2318201994,-1.182912,-0.02928,-0.242048,17.7275,26.74875,-29.89875,17.832,31.096,10.64,eccentric,4,3.0,114557.0,302742.0,184638.0,286133.0,199678.0
2026-04-14 17:20:24.518981,224806,1609504718246535,2318214892,-1.106784,-0.017568,-0.40992,25.76,23.07375,-35.23625,16.808,31.088001,10.68,eccentric,4,3.0,114557.0,302742.0,184638.0,286133.0,199678.0
2026-04-14 17:20:24.531468,224807,1609504718255702,2318225683,-1.106784,-0.017568,-0.40992,17.47375,15.54,-47.39875,16.808,31.088001,10.68,eccentric,4,3.0,114557.0,302742.0,184638.0,286133.0,199678.0
2026-04-14 17:20:24.537722,224808,1609504718264601,2318234358,-0.993568,-0.249856,0.00976,9.31,10.535,-50.25125,16.256,31.016,11.240001,eccentric,4,3.0,114557.0,302742.0,184638.0,286133.0,199678.0
2026-04-14 17:20:24.573682,224819,1609504718279644,2318249260,-1.106784,-0.271328,-0.17568,6.8075,12.81875,-49.875,16.224,30.856,11.536,eccentric,4,3.0,108226.0,305624.0,174920.0,286426.0,190618.0
2026-04-14 17:20:24.576480,224820,1609504718288658,2318258092,-1.106784,-0.271328,-0.17568,4.4275,15.1375,-42.455,16.224,30.856,11.536,eccentric,4,3.0,108226.0,305624.0,174920.0,286426.0,190618.0
2026-04-14 17:20:24.578886,224821,1609504718303215,2318273018,-1.01504,0.001952,-0.179584,14.525,15.6625,-33.145,14.648001,31.000002,11.848001,eccentric,4,3.0,108226.0,305624.0,174920.0,286426.0,190618.0
2026-04-14 17:20:24.585219,224822,1609504718312127,2318281698,-1.01504,0.001952,-0.179584,25.9525,10.26375,-36.1725,14.648001,31.000002,11.848001,eccentric,4,3.0,108226.0,305624.0,174920.0,286426.0,190618.0
2026-04-14 17:20:24.610245,224823,1609504718321073,2318290390,-0.989664,-0.177632,-0.128832,26.5825,2.31875,-40.2675,13.968,30.968002,12.152,eccentric,4,3.0,108226.0,305624.0,174920.0,286426.0,190618.0
2026-04-14 17:20:24.635216,224824,1609504718335553,2318305337,-0.989664,-0.177632,-0.128832,16.415,-2.40625,-46.97,13.968,30.968002,12.152,eccentric,4,3.0,108226.0,305624.0,174920.0,286426.0,190618.0
2026-04-14 17:20:24.641421,224825,1609504718344441,2318313998,-0.915488,-0.244,-0.011712,13.93,-3.2025,-44.07375,13.504001,31.448002,11.976001,eccentric,4,3.0,108226.0,305624.0,174920.0,286426.0,190618.0
2026-04-14 17:20:24.642332,224826,1609504718358906,2318328870,-0.976,-0.191296,-0.363072,17.01875,-1.225,-39.50625,13.504001,30.984001,12.064,eccentric,4,3.0,108226.0,305624.0,174920.0,286426.0,190618.0
2026-04-14 17:20:24.649384,224827,1609504718367824,2318337568,-0.976,-0.191296,-0.363072,11.935,-1.9075,-34.107502,12.856001,30.984001,12.064,eccentric,4,3.0,108226.0,305624.0,174920.0,286426.0,190618.0
2026-04-14 17:20:24.673966,224838,1609504718382548,2318352550,-0.796416,-0.124928,-0.20496,20.57125,-4.55875,-27.125,12.56,31.240002,13.240001,eccentric,4,3.0,102450.0,305085.0,166360.0,285000.0,184006.0
2026-04-14 17:20:24.676498,224839,1609504718391638,2318361287,-0.796416,-0.124928,-0.20496,27.58,-9.28375,-29.70625,12.56,31.240002,13.240001,eccentric,4,3.0,102450.0,305085.0,166360.0,285000.0,184006.0
2026-04-14 17:20:24.679022,224840,1609504718400690,2318369962,-0.75152,-0.181536,-0.015616,25.13875,-14.665,-31.4475,12.56,30.616001,11.64,eccentric,4,3.0,102450.0,305085.0,166360.0,285000.0,184006.0
2026-04-14 17:20:24.690213,224841,1609504718415196,2318384942,-0.75152,-0.181536,-0.015616,20.79875,-17.26375,-35.11375,12.56,30.616001,11.64,eccentric,4,3.0,102450.0,305085.0,166360.0,285000.0,184006.0
2026-04-14 17:20:24.696485,224842,1609504718424136,2318393660,-0.630496,-0.413824,-0.140544,18.38375,-19.915,-33.53875,10.952001,30.408,11.552001,eccentric,4,3.0,102450.0,305085.0,166360.0,285000.0,184006.0
2026-04-14 17:20:24.712736,224843,1609504718438622,2318408606,-0.630496,-0.413824,-0.046848,18.45375,-19.8275,-31.0625,10.952001,30.408,11.552001,eccentric,4,3.0,102450.0,305085.0,166360.0,285000.0,184006.0
2026-04-14 17:20:24.721505,224844,1609504718447576,2318417306,-0.669536,-0.099552,-0.044896,20.18625,-22.3475,-24.91125,11.8,30.160002,11.88,eccentric,4,3.0,102450.0,305085.0,166360.0,285000.0,184006.0
2026-04-14 17:20:24.731497,224845,1609504718456500,2318425999,-0.669536,-0.099552,-0.044896,30.45,-27.93,-20.90375,11.8,30.160002,11.88,eccentric,4,3.0,102450.0,305085.0,166360.0,285000.0,184006.0
2026-04-14 17:20:24.746307,224846,1609504718470955,2318440812,-0.681248,-0.201056,-0.103456,25.5675,-30.05625,-25.147501,10.928,30.064001,12.712001,eccentric,4,3.0,102450.0,305085.0,166360.0,285000.0,184006.0
2026-04-14 17:20:24.773849,224857,1609504718480499,2318449709,-0.609024,-0.406016,-0.171776,17.2025,-30.1,-26.0575,10.568001,29.832,13.504001,eccentric,4,3.0,94765.0,305367.0,156497.0,284944.0,174058.0
2026-04-14 17:20:24.776509,224858,1609504718495099,2318464705,-0.609024,-0.406016,-0.171776,17.29,-25.2,-25.94375,10.568001,29.832,13.504001,eccentric,4,3.0,94765.0,305367.0,156497.0,284944.0,174058.0
2026-04-14 17:20:24.778766,224859,1609504718504145,2318473465,-0.476288,-0.411872,-0.052704,20.25625,-18.52375,-19.27625,9.84,30.080002,14.000001,eccentric,4,3.0,94765.0,305367.0,156497.0,284944.0,174058.0
2026-04-14 17:20:24.786471,224860,1609504718513091,2318482176,-0.476288,-0.411872,-0.052704,15.417501,-11.1475,-17.0975,9.84,30.080002,14.000001,eccentric,4,3.0,94765.0,305367.0,156497.0,284944.0,174058.0
2026-04-14 17:20:24.800160,224861,1609504718527532,2318497056,-0.525088,-0.208864,-0.177632,10.395,-9.730001,-16.52,9.632001,30.248001,14.000001,eccentric,4,3.0,94765.0,305367.0,156497.0,284944.0,174058.0
2026-04-14 17:20:24.810081,224862,1609504718536443,2318505733,-0.525088,-0.208864,-0.177632,11.27875,-9.45,-18.73375,9.632001,30.248001,14.000001,eccentric,4,3.0,94765.0,305367.0,156497.0,284944.0,174058.0
2026-04-14 17:20:24.826194,224863,1609504718550930,2318520672,-0.50752,-0.314272,0.130784,7.65625,-11.2875,-23.555,9.808001,29.896002,12.912001,eccentric,4,3.0,94765.0,305367.0,156497.0,284944.0,174058.0
2026-04-14 17:20:24.832743,224864,1609504718559852,2318529386,-0.648064,-0.327936,-0.025376,11.71625,-7.34125,-24.535,9.808001,29.896002,14.960001,eccentric,4,3.0,94765.0,305367.0,156497.0,284944.0,174058.0
2026-04-14 17:20:24.847917,224865,1609504718574333,2318544255,-0.650016,-0.327936,-0.025376,6.29125,-1.63625,-23.37125,8.76,29.912,14.336,eccentric,4,3.0,94765.0,305367.0,156497.0,284944.0,174058.0
2026-04-14 17:20:24.875620,224876,1609504718583329,2318552959,-0.55632,-0.251808,0.064416,12.04,2.28375,-22.435,9.264001,30.152002,14.480001,eccentric,4,3.0,90476.0,303633.0,151321.0,283191.0,169065.0
2026-04-14 17:20:24.878094,224877,1609504718592313,2318561693,-0.55632,-0.251808,0.064416,10.85875,4.54125,-23.695,9.264001,30.152002,14.480001,eccentric,4,3.0,90476.0,303633.0,151321.0,283191.0,169065.0
2026-04-14 17:20:24.880581,224878,1609504718606923,2318576614,-0.610976,-0.30256,0.064416,2.555,4.795,-22.88125,8.976001,29.904001,13.272,eccentric,4,3.0,90476.0,303633.0,151321.0,283191.0,169065.0
2026-04-14 17:20:24.890547,224879,1609504718615856,2318585311,-0.610976,-0.30256,0.064416,1.70625,4.3575,-22.89875,8.976001,29.904001,13.272,eccentric,4,3.0,90476.0,303633.0,151321.0,283191.0,169065.0
2026-04-14 17:20:24.906794,224880,1609504718630337,2318600217,-0.710528,-0.226432,-0.056608,5.4425,3.675,-20.7025,8.352,29.832,13.392,eccentric,4,3.0,90476.0,303633.0,151321.0,283191.0,169065.0
2026-04-14 17:20:24.913023,224881,1609504718639348,2318608995,-0.710528,-0.226432,-0.056608,8.11125,4.99625,-19.9675,8.352,29.832,13.392,eccentric,4,3.0,90476.0,303633.0,151321.0,283191.0,169065.0
2026-04-14 17:20:24.929432,224882,1609504718653845,2318623904,-0.66368,-0.206912,0.265472,2.72125,9.38875,-19.005,8.08,30.072,14.944,eccentric,4,3.0,90476.0,303633.0,151321.0,283191.0,169065.0
2026-04-14 17:20:24.936762,224883,1609504718662798,2318632584,-0.636352,-0.3416,-0.02928,0.67375,15.28625,-17.14125,9.184,29.856,13.232,eccentric,4,3.0,90476.0,303633.0,151321.0,283191.0,169065.0
2026-04-14 17:20:24.951358,224884,1609504718671819,2318641253,-0.636352,-0.3416,-0.02928,-12.39875,21.02625,-14.02625,9.184,29.856,13.232,eccentric,4,3.0,90476.0,303633.0,151321.0,283191.0,169065.0
2026-04-14 17:20:25.046766,224895,1609504718686686,2318656195,-0.685152,-0.26352,0.003904,-19.3725,22.70625,-7.83125,8.432,30.224,14.088,eccentric,4,3.0,96293.0,303091.0,158640.0,282907.0,177394.0
2026-04-14 17:20:25.059251,224896,1609504718695577,2318664870,-0.685152,-0.26352,0.003904,-16.73,22.3125,-4.61125,8.432,30.224,14.088,eccentric,4,3.0,96293.0,303091.0,158640.0,282907.0,177394.0
2026-04-14 17:20:25.061785,224897,1609504718709991,2318679775,-0.77104,-0.18544,0.05856,-16.73875,19.50375,-1.23375,8.816,30.256,14.200001,eccentric,4,3.0,96293.0,303091.0,158640.0,282907.0,177394.0
2026-04-14 17:20:25.063743,224898,1609504718718912,2318688465,-0.77104,-0.18544,0.05856,-12.22375,15.8725,1.61875,8.816,30.256,14.200001,eccentric,4,3.0,96293.0,303091.0,158640.0,282907.0,177394.0
2026-04-14 17:20:25.066290,224899,1609504718733376,2318703325,-0.776896,-0.3416,-0.216672,-12.1975,12.775,3.0625,8.96,30.088001,12.792001,eccentric,4,3.0,96293.0,303091.0,158640.0,282907.0,177394.0
2026-04-14 17:20:25.068891,224900,1609504718742357,2318712023,-0.776896,-0.349408,-0.130784,-22.8725,10.26375,7.41125,10.296001,30.136002,13.920001,eccentric,4,3.0,96293.0,303091.0,158640.0,282907.0,177394.0
2026-04-14 17:20:25.071660,224901,1609504718751438,2318720747,-0.776896,-0.349408,-0.130784,-26.88875,9.05625,15.75,10.296001,30.136002,13.920001,eccentric,4,3.0,96293.0,303091.0,158640.0,282907.0,177394.0
2026-04-14 17:20:25.074290,224902,1609504718765914,2318735672,-0.7808,-0.222528,-0.20496,-32.17375,9.1525,20.37,10.816001,30.752,11.896001,eccentric,4,3.0,96293.0,303091.0,158640.0,282907.0,177394.0
2026-04-14 17:20:25.076813,224903,1609504718774836,2318744336,-0.7808,-0.222528,-0.20496,-31.815,8.51375,24.87625,10.816001,30.752,11.896001,eccentric,4,3.0,96293.0,303091.0,158640.0,282907.0,177394.0
2026-04-14 17:20:25.103745,224914,1609504718789375,2318759533,-0.806176,-0.271328,-0.13664,-27.71125,6.8425,25.6725,10.960001,30.808,11.816001,eccentric,4,3.0,97927.0,304556.0,160933.0,284416.0,179258.0
2026-04-14 17:20:25.109219,224915,1609504718798339,2318768250,-0.806176,-0.271328,-0.13664,-28.00875,3.31625,28.28875,10.960001,30.808,11.816001,eccentric,4,3.0,97927.0,304556.0,160933.0,284416.0,179258.0
2026-04-14 17:20:25.112066,224916,1609504718807302,2318776967,-0.892064,-0.240096,0.044896,-27.991251,2.73875,30.9925,11.672001,31.032001,12.048,eccentric,4,3.0,97927.0,304556.0,160933.0,284416.0,179258.0
2026-04-14 17:20:25.112146,224917,1609504718821910,2318791872,-0.954528,-0.269376,-0.335744,-35.18375,5.6525,34.5625,11.672001,31.072002,10.552,eccentric,4,3.0,97927.0,304556.0,160933.0,284416.0,179258.0
2026-04-14 17:20:25.114108,224918,1609504718830939,2318800571,-0.954528,-0.269376,-0.335744,-44.1875,6.825,38.15875,12.104001,31.072002,10.552,eccentric,4,3.0,97927.0,304556.0,160933.0,284416.0,179258.0
2026-04-14 17:20:25.119244,224919,1609504718845445,2318815515,-0.964288,-0.290848,-0.320128,-42.875,6.81625,42.4025,13.048,31.04,11.032001,eccentric,4,3.0,97927.0,304556.0,160933.0,284416.0,179258.0
2026-04-14 17:20:25.127866,224920,1609504718854365,2318824207,-0.964288,-0.290848,-0.320128,-41.107502,2.5375,48.51,13.048,31.04,11.032001,eccentric,4,3.0,97927.0,304556.0,160933.0,284416.0,179258.0
2026-04-14 17:20:25.142990,224921,1609504718868826,2318839083,-0.977952,-0.162016,-0.103456,-37.58125,-4.13,55.13375,13.024,31.440002,10.896001,eccentric,4,3.0,97927.0,304556.0,160933.0,284416.0,179258.0
2026-04-14 17:20:25.178075,224932,1609504718877809,2318847822,-0.977952,-0.162016,-0.103456,-33.53,-6.9125,55.46625,13.024,31.440002,10.896001,eccentric,4,3.0,97969.0,301528.0,161701.0,281632.0,178953.0
2026-04-14 17:20:25.180463,224933,1609504718886747,2318856588,-0.909632,-0.27328,-0.040992,-38.6925,-9.7825,57.365,14.176001,31.376001,11.312,eccentric,4,3.0,97969.0,301528.0,161701.0,281632.0,178953.0
2026-04-14 17:20:25.182584,224934,1609504718901283,2318871533,-0.909632,-0.27328,-0.040992,-42.201252,-9.6775,59.05375,14.176001,31.376001,11.312,eccentric,4,3.0,97969.0,301528.0,161701.0,281632.0,178953.0
2026-04-14 17:20:25.184982,224935,1609504718910276,2318880256,-0.979904,-0.140544,-0.013664,-41.265,-9.9575,61.08375,14.248001,32.008003,9.848001,eccentric,4,3.0,97969.0,301528.0,161701.0,281632.0,178953.0
2026-04-14 17:20:25.198029,224936,1609504718924769,2318893158,-1.020896,-0.1952,-0.150304,-37.275,-12.04,61.145,16.08,31.568,9.952001,eccentric,4,3.0,97969.0,301528.0,161701.0,281632.0,178953.0
2026-04-14 17:20:25.206317,224937,1609504718933964,2318903921,-1.020896,-0.1952,-0.150304,-35.35875,-14.7175,57.260002,16.08,31.568,9.952001,eccentric,4,3.0,97969.0,301528.0,161701.0,281632.0,178953.0
2026-04-14 17:20:25.221940,224938,1609504718948414,2318916762,-1.057984,-0.310368,-0.259616,-36.5925,-18.89125,56.857502,16.784,31.136002,9.76,eccentric,4,3.0,97969.0,301528.0,161701.0,281632.0,178953.0
2026-04-14 17:20:25.232546,224939,1609504718957574,2318927495,-1.057984,-0.310368,-0.259616,-36.16375,-22.0325,62.0375,16.784,31.136002,9.76,eccentric,4,3.0,97969.0,301528.0,161701.0,281632.0,178953.0
2026-04-14 17:20:25.240488,224940,1609504718966462,2318936185,-1.061888,-0.103456,-0.15616,-35.175,-22.435,65.58125,17.696001,31.560001,10.424001,eccentric,4,3.0,97969.0,301528.0,161701.0,281632.0,178953.0
2026-04-14 17:20:25.279275,224951,1609504718981038,2318951121,-1.061888,-0.103456,-0.15616,-33.6,-23.2925,65.152504,17.696001,31.560001,10.424001,eccentric,4,3.0,101698.0,296916.0,167145.0,277771.0,183583.0
2026-04-14 17:20:25.281829,224952,1609504718990085,2318959922,-1.079456,-0.109312,0.046848,-27.95625,-25.6725,62.7725,18.432001,30.968002,9.368,eccentric,4,3.0,101698.0,296916.0,167145.0,277771.0,183583.0
2026-04-14 17:20:25.283746,224953,1609504719004640,2318974841,-1.057984,-0.359168,-0.247904,-26.67,-24.57875,56.65625,17.712,31.696001,10.968,eccentric,4,3.0,101698.0,296916.0,167145.0,277771.0,183583.0
2026-04-14 17:20:25.286804,224954,1609504719013560,2318983637,-1.057984,-0.359168,-0.247904,-34.08125,-23.8175,54.08375,17.712,31.696001,10.968,eccentric,4,3.0,101698.0,296916.0,167145.0,277771.0,183583.0
2026-04-14 17:20:25.296810,224955,1609504719022564,2318992378,-1.057984,-0.359168,-0.17568,-31.61375,-25.9875,59.2375,17.712,31.696001,10.968,eccentric,4,3.0,101698.0,296916.0,167145.0,277771.0,183583.0
2026-04-14 17:20:25.312568,224956,1609504719037026,2319007250,-1.061888,-0.163968,-0.17568,-22.6275,-25.655,63.49875,19.640001,31.048002,7.416,eccentric,4,3.0,101698.0,296916.0,167145.0,277771.0,183583.0
2026-04-14 17:20:25.320371,224957,1609504719045943,2319015917,-1.23952,-0.142496,-0.378688,-26.17125,-26.915,62.01125,20.504002,31.264002,10.128,eccentric,4,3.0,101698.0,296916.0,167145.0,277771.0,183583.0
2026-04-14 17:20:25.345599,224958,1609504719060392,2319028754,-1.23952,-0.142496,-0.378688,-29.303751,-31.07125,56.23625,20.504002,31.264002,10.128,eccentric,4,3.0,101698.0,296916.0,167145.0,277771.0,183583.0
2026-04-14 17:20:25.370604,224959,1609504719069562,2319039509,-1.163392,-0.255712,-0.208864,-29.58375,-32.12125,46.64625,20.664001,30.784002,10.512,eccentric,4,3.0,101698.0,296916.0,167145.0,277771.0,183583.0
2026-04-14 17:20:25.403263,224970,1609504719084182,2319054493,-1.126304,-0.18544,-0.222528,-22.995,-27.04625,47.94125,20.320002,31.368002,12.328001,eccentric,4,3.0,101969.0,292010.0,168015.0,273850.0,183851.0
2026-04-14 17:20:25.403649,224971,1609504719093140,2319063147,-1.126304,-0.18544,-0.222528,-23.56375,-23.40625,48.965,20.320002,31.368002,12.328001,eccentric,4,3.0,101969.0,292010.0,168015.0,273850.0,183851.0
2026-04-14 17:20:25.404963,224972,1609504719102104,2319071830,-1.126304,-0.18544,-0.222528,-28.21875,-22.14625,51.37125,20.320002,31.368002,12.328001,eccentric,4,3.0,101969.0,292010.0,168015.0,273850.0,183851.0
2026-04-14 17:20:25.413192,224973,1609504719116623,2319086810,-1.313696,-0.0976,-0.148352,-28.69125,-24.29,51.0475,20.912,31.112001,11.184001,eccentric,4,3.0,101969.0,292010.0,168015.0,273850.0,183851.0
2026-04-14 17:20:25.413285,224974,1609504719125561,2319095491,-1.243424,-0.140544,-0.472384,-24.8325,-29.82,44.07375,20.776001,30.608002,12.568001,eccentric,4,3.0,101969.0,292010.0,168015.0,273850.0,183851.0
2026-04-14 17:20:25.414894,224975,1609504719140135,2319110384,-1.243424,-0.140544,-0.472384,-12.1625,-30.9225,37.96625,20.776001,30.608002,12.568001,eccentric,4,3.0,101969.0,292010.0,168015.0,273850.0,183851.0
2026-04-14 17:20:25.423825,224976,1609504719149095,2319119056,-1.143872,-0.212768,0.076128,-4.68125,-33.64375,39.2,21.344002,30.320002,13.160001,eccentric,4,3.0,101969.0,292010.0,168015.0,273850.0,183851.0
2026-04-14 17:20:25.436421,224977,1609504719163608,2319133967,-1.143872,-0.16592,-0.144448,-12.2675,-30.77375,41.93,21.344002,30.320002,13.160001,eccentric,4,3.0,101969.0,292010.0,168015.0,273850.0,183851.0
2026-04-14 17:20:25.446497,224978,1609504719172545,2319142657,-1.221952,-0.163968,-0.144448,-17.19375,-24.84125,44.37125,21.832,30.080002,12.408001,eccentric,4,3.0,101969.0,292010.0,168015.0,273850.0,183851.0
2026-04-14 17:20:25.482528,224989,1609504719181871,2319151506,-1.221952,-0.163968,-0.144448,-17.75375,-20.3875,47.075,21.832,30.080002,12.408001,eccentric,4,3.0,102312.0,287353.0,169543.0,270476.0,184837.0
2026-04-14 17:20:25.485008,224990,1609504719196414,2319166480,-1.319552,-0.050752,-0.206912,-20.685,-18.55,43.37375,21.584002,29.224,11.64,eccentric,4,3.0,102312.0,287353.0,169543.0,270476.0,184837.0
2026-04-14 17:20:25.487785,224991,1609504719205357,2319175171,-1.21024,-0.124928,-0.0488,-16.14375,-18.38375,38.24625,20.408,28.800001,11.848001,eccentric,4,3.0,102312.0,287353.0,169543.0,270476.0,184837.0
2026-04-14 17:20:25.495305,224992,1609504719219866,2319190132,-1.21024,-0.124928,-0.0488,-9.7825,-20.81625,35.1225,20.408,28.800001,11.848001,eccentric,4,3.0,102312.0,287353.0,169543.0,270476.0,184837.0
2026-04-14 17:20:25.502668,224993,1609504719228760,2319198806,-1.159488,-0.17568,-0.30256,-11.96125,-25.45375,31.71875,22.216002,28.000002,11.824,eccentric,4,3.0,102312.0,287353.0,169543.0,270476.0,184837.0
2026-04-14 17:20:25.513940,224994,1609504719237749,2319207495,-1.159488,-0.17568,-0.30256,-9.56375,-26.145,31.491251,22.216002,28.000002,11.824,eccentric,4,3.0,102312.0,287353.0,169543.0,270476.0,184837.0
2026-04-14 17:20:25.525224,224995,1609504719252237,2319222398,-1.325408,-0.044896,-0.062464,-3.05375,-30.45,32.62875,22.352001,27.304,12.816001,eccentric,4,3.0,102312.0,287353.0,169543.0,270476.0,184837.0
2026-04-14 17:20:25.533862,224996,1609504719261177,2319231116,-1.325408,-0.044896,-0.062464,6.30875,-31.885,33.565,22.352001,27.304,12.816001,eccentric,4,3.0,102312.0,287353.0,169543.0,270476.0,184837.0
2026-04-14 17:20:25.549958,224997,1609504719275664,2319246001,-1.243424,-0.085888,-0.35136,2.8175,-30.380001,25.6025,21.68,27.112001,12.936001,eccentric,4,3.0,102312.0,287353.0,169543.0,270476.0,184837.0
2026-04-14 17:20:25.577750,225008,1609504719285117,2319254756,-1.110688,-0.085888,0.109312,2.10875,-33.15375,25.57625,21.608002,26.624,12.320001,eccentric,4,3.0,96754.0,279205.0,162920.0,264839.0,177092.0
2026-04-14 17:20:25.586164,225009,1609504719294102,2319263501,-1.110688,-0.085888,0.109312,4.55,-30.45875,28.1575,21.608002,26.624,12.320001,eccentric,4,3.0,96754.0,279205.0,162920.0,264839.0,177092.0
2026-04-14 17:20:25.587560,225010,1609504719308606,2319278438,-1.124352,-0.140544,-0.06832,-4.9525,-24.68375,22.995,21.960001,26.264002,11.408001,eccentric,4,3.0,96754.0,279205.0,162920.0,264839.0,177092.0
2026-04-14 17:20:25.594319,225011,1609504719317500,2319287143,-1.124352,-0.140544,-0.06832,-9.03,-21.4375,25.38375,21.960001,26.264002,11.408001,eccentric,4,3.0,96754.0,279205.0,162920.0,264839.0,177092.0
2026-04-14 17:20:25.606328,225012,1609504719331984,2319302019,-1.192672,-0.070272,-0.220576,-1.88125,-20.64125,26.635,22.536001,25.832,11.264001,eccentric,4,3.0,96754.0,279205.0,162920.0,264839.0,177092.0
2026-04-14 17:20:25.614179,225013,1609504719340908,2319310749,-1.192672,-0.070272,-0.220576,8.295,-19.31125,23.2225,22.536001,25.832,11.264001,eccentric,4,3.0,96754.0,279205.0,162920.0,264839.0,177092.0
2026-04-14 17:20:25.630535,225014,1609504719355414,2319325641,-1.276608,-0.111264,-0.28304,6.0025,-21.5425,17.85875,22.216002,26.032001,12.56,eccentric,4,3.0,96754.0,279205.0,162920.0,264839.0,177092.0
2026-04-14 17:20:25.638048,225015,1609504719364358,2319334319,-1.276608,-0.111264,-0.28304,4.795,-26.83625,21.6125,22.216002,26.032001,12.56,eccentric,4,3.0,96754.0,279205.0,162920.0,264839.0,177092.0
2026-04-14 17:20:25.648093,225016,1609504719373315,2319342993,-1.097024,-0.066368,-0.023424,8.60125,-24.43,24.21125,22.76,25.768002,9.112,eccentric,4,3.0,96754.0,279205.0,162920.0,264839.0,177092.0
