pc_time,serial_num,sensor_ts,host_ts,ax,ay,az,gx,gy,gz,mx,my,mz,phase,rpe,weight_kg,ppg_a,ppg_b,ppg_c,ppg_d,ppg_e
2026-04-14 17:20:35.442871,226863,1609504729168168,2329137185,-1.22,-0.027328,-0.01952,19.6,24.272501,-51.388752,22.888,28.032001,10.352,eccentric,4,3.0,110258.0,288743.0,181096.0,277730.0,195330.0
2026-04-14 17:20:35.450173,226864,1609504729177239,2329145877,-1.1712,0.00976,-0.01952,14.98875,17.84125,-49.420002,22.664001,28.096,12.472,eccentric,4,3.0,110258.0,288743.0,181096.0,277730.0,195330.0
2026-04-14 17:20:35.465546,226865,1609504729191987,2329160811,-1.14192,0.060512,0.001952,12.9325,13.440001,-47.38125,20.952002,28.600002,9.816001,eccentric,4,3.0,110258.0,288743.0,181096.0,277730.0,195330.0
2026-04-14 17:20:35.472523,226866,1609504729200897,2329169536,-1.14192,0.060512,0.001952,11.917501,13.46625,-51.5375,20.952002,28.600002,9.816001,eccentric,4,3.0,110258.0,288743.0,181096.0,277730.0,195330.0
2026-04-14 17:20:35.489881,226867,1609504729215708,2329184433,-1.08336,0.007808,0.080032,4.85625,15.89875,-58.58125,21.472,29.184002,8.704,eccentric,4,3.0,110258.0,288743.0,181096.0,277730.0,195330.0
2026-04-14 17:20:35.499033,226868,1609504729224996,2329195209,-1.08336,0.007808,0.080032,4.75125,19.39875,-61.25,21.472,29.184002,8.704,eccentric,4,3.0,110258.0,288743.0,181096.0,277730.0,195330.0
2026-04-14 17:20:35.510238,226869,1609504729233926,2329203876,-1.153632,-0.15616,-0.183488,2.26625,24.31625,-61.9675,20.576,29.52,9.392,eccentric,4,3.0,110258.0,288743.0,181096.0,277730.0,195330.0
2026-04-14 17:20:35.537811,226880,1609504729248547,2329218845,-1.153632,-0.15616,-0.183488,-3.01,27.79875,-59.675,20.576,29.52,9.392,eccentric,4,3.0,114159.0,293534.0,185370.0,280830.0,199564.0
2026-04-14 17:20:35.540278,226881,1609504729257571,2329227602,-1.165344,-0.062464,-0.076128,2.415,28.98,-51.73,19.28,30.160002,9.848001,eccentric,4,3.0,114159.0,293534.0,185370.0,280830.0,199564.0
2026-04-14 17:20:35.546557,226882,1609504729272168,2329242507,-1.134112,0.054656,-0.230336,9.6075,29.723751,-49.0,18.648,30.072,9.928,eccentric,4,3.0,114159.0,293534.0,185370.0,280830.0,199564.0
2026-04-14 17:20:35.555271,226883,1609504729281104,2329251184,-1.134112,0.054656,-0.230336,12.48625,27.973751,-53.357502,18.648,30.072,9.928,eccentric,4,3.0,114159.0,293534.0,185370.0,280830.0,199564.0
2026-04-14 17:20:35.570361,226884,1609504729295562,2329264013,-1.097024,-0.099552,-0.02928,15.79375,26.88875,-57.0325,18.088001,30.728,8.392,eccentric,4,3.0,114159.0,293534.0,185370.0,280830.0,199564.0
2026-04-14 17:20:35.577504,226885,1609504729304833,2329274810,-1.097024,-0.099552,-0.02928,1.6625,26.880001,-64.12,18.088001,30.728,8.392,eccentric,4,3.0,114159.0,293534.0,185370.0,280830.0,199564.0
2026-04-14 17:20:35.586195,226886,1609504729313785,2329283541,-1.10288,-0.212768,-0.220576,-6.20375,26.7925,-62.265,18.432001,30.600002,8.512,eccentric,4,3.0,114159.0,293534.0,185370.0,280830.0,199564.0
2026-04-14 17:20:35.602731,226887,1609504729328286,2329298418,-1.10288,-0.212768,-0.220576,-2.4325,29.942501,-55.37875,18.432001,30.600002,8.512,eccentric,4,3.0,114159.0,293534.0,185370.0,280830.0,199564.0
2026-04-14 17:20:35.678620,226898,1609504729337730,2329307373,-1.081408,-0.142496,-0.171776,6.58,32.05125,-51.625,18.104,30.560001,7.408001,eccentric,4,3.0,115189.0,302566.0,185015.0,285471.0,199574.0
2026-04-14 17:20:35.681405,226899,1609504729346801,2329316212,-1.081408,-0.142496,-0.171776,7.21875,31.3075,-54.32,18.104,30.560001,7.408001,eccentric,4,3.0,115189.0,302566.0,185015.0,285471.0,199574.0
2026-04-14 17:20:35.683829,226900,1609504729361277,2329331090,-1.077504,-0.128832,-0.349408,10.57,29.47,-54.2675,16.272001,31.264002,10.128,eccentric,4,3.0,115189.0,302566.0,185015.0,285471.0,199574.0
2026-04-14 17:20:35.686312,226901,1609504729370181,2329339801,-0.958432,-0.275232,-0.162016,6.71125,26.32875,-54.81875,15.264001,31.808,9.120001,eccentric,4,3.0,115189.0,302566.0,185015.0,285471.0,199574.0
2026-04-14 17:20:35.691713,226902,1609504729384689,2329354665,-0.958432,-0.275232,-0.162016,-0.84,23.59,-52.59625,15.264001,31.808,9.120001,eccentric,4,3.0,115189.0,302566.0,185015.0,285471.0,199574.0
2026-04-14 17:20:35.694178,226903,1609504729393595,2329363381,-0.931104,-0.179584,-0.124928,3.38625,21.98875,-48.69375,14.400001,31.984001,10.200001,eccentric,4,3.0,115189.0,302566.0,185015.0,285471.0,199574.0
2026-04-14 17:20:35.696334,226904,1609504729408138,2329378393,-0.931104,-0.179584,-0.124928,10.745,21.00875,-48.72,14.400001,31.984001,10.200001,eccentric,4,3.0,115189.0,302566.0,185015.0,285471.0,199574.0
2026-04-14 17:20:35.698775,226905,1609504729417066,2329387098,-0.847168,-0.148352,-0.18544,10.77125,20.02,-50.82,13.976001,31.592001,8.0,eccentric,4,3.0,115189.0,302566.0,185015.0,285471.0,199574.0
2026-04-14 17:20:35.701300,226906,1609504729426032,2329395804,-0.847168,-0.148352,-0.18544,11.43625,21.9975,-50.513752,13.976001,31.592001,8.0,eccentric,4,3.0,115189.0,302566.0,185015.0,285471.0,199574.0
2026-04-14 17:20:35.735295,226917,1609504729441002,2329410783,-0.886208,-0.257664,-0.275232,4.0425,24.8675,-54.74,13.920001,32.120003,8.992001,eccentric,4,3.0,103713.0,308425.0,169253.0,288578.0,184306.0
2026-04-14 17:20:35.738133,226918,1609504729449966,2329419577,-0.886208,-0.257664,-0.169824,-2.07375,25.62,-55.23,13.920001,32.120003,8.992001,eccentric,4,3.0,103713.0,308425.0,169253.0,288578.0,184306.0
2026-04-14 17:20:35.740615,226919,1609504729464483,2329434499,-0.765184,-0.232288,-0.169824,3.31625,24.395,-53.38375,14.216001,31.984001,8.584001,eccentric,4,3.0,103713.0,308425.0,169253.0,288578.0,184306.0
2026-04-14 17:20:35.748114,226920,1609504729473416,2329443177,-0.716384,-0.169824,-0.02928,7.13125,23.94,-51.4325,13.528001,32.352,8.76,eccentric,4,3.0,103713.0,308425.0,169253.0,288578.0,184306.0
2026-04-14 17:20:35.763962,226921,1609504729487900,2329458030,-0.716384,-0.169824,-0.02928,6.85125,23.14375,-51.9225,13.528001,32.352,8.76,eccentric,4,3.0,103713.0,308425.0,169253.0,288578.0,184306.0
2026-04-14 17:20:35.770255,226922,1609504729496825,2329466747,-0.681248,-0.199104,0.01952,1.5575,25.305,-53.4625,13.6,32.384003,7.584001,eccentric,4,3.0,103713.0,308425.0,169253.0,288578.0,184306.0
2026-04-14 17:20:35.779235,226923,1609504729505830,2329475440,-0.681248,-0.199104,0.01952,2.7125,29.365,-49.9975,13.6,32.384003,7.584001,eccentric,4,3.0,103713.0,308425.0,169253.0,288578.0,184306.0
2026-04-14 17:20:35.793847,226924,1609504729520339,2329490351,-0.747616,-0.255712,-0.286944,2.02125,33.90625,-48.982502,12.768001,32.32,7.576,eccentric,4,3.0,103713.0,308425.0,169253.0,288578.0,184306.0
2026-04-14 17:20:35.803724,226925,1609504729529280,2329499044,-0.747616,-0.255712,-0.286944,-0.84,34.88625,-46.64625,12.768001,32.32,7.576,eccentric,4,3.0,103713.0,308425.0,169253.0,288578.0,184306.0
2026-04-14 17:20:35.835138,226936,1609504729543918,2329513956,-0.66368,-0.169824,-0.138592,6.125,33.013752,-45.31625,12.736001,32.512,7.304,eccentric,4,3.0,92511.0,310559.0,154572.0,289431.0,169996.0
2026-04-14 17:20:35.837524,226937,1609504729552886,2329522674,-0.587552,-0.162016,0.042944,11.3575,31.045,-46.165,11.304001,33.072002,8.432,eccentric,4,3.0,92511.0,310559.0,154572.0,289431.0,169996.0
2026-04-14 17:20:35.842984,226938,1609504729567358,2329537568,-0.587552,-0.162016,0.042944,7.3675,27.90375,-46.375,11.304001,33.072002,8.432,eccentric,4,3.0,92511.0,310559.0,154572.0,289431.0,169996.0
2026-04-14 17:20:35.852581,226939,1609504729576277,2329546275,-0.607072,-0.138592,0.052704,3.7275,25.68125,-47.15375,10.344001,33.552002,9.824,eccentric,4,3.0,92511.0,310559.0,154572.0,289431.0,169996.0
2026-04-14 17:20:35.861372,226940,1609504729585278,2329554956,-0.607072,-0.138592,0.052704,3.08875,23.616251,-48.13375,10.344001,33.552002,9.824,eccentric,4,3.0,92511.0,310559.0,154572.0,289431.0,169996.0
2026-04-14 17:20:35.874203,226941,1609504729599738,2329569831,-0.669536,-0.275232,-0.191296,-2.14375,24.24625,-47.1975,10.592001,32.824,7.344,eccentric,4,3.0,92511.0,310559.0,154572.0,289431.0,169996.0
2026-04-14 17:20:35.882642,226942,1609504729608660,2329578597,-0.669536,-0.275232,-0.191296,-3.3425,22.785,-41.34375,10.592001,32.824,7.344,eccentric,4,3.0,92511.0,310559.0,154572.0,289431.0,169996.0
2026-04-14 17:20:35.897627,226943,1609504729623153,2329593488,-0.5856,-0.1952,-0.027328,4.92625,20.81625,-37.24,11.200001,32.568,7.232,eccentric,4,3.0,92511.0,310559.0,154572.0,289431.0,169996.0
2026-04-14 17:20:35.938175,226944,1609504729632090,2329602193,-0.65392,-0.169824,0.0488,7.91875,17.185,-32.69875,10.256001,33.336002,8.160001,eccentric,4,3.0,92511.0,310559.0,154572.0,289431.0,169996.0
2026-04-14 17:20:35.965484,226955,1609504729647088,2329617308,-0.65392,-0.169824,0.0488,2.14375,14.74375,-30.56375,10.256001,33.336002,8.160001,eccentric,4,3.0,99332.0,312127.0,163251.0,291070.0,180463.0
2026-04-14 17:20:35.967981,226956,1609504729656002,2329626015,-0.706624,-0.26352,-0.101504,-7.84,11.9,-30.30125,9.792001,33.24,8.376,eccentric,4,3.0,99332.0,312127.0,163251.0,291070.0,180463.0
2026-04-14 17:20:35.970118,226957,1609504729664993,2329634678,-0.706624,-0.26352,-0.101504,-12.88875,8.54,-28.315,9.792001,33.24,8.376,eccentric,4,3.0,99332.0,312127.0,163251.0,291070.0,180463.0
2026-04-14 17:20:35.973099,226958,1609504729679500,2329649576,-0.650016,-0.3416,-0.054656,-8.67125,6.57125,-22.9425,9.832001,33.176003,7.376,eccentric,4,3.0,99332.0,312127.0,163251.0,291070.0,180463.0
2026-04-14 17:20:35.975226,226959,1609504729688487,2329658293,-0.650016,-0.3416,-0.054656,-9.05625,4.06,-16.1,9.832001,33.176003,7.376,eccentric,4,3.0,99332.0,312127.0,163251.0,291070.0,180463.0
2026-04-14 17:20:35.978024,226960,1609504729703064,2329673246,-0.691008,-0.132736,-0.162016,-4.865,0.14,-10.5875,9.376,33.152,7.288001,eccentric,4,3.0,99332.0,312127.0,163251.0,291070.0,180463.0
2026-04-14 17:20:36.002689,226961,1609504729712041,2329681942,-0.769088,-0.376736,-0.236192,-4.83,-4.795,-9.28375,9.376,33.152,6.752,eccentric,4,3.0,99332.0,312127.0,163251.0,291070.0,180463.0
2026-04-14 17:20:36.028158,226962,1609504729720990,2329690630,-0.772992,-0.376736,-0.236192,-9.9225,-7.42875,-6.25625,10.392,33.256,6.752,eccentric,4,3.0,99332.0,312127.0,163251.0,291070.0,180463.0
2026-04-14 17:20:36.040210,226963,1609504729735467,2329705492,-0.739808,-0.281088,-0.1464,-15.61875,-9.0475,-1.70625,10.496,33.384003,7.104001,eccentric,4,3.0,99332.0,312127.0,163251.0,291070.0,180463.0
2026-04-14 17:20:36.067526,226974,1609504729744435,2329714240,-0.739808,-0.281088,-0.1464,-17.605,-9.835,3.5875,10.496,33.384003,7.104001,eccentric,4,3.0,97467.0,312653.0,161026.0,291651.0,178020.0
2026-04-14 17:20:36.070000,226975,1609504729758923,2329729151,-0.76128,-0.411872,-0.220576,-19.8275,-11.50625,7.49,10.84,33.312,5.944,eccentric,4,3.0,97467.0,312653.0,161026.0,291651.0,178020.0
2026-04-14 17:20:36.072997,226976,1609504729767852,2329737820,-0.76128,-0.411872,-0.220576,-19.32,-15.07625,13.29125,10.84,33.312,5.944,eccentric,4,3.0,97467.0,312653.0,161026.0,291651.0,178020.0
2026-04-14 17:20:36.075117,226977,1609504729782408,2329752795,-0.872544,-0.13664,-0.070272,-15.96875,-18.5675,20.51,10.808001,33.344,6.920001,eccentric,4,3.0,97467.0,312653.0,161026.0,291651.0,178020.0
2026-04-14 17:20:36.077988,226978,1609504729791337,2329761483,-0.872544,-0.13664,-0.070272,-13.18625,-20.36125,25.725,10.808001,33.344,6.920001,eccentric,4,3.0,97467.0,312653.0,161026.0,291651.0,178020.0
2026-04-14 17:20:36.080482,226979,1609504729800257,2329770258,-0.851072,-0.310368,0.015616,-18.515,-19.7225,28.4025,11.296001,33.248,7.624001,eccentric,4,3.0,97467.0,312653.0,161026.0,291651.0,178020.0
2026-04-14 17:20:36.088012,226980,1609504729814765,2329783130,-0.864736,-0.271328,-0.011712,-23.8175,-17.491251,32.0075,11.608001,33.368,6.352,eccentric,4,3.0,97467.0,312653.0,161026.0,291651.0,178020.0
2026-04-14 17:20:36.098871,226981,1609504729823944,2329793869,-0.864736,-0.271328,-0.011712,-25.01625,-15.49625,36.42625,11.608001,33.368,6.352,eccentric,4,3.0,97467.0,312653.0,161026.0,291651.0,178020.0
2026-04-14 17:20:36.138851,226992,1609504729838443,2329808699,-0.882304,-0.222528,-0.12688,-24.40375,-14.980001,41.763752,11.712001,33.536003,7.088,eccentric,4,3.0,93971.0,311131.0,156578.0,290213.0,173030.0
2026-04-14 17:20:36.142042,226993,1609504729847420,2329817432,-0.882304,-0.222528,-0.12688,-26.285,-16.70375,44.388752,11.712001,33.536003,7.088,eccentric,4,3.0,93971.0,311131.0,156578.0,290213.0,173030.0
2026-04-14 17:20:36.144654,226994,1609504729856358,2329826146,-0.823744,-0.220576,-0.210816,-27.48375,-20.27375,47.25,12.280001,33.416,7.24,eccentric,4,3.0,93971.0,311131.0,156578.0,290213.0,173030.0
2026-04-14 17:20:36.146120,226995,1609504729870862,2329841046,-0.823744,-0.220576,-0.210816,-22.09375,-24.053751,51.38,12.280001,33.416,7.24,eccentric,4,3.0,93971.0,311131.0,156578.0,290213.0,173030.0
2026-04-14 17:20:36.154220,226996,1609504729879800,2329849731,-0.841312,-0.251808,-0.216672,-23.8,-26.215,52.99875,12.944,33.576,6.176,eccentric,4,3.0,93971.0,311131.0,156578.0,290213.0,173030.0
2026-04-14 17:20:36.167688,226997,1609504729894293,2329864648,-0.886208,-0.187392,-0.085888,-29.05875,-28.60375,54.80125,13.432001,32.928,5.328,eccentric,4,3.0,93971.0,311131.0,156578.0,290213.0,173030.0
2026-04-14 17:20:36.176828,226998,1609504729903247,2329873360,-0.886208,-0.187392,-0.085888,-26.48625,-30.2575,54.495,13.432001,32.928,5.328,eccentric,4,3.0,93971.0,311131.0,156578.0,290213.0,173030.0
2026-04-14 17:20:36.190686,226999,1609504729917706,2329886177,-0.872544,-0.199104,-0.099552,-23.37125,-33.5825,55.265,14.568001,32.888,5.696,eccentric,4,3.0,93971.0,311131.0,156578.0,290213.0,173030.0
2026-04-14 17:20:36.201347,227000,1609504729926979,2329896915,-0.872544,-0.199104,-0.099552,-18.7425,-37.91375,56.77875,14.568001,32.888,5.696,eccentric,4,3.0,93971.0,311131.0,156578.0,290213.0,173030.0
2026-04-14 17:20:36.213137,227001,1609504729935939,2329905605,-0.884256,-0.16592,-0.142496,-18.45375,-38.57,61.635002,15.784,32.944,5.32,eccentric,4,3.0,93971.0,311131.0,156578.0,290213.0,173030.0
2026-04-14 17:20:36.242479,227012,1609504729950516,2329918969,-0.884256,-0.16592,-0.142496,-22.82,-37.7475,65.98375,15.784,32.944,5.32,eccentric,4,3.0,88378.0,308041.0,149799.0,287010.0,165574.0
2026-04-14 17:20:36.245442,227013,1609504729959847,2329929800,-0.929152,-0.119072,-0.085888,-21.945,-36.47875,66.08875,15.080001,33.04,7.896,eccentric,4,3.0,88378.0,308041.0,149799.0,287010.0,165574.0
2026-04-14 17:20:36.247968,227014,1609504729974397,2329942754,-0.938912,-0.160064,-0.08784,-24.045,-37.0125,62.545002,15.488001,32.976,8.480001,eccentric,4,3.0,88378.0,308041.0,149799.0,287010.0,165574.0
2026-04-14 17:20:36.257986,227015,1609504729983577,2329953531,-0.938912,-0.160064,-0.08784,-24.0625,-41.58,62.7725,15.488001,32.976,8.480001,eccentric,4,3.0,88378.0,308041.0,149799.0,287010.0,165574.0
2026-04-14 17:20:36.265492,227016,1609504729992514,2329962219,-0.938912,-0.160064,-0.08784,-20.22125,-41.16,63.30625,15.488001,32.976,8.480001,eccentric,4,3.0,88378.0,308041.0,149799.0,287010.0,165574.0
2026-04-14 17:20:36.281888,227017,1609504730006965,2329977106,-0.960384,-0.228384,-0.30256,-25.94375,-40.145,67.7425,17.44,32.264,7.344,eccentric,4,3.0,88378.0,308041.0,149799.0,287010.0,165574.0
2026-04-14 17:20:36.290366,227018,1609504730015984,2329985857,-0.976,-0.017568,-0.33184,-23.59,-38.64875,73.99875,18.28,31.904001,5.992,eccentric,4,3.0,88378.0,308041.0,149799.0,287010.0,165574.0
2026-04-14 17:20:36.305638,227019,1609504730030463,2330000728,-0.976,-0.017568,-0.33184,-18.57625,-37.3975,71.015,18.28,31.904001,5.992,eccentric,4,3.0,88378.0,308041.0,149799.0,287010.0,165574.0
2026-04-14 17:20:36.342949,227030,1609504730039389,2330009403,-1.052128,-0.06832,-0.415776,-18.0075,-38.45625,65.1175,19.064001,31.680002,6.336,eccentric,4,3.0,89129.0,301906.0,151437.0,281862.0,167386.0
2026-04-14 17:20:36.345478,227031,1609504730053947,2330022340,-1.052128,-0.208864,-0.242048,-21.65625,-40.88,59.263752,19.064001,31.680002,6.336,eccentric,4,3.0,89129.0,301906.0,151437.0,281862.0,167386.0
2026-04-14 17:20:36.371035,227032,1609504730063235,2330033096,-1.01504,-0.208864,-0.242048,-24.01,-42.455,57.076252,18.688002,31.480001,5.728,eccentric,4,3.0,89129.0,301906.0,151437.0,281862.0,167386.0
2026-04-14 17:20:36.393226,227033,1609504730072159,2330041818,-1.01504,-0.208864,-0.242048,-25.85625,-41.965,60.41875,18.688002,31.480001,5.728,eccentric,4,3.0,89129.0,301906.0,151437.0,281862.0,167386.0
2026-04-14 17:20:36.395671,227034,1609504730086684,2330056702,-1.018944,-0.06832,-0.109312,-25.55875,-40.0225,61.565,19.528002,31.224,6.784,eccentric,4,3.0,89129.0,301906.0,151437.0,281862.0,167386.0
2026-04-14 17:20:36.398161,227035,1609504730095597,2330065410,-1.077504,0.017568,-0.212768,-18.2875,-40.845,61.285,20.704,30.544,5.584,eccentric,4,3.0,89129.0,301906.0,151437.0,281862.0,167386.0
2026-04-14 17:20:36.400127,227036,1609504730110082,2330080397,-1.077504,0.017568,-0.212768,-13.6325,-39.85625,55.20375,20.704,30.544,5.584,eccentric,4,3.0,89129.0,301906.0,151437.0,281862.0,167386.0
2026-04-14 17:20:36.403237,227037,1609504730118993,2330089060,-1.069696,-0.080032,-0.040992,-15.42625,-43.2425,47.50375,21.184002,30.584002,6.536,eccentric,4,3.0,89129.0,301906.0,151437.0,281862.0,167386.0
2026-04-14 17:20:36.405649,227038,1609504730127987,2330097763,-1.069696,-0.080032,-0.040992,-15.58375,-44.555,48.545002,21.184002,30.584002,6.536,eccentric,4,3.0,89129.0,301906.0,151437.0,281862.0,167386.0
2026-04-14 17:20:36.442864,227049,1609504730143024,2330112719,-1.167296,-0.121024,-0.171776,-20.6675,-41.2825,50.3475,21.632002,30.032001,6.664001,eccentric,4,3.0,90205.0,298345.0,153635.0,279272.0,169046.0
2026-04-14 17:20:36.445462,227050,1609504730152113,2330121510,-1.167296,-0.121024,-0.171776,-24.10625,-37.03875,49.945,21.632002,30.032001,6.664001,eccentric,4,3.0,90205.0,298345.0,153635.0,279272.0,169046.0
2026-04-14 17:20:36.447961,227051,1609504730166657,2330136410,-1.167296,0.01952,-0.199104,-15.47875,-33.985,47.48625,22.008001,29.992,6.816001,eccentric,4,3.0,90205.0,298345.0,153635.0,279272.0,169046.0
2026-04-14 17:20:36.450200,227052,1609504730175597,2330145089,-1.22976,-0.013664,-0.368928,-11.165,-35.23625,41.335,22.256,29.480001,6.928001,eccentric,4,3.0,90205.0,298345.0,153635.0,279272.0,169046.0
2026-04-14 17:20:36.456451,227053,1609504730184653,2330153780,-1.22976,-0.013664,-0.368928,-9.44125,-36.91625,37.555,22.256,29.480001,6.928001,concentric,4,3.0,90205.0,298345.0,153635.0,279272.0,169046.0
2026-04-14 17:20:36.473159,227054,1609504730199132,2330168708,-1.253184,-0.035136,0.046848,-3.63125,-36.68875,34.20375,22.512001,28.768002,7.36,concentric,4,3.0,90205.0,298345.0,153635.0,279272.0,169046.0
2026-04-14 17:20:36.481987,227055,1609504730208059,2330177391,-1.253184,-0.035136,0.046848,-4.85625,-32.305,35.4725,22.512001,28.768002,7.36,concentric,4,3.0,90205.0,298345.0,153635.0,279272.0,169046.0
2026-04-14 17:20:36.496880,227056,1609504730222542,2330192273,-1.22,-0.140544,0.025376,-20.15125,-23.065,40.15375,21.904001,28.44,7.072001,concentric,4,3.0,90205.0,298345.0,153635.0,279272.0,169046.0
2026-04-14 17:20:36.504392,227057,1609504730231464,2330201015,-1.22,-0.140544,0.025376,-28.23625,-14.41125,39.1825,21.904001,28.44,7.072001,concentric,4,3.0,90205.0,298345.0,153635.0,279272.0,169046.0
2026-04-14 17:20:36.541360,227068,1609504730246179,2330216493,-1.372256,-0.035136,-0.404064,-19.635,-12.39,39.19125,22.768002,28.072,8.0,concentric,4,3.0,99291.0,294073.0,166214.0,277455.0,181633.0
2026-04-14 17:20:36.566205,227069,1609504730255177,2330225177,-1.372256,-0.035136,-0.208864,-7.8575,-15.7675,40.5475,22.768002,28.072,8.0,concentric,4,3.0,99291.0,294073.0,166214.0,277455.0,181633.0
2026-04-14 17:20:36.576867,227070,1609504730264125,2330233854,-1.18096,0.023424,-0.208864,-2.7125,-23.625,38.63125,22.528002,27.560001,8.768001,concentric,4,3.0,99291.0,294073.0,166214.0,277455.0,181633.0
2026-04-14 17:20:36.579392,227071,1609504730278598,2330248750,-1.126304,0.011712,-0.064416,-0.90125,-31.64875,35.76125,22.472,26.368002,7.464,concentric,4,3.0,99291.0,294073.0,166214.0,277455.0,181633.0
2026-04-14 17:20:36.581956,227072,1609504730287500,2330257422,-1.126304,0.011712,-0.064416,-1.3125,-33.4775,32.68125,22.472,26.368002,7.464,concentric,4,3.0,99291.0,294073.0,166214.0,277455.0,181633.0
2026-04-14 17:20:36.583971,227073,1609504730301993,2330272290,-1.184864,-0.083936,-0.052704,-6.72,-29.5925,27.973751,23.424002,26.400002,7.232,concentric,4,3.0,99291.0,294073.0,166214.0,277455.0,181633.0
2026-04-14 17:20:36.586879,227074,1609504730311013,2330281006,-1.184864,-0.083936,-0.052704,-15.846251,-24.955,24.28125,23.424002,26.400002,7.232,concentric,4,3.0,99291.0,294073.0,166214.0,277455.0,181633.0
2026-04-14 17:20:36.598159,227075,1609504730325492,2330293921,-1.1224,-0.0488,-0.160064,-15.77625,-20.65875,22.40875,23.088001,26.160002,7.328001,concentric,4,3.0,99291.0,294073.0,166214.0,277455.0,181633.0
2026-04-14 17:20:36.609041,227076,1609504730334733,2330304654,-1.1224,-0.0488,-0.160064,-6.7025,-19.13625,19.10125,23.088001,26.160002,7.328001,concentric,4,3.0,99291.0,294073.0,166214.0,277455.0,181633.0
2026-04-14 17:20:36.639311,227087,1609504730344348,2330313417,-1.21024,0.06832,-0.208864,1.12875,-20.30875,16.33625,23.072,26.744001,8.184,concentric,4,3.0,98174.0,288390.0,166428.0,274723.0,180721.0
2026-04-14 17:20:36.646835,227088,1609504730358917,2330328348,-1.11264,0.00976,-0.076128,0.95375,-23.42375,13.230001,23.264002,25.888,6.936,concentric,4,3.0,98174.0,288390.0,166428.0,274723.0,180721.0
2026-04-14 17:20:36.648950,227089,1609504730367854,2330337055,-1.11264,0.00976,-0.076128,0.98,-25.585001,10.36875,23.264002,25.888,6.936,concentric,4,3.0,98174.0,288390.0,166428.0,274723.0,180721.0
2026-04-14 17:20:36.656882,227090,1609504730382365,2330351967,-1.095072,-0.113216,-0.179584,3.59625,-23.31875,6.23,23.400002,25.640001,6.904,concentric,4,3.0,98174.0,288390.0,166428.0,274723.0,180721.0
2026-04-14 17:20:36.666475,227091,1609504730391321,2330360630,-1.095072,-0.113216,-0.179584,0.28875,-22.81125,4.3925,23.400002,25.640001,6.904,concentric,4,3.0,98174.0,288390.0,166428.0,274723.0,180721.0
2026-04-14 17:20:36.673128,227092,1609504730400250,2330369320,-1.05408,-0.089792,-0.031232,-2.14375,-22.05875,10.1325,23.024,25.912,6.616,concentric,4,3.0,98174.0,288390.0,166428.0,274723.0,180721.0
2026-04-14 17:20:36.689392,227093,1609504730414768,2330384210,-1.05408,-0.089792,-0.031232,-0.30625,-18.865,12.9675,23.024,25.912,6.616,concentric,4,3.0,98174.0,288390.0,166428.0,274723.0,180721.0
2026-04-14 17:20:36.696787,227094,1609504730423689,2330392930,-1.120448,0.044896,-0.044896,4.87375,-15.365,10.8325,23.584002,25.832,8.176001,concentric,4,3.0,98174.0,288390.0,166428.0,274723.0,180721.0
2026-04-14 17:20:36.712971,227095,1609504730438137,2330407829,-1.147776,0.064416,-0.28304,12.53875,-13.20375,8.61,23.504002,26.216002,8.408,concentric,4,3.0,98174.0,288390.0,166428.0,274723.0,180721.0
2026-04-14 17:20:36.802615,227107,1609504730447186,2330416538,-1.147776,0.064416,-0.28304,11.41,-9.82625,2.17,23.504002,26.216002,8.408,concentric,4,3.0,89456.0,278012.0,157126.0,266874.0,170392.0
2026-04-14 17:20:36.805204,227108,1609504730456130,2330425248,-1.147776,0.064416,-0.28304,2.1525,-11.2175,-4.0775,23.504002,26.216002,8.408,concentric,4,3.0,89456.0,278012.0,157126.0,266874.0,170392.0
2026-04-14 17:20:36.807598,227109,1609504730470585,2330440186,-1.08336,-0.113216,-0.154208,-3.89375,-13.4225,-2.275,22.904001,26.672,7.28,concentric,4,3.0,89456.0,278012.0,157126.0,266874.0,170392.0
2026-04-14 17:20:36.810483,227110,1609504730479497,2330448870,-1.098976,-0.091744,-0.105408,-3.28125,-14.3325,-0.315,22.68,26.240002,6.656,concentric,4,3.0,89456.0,278012.0,157126.0,266874.0,170392.0
2026-04-14 17:20:36.813019,227111,1609504730493991,2330463720,-1.098976,-0.091744,-0.105408,5.0225,-14.2275,1.18125,22.68,26.240002,6.656,concentric,4,3.0,89456.0,278012.0,157126.0,266874.0,170392.0
2026-04-14 17:20:36.827746,227112,1609504730502902,2330472414,-1.089216,0.017568,-0.0488,15.89,-13.04625,1.68875,23.552002,26.224,6.328,concentric,4,3.0,89456.0,278012.0,157126.0,266874.0,170392.0
2026-04-14 17:20:36.828083,227113,1609504730517428,2330487360,-1.147776,0.044896,-0.017568,19.18875,-10.91125,-1.23375,23.552002,26.576002,5.608,concentric,4,3.0,89456.0,278012.0,157126.0,266874.0,170392.0
2026-04-14 17:20:36.828266,227114,1609504730526582,2330496111,-1.147776,0.044896,-0.017568,15.89875,-9.72125,-4.15625,23.816002,26.576002,5.608,concentric,4,3.0,89456.0,278012.0,157126.0,266874.0,170392.0
2026-04-14 17:20:36.829314,227115,1609504730535522,2330504814,-1.147776,0.044896,-0.017568,11.0075,-8.5225,-5.83625,23.816002,26.576002,5.608,concentric,4,3.0,89456.0,278012.0,157126.0,266874.0,170392.0
2026-04-14 17:20:36.850162,227126,1609504730549998,2330520198,-1.110688,-0.021472,0.031232,6.1775,-7.56,-6.81625,23.816002,26.528002,6.824,concentric,4,3.0,80626.0,271578.0,146261.0,262070.0,158881.0
2026-04-14 17:20:36.855282,227127,1609504730558931,2330529039,-1.079456,-0.072224,-0.054656,4.445,-6.2475,-7.49875,23.712002,26.432001,4.816001,concentric,4,3.0,80626.0,271578.0,146261.0,262070.0,158881.0
2026-04-14 17:20:36.857748,227128,1609504730573454,2330541941,-1.079456,-0.072224,-0.054656,6.58,-5.7225,-7.14,23.712002,26.432001,4.816001,concentric,4,3.0,80626.0,271578.0,146261.0,262070.0,158881.0
2026-04-14 17:20:36.860227,227129,1609504730582878,2330552700,-1.118496,-0.025376,-0.031232,11.5675,-5.74875,-7.09625,23.592001,26.624,7.016,concentric,4,3.0,80626.0,271578.0,146261.0,262070.0,158881.0
2026-04-14 17:20:36.872817,227130,1609504730597456,2330567683,-1.118496,-0.01952,-0.134688,14.035,-6.30875,-7.98875,23.592001,26.624,7.016,concentric,4,3.0,80626.0,271578.0,146261.0,262070.0,158881.0
2026-04-14 17:20:36.879114,227131,1609504730606357,2330576370,-1.186816,-0.01952,-0.134688,13.1425,-7.4025,-9.28375,23.512001,27.008001,7.64,concentric,4,3.0,80626.0,271578.0,146261.0,262070.0,158881.0
2026-04-14 17:20:36.894548,227132,1609504730615280,2330585048,-1.186816,-0.01952,-0.134688,14.69125,-5.53875,-9.05625,23.512001,27.008001,7.64,concentric,4,3.0,80626.0,271578.0,146261.0,262070.0,158881.0
2026-04-14 17:20:36.905334,227133,1609504730629726,2330599904,-1.186816,0.031232,-0.085888,16.135,-1.9775,-12.1275,23.384,27.088001,7.968,concentric,4,3.0,80626.0,271578.0,146261.0,262070.0,158881.0
2026-04-14 17:20:36.912523,227134,1609504730638620,2330608623,-1.167296,-0.042944,-0.113216,11.7775,0.60375,-16.51125,23.144001,27.264002,8.224,concentric,4,3.0,80626.0,271578.0,146261.0,262070.0,158881.0
2026-04-14 17:20:36.955274,227145,1609504730653275,2330623568,-1.167296,-0.042944,-0.113216,4.8825,2.03,-17.7625,23.144001,27.264002,8.224,concentric,4,3.0,70807.0,260668.0,133893.0,252921.0,145914.0
2026-04-14 17:20:36.957839,227146,1609504730662240,2330632360,-1.163392,-0.05856,0.007808,-0.1925,2.59875,-17.80625,22.552002,27.448002,8.312,concentric,4,3.0,70807.0,260668.0,133893.0,252921.0,145914.0
2026-04-14 17:20:36.965371,227147,1609504730676752,2330645216,-1.163392,-0.05856,0.007808,1.47,2.1175,-17.87625,22.552002,27.448002,8.312,concentric,4,3.0,70807.0,260668.0,133893.0,252921.0,145914.0
2026-04-14 17:20:36.967817,227148,1609504730686046,2330655969,-1.23952,-0.080032,-0.203008,6.2825,0.4025,-16.7825,22.616001,27.328001,8.128,concentric,4,3.0,70807.0,260668.0,133893.0,252921.0,145914.0
2026-04-14 17:20:36.970324,227149,1609504730694976,2330664639,-1.23952,-0.080032,-0.203008,12.92375,-1.72375,-15.408751,22.616001,27.328001,8.128,concentric,4,3.0,70807.0,260668.0,133893.0,252921.0,145914.0
2026-04-14 17:20:36.985036,227150,1609504730709436,2330679510,-1.136064,-0.050752,0.080032,19.6875,-2.65125,-15.04125,22.144001,27.44,8.88,concentric,4,3.0,70807.0,260668.0,133893.0,252921.0,145914.0
2026-04-14 17:20:36.992453,227151,1609504730718379,2330688278,-1.136064,-0.05856,-0.103456,21.58625,-2.00375,-16.1175,22.144001,27.44,6.832,concentric,4,3.0,70807.0,260668.0,133893.0,252921.0,145914.0
2026-04-14 17:20:37.006311,227152,1609504730732831,2330703158,-1.138016,-0.05856,-0.103456,18.935,-1.32125,-17.272501,22.976002,27.224,7.424,concentric,4,3.0,70807.0,260668.0,133893.0,252921.0,145914.0
2026-04-14 17:20:37.016201,227153,1609504730741769,2330711827,-1.206336,-0.07808,-0.031232,12.06625,-1.84625,-17.8325,22.328001,27.264002,9.072001,concentric,4,3.0,70807.0,260668.0,133893.0,252921.0,145914.0
2026-04-14 17:20:37.043631,227164,1609504730750902,2330720600,-1.206336,-0.07808,-0.031232,6.5275,-3.43875,-17.61375,22.328001,27.264002,9.072001,concentric,4,3.0,63193.0,252285.0,123783.0,246015.0,135609.0
2026-04-14 17:20:37.046034,227165,1609504730765422,2330735487,-1.1712,-0.119072,0.122976,5.8275,-4.71625,-16.0475,23.392,27.128002,9.320001,concentric,4,3.0,63193.0,252285.0,123783.0,246015.0,135609.0
2026-04-14 17:20:37.048615,227166,1609504730774344,2330744199,-1.1712,-0.119072,0.122976,8.70625,-4.095,-13.69375,23.392,27.128002,9.320001,concentric,4,3.0,63193.0,252285.0,123783.0,246015.0,135609.0
2026-04-14 17:20:37.068760,227167,1609504730788834,2330759122,-1.274656,-0.072224,-0.056608,12.06625,-1.8725,-11.10375,23.016,27.616001,8.208,concentric,4,3.0,63193.0,252285.0,123783.0,246015.0,135609.0
2026-04-14 17:20:37.071347,227168,1609504730797722,2330767790,-1.274656,-0.072224,-0.056608,11.13,0.04375,-10.24625,23.016,27.616001,8.208,concentric,4,3.0,63193.0,252285.0,123783.0,246015.0,135609.0
2026-04-14 17:20:37.107474,227169,1609504730812209,2330780647,-1.198528,-0.162016,-0.169824,9.1875,-0.3675,-10.52625,22.664001,27.072,8.008,concentric,4,3.0,63193.0,252285.0,123783.0,246015.0,135609.0
2026-04-14 17:20:37.109902,227170,1609504730821453,2330791372,-1.208288,-0.124928,-0.080032,11.585,-1.68875,-7.5425,22.080002,27.712002,9.392,concentric,4,3.0,63193.0,252285.0,123783.0,246015.0,135609.0
2026-04-14 17:20:37.112426,227171,1609504730830428,2330800094,-1.208288,-0.124928,-0.080032,15.47875,-2.49375,-4.80375,22.080002,27.712002,9.392,concentric,4,3.0,63193.0,252285.0,123783.0,246015.0,135609.0
2026-04-14 17:20:37.161557,227182,1609504730845112,2330815472,-1.19072,-0.042944,0.005856,16.89625,-2.68625,-3.52625,22.184002,27.44,9.216001,concentric,4,3.0,58991.0,245808.0,118343.0,241129.0,130077.0
2026-04-14 17:20:37.164062,227183,1609504730854112,2330824170,-1.19072,-0.042944,0.005856,15.67125,-2.30125,-3.64875,22.184002,27.44,9.216001,concentric,4,3.0,58991.0,245808.0,118343.0,241129.0,130077.0
2026-04-14 17:20:37.171585,227184,1609504730868585,2330837018,-1.153632,-0.072224,0.06832,12.90625,-2.0475,-4.235,22.168001,27.320002,9.544001,concentric,4,3.0,58991.0,245808.0,118343.0,241129.0,130077.0
2026-04-14 17:20:37.175487,227185,1609504730877836,2330847784,-1.153632,-0.072224,0.06832,7.875,-2.24,-4.78625,22.168001,27.320002,9.544001,concentric,4,3.0,58991.0,245808.0,118343.0,241129.0,130077.0
2026-04-14 17:20:37.176316,227186,1609504730886762,2330856492,-1.163392,-0.154208,0.072224,4.99625,-2.87875,-4.865,22.376001,27.128002,12.328001,concentric,4,3.0,58991.0,245808.0,118343.0,241129.0,130077.0
2026-04-14 17:20:37.181413,227187,1609504730901296,2330871412,-1.204384,-0.081984,0.035136,8.295,-3.08875,-2.7475,22.112001,27.448002,12.816001,concentric,4,3.0,58991.0,245808.0,118343.0,241129.0,130077.0
2026-04-14 17:20:37.208974,227188,1609504730910220,2330880129,-1.204384,-0.081984,0.035136,14.3675,-1.98625,-0.14875,22.112001,27.448002,12.816001,concentric,4,3.0,58991.0,245808.0,118343.0,241129.0,130077.0
2026-04-14 17:20:37.211551,227189,1609504730924726,2330895026,-1.23952,-0.011712,-0.017568,20.09875,-0.3675,0.525,21.480001,27.608002,11.312,concentric,4,3.0,58991.0,245808.0,118343.0,241129.0,130077.0
2026-04-14 17:20:37.214059,227190,1609504730933660,2330903703,-1.23952,-0.011712,-0.017568,17.08,-0.20125,-0.1575,21.480001,27.608002,11.312,concentric,4,3.0,58991.0,245808.0,118343.0,241129.0,130077.0
2026-04-14 17:20:37.242886,227201,1609504730948598,2330918680,-1.128256,-0.023424,0.031232,11.5675,-0.6825,0.18375,20.936,27.368002,10.416,concentric,4,3.0,57354.0,244010.0,116031.0,239935.0,127911.0
2026-04-14 17:20:37.245343,227202,1609504730957555,2330927433,-1.128256,-0.023424,0.031232,5.67,-1.67125,-1.7675,20.936,27.368002,10.416,concentric,4,3.0,57354.0,244010.0,116031.0,239935.0,127911.0
2026-04-14 17:20:37.248142,227203,1609504730966478,2330936168,-1.22,-0.08784,-0.103456,0.175,-4.12125,-3.42125,22.832,26.952002,9.352,concentric,4,3.0,57354.0,244010.0,116031.0,239935.0,127911.0
2026-04-14 17:20:37.255646,227204,1609504730980955,2330951063,-1.147776,-0.105408,0.056608,-2.02125,-5.915,-1.9775,22.536001,26.664001,6.872,concentric,4,3.0,57354.0,244010.0,116031.0,239935.0,127911.0
2026-04-14 17:20:37.264342,227205,1609504730989932,2330959733,-1.147776,-0.105408,0.056608,-0.58625,-5.95,-0.1225,22.536001,26.664001,6.872,concentric,4,3.0,57354.0,244010.0,116031.0,239935.0,127911.0
2026-04-14 17:20:37.280489,227206,1609504731004425,2330974684,-1.075552,-0.083936,0.093696,2.33625,-5.425,0.6825,22.864,26.952002,9.320001,concentric,4,3.0,57354.0,244010.0,116031.0,239935.0,127911.0
2026-04-14 17:20:37.286740,227207,1609504731013383,2330983419,-1.075552,-0.083936,0.093696,6.23,-3.9725,2.905,22.864,26.952002,9.320001,concentric,4,3.0,57354.0,244010.0,116031.0,239935.0,127911.0
2026-04-14 17:20:37.296525,227208,1609504731022349,2330992104,-1.153632,-0.044896,-0.093696,5.88875,-3.33375,4.62,21.896002,26.848001,9.696,concentric,4,3.0,57354.0,244010.0,116031.0,239935.0,127911.0
2026-04-14 17:20:37.312497,227209,1609504731036829,2331006975,-1.153632,-0.044896,-0.093696,1.05,-3.87625,4.90875,21.896002,26.848001,9.696,concentric,4,3.0,57354.0,244010.0,116031.0,239935.0,127911.0
2026-04-14 17:20:37.343954,227220,1609504731046186,2331015632,-1.13216,-0.08784,-0.060512,-4.55,-4.57625,5.81875,22.136002,26.752,9.04,concentric,4,3.0,56304.0,243622.0,114073.0,238995.0,125962.0
2026-04-14 17:20:37.346651,227221,1609504731060808,2331030642,-1.079456,-0.0976,0.101504,-8.1025,-5.97625,7.02625,22.136002,26.752,7.520001,concentric,4,3.0,56304.0,243622.0,114073.0,238995.0,125962.0
2026-04-14 17:20:37.349281,227222,1609504731069784,2331039323,-1.079456,-0.0976,0.101504,-7.95375,-7.175,7.48125,22.248001,26.768002,7.520001,concentric,4,3.0,56304.0,243622.0,114073.0,238995.0,125962.0
2026-04-14 17:20:37.359191,227223,1609504731084327,2331054208,-1.085312,-0.06832,-0.066368,-1.96,-6.55375,8.67125,23.088001,26.608002,9.136001,concentric,4,3.0,56304.0,243622.0,114073.0,238995.0,125962.0
2026-04-14 17:20:37.368115,227224,1609504731093290,2331062917,-1.085312,-0.06832,-0.066368,3.5875,-5.53,9.17875,23.088001,26.608002,9.136001,concentric,4,3.0,56304.0,243622.0,114073.0,238995.0,125962.0
2026-04-14 17:20:37.375119,227225,1609504731102362,2331071732,-1.13216,0.033184,0.027328,3.885,-5.075,7.90125,21.832,26.968,9.92,concentric,4,3.0,56304.0,243622.0,114073.0,238995.0,125962.0
2026-04-14 17:20:37.390333,227226,1609504731116836,2331086593,-1.13216,0.033184,0.027328,1.32125,-5.32875,6.1775,21.832,26.968,9.92,concentric,4,3.0,56304.0,243622.0,114073.0,238995.0,125962.0
2026-04-14 17:20:37.400269,227227,1609504731125764,2331095270,-1.126304,-0.031232,-0.11712,-2.7825,-5.6,3.50875,22.576,27.184002,10.504001,concentric,4,3.0,56304.0,243622.0,114073.0,238995.0,125962.0
2026-04-14 17:20:37.416486,227228,1609504731140302,2331110191,-1.126304,-0.031232,-0.11712,-8.44375,-6.23875,0.7175,22.576,27.184002,10.504001,concentric,4,3.0,56304.0,243622.0,114073.0,238995.0,125962.0
2026-04-14 17:20:37.444387,227239,1609504731149712,2331119197,-1.042368,-0.0976,-0.037088,-10.92875,-5.53,0.48125,22.432001,27.000002,7.544,concentric,4,3.0,54589.0,240623.0,111466.0,235844.0,123389.0
2026-04-14 17:20:37.446908,227240,1609504731158815,2331127956,-1.042368,-0.0976,-0.037088,-9.21375,-5.39875,-0.18375,22.432001,27.000002,7.544,concentric,4,3.0,54589.0,240623.0,111466.0,235844.0,123389.0
2026-04-14 17:20:37.449001,227241,1609504731173436,2331142932,-1.114592,-0.089792,-0.111264,-7.35875,-5.495,-0.60375,22.904001,26.736002,9.424001,concentric,4,3.0,54589.0,240623.0,111466.0,235844.0,123389.0
2026-04-14 17:20:37.474218,227242,1609504731182362,2331151641,-1.079456,-0.054656,-0.056608,-3.78875,-5.87125,0.5775,22.872002,26.904001,11.712001,concentric,4,3.0,54589.0,240623.0,111466.0,235844.0,123389.0
2026-04-14 17:20:37.499108,227243,1609504731196821,2331166544,-1.079456,-0.054656,-0.056608,-1.63625,-5.67875,1.085,22.872002,26.904001,11.712001,concentric,4,3.0,54589.0,240623.0,111466.0,235844.0,123389.0
2026-04-14 17:20:37.504796,227244,1609504731205710,2331175219,-1.118496,-0.046848,-0.124928,-2.70375,-5.6875,0.49,22.952002,26.808,10.344001,concentric,4,3.0,54589.0,240623.0,111466.0,235844.0,123389.0
2026-04-14 17:20:37.506881,227245,1609504731214622,2331183891,-1.118496,-0.046848,-0.124928,-5.215,-5.1975,0.11375,22.952002,26.808,10.344001,concentric,4,3.0,54589.0,240623.0,111466.0,235844.0,123389.0
2026-04-14 17:20:37.508904,227246,1609504731229092,2331198761,-1.0736,-0.081984,-0.070272,-8.0675,-4.3925,-0.21,22.224,27.192001,10.048,concentric,4,3.0,54589.0,240623.0,111466.0,235844.0,123389.0
2026-04-14 17:20:37.511554,227247,1609504731238002,2331207455,-1.0736,-0.081984,-0.070272,-8.8375,-3.12375,0.0525,22.224,27.192001,10.048,concentric,4,3.0,54589.0,240623.0,111466.0,235844.0,123389.0
2026-04-14 17:20:37.545631,227258,1609504731252711,2331222454,-1.061888,-0.070272,0.06832,-8.3475,-2.835,0.27125,22.208,26.608002,10.360001,concentric,4,3.0,52785.0,236258.0,108755.0,231370.0,120634.0
2026-04-14 17:20:37.550050,227259,1609504731261670,2331231218,-1.061888,-0.070272,0.06832,-6.93875,-3.045,-0.3675,22.208,26.608002,10.360001,concentric,4,3.0,52785.0,236258.0,108755.0,231370.0,120634.0
2026-04-14 17:20:37.550593,227260,1609504731276171,2331246026,-1.056032,-0.076128,0.06832,-6.3525,-3.745,-0.7525,22.528002,26.792002,8.984,concentric,4,3.0,52785.0,236258.0,108755.0,231370.0,120634.0
2026-04-14 17:20:37.559179,227261,1609504731285148,2331254715,-1.118496,-0.064416,0.066368,-6.50125,-4.69875,-0.98,22.832,26.992,9.320001,concentric,4,3.0,52785.0,236258.0,108755.0,231370.0,120634.0
2026-04-14 17:20:37.567626,227262,1609504731294093,2331263418,-1.118496,-0.064416,0.066368,-4.83,-4.7075,-0.69125,22.832,26.992,9.320001,concentric,4,3.0,52785.0,236258.0,108755.0,231370.0,120634.0
2026-04-14 17:20:37.582440,227263,1609504731308563,2331278318,-1.085312,-0.099552,0.040992,-3.59625,-4.165,-0.2275,22.872002,26.808,9.064,concentric,4,3.0,52785.0,236258.0,108755.0,231370.0,120634.0
2026-04-14 17:20:37.591135,227264,1609504731317509,2331287021,-1.085312,-0.099552,0.040992,-3.52625,-3.325,-0.21875,22.872002,26.808,9.064,concentric,4,3.0,52785.0,236258.0,108755.0,231370.0,120634.0
2026-04-14 17:20:37.606459,227265,1609504731331952,2331301892,-1.19072,-0.076128,-0.046848,-3.71,-2.75625,1.4175,22.048,26.912,9.144,concentric,4,3.0,52785.0,236258.0,108755.0,231370.0,120634.0
2026-04-14 17:20:37.616466,227266,1609504731340941,2331310585,-1.19072,-0.076128,-0.046848,-5.64375,-2.0825,3.05375,22.048,26.912,9.144,concentric,4,3.0,52785.0,236258.0,108755.0,231370.0,120634.0
2026-04-14 17:20:37.646012,227277,1609504731355553,2331325581,-1.106784,-0.111264,0.054656,-7.98,-1.5225,5.22375,23.056002,27.112001,10.216001,concentric,4,3.0,51915.0,234349.0,107055.0,228764.0,119057.0
2026-04-14 17:20:37.648620,227278,1609504731364499,2331334298,-1.202432,-0.16592,-0.216672,-8.65375,-2.1875,8.12875,22.112001,27.136002,10.336,concentric,4,3.0,51915.0,234349.0,107055.0,228764.0,119057.0
2026-04-14 17:20:37.651123,227279,1609504731373497,2331343092,-1.202432,-0.16592,-0.216672,-6.4925,-2.7825,9.70375,22.112001,27.136002,10.336,concentric,4,3.0,51915.0,234349.0,107055.0,228764.0,119057.0
2026-04-14 17:20:37.661744,227280,1609504731388007,2331358033,-1.243424,-0.113216,-0.005856,-0.55125,-3.0625,10.5875,22.328001,26.704,10.024,concentric,4,3.0,51915.0,234349.0,107055.0,228764.0,119057.0
2026-04-14 17:20:37.671258,227281,1609504731396969,2331366723,-1.243424,-0.113216,-0.005856,7.00875,-3.94625,13.405,22.328001,26.704,10.024,concentric,4,3.0,51915.0,234349.0,107055.0,228764.0,119057.0
2026-04-14 17:20:37.687799,227282,1609504731411511,2331381608,-1.179008,0.001952,-0.001952,6.04625,-2.765,15.60125,23.392,26.776001,10.472,concentric,4,3.0,51915.0,234349.0,107055.0,228764.0,119057.0
2026-04-14 17:20:37.694035,227283,1609504731420416,2331390375,-1.179008,0.001952,-0.001952,-6.25625,-2.35375,15.1375,23.392,26.776001,10.472,concentric,4,3.0,51915.0,234349.0,107055.0,228764.0,119057.0
2026-04-14 17:20:37.706383,227284,1609504731434892,2331403246,-1.264896,-0.074176,0.042944,-18.15625,-0.95375,13.22125,22.728,26.28,9.136001,concentric,4,3.0,51915.0,234349.0,107055.0,228764.0,119057.0
2026-04-14 17:20:37.717947,227285,1609504731444121,2331414002,-1.24928,-0.2928,-0.081984,-22.6275,0.28875,9.485,23.464,26.392002,8.176001,concentric,4,3.0,51915.0,234349.0,107055.0,228764.0,119057.0
2026-04-14 17:20:37.744877,227296,1609504731453221,2331422983,-1.24928,-0.2928,-0.081984,-15.12,-0.53375,9.135,23.464,26.392002,8.176001,concentric,4,3.0,55527.0,240043.0,111302.0,232149.0,123564.0
2026-04-14 17:20:37.747329,227297,1609504731467860,2331437890,-1.186816,-0.130784,-0.035136,2.8875,-3.38625,13.86875,22.992,25.920002,10.304001,concentric,4,3.0,55527.0,240043.0,111302.0,232149.0,123564.0
2026-04-14 17:20:37.752999,227298,1609504731476775,2331446576,-1.186816,-0.130784,-0.035136,20.0725,-6.02,17.8325,22.992,25.920002,10.304001,concentric,4,3.0,55527.0,240043.0,111302.0,232149.0,123564.0
2026-04-14 17:20:37.766114,227299,1609504731491247,2331461439,-1.24928,0.111264,-0.083936,20.553751,-6.4225,19.897501,23.728,25.176,10.416,concentric,4,3.0,55527.0,240043.0,111302.0,232149.0,123564.0
2026-04-14 17:20:37.773681,227300,1609504731500154,2331470203,-1.24928,0.111264,-0.083936,3.10625,-4.48875,17.815,23.728,25.176,10.416,concentric,4,3.0,55527.0,240043.0,111302.0,232149.0,123564.0
2026-04-14 17:20:37.783783,227301,1609504731509073,2331478861,-1.120448,-0.109312,0.113216,-20.72,-1.25125,11.2175,23.648,25.456001,9.160001,concentric,4,3.0,55527.0,240043.0,111302.0,232149.0,123564.0
2026-04-14 17:20:37.797433,227302,1609504731523565,2331493745,-1.120448,-0.210816,-0.070272,-38.6225,3.43,4.97,23.648,25.456001,9.160001,concentric,4,3.0,55527.0,240043.0,111302.0,232149.0,123564.0
2026-04-14 17:20:37.807363,227303,1609504731532497,2331502429,-1.223904,-0.210816,-0.070272,-37.03875,8.82,3.64,23.088001,25.824001,8.576,concentric,4,3.0,55527.0,240043.0,111302.0,232149.0,123564.0
2026-04-14 17:20:37.922456,227314,1609504731546997,2331517301,-1.173152,-0.056608,-0.11712,-19.3725,12.0225,5.5825,24.024002,25.408,9.112,concentric,4,3.0,78263.0,265345.0,143116.0,256282.0,155943.0
2026-04-14 17:20:37.925006,227315,1609504731555965,2331525985,-1.173152,-0.056608,-0.11712,-1.61,11.69,8.19,24.024002,25.408,9.112,concentric,4,3.0,78263.0,265345.0,143116.0,256282.0,155943.0
2026-04-14 17:20:37.927415,227316,1609504731570448,2331538833,-1.233664,-0.015616,-0.199104,1.60125,8.9775,5.88,23.008001,25.912,10.072001,concentric,4,3.0,78263.0,265345.0,143116.0,256282.0,155943.0
2026-04-14 17:20:37.930616,227317,1609504731579648,2331549573,-1.233664,-0.015616,-0.199104,-6.88625,4.83,-1.04125,23.008001,25.912,10.072001,concentric,4,3.0,78263.0,265345.0,143116.0,256282.0,155943.0
2026-04-14 17:20:37.932380,227318,1609504731588559,2331558228,-1.124352,-0.083936,-0.140544,-12.94125,3.115,-6.9475,23.008001,25.776001,10.024,concentric,4,3.0,78263.0,265345.0,143116.0,256282.0,155943.0
2026-04-14 17:20:37.934873,227319,1609504731603029,2331573119,-1.124352,-0.083936,-0.140544,-12.9675,4.22625,-10.92,23.008001,25.776001,10.024,concentric,4,3.0,78263.0,265345.0,143116.0,256282.0,155943.0
2026-04-14 17:20:37.937273,227320,1609504731611989,2331581806,-1.173152,-0.099552,-0.062464,-11.50625,5.95,-14.11375,22.952002,25.640001,9.408,concentric,4,3.0,78263.0,265345.0,143116.0,256282.0,155943.0
2026-04-14 17:20:37.939822,227321,1609504731626463,2331596709,-1.15168,-0.0488,-0.033184,-10.5,9.730001,-14.84875,23.52,25.752,8.448,concentric,4,3.0,78263.0,265345.0,143116.0,256282.0,155943.0
2026-04-14 17:20:37.942355,227322,1609504731635396,2331605374,-1.15168,-0.0488,-0.033184,-9.65125,12.573751,-16.9225,23.52,25.752,8.448,concentric,4,3.0,78263.0,265345.0,143116.0,256282.0,155943.0
2026-04-14 17:20:37.969866,227333,1609504731650599,2331620304,-1.163392,-0.091744,-0.210816,-7.83125,14.096251,-19.67,23.632002,25.592001,8.544001,concentric,4,3.0,89286.0,275967.0,156098.0,265769.0,169245.0
2026-04-14 17:20:37.972323,227334,1609504731659581,2331629023,-1.163392,-0.091744,-0.210816,-5.2675,14.37625,-22.7675,23.632002,25.592001,8.544001,concentric,4,3.0,89286.0,275967.0,156098.0,265769.0,169245.0
2026-04-14 17:20:37.974879,227335,1609504731668554,2331637797,-1.145824,-0.017568,-0.083936,-0.455,14.4025,-25.20875,23.504002,25.272001,8.408,concentric,4,3.0,89286.0,275967.0,156098.0,265769.0,169245.0
2026-04-14 17:20:37.977405,227336,1609504731683069,2331652722,-1.145824,-0.017568,-0.083936,-0.5775,15.28625,-28.0875,23.504002,25.272001,8.408,concentric,4,3.0,89286.0,275967.0,156098.0,265769.0,169245.0
2026-04-14 17:20:37.979897,227337,1609504731692184,2331661495,-1.098976,-0.072224,-0.033184,-6.53625,14.752501,-30.616251,23.400002,25.456001,7.496,concentric,4,3.0,89286.0,275967.0,156098.0,265769.0,169245.0
2026-04-14 17:20:37.982257,227338,1609504731706693,2331676420,-1.202432,-0.031232,0.023424,-10.33375,14.42875,-32.48,22.904001,25.432001,7.608,concentric,4,3.0,89286.0,275967.0,156098.0,265769.0,169245.0
2026-04-14 17:20:37.988581,227339,1609504731715675,2331685122,-1.202432,-0.031232,0.023424,-6.475,13.92125,-34.83375,22.904001,25.432001,7.608,concentric,4,3.0,89286.0,275967.0,156098.0,265769.0,169245.0
2026-04-14 17:20:38.001292,227340,1609504731724668,2331693802,-1.202432,-0.031232,-0.158112,-2.45875,14.67375,-37.05625,22.904001,25.432001,7.608,concentric,4,3.0,89286.0,275967.0,156098.0,265769.0,169245.0
2026-04-14 17:20:38.012425,227341,1609504731739143,2331708642,-1.280512,-0.179584,-0.158112,-6.8075,16.8,-38.465,22.792002,25.232,8.360001,concentric,4,3.0,89286.0,275967.0,156098.0,265769.0,169245.0
2026-04-14 17:20:38.021121,227342,1609504731748033,2331717350,-1.20048,-0.222528,-0.070272,-5.43375,21.105,-34.7375,22.592001,24.840002,8.912001,concentric,4,3.0,89286.0,275967.0,156098.0,265769.0,169245.0
2026-04-14 17:20:38.048788,227353,1609504731762569,2331732355,-1.20048,-0.222528,-0.070272,-1.855,24.3425,-30.02125,22.592001,24.840002,8.912001,concentric,4,3.0,94951.0,281049.0,163019.0,271295.0,176562.0
2026-04-14 17:20:38.051243,227354,1609504731771476,2331741032,-1.335168,0.03904,-0.271328,6.405,25.38375,-26.460001,21.688002,24.952002,10.488001,concentric,4,3.0,94951.0,281049.0,163019.0,271295.0,176562.0
2026-04-14 17:20:38.058718,227355,1609504731785994,2331755895,-1.257088,0.06832,0.01952,11.76875,23.05625,-28.81375,20.968,25.088001,12.872001,concentric,4,3.0,94951.0,281049.0,163019.0,271295.0,176562.0
2026-04-14 17:20:38.068764,227356,1609504731794967,2331764615,-1.257088,0.06832,0.01952,8.40875,21.14875,-37.625,20.968,25.088001,12.872001,concentric,4,3.0,94951.0,281049.0,163019.0,271295.0,176562.0
2026-04-14 17:20:38.077489,227357,1609504731803929,2331773307,-1.257088,0.06832,0.01952,-1.8025,19.9675,-49.23625,20.968,25.088001,12.872001,concentric,4,3.0,94951.0,281049.0,163019.0,271295.0,176562.0
2026-04-14 17:20:38.093702,227358,1609504731818495,2331788231,-1.30784,-0.160064,-0.12688,-8.81125,20.97375,-53.9,20.84,25.6,10.960001,concentric,4,3.0,94951.0,281049.0,163019.0,271295.0,176562.0
2026-04-14 17:20:38.101157,227359,1609504731827409,2331796906,-1.305888,-0.109312,-0.1952,-4.34,23.4325,-55.055,21.096,25.824001,10.968,concentric,4,3.0,94951.0,281049.0,163019.0,271295.0,176562.0
2026-04-14 17:20:38.115085,227360,1609504731841878,2331811862,-1.305888,-0.109312,-0.1952,5.94125,25.3575,-52.29,21.096,25.824001,10.968,concentric,4,3.0,94951.0,281049.0,163019.0,271295.0,176562.0
2026-04-14 17:20:38.147499,227371,1609504731850813,2331821076,-1.362496,-0.08784,-0.162016,9.33625,26.495,-50.96,21.000002,26.44,11.632001,concentric,4,3.0,108315.0,288299.0,179383.0,277728.0,193107.0
2026-04-14 17:20:38.150089,227372,1609504731865455,2331833920,-1.362496,-0.08784,-0.005856,6.62375,25.87375,-50.72375,21.000002,26.44,11.632001,concentric,4,3.0,108315.0,288299.0,179383.0,277728.0,193107.0
2026-04-14 17:20:38.152451,227373,1609504731874778,2331844656,-1.300032,0.025376,-0.007808,6.48375,26.25,-51.485,20.072,27.736002,15.376,concentric,4,3.0,108315.0,288299.0,179383.0,277728.0,193107.0
2026-04-14 17:20:38.157465,227374,1609504731883781,2331853388,-1.300032,0.025376,-0.007808,7.55125,25.095,-53.17375,20.072,27.736002,15.376,concentric,4,3.0,108315.0,288299.0,179383.0,277728.0,193107.0
2026-04-14 17:20:38.171278,227375,1609504731898251,2331868269,-1.321504,-0.025376,0.076128,3.22875,23.975,-52.0275,19.664001,28.704,14.200001,concentric,4,3.0,108315.0,288299.0,179383.0,277728.0,193107.0
2026-04-14 17:20:38.189266,227376,1609504731907180,2331876936,-1.342976,-0.181536,-0.054656,-2.8875,25.45375,-53.0775,21.288,29.224,10.472,concentric,4,3.0,108315.0,288299.0,179383.0,277728.0,193107.0
2026-04-14 17:20:38.208745,227377,1609504731921650,2331891804,-1.342976,-0.181536,-0.054656,-2.0825,28.77875,-50.951252,21.288,29.224,10.472,concentric,4,3.0,108315.0,288299.0,179383.0,277728.0,193107.0
2026-04-14 17:20:38.233855,227378,1609504731930577,2331900429,-1.389824,0.005856,-0.103456,3.47375,32.935,-46.27,20.872002,29.768002,10.776001,concentric,4,3.0,108315.0,288299.0,179383.0,277728.0,193107.0
2026-04-14 17:20:38.251437,227379,1609504731939485,2331909096,-1.389824,0.005856,-0.103456,10.3075,33.285,-43.47875,20.872002,29.768002,10.776001,concentric,4,3.0,108315.0,288299.0,179383.0,277728.0,193107.0
2026-04-14 17:20:38.278680,227390,1609504731954427,2331924024,-1.3176,-0.035136,-0.080032,9.10875,29.25125,-43.84625,20.400002,29.720001,10.120001,concentric,4,3.0,116046.0,292747.0,187452.0,280997.0,201513.0
2026-04-14 17:20:38.281172,227391,1609504731963403,2331932744,-1.3176,-0.035136,-0.080032,8.7675,24.0625,-45.42125,20.400002,29.720001,10.120001,concentric,4,3.0,116046.0,292747.0,187452.0,280997.0,201513.0
2026-04-14 17:20:38.283704,227392,1609504731977876,2331947636,-1.339072,0.05856,-0.179584,11.29625,19.775,-47.565,19.752,30.488,10.712001,concentric,4,3.0,116046.0,292747.0,187452.0,280997.0,201513.0
2026-04-14 17:20:38.286217,227393,1609504731986800,2331956348,-1.169248,-0.142496,0.037088,14.245,16.94875,-51.345,19.752,30.488,10.328,concentric,4,3.0,116046.0,292747.0,187452.0,280997.0,201513.0
2026-04-14 17:20:38.288691,227394,1609504731995751,2331965050,-1.169248,-0.142496,0.037088,13.4575,17.57,-54.76625,18.352001,30.504002,10.328,concentric,4,3.0,116046.0,292747.0,187452.0,280997.0,201513.0
2026-04-14 17:20:38.291174,227395,1609504732010278,2331980031,-1.145824,-0.16592,0.0,7.56875,20.615,-50.28625,17.76,30.712002,10.536,concentric,4,3.0,116046.0,292747.0,187452.0,280997.0,201513.0
2026-04-14 17:20:38.293672,227396,1609504732019201,2331988735,-1.145824,-0.16592,0.0,7.1925,22.9775,-45.675,17.76,30.712002,10.536,concentric,4,3.0,116046.0,292747.0,187452.0,280997.0,201513.0
2026-04-14 17:20:38.307672,227397,1609504732033680,2332003662,-1.15168,0.064416,-0.083936,15.715,21.27125,-43.9425,17.328001,30.896002,10.336,concentric,4,3.0,116046.0,292747.0,187452.0,280997.0,201513.0
2026-04-14 17:20:38.316462,227398,1609504732042606,2332012344,-1.15168,0.064416,-0.083936,16.975,16.70375,-48.58875,17.328001,30.896002,10.336,concentric,4,3.0,116046.0,292747.0,187452.0,280997.0,201513.0
