pc_time,serial_num,sensor_ts,host_ts,ax,ay,az,gx,gy,gz,mx,my,mz,phase,rpe,weight_kg,ppg_a,ppg_b,ppg_c,ppg_d,ppg_e,ppg_f,ppg_g,ppg_h,ppg_i,ppg_j
2026-05-06 16:27:13.465523,828037,1609507096847003,4696759446,0.847168,-0.368928,-0.0488,1.995,-9.73875,3.22,-33.056,-24.864,-79.75201,concentric,8,5.0,36657.0,40966.0,91327.0,77922.0,34628.0,50562.0,40946.0,43768.0,22904.0,17828.0
2026-05-06 16:27:13.469279,828038,1609507096856100,4696768254,0.894016,-0.335744,-0.081984,4.78625,-11.2175,5.635,-33.152,-26.856,-78.840004,concentric,8,5.0,36657.0,40966.0,91327.0,77922.0,34628.0,50562.0,40946.0,43768.0,22904.0,17828.0
2026-05-06 16:27:13.469589,828039,1609507096865041,4696777015,0.894016,-0.335744,-0.081984,2.89625,-10.3775,5.915,-33.152,-26.856,-78.840004,concentric,8,5.0,36657.0,40966.0,91327.0,77922.0,34628.0,50562.0,40946.0,43768.0,22904.0,17828.0
2026-05-06 16:27:13.469855,828040,1609507096879676,4696791943,0.853024,-0.308416,-0.070272,-1.4875,-8.3125,3.75375,-32.88,-26.616001,-78.864006,concentric,8,5.0,36657.0,40966.0,91327.0,77922.0,34628.0,50562.0,40946.0,43768.0,22904.0,17828.0
2026-05-06 16:27:13.476204,828041,1609507096888661,4696800688,0.853024,-0.308416,-0.070272,-3.3425,-8.505,1.16375,-32.88,-26.616001,-78.864006,concentric,8,5.0,36657.0,40966.0,91327.0,77922.0,34628.0,50562.0,40946.0,43768.0,22904.0,17828.0
2026-05-06 16:27:13.496420,828042,1609507096903209,4696815649,0.794464,-0.372832,-0.042944,-4.8475,-9.86125,0.91,-32.872,-26.232,-79.36,concentric,8,5.0,36657.0,40966.0,91327.0,77922.0,34628.0,50562.0,40946.0,43768.0,22904.0,17828.0
2026-05-06 16:27:13.498938,828043,1609507096912126,4696824366,0.798368,-0.365024,-0.081984,-5.50375,-11.6375,3.7625,-32.736,-24.152,-80.672005,concentric,8,5.0,36657.0,40966.0,91327.0,77922.0,34628.0,50562.0,40946.0,43768.0,22904.0,17828.0
2026-05-06 16:27:13.537832,828044,1609507096926600,4696839266,0.798368,-0.365024,-0.081984,-4.64625,-14.4025,6.88625,-32.736,-24.152,-80.672005,concentric,8,5.0,36657.0,40966.0,91327.0,77922.0,34628.0,50562.0,40946.0,43768.0,22904.0,17828.0
2026-05-06 16:27:13.540050,828045,1609507096935499,4696847992,0.813984,-0.327936,-0.11712,-4.57625,-16.0125,9.8525,-32.888,-24.472002,-80.768005,concentric,8,5.0,36657.0,40966.0,91327.0,77922.0,34628.0,50562.0,40946.0,43768.0,22904.0,17828.0
2026-05-06 16:27:13.570352,828056,1609507096944652,4696856860,0.813984,-0.327936,-0.11712,-3.9025,-16.555,10.9725,-32.888,-24.472002,-80.768005,concentric,8,5.0,36665.0,40438.0,90904.0,76992.0,34614.0,50152.0,40701.0,43231.0,22896.0,17661.0
2026-05-06 16:27:13.572963,828057,1609507096959273,4696871887,0.7808,-0.388448,-0.150304,-3.08875,-16.86125,11.45375,-32.832,-23.976002,-81.16,concentric,8,5.0,36665.0,40438.0,90904.0,76992.0,34614.0,50152.0,40701.0,43231.0,22896.0,17661.0
2026-05-06 16:27:13.575150,828058,1609507096968287,4696880623,0.7808,-0.388448,-0.150304,-3.31625,-17.605,12.32875,-32.832,-23.976002,-81.16,concentric,8,5.0,36665.0,40438.0,90904.0,76992.0,34614.0,50152.0,40701.0,43231.0,22896.0,17661.0
2026-05-06 16:27:13.577701,828059,1609507096982928,4696895612,0.772992,-0.372832,-0.122976,-3.22875,-18.7775,14.95375,-32.936,-27.464,-77.296005,concentric,8,5.0,36665.0,40438.0,90904.0,76992.0,34614.0,50152.0,40701.0,43231.0,22896.0,17661.0
2026-05-06 16:27:13.580190,828060,1609507096991882,4696904331,0.718336,-0.382592,-0.138592,-0.4375,-22.225,17.78,-33.136,-26.984001,-79.328,concentric,8,5.0,36665.0,40438.0,90904.0,76992.0,34614.0,50152.0,40701.0,43231.0,22896.0,17661.0
2026-05-06 16:27:13.586330,828061,1609507097000861,4696913142,0.718336,-0.382592,-0.138592,0.91,-24.91125,20.125,-33.136,-26.984001,-79.328,concentric,8,5.0,36665.0,40438.0,90904.0,76992.0,34614.0,50152.0,40701.0,43231.0,22896.0,17661.0
2026-05-06 16:27:13.620285,828062,1609507097015353,4696928053,0.870592,-0.366976,-0.08784,1.14625,-25.9875,23.77375,-33.016003,-23.328001,-81.392006,concentric,8,5.0,36665.0,40438.0,90904.0,76992.0,34614.0,50152.0,40701.0,43231.0,22896.0,17661.0
2026-05-06 16:27:13.622825,828063,1609507097024300,4696936725,0.870592,-0.366976,-0.08784,-0.67375,-25.6025,26.36375,-33.016003,-23.328001,-81.392006,concentric,8,5.0,36665.0,40438.0,90904.0,76992.0,34614.0,50152.0,40701.0,43231.0,22896.0,17661.0
2026-05-06 16:27:13.689074,828074,1609507097039157,4696951955,0.698816,-0.37088,-0.115168,0.67375,-26.285,26.4075,-32.488003,-23.320002,-81.880005,concentric,8,5.0,37619.0,40637.0,91595.0,76379.0,35441.0,50356.0,41097.0,42851.0,23376.0,17781.0
2026-05-06 16:27:13.691389,828075,1609507097048246,4696960812,0.698816,-0.37088,-0.115168,0.11375,-28.8575,26.10125,-32.488003,-23.320002,-81.880005,concentric,8,5.0,37619.0,40637.0,91595.0,76379.0,35441.0,50356.0,41097.0,42851.0,23376.0,17781.0
2026-05-06 16:27:13.694044,828076,1609507097057278,4696969538,0.704672,-0.363072,-0.122976,-4.27875,-32.9875,30.98375,-32.832,-24.320002,-80.80801,concentric,8,5.0,37619.0,40637.0,91595.0,76379.0,35441.0,50356.0,41097.0,42851.0,23376.0,17781.0
2026-05-06 16:27:13.696534,828077,1609507097071745,4696984451,0.796416,-0.423584,-0.191296,-6.64125,-35.98,36.26,-33.064003,-23.960001,-81.184006,concentric,8,5.0,37619.0,40637.0,91595.0,76379.0,35441.0,50356.0,41097.0,42851.0,23376.0,17781.0
2026-05-06 16:27:13.699048,828078,1609507097080696,4696993357,0.796416,-0.423584,-0.191296,-7.49875,-37.4325,37.6775,-33.064003,-23.960001,-81.184006,concentric,8,5.0,37619.0,40637.0,91595.0,76379.0,35441.0,50356.0,41097.0,42851.0,23376.0,17781.0
2026-05-06 16:27:13.701498,828079,1609507097095235,4697006205,0.79056,-0.411872,-0.099552,-8.82,-37.24875,39.08625,-32.336002,-21.752,-83.11201,concentric,8,5.0,37619.0,40637.0,91595.0,76379.0,35441.0,50356.0,41097.0,42851.0,23376.0,17781.0
2026-05-06 16:27:13.707858,828080,1609507097104617,4697017053,0.79056,-0.411872,-0.099552,-9.292501,-36.46125,38.56125,-32.336002,-21.752,-83.11201,concentric,8,5.0,37619.0,40637.0,91595.0,76379.0,35441.0,50356.0,41097.0,42851.0,23376.0,17781.0
2026-05-06 16:27:13.714060,828081,1609507097119224,4697031938,0.612928,-0.411872,-0.085888,-4.41875,-38.68375,37.16125,-32.368,-24.784,-81.256004,concentric,8,5.0,37619.0,40637.0,91595.0,76379.0,35441.0,50356.0,41097.0,42851.0,23376.0,17781.0
2026-05-06 16:27:13.716448,828082,1609507097128204,4697040691,0.612928,-0.411872,-0.085888,-1.14625,-43.295002,39.33125,-32.368,-24.784,-81.256004,concentric,8,5.0,37619.0,40637.0,91595.0,76379.0,35441.0,50356.0,41097.0,42851.0,23376.0,17781.0
2026-05-06 16:27:13.725446,828083,1609507097137192,4697049401,0.70272,-0.41968,-0.18544,-2.47625,-48.20375,45.5875,-32.568,-20.688002,-83.712006,concentric,8,5.0,37619.0,40637.0,91595.0,76379.0,35441.0,50356.0,41097.0,42851.0,23376.0,17781.0
2026-05-06 16:27:13.814087,828094,1609507097151857,4697064452,0.81008,-0.441152,-0.163968,-4.69,-51.03,52.045002,-32.024002,-20.624,-84.648,concentric,8,5.0,39102.0,41592.0,92521.0,75254.0,36843.0,51488.0,41607.0,42226.0,24057.0,18232.0
2026-05-06 16:27:13.816561,828095,1609507097160780,4697073349,0.81008,-0.441152,-0.163968,-6.685,-50.53125,55.44875,-32.024002,-20.624,-84.648,concentric,8,5.0,39102.0,41592.0,92521.0,75254.0,36843.0,51488.0,41607.0,42226.0,24057.0,18232.0
2026-05-06 16:27:13.819075,828096,1609507097175418,4697086230,0.689056,-0.407968,-0.152256,-5.25,-49.6125,54.11,-32.344,-19.504002,-85.11201,concentric,8,5.0,39102.0,41592.0,92521.0,75254.0,36843.0,51488.0,41607.0,42226.0,24057.0,18232.0
2026-05-06 16:27:13.821561,828097,1609507097184647,4697097127,0.689056,-0.407968,-0.152256,-2.40625,-51.52,52.21125,-32.344,-19.504002,-85.11201,concentric,8,5.0,39102.0,41592.0,92521.0,75254.0,36843.0,51488.0,41607.0,42226.0,24057.0,18232.0
2026-05-06 16:27:13.824035,828098,1609507097193589,4697105834,0.6832,-0.499712,-0.208864,-0.18375,-55.0025,52.2375,-31.712002,-19.192001,-85.968,concentric,8,5.0,39102.0,41592.0,92521.0,75254.0,36843.0,51488.0,41607.0,42226.0,24057.0,18232.0
2026-05-06 16:27:13.828696,828099,1609507097208184,4697120965,0.6832,-0.499712,-0.208864,-5.3025,-57.5925,54.76625,-31.712002,-19.192001,-85.968,concentric,8,5.0,39102.0,41592.0,92521.0,75254.0,36843.0,51488.0,41607.0,42226.0,24057.0,18232.0
2026-05-06 16:27:13.829244,828100,1609507097217258,4697129689,0.825696,-0.571936,-0.230336,-7.1925,-59.920002,57.3475,-31.472002,-20.792002,-85.200005,concentric,8,5.0,39102.0,41592.0,92521.0,75254.0,36843.0,51488.0,41607.0,42226.0,24057.0,18232.0
2026-05-06 16:27:13.831219,828101,1609507097231773,4697142569,0.872544,-0.505568,-0.162016,-4.71625,-61.3025,55.6675,-31.472002,-20.792002,-85.856,concentric,8,5.0,39102.0,41592.0,92521.0,75254.0,36843.0,51488.0,41607.0,42226.0,24057.0,18232.0
2026-05-06 16:27:13.869055,828112,1609507097241355,4697153531,0.85888,-0.505568,-0.162016,-0.5075,-62.125,52.56125,-31.256002,-17.368,-85.856,concentric,8,5.0,39510.0,41552.0,92740.0,74871.0,37297.0,51445.0,41748.0,42006.0,24306.0,18192.0
2026-05-06 16:27:13.871586,828113,1609507097250367,4697162347,0.85888,-0.505568,-0.162016,-0.035,-62.8425,48.405,-31.256002,-17.368,-85.856,concentric,8,5.0,39510.0,41552.0,92740.0,74871.0,37297.0,51445.0,41748.0,42006.0,24306.0,18192.0
2026-05-06 16:27:13.873974,828114,1609507097264904,4697177323,0.724192,-0.568032,-0.271328,-2.44125,-62.57125,43.46125,-30.384,-17.456001,-88.01601,concentric,8,5.0,39510.0,41552.0,92740.0,74871.0,37297.0,51445.0,41748.0,42006.0,24306.0,18192.0
2026-05-06 16:27:13.876571,828115,1609507097273940,4697186114,0.67344,-0.540704,-0.249856,-10.15875,-61.451252,39.48875,-29.952002,-16.560001,-88.08,concentric,8,5.0,39510.0,41552.0,92740.0,74871.0,37297.0,51445.0,41748.0,42006.0,24306.0,18192.0
2026-05-06 16:27:13.879074,828116,1609507097288522,4697201075,0.67344,-0.540704,-0.249856,-11.20875,-63.53375,40.145,-29.952002,-16.560001,-88.08,concentric,8,5.0,39510.0,41552.0,92740.0,74871.0,37297.0,51445.0,41748.0,42006.0,24306.0,18192.0
2026-05-06 16:27:13.882864,828117,1609507097297603,4697209903,0.626592,-0.544608,-0.324032,-6.08125,-68.22375,41.22125,-29.688002,-16.928001,-89.032005,concentric,8,5.0,39510.0,41552.0,92740.0,74871.0,37297.0,51445.0,41748.0,42006.0,24306.0,18192.0
2026-05-06 16:27:13.896554,828118,1609507097306677,4697218688,0.626592,-0.544608,-0.324032,-6.7375,-70.945,41.69375,-29.688002,-16.928001,-89.032005,concentric,8,5.0,39510.0,41552.0,92740.0,74871.0,37297.0,51445.0,41748.0,42006.0,24306.0,18192.0
2026-05-06 16:27:13.910333,828119,1609507097321341,4697233600,0.607072,-0.49776,-0.329888,-11.48875,-73.22,45.0625,-28.832,-15.816001,-89.41601,concentric,8,5.0,39510.0,41552.0,92740.0,74871.0,37297.0,51445.0,41748.0,42006.0,24306.0,18192.0
2026-05-06 16:27:13.916568,828120,1609507097330272,4697242318,0.607072,-0.49776,-0.329888,-5.31125,-76.44,46.69,-28.832,-15.816001,-89.41601,concentric,8,5.0,39510.0,41552.0,92740.0,74871.0,37297.0,51445.0,41748.0,42006.0,24306.0,18192.0
2026-05-06 16:27:13.955213,828131,1609507097344900,4697255830,0.564128,-0.552416,-0.298656,-3.64875,-77.53375,45.7625,-27.712002,-17.144001,-90.4,concentric,8,5.0,40172.0,41899.0,92900.0,74743.0,37878.0,51749.0,41826.0,41927.0,24695.0,18344.0
2026-05-06 16:27:13.957567,828132,1609507097354340,4697266692,0.540704,-0.601216,-0.433344,-1.715,-78.82,49.51625,-27.304,-16.408,-89.600006,concentric,8,5.0,40172.0,41899.0,92900.0,74743.0,37878.0,51749.0,41826.0,41927.0,24695.0,18344.0
2026-05-06 16:27:13.960194,828133,1609507097363330,4697275427,0.540704,-0.601216,-0.433344,5.4075,-79.73,52.045002,-27.304,-16.408,-89.600006,concentric,8,5.0,40172.0,41899.0,92900.0,74743.0,37878.0,51749.0,41826.0,41927.0,24695.0,18344.0
2026-05-06 16:27:13.962800,828134,1609507097377876,4697290431,0.665632,-0.616832,-0.376736,6.51,-79.05625,52.94625,-26.640001,-15.536001,-91.096,concentric,8,5.0,40172.0,41899.0,92900.0,74743.0,37878.0,51749.0,41826.0,41927.0,24695.0,18344.0
2026-05-06 16:27:13.976569,828135,1609507097386886,4697299147,0.665632,-0.616832,-0.376736,5.39875,-79.2575,54.13625,-26.640001,-15.536001,-91.096,concentric,8,5.0,40172.0,41899.0,92900.0,74743.0,37878.0,51749.0,41826.0,41927.0,24695.0,18344.0
2026-05-06 16:27:13.990198,828136,1609507097401490,4697314196,0.50752,-0.550464,-0.277184,5.59125,-82.15375,51.8875,-26.04,-14.672001,-93.37601,concentric,8,5.0,40172.0,41899.0,92900.0,74743.0,37878.0,51749.0,41826.0,41927.0,24695.0,18344.0
2026-05-06 16:27:13.996600,828137,1609507097410422,4697322893,0.50752,-0.550464,-0.277184,10.22875,-87.0975,49.81375,-26.04,-14.672001,-93.37601,concentric,8,5.0,40172.0,41899.0,92900.0,74743.0,37878.0,51749.0,41826.0,41927.0,24695.0,18344.0
2026-05-06 16:27:14.005201,828138,1609507097419417,4697331631,0.480192,-0.628544,-0.378688,10.22,-91.56875,49.91,-24.656002,-12.224001,-93.912,concentric,8,5.0,40172.0,41899.0,92900.0,74743.0,37878.0,51749.0,41826.0,41927.0,24695.0,18344.0
2026-05-06 16:27:14.039031,828139,1609507097433937,4697346569,0.55632,-0.677344,-0.501664,1.84625,-93.275,52.920002,-23.728,-11.952001,-94.128006,concentric,8,5.0,40172.0,41899.0,92900.0,74743.0,37878.0,51749.0,41826.0,41927.0,24695.0,18344.0
2026-05-06 16:27:14.077765,828150,1609507097443625,4697355369,0.55632,-0.677344,-0.501664,-3.5,-93.93125,55.4925,-23.728,-11.952001,-94.128006,concentric,8,5.0,40869.0,42123.0,93010.0,74692.0,38379.0,52078.0,41879.0,41921.0,24969.0,18464.0
2026-05-06 16:27:14.080075,828151,1609507097458208,4697370323,0.493856,-0.599264,-0.398208,-3.99875,-93.7825,53.235,-22.752,-12.088,-95.464005,concentric,8,5.0,40869.0,42123.0,93010.0,74692.0,38379.0,52078.0,41879.0,41921.0,24969.0,18464.0
2026-05-06 16:27:14.082496,828152,1609507097467159,4697379037,0.493856,-0.599264,-0.398208,-4.85625,-95.9525,51.26625,-22.752,-12.088,-95.464005,concentric,8,5.0,40869.0,42123.0,93010.0,74692.0,38379.0,52078.0,41879.0,41921.0,24969.0,18464.0
2026-05-06 16:27:14.085207,828153,1609507097476181,4697387850,0.372832,-0.646112,-0.569984,1.14625,-99.86375,50.855,-21.28,-14.568001,-94.192,concentric,8,5.0,40869.0,42123.0,93010.0,74692.0,38379.0,52078.0,41879.0,41921.0,24969.0,18464.0
2026-05-06 16:27:14.087763,828154,1609507097490670,4697402813,0.372832,-0.646112,-0.569984,4.235,-102.27,50.53125,-21.28,-14.568001,-94.192,concentric,8,5.0,40869.0,42123.0,93010.0,74692.0,38379.0,52078.0,41879.0,41921.0,24969.0,18464.0
2026-05-06 16:27:14.090014,828155,1609507097499799,4697411543,0.466528,-0.81008,-0.64416,1.2425,-101.29875,52.6925,-19.76,-10.496,-97.272,concentric,8,5.0,40869.0,42123.0,93010.0,74692.0,38379.0,52078.0,41879.0,41921.0,24969.0,18464.0
2026-05-06 16:27:14.119578,828156,1609507097514323,4697426509,0.542656,-0.7808,-0.51728,-6.06375,-98.8925,54.197502,-18.584002,-10.136001,-95.872,concentric,8,5.0,40869.0,42123.0,93010.0,74692.0,38379.0,52078.0,41879.0,41921.0,24969.0,18464.0
2026-05-06 16:27:14.144056,828157,1609507097523273,4697435229,0.542656,-0.7808,-0.51728,-6.32625,-99.1725,50.47,-18.584002,-10.136001,-95.872,concentric,8,5.0,40869.0,42123.0,93010.0,74692.0,38379.0,52078.0,41879.0,41921.0,24969.0,18464.0
2026-05-06 16:27:14.167933,828158,1609507097537874,4697450234,0.441152,-0.75152,-0.542656,-2.98375,-99.575,43.53125,-17.08,-9.424001,-98.368004,concentric,8,5.0,40869.0,42123.0,93010.0,74692.0,38379.0,52078.0,41879.0,41921.0,24969.0,18464.0
2026-05-06 16:27:14.195198,828169,1609507097547124,4697459183,0.441152,-0.75152,-0.542656,3.42125,-98.98875,40.25,-17.08,-9.424001,-98.368004,concentric,8,5.0,41657.0,43220.0,93421.0,75225.0,38998.0,53328.0,42085.0,42114.0,25104.0,18884.0
2026-05-06 16:27:14.197843,828170,1609507097556077,4697467981,0.36112,-0.70272,-0.6832,-0.735,-98.42,39.69875,-16.048,-9.424001,-99.54401,concentric,8,5.0,41657.0,43220.0,93421.0,75225.0,38998.0,53328.0,42085.0,42114.0,25104.0,18884.0
2026-05-06 16:27:14.200287,828171,1609507097570598,4697482914,0.36112,-0.70272,-0.6832,-8.21625,-97.79875,41.1775,-16.048,-9.424001,-99.54401,concentric,8,5.0,41657.0,43220.0,93421.0,75225.0,38998.0,53328.0,42085.0,42114.0,25104.0,18884.0
2026-05-06 16:27:14.202853,828172,1609507097579638,4697491629,0.355264,-0.730048,-0.696864,-12.71375,-96.425,40.73125,-14.448001,-9.528001,-99.94401,concentric,8,5.0,41657.0,43220.0,93421.0,75225.0,38998.0,53328.0,42085.0,42114.0,25104.0,18884.0
2026-05-06 16:27:14.205295,828173,1609507097594229,4697506613,0.355264,-0.745664,-0.66368,-18.99625,-93.68625,37.0125,-14.448001,-9.528001,-99.94401,concentric,8,5.0,41657.0,43220.0,93421.0,75225.0,38998.0,53328.0,42085.0,42114.0,25104.0,18884.0
2026-05-06 16:27:14.209443,828174,1609507097603176,4697515384,0.316224,-0.743712,-0.66368,-20.553751,-92.02375,36.32125,-13.040001,-11.024,-99.328,concentric,8,5.0,41657.0,43220.0,93421.0,75225.0,38998.0,53328.0,42085.0,42114.0,25104.0,18884.0
2026-05-06 16:27:14.209991,828175,1609507097612125,4697524131,0.316224,-0.743712,-0.66368,-21.07875,-91.385,37.59,-13.040001,-11.024,-99.328,concentric,8,5.0,41657.0,43220.0,93421.0,75225.0,38998.0,53328.0,42085.0,42114.0,25104.0,18884.0
2026-05-06 16:27:14.212630,828176,1609507097626663,4697539128,0.244,-0.691008,-0.706624,-17.57875,-90.71125,38.33375,-11.88,-11.384001,-98.872,concentric,8,5.0,41657.0,43220.0,93421.0,75225.0,38998.0,53328.0,42085.0,42114.0,25104.0,18884.0
2026-05-06 16:27:14.221381,828177,1609507097635710,4697547850,0.160064,-0.71248,-0.81984,-13.25625,-90.3,38.85875,-10.672001,-12.296001,-99.048004,concentric,8,5.0,41657.0,43220.0,93421.0,75225.0,38998.0,53328.0,42085.0,42114.0,25104.0,18884.0
2026-05-06 16:27:14.255326,828188,1609507097650490,4697562956,0.160064,-0.71248,-0.81984,-10.68375,-89.36375,39.47125,-10.672001,-12.296001,-99.048004,concentric,8,5.0,42555.0,44639.0,94563.0,76611.0,39853.0,54703.0,42627.0,42754.0,25417.0,19392.0
2026-05-06 16:27:14.260247,828189,1609507097659988,4697571799,0.199104,-0.718336,-0.71248,-11.20875,-88.19125,40.0575,-8.912001,-12.776001,-99.576004,concentric,8,5.0,42555.0,44639.0,94563.0,76611.0,39853.0,54703.0,42627.0,42754.0,25417.0,19392.0
2026-05-06 16:27:14.262792,828190,1609507097669299,4697580702,0.199104,-0.718336,-0.71248,-11.64625,-86.3625,41.86875,-8.912001,-12.776001,-99.576004,concentric,8,5.0,42555.0,44639.0,94563.0,76611.0,39853.0,54703.0,42627.0,42754.0,25417.0,19392.0
2026-05-06 16:27:14.270299,828191,1609507097683836,4697595624,0.212768,-0.679296,-0.708576,-7.0525,-85.225,43.49625,-7.872,-12.256001,-101.01601,concentric,8,5.0,42555.0,44639.0,94563.0,76611.0,39853.0,54703.0,42627.0,42754.0,25417.0,19392.0
2026-05-06 16:27:14.280338,828192,1609507097692835,4697604350,0.212768,-0.679296,-0.708576,-4.01625,-82.88,44.4325,-7.872,-12.256001,-101.01601,concentric,8,5.0,42555.0,44639.0,94563.0,76611.0,39853.0,54703.0,42627.0,42754.0,25417.0,19392.0
2026-05-06 16:27:14.293948,828193,1609507097707332,4697619267,0.109312,-0.6832,-0.786656,-4.69,-80.38625,46.2,-6.232,-8.92,-103.73601,concentric,8,5.0,42555.0,44639.0,94563.0,76611.0,39853.0,54703.0,42627.0,42754.0,25417.0,19392.0
2026-05-06 16:27:14.325129,828194,1609507097716232,4697628145,0.074176,-0.694912,-0.8296,-10.63125,-77.0875,48.58,-5.848,-10.384001,-101.01601,concentric,8,5.0,42555.0,44639.0,94563.0,76611.0,39853.0,54703.0,42627.0,42754.0,25417.0,19392.0
2026-05-06 16:27:14.327715,828195,1609507097725219,4697636827,0.074176,-0.694912,-0.8296,-15.00625,-74.13,48.4575,-5.848,-10.384001,-101.01601,concentric,8,5.0,42555.0,44639.0,94563.0,76611.0,39853.0,54703.0,42627.0,42754.0,25417.0,19392.0
2026-05-06 16:27:14.330194,828196,1609507097739818,4697651871,0.072224,-0.80032,-0.755424,-14.1575,-70.2975,47.17125,-4.08,-8.768001,-102.84801,concentric,8,5.0,42555.0,44639.0,94563.0,76611.0,39853.0,54703.0,42627.0,42754.0,25417.0,19392.0
2026-05-06 16:27:14.366575,828207,1609507097749189,4697660778,0.072224,-0.80032,-0.755424,-19.03125,-66.78875,45.955,-4.08,-8.768001,-102.84801,concentric,8,5.0,43063.0,45728.0,95357.0,78162.0,40469.0,55834.0,42999.0,43561.0,25681.0,19815.0
2026-05-06 16:27:14.369091,828208,1609507097764051,4697675938,0.091744,-0.749568,-0.825696,-22.00625,-63.06125,47.24125,-2.944,-10.0,-103.128006,concentric,8,5.0,43063.0,45728.0,95357.0,78162.0,40469.0,55834.0,42999.0,43561.0,25681.0,19815.0
2026-05-06 16:27:14.371582,828209,1609507097773075,4697684725,0.091744,-0.749568,-0.825696,-13.1775,-60.78625,46.12125,-2.944,-10.0,-103.128006,concentric,8,5.0,43063.0,45728.0,95357.0,78162.0,40469.0,55834.0,42999.0,43561.0,25681.0,19815.0
2026-05-06 16:27:14.373837,828210,1609507097781999,4697693549,0.003904,-0.735904,-0.876448,-8.12,-61.39,43.74125,-2.128,-10.816001,-101.296005,concentric,8,5.0,43063.0,45728.0,95357.0,78162.0,40469.0,55834.0,42999.0,43561.0,25681.0,19815.0
2026-05-06 16:27:14.385228,828211,1609507097796610,4697708651,-0.025376,-0.747616,-0.808128,-7.8225,-61.705,44.59875,-1.576,-12.120001,-99.47201,concentric,8,5.0,43063.0,45728.0,95357.0,78162.0,40469.0,55834.0,42999.0,43561.0,25681.0,19815.0
2026-05-06 16:27:14.392129,828212,1609507097805663,4697717370,-0.025376,-0.747616,-0.808128,-9.730001,-59.885002,43.89875,-1.576,-12.120001,-99.47201,concentric,8,5.0,43063.0,45728.0,95357.0,78162.0,40469.0,55834.0,42999.0,43561.0,25681.0,19815.0
2026-05-06 16:27:14.425273,828213,1609507097820178,4697732315,0.017568,-0.813984,-0.827648,-10.57875,-57.3125,41.22125,-0.272,-9.232,-103.048004,concentric,8,5.0,43063.0,45728.0,95357.0,78162.0,40469.0,55834.0,42999.0,43561.0,25681.0,19815.0
2026-05-06 16:27:14.427737,828214,1609507097829137,4697741199,0.017568,-0.813984,-0.827648,-9.30125,-54.15375,40.775,-0.272,-9.232,-103.048004,concentric,8,5.0,43063.0,45728.0,95357.0,78162.0,40469.0,55834.0,42999.0,43561.0,25681.0,19815.0
2026-05-06 16:27:14.482657,828225,1609507097843941,4697754695,0.027328,-0.759328,-0.776896,-13.62375,-51.26625,42.4375,0.576,-8.832001,-103.336006,concentric,8,5.0,43973.0,46470.0,95771.0,79612.0,41405.0,56600.0,43243.0,44305.0,26136.0,20109.0
2026-05-06 16:27:14.507495,828226,1609507097853019,4697765528,0.027328,-0.759328,-0.776896,-13.685,-48.55375,42.76125,0.576,-8.832001,-103.336006,concentric,8,5.0,43973.0,46470.0,95771.0,79612.0,41405.0,56600.0,43243.0,44305.0,26136.0,20109.0
2026-05-06 16:27:14.513899,828227,1609507097862092,4697774425,0.011712,-0.745664,-0.864736,-10.85,-46.7425,41.62375,1.232,-9.320001,-103.176,concentric,8,5.0,43973.0,46470.0,95771.0,79612.0,41405.0,56600.0,43243.0,44305.0,26136.0,20109.0
2026-05-06 16:27:14.516416,828228,1609507097876598,4697787401,-0.054656,-0.763232,-0.759328,-8.65375,-45.57875,40.451252,1.232,-9.320001,-102.176,concentric,8,5.0,43973.0,46470.0,95771.0,79612.0,41405.0,56600.0,43243.0,44305.0,26136.0,20109.0
2026-05-06 16:27:14.518904,828229,1609507097885829,4697798306,-0.054656,-0.763232,-0.759328,-10.823751,-43.3475,41.43125,2.104,-10.344001,-102.176,concentric,8,5.0,43973.0,46470.0,95771.0,79612.0,41405.0,56600.0,43243.0,44305.0,26136.0,20109.0
2026-05-06 16:27:14.521467,828230,1609507097900489,4697813215,-0.07808,-0.765184,-0.753472,-11.06875,-40.888752,42.51625,2.552,-9.424001,-103.520004,concentric,8,5.0,43973.0,46470.0,95771.0,79612.0,41405.0,56600.0,43243.0,44305.0,26136.0,20109.0
2026-05-06 16:27:14.524006,828231,1609507097909459,4697821949,-0.07808,-0.765184,-0.753472,-8.96875,-38.4475,44.205,2.552,-9.424001,-103.520004,concentric,8,5.0,43973.0,46470.0,95771.0,79612.0,41405.0,56600.0,43243.0,44305.0,26136.0,20109.0
2026-05-06 16:27:14.526281,828232,1609507097918453,4697830691,-0.06832,-0.730048,-0.808128,-13.11625,-37.65125,44.61625,3.24,-10.016001,-103.312004,concentric,8,5.0,43973.0,46470.0,95771.0,79612.0,41405.0,56600.0,43243.0,44305.0,26136.0,20109.0
2026-05-06 16:27:14.528721,828233,1609507097932954,4697845587,-0.06832,-0.730048,-0.808128,-16.0125,-38.5,43.89875,3.24,-10.016001,-103.312004,concentric,8,5.0,43973.0,46470.0,95771.0,79612.0,41405.0,56600.0,43243.0,44305.0,26136.0,20109.0
2026-05-06 16:27:14.531243,828234,1609507097941882,4697854499,-0.115168,-0.755424,-0.767136,-17.75375,-39.75125,40.78375,4.024,-10.240001,-103.392006,concentric,8,5.0,43973.0,46470.0,95771.0,79612.0,41405.0,56600.0,43243.0,44305.0,26136.0,20109.0
2026-05-06 16:27:14.570301,828245,1609507097956548,4697867470,-0.115168,-0.755424,-0.767136,-20.95625,-40.5475,38.64875,4.024,-10.240001,-103.392006,concentric,8,5.0,44957.0,46712.0,96400.0,80305.0,42302.0,56861.0,43558.0,44615.0,26593.0,20212.0
2026-05-06 16:27:14.572919,828246,1609507097965959,4697878281,-0.16592,-0.743712,-0.739808,-22.6275,-39.13,38.99,4.28,-10.384001,-103.48,concentric,8,5.0,44957.0,46712.0,96400.0,80305.0,42302.0,56861.0,43558.0,44615.0,26593.0,20212.0
2026-05-06 16:27:14.579144,828247,1609507097974906,4697887045,-0.16592,-0.743712,-0.739808,-22.00625,-36.575,38.56125,4.28,-10.384001,-103.48,concentric,8,5.0,44957.0,46712.0,96400.0,80305.0,42302.0,56861.0,43558.0,44615.0,26593.0,20212.0
2026-05-06 16:27:14.581559,828248,1609507097989453,4697902093,-0.222528,-0.67344,-0.763232,-24.01,-33.80125,38.22875,5.08,-10.984,-103.176,concentric,8,5.0,44957.0,46712.0,96400.0,80305.0,42302.0,56861.0,43558.0,44615.0,26593.0,20212.0
2026-05-06 16:27:14.585319,828249,1609507097998569,4697910844,-0.220576,-0.70272,-0.76128,-23.1175,-31.57,38.3075,5.256,-13.64,-104.48801,concentric,8,5.0,44957.0,46712.0,96400.0,80305.0,42302.0,56861.0,43558.0,44615.0,26593.0,20212.0
2026-05-06 16:27:14.600399,828250,1609507098013085,4697925779,-0.220576,-0.70272,-0.76128,-27.116251,-28.875,37.87875,5.256,-13.64,-104.48801,concentric,8,5.0,44957.0,46712.0,96400.0,80305.0,42302.0,56861.0,43558.0,44615.0,26593.0,20212.0
2026-05-06 16:27:14.607577,828251,1609507098021991,4697934569,-0.208864,-0.872544,-0.765184,-29.81125,-24.94625,35.79625,5.76,-12.408001,-103.272,concentric,8,5.0,44957.0,46712.0,96400.0,80305.0,42302.0,56861.0,43558.0,44615.0,26593.0,20212.0
2026-05-06 16:27:14.621417,828252,1609507098030994,4697943340,-0.208864,-0.872544,-0.765184,-26.2675,-21.63875,30.161251,5.76,-12.408001,-103.272,concentric,8,5.0,44957.0,46712.0,96400.0,80305.0,42302.0,56861.0,43558.0,44615.0,26593.0,20212.0
2026-05-06 16:27:14.657710,828263,1609507098046057,4697958410,-0.201056,-0.876448,-0.806176,-21.72625,-19.2675,27.4225,5.816001,-12.688001,-102.54401,concentric,8,5.0,45407.0,46739.0,96718.0,80284.0,42778.0,56970.0,43800.0,44597.0,26820.0,20210.0
2026-05-06 16:27:14.660402,828264,1609507098055241,4697967275,-0.201056,-0.876448,-0.806176,-15.28625,-16.31,25.6375,5.816001,-12.688001,-102.54401,concentric,8,5.0,45407.0,46739.0,96718.0,80284.0,42778.0,56970.0,43800.0,44597.0,26820.0,20210.0
2026-05-06 16:27:14.662873,828265,1609507098069840,4697982234,-0.171776,-0.786656,-0.892064,-12.74,-13.92125,22.16375,5.944,-14.320001,-102.088005,concentric,8,5.0,45407.0,46739.0,96718.0,80284.0,42778.0,56970.0,43800.0,44597.0,26820.0,20210.0
2026-05-06 16:27:14.669047,828266,1609507098078799,4697990934,-0.20496,-0.802272,-0.83936,-13.72,-11.6375,16.1,6.064,-14.280001,-101.01601,concentric,8,5.0,45407.0,46739.0,96718.0,80284.0,42778.0,56970.0,43800.0,44597.0,26820.0,20210.0
2026-05-06 16:27:14.677139,828267,1609507098087760,4697999706,-0.20496,-0.802272,-0.83936,-13.615,-9.135,8.82875,6.064,-14.280001,-101.01601,concentric,8,5.0,45407.0,46739.0,96718.0,80284.0,42778.0,56970.0,43800.0,44597.0,26820.0,20210.0
2026-05-06 16:27:14.691415,828268,1609507098102279,4698014654,-0.226432,-0.812032,-0.874496,-14.28,-6.5275,5.15375,6.136,-13.000001,-103.176,concentric,8,5.0,45407.0,46739.0,96718.0,80284.0,42778.0,56970.0,43800.0,44597.0,26820.0,20210.0
2026-05-06 16:27:14.697727,828269,1609507098111272,4698023393,-0.226432,-0.812032,-0.874496,-11.61125,-3.745,2.40625,6.136,-13.000001,-103.176,concentric,8,5.0,45407.0,46739.0,96718.0,80284.0,42778.0,56970.0,43800.0,44597.0,26820.0,20210.0
2026-05-06 16:27:14.731414,828270,1609507098125787,4698038406,-0.20496,-0.759328,-0.880352,-7.245,-0.4025,-2.1525,6.408001,-12.224001,-103.20801,concentric,8,5.0,45407.0,46739.0,96718.0,80284.0,42778.0,56970.0,43800.0,44597.0,26820.0,20210.0
2026-05-06 16:27:14.733914,828271,1609507098134703,4698047144,-0.20496,-0.759328,-0.880352,-3.00125,3.14125,-3.64875,6.408001,-12.224001,-103.20801,concentric,8,5.0,45407.0,46739.0,96718.0,80284.0,42778.0,56970.0,43800.0,44597.0,26820.0,20210.0
2026-05-06 16:27:14.761484,828282,1609507098149497,4698062092,-0.22448,-0.706624,-0.872544,0.8925,5.95875,-6.20375,5.92,-12.896001,-103.312004,concentric,8,5.0,45659.0,47142.0,96782.0,80743.0,43095.0,57515.0,43864.0,44821.0,26890.0,20414.0
2026-05-06 16:27:14.764021,828283,1609507098158549,4698070895,-0.22448,-0.726144,-0.899872,2.38,8.09375,-8.505,5.92,-12.896001,-101.26401,concentric,8,5.0,45659.0,47142.0,96782.0,80743.0,43095.0,57515.0,43864.0,44821.0,26890.0,20414.0
2026-05-06 16:27:14.766544,828284,1609507098167541,4698079657,-0.22448,-0.726144,-0.899872,4.9175,9.56375,-11.20875,5.672,-15.968,-101.560005,concentric,8,5.0,45659.0,47142.0,96782.0,80743.0,43095.0,57515.0,43864.0,44821.0,26890.0,20414.0
2026-05-06 16:27:14.769003,828285,1609507098182087,4698094738,-0.232288,-0.737856,-0.853024,12.11,10.33375,-13.86875,5.752,-15.200001,-102.52801,concentric,8,5.0,45659.0,47142.0,96782.0,80743.0,43095.0,57515.0,43864.0,44821.0,26890.0,20414.0
2026-05-06 16:27:14.778907,828286,1609507098191182,4698103464,-0.232288,-0.737856,-0.853024,19.29375,11.76875,-14.49,5.752,-15.200001,-102.52801,concentric,8,5.0,45659.0,47142.0,96782.0,80743.0,43095.0,57515.0,43864.0,44821.0,26890.0,20414.0
2026-05-06 16:27:14.792691,828287,1609507098205706,4698118370,-0.20496,-0.689056,-0.798368,25.1825,13.53625,-14.175,5.44,-11.264001,-103.51201,concentric,8,5.0,45659.0,47142.0,96782.0,80743.0,43095.0,57515.0,43864.0,44821.0,26890.0,20414.0
2026-05-06 16:27:14.801464,828288,1609507098214653,4698127121,-0.20496,-0.689056,-0.798368,28.28875,15.12875,-14.90125,5.44,-11.264001,-103.51201,concentric,8,5.0,45659.0,47142.0,96782.0,80743.0,43095.0,57515.0,43864.0,44821.0,26890.0,20414.0
2026-05-06 16:27:14.810139,828289,1609507098223572,4698135852,-0.18544,-0.661728,-0.769088,28.13125,14.98875,-14.875,5.624,-11.376,-103.47201,concentric,8,5.0,45659.0,47142.0,96782.0,80743.0,43095.0,57515.0,43864.0,44821.0,26890.0,20414.0
2026-05-06 16:27:14.850292,828290,1609507098238040,4698150740,-0.18544,-0.661728,-0.769088,26.460001,14.46375,-15.846251,5.624,-11.376,-103.47201,eccentric,8,5.0,45659.0,47142.0,96782.0,80743.0,43095.0,57515.0,43864.0,44821.0,26890.0,20414.0
2026-05-06 16:27:14.966696,828301,1609507098247503,4698159600,-0.21472,-0.733952,-0.81984,26.32875,13.74625,-16.59875,5.416,-10.64,-102.75201,eccentric,8,5.0,45711.0,47551.0,96913.0,81527.0,43250.0,58012.0,43945.0,45257.0,26930.0,20603.0
2026-05-06 16:27:14.968902,828302,1609507098262050,4698174595,-0.177632,-0.757376,-0.75152,27.8075,13.3,-16.68625,4.92,-9.704,-103.77601,eccentric,8,5.0,45711.0,47551.0,96913.0,81527.0,43250.0,58012.0,43945.0,45257.0,26930.0,20603.0
2026-05-06 16:27:14.971414,828303,1609507098271106,4698183311,-0.177632,-0.757376,-0.75152,29.95125,12.62625,-16.66875,4.92,-9.704,-103.77601,eccentric,8,5.0,45711.0,47551.0,96913.0,81527.0,43250.0,58012.0,43945.0,45257.0,26930.0,20603.0
2026-05-06 16:27:14.977698,828304,1609507098280093,4698192017,-0.167872,-0.739808,-0.769088,33.74875,12.43375,-16.98375,4.504,-9.712001,-103.20801,eccentric,8,5.0,45711.0,47551.0,96913.0,81527.0,43250.0,58012.0,43945.0,45257.0,26930.0,20603.0
2026-05-06 16:27:14.980184,828305,1609507098294588,4698206976,-0.167872,-0.739808,-0.769088,33.81,12.22375,-16.6425,4.504,-9.712001,-103.20801,eccentric,8,5.0,45711.0,47551.0,96913.0,81527.0,43250.0,58012.0,43945.0,45257.0,26930.0,20603.0
2026-05-06 16:27:14.982508,828306,1609507098303614,4698215730,-0.140544,-0.735904,-0.745664,27.125,12.92375,-15.70625,4.624,-9.216001,-103.368004,eccentric,8,5.0,45711.0,47551.0,96913.0,81527.0,43250.0,58012.0,43945.0,45257.0,26930.0,20603.0
2026-05-06 16:27:14.989010,828307,1609507098318089,4698230700,-0.140544,-0.735904,-0.745664,20.46625,13.20375,-17.21125,4.624,-9.216001,-103.368004,eccentric,8,5.0,45711.0,47551.0,96913.0,81527.0,43250.0,58012.0,43945.0,45257.0,26930.0,20603.0
2026-05-06 16:27:14.994029,828308,1609507098326992,4698239414,-0.130784,-0.776896,-0.7808,18.4275,14.105001,-19.31125,4.288,-8.616,-103.608,eccentric,8,5.0,45711.0,47551.0,96913.0,81527.0,43250.0,58012.0,43945.0,45257.0,26930.0,20603.0
2026-05-06 16:27:14.996562,828309,1609507098341527,4698252279,-0.138592,-0.80032,-0.776896,19.39,15.47875,-19.55625,4.128,-8.224,-103.632,eccentric,8,5.0,45711.0,47551.0,96913.0,81527.0,43250.0,58012.0,43945.0,45257.0,26930.0,20603.0
2026-05-06 16:27:15.023999,828320,1609507098350966,4698263095,-0.138592,-0.80032,-0.776896,14.77,15.91625,-18.5325,4.128,-8.224,-103.632,eccentric,8,5.0,45874.0,47793.0,97129.0,82301.0,43469.0,58208.0,44000.0,45719.0,27000.0,20660.0
2026-05-06 16:27:15.026584,828321,1609507098359987,4698271851,-0.138592,-0.782752,-0.749568,9.17875,16.73,-18.06,4.128,-8.224,-103.632,eccentric,8,5.0,45874.0,47793.0,97129.0,82301.0,43469.0,58208.0,44000.0,45719.0,27000.0,20660.0
2026-05-06 16:27:15.029110,828322,1609507098374599,4698286840,-0.144448,-0.782752,-0.749568,3.0275,16.9575,-18.55875,3.648,-8.456,-102.128006,eccentric,8,5.0,45874.0,47793.0,97129.0,82301.0,43469.0,58208.0,44000.0,45719.0,27000.0,20660.0
2026-05-06 16:27:15.031506,828323,1609507098383535,4698295566,-0.138592,-0.80032,-0.769088,-4.34875,17.7975,-21.14,3.32,-8.488001,-103.928,eccentric,8,5.0,45874.0,47793.0,97129.0,82301.0,43469.0,58208.0,44000.0,45719.0,27000.0,20660.0
2026-05-06 16:27:15.034156,828324,1609507098398084,4698310498,-0.138592,-0.80032,-0.769088,-8.96,18.90875,-23.54625,3.32,-8.488001,-103.928,eccentric,8,5.0,45874.0,47793.0,97129.0,82301.0,43469.0,58208.0,44000.0,45719.0,27000.0,20660.0
2026-05-06 16:27:15.036567,828325,1609507098407015,4698319250,-0.109312,-0.843264,-0.720288,-12.18875,19.6525,-25.8825,2.776,-10.664001,-103.05601,eccentric,8,5.0,45874.0,47793.0,97129.0,82301.0,43469.0,58208.0,44000.0,45719.0,27000.0,20660.0
2026-05-06 16:27:15.039106,828326,1609507098416025,4698328020,-0.109312,-0.843264,-0.720288,-14.315001,20.1775,-27.475,2.776,-10.664001,-103.05601,eccentric,8,5.0,45874.0,47793.0,97129.0,82301.0,43469.0,58208.0,44000.0,45719.0,27000.0,20660.0
2026-05-06 16:27:15.041575,828327,1609507098430562,4698343011,-0.095648,-0.81984,-0.749568,-13.34375,21.2275,-27.79875,2.488,-10.464001,-102.456,eccentric,8,5.0,45874.0,47793.0,97129.0,82301.0,43469.0,58208.0,44000.0,45719.0,27000.0,20660.0
2026-05-06 16:27:15.044062,828328,1609507098439630,4698351752,-0.095648,-0.81984,-0.749568,-12.85375,22.2425,-29.6275,2.488,-10.464001,-102.456,eccentric,8,5.0,45874.0,47793.0,97129.0,82301.0,43469.0,58208.0,44000.0,45719.0,27000.0,20660.0
2026-05-06 16:27:15.080207,828339,1609507098454321,4698366794,-0.076128,-0.843264,-0.80032,-13.265,23.1175,-32.62875,2.072,-10.472,-104.256004,eccentric,8,5.0,46345.0,47932.0,97380.0,82853.0,43723.0,58172.0,44062.0,45968.0,27257.0,20700.0
2026-05-06 16:27:15.082819,828340,1609507098463281,4698375680,-0.095648,-0.884256,-0.817888,-14.42,24.465,-36.96,1.232,-12.104001,-101.22401,eccentric,8,5.0,46345.0,47932.0,97380.0,82853.0,43723.0,58172.0,44062.0,45968.0,27257.0,20700.0
2026-05-06 16:27:15.085274,828341,1609507098477804,4698388619,-0.095648,-0.884256,-0.817888,-16.86125,27.055,-41.36125,1.232,-12.104001,-101.22401,eccentric,8,5.0,46345.0,47932.0,97380.0,82853.0,43723.0,58172.0,44062.0,45968.0,27257.0,20700.0
2026-05-06 16:27:15.087847,828342,1609507098487059,4698399433,-0.023424,-1.046272,-0.876448,-13.72,31.01,-46.576252,0.888,-13.480001,-100.920006,eccentric,8,5.0,46345.0,47932.0,97380.0,82853.0,43723.0,58172.0,44062.0,45968.0,27257.0,20700.0
2026-05-06 16:27:15.092716,828343,1609507098496095,4698408199,-0.023424,-1.046272,-0.876448,-8.4875,37.03,-55.04625,0.888,-13.480001,-100.920006,eccentric,8,5.0,46345.0,47932.0,97380.0,82853.0,43723.0,58172.0,44062.0,45968.0,27257.0,20700.0
2026-05-06 16:27:15.098759,828344,1609507098510631,4698423158,0.06832,-0.979904,-0.689056,-5.39,43.645,-59.92875,0.28,-9.768001,-103.48801,eccentric,8,5.0,46345.0,47932.0,97380.0,82853.0,43723.0,58172.0,44062.0,45968.0,27257.0,20700.0
2026-05-06 16:27:15.107701,828345,1609507098519610,4698431894,0.06832,-0.979904,-0.689056,3.6925,47.4775,-56.0,0.28,-9.768001,-103.48801,eccentric,8,5.0,46345.0,47932.0,97380.0,82853.0,43723.0,58172.0,44062.0,45968.0,27257.0,20700.0
2026-05-06 16:27:15.121435,828346,1609507098534131,4698446840,0.16592,-0.827648,-0.864736,10.07125,51.7125,-53.69875,-0.616,-10.768001,-103.184006,eccentric,8,5.0,46345.0,47932.0,97380.0,82853.0,43723.0,58172.0,44062.0,45968.0,27257.0,20700.0
2026-05-06 16:27:15.130358,828347,1609507098543048,4698455548,0.052704,-0.808128,-0.915488,10.85875,53.8475,-60.96125,-1.376,-9.200001,-102.928,eccentric,8,5.0,46345.0,47932.0,97380.0,82853.0,43723.0,58172.0,44062.0,45968.0,27257.0,20700.0
2026-05-06 16:27:15.157379,828358,1609507098552115,4698464342,0.052704,-0.808128,-0.915488,6.4925,58.8525,-67.40125,-1.376,-9.200001,-102.928,eccentric,8,5.0,45686.0,46915.0,97444.0,82612.0,42859.0,56870.0,44043.0,45801.0,26918.0,20181.0
2026-05-06 16:27:15.160138,828359,1609507098566850,4698479513,0.011712,-0.843264,-0.813984,4.7425,63.175,-68.9675,-2.872,-10.440001,-101.824005,eccentric,8,5.0,45686.0,46915.0,97444.0,82612.0,42859.0,56870.0,44043.0,45801.0,26918.0,20181.0
2026-05-06 16:27:15.162705,828360,1609507098575920,4698488245,0.011712,-0.843264,-0.813984,9.511251,66.38625,-70.035,-2.872,-10.440001,-101.824005,eccentric,8,5.0,45686.0,46915.0,97444.0,82612.0,42859.0,56870.0,44043.0,45801.0,26918.0,20181.0
2026-05-06 16:27:15.176460,828361,1609507098590429,4698501186,0.025376,-0.681248,-0.718336,11.64625,66.99875,-68.22375,-4.216,-10.664001,-101.896,eccentric,8,5.0,45686.0,46915.0,97444.0,82612.0,42859.0,56870.0,44043.0,45801.0,26918.0,20181.0
2026-05-06 16:27:15.185230,828362,1609507098599651,4698512061,0.025376,-0.681248,-0.718336,15.3825,67.94375,-63.83125,-4.216,-10.664001,-101.896,eccentric,8,5.0,45686.0,46915.0,97444.0,82612.0,42859.0,56870.0,44043.0,45801.0,26918.0,20181.0
2026-05-06 16:27:15.196573,828363,1609507098608559,4698520784,0.080032,-0.689056,-0.76128,22.70625,67.78625,-65.66875,-5.12,-8.336,-102.384,eccentric,8,5.0,45686.0,46915.0,97444.0,82612.0,42859.0,56870.0,44043.0,45801.0,26918.0,20181.0
2026-05-06 16:27:15.221576,828364,1609507098623105,4698535688,0.105408,-0.743712,-0.81008,22.155,68.9675,-71.0675,-6.12,-8.304001,-101.41601,eccentric,8,5.0,45686.0,46915.0,97444.0,82612.0,42859.0,56870.0,44043.0,45801.0,26918.0,20181.0
2026-05-06 16:27:15.246586,828365,1609507098632039,4698544428,0.105408,-0.743712,-0.81008,20.39625,71.04125,-70.875,-6.12,-8.304001,-101.41601,eccentric,8,5.0,45686.0,46915.0,97444.0,82612.0,42859.0,56870.0,44043.0,45801.0,26918.0,20181.0
2026-05-06 16:27:15.257688,828366,1609507098646531,4698557423,0.101504,-0.765184,-0.671488,17.00125,73.92,-71.6275,-7.608,-8.344001,-101.90401,eccentric,8,5.0,45686.0,46915.0,97444.0,82612.0,42859.0,56870.0,44043.0,45801.0,26918.0,20181.0
2026-05-06 16:27:15.285216,828377,1609507098655930,4698568270,0.101504,-0.765184,-0.671488,20.3175,74.57625,-72.0475,-7.608,-8.344001,-101.90401,eccentric,8,5.0,45630.0,46958.0,97009.0,83037.0,42779.0,56914.0,43799.0,46059.0,26887.0,20224.0
2026-05-06 16:27:15.287842,828378,1609507098664873,4698576951,0.152256,-0.62464,-0.671488,21.35,74.2875,-68.3725,-9.088,-7.872,-101.58401,eccentric,8,5.0,45630.0,46958.0,97009.0,83037.0,42779.0,56914.0,43799.0,46059.0,26887.0,20224.0
2026-05-06 16:27:15.290185,828379,1609507098679450,4698591964,0.152256,-0.62464,-0.671488,27.58875,73.80625,-65.2225,-9.088,-7.872,-101.58401,eccentric,8,5.0,45630.0,46958.0,97009.0,83037.0,42779.0,56914.0,43799.0,46059.0,26887.0,20224.0
2026-05-06 16:27:15.292801,828380,1609507098688527,4698600750,0.238144,-0.70272,-0.687104,32.41875,72.2925,-69.25625,-10.416,-11.064,-100.328,eccentric,8,5.0,45630.0,46958.0,97009.0,83037.0,42779.0,56914.0,43799.0,46059.0,26887.0,20224.0
2026-05-06 16:27:15.295169,828381,1609507098703126,4698615691,0.27328,-0.794464,-0.735904,32.89125,73.4475,-70.7875,-11.072001,-9.424001,-98.8,eccentric,8,5.0,45630.0,46958.0,97009.0,83037.0,42779.0,56914.0,43799.0,46059.0,26887.0,20224.0
2026-05-06 16:27:15.299136,828382,1609507098712101,4698624407,0.27328,-0.794464,-0.735904,25.62875,75.4425,-69.71125,-11.072001,-9.424001,-98.8,eccentric,8,5.0,45630.0,46958.0,97009.0,83037.0,42779.0,56914.0,43799.0,46059.0,26887.0,20224.0
2026-05-06 16:27:15.314122,828383,1609507098726656,4698639443,0.286944,-0.79056,-0.560224,22.645,78.015,-68.74875,-12.808001,-9.464001,-99.272,eccentric,8,5.0,45630.0,46958.0,97009.0,83037.0,42779.0,56914.0,43799.0,46059.0,26887.0,20224.0
2026-05-06 16:27:15.322939,828384,1609507098735579,4698648141,0.286944,-0.79056,-0.560224,19.53,78.295,-70.44625,-12.808001,-9.464001,-99.272,eccentric,8,5.0,45630.0,46958.0,97009.0,83037.0,42779.0,56914.0,43799.0,46059.0,26887.0,20224.0
2026-05-06 16:27:15.331384,828385,1609507098744503,4698656840,0.355264,-0.532896,-0.5368,18.9,77.35,-68.9675,-13.480001,-8.056001,-98.216,eccentric,8,5.0,45630.0,46958.0,97009.0,83037.0,42779.0,56914.0,43799.0,46059.0,26887.0,20224.0
2026-05-06 16:27:15.361481,828397,1609507098759071,4698669867,0.355264,-0.532896,-0.5368,23.30125,75.69625,-64.8375,-13.480001,-8.056001,-98.216,eccentric,8,5.0,44967.0,47271.0,96020.0,83005.0,42178.0,57292.0,43398.0,46050.0,26627.0,20371.0
2026-05-06 16:27:15.363997,828398,1609507098768339,4698680694,0.363072,-0.501664,-0.689056,25.10375,72.26625,-61.9675,-14.536,-10.048,-98.576004,eccentric,8,5.0,44967.0,47271.0,96020.0,83005.0,42178.0,57292.0,43398.0,46050.0,26627.0,20371.0
2026-05-06 16:27:15.370274,828399,1609507098782947,4698695692,0.363072,-0.704672,-0.710528,16.38,71.05,-59.263752,-14.536,-10.048,-98.576004,eccentric,8,5.0,44967.0,47271.0,96020.0,83005.0,42178.0,57292.0,43398.0,46050.0,26627.0,20371.0
2026-05-06 16:27:15.378861,828400,1609507098792010,4698704456,0.318176,-0.716384,-0.710528,-15.58375,74.22625,-59.54375,-15.752001,-10.784,-97.552,eccentric,8,5.0,44967.0,47271.0,96020.0,83005.0,42178.0,57292.0,43398.0,46050.0,26627.0,20371.0
2026-05-06 16:27:15.387837,828401,1609507098800971,4698713165,0.318176,-0.716384,-0.710528,-41.48375,78.51375,-61.13625,-15.752001,-10.784,-97.552,eccentric,8,5.0,44967.0,47271.0,96020.0,83005.0,42178.0,57292.0,43398.0,46050.0,26627.0,20371.0
2026-05-06 16:27:15.404049,828402,1609507098815483,4698728149,0.396256,-0.796416,-0.628544,-42.035,79.96625,-62.8775,-17.256,-11.656,-97.22401,eccentric,8,5.0,44967.0,47271.0,96020.0,83005.0,42178.0,57292.0,43398.0,46050.0,26627.0,20371.0
2026-05-06 16:27:15.411557,828403,1609507098824400,4698736843,0.484096,-0.733952,-0.675392,-27.34375,79.30125,-64.61,-17.848001,-10.208,-99.68001,eccentric,8,5.0,44967.0,47271.0,96020.0,83005.0,42178.0,57292.0,43398.0,46050.0,26627.0,20371.0
2026-05-06 16:27:15.429874,828404,1609507098838929,4698749799,0.484096,-0.733952,-0.675392,-16.45875,78.155,-64.96,-17.848001,-10.208,-99.68001,eccentric,8,5.0,44967.0,47271.0,96020.0,83005.0,42178.0,57292.0,43398.0,46050.0,26627.0,20371.0
2026-05-06 16:27:15.465327,828415,1609507098848212,4698761096,0.464576,-0.65392,-0.560224,-2.835,79.87875,-60.47125,-18.640001,-10.896001,-97.128006,eccentric,8,5.0,44789.0,47017.0,95651.0,83034.0,41751.0,56848.0,43175.0,46042.0,26591.0,20294.0
2026-05-06 16:27:15.467761,828416,1609507098862878,4698773975,0.464576,-0.65392,-0.560224,-4.34,81.41875,-58.5025,-18.640001,-10.896001,-97.128006,eccentric,8,5.0,44789.0,47017.0,95651.0,83034.0,41751.0,56848.0,43175.0,46042.0,26591.0,20294.0
2026-05-06 16:27:15.470334,828417,1609507098872376,4698784809,0.402112,-0.447008,-0.462624,-16.16125,81.3925,-58.24875,-20.104,-11.84,-95.312004,eccentric,8,5.0,44789.0,47017.0,95651.0,83034.0,41751.0,56848.0,43175.0,46042.0,26591.0,20294.0
2026-05-06 16:27:15.472950,828418,1609507098881422,4698793616,0.402112,-0.447008,-0.462624,-23.555,78.05,-56.65625,-20.104,-11.84,-95.312004,eccentric,8,5.0,44789.0,47017.0,95651.0,83034.0,41751.0,56848.0,43175.0,46042.0,26591.0,20294.0
2026-05-06 16:27:15.486583,828419,1609507098895954,4698808644,0.447008,-0.474336,-0.54656,-31.3775,74.15625,-56.39375,-20.664001,-13.776001,-94.872,eccentric,8,5.0,44789.0,47017.0,95651.0,83034.0,41751.0,56848.0,43175.0,46042.0,26591.0,20294.0
2026-05-06 16:27:15.492874,828420,1609507098904891,4698817358,0.505568,-0.638304,-0.593408,-39.52375,74.20875,-53.31375,-21.856,-13.6,-95.608,eccentric,8,5.0,44789.0,47017.0,95651.0,83034.0,41751.0,56848.0,43175.0,46042.0,26591.0,20294.0
2026-05-06 16:27:15.518867,828421,1609507098919489,4698830328,0.505568,-0.638304,-0.593408,-50.16375,76.93875,-47.34625,-21.856,-13.6,-95.608,eccentric,8,5.0,44789.0,47017.0,95651.0,83034.0,41751.0,56848.0,43175.0,46042.0,26591.0,20294.0
2026-05-06 16:27:15.521317,828422,1609507098928830,4698841116,0.651968,-0.763232,-0.509472,-49.420002,79.371254,-44.415,-22.792002,-14.64,-94.32001,eccentric,8,5.0,44789.0,47017.0,95651.0,83034.0,41751.0,56848.0,43175.0,46042.0,26591.0,20294.0
2026-05-06 16:27:15.525754,828423,1609507098937743,4698849840,0.651968,-0.763232,-0.509472,-38.45625,82.41625,-48.72875,-22.792002,-14.64,-94.32001,eccentric,8,5.0,44789.0,47017.0,95651.0,83034.0,41751.0,56848.0,43175.0,46042.0,26591.0,20294.0
2026-05-06 16:27:15.565332,828434,1609507098952759,4698864841,0.636352,-0.5856,-0.3904,-25.47125,83.335,-52.99,-23.784,-15.312,-93.648,eccentric,8,5.0,40658.0,44084.0,93565.0,82364.0,37796.0,53746.0,42044.0,45834.0,24470.0,18982.0
2026-05-06 16:27:15.590268,828435,1609507098961848,4698873605,0.636352,-0.5856,-0.3904,-21.315,79.5725,-49.98875,-23.784,-15.312,-93.648,eccentric,8,5.0,40658.0,44084.0,93565.0,82364.0,37796.0,53746.0,42044.0,45834.0,24470.0,18982.0
2026-05-06 16:27:15.615217,828436,1609507098970964,4698882408,0.64416,-0.42944,-0.528992,-23.72125,77.16625,-49.201252,-24.800001,-19.568,-90.784004,eccentric,8,5.0,40658.0,44084.0,93565.0,82364.0,37796.0,53746.0,42044.0,45834.0,24470.0,18982.0
2026-05-06 16:27:15.639982,828437,1609507098985504,4698897339,0.57584,-0.525088,-0.513376,-31.185,77.63,-55.615,-25.624,-20.336,-89.816,eccentric,8,5.0,40658.0,44084.0,93565.0,82364.0,37796.0,53746.0,42044.0,45834.0,24470.0,18982.0
2026-05-06 16:27:15.650185,828438,1609507098994412,4698906038,0.57584,-0.525088,-0.513376,-29.7675,76.37875,-58.345,-25.624,-20.336,-89.816,eccentric,8,5.0,40658.0,44084.0,93565.0,82364.0,37796.0,53746.0,42044.0,45834.0,24470.0,18982.0
2026-05-06 16:27:15.652738,828439,1609507099008887,4698920938,0.57584,-0.538752,-0.40992,-24.255,76.32625,-54.43375,-26.056002,-17.368,-91.520004,eccentric,8,5.0,40658.0,44084.0,93565.0,82364.0,37796.0,53746.0,42044.0,45834.0,24470.0,18982.0
2026-05-06 16:27:15.654962,828440,1609507099017797,4698929673,0.57584,-0.538752,-0.40992,-23.3625,76.4925,-51.0825,-26.056002,-17.368,-91.520004,eccentric,8,5.0,40658.0,44084.0,93565.0,82364.0,37796.0,53746.0,42044.0,45834.0,24470.0,18982.0
2026-05-06 16:27:15.657628,828441,1609507099032326,4698944701,0.505568,-0.564128,-0.568032,-13.48375,73.4125,-48.615,-26.512001,-17.936,-91.096,eccentric,8,5.0,40658.0,44084.0,93565.0,82364.0,37796.0,53746.0,42044.0,45834.0,24470.0,18982.0
2026-05-06 16:27:15.660015,828442,1609507099041279,4698953406,0.505568,-0.564128,-0.568032,-5.915,72.16125,-47.27625,-26.512001,-17.936,-91.096,eccentric,8,5.0,40658.0,44084.0,93565.0,82364.0,37796.0,53746.0,42044.0,45834.0,24470.0,18982.0
2026-05-06 16:27:15.687819,828453,1609507099050276,4698962259,0.778848,-0.386496,-0.329888,-8.65375,76.23875,-44.6425,-27.208002,-18.744001,-90.05601,eccentric,8,5.0,37388.0,42054.0,91821.0,81648.0,34847.0,51696.0,41063.0,45557.0,22780.0,18118.0
2026-05-06 16:27:15.690134,828454,1609507099064811,4698977187,0.778848,-0.386496,-0.251808,-14.93625,76.99125,-45.89375,-27.208002,-18.744001,-90.05601,eccentric,8,5.0,37388.0,42054.0,91821.0,81648.0,34847.0,51696.0,41063.0,45557.0,22780.0,18118.0
2026-05-06 16:27:15.692852,828455,1609507099073753,4698985986,0.441152,-0.353312,-0.26352,-11.261251,73.52625,-53.3925,-27.760002,-19.44,-90.192,eccentric,8,5.0,37388.0,42054.0,91821.0,81648.0,34847.0,51696.0,41063.0,45557.0,22780.0,18118.0
2026-05-06 16:27:15.695332,828456,1609507099088448,4699000979,0.49776,-0.480192,-0.384544,-11.9875,68.7575,-52.0275,-28.672,-21.392,-87.688,eccentric,8,5.0,37388.0,42054.0,91821.0,81648.0,34847.0,51696.0,41063.0,45557.0,22780.0,18118.0
2026-05-06 16:27:15.697858,828457,1609507099097502,4699009816,0.49776,-0.480192,-0.384544,-20.92125,64.58375,-40.57375,-28.672,-21.392,-87.688,eccentric,8,5.0,37388.0,42054.0,91821.0,81648.0,34847.0,51696.0,41063.0,45557.0,22780.0,18118.0
2026-05-06 16:27:15.700303,828458,1609507099106443,4699018581,0.786656,-0.569984,-0.431392,-19.48625,61.9325,-33.285,-28.904001,-20.888,-90.024,eccentric,8,5.0,37388.0,42054.0,91821.0,81648.0,34847.0,51696.0,41063.0,45557.0,22780.0,18118.0
2026-05-06 16:27:15.708872,828459,1609507099121089,4699033513,0.786656,-0.569984,-0.431392,-14.88375,63.06125,-31.87625,-28.904001,-20.888,-90.024,eccentric,8,5.0,37388.0,42054.0,91821.0,81648.0,34847.0,51696.0,41063.0,45557.0,22780.0,18118.0
2026-05-06 16:27:15.715335,828460,1609507099130097,4699042321,0.718336,-0.3904,-0.261568,-4.515,64.65375,-35.2275,-29.28,-21.104,-86.832,eccentric,8,5.0,37388.0,42054.0,91821.0,81648.0,34847.0,51696.0,41063.0,45557.0,22780.0,18118.0
2026-05-06 16:27:15.739002,828461,1609507099144587,4699057236,0.718336,-0.3904,-0.261568,6.3,63.00875,-41.195,-29.28,-21.104,-86.832,eccentric,8,5.0,37388.0,42054.0,91821.0,81648.0,34847.0,51696.0,41063.0,45557.0,22780.0,18118.0
2026-05-06 16:27:15.777876,828472,1609507099153982,4699066091,0.396256,-0.269376,-0.31232,12.10125,56.805,-39.26125,-29.544,-22.656,-84.448006,eccentric,8,5.0,37086.0,42222.0,90949.0,81227.0,34617.0,51937.0,40668.0,45307.0,22714.0,18268.0
2026-05-06 16:27:15.780180,828473,1609507099168718,4699081056,0.935008,-0.757376,-0.538752,4.5325,51.695,-30.0125,-30.032001,-24.648,-84.20801,eccentric,8,5.0,37086.0,42222.0,90949.0,81227.0,34617.0,51937.0,40668.0,45307.0,22714.0,18268.0
2026-05-06 16:27:15.782845,828474,1609507099177673,4699089866,0.935008,-0.757376,-0.538752,-2.0475,53.05125,-20.3875,-30.032001,-24.648,-84.20801,eccentric,8,5.0,37086.0,42222.0,90949.0,81227.0,34617.0,51937.0,40668.0,45307.0,22714.0,18268.0
2026-05-06 16:27:15.785338,828475,1609507099186746,4699098708,1.136064,-0.335744,-0.23424,-8.54,64.6275,-21.4725,-30.720001,-24.624,-84.08,eccentric,8,5.0,37086.0,42222.0,90949.0,81227.0,34617.0,51937.0,40668.0,45307.0,22714.0,18268.0
2026-05-06 16:27:15.787909,828476,1609507099201276,4699113613,1.136064,-0.335744,-0.23424,-2.91375,72.345,-36.085,-30.720001,-24.624,-84.08,eccentric,8,5.0,37086.0,42222.0,90949.0,81227.0,34617.0,51937.0,40668.0,45307.0,22714.0,18268.0
2026-05-06 16:27:15.799720,828477,1609507099210355,4699122323,0.339648,-0.275232,-0.080032,27.055,65.35375,-54.95875,-30.384,-21.912,-84.776,eccentric,8,5.0,37086.0,42222.0,90949.0,81227.0,34617.0,51937.0,40668.0,45307.0,22714.0,18268.0
2026-05-06 16:27:15.812591,828478,1609507099224898,4699137263,0.339648,-0.275232,-0.080032,28.2975,55.81625,-58.4325,-30.384,-21.912,-84.776,eccentric,8,5.0,37086.0,42222.0,90949.0,81227.0,34617.0,51937.0,40668.0,45307.0,22714.0,18268.0
2026-05-06 16:27:15.818904,828479,1609507099233796,4699145994,0.905728,-0.480192,-0.284992,11.59375,51.345,-34.02875,-31.032001,-23.28,-82.712006,eccentric,8,5.0,37086.0,42222.0,90949.0,81227.0,34617.0,51937.0,40668.0,45307.0,22714.0,18268.0
2026-05-06 16:27:15.832694,828480,1609507099242748,4699154722,0.905728,-0.480192,-0.284992,-4.6725,51.7475,-20.67625,-31.032001,-23.28,-82.712006,eccentric,8,5.0,37086.0,42222.0,90949.0,81227.0,34617.0,51937.0,40668.0,45307.0,22714.0,18268.0
2026-05-06 16:27:15.867903,828491,1609507099257534,4699169753,0.98576,-0.486048,-0.247904,-2.91375,55.55375,-27.8775,-31.160002,-23.704,-84.464005,eccentric,8,5.0,36502.0,41125.0,90753.0,81151.0,34118.0,50710.0,40538.0,45358.0,22450.0,17716.0
2026-05-06 16:27:15.870313,828492,1609507099266512,4699178562,0.98576,-0.267424,-0.177632,3.5875,58.59,-39.40125,-31.160002,-23.704,-84.464005,eccentric,8,5.0,36502.0,41125.0,90753.0,81151.0,34118.0,50710.0,40538.0,45358.0,22450.0,17716.0
2026-05-06 16:27:15.872900,828493,1609507099281213,4699193542,0.515328,-0.269376,-0.177632,14.875,54.53875,-44.5375,-31.424002,-24.448002,-83.032005,eccentric,8,5.0,36502.0,41125.0,90753.0,81151.0,34118.0,50710.0,40538.0,45358.0,22450.0,17716.0
2026-05-06 16:27:15.875288,828494,1609507099290346,4699202306,0.70272,-0.472384,-0.148352,11.03375,49.35,-41.30875,-31.952002,-24.264002,-82.208,eccentric,8,5.0,36502.0,41125.0,90753.0,81151.0,34118.0,50710.0,40538.0,45358.0,22450.0,17716.0
2026-05-06 16:27:15.889084,828495,1609507099299424,4699211035,0.70272,-0.472384,-0.148352,3.50875,45.675,-28.428751,-31.952002,-24.264002,-82.208,eccentric,8,5.0,36502.0,41125.0,90753.0,81151.0,34118.0,50710.0,40538.0,45358.0,22450.0,17716.0
2026-05-06 16:27:15.903328,828496,1609507099313939,4699225948,0.772992,-0.40992,-0.181536,-0.35,42.14,-18.57625,-32.04,-22.76,-81.424,eccentric,8,5.0,36502.0,41125.0,90753.0,81151.0,34118.0,50710.0,40538.0,45358.0,22450.0,17716.0
2026-05-06 16:27:15.910089,828497,1609507099322938,4699234716,0.772992,-0.40992,-0.181536,3.815,38.5175,-20.1775,-32.04,-22.76,-81.424,eccentric,8,5.0,36502.0,41125.0,90753.0,81151.0,34118.0,50710.0,40538.0,45358.0,22450.0,17716.0
2026-05-06 16:27:15.951476,828498,1609507099337433,4699249649,0.903776,-0.415776,-0.150304,5.22375,37.7475,-24.7625,-31.992,-24.904001,-82.69601,eccentric,8,5.0,36502.0,41125.0,90753.0,81151.0,34118.0,50710.0,40538.0,45358.0,22450.0,17716.0
2026-05-06 16:27:15.976570,828499,1609507099346360,4699258365,0.903776,-0.415776,-0.150304,6.67625,39.54125,-24.815,-31.992,-24.904001,-82.69601,eccentric,8,5.0,36502.0,41125.0,90753.0,81151.0,34118.0,50710.0,40538.0,45358.0,22450.0,17716.0
2026-05-06 16:27:16.028985,828510,1609507099360892,4699273359,0.753472,-0.327936,-0.046848,8.75,39.865,-28.32375,-31.880001,-23.248001,-82.32001,eccentric,8,5.0,36780.0,40787.0,91249.0,79849.0,34456.0,50309.0,40798.0,44633.0,22715.0,17615.0
2026-05-06 16:27:16.031487,828511,1609507099369804,4699282236,0.648064,-0.333792,-0.052704,11.27,33.92375,-27.08125,-32.440002,-23.464,-82.496,eccentric,8,5.0,36780.0,40787.0,91249.0,79849.0,34456.0,50309.0,40798.0,44633.0,22715.0,17615.0
2026-05-06 16:27:16.034045,828512,1609507099378741,4699290961,0.648064,-0.333792,-0.052704,7.595,27.475,-19.5125,-32.440002,-23.464,-82.496,eccentric,8,5.0,36780.0,40787.0,91249.0,79849.0,34456.0,50309.0,40798.0,44633.0,22715.0,17615.0
2026-05-06 16:27:16.036535,828513,1609507099393225,4699305902,0.88816,-0.482144,-0.130784,-3.745,24.22875,-14.2625,-32.416,-23.544,-81.728004,eccentric,8,5.0,36780.0,40787.0,91249.0,79849.0,34456.0,50309.0,40798.0,44633.0,22715.0,17615.0
2026-05-06 16:27:16.039065,828514,1609507099402168,4699314634,0.88816,-0.482144,-0.130784,-5.71375,24.77125,-13.53625,-32.416,-23.544,-81.728004,eccentric,8,5.0,36780.0,40787.0,91249.0,79849.0,34456.0,50309.0,40798.0,44633.0,22715.0,17615.0
2026-05-06 16:27:16.041453,828515,1609507099416767,4699327659,0.89792,-0.327936,-0.095648,-3.50875,28.3675,-16.8175,-32.504,-23.960001,-81.728004,eccentric,8,5.0,36780.0,40787.0,91249.0,79849.0,34456.0,50309.0,40798.0,44633.0,22715.0,17615.0
2026-05-06 16:27:16.044077,828516,1609507099426122,4699338623,0.89792,-0.327936,-0.095648,1.855,28.4725,-19.04,-32.504,-23.960001,-81.728004,eccentric,8,5.0,36780.0,40787.0,91249.0,79849.0,34456.0,50309.0,40798.0,44633.0,22715.0,17615.0
2026-05-06 16:27:16.046568,828517,1609507099435075,4699347479,0.591456,-0.329888,0.007808,-5.495,26.66125,-20.30875,-32.704002,-25.888,-79.936005,eccentric,8,5.0,36780.0,40787.0,91249.0,79849.0,34456.0,50309.0,40798.0,44633.0,22715.0,17615.0
2026-05-06 16:27:16.049047,828518,1609507099449687,4699362430,0.616832,-0.421632,-0.085888,-12.1275,20.81625,-14.4025,-32.792,-25.936,-80.07201,eccentric,8,5.0,36780.0,40787.0,91249.0,79849.0,34456.0,50309.0,40798.0,44633.0,22715.0,17615.0
2026-05-06 16:27:16.082543,828529,1609507099458857,4699371284,0.616832,-0.421632,-0.085888,-15.70625,12.7225,-6.37,-32.792,-25.936,-80.07201,eccentric,8,5.0,35906.0,39844.0,90667.0,79348.0,33667.0,49242.0,40509.0,44427.0,22298.0,17187.0
2026-05-06 16:27:16.085213,828530,1609507099473455,4699384212,0.964288,-0.404064,-0.130784,-18.34875,8.89,0.5075,-32.984,-26.792002,-78.552,eccentric,8,5.0,35906.0,39844.0,90667.0,79348.0,33667.0,49242.0,40509.0,44427.0,22298.0,17187.0
2026-05-06 16:27:16.089513,828531,1609507099482788,4699395058,0.964288,-0.404064,-0.130784,-18.4275,9.96625,4.865,-32.984,-26.792002,-78.552,eccentric,8,5.0,35906.0,39844.0,90667.0,79348.0,33667.0,49242.0,40509.0,44427.0,22298.0,17187.0
2026-05-06 16:27:16.089928,828532,1609507099491773,4699403807,0.778848,-0.314272,-0.119072,-15.155,11.64625,3.89375,-33.0,-27.792002,-78.472,eccentric,8,5.0,35906.0,39844.0,90667.0,79348.0,33667.0,49242.0,40509.0,44427.0,22298.0,17187.0
2026-05-06 16:27:16.092568,828533,1609507099506291,4699418762,0.778848,-0.314272,-0.119072,-15.085,11.83,3.22875,-33.0,-27.792002,-78.472,eccentric,8,5.0,35906.0,39844.0,90667.0,79348.0,33667.0,49242.0,40509.0,44427.0,22298.0,17187.0
2026-05-06 16:27:16.099908,828534,1609507099515294,4699427507,0.75152,-0.415776,-0.033184,-18.73375,9.3625,4.41,-33.048,-25.072,-80.408005,eccentric,8,5.0,35906.0,39844.0,90667.0,79348.0,33667.0,49242.0,40509.0,44427.0,22298.0,17187.0
2026-05-06 16:27:16.133797,828535,1609507099529749,4699442449,0.903776,-0.30256,-0.101504,-19.1275,5.775,7.0,-33.416,-28.568,-78.824005,eccentric,8,5.0,35906.0,39844.0,90667.0,79348.0,33667.0,49242.0,40509.0,44427.0,22298.0,17187.0
2026-05-06 16:27:16.136489,828536,1609507099538688,4699451261,0.903776,-0.30256,-0.101504,-14.56875,3.325,8.0325,-33.416,-28.568,-78.824005,eccentric,8,5.0,35906.0,39844.0,90667.0,79348.0,33667.0,49242.0,40509.0,44427.0,22298.0,17187.0
2026-05-06 16:27:16.139058,828537,1609507099553296,4699464098,0.948672,-0.329888,-0.031232,-8.91625,3.115,7.48125,-33.480003,-26.936,-78.912,eccentric,8,5.0,35906.0,39844.0,90667.0,79348.0,33667.0,49242.0,40509.0,44427.0,22298.0,17187.0
2026-05-06 16:27:16.175314,828548,1609507099563158,4699474963,0.948672,-0.329888,-0.031232,-8.98625,3.82375,5.88,-33.480003,-26.936,-78.912,eccentric,8,5.0,35180.0,38705.0,89795.0,78747.0,33015.0,48080.0,40044.0,44140.0,21946.0,16706.0
2026-05-06 16:27:16.177866,828549,1609507099572163,4699483772,0.827648,-0.40992,-0.056608,-14.8575,4.94375,5.1975,-33.192,-26.080002,-79.208,eccentric,8,5.0,35180.0,38705.0,89795.0,78747.0,33015.0,48080.0,40044.0,44140.0,21946.0,16706.0
2026-05-06 16:27:16.180291,828550,1609507099586665,4699498785,0.827648,-0.40992,-0.056608,-13.27375,3.17625,4.68125,-33.192,-26.080002,-79.208,eccentric,8,5.0,35180.0,38705.0,89795.0,78747.0,33015.0,48080.0,40044.0,44140.0,21946.0,16706.0
2026-05-06 16:27:16.184533,828551,1609507099595618,4699507553,0.880352,-0.343552,-0.0976,-8.47,0.76125,5.97625,-33.488003,-26.12,-79.416,eccentric,8,5.0,35180.0,38705.0,89795.0,78747.0,33015.0,48080.0,40044.0,44140.0,21946.0,16706.0
2026-05-06 16:27:16.196343,828552,1609507099610125,4699522551,0.884256,-0.382592,-0.089792,-4.3925,-0.6475,6.39625,-33.496002,-27.792002,-77.824005,eccentric,8,5.0,35180.0,38705.0,89795.0,78747.0,33015.0,48080.0,40044.0,44140.0,21946.0,16706.0
