pc_time,serial_num,sensor_ts,host_ts,ax,ay,az,gx,gy,gz,mx,my,mz,phase,rpe,weight_kg,ppg_a,ppg_b,ppg_c,ppg_d,ppg_e,ppg_f,ppg_g,ppg_h,ppg_i,ppg_j
2026-05-06 16:27:26.871291,830559,1609507110271131,4710183252,0.856928,-0.472384,-0.163968,-16.66,5.88875,7.1225,-34.368,-19.104,-82.768005,concentric,8,5.0,36792.0,40414.0,89533.0,80120.0,34507.0,50345.0,39892.0,44841.0,22635.0,17566.0
2026-05-06 16:27:26.877666,830560,1609507110285622,4710198127,0.856928,-0.472384,-0.163968,-15.417501,6.51,4.94375,-34.368,-19.104,-82.768005,concentric,8,5.0,36792.0,40414.0,89533.0,80120.0,34507.0,50345.0,39892.0,44841.0,22635.0,17566.0
2026-05-06 16:27:26.879968,830561,1609507110294579,4710206849,0.845216,-0.519232,-0.197152,-17.29,8.015,3.8675,-33.888,-19.424002,-82.73601,concentric,8,5.0,36792.0,40414.0,89533.0,80120.0,34507.0,50345.0,39892.0,44841.0,22635.0,17566.0
2026-05-06 16:27:26.916347,830562,1609507110309156,4710221771,0.813984,-0.528992,-0.181536,-17.31625,9.00375,4.13875,-34.280003,-19.096,-84.12,concentric,8,5.0,36792.0,40414.0,89533.0,80120.0,34507.0,50345.0,39892.0,44841.0,22635.0,17566.0
2026-05-06 16:27:26.946534,830573,1609507110318077,4710231874,0.813984,-0.528992,-0.181536,-15.5575,10.045,3.29875,-34.280003,-19.096,-84.12,concentric,8,5.0,35735.0,39141.0,88771.0,79163.0,33471.0,48967.0,39478.0,44345.0,22074.0,16986.0
2026-05-06 16:27:26.949030,830574,1609507110332630,4710245057,0.815936,-0.49776,-0.158112,-12.4775,10.78875,1.81125,-34.672,-20.304,-82.296005,concentric,8,5.0,35735.0,39141.0,88771.0,79163.0,33471.0,48967.0,39478.0,44345.0,22074.0,16986.0
2026-05-06 16:27:26.951549,830575,1609507110341656,4710253881,0.815936,-0.49776,-0.158112,-8.1725,10.167501,0.49875,-34.672,-20.304,-82.296005,concentric,8,5.0,35735.0,39141.0,88771.0,79163.0,33471.0,48967.0,39478.0,44345.0,22074.0,16986.0
2026-05-06 16:27:26.954046,830576,1609507110350697,4710262677,0.732,-0.511424,-0.124928,-3.87625,8.3825,-0.56875,-34.72,-21.216002,-82.024,concentric,8,5.0,35735.0,39141.0,88771.0,79163.0,33471.0,48967.0,39478.0,44345.0,22074.0,16986.0
2026-05-06 16:27:26.956325,830577,1609507110365391,4710277659,0.732,-0.511424,-0.124928,-1.54,5.88875,-0.48125,-34.72,-21.216002,-82.024,concentric,8,5.0,35735.0,39141.0,88771.0,79163.0,33471.0,48967.0,39478.0,44345.0,22074.0,16986.0
2026-05-06 16:27:26.981494,830578,1609507110374450,4710286421,0.720288,-0.538752,-0.119072,1.18125,2.91375,-0.44625,-34.320004,-21.76,-81.856,concentric,8,5.0,35735.0,39141.0,88771.0,79163.0,33471.0,48967.0,39478.0,44345.0,22074.0,16986.0
2026-05-06 16:27:27.006189,830579,1609507110389063,4710301423,0.728096,-0.523136,-0.109312,4.22625,0.35875,-0.5075,-34.320004,-19.376001,-81.712006,concentric,8,5.0,35735.0,39141.0,88771.0,79163.0,33471.0,48967.0,39478.0,44345.0,22074.0,16986.0
2026-05-06 16:27:27.031440,830580,1609507110398014,4710310183,0.728096,-0.523136,-0.109312,7.25375,-2.3275,-0.105,-33.816,-19.376001,-81.712006,concentric,8,5.0,35735.0,39141.0,88771.0,79163.0,33471.0,48967.0,39478.0,44345.0,22074.0,16986.0
2026-05-06 16:27:27.040041,830581,1609507110406947,4710318884,0.728096,-0.523136,-0.109312,8.9425,-4.9175,0.84,-33.816,-19.376001,-81.712006,concentric,8,5.0,35735.0,39141.0,88771.0,79163.0,33471.0,48967.0,39478.0,44345.0,22074.0,16986.0
2026-05-06 16:27:27.077851,830592,1609507110422100,4710333888,0.747616,-0.5368,-0.115168,10.2375,-7.595,0.98875,-33.544003,-19.2,-83.608,concentric,8,5.0,35322.0,38877.0,88185.0,78142.0,33085.0,48718.0,39253.0,43790.0,21850.0,16897.0
2026-05-06 16:27:27.082879,830593,1609507110431086,4710342682,0.718336,-0.523136,-0.101504,11.55,-10.22875,2.00375,-34.0,-19.304,-83.136,concentric,8,5.0,35322.0,38877.0,88185.0,78142.0,33085.0,48718.0,39253.0,43790.0,21850.0,16897.0
2026-05-06 16:27:27.085306,830594,1609507110445609,4710357646,0.718336,-0.523136,-0.101504,12.99375,-12.915,2.73,-34.0,-19.304,-83.136,concentric,8,5.0,35322.0,38877.0,88185.0,78142.0,33085.0,48718.0,39253.0,43790.0,21850.0,16897.0
2026-05-06 16:27:27.091552,830595,1609507110454570,4710366357,0.728096,-0.513376,-0.089792,14.77875,-15.46125,3.75375,-33.672,-18.784,-83.07201,concentric,8,5.0,35322.0,38877.0,88185.0,78142.0,33085.0,48718.0,39253.0,43790.0,21850.0,16897.0
2026-05-06 16:27:27.094068,830596,1609507110463505,4710375270,0.728096,-0.513376,-0.089792,15.505,-17.6575,4.4975,-33.672,-18.784,-83.07201,concentric,8,5.0,35322.0,38877.0,88185.0,78142.0,33085.0,48718.0,39253.0,43790.0,21850.0,16897.0
2026-05-06 16:27:27.096562,830597,1609507110478103,4710390308,0.733952,-0.523136,-0.091744,14.84,-19.17125,4.99625,-33.936,-21.720001,-81.04,concentric,8,5.0,35322.0,38877.0,88185.0,78142.0,33085.0,48718.0,39253.0,43790.0,21850.0,16897.0
2026-05-06 16:27:27.098882,830598,1609507110487166,4710398995,0.733952,-0.523136,-0.091744,13.7375,-20.92125,6.7375,-33.936,-21.720001,-81.04,concentric,8,5.0,35322.0,38877.0,88185.0,78142.0,33085.0,48718.0,39253.0,43790.0,21850.0,16897.0
2026-05-06 16:27:27.123883,830599,1609507110501697,4710413947,0.704672,-0.540704,-0.140544,13.37875,-22.4525,9.14375,-33.440002,-20.088001,-82.456,concentric,8,5.0,35322.0,38877.0,88185.0,78142.0,33085.0,48718.0,39253.0,43790.0,21850.0,16897.0
2026-05-06 16:27:27.133913,830600,1609507110510701,4710422716,0.769088,-0.5368,-0.101504,11.935,-23.3275,10.91125,-33.536003,-18.968,-83.552,concentric,8,5.0,35322.0,38877.0,88185.0,78142.0,33085.0,48718.0,39253.0,43790.0,21850.0,16897.0
2026-05-06 16:27:27.176565,830611,1609507110525405,4710437859,0.769088,-0.5368,-0.101504,10.71875,-24.08,11.89125,-33.536003,-18.968,-83.552,concentric,8,5.0,35810.0,39273.0,87826.0,76706.0,33595.0,49223.0,39099.0,42964.0,22151.0,17098.0
2026-05-06 16:27:27.179072,830612,1609507110534318,4710446618,0.661728,-0.511424,-0.134688,9.84375,-25.165,12.22375,-33.488003,-17.744001,-84.232,concentric,8,5.0,35810.0,39273.0,87826.0,76706.0,33595.0,49223.0,39099.0,42964.0,22151.0,17098.0
2026-05-06 16:27:27.181577,830613,1609507110543301,4710455347,0.661728,-0.511424,-0.134688,7.5425,-26.10125,12.1275,-33.488003,-17.744001,-84.232,concentric,8,5.0,35810.0,39273.0,87826.0,76706.0,33595.0,49223.0,39099.0,42964.0,22151.0,17098.0
2026-05-06 16:27:27.184133,830614,1609507110557813,4710470467,0.667584,-0.52704,-0.10736,5.20625,-27.536251,12.62625,-33.048,-17.264,-84.84801,concentric,8,5.0,35810.0,39273.0,87826.0,76706.0,33595.0,49223.0,39099.0,42964.0,22151.0,17098.0
2026-05-06 16:27:27.186570,830615,1609507110566831,4710479167,0.667584,-0.52704,-0.10736,2.135,-30.54625,15.18125,-33.048,-17.264,-84.84801,concentric,8,5.0,35810.0,39273.0,87826.0,76706.0,33595.0,49223.0,39099.0,42964.0,22151.0,17098.0
2026-05-06 16:27:27.189117,830616,1609507110581335,4710494088,0.687104,-0.525088,-0.167872,1.96875,-33.46,17.3775,-32.504,-17.248001,-84.976006,concentric,8,5.0,35810.0,39273.0,87826.0,76706.0,33595.0,49223.0,39099.0,42964.0,22151.0,17098.0
2026-05-06 16:27:27.191627,830617,1609507110590345,4710502934,0.687104,-0.562176,-0.173728,2.72125,-35.5425,18.2875,-32.504,-17.248001,-82.968,concentric,8,5.0,35810.0,39273.0,87826.0,76706.0,33595.0,49223.0,39099.0,42964.0,22151.0,17098.0
2026-05-06 16:27:27.194136,830618,1609507110599314,4710511653,0.691008,-0.562176,-0.173728,2.17,-36.82,20.02,-32.616,-19.056002,-82.968,concentric,8,5.0,35810.0,39273.0,87826.0,76706.0,33595.0,49223.0,39099.0,42964.0,22151.0,17098.0
2026-05-06 16:27:27.203281,830619,1609507110613855,4710526583,0.5856,-0.427488,-0.099552,2.35375,-39.2525,21.11375,-32.36,-19.84,-83.872,concentric,8,5.0,35810.0,39273.0,87826.0,76706.0,33595.0,49223.0,39099.0,42964.0,22151.0,17098.0
2026-05-06 16:27:27.241613,830630,1609507110623225,4710535597,0.5856,-0.427488,-0.099552,2.065,-45.185,21.5075,-32.36,-19.84,-83.872,concentric,8,5.0,36566.0,39721.0,87926.0,75899.0,34277.0,49665.0,39174.0,42448.0,22574.0,17318.0
2026-05-06 16:27:27.243753,830631,1609507110637913,4710550650,0.51728,-0.470432,-0.20496,0.665,-51.72125,22.6625,-31.712002,-19.632002,-82.36,concentric,8,5.0,36566.0,39721.0,87926.0,75899.0,34277.0,49665.0,39174.0,42448.0,22574.0,17318.0
2026-05-06 16:27:27.246528,830632,1609507110646876,4710559356,0.51728,-0.470432,-0.20496,-1.1025,-57.19,24.045,-31.712002,-19.632002,-82.36,concentric,8,5.0,36566.0,39721.0,87926.0,75899.0,34277.0,49665.0,39174.0,42448.0,22574.0,17318.0
2026-05-06 16:27:27.248928,830633,1609507110655813,4710568091,0.612928,-0.622688,-0.251808,-1.2425,-60.36625,27.615,-31.624,-19.264002,-86.552,concentric,8,5.0,36566.0,39721.0,87926.0,75899.0,34277.0,49665.0,39174.0,42448.0,22574.0,17318.0
2026-05-06 16:27:27.257639,830634,1609507110670689,4710583428,0.612928,-0.622688,-0.251808,3.54375,-63.41125,31.80625,-31.624,-19.264002,-86.552,concentric,8,5.0,36566.0,39721.0,87926.0,75899.0,34277.0,49665.0,39174.0,42448.0,22574.0,17318.0
2026-05-06 16:27:27.269048,830635,1609507110679637,4710592135,0.698816,-0.609024,-0.261568,13.230001,-65.35375,33.69625,-30.784002,-17.400002,-87.536,concentric,8,5.0,36566.0,39721.0,87926.0,75899.0,34277.0,49665.0,39174.0,42448.0,22574.0,17318.0
2026-05-06 16:27:27.280307,830636,1609507110694135,4710604989,0.626592,-0.501664,-0.162016,20.34375,-67.80375,32.43625,-30.272001,-15.480001,-88.128006,concentric,8,5.0,36566.0,39721.0,87926.0,75899.0,34277.0,49665.0,39174.0,42448.0,22574.0,17318.0
2026-05-06 16:27:27.292539,830637,1609507110703494,4710615781,0.626592,-0.501664,-0.162016,26.460001,-72.03875,31.3075,-30.272001,-15.480001,-88.128006,concentric,8,5.0,36566.0,39721.0,87926.0,75899.0,34277.0,49665.0,39174.0,42448.0,22574.0,17318.0
2026-05-06 16:27:27.297625,830638,1609507110712450,4710624553,0.5856,-0.5856,-0.269376,27.76375,-76.95625,31.28125,-29.576002,-13.304001,-90.088005,concentric,8,5.0,36566.0,39721.0,87926.0,75899.0,34277.0,49665.0,39174.0,42448.0,22574.0,17318.0
2026-05-06 16:27:27.399010,830649,1609507110727100,4710639502,0.5856,-0.5856,-0.269376,24.9725,-80.2725,32.6375,-29.576002,-13.304001,-90.088005,concentric,8,5.0,37109.0,39768.0,88271.0,75140.0,34775.0,49636.0,39367.0,42047.0,22854.0,17300.0
2026-05-06 16:27:27.407594,830650,1609507110736062,4710648293,0.677344,-0.632448,-0.275232,21.65625,-81.83875,35.105,-28.552002,-14.392001,-90.984,concentric,8,5.0,37109.0,39768.0,88271.0,75140.0,34775.0,49636.0,39367.0,42047.0,22854.0,17300.0
2026-05-06 16:27:27.410201,830651,1609507110750579,4710663248,0.677344,-0.632448,-0.275232,20.615,-83.0025,37.3275,-28.552002,-14.392001,-90.984,concentric,8,5.0,37109.0,39768.0,88271.0,75140.0,34775.0,49636.0,39367.0,42047.0,22854.0,17300.0
2026-05-06 16:27:27.412760,830652,1609507110759491,4710671956,0.669536,-0.616832,-0.300608,22.44375,-83.83375,38.61375,-27.920002,-12.088,-91.288,concentric,8,5.0,37109.0,39768.0,88271.0,75140.0,34775.0,49636.0,39367.0,42047.0,22854.0,17300.0
2026-05-06 16:27:27.415102,830653,1609507110774019,4710684902,0.618784,-0.581696,-0.304512,18.17375,-84.88375,37.24875,-26.608002,-11.048,-92.408005,concentric,8,5.0,37109.0,39768.0,88271.0,75140.0,34775.0,49636.0,39367.0,42047.0,22854.0,17300.0
2026-05-06 16:27:27.421513,830654,1609507110783306,4710695700,0.618784,-0.581696,-0.304512,13.16,-86.8,37.02125,-26.608002,-11.048,-92.408005,concentric,8,5.0,37109.0,39768.0,88271.0,75140.0,34775.0,49636.0,39367.0,42047.0,22854.0,17300.0
2026-05-06 16:27:27.423891,830655,1609507110792306,4710704530,0.626592,-0.650016,-0.374784,9.31,-88.558754,37.0475,-25.696001,-10.712001,-94.392006,concentric,8,5.0,37109.0,39768.0,88271.0,75140.0,34775.0,49636.0,39367.0,42047.0,22854.0,17300.0
2026-05-06 16:27:27.426230,830656,1609507110806907,4710719434,0.626592,-0.650016,-0.374784,7.18375,-89.0925,37.4675,-25.696001,-10.712001,-94.392006,concentric,8,5.0,37109.0,39768.0,88271.0,75140.0,34775.0,49636.0,39367.0,42047.0,22854.0,17300.0
2026-05-06 16:27:27.431369,830657,1609507110816034,4710728129,0.646112,-0.710528,-0.368928,5.15375,-88.165,36.30375,-24.328001,-10.784,-94.20801,concentric,8,5.0,37109.0,39768.0,88271.0,75140.0,34775.0,49636.0,39367.0,42047.0,22854.0,17300.0
2026-05-06 16:27:27.469068,830668,1609507110830902,4710743553,0.646112,-0.710528,-0.368928,0.63875,-87.07125,35.07,-24.328001,-10.784,-94.20801,concentric,8,5.0,37463.0,39956.0,88941.0,74517.0,35156.0,49793.0,39673.0,41711.0,22984.0,17343.0
2026-05-06 16:27:27.471574,830669,1609507110839887,4710752255,0.638304,-0.667584,-0.374784,0.35,-87.535,34.65,-23.776001,-12.160001,-95.344,concentric,8,5.0,37463.0,39956.0,88941.0,74517.0,35156.0,49793.0,39673.0,41711.0,22984.0,17343.0
2026-05-06 16:27:27.476597,830670,1609507110848876,4710761039,0.638304,-0.667584,-0.374784,-4.5675,-88.7075,32.75125,-23.776001,-12.160001,-95.344,concentric,8,5.0,37463.0,39956.0,88941.0,74517.0,35156.0,49793.0,39673.0,41711.0,22984.0,17343.0
2026-05-06 16:27:27.476882,830671,1609507110863606,4710776041,0.607072,-0.626592,-0.392352,-12.73125,-90.37875,30.47625,-22.992,-11.440001,-94.4,concentric,8,5.0,37463.0,39956.0,88941.0,74517.0,35156.0,49793.0,39673.0,41711.0,22984.0,17343.0
2026-05-06 16:27:27.478707,830672,1609507110872622,4710784815,0.577792,-0.685152,-0.46848,-15.995,-91.44625,29.40875,-22.992,-12.056001,-94.600006,concentric,8,5.0,37463.0,39956.0,88941.0,74517.0,35156.0,49793.0,39673.0,41711.0,22984.0,17343.0
2026-05-06 16:27:27.484279,830673,1609507110887142,4710799738,0.577792,-0.685152,-0.46848,-13.72,-92.1725,29.12,-21.048,-12.056001,-94.600006,concentric,8,5.0,37463.0,39956.0,88941.0,74517.0,35156.0,49793.0,39673.0,41711.0,22984.0,17343.0
2026-05-06 16:27:27.484518,830674,1609507110896127,4710808504,0.530944,-0.745664,-0.544608,-8.0675,-93.3275,29.085001,-19.864,-11.52,-95.608,concentric,8,5.0,37463.0,39956.0,88941.0,74517.0,35156.0,49793.0,39673.0,41711.0,22984.0,17343.0
2026-05-06 16:27:27.492689,830675,1609507110905192,4710817240,0.530944,-0.745664,-0.544608,-2.72125,-95.06,29.65375,-19.864,-11.52,-95.608,concentric,8,5.0,37463.0,39956.0,88941.0,74517.0,35156.0,49793.0,39673.0,41711.0,22984.0,17343.0
2026-05-06 16:27:27.507512,830676,1609507110919671,4710832152,0.550464,-0.733952,-0.560224,-0.30625,-96.53,29.46125,-18.792002,-9.024,-97.352005,concentric,8,5.0,37463.0,39956.0,88941.0,74517.0,35156.0,49793.0,39673.0,41711.0,22984.0,17343.0
2026-05-06 16:27:27.539162,830687,1609507110928743,4710840947,0.550464,-0.733952,-0.560224,-0.2275,-95.71625,25.54125,-18.792002,-9.024,-97.352005,concentric,8,5.0,38464.0,41143.0,89781.0,74033.0,36227.0,51060.0,40189.0,41398.0,23489.0,17874.0
2026-05-06 16:27:27.541411,830688,1609507110943286,4710855997,0.486048,-0.706624,-0.55632,0.90125,-94.4125,23.205,-17.168001,-8.872001,-98.232,concentric,8,5.0,38464.0,41143.0,89781.0,74033.0,36227.0,51060.0,40189.0,41398.0,23489.0,17874.0
2026-05-06 16:27:27.546587,830689,1609507110952228,4710864692,0.486048,-0.706624,-0.55632,4.83,-92.75875,25.06875,-17.168001,-8.872001,-98.232,concentric,8,5.0,38464.0,41143.0,89781.0,74033.0,36227.0,51060.0,40189.0,41398.0,23489.0,17874.0
2026-05-06 16:27:27.555308,830690,1609507110966899,4710879659,0.42944,-0.669536,-0.452864,10.57,-91.3675,27.92125,-16.064001,-11.568001,-96.232,concentric,8,5.0,38464.0,41143.0,89781.0,74033.0,36227.0,51060.0,40189.0,41398.0,23489.0,17874.0
2026-05-06 16:27:27.564063,830691,1609507110975766,4710888372,0.349408,-0.687104,-0.564128,14.9625,-90.51875,32.1825,-14.440001,-7.584001,-99.64001,concentric,8,5.0,38464.0,41143.0,89781.0,74033.0,36227.0,51060.0,40189.0,41398.0,23489.0,17874.0
2026-05-06 16:27:27.577147,830692,1609507110984663,4710897069,0.349408,-0.687104,-0.564128,16.6425,-88.83875,35.7,-14.440001,-7.584001,-99.64001,concentric,8,5.0,38464.0,41143.0,89781.0,74033.0,36227.0,51060.0,40189.0,41398.0,23489.0,17874.0
2026-05-06 16:27:27.586252,830693,1609507110999204,4710911938,0.314272,-0.772992,-0.569984,16.96625,-87.36875,36.715,-13.376,-6.792,-100.312004,concentric,8,5.0,38464.0,41143.0,89781.0,74033.0,36227.0,51060.0,40189.0,41398.0,23489.0,17874.0
2026-05-06 16:27:27.595139,830694,1609507111008130,4710920656,0.314272,-0.772992,-0.569984,18.7775,-87.325,36.61875,-13.376,-6.792,-100.312004,concentric,8,5.0,38464.0,41143.0,89781.0,74033.0,36227.0,51060.0,40189.0,41398.0,23489.0,17874.0
2026-05-06 16:27:27.608923,830695,1609507111022656,4710933543,0.306464,-0.72224,-0.509472,22.56625,-88.7075,37.70375,-11.656,-7.520001,-99.288,concentric,8,5.0,38464.0,41143.0,89781.0,74033.0,36227.0,51060.0,40189.0,41398.0,23489.0,17874.0
2026-05-06 16:27:27.636593,830706,1609507111032580,4710944397,0.306464,-0.72224,-0.509472,32.585,-90.41375,40.18,-11.656,-7.520001,-99.288,concentric,8,5.0,39933.0,42963.0,91210.0,74620.0,37902.0,53099.0,40982.0,41799.0,24220.0,18678.0
2026-05-06 16:27:27.639093,830707,1609507111041590,4710953197,0.275232,-0.685152,-0.532896,44.66875,-90.85125,43.40875,-10.472,-7.312,-99.56801,concentric,8,5.0,39933.0,42963.0,91210.0,74620.0,37902.0,53099.0,40982.0,41799.0,24220.0,18678.0
2026-05-06 16:27:27.642608,830708,1609507111056269,4710968131,0.216672,-0.630496,-0.562176,47.59125,-90.8075,46.138752,-9.04,-6.096,-100.37601,concentric,8,5.0,39933.0,42963.0,91210.0,74620.0,37902.0,53099.0,40982.0,41799.0,24220.0,18678.0
2026-05-06 16:27:27.650314,830709,1609507111065187,4710976898,0.216672,-0.630496,-0.562176,42.7525,-91.97125,49.3675,-9.04,-6.096,-100.37601,concentric,8,5.0,39933.0,42963.0,91210.0,74620.0,37902.0,53099.0,40982.0,41799.0,24220.0,18678.0
2026-05-06 16:27:27.683885,830710,1609507111079682,4710991853,0.203008,-0.667584,-0.5856,40.0225,-93.345,51.33625,-7.464,-3.496,-101.560005,concentric,8,5.0,39933.0,42963.0,91210.0,74620.0,37902.0,53099.0,40982.0,41799.0,24220.0,18678.0
2026-05-06 16:27:27.686423,830711,1609507111088735,4711000591,0.203008,-0.667584,-0.5856,34.78125,-94.31625,49.56,-7.464,-3.496,-101.560005,concentric,8,5.0,39933.0,42963.0,91210.0,74620.0,37902.0,53099.0,40982.0,41799.0,24220.0,18678.0
2026-05-06 16:27:27.688953,830712,1609507111097676,4711009278,0.21472,-0.765184,-0.601216,30.5375,-95.2525,50.05,-5.4,-2.672,-101.728004,concentric,8,5.0,39933.0,42963.0,91210.0,74620.0,37902.0,53099.0,40982.0,41799.0,24220.0,18678.0
2026-05-06 16:27:27.728674,830713,1609507111112225,4711024261,0.21472,-0.765184,-0.601216,28.44625,-95.64625,52.61375,-5.4,-2.672,-101.728004,concentric,8,5.0,39933.0,42963.0,91210.0,74620.0,37902.0,53099.0,40982.0,41799.0,24220.0,18678.0
2026-05-06 16:27:27.754048,830714,1609507111121147,4711032978,0.21472,-0.788608,-0.622688,21.9625,-95.5675,53.4275,-4.32,-3.752,-102.11201,concentric,8,5.0,39933.0,42963.0,91210.0,74620.0,37902.0,53099.0,40982.0,41799.0,24220.0,18678.0
2026-05-06 16:27:27.800219,830725,1609507111135718,4711047951,0.203008,-0.843264,-0.636352,22.54875,-94.885,54.48625,-2.672,-1.784,-103.088005,concentric,8,5.0,41569.0,44895.0,92671.0,77396.0,39589.0,55301.0,41761.0,43356.0,24939.0,19500.0
2026-05-06 16:27:27.802746,830726,1609507111144627,4711056655,0.203008,-0.843264,-0.636352,23.51125,-92.82,54.55625,-2.672,-1.784,-103.088005,concentric,8,5.0,41569.0,44895.0,92671.0,77396.0,39589.0,55301.0,41761.0,43356.0,24939.0,19500.0
2026-05-06 16:27:27.805226,830727,1609507111159098,4711071536,0.150304,-0.860832,-0.685152,18.147501,-88.13,56.6475,-1.024,-1.296,-102.392006,concentric,8,5.0,41569.0,44895.0,92671.0,77396.0,39589.0,55301.0,41761.0,43356.0,24939.0,19500.0
2026-05-06 16:27:27.807650,830728,1609507111168118,4711080346,0.150304,-0.860832,-0.685152,13.545,-83.545,57.12,-1.024,-1.296,-102.392006,concentric,8,5.0,41569.0,44895.0,92671.0,77396.0,39589.0,55301.0,41761.0,43356.0,24939.0,19500.0
2026-05-06 16:27:27.810152,830729,1609507111177072,4711089078,0.121024,-0.892064,-0.6832,10.0625,-79.09125,55.50125,0.608,-1.608,-101.384,concentric,8,5.0,41569.0,44895.0,92671.0,77396.0,39589.0,55301.0,41761.0,43356.0,24939.0,19500.0
2026-05-06 16:27:27.812776,830730,1609507111191549,4711104014,0.121024,-0.892064,-0.6832,8.155,-75.18875,55.46625,0.608,-1.608,-101.384,concentric,8,5.0,41569.0,44895.0,92671.0,77396.0,39589.0,55301.0,41761.0,43356.0,24939.0,19500.0
2026-05-06 16:27:27.815235,830731,1609507111200517,4711112815,0.130784,-0.851072,-0.6832,6.71125,-72.3975,58.0475,1.752,-3.16,-101.592,concentric,8,5.0,41569.0,44895.0,92671.0,77396.0,39589.0,55301.0,41761.0,43356.0,24939.0,19500.0
2026-05-06 16:27:27.817785,830732,1609507111215021,4711127763,0.11712,-0.911584,-0.700768,3.89375,-67.8475,60.9,1.752,-3.16,-101.968,concentric,8,5.0,41569.0,44895.0,92671.0,77396.0,39589.0,55301.0,41761.0,43356.0,24939.0,19500.0
2026-05-06 16:27:27.845339,830743,1609507111224055,4711136517,0.11712,-0.911584,-0.700768,-1.75875,-61.18875,60.59375,2.728,-2.584,-101.968,concentric,8,5.0,42842.0,46294.0,93660.0,79724.0,40795.0,56774.0,42279.0,44528.0,25504.0,20037.0
2026-05-06 16:27:27.850351,830744,1609507111233630,4711145493,0.11712,-0.911584,-0.700768,-16.51125,-54.46875,58.0475,2.728,-2.584,-101.968,concentric,8,5.0,42842.0,46294.0,93660.0,79724.0,40795.0,56774.0,42279.0,44528.0,25504.0,20037.0
2026-05-06 16:27:27.852898,830745,1609507111248226,4711160461,0.011712,-0.968192,-0.726144,-29.37375,-47.80125,56.44625,3.848,-1.256,-103.96001,concentric,8,5.0,42842.0,46294.0,93660.0,79724.0,40795.0,56774.0,42279.0,44528.0,25504.0,20037.0
2026-05-06 16:27:27.855352,830746,1609507111257358,4711169244,0.0,-0.964288,-0.700768,-31.6575,-42.0875,53.96125,4.616,-1.792,-104.464005,concentric,8,5.0,42842.0,46294.0,93660.0,79724.0,40795.0,56774.0,42279.0,44528.0,25504.0,20037.0
2026-05-06 16:27:27.859891,830747,1609507111271976,4711184182,0.0,-0.964288,-0.700768,-26.87125,-38.56125,52.07125,4.616,-1.792,-104.464005,concentric,8,5.0,42842.0,46294.0,93660.0,79724.0,40795.0,56774.0,42279.0,44528.0,25504.0,20037.0
2026-05-06 16:27:27.867669,830748,1609507111280917,4711192935,0.015616,-0.884256,-0.651968,-18.66375,-35.37625,52.92875,5.12,-2.248,-102.64001,concentric,8,5.0,42842.0,46294.0,93660.0,79724.0,40795.0,56774.0,42279.0,44528.0,25504.0,20037.0
2026-05-06 16:27:27.881192,830749,1609507111295417,4711207861,0.015616,-0.804224,-0.626592,-15.435,-30.765,55.0375,5.12,-2.248,-102.64001,concentric,8,5.0,42842.0,46294.0,93660.0,79724.0,40795.0,56774.0,42279.0,44528.0,25504.0,20037.0
2026-05-06 16:27:27.891313,830750,1609507111304335,4711216602,-0.042944,-0.804224,-0.626592,-19.9325,-27.15125,55.7725,5.904,-2.376,-103.520004,concentric,8,5.0,42842.0,46294.0,93660.0,79724.0,40795.0,56774.0,42279.0,44528.0,25504.0,20037.0
2026-05-06 16:27:27.900171,830751,1609507111313279,4711225305,-0.042944,-0.804224,-0.626592,-28.88375,-24.31625,54.4425,5.904,-2.376,-103.520004,concentric,8,5.0,42842.0,46294.0,93660.0,79724.0,40795.0,56774.0,42279.0,44528.0,25504.0,20037.0
2026-05-06 16:27:27.941354,830762,1609507111328512,4711240488,-0.091744,-0.786656,-0.646112,-36.14625,-22.26,51.205,6.440001,-3.312,-102.984,concentric,8,5.0,43806.0,46501.0,94767.0,80576.0,41631.0,56858.0,42778.0,44894.0,26017.0,20123.0
2026-05-06 16:27:27.944065,830763,1609507111337703,4711249266,-0.130784,-0.843264,-0.640256,-35.5775,-21.385,49.63,6.512,-5.72,-101.864006,concentric,8,5.0,43806.0,46501.0,94767.0,80576.0,41631.0,56858.0,42778.0,44894.0,26017.0,20123.0
2026-05-06 16:27:27.946571,830764,1609507111346701,4711258039,-0.130784,-0.843264,-0.640256,-35.77875,-21.0875,50.18125,6.512,-5.72,-101.864006,concentric,8,5.0,43806.0,46501.0,94767.0,80576.0,41631.0,56858.0,42778.0,44894.0,26017.0,20123.0
2026-05-06 16:27:27.949015,830765,1609507111361262,4711273065,-0.130784,-0.827648,-0.610976,-38.57875,-19.7225,50.96,6.84,-6.328,-101.68001,concentric,8,5.0,43806.0,46501.0,94767.0,80576.0,41631.0,56858.0,42778.0,44894.0,26017.0,20123.0
2026-05-06 16:27:27.960306,830766,1609507111370193,4711281805,-0.130784,-0.827648,-0.610976,-37.1875,-19.66125,49.875,6.84,-6.328,-101.68001,concentric,8,5.0,43806.0,46501.0,94767.0,80576.0,41631.0,56858.0,42778.0,44894.0,26017.0,20123.0
2026-05-06 16:27:27.970150,830767,1609507111384731,4711296911,-0.140544,-0.788608,-0.632448,-34.4575,-19.6525,47.888752,7.264,-4.704,-103.288,concentric,8,5.0,43806.0,46501.0,94767.0,80576.0,41631.0,56858.0,42778.0,44894.0,26017.0,20123.0
2026-05-06 16:27:27.983905,830768,1609507111393674,4711305633,-0.140544,-0.788608,-0.632448,-32.6025,-20.9125,45.78,7.264,-4.704,-103.288,concentric,8,5.0,43806.0,46501.0,94767.0,80576.0,41631.0,56858.0,42778.0,44894.0,26017.0,20123.0
2026-05-06 16:27:27.997804,830769,1609507111408203,4711320614,-0.169824,-0.815936,-0.728096,-31.45625,-20.615,43.98625,7.824,-5.592001,-102.72,concentric,8,5.0,43806.0,46501.0,94767.0,80576.0,41631.0,56858.0,42778.0,44894.0,26017.0,20123.0
2026-05-06 16:27:28.004019,830770,1609507111417146,4711329302,-0.179584,-0.831552,-0.724192,-28.0175,-19.985,42.2975,8.104,-6.000001,-104.58401,concentric,8,5.0,43806.0,46501.0,94767.0,80576.0,41631.0,56858.0,42778.0,44894.0,26017.0,20123.0
2026-05-06 16:27:28.045112,830781,1609507111426476,4711338107,-0.179584,-0.831552,-0.724192,-21.72625,-19.8625,43.015,8.104,-6.000001,-104.58401,concentric,8,5.0,44272.0,46369.0,94986.0,80801.0,42042.0,56772.0,42841.0,44961.0,26246.0,20041.0
2026-05-06 16:27:28.047799,830782,1609507111441004,4711353083,-0.17568,-0.823744,-0.687104,-14.27125,-19.74,42.76125,7.76,-9.008,-101.032005,concentric,8,5.0,44272.0,46369.0,94986.0,80801.0,42042.0,56772.0,42841.0,44961.0,26246.0,20041.0
2026-05-06 16:27:28.050257,830783,1609507111449925,4711361874,-0.17568,-0.823744,-0.687104,-9.5725,-20.3525,40.38125,7.76,-9.008,-101.032005,concentric,8,5.0,44272.0,46369.0,94986.0,80801.0,42042.0,56772.0,42841.0,44961.0,26246.0,20041.0
2026-05-06 16:27:28.052931,830784,1609507111464701,4711377002,-0.177632,-0.85888,-0.687104,-6.6675,-19.92375,38.0275,8.648001,-9.792001,-101.104004,concentric,8,5.0,44272.0,46369.0,94986.0,80801.0,42042.0,56772.0,42841.0,44961.0,26246.0,20041.0
2026-05-06 16:27:28.091481,830785,1609507111473761,4711385729,-0.177632,-0.85888,-0.687104,-5.74875,-18.41,35.945,8.648001,-9.792001,-101.104004,concentric,8,5.0,44272.0,46369.0,94986.0,80801.0,42042.0,56772.0,42841.0,44961.0,26246.0,20041.0
2026-05-06 16:27:28.116472,830786,1609507111482716,4711394429,-0.193248,-0.93696,-0.772992,-1.4,-17.01875,32.17375,9.168,-6.256001,-102.872,concentric,8,5.0,44272.0,46369.0,94986.0,80801.0,42042.0,56772.0,42841.0,44961.0,26246.0,20041.0
2026-05-06 16:27:28.118739,830787,1609507111497205,4711409395,-0.162016,-0.962336,-0.732,3.7975,-14.980001,25.9175,9.168,-4.208,-102.768005,concentric,8,5.0,44272.0,46369.0,94986.0,80801.0,42042.0,56772.0,42841.0,44961.0,26246.0,20041.0
2026-05-06 16:27:28.124950,830788,1609507111506123,4711418104,-0.162016,-0.962336,-0.732,6.965,-12.2675,21.95375,9.240001,-5.84,-102.768005,concentric,8,5.0,44272.0,46369.0,94986.0,80801.0,42042.0,56772.0,42841.0,44961.0,26246.0,20041.0
2026-05-06 16:27:28.127541,830789,1609507111520660,4711433018,-0.167872,-0.948672,-0.77104,9.79125,-9.3625,20.02875,9.264001,-6.36,-103.024,concentric,8,5.0,44272.0,46369.0,94986.0,80801.0,42042.0,56772.0,42841.0,44961.0,26246.0,20041.0
2026-05-06 16:27:28.155179,830800,1609507111530326,4711441822,-0.167872,-0.948672,-0.77104,11.38375,-6.15125,15.09375,9.264001,-6.36,-103.024,concentric,8,5.0,44496.0,46694.0,94909.0,81204.0,42347.0,57160.0,42831.0,45165.0,26381.0,20171.0
2026-05-06 16:27:28.157530,830801,1609507111539373,4711450672,-0.169824,-0.948672,-0.788608,10.57,-2.51125,7.41125,9.456,-7.464,-102.192,concentric,8,5.0,44496.0,46694.0,94909.0,81204.0,42347.0,57160.0,42831.0,45165.0,26381.0,20171.0
2026-05-06 16:27:28.160294,830802,1609507111554010,4711465605,-0.169824,-0.948672,-0.788608,8.49625,-0.21,1.9075,9.456,-7.464,-102.192,concentric,8,5.0,44496.0,46694.0,94909.0,81204.0,42347.0,57160.0,42831.0,45165.0,26381.0,20171.0
2026-05-06 16:27:28.165218,830803,1609507111563063,4711474365,-0.163968,-0.91744,-0.7808,5.7225,2.2225,0.175,9.232,-7.736001,-102.05601,concentric,8,5.0,44496.0,46694.0,94909.0,81204.0,42347.0,57160.0,42831.0,45165.0,26381.0,20171.0
2026-05-06 16:27:28.167801,830804,1609507111577677,4711489397,-0.163968,-0.931104,-0.691008,0.3675,6.23,-4.0425,9.232,-7.736001,-103.952,concentric,8,5.0,44496.0,46694.0,94909.0,81204.0,42347.0,57160.0,42831.0,45165.0,26381.0,20171.0
2026-05-06 16:27:28.173815,830805,1609507111586575,4711498106,-0.193248,-0.931104,-0.691008,-5.11,9.7125,-9.948751,9.368,-5.896,-103.952,concentric,8,5.0,44496.0,46694.0,94909.0,81204.0,42347.0,57160.0,42831.0,45165.0,26381.0,20171.0
2026-05-06 16:27:28.187644,830806,1609507111601063,4711513008,-0.179584,-0.899872,-0.669536,-4.90875,11.89125,-13.5625,8.96,-6.992,-101.912,concentric,8,5.0,44496.0,46694.0,94909.0,81204.0,42347.0,57160.0,42831.0,45165.0,26381.0,20171.0
2026-05-06 16:27:28.197813,830807,1609507111610019,4711521803,-0.179584,-0.899872,-0.669536,-2.12625,12.18,-16.2925,8.96,-6.992,-101.912,concentric,8,5.0,44496.0,46694.0,94909.0,81204.0,42347.0,57160.0,42831.0,45165.0,26381.0,20171.0
2026-05-06 16:27:28.204101,830808,1609507111619053,4711530586,-0.169824,-0.827648,-0.64416,1.61875,12.136251,-18.75125,8.68,-5.496,-103.312004,concentric,8,5.0,44496.0,46694.0,94909.0,81204.0,42347.0,57160.0,42831.0,45165.0,26381.0,20171.0
2026-05-06 16:27:28.243107,830820,1609507111633759,4711545559,-0.169824,-0.827648,-0.64416,4.8825,12.18875,-20.25625,8.68,-5.496,-103.312004,concentric,8,5.0,45070.0,47095.0,94782.0,81732.0,42876.0,57555.0,42788.0,45421.0,26658.0,20355.0
2026-05-06 16:27:28.244957,830821,1609507111642756,4711554328,-0.187392,-0.776896,-0.636352,7.8575,13.02,-21.32375,8.304001,-5.520001,-103.04001,concentric,8,5.0,45070.0,47095.0,94782.0,81732.0,42876.0,57555.0,42788.0,45421.0,26658.0,20355.0
2026-05-06 16:27:28.249222,830822,1609507111657318,4711569398,-0.187392,-0.776896,-0.636352,8.84625,13.15125,-22.02375,8.304001,-5.520001,-103.04001,concentric,8,5.0,45070.0,47095.0,94782.0,81732.0,42876.0,57555.0,42788.0,45421.0,26658.0,20355.0
2026-05-06 16:27:28.251299,830823,1609507111666363,4711578111,-0.201056,-0.767136,-0.667584,10.2025,13.4225,-21.97125,8.160001,-5.072,-103.368004,concentric,8,5.0,45070.0,47095.0,94782.0,81732.0,42876.0,57555.0,42788.0,45421.0,26658.0,20355.0
2026-05-06 16:27:28.265143,830824,1609507111675305,4711586875,-0.201056,-0.767136,-0.667584,12.6525,13.15125,-21.7875,8.160001,-5.072,-103.368004,concentric,8,5.0,45070.0,47095.0,94782.0,81732.0,42876.0,57555.0,42788.0,45421.0,26658.0,20355.0
2026-05-06 16:27:28.277774,830825,1609507111689819,4711601845,-0.17568,-0.788608,-0.642208,17.185,11.515,-21.90125,8.160001,-4.792,-102.064,concentric,8,5.0,45070.0,47095.0,94782.0,81732.0,42876.0,57555.0,42788.0,45421.0,26658.0,20355.0
2026-05-06 16:27:28.286327,830826,1609507111698767,4711610626,-0.150304,-0.812032,-0.610976,22.47,10.1325,-21.8225,8.160001,-5.64,-102.048004,concentric,8,5.0,45070.0,47095.0,94782.0,81732.0,42876.0,57555.0,42788.0,45421.0,26658.0,20355.0
2026-05-06 16:27:28.302833,830827,1609507111713332,4711625505,-0.150304,-0.812032,-0.610976,24.255,8.96,-20.545,7.768001,-5.64,-102.048004,concentric,8,5.0,45070.0,47095.0,94782.0,81732.0,42876.0,57555.0,42788.0,45421.0,26658.0,20355.0
2026-05-06 16:27:28.309045,830828,1609507111722258,4711634204,-0.169824,-0.7808,-0.675392,24.15,8.39125,-19.85375,7.544,-4.176,-103.22401,concentric,8,5.0,45070.0,47095.0,94782.0,81732.0,42876.0,57555.0,42788.0,45421.0,26658.0,20355.0
2026-05-06 16:27:28.339626,830839,1609507111737031,4711649307,-0.169824,-0.7808,-0.675392,23.03875,8.56625,-20.0375,7.544,-4.176,-103.22401,concentric,8,5.0,45349.0,47504.0,94732.0,82593.0,43168.0,58081.0,42766.0,45881.0,26753.0,20527.0
2026-05-06 16:27:28.343004,830840,1609507111746067,4711658054,-0.13664,-0.794464,-0.622688,19.71375,8.02375,-19.67,7.504,-4.728,-100.83201,concentric,8,5.0,45349.0,47504.0,94732.0,82593.0,43168.0,58081.0,42766.0,45881.0,26753.0,20527.0
2026-05-06 16:27:28.344140,830841,1609507111755039,4711666765,-0.13664,-0.794464,-0.622688,15.7675,7.7,-19.11875,7.504,-4.728,-100.83201,concentric,8,5.0,45349.0,47504.0,94732.0,82593.0,43168.0,58081.0,42766.0,45881.0,26753.0,20527.0
2026-05-06 16:27:28.360025,830842,1609507111770104,4711681755,-0.134688,-0.85888,-0.669536,12.38125,8.65375,-18.13875,7.488,-3.48,-103.11201,concentric,8,5.0,45349.0,47504.0,94732.0,82593.0,43168.0,58081.0,42766.0,45881.0,26753.0,20527.0
2026-05-06 16:27:28.366150,830843,1609507111779243,4711690521,-0.121024,-0.86864,-0.638304,10.07125,9.31875,-18.06,7.488,-7.576,-100.560005,eccentric,8,5.0,45349.0,47504.0,94732.0,82593.0,43168.0,58081.0,42766.0,45881.0,26753.0,20527.0
2026-05-06 16:27:28.372678,830844,1609507111788274,4711699284,-0.121024,-0.86864,-0.638304,9.31875,10.28125,-17.6575,7.072001,-7.096,-100.560005,eccentric,8,5.0,45349.0,47504.0,94732.0,82593.0,43168.0,58081.0,42766.0,45881.0,26753.0,20527.0
2026-05-06 16:27:28.410174,830845,1609507111803034,4711714209,-0.105408,-0.86864,-0.599264,7.58625,11.52375,-17.9025,6.864,-3.072,-103.616005,eccentric,8,5.0,45349.0,47504.0,94732.0,82593.0,43168.0,58081.0,42766.0,45881.0,26753.0,20527.0
2026-05-06 16:27:28.412716,830846,1609507111812403,4711724974,-0.105408,-0.86864,-0.599264,4.92625,13.011251,-18.9,6.864,-3.072,-103.616005,eccentric,8,5.0,45349.0,47504.0,94732.0,82593.0,43168.0,58081.0,42766.0,45881.0,26753.0,20527.0
2026-05-06 16:27:28.415200,830847,1609507111826870,4711737803,-0.0976,-0.8784,-0.67344,-0.28,13.965,-19.39,6.84,-2.824,-103.22401,eccentric,8,5.0,45349.0,47504.0,94732.0,82593.0,43168.0,58081.0,42766.0,45881.0,26753.0,20527.0
2026-05-06 16:27:28.504118,830858,1609507111836509,4711748677,-0.0976,-0.8784,-0.67344,-3.94625,15.51375,-17.6925,6.84,-2.824,-103.22401,eccentric,8,5.0,45564.0,47948.0,95082.0,83404.0,43390.0,58500.0,42942.0,46352.0,26843.0,20691.0
2026-05-06 16:27:28.506461,830859,1609507111845512,4711757403,-0.0976,-0.923296,-0.685152,-7.14,17.535,-17.07125,6.16,-4.848,-101.952,eccentric,8,5.0,45564.0,47948.0,95082.0,83404.0,43390.0,58500.0,42942.0,46352.0,26843.0,20691.0
2026-05-06 16:27:28.509033,830860,1609507111860094,4711772315,-0.074176,-0.970144,-0.749568,-11.6375,20.34375,-19.7225,5.856,-2.96,-102.312004,eccentric,8,5.0,45564.0,47948.0,95082.0,83404.0,43390.0,58500.0,42942.0,46352.0,26843.0,20691.0
2026-05-06 16:27:28.511549,830861,1609507111869056,4711781052,-0.074176,-0.970144,-0.749568,-16.52875,24.28125,-22.2775,5.856,-2.96,-102.312004,eccentric,8,5.0,45564.0,47948.0,95082.0,83404.0,43390.0,58500.0,42942.0,46352.0,26843.0,20691.0
2026-05-06 16:27:28.514071,830862,1609507111883572,4711795984,0.03904,-1.087264,-0.931104,-19.18,28.428751,-25.85625,4.944,-4.048,-103.54401,eccentric,8,5.0,45564.0,47948.0,95082.0,83404.0,43390.0,58500.0,42942.0,46352.0,26843.0,20691.0
2026-05-06 16:27:28.516564,830863,1609507111892518,4711804676,0.03904,-1.087264,-0.931104,-30.17,33.80125,-29.6975,4.944,-4.048,-103.54401,eccentric,8,5.0,45564.0,47948.0,95082.0,83404.0,43390.0,58500.0,42942.0,46352.0,26843.0,20691.0
2026-05-06 16:27:28.519053,830864,1609507111901555,4711813508,0.189344,-1.184864,-0.921344,-40.87125,41.755,-34.6325,4.12,-6.624001,-104.15201,eccentric,8,5.0,45564.0,47948.0,95082.0,83404.0,43390.0,58500.0,42942.0,46352.0,26843.0,20691.0
2026-05-06 16:27:28.524369,830865,1609507111916065,4711828493,0.189344,-1.184864,-0.921344,-56.385002,52.7625,-43.05,4.12,-6.624001,-104.15201,eccentric,8,5.0,45564.0,47948.0,95082.0,83404.0,43390.0,58500.0,42942.0,46352.0,26843.0,20691.0
2026-05-06 16:27:28.524927,830866,1609507111925000,4711837270,0.222528,-1.19072,-0.929152,-55.265,66.10625,-49.77,2.512,-7.664001,-101.992004,eccentric,8,5.0,45564.0,47948.0,95082.0,83404.0,43390.0,58500.0,42942.0,46352.0,26843.0,20691.0
2026-05-06 16:27:28.551396,830877,1609507111939699,4711852350,0.222528,-1.19072,-0.929152,-50.18125,77.63,-56.857502,2.512,-7.664001,-101.992004,eccentric,8,5.0,45024.0,47702.0,95481.0,83498.0,42748.0,58042.0,43033.0,46388.0,26650.0,20562.0
2026-05-06 16:27:28.553878,830878,1609507111948842,4711861122,0.103456,-1.061888,-0.815936,-45.78875,84.86625,-59.61375,0.736,-8.56,-98.976006,eccentric,8,5.0,45024.0,47702.0,95481.0,83498.0,42748.0,58042.0,43033.0,46388.0,26650.0,20562.0
2026-05-06 16:27:28.556440,830879,1609507111963370,4711876044,0.052704,-0.962336,-0.765184,-38.115,90.51,-59.99875,-0.704,-10.216001,-100.784004,eccentric,8,5.0,45024.0,47702.0,95481.0,83498.0,42748.0,58042.0,43033.0,46388.0,26650.0,20562.0
2026-05-06 16:27:28.558953,830880,1609507111972368,4711884833,0.052704,-0.962336,-0.765184,-32.62875,92.75875,-63.35,-0.704,-10.216001,-100.784004,eccentric,8,5.0,45024.0,47702.0,95481.0,83498.0,42748.0,58042.0,43033.0,46388.0,26650.0,20562.0
2026-05-06 16:27:28.567692,830881,1609507111981325,4711893571,0.0488,-0.886208,-0.665632,-23.42375,95.41875,-68.355,-2.472,-8.912001,-101.576004,eccentric,8,5.0,45024.0,47702.0,95481.0,83498.0,42748.0,58042.0,43033.0,46388.0,26650.0,20562.0
2026-05-06 16:27:28.584028,830882,1609507111995810,4711908488,0.0488,-0.886208,-0.665632,-10.6925,96.11875,-73.2725,-2.472,-8.912001,-101.576004,eccentric,8,5.0,45024.0,47702.0,95481.0,83498.0,42748.0,58042.0,43033.0,46388.0,26650.0,20562.0
2026-05-06 16:27:28.592828,830883,1609507112004713,4711917337,0.02928,-0.765184,-0.548512,0.67375,95.558754,-73.98125,-3.76,-6.848001,-102.336006,eccentric,8,5.0,45024.0,47702.0,95481.0,83498.0,42748.0,58042.0,43033.0,46388.0,26650.0,20562.0
2026-05-06 16:27:28.606430,830884,1609507112019257,4711930358,0.02928,-0.765184,-0.548512,6.27375,91.84875,-73.36,-3.76,-6.848001,-102.336006,eccentric,8,5.0,45024.0,47702.0,95481.0,83498.0,42748.0,58042.0,43033.0,46388.0,26650.0,20562.0
2026-05-06 16:27:28.640032,830895,1609507112028572,4711941155,0.037088,-0.628544,-0.6344,7.70875,87.29,-72.87,-5.432,-6.664001,-101.4,eccentric,8,5.0,45589.0,47404.0,95188.0,83390.0,43145.0,57728.0,42896.0,46297.0,26941.0,20455.0
2026-05-06 16:27:28.642725,830896,1609507112037759,4711949914,0.037088,-0.628544,-0.6344,10.15,83.5625,-74.94375,-5.432,-6.664001,-101.4,eccentric,8,5.0,45589.0,47404.0,95188.0,83390.0,43145.0,57728.0,42896.0,46297.0,26941.0,20455.0
2026-05-06 16:27:28.645168,830897,1609507112052368,4711964961,0.080032,-0.733952,-0.681248,11.6025,81.55,-77.8925,-6.968,-8.576,-100.408005,eccentric,8,5.0,45589.0,47404.0,95188.0,83390.0,43145.0,57728.0,42896.0,46297.0,26941.0,20455.0
2026-05-06 16:27:28.647738,830898,1609507112061320,4711973705,0.130784,-0.815936,-0.675392,8.3475,81.340004,-81.36625,-6.968,-8.576,-99.79201,eccentric,8,5.0,45589.0,47404.0,95188.0,83390.0,43145.0,57728.0,42896.0,46297.0,26941.0,20455.0
2026-05-06 16:27:28.661537,830899,1609507112075809,4711986586,0.130784,-0.815936,-0.675392,13.6325,82.29375,-82.0225,-8.240001,-8.68,-99.79201,eccentric,8,5.0,45589.0,47404.0,95188.0,83390.0,43145.0,57728.0,42896.0,46297.0,26941.0,20455.0
2026-05-06 16:27:28.675311,830900,1609507112085016,4711997437,0.193248,-0.728096,-0.587552,24.84125,80.98125,-81.2875,-9.048,-6.496,-101.192,eccentric,8,5.0,45589.0,47404.0,95188.0,83390.0,43145.0,57728.0,42896.0,46297.0,26941.0,20455.0
2026-05-06 16:27:28.684057,830901,1609507112093961,4712006168,0.193248,-0.728096,-0.587552,35.44625,79.63375,-78.5225,-9.048,-6.496,-101.192,eccentric,8,5.0,45589.0,47404.0,95188.0,83390.0,43145.0,57728.0,42896.0,46297.0,26941.0,20455.0
2026-05-06 16:27:28.697844,830902,1609507112108493,4712021093,0.261568,-0.661728,-0.661728,34.97375,79.66875,-76.746254,-10.72,-6.472,-100.73601,eccentric,8,5.0,45589.0,47404.0,95188.0,83390.0,43145.0,57728.0,42896.0,46297.0,26941.0,20455.0
2026-05-06 16:27:28.704065,830903,1609507112117552,4712029799,0.261568,-0.661728,-0.661728,33.6525,79.625,-78.277504,-10.72,-6.472,-100.73601,eccentric,8,5.0,45589.0,47404.0,95188.0,83390.0,43145.0,57728.0,42896.0,46297.0,26941.0,20455.0
2026-05-06 16:27:28.747694,830914,1609507112132480,4712043295,0.339648,-0.630496,-0.657824,27.825,78.3475,-78.933754,-11.888001,-8.0,-99.240005,eccentric,8,5.0,45294.0,47539.0,94317.0,84067.0,42829.0,57904.0,42476.0,46701.0,26801.0,20502.0
2026-05-06 16:27:28.750112,830915,1609507112141866,4712054168,0.402112,-0.716384,-0.6832,27.04625,78.225,-75.39875,-11.888001,-8.0,-97.192,eccentric,8,5.0,45294.0,47539.0,94317.0,84067.0,42829.0,57904.0,42476.0,46701.0,26801.0,20502.0
2026-05-06 16:27:28.752862,830916,1609507112150831,4712062901,0.3904,-0.716384,-0.6832,22.21625,80.85,-72.51125,-13.400001,-10.480001,-97.312004,eccentric,8,5.0,45294.0,47539.0,94317.0,84067.0,42829.0,57904.0,42476.0,46701.0,26801.0,20502.0
2026-05-06 16:27:28.755200,830917,1609507112165341,4712077937,0.441152,-0.687104,-0.745664,10.14125,84.0525,-71.4,-14.880001,-9.856001,-98.536,eccentric,8,5.0,45294.0,47539.0,94317.0,84067.0,42829.0,57904.0,42476.0,46701.0,26801.0,20502.0
2026-05-06 16:27:28.761581,830918,1609507112174270,4712086673,0.441152,-0.687104,-0.745664,5.005,85.79375,-70.105,-14.880001,-9.856001,-98.536,eccentric,8,5.0,45294.0,47539.0,94317.0,84067.0,42829.0,57904.0,42476.0,46701.0,26801.0,20502.0
2026-05-06 16:27:28.775303,830919,1609507112188813,4712099688,0.597312,-0.7808,-0.7808,5.5475,87.63125,-72.79125,-16.04,-7.440001,-98.22401,eccentric,8,5.0,45294.0,47539.0,94317.0,84067.0,42829.0,57904.0,42476.0,46701.0,26801.0,20502.0
2026-05-06 16:27:28.784055,830920,1609507112198210,4712110491,0.597312,-0.7808,-0.7808,-4.515,90.2475,-80.73625,-16.04,-7.440001,-98.22401,eccentric,8,5.0,45294.0,47539.0,94317.0,84067.0,42829.0,57904.0,42476.0,46701.0,26801.0,20502.0
2026-05-06 16:27:28.794061,830921,1609507112207214,4712119199,0.685152,-0.675392,-0.732,-4.83875,89.32875,-87.5175,-17.848001,-9.896001,-96.69601,eccentric,8,5.0,45294.0,47539.0,94317.0,84067.0,42829.0,57904.0,42476.0,46701.0,26801.0,20502.0
2026-05-06 16:27:28.818871,830922,1609507112221743,4712134091,0.685152,-0.675392,-0.732,0.77,92.89,-90.685,-17.848001,-9.896001,-96.69601,eccentric,8,5.0,45294.0,47539.0,94317.0,84067.0,42829.0,57904.0,42476.0,46701.0,26801.0,20502.0
2026-05-06 16:27:28.879026,830933,1609507112231016,4712142826,0.632448,-0.65392,-0.550464,-7.56,98.60375,-91.105,-18.776001,-9.016001,-98.4,eccentric,8,5.0,45557.0,49447.0,94041.0,87220.0,42992.0,59891.0,42395.0,48433.0,26981.0,21342.0
2026-05-06 16:27:28.881445,830934,1609507112245602,4712157830,0.488,-0.540704,-0.4392,-29.63625,103.94125,-86.52875,-20.568,-10.072001,-96.592,eccentric,8,5.0,45557.0,49447.0,94041.0,87220.0,42992.0,59891.0,42395.0,48433.0,26981.0,21342.0
2026-05-06 16:27:28.883735,830935,1609507112254557,4712166508,0.488,-0.540704,-0.4392,-44.73875,107.02125,-85.18125,-20.568,-10.072001,-96.592,eccentric,8,5.0,45557.0,49447.0,94041.0,87220.0,42992.0,59891.0,42395.0,48433.0,26981.0,21342.0
2026-05-06 16:27:28.886314,830936,1609507112269101,4712181423,0.542656,-0.681248,-0.470432,-54.92375,108.99,-90.23,-21.736002,-11.744,-95.408005,eccentric,8,5.0,45557.0,49447.0,94041.0,87220.0,42992.0,59891.0,42395.0,48433.0,26981.0,21342.0
2026-05-06 16:27:28.888879,830937,1609507112278164,4712190254,0.542656,-0.681248,-0.470432,-48.9125,110.652504,-90.71125,-21.736002,-11.744,-95.408005,eccentric,8,5.0,45557.0,49447.0,94041.0,87220.0,42992.0,59891.0,42395.0,48433.0,26981.0,21342.0
2026-05-06 16:27:28.891243,830938,1609507112287118,4712198998,0.474336,-0.71248,-0.525088,-43.4525,113.95125,-85.86375,-23.04,-16.04,-92.11201,eccentric,8,5.0,45557.0,49447.0,94041.0,87220.0,42992.0,59891.0,42395.0,48433.0,26981.0,21342.0
2026-05-06 16:27:28.898934,830939,1609507112301794,4712213977,0.474336,-0.71248,-0.525088,-32.41875,118.04625,-77.945,-23.04,-16.04,-92.11201,eccentric,8,5.0,45557.0,49447.0,94041.0,87220.0,42992.0,59891.0,42395.0,48433.0,26981.0,21342.0
2026-05-06 16:27:28.899436,830940,1609507112310839,4712222716,0.5368,-0.718336,-0.433344,-21.35,124.145004,-71.5925,-25.000002,-17.168001,-92.104004,eccentric,8,5.0,45557.0,49447.0,94041.0,87220.0,42992.0,59891.0,42395.0,48433.0,26981.0,21342.0
2026-05-06 16:27:28.912709,830941,1609507112325334,4712237788,0.466528,-0.343552,-0.095648,-18.55875,130.0775,-69.39625,-25.920002,-14.504001,-92.504005,eccentric,8,5.0,45557.0,49447.0,94041.0,87220.0,42992.0,59891.0,42395.0,48433.0,26981.0,21342.0
2026-05-06 16:27:28.943895,830952,1609507112334787,4712246699,0.466528,-0.343552,-0.095648,-24.272501,128.2925,-70.525,-25.920002,-14.504001,-92.504005,eccentric,8,5.0,41909.0,48886.0,93149.0,87831.0,39529.0,59258.0,41766.0,48772.0,25112.0,21104.0
2026-05-06 16:27:28.949001,830953,1609507112343820,4712255543,0.20496,-0.378688,-0.247904,-29.09375,120.0675,-68.5825,-26.480001,-17.712,-89.504005,eccentric,8,5.0,41909.0,48886.0,93149.0,87831.0,39529.0,59258.0,41766.0,48772.0,25112.0,21104.0
2026-05-06 16:27:28.951536,830954,1609507112358371,4712270536,0.20496,-0.378688,-0.247904,-37.555,113.09375,-64.225,-26.480001,-17.712,-89.504005,eccentric,8,5.0,41909.0,48886.0,93149.0,87831.0,39529.0,59258.0,41766.0,48772.0,25112.0,21104.0
2026-05-06 16:27:28.954082,830955,1609507112367368,4712279276,0.50752,-0.54656,-0.413824,-51.79125,110.04875,-57.05,-28.008001,-18.432001,-88.384,eccentric,8,5.0,41909.0,48886.0,93149.0,87831.0,39529.0,59258.0,41766.0,48772.0,25112.0,21104.0
2026-05-06 16:27:28.987606,830956,1609507112381880,4712294219,0.50752,-0.54656,-0.413824,-55.326252,107.77375,-46.41,-28.008001,-18.432001,-88.384,eccentric,8,5.0,41909.0,48886.0,93149.0,87831.0,39529.0,59258.0,41766.0,48772.0,25112.0,21104.0
2026-05-06 16:27:28.993393,830957,1609507112390815,4712302934,0.767136,-0.749568,-0.345504,-47.48625,112.74375,-44.73,-29.352001,-18.800001,-87.616005,eccentric,8,5.0,41909.0,48886.0,93149.0,87831.0,39529.0,59258.0,41766.0,48772.0,25112.0,21104.0
2026-05-06 16:27:28.993903,830958,1609507112399804,4712311663,0.767136,-0.749568,-0.345504,-47.705,120.7325,-43.82,-29.352001,-18.800001,-87.616005,eccentric,8,5.0,41909.0,48886.0,93149.0,87831.0,39529.0,59258.0,41766.0,48772.0,25112.0,21104.0
2026-05-06 16:27:29.001741,830959,1609507112414298,4712326596,0.626592,-0.232288,-0.154208,-44.5375,121.5725,-41.99125,-29.856,-19.192001,-87.272,eccentric,8,5.0,41909.0,48886.0,93149.0,87831.0,39529.0,59258.0,41766.0,48772.0,25112.0,21104.0
2026-05-06 16:27:29.010112,830960,1609507112423220,4712335319,0.626592,-0.232288,-0.154208,-32.43625,110.11,-54.18,-29.856,-19.192001,-87.272,eccentric,8,5.0,41909.0,48886.0,93149.0,87831.0,39529.0,59258.0,41766.0,48772.0,25112.0,21104.0
2026-05-06 16:27:29.084075,830971,1609507112437912,4712350483,0.046848,-0.26352,-0.095648,-27.0375,94.64875,-57.00625,-30.608002,-19.352001,-87.616005,eccentric,8,5.0,40217.0,48629.0,91568.0,86760.0,37898.0,59104.0,40932.0,48185.0,24252.0,21009.0
2026-05-06 16:27:29.086616,830972,1609507112446841,4712359139,0.607072,-0.607072,-0.42944,-31.185,80.5175,-39.01625,-31.080002,-19.856,-85.328,eccentric,8,5.0,40217.0,48629.0,91568.0,86760.0,37898.0,59104.0,40932.0,48185.0,24252.0,21009.0
2026-05-06 16:27:29.091247,830973,1609507112461356,4712372133,0.607072,-0.607072,-0.42944,-36.1725,73.9375,-21.07875,-31.080002,-19.856,-85.328,eccentric,8,5.0,40217.0,48629.0,91568.0,86760.0,37898.0,59104.0,40932.0,48185.0,24252.0,21009.0
2026-05-06 16:27:29.091370,830974,1609507112470732,4712382972,1.401536,-0.581696,-0.261568,-29.505001,78.9075,-20.41375,-31.776001,-20.664001,-84.336006,eccentric,8,5.0,40217.0,48629.0,91568.0,86760.0,37898.0,59104.0,40932.0,48185.0,24252.0,21009.0
2026-05-06 16:27:29.093919,830975,1609507112479770,4712391699,1.401536,-0.581696,-0.261568,-21.72625,88.725,-32.5675,-31.776001,-20.664001,-84.336006,eccentric,8,5.0,40217.0,48629.0,91568.0,86760.0,37898.0,59104.0,40932.0,48185.0,24252.0,21009.0
2026-05-06 16:27:29.099654,830976,1609507112494280,4712406606,0.269376,-0.22448,0.033184,3.7275,84.79625,-50.18125,-32.112003,-21.408,-83.536,eccentric,8,5.0,40217.0,48629.0,91568.0,86760.0,37898.0,59104.0,40932.0,48185.0,24252.0,21009.0
2026-05-06 16:27:29.103026,830977,1609507112503325,4712415382,0.269376,-0.22448,0.033184,8.715,69.4225,-56.88375,-32.112003,-21.408,-83.536,eccentric,8,5.0,40217.0,48629.0,91568.0,86760.0,37898.0,59104.0,40932.0,48185.0,24252.0,21009.0
2026-05-06 16:27:29.104929,830978,1609507112517797,4712430526,0.244,-0.460672,-0.179584,-0.5075,50.505,-39.64625,-32.408,-21.088001,-82.43201,eccentric,8,5.0,40217.0,48629.0,91568.0,86760.0,37898.0,59104.0,40932.0,48185.0,24252.0,21009.0
2026-05-06 16:27:29.115184,830979,1609507112526695,4712439266,1.469856,-0.505568,-0.11712,-11.7425,43.54875,-12.64375,-32.88,-21.192001,-82.664,eccentric,8,5.0,40217.0,48629.0,91568.0,86760.0,37898.0,59104.0,40932.0,48185.0,24252.0,21009.0
2026-05-06 16:27:29.142831,830990,1609507112536334,4712448060,1.469856,-0.505568,-0.11712,-22.61875,51.1525,-4.24375,-32.88,-21.192001,-82.664,eccentric,8,5.0,39038.0,47168.0,91012.0,85033.0,36822.0,57653.0,40671.0,47390.0,23659.0,20441.0
2026-05-06 16:27:29.145304,830991,1609507112550957,4712463167,0.466528,-0.25376,-0.081984,-5.52125,54.11875,-23.65125,-33.24,-23.392,-80.880005,eccentric,8,5.0,39038.0,47168.0,91012.0,85033.0,36822.0,57653.0,40671.0,47390.0,23659.0,20441.0
2026-05-06 16:27:29.147855,830992,1609507112559983,4712471909,0.466528,-0.25376,-0.081984,6.41375,48.9125,-45.05375,-33.24,-23.392,-80.880005,eccentric,8,5.0,39038.0,47168.0,91012.0,85033.0,36822.0,57653.0,40671.0,47390.0,23659.0,20441.0
2026-05-06 16:27:29.161568,830993,1609507112574485,4712486890,0.423584,-0.538752,-0.089792,-3.17625,39.2525,-41.3525,-33.408,-22.192001,-81.920006,eccentric,8,5.0,39038.0,47168.0,91012.0,85033.0,36822.0,57653.0,40671.0,47390.0,23659.0,20441.0
2026-05-06 16:27:29.186370,830994,1609507112583425,4712495606,0.423584,-0.538752,-0.089792,-16.38,29.95125,-15.12875,-33.408,-22.192001,-81.920006,eccentric,8,5.0,39038.0,47168.0,91012.0,85033.0,36822.0,57653.0,40671.0,47390.0,23659.0,20441.0
2026-05-06 16:27:29.211380,830995,1609507112592347,4712504465,1.1712,-0.548512,-0.144448,-18.40125,26.5475,3.24625,-33.656002,-22.224,-81.552,eccentric,8,5.0,39038.0,47168.0,91012.0,85033.0,36822.0,57653.0,40671.0,47390.0,23659.0,20441.0
2026-05-06 16:27:29.236594,830996,1609507112606797,4712519370,0.782752,-0.105408,-0.072224,-6.37,28.27125,-2.96625,-33.944,-22.080002,-81.04,eccentric,8,5.0,39038.0,47168.0,91012.0,85033.0,36822.0,57653.0,40671.0,47390.0,23659.0,20441.0
2026-05-06 16:27:29.241593,830997,1609507112615753,4712528191,0.782752,-0.105408,-0.072224,11.27875,28.97125,-15.72375,-33.944,-22.080002,-81.04,eccentric,8,5.0,39038.0,47168.0,91012.0,85033.0,36822.0,57653.0,40671.0,47390.0,23659.0,20441.0
2026-05-06 16:27:29.244159,830998,1609507112630325,4712541079,0.548512,-0.480192,-0.091744,10.24625,26.50375,-21.77,-33.568,-22.536001,-81.144005,eccentric,8,5.0,39038.0,47168.0,91012.0,85033.0,36822.0,57653.0,40671.0,47390.0,23659.0,20441.0
2026-05-06 16:27:29.274002,831009,1609507112639598,4712550388,0.548512,-0.480192,-0.091744,-8.07625,23.1875,-20.055,-33.568,-22.536001,-81.144005,eccentric,8,5.0,38672.0,45265.0,91250.0,82627.0,36521.0,55447.0,40719.0,46046.0,23628.0,19601.0
2026-05-06 16:27:29.279341,831010,1609507112648846,4712561212,1.081408,-0.718336,-0.12688,-12.2325,18.2,-8.88125,-33.912003,-22.512001,-80.744,eccentric,8,5.0,38672.0,45265.0,91250.0,82627.0,36521.0,55447.0,40719.0,46046.0,23628.0,19601.0
2026-05-06 16:27:29.279745,831011,1609507112663374,4712574162,1.081408,-0.718336,-0.12688,-3.91125,19.3025,-1.7325,-33.912003,-22.512001,-80.744,eccentric,8,5.0,38672.0,45265.0,91250.0,82627.0,36521.0,55447.0,40719.0,46046.0,23628.0,19601.0
2026-05-06 16:27:29.281355,831012,1609507112672627,4712585027,0.870592,-0.044896,-0.027328,12.775,22.05875,-7.56875,-34.0,-24.856,-79.192,eccentric,8,5.0,38672.0,45265.0,91250.0,82627.0,36521.0,55447.0,40719.0,46046.0,23628.0,19601.0
2026-05-06 16:27:29.285598,831013,1609507112687099,4712597972,0.601216,-0.353312,-0.054656,25.47125,19.32,-18.76,-33.928,-24.568,-77.944,eccentric,8,5.0,38672.0,45265.0,91250.0,82627.0,36521.0,55447.0,40719.0,46046.0,23628.0,19601.0
2026-05-06 16:27:29.289286,831014,1609507112696464,4712608814,0.601216,-0.353312,-0.054656,13.48375,15.2775,-24.3425,-33.928,-24.568,-77.944,eccentric,8,5.0,38672.0,45265.0,91250.0,82627.0,36521.0,55447.0,40719.0,46046.0,23628.0,19601.0
2026-05-06 16:27:29.292532,831015,1609507112705430,4712617595,0.601216,-0.353312,-0.054656,-8.47875,13.9125,-16.89625,-33.928,-24.568,-77.944,eccentric,8,5.0,38672.0,45265.0,91250.0,82627.0,36521.0,55447.0,40719.0,46046.0,23628.0,19601.0
2026-05-06 16:27:29.307538,831016,1609507112719955,4712632568,0.9272,-0.774944,-0.099552,-11.22625,12.3375,-7.105,-33.800003,-23.944,-79.328,eccentric,8,5.0,38672.0,45265.0,91250.0,82627.0,36521.0,55447.0,40719.0,46046.0,23628.0,19601.0
2026-05-06 16:27:29.316489,831017,1609507112728916,4712641313,0.825696,-0.257664,-0.074176,6.01125,11.05125,-5.5125,-34.152,-22.920002,-80.648,eccentric,8,5.0,38672.0,45265.0,91250.0,82627.0,36521.0,55447.0,40719.0,46046.0,23628.0,19601.0
2026-05-06 16:27:29.350020,831028,1609507112743483,4712654266,0.825696,-0.257664,-0.074176,24.3075,7.72625,-8.3475,-34.152,-22.920002,-80.648,eccentric,8,5.0,37255.0,43180.0,90044.0,81146.0,35321.0,53266.0,40139.0,45282.0,23038.0,18740.0
2026-05-06 16:27:29.352539,831029,1609507112752713,4712665061,0.71248,-0.339648,-0.005856,23.37125,5.81875,-11.43625,-33.792,-24.096,-79.448006,eccentric,8,5.0,37255.0,43180.0,90044.0,81146.0,35321.0,53266.0,40139.0,45282.0,23038.0,18740.0
2026-05-06 16:27:29.355050,831030,1609507112767235,4712678018,0.835456,-0.62464,-0.076128,8.82,4.94375,-9.77375,-33.896,-24.408,-80.01601,eccentric,8,5.0,37255.0,43180.0,90044.0,81146.0,35321.0,53266.0,40139.0,45282.0,23038.0,18740.0
2026-05-06 16:27:29.364562,831031,1609507112776460,4712688816,0.835456,-0.62464,-0.076128,1.32125,3.64875,-6.67625,-33.896,-24.408,-80.01601,eccentric,8,5.0,37255.0,43180.0,90044.0,81146.0,35321.0,53266.0,40139.0,45282.0,23038.0,18740.0
2026-05-06 16:27:29.372511,831032,1609507112785495,4712697522,0.835456,-0.62464,-0.076128,8.855001,2.03875,-4.12125,-33.896,-24.408,-80.01601,eccentric,8,5.0,37255.0,43180.0,90044.0,81146.0,35321.0,53266.0,40139.0,45282.0,23038.0,18740.0
2026-05-06 16:27:29.388864,831033,1609507112800029,4712712573,0.911584,-0.329888,-0.00976,19.34625,0.95375,-1.295,-33.904003,-22.368002,-80.22401,eccentric,8,5.0,37255.0,43180.0,90044.0,81146.0,35321.0,53266.0,40139.0,45282.0,23038.0,18740.0
2026-05-06 16:27:29.395180,831034,1609507112808951,4712721284,0.767136,-0.310368,0.015616,19.9325,0.5425,-2.9575,-33.464,-22.144001,-80.856,eccentric,8,5.0,37255.0,43180.0,90044.0,81146.0,35321.0,53266.0,40139.0,45282.0,23038.0,18740.0
2026-05-06 16:27:29.428984,831035,1609507112823456,4712736186,0.767136,-0.310368,0.015616,11.4625,0.4725,-6.58875,-33.464,-22.144001,-80.856,eccentric,8,5.0,37255.0,43180.0,90044.0,81146.0,35321.0,53266.0,40139.0,45282.0,23038.0,18740.0
2026-05-06 16:27:29.458710,831046,1609507112832360,4712745157,0.856928,-0.493856,-0.040992,5.31125,-0.735,-6.95625,-33.52,-22.320002,-80.464005,eccentric,8,5.0,36588.0,41987.0,89444.0,79432.0,34723.0,52021.0,39834.0,44388.0,22718.0,18225.0
2026-05-06 16:27:29.462812,831047,1609507112841451,4712753873,0.856928,-0.493856,-0.040992,4.62,-2.44125,-4.59375,-33.52,-22.320002,-80.464005,eccentric,8,5.0,36588.0,41987.0,89444.0,79432.0,34723.0,52021.0,39834.0,44388.0,22718.0,18225.0
2026-05-06 16:27:29.463802,831048,1609507112856023,4712766875,0.84912,-0.388448,-0.046848,8.75,-3.8675,-2.40625,-33.480003,-22.624,-80.75201,eccentric,8,5.0,36588.0,41987.0,89444.0,79432.0,34723.0,52021.0,39834.0,44388.0,22718.0,18225.0
2026-05-06 16:27:29.467310,831049,1609507112865510,4712777705,0.84912,-0.388448,-0.046848,10.08,-4.7775,-1.575,-33.480003,-22.624,-80.75201,eccentric,8,5.0,36588.0,41987.0,89444.0,79432.0,34723.0,52021.0,39834.0,44388.0,22718.0,18225.0
2026-05-06 16:27:29.471393,831050,1609507112880046,4712792707,0.81984,-0.357216,0.001952,4.01625,-3.99,-1.02375,-33.696003,-23.344002,-82.048004,eccentric,8,5.0,36588.0,41987.0,89444.0,79432.0,34723.0,52021.0,39834.0,44388.0,22718.0,18225.0
2026-05-06 16:27:29.475209,831051,1609507112888999,4712801483,0.784704,-0.415776,-0.025376,-0.595,-4.3925,-1.645,-33.544003,-23.352001,-81.656006,eccentric,8,5.0,36588.0,41987.0,89444.0,79432.0,34723.0,52021.0,39834.0,44388.0,22718.0,18225.0
2026-05-06 16:27:29.483914,831052,1609507112897952,4712810234,0.784704,-0.415776,-0.025376,-1.84625,-5.32,-1.63625,-33.544003,-23.352001,-81.656006,eccentric,8,5.0,36588.0,41987.0,89444.0,79432.0,34723.0,52021.0,39834.0,44388.0,22718.0,18225.0
2026-05-06 16:27:29.502767,831053,1609507112912458,4712825188,0.843264,-0.376736,-0.060512,-0.23625,-6.71125,0.60375,-33.52,-21.968,-80.744,eccentric,8,5.0,36588.0,41987.0,89444.0,79432.0,34723.0,52021.0,39834.0,44388.0,22718.0,18225.0
2026-05-06 16:27:29.508802,831054,1609507112921431,4712833887,0.843264,-0.376736,-0.060512,1.5225,-6.8425,1.95125,-33.52,-21.968,-80.744,eccentric,8,5.0,36588.0,41987.0,89444.0,79432.0,34723.0,52021.0,39834.0,44388.0,22718.0,18225.0
2026-05-06 16:27:29.605195,831065,1609507112936123,4712846905,0.860832,-0.36112,-0.011712,1.2775,-5.95875,1.56625,-33.512,-21.784,-81.232,eccentric,8,5.0,36466.0,41456.0,89107.0,78416.0,34590.0,51447.0,39710.0,43857.0,22652.0,17986.0
2026-05-06 16:27:29.607755,831066,1609507112945541,4712857710,0.860832,-0.36112,-0.011712,-0.67375,-4.55875,0.7525,-33.512,-21.784,-81.232,eccentric,8,5.0,36466.0,41456.0,89107.0,78416.0,34590.0,51447.0,39710.0,43857.0,22652.0,17986.0
2026-05-06 16:27:29.610240,831067,1609507112954535,4712866511,0.806176,-0.40016,-0.060512,-2.275,-4.13,-0.00875,-33.576,-21.960001,-81.816,eccentric,8,5.0,36466.0,41456.0,89107.0,78416.0,34590.0,51447.0,39710.0,43857.0,22652.0,17986.0
2026-05-06 16:27:29.612793,831068,1609507112969046,4712881444,0.837408,-0.40016,-0.03904,-2.695,-4.17375,0.245,-33.552002,-21.856,-80.58401,eccentric,8,5.0,36466.0,41456.0,89107.0,78416.0,34590.0,51447.0,39710.0,43857.0,22652.0,17986.0
2026-05-06 16:27:29.617834,831069,1609507112977986,4712890169,0.837408,-0.40016,-0.03904,-2.625,-4.75125,1.79375,-33.552002,-21.856,-80.58401,eccentric,8,5.0,36466.0,41456.0,89107.0,78416.0,34590.0,51447.0,39710.0,43857.0,22652.0,17986.0
2026-05-06 16:27:29.620293,831070,1609507112992473,4712905125,0.860832,-0.394304,-0.070272,-1.6975,-4.5675,2.45875,-33.688,-21.744001,-81.08,eccentric,8,5.0,36466.0,41456.0,89107.0,78416.0,34590.0,51447.0,39710.0,43857.0,22652.0,17986.0
