pc_time,serial_num,sensor_ts,host_ts,ax,ay,az,gx,gy,gz,mx,my,mz,phase,rpe,weight_kg,ppg_a,ppg_b,ppg_c,ppg_d,ppg_e,ppg_f,ppg_g,ppg_h,ppg_i,ppg_j
2026-05-06 15:49:34.776399,403003,1609504838187172,2438098919,0.815936,-0.076128,0.25376,-4.3925,-0.9275,-4.375,-40.712,-22.000002,-77.704,inter_set_rest,3,5.0,35623.0,45130.0,74733.0,104849.0,32489.0,54089.0,31468.0,58738.0,21375.0,18861.0
2026-05-06 15:49:34.785872,403004,1609504838201838,2438113995,0.870592,-0.062464,0.216672,-5.15375,-1.9775,-2.63375,-40.696003,-22.024,-77.592,inter_set_rest,3,5.0,35623.0,45130.0,74733.0,104849.0,32489.0,54089.0,31468.0,58738.0,21375.0,18861.0
2026-05-06 15:49:34.788640,403005,1609504838210792,2438122721,0.870592,-0.062464,0.216672,0.48125,-4.2525,-2.75625,-40.696003,-22.024,-77.592,inter_set_rest,3,5.0,35623.0,45130.0,74733.0,104849.0,32489.0,54089.0,31468.0,58738.0,21375.0,18861.0
2026-05-06 15:49:34.788729,403006,1609504838225297,2438137712,0.872544,-0.027328,0.208864,7.77875,-6.15125,-3.03625,-40.504,-21.744001,-79.26401,inter_set_rest,3,5.0,35623.0,45130.0,74733.0,104849.0,32489.0,54089.0,31468.0,58738.0,21375.0,18861.0
2026-05-06 15:49:34.789747,403007,1609504838234219,2438146474,0.872544,-0.027328,0.208864,12.495,-7.62125,-1.925,-40.504,-21.744001,-79.26401,inter_set_rest,3,5.0,35623.0,45130.0,74733.0,104849.0,32489.0,54089.0,31468.0,58738.0,21375.0,18861.0
2026-05-06 15:49:34.792592,403008,1609504838243185,2438155176,0.856928,-0.013664,0.269376,11.75125,-8.61,-1.56625,-40.456,-20.168001,-76.656006,inter_set_rest,3,5.0,35623.0,45130.0,74733.0,104849.0,32489.0,54089.0,31468.0,58738.0,21375.0,18861.0
2026-05-06 15:49:34.794867,403009,1609504838257719,2438170174,0.903776,-0.083936,0.249856,7.69125,-9.00375,0.11375,-40.568,-20.008001,-79.4,inter_set_rest,3,5.0,35623.0,45130.0,74733.0,104849.0,32489.0,54089.0,31468.0,58738.0,21375.0,18861.0
2026-05-06 15:49:34.797633,403010,1609504838266645,2438178887,0.903776,-0.083936,0.249856,3.3775,-8.9775,1.25125,-40.568,-20.008001,-79.4,inter_set_rest,3,5.0,35623.0,45130.0,74733.0,104849.0,32489.0,54089.0,31468.0,58738.0,21375.0,18861.0
2026-05-06 15:49:34.803803,403011,1609504838281142,2438193797,0.8784,-0.013664,0.240096,0.2625,-8.25125,1.6275,-40.304,-19.800001,-79.672005,inter_set_rest,3,5.0,35623.0,45130.0,74733.0,104849.0,32489.0,54089.0,31468.0,58738.0,21375.0,18861.0
2026-05-06 15:49:34.834865,403022,1609504838290158,2438202563,0.8784,-0.013664,0.240096,4.71625,-8.2075,3.12375,-40.304,-19.800001,-79.672005,inter_set_rest,3,5.0,35730.0,45221.0,74559.0,104667.0,32540.0,54139.0,31403.0,58637.0,21362.0,18858.0
2026-05-06 15:49:34.837274,403023,1609504838304897,2438217595,0.872544,0.025376,0.191296,10.98125,-9.5725,3.38625,-40.280003,-19.624,-79.560005,inter_set_rest,3,5.0,35730.0,45221.0,74559.0,104667.0,32540.0,54139.0,31403.0,58637.0,21362.0,18858.0
2026-05-06 15:49:34.839968,403024,1609504838313912,2438226347,0.872544,0.025376,0.191296,13.58,-10.42125,2.275,-40.280003,-19.624,-79.560005,inter_set_rest,3,5.0,35730.0,45221.0,74559.0,104667.0,32540.0,54139.0,31403.0,58637.0,21362.0,18858.0
2026-05-06 15:49:34.842428,403025,1609504838322937,2438235132,0.874496,0.003904,0.245952,11.8825,-10.92,1.225,-40.352,-21.288,-78.632,inter_set_rest,3,5.0,35730.0,45221.0,74559.0,104667.0,32540.0,54139.0,31403.0,58637.0,21362.0,18858.0
2026-05-06 15:49:34.844809,403026,1609504838337581,2438250137,0.866688,-0.03904,0.220576,8.1725,-10.71,0.67375,-40.480003,-21.016,-76.688,inter_set_rest,3,5.0,35730.0,45221.0,74559.0,104667.0,32540.0,54139.0,31403.0,58637.0,21362.0,18858.0
2026-05-06 15:49:34.847347,403027,1609504838346656,2438258858,0.866688,-0.03904,0.220576,3.71,-9.5025,0.63875,-40.480003,-21.016,-76.688,inter_set_rest,3,5.0,35730.0,45221.0,74559.0,104667.0,32540.0,54139.0,31403.0,58637.0,21362.0,18858.0
2026-05-06 15:49:34.861594,403028,1609504838361241,2438273799,0.874496,-0.007808,0.228384,0.5775,-8.44375,1.44375,-40.216003,-20.92,-78.52801,inter_set_rest,3,5.0,35730.0,45221.0,74559.0,104667.0,32540.0,54139.0,31403.0,58637.0,21362.0,18858.0
2026-05-06 15:49:34.868883,403029,1609504838370167,2438282506,0.874496,-0.007808,0.228384,1.81125,-8.155,3.00125,-40.216003,-20.92,-78.52801,inter_set_rest,3,5.0,35730.0,45221.0,74559.0,104667.0,32540.0,54139.0,31403.0,58637.0,21362.0,18858.0
2026-05-06 15:49:34.875073,403030,1609504838379094,2438291298,0.841312,-0.005856,0.17568,5.76625,-8.32125,3.1675,-40.144,-19.056002,-80.192,inter_set_rest,3,5.0,35730.0,45221.0,74559.0,104667.0,32540.0,54139.0,31403.0,58637.0,21362.0,18858.0
2026-05-06 15:49:34.908864,403041,1609504838394037,2438306315,0.841312,-0.005856,0.17568,7.7175,-9.4325,4.0075,-40.144,-19.056002,-80.192,inter_set_rest,3,5.0,35991.0,45573.0,74706.0,104503.0,32771.0,54410.0,31473.0,58592.0,21478.0,18962.0
2026-05-06 15:49:34.911518,403042,1609504838403034,2438315117,0.831552,-0.015616,0.177632,7.7875,-10.21125,5.7575,-40.048,-19.008001,-80.392006,inter_set_rest,3,5.0,35991.0,45573.0,74706.0,104503.0,32771.0,54410.0,31473.0,58592.0,21478.0,18962.0
2026-05-06 15:49:34.913776,403043,1609504838417648,2438330099,0.823744,-0.0488,0.138592,5.22375,-11.3925,8.60125,-39.928,-18.808,-80.504005,inter_set_rest,3,5.0,35991.0,45573.0,74706.0,104503.0,32771.0,54410.0,31473.0,58592.0,21478.0,18962.0
2026-05-06 15:49:34.922519,403044,1609504838426803,2438338875,0.823744,-0.0488,0.138592,2.30125,-12.215,11.6725,-39.928,-18.808,-80.504005,inter_set_rest,3,5.0,35991.0,45573.0,74706.0,104503.0,32771.0,54410.0,31473.0,58592.0,21478.0,18962.0
2026-05-06 15:49:34.931274,403045,1609504838435716,2438347656,0.823744,-0.0488,0.138592,-0.7175,-12.635,14.25375,-39.928,-18.808,-80.504005,inter_set_rest,3,5.0,35991.0,45573.0,74706.0,104503.0,32771.0,54410.0,31473.0,58592.0,21478.0,18962.0
2026-05-06 15:49:34.965268,403046,1609504838450347,2438362555,0.823744,-0.060512,0.18544,-4.82125,-12.18,15.72375,-40.096,-18.784,-80.90401,inter_set_rest,3,5.0,35991.0,45573.0,74706.0,104503.0,32771.0,54410.0,31473.0,58592.0,21478.0,18962.0
2026-05-06 15:49:34.967787,403047,1609504838459423,2438371268,0.77104,-0.025376,0.17568,-3.00125,-12.81875,18.2525,-39.976,-18.264,-80.936005,inter_set_rest,3,5.0,35991.0,45573.0,74706.0,104503.0,32771.0,54410.0,31473.0,58592.0,21478.0,18962.0
2026-05-06 15:49:34.970259,403048,1609504838473932,2438386159,0.77104,-0.025376,0.17568,0.11375,-14.4025,20.7025,-39.976,-18.264,-80.936005,inter_set_rest,3,5.0,35991.0,45573.0,74706.0,104503.0,32771.0,54410.0,31473.0,58592.0,21478.0,18962.0
2026-05-06 15:49:34.981405,403049,1609504838482904,2438394921,0.796416,-0.074176,0.119072,0.70875,-15.25125,23.14375,-40.056004,-19.504002,-79.656006,inter_set_rest,3,5.0,35991.0,45573.0,74706.0,104503.0,32771.0,54410.0,31473.0,58592.0,21478.0,18962.0
2026-05-06 15:49:35.008886,403060,1609504838491939,2438403710,0.796416,-0.074176,0.119072,-1.8025,-15.82,26.5125,-40.056004,-19.504002,-79.656006,inter_set_rest,3,5.0,36182.0,45794.0,74852.0,104108.0,32955.0,54694.0,31545.0,58461.0,21576.0,19084.0
2026-05-06 15:49:35.011499,403061,1609504838506526,2438418675,0.772992,-0.089792,0.115168,-4.69,-15.96,30.31875,-40.248,-18.68,-80.08,inter_set_rest,3,5.0,36182.0,45794.0,74852.0,104108.0,32955.0,54694.0,31545.0,58461.0,21576.0,19084.0
2026-05-06 15:49:35.013861,403062,1609504838515476,2438427381,0.772992,-0.089792,0.115168,-7.63,-16.4325,34.685,-40.248,-18.68,-80.08,inter_set_rest,3,5.0,36182.0,45794.0,74852.0,104108.0,32955.0,54694.0,31545.0,58461.0,21576.0,19084.0
2026-05-06 15:49:35.026515,403063,1609504838530167,2438442300,0.788608,-0.109312,0.1464,-11.13875,-17.5875,36.98625,-40.072002,-18.152,-78.504005,inter_set_rest,3,5.0,36182.0,45794.0,74852.0,104108.0,32955.0,54694.0,31545.0,58461.0,21576.0,19084.0
2026-05-06 15:49:35.035258,403064,1609504838539165,2438451041,0.747616,-0.0976,0.124928,-13.0375,-19.0575,38.7975,-40.2,-18.024,-82.712006,inter_set_rest,3,5.0,36182.0,45794.0,74852.0,104108.0,32955.0,54694.0,31545.0,58461.0,21576.0,19084.0
2026-05-06 15:49:35.068877,403065,1609504838553709,2438466004,0.747616,-0.0976,0.124928,-13.09,-20.6675,41.09,-40.2,-18.024,-82.712006,inter_set_rest,3,5.0,36182.0,45794.0,74852.0,104108.0,32955.0,54694.0,31545.0,58461.0,21576.0,19084.0
2026-05-06 15:49:35.071414,403066,1609504838562635,2438474688,0.71248,-0.124928,0.083936,-9.695,-23.397501,44.7475,-40.024002,-15.344001,-82.096,inter_set_rest,3,5.0,36182.0,45794.0,74852.0,104108.0,32955.0,54694.0,31545.0,58461.0,21576.0,19084.0
2026-05-06 15:49:35.096470,403067,1609504838571616,2438483395,0.71248,-0.124928,0.083936,-9.03875,-26.635,49.3325,-40.024002,-15.344001,-82.096,inter_set_rest,3,5.0,36182.0,45794.0,74852.0,104108.0,32955.0,54694.0,31545.0,58461.0,21576.0,19084.0
2026-05-06 15:49:35.182539,403078,1609504838586315,2438498353,0.745664,-0.158112,0.005856,-10.0975,-30.14375,55.755,-40.248,-14.592001,-82.552,inter_set_rest,3,5.0,36254.0,45862.0,74886.0,103019.0,32946.0,54840.0,31575.0,57892.0,21554.0,19099.0
2026-05-06 15:49:35.188867,403079,1609504838595350,2438507119,0.745664,-0.158112,0.005856,-14.79625,-31.36875,58.9575,-40.248,-14.592001,-82.552,inter_set_rest,3,5.0,36254.0,45862.0,74886.0,103019.0,32946.0,54840.0,31575.0,57892.0,21554.0,19099.0
2026-05-06 15:49:35.191459,403080,1609504838609924,2438522059,0.802272,-0.16592,0.08784,-24.928751,-29.2775,56.9975,-40.104,-14.352,-82.80801,inter_set_rest,3,5.0,36254.0,45862.0,74886.0,103019.0,32946.0,54840.0,31575.0,57892.0,21554.0,19099.0
2026-05-06 15:49:35.193937,403081,1609504838618863,2438530761,0.66368,-0.12688,0.101504,-38.8675,-27.317501,54.215,-40.104,-13.568001,-85.79201,inter_set_rest,3,5.0,36254.0,45862.0,74886.0,103019.0,32946.0,54840.0,31575.0,57892.0,21554.0,19099.0
2026-05-06 15:49:35.196321,403082,1609504838627965,2438539503,0.66368,-0.12688,0.101504,-45.36,-26.74,55.69375,-39.808002,-13.568001,-85.79201,inter_set_rest,3,5.0,36254.0,45862.0,74886.0,103019.0,32946.0,54840.0,31575.0,57892.0,21554.0,19099.0
2026-05-06 15:49:35.198694,403083,1609504838642500,2438554440,0.62464,-0.206912,0.0976,-46.20875,-29.3475,59.535,-39.648003,-12.216001,-83.37601,inter_set_rest,3,5.0,36254.0,45862.0,74886.0,103019.0,32946.0,54840.0,31575.0,57892.0,21554.0,19099.0
2026-05-06 15:49:35.203734,403084,1609504838651440,2438563259,0.62464,-0.206912,0.0976,-43.98625,-32.8825,63.77875,-39.648003,-12.216001,-83.37601,inter_set_rest,3,5.0,36254.0,45862.0,74886.0,103019.0,32946.0,54840.0,31575.0,57892.0,21554.0,19099.0
2026-05-06 15:49:35.209928,403085,1609504838665973,2438578179,0.661728,-0.288896,0.01952,-36.505,-35.595,67.76,-39.728,-11.984,-84.256004,inter_set_rest,3,5.0,36254.0,45862.0,74886.0,103019.0,32946.0,54840.0,31575.0,57892.0,21554.0,19099.0
2026-05-06 15:49:35.212363,403086,1609504838675029,2438587078,0.661728,-0.288896,0.01952,-30.3275,-36.39125,71.51375,-39.728,-11.984,-84.256004,inter_set_rest,3,5.0,36254.0,45862.0,74886.0,103019.0,32946.0,54840.0,31575.0,57892.0,21554.0,19099.0
2026-05-06 15:49:35.242649,403097,1609504838690603,2438602132,0.714432,-0.329888,-0.005856,-22.785,-35.77875,73.19375,-39.488003,-12.464001,-83.272,inter_set_rest,3,5.0,36617.0,46651.0,75481.0,101983.0,33276.0,55578.0,31825.0,57280.0,21671.0,19364.0
2026-05-06 15:49:35.245202,403098,1609504838699740,2438610897,0.655872,-0.130784,0.121024,-21.8925,-31.99875,68.005,-38.976,-9.792001,-86.04,inter_set_rest,3,5.0,36617.0,46651.0,75481.0,101983.0,33276.0,55578.0,31825.0,57280.0,21671.0,19364.0
2026-05-06 15:49:35.251586,403099,1609504838709330,2438621830,0.655872,-0.130784,0.121024,-17.07125,-30.23125,65.905,-38.976,-9.792001,-86.04,inter_set_rest,3,5.0,36617.0,46651.0,75481.0,101983.0,33276.0,55578.0,31825.0,57280.0,21671.0,19364.0
2026-05-06 15:49:35.254020,403100,1609504838718351,2438630571,0.655872,-0.130784,0.121024,-10.167501,-29.35625,66.92,-38.976,-9.792001,-86.04,inter_set_rest,3,5.0,36617.0,46651.0,75481.0,101983.0,33276.0,55578.0,31825.0,57280.0,21671.0,19364.0
2026-05-06 15:49:35.256586,403101,1609504838732915,2438645567,0.726144,-0.191296,-0.011712,-5.2675,-28.98875,63.3675,-39.664,-10.68,-83.912,inter_set_rest,3,5.0,36617.0,46651.0,75481.0,101983.0,33276.0,55578.0,31825.0,57280.0,21671.0,19364.0
2026-05-06 15:49:35.261207,403102,1609504838741907,2438654297,0.6832,-0.210816,0.023424,-13.30875,-25.68125,60.8825,-39.464,-11.824,-83.096,inter_set_rest,3,5.0,36617.0,46651.0,75481.0,101983.0,33276.0,55578.0,31825.0,57280.0,21671.0,19364.0
2026-05-06 15:49:35.261589,403103,1609504838756551,2438669286,0.6832,-0.210816,0.023424,-18.29625,-23.23125,59.920002,-39.464,-11.824,-83.096,inter_set_rest,3,5.0,36617.0,46651.0,75481.0,101983.0,33276.0,55578.0,31825.0,57280.0,21671.0,19364.0
2026-05-06 15:49:35.263759,403104,1609504838765500,2438678089,0.728096,-0.343552,0.017568,-17.5875,-21.105,59.263752,-39.04,-7.448,-85.816,inter_set_rest,3,5.0,36617.0,46651.0,75481.0,101983.0,33276.0,55578.0,31825.0,57280.0,21671.0,19364.0
2026-05-06 15:49:35.277714,403105,1609504838780108,2438691014,0.77104,-0.382592,0.111264,-22.58375,-15.79375,53.48,-39.04,-6.608,-84.01601,inter_set_rest,3,5.0,36617.0,46651.0,75481.0,101983.0,33276.0,55578.0,31825.0,57280.0,21671.0,19364.0
2026-05-06 15:49:35.308704,403117,1609504838790327,2438702437,0.77104,-0.382592,0.111264,-27.265,-11.59375,45.64,-39.224003,-6.608,-84.01601,inter_set_rest,3,5.0,37004.0,47136.0,75983.0,102079.0,33564.0,56027.0,32098.0,57210.0,21815.0,19557.0
2026-05-06 15:49:35.311296,403118,1609504838799681,2438711288,0.77104,-0.382592,0.064416,-18.17375,-11.06875,50.32125,-39.224003,-6.608,-84.01601,inter_set_rest,3,5.0,37004.0,47136.0,75983.0,102079.0,33564.0,56027.0,32098.0,57210.0,21815.0,19557.0
2026-05-06 15:49:35.313747,403119,1609504838814400,2438726254,0.700768,-0.28304,0.066368,-1.715,-10.535,55.88625,-38.968002,-5.496,-87.90401,inter_set_rest,3,5.0,37004.0,47136.0,75983.0,102079.0,33564.0,56027.0,32098.0,57210.0,21815.0,19557.0
2026-05-06 15:49:35.320034,403120,1609504838823350,2438734978,0.76128,-0.269376,-0.027328,7.805,-10.68375,52.43875,-39.136,-6.064,-85.72,inter_set_rest,3,5.0,37004.0,47136.0,75983.0,102079.0,33564.0,56027.0,32098.0,57210.0,21815.0,19557.0
2026-05-06 15:49:35.326225,403121,1609504838832311,2438743700,0.76128,-0.269376,-0.027328,-1.18125,-8.785,47.88,-39.136,-6.064,-85.72,inter_set_rest,3,5.0,37004.0,47136.0,75983.0,102079.0,33564.0,56027.0,32098.0,57210.0,21815.0,19557.0
2026-05-06 15:49:35.342716,403122,1609504838846870,2438758652,0.796416,-0.327936,-0.033184,-9.91375,-5.5825,43.3825,-39.312,-5.472,-84.968,inter_set_rest,3,5.0,37004.0,47136.0,75983.0,102079.0,33564.0,56027.0,32098.0,57210.0,21815.0,19557.0
2026-05-06 15:49:35.351912,403123,1609504838855796,2438767369,0.796416,-0.327936,-0.033184,-14.42875,-2.16125,39.0775,-39.312,-5.472,-84.968,inter_set_rest,3,5.0,37004.0,47136.0,75983.0,102079.0,33564.0,56027.0,32098.0,57210.0,21815.0,19557.0
2026-05-06 15:49:35.385092,403124,1609504838870337,2438782390,0.788608,-0.474336,0.138592,-24.5,2.555,36.75875,-38.968002,-3.936,-86.72,inter_set_rest,3,5.0,37004.0,47136.0,75983.0,102079.0,33564.0,56027.0,32098.0,57210.0,21815.0,19557.0
2026-05-06 15:49:35.387588,403125,1609504838879330,2438791125,0.788608,-0.474336,0.138592,-21.455,5.43375,31.7975,-38.968002,-3.936,-86.72,inter_set_rest,3,5.0,37004.0,47136.0,75983.0,102079.0,33564.0,56027.0,32098.0,57210.0,21815.0,19557.0
2026-05-06 15:49:35.415218,403136,1609504838888930,2438799891,0.747616,-0.357216,0.16592,-8.47,5.90625,34.86,-39.144,-2.888,-87.07201,inter_set_rest,3,5.0,36597.0,46713.0,75661.0,101058.0,33291.0,55463.0,31904.0,56452.0,21785.0,19387.0
2026-05-06 15:49:35.417676,403137,1609504838904032,2438814931,0.817888,-0.218624,-0.01952,1.93375,7.21875,40.73125,-39.464,-2.304,-86.688,inter_set_rest,3,5.0,36597.0,46713.0,75661.0,101058.0,33291.0,55463.0,31904.0,56452.0,21785.0,19387.0
2026-05-06 15:49:35.420259,403138,1609504838913431,2438825805,0.817888,-0.218624,-0.01952,4.71625,6.8075,36.02375,-39.464,-2.304,-86.688,inter_set_rest,3,5.0,36597.0,46713.0,75661.0,101058.0,33291.0,55463.0,31904.0,56452.0,21785.0,19387.0
2026-05-06 15:49:35.422719,403139,1609504838922451,2438834560,0.89792,-0.294752,-0.083936,-1.33,8.61875,31.22,-39.480003,-1.752,-86.880005,inter_set_rest,3,5.0,36597.0,46713.0,75661.0,101058.0,33291.0,55463.0,31904.0,56452.0,21785.0,19387.0
2026-05-06 15:49:35.435222,403140,1609504838936946,2438849483,0.89792,-0.294752,-0.083936,-12.25,11.50625,22.86375,-39.480003,-1.752,-86.880005,inter_set_rest,3,5.0,36597.0,46713.0,75661.0,101058.0,33291.0,55463.0,31904.0,56452.0,21785.0,19387.0
2026-05-06 15:49:35.463772,403141,1609504838945861,2438858211,0.870592,-0.571936,0.177632,-34.57125,17.815,10.6925,-39.928,-2.448,-86.73601,inter_set_rest,3,5.0,36597.0,46713.0,75661.0,101058.0,33291.0,55463.0,31904.0,56452.0,21785.0,19387.0
2026-05-06 15:49:35.488875,403142,1609504838960348,2438871099,0.870592,-0.571936,0.177632,-47.355,25.20875,1.995,-39.928,-2.448,-86.73601,inter_set_rest,3,5.0,36597.0,46713.0,75661.0,101058.0,33291.0,55463.0,31904.0,56452.0,21785.0,19387.0
2026-05-06 15:49:35.498969,403143,1609504838969614,2438881918,0.825696,-0.612928,0.290848,-19.10125,26.880001,5.145,-39.712,-1.056,-86.416,inter_set_rest,3,5.0,36597.0,46713.0,75661.0,101058.0,33291.0,55463.0,31904.0,56452.0,21785.0,19387.0
2026-05-06 15:49:35.501365,403144,1609504838984119,2438896842,0.915488,-0.398208,0.072224,14.63875,24.14125,12.136251,-40.376003,-1.072,-86.184006,inter_set_rest,3,5.0,36597.0,46713.0,75661.0,101058.0,33291.0,55463.0,31904.0,56452.0,21785.0,19387.0
2026-05-06 15:49:35.530985,403155,1609504838993177,2438905754,0.915488,-0.398208,0.072224,18.76875,24.4825,12.59125,-40.376003,-1.072,-86.184006,inter_set_rest,3,5.0,35617.0,44835.0,74437.0,99768.0,32560.0,53808.0,31294.0,55844.0,21512.0,18861.0
2026-05-06 15:49:35.531514,403156,1609504839002218,2438914462,0.970144,-0.259616,0.035136,27.62375,24.0975,1.77625,-40.752003,-2.184,-85.840004,inter_set_rest,3,5.0,35617.0,44835.0,74437.0,99768.0,32560.0,53808.0,31294.0,55844.0,21512.0,18861.0
2026-05-06 15:49:35.533756,403157,1609504839016827,2438929435,0.970144,-0.259616,0.035136,26.27625,25.26125,-5.145,-40.752003,-2.184,-85.840004,inter_set_rest,3,5.0,35617.0,44835.0,74437.0,99768.0,32560.0,53808.0,31294.0,55844.0,21512.0,18861.0
2026-05-06 15:49:35.537710,403158,1609504839025783,2438938230,0.993568,-0.384544,0.16592,5.74875,27.536251,-9.65125,-41.256,-2.656,-85.152,inter_set_rest,3,5.0,35617.0,44835.0,74437.0,99768.0,32560.0,53808.0,31294.0,55844.0,21512.0,18861.0
2026-05-06 15:49:35.540277,403159,1609504839040357,2438951124,0.993568,-0.384544,0.16592,-18.15625,31.63125,-20.64125,-41.256,-2.656,-85.152,inter_set_rest,3,5.0,35617.0,44835.0,74437.0,99768.0,32560.0,53808.0,31294.0,55844.0,21512.0,18861.0
2026-05-06 15:49:35.547592,403160,1609504839049738,2438961929,0.919392,-0.60512,0.206912,-17.64,33.39,-25.83,-41.84,-1.144,-86.26401,inter_set_rest,3,5.0,35617.0,44835.0,74437.0,99768.0,32560.0,53808.0,31294.0,55844.0,21512.0,18861.0
2026-05-06 15:49:35.556433,403161,1609504839058750,2438970634,0.919392,-0.60512,0.206912,3.4125,31.9375,-23.0825,-41.84,-1.144,-86.26401,inter_set_rest,3,5.0,35617.0,44835.0,74437.0,99768.0,32560.0,53808.0,31294.0,55844.0,21512.0,18861.0
2026-05-06 15:49:35.570226,403162,1609504839073279,2438985639,0.993568,-0.4392,0.203008,18.2875,32.08625,-22.9775,-42.488003,-1.96,-83.73601,inter_set_rest,3,5.0,35617.0,44835.0,74437.0,99768.0,32560.0,53808.0,31294.0,55844.0,21512.0,18861.0
2026-05-06 15:49:35.578776,403163,1609504839082241,2438994375,1.050176,-0.325984,0.115168,23.12625,33.53875,-24.98125,-42.488003,-6.056,-81.616005,inter_set_rest,3,5.0,35617.0,44835.0,74437.0,99768.0,32560.0,53808.0,31294.0,55844.0,21512.0,18861.0
2026-05-06 15:49:35.607297,403174,1609504839096806,2439009511,1.050176,-0.325984,0.115168,21.28,35.14,-28.8225,-43.008003,-4.208,-81.616005,inter_set_rest,3,5.0,35092.0,44189.0,74244.0,99631.0,32064.0,53344.0,31186.0,56060.0,21184.0,18610.0
2026-05-06 15:49:35.609684,403175,1609504839105799,2439018251,1.059936,-0.464576,0.12688,14.88375,35.81375,-35.04375,-43.56,-4.152,-81.632,inter_set_rest,3,5.0,35092.0,44189.0,74244.0,99631.0,32064.0,53344.0,31186.0,56060.0,21184.0,18610.0
2026-05-06 15:49:35.612224,403176,1609504839114837,2439026990,1.059936,-0.464576,0.12688,18.50625,34.02,-38.57875,-43.56,-4.152,-81.632,inter_set_rest,3,5.0,35092.0,44189.0,74244.0,99631.0,32064.0,53344.0,31186.0,56060.0,21184.0,18610.0
2026-05-06 15:49:35.626274,403177,1609504839129332,2439041876,1.042368,-0.441152,0.22448,14.69125,32.515,-40.38125,-43.760002,-3.064,-83.048004,inter_set_rest,3,5.0,35092.0,44189.0,74244.0,99631.0,32064.0,53344.0,31186.0,56060.0,21184.0,18610.0
2026-05-06 15:49:35.636698,403178,1609504839138310,2439050618,1.042368,-0.441152,0.22448,11.22625,29.8725,-44.5025,-43.760002,-3.064,-83.048004,inter_set_rest,3,5.0,35092.0,44189.0,74244.0,99631.0,32064.0,53344.0,31186.0,56060.0,21184.0,18610.0
2026-05-06 15:49:35.653699,403179,1609504839152843,2439065519,1.087264,-0.456768,0.236192,18.38375,27.116251,-43.9775,-44.512,-1.488,-83.54401,inter_set_rest,3,5.0,35092.0,44189.0,74244.0,99631.0,32064.0,53344.0,31186.0,56060.0,21184.0,18610.0
2026-05-06 15:49:35.656126,403180,1609504839161766,2439074231,1.087264,-0.456768,0.236192,25.9,24.8675,-43.89,-44.512,-1.488,-83.54401,inter_set_rest,3,5.0,35092.0,44189.0,74244.0,99631.0,32064.0,53344.0,31186.0,56060.0,21184.0,18610.0
2026-05-06 15:49:35.690185,403181,1609504839176250,2439087092,1.065792,-0.443104,0.138592,35.7875,20.62375,-46.27875,-44.912003,-3.44,-82.01601,inter_set_rest,3,5.0,35092.0,44189.0,74244.0,99631.0,32064.0,53344.0,31186.0,56060.0,21184.0,18610.0
2026-05-06 15:49:35.692754,403182,1609504839185544,2439097879,1.077504,-0.388448,0.158112,50.12,14.735,-48.2475,-44.976,-1.632,-83.16,inter_set_rest,3,5.0,35092.0,44189.0,74244.0,99631.0,32064.0,53344.0,31186.0,56060.0,21184.0,18610.0
2026-05-06 15:49:35.722736,403193,1609504839194683,2439107054,1.077504,-0.388448,0.158112,58.1875,9.3975,-47.355,-44.976,-1.632,-83.16,inter_set_rest,3,5.0,35031.0,44055.0,74240.0,99454.0,31994.0,53252.0,31164.0,55969.0,21141.0,18569.0
2026-05-06 15:49:35.725285,403194,1609504839209255,2439122010,1.0248,-0.345504,0.275232,55.57125,6.0375,-43.82875,-45.616,-1.68,-82.75201,inter_set_rest,3,5.0,35031.0,44055.0,74240.0,99454.0,31994.0,53252.0,31164.0,55969.0,21141.0,18569.0
2026-05-06 15:49:35.727798,403195,1609504839218268,2439130808,1.0248,-0.345504,0.275232,44.5725,5.46875,-39.78625,-45.616,-1.68,-82.75201,inter_set_rest,3,5.0,35031.0,44055.0,74240.0,99454.0,31994.0,53252.0,31164.0,55969.0,21141.0,18569.0
2026-05-06 15:49:35.732278,403196,1609504839232760,2439143681,0.929152,-0.363072,0.23424,32.01625,6.18625,-36.7675,-45.688004,-1.864,-82.616005,inter_set_rest,3,5.0,35031.0,44055.0,74240.0,99454.0,31994.0,53252.0,31164.0,55969.0,21141.0,18569.0
2026-05-06 15:49:35.739320,403197,1609504839242121,2439154512,0.929152,-0.363072,0.23424,30.835001,4.45375,-33.64375,-45.688004,-1.864,-82.616005,inter_set_rest,3,5.0,35031.0,44055.0,74240.0,99454.0,31994.0,53252.0,31164.0,55969.0,21141.0,18569.0
2026-05-06 15:49:35.770077,403198,1609504839251037,2439163235,0.950624,-0.300608,0.232288,24.63125,2.35375,-30.835001,-45.544003,-1.904,-82.72,inter_set_rest,3,5.0,35031.0,44055.0,74240.0,99454.0,31994.0,53252.0,31164.0,55969.0,21141.0,18569.0
2026-05-06 15:49:35.772622,403199,1609504839265577,2439178230,0.964288,-0.298656,0.21472,21.525,0.18375,-27.62375,-45.784,-1.736,-82.656006,inter_set_rest,3,5.0,35031.0,44055.0,74240.0,99454.0,31994.0,53252.0,31164.0,55969.0,21141.0,18569.0
2026-05-06 15:49:35.775117,403200,1609504839274495,2439186947,0.964288,-0.298656,0.21472,21.79625,-1.855,-26.01375,-45.784,-1.736,-82.656006,inter_set_rest,3,5.0,35031.0,44055.0,74240.0,99454.0,31994.0,53252.0,31164.0,55969.0,21141.0,18569.0
2026-05-06 15:49:35.784029,403201,1609504839289106,2439199946,0.972096,-0.318176,0.238144,23.8,-4.10375,-24.1325,-45.616,-1.6,-82.840004,inter_set_rest,3,5.0,35031.0,44055.0,74240.0,99454.0,31994.0,53252.0,31164.0,55969.0,21141.0,18569.0
2026-05-06 15:49:35.856498,403212,1609504839298498,2439210969,0.972096,-0.318176,0.238144,22.46125,-6.18625,-23.3275,-45.616,-1.6,-82.840004,inter_set_rest,3,5.0,35318.0,44475.0,74514.0,99822.0,32219.0,53535.0,31303.0,56058.0,21258.0,18685.0
2026-05-06 15:49:35.878708,403213,1609504839307486,2439219727,0.925248,-0.314272,0.1952,17.36,-7.56875,-23.24,-46.424004,-3.336,-82.26401,inter_set_rest,3,5.0,35318.0,44475.0,74514.0,99822.0,32219.0,53535.0,31303.0,56058.0,21258.0,18685.0
2026-05-06 15:49:35.881462,403214,1609504839322051,2439234665,0.925248,-0.314272,0.1952,16.5725,-8.26875,-22.575,-46.424004,-3.336,-82.26401,inter_set_rest,3,5.0,35318.0,44475.0,74514.0,99822.0,32219.0,53535.0,31303.0,56058.0,21258.0,18685.0
2026-05-06 15:49:35.883959,403215,1609504839331015,2439243398,0.95648,-0.316224,0.255712,13.755,-7.55125,-20.65,-46.112003,-1.704,-83.664,inter_set_rest,3,5.0,35318.0,44475.0,74514.0,99822.0,32219.0,53535.0,31303.0,56058.0,21258.0,18685.0
2026-05-06 15:49:35.886564,403216,1609504839345714,2439258350,0.981856,-0.32208,0.238144,15.93375,-7.65625,-18.3925,-46.104004,-3.376,-81.928,inter_set_rest,3,5.0,35318.0,44475.0,74514.0,99822.0,32219.0,53535.0,31303.0,56058.0,21258.0,18685.0
2026-05-06 15:49:35.888976,403217,1609504839354627,2439267057,0.981856,-0.32208,0.238144,17.14125,-7.88375,-16.765,-46.104004,-3.376,-81.928,inter_set_rest,3,5.0,35318.0,44475.0,74514.0,99822.0,32219.0,53535.0,31303.0,56058.0,21258.0,18685.0
2026-05-06 15:49:35.891585,403218,1609504839369186,2439280060,1.003328,-0.26352,0.177632,10.99875,-7.525,-16.135,-45.832,-1.752,-83.576004,inter_set_rest,3,5.0,35318.0,44475.0,74514.0,99822.0,32219.0,53535.0,31303.0,56058.0,21258.0,18685.0
2026-05-06 15:49:35.893997,403219,1609504839378531,2439290873,1.003328,-0.26352,0.177632,2.7475,-6.39625,-15.2775,-45.832,-1.752,-83.576004,inter_set_rest,3,5.0,35318.0,44475.0,74514.0,99822.0,32219.0,53535.0,31303.0,56058.0,21258.0,18685.0
2026-05-06 15:49:35.896390,403220,1609504839387471,2439299617,0.989664,-0.392352,0.197152,-3.33375,-5.8975,-15.47,-45.952003,-2.136,-83.464005,inter_set_rest,3,5.0,35318.0,44475.0,74514.0,99822.0,32219.0,53535.0,31303.0,56058.0,21258.0,18685.0
2026-05-06 15:49:35.924228,403231,1609504839402154,2439314626,0.989664,-0.392352,0.197152,-4.0425,-5.32875,-15.1025,-45.952003,-2.136,-83.464005,inter_set_rest,3,5.0,35530.0,44689.0,74763.0,100329.0,32393.0,53718.0,31399.0,56401.0,21332.0,18740.0
2026-05-06 15:49:35.927058,403232,1609504839411260,2439323371,0.99552,-0.402112,0.199104,-3.22,-5.215,-12.74875,-45.88,-2.2,-83.520004,inter_set_rest,3,5.0,35530.0,44689.0,74763.0,100329.0,32393.0,53718.0,31399.0,56401.0,21332.0,18740.0
2026-05-06 15:49:35.928630,403233,1609504839425806,2439338462,0.95648,-0.310368,0.17568,1.46125,-6.32625,-10.167501,-45.712,-2.048,-82.088005,inter_set_rest,3,5.0,35530.0,44689.0,74763.0,100329.0,32393.0,53718.0,31399.0,56401.0,21332.0,18740.0
2026-05-06 15:49:35.931408,403234,1609504839434741,2439347170,0.95648,-0.310368,0.17568,7.27125,-8.96875,-8.198751,-45.712,-2.048,-82.088005,inter_set_rest,3,5.0,35530.0,44689.0,74763.0,100329.0,32393.0,53718.0,31399.0,56401.0,21332.0,18740.0
2026-05-06 15:49:35.940103,403235,1609504839443713,2439355921,0.95648,-0.310368,0.17568,11.935,-11.6375,-5.6875,-45.712,-2.048,-82.088005,inter_set_rest,3,5.0,35530.0,44689.0,74763.0,100329.0,32393.0,53718.0,31399.0,56401.0,21332.0,18740.0
2026-05-06 15:49:35.956157,403236,1609504839458320,2439370841,1.026752,-0.281088,0.199104,9.9575,-12.69625,-4.795,-45.768,-1.264,-84.136,inter_set_rest,3,5.0,35530.0,44689.0,74763.0,100329.0,32393.0,53718.0,31399.0,56401.0,21332.0,18740.0
2026-05-06 15:49:35.965095,403237,1609504839467205,2439379571,1.016992,-0.306464,0.222528,5.075,-12.25875,-4.75125,-45.768,-2.048,-83.712006,inter_set_rest,3,5.0,35530.0,44689.0,74763.0,100329.0,32393.0,53718.0,31399.0,56401.0,21332.0,18740.0
2026-05-06 15:49:35.976436,403238,1609504839481719,2439392491,1.016992,-0.306464,0.222528,0.77875,-10.99,-1.7325,-45.768,-2.048,-83.712006,inter_set_rest,3,5.0,35530.0,44689.0,74763.0,100329.0,32393.0,53718.0,31399.0,56401.0,21332.0,18740.0
2026-05-06 15:49:36.015707,403249,1609504839491116,2439403446,0.974048,-0.314272,0.220576,-5.31125,-9.31,1.67125,-45.536003,-4.024,-83.07201,inter_set_rest,3,5.0,35704.0,44985.0,74831.0,100350.0,32492.0,53899.0,31404.0,56360.0,21332.0,18758.0
2026-05-06 15:49:36.016111,403250,1609504839500723,2439412436,0.974048,-0.314272,0.220576,-8.6625,-7.56,2.66875,-45.536003,-4.024,-83.07201,inter_set_rest,3,5.0,35704.0,44985.0,74831.0,100350.0,32492.0,53899.0,31404.0,56360.0,21332.0,18758.0
2026-05-06 15:49:36.017531,403251,1609504839515263,2439427462,0.981856,-0.318176,0.163968,-6.8775,-5.67875,3.9725,-45.664,-3.992,-82.896,inter_set_rest,3,5.0,35704.0,44985.0,74831.0,100350.0,32492.0,53899.0,31404.0,56360.0,21332.0,18758.0
2026-05-06 15:49:36.021539,403252,1609504839524232,2439436197,0.981856,-0.318176,0.163968,-4.8125,-4.06,5.10125,-45.664,-3.992,-82.896,inter_set_rest,3,5.0,35704.0,44985.0,74831.0,100350.0,32492.0,53899.0,31404.0,56360.0,21332.0,18758.0
2026-05-06 15:49:36.041425,403253,1609504839538745,2439451167,0.964288,-0.296704,0.171776,-3.07125,-3.22,5.5475,-45.368004,-1.92,-82.656006,inter_set_rest,3,5.0,35704.0,44985.0,74831.0,100350.0,32492.0,53899.0,31404.0,56360.0,21332.0,18758.0
2026-05-06 15:49:36.043868,403254,1609504839547679,2439459884,0.979904,-0.327936,0.199104,-3.91125,-3.255,5.705,-45.192,-1.488,-83.688,inter_set_rest,3,5.0,35704.0,44985.0,74831.0,100350.0,32492.0,53899.0,31404.0,56360.0,21332.0,18758.0
2026-05-06 15:49:36.052727,403255,1609504839556610,2439468645,0.979904,-0.327936,0.199104,-4.92625,-3.21125,5.18875,-45.192,-1.488,-83.688,inter_set_rest,3,5.0,35704.0,44985.0,74831.0,100350.0,32492.0,53899.0,31404.0,56360.0,21332.0,18758.0
2026-05-06 15:49:36.066574,403256,1609504839571156,2439483593,0.960384,-0.333792,0.167872,-3.68375,-3.45625,5.0925,-45.000004,-1.992,-84.144005,inter_set_rest,3,5.0,35704.0,44985.0,74831.0,100350.0,32492.0,53899.0,31404.0,56360.0,21332.0,18758.0
2026-05-06 15:49:36.076574,403257,1609504839580171,2439492366,0.960384,-0.333792,0.167872,-9.0125,-3.43,4.59375,-45.000004,-1.992,-84.144005,inter_set_rest,3,5.0,35704.0,44985.0,74831.0,100350.0,32492.0,53899.0,31404.0,56360.0,21332.0,18758.0
2026-05-06 15:49:36.112320,403268,1609504839595214,2439507409,0.950624,-0.279136,0.167872,-14.11375,-2.975,6.32625,-45.2,-2.0,-84.20801,inter_set_rest,3,5.0,36067.0,45317.0,74878.0,100481.0,32724.0,54131.0,31413.0,56377.0,21414.0,18802.0
2026-05-06 15:49:36.114737,403269,1609504839604359,2439516175,0.950624,-0.279136,0.167872,-17.56125,-2.65125,5.46875,-45.2,-2.0,-84.20801,inter_set_rest,3,5.0,36067.0,45317.0,74878.0,100481.0,32724.0,54131.0,31413.0,56377.0,21414.0,18802.0
2026-05-06 15:49:36.117422,403270,1609504839613351,2439524912,0.950624,-0.327936,0.1464,-17.0975,-3.40375,2.8875,-44.896004,-1.816,-85.008,inter_set_rest,3,5.0,36067.0,45317.0,74878.0,100481.0,32724.0,54131.0,31413.0,56377.0,21414.0,18802.0
2026-05-06 15:49:36.123871,403271,1609504839627892,2439539846,0.864736,-0.347456,0.138592,-14.7875,-4.06875,4.6375,-44.936,-2.568,-83.504005,inter_set_rest,3,5.0,36067.0,45317.0,74878.0,100481.0,32724.0,54131.0,31413.0,56377.0,21414.0,18802.0
2026-05-06 15:49:36.132655,403272,1609504839636805,2439548609,0.864736,-0.347456,0.138592,-12.8625,-4.235,4.2175,-44.936,-2.568,-83.504005,inter_set_rest,3,5.0,36067.0,45317.0,74878.0,100481.0,32724.0,54131.0,31413.0,56377.0,21414.0,18802.0
2026-05-06 15:49:36.166580,403273,1609504839651300,2439563522,0.827648,-0.300608,0.122976,-9.82625,-5.04875,1.155,-44.904003,-3.68,-83.392006,inter_set_rest,3,5.0,36067.0,45317.0,74878.0,100481.0,32724.0,54131.0,31413.0,56377.0,21414.0,18802.0
2026-05-06 15:49:36.168838,403274,1609504839660311,2439572255,0.827648,-0.300608,0.122976,-8.79375,-4.5675,0.04375,-44.904003,-3.68,-83.392006,inter_set_rest,3,5.0,36067.0,45317.0,74878.0,100481.0,32724.0,54131.0,31413.0,56377.0,21414.0,18802.0
2026-05-06 15:49:36.171590,403275,1609504839674789,2439587183,0.837408,-0.28304,0.138592,-7.30625,-2.6775,0.76125,-44.696003,-1.84,-84.47201,inter_set_rest,3,5.0,36067.0,45317.0,74878.0,100481.0,32724.0,54131.0,31413.0,56377.0,21414.0,18802.0
2026-05-06 15:49:36.200218,403276,1609504839683725,2439595883,0.837408,-0.28304,0.138592,-1.2425,-2.47625,-1.365,-44.696003,-1.84,-84.47201,inter_set_rest,3,5.0,36067.0,45317.0,74878.0,100481.0,32724.0,54131.0,31413.0,56377.0,21414.0,18802.0
2026-05-06 15:49:36.266540,403287,1609504839693099,2439604677,0.831552,-0.245952,0.105408,-2.02125,-1.5225,-4.0425,-44.4,-2.424,-84.408005,inter_set_rest,3,5.0,36496.0,45867.0,75160.0,100629.0,33063.0,54622.0,31534.0,56392.0,21619.0,19019.0
2026-05-06 15:49:36.269008,403288,1609504839707682,2439619598,0.813984,-0.240096,0.142496,-6.055,-0.3325,-5.50375,-44.600002,-2.392,-83.920006,inter_set_rest,3,5.0,36496.0,45867.0,75160.0,100629.0,33063.0,54622.0,31534.0,56392.0,21619.0,19019.0
2026-05-06 15:49:36.275211,403289,1609504839716597,2439628425,0.813984,-0.240096,0.142496,-5.1275,-0.595,-6.86875,-44.600002,-2.392,-83.920006,inter_set_rest,3,5.0,36496.0,45867.0,75160.0,100629.0,33063.0,54622.0,31534.0,56392.0,21619.0,19019.0
2026-05-06 15:49:36.277714,403290,1609504839731128,2439643349,0.823744,-0.269376,0.11712,-7.56875,-0.595,-8.23375,-44.632004,-2.8,-84.304,inter_set_rest,3,5.0,36496.0,45867.0,75160.0,100629.0,33063.0,54622.0,31534.0,56392.0,21619.0,19019.0
2026-05-06 15:49:36.280192,403291,1609504839740131,2439652080,0.823744,-0.269376,0.11712,-5.6875,-0.84,-9.19625,-44.632004,-2.8,-84.304,inter_set_rest,3,5.0,36496.0,45867.0,75160.0,100629.0,33063.0,54622.0,31534.0,56392.0,21619.0,19019.0
2026-05-06 15:49:36.282726,403292,1609504839749112,2439660845,0.79056,-0.269376,0.11712,-4.4275,-0.07875,-9.30125,-44.168003,-3.168,-85.36,inter_set_rest,3,5.0,36496.0,45867.0,75160.0,100629.0,33063.0,54622.0,31534.0,56392.0,21619.0,19019.0
2026-05-06 15:49:36.285248,403293,1609504839763729,2439675838,0.79056,-0.269376,0.11712,-0.58625,0.30625,-9.5025,-44.168003,-3.168,-85.36,inter_set_rest,3,5.0,36496.0,45867.0,75160.0,100629.0,33063.0,54622.0,31534.0,56392.0,21619.0,19019.0
2026-05-06 15:49:36.290528,403294,1609504839772761,2439684588,0.753472,-0.197152,0.134688,-1.75875,0.88375,-10.57875,-44.416,-3.64,-84.272,inter_set_rest,3,5.0,36496.0,45867.0,75160.0,100629.0,33063.0,54622.0,31534.0,56392.0,21619.0,19019.0
2026-05-06 15:49:36.292462,403295,1609504839787249,2439699551,0.753472,-0.197152,0.158112,0.0,1.225,-9.8525,-44.416,-3.64,-84.272,inter_set_rest,3,5.0,36496.0,45867.0,75160.0,100629.0,33063.0,54622.0,31534.0,56392.0,21619.0,19019.0
2026-05-06 15:49:36.322711,403306,1609504839796925,2439708589,0.71248,-0.193248,0.158112,2.205,1.1725,-11.1825,-44.568,-4.8,-82.592,inter_set_rest,3,5.0,36534.0,46138.0,75271.0,100741.0,33098.0,54849.0,31577.0,56377.0,21627.0,19113.0
2026-05-06 15:49:36.325220,403307,1609504839805904,2439717436,0.71248,-0.193248,0.158112,-0.16625,1.51375,-13.81625,-44.568,-4.8,-82.592,inter_set_rest,3,5.0,36534.0,46138.0,75271.0,100741.0,33098.0,54849.0,31577.0,56377.0,21627.0,19113.0
2026-05-06 15:49:36.330132,403308,1609504839820478,2439732412,0.743712,-0.1952,0.1464,-3.01,2.47625,-14.4025,-44.576,-4.904,-82.600006,inter_set_rest,3,5.0,36534.0,46138.0,75271.0,100741.0,33098.0,54849.0,31577.0,56377.0,21627.0,19113.0
2026-05-06 15:49:36.332555,403309,1609504839829559,2439741133,0.792512,-0.242048,0.130784,-2.87875,2.49375,-14.20125,-44.576,-5.352,-83.05601,inter_set_rest,3,5.0,36534.0,46138.0,75271.0,100741.0,33098.0,54849.0,31577.0,56377.0,21627.0,19113.0
2026-05-06 15:49:36.341599,403310,1609504839844095,2439756050,0.792512,-0.242048,0.130784,-4.38375,2.8875,-14.525,-44.576,-5.352,-83.05601,inter_set_rest,3,5.0,36534.0,46138.0,75271.0,100741.0,33098.0,54849.0,31577.0,56377.0,21627.0,19113.0
2026-05-06 15:49:36.347778,403311,1609504839853011,2439764896,0.804224,-0.261568,0.140544,-3.00125,2.905,-15.1375,-44.504,-3.624,-84.4,inter_set_rest,3,5.0,36534.0,46138.0,75271.0,100741.0,33098.0,54849.0,31577.0,56377.0,21627.0,19113.0
2026-05-06 15:49:36.361671,403312,1609504839862000,2439773640,0.804224,-0.261568,0.140544,1.61,2.17,-13.22125,-44.504,-3.624,-84.4,inter_set_rest,3,5.0,36534.0,46138.0,75271.0,100741.0,33098.0,54849.0,31577.0,56377.0,21627.0,19113.0
2026-05-06 15:49:36.375281,403313,1609504839876684,2439788610,0.81984,-0.244,0.173728,3.82375,2.0125,-11.935,-44.52,-4.976,-82.976006,inter_set_rest,3,5.0,36534.0,46138.0,75271.0,100741.0,33098.0,54849.0,31577.0,56377.0,21627.0,19113.0
2026-05-06 15:49:36.407628,403314,1609504839885610,2439797319,0.81984,-0.244,0.173728,6.6325,1.05,-11.7425,-44.52,-4.976,-82.976006,inter_set_rest,3,5.0,36534.0,46138.0,75271.0,100741.0,33098.0,54849.0,31577.0,56377.0,21627.0,19113.0
2026-05-06 15:49:36.441427,403325,1609504839900233,2439812379,0.817888,-0.218624,0.177632,7.91875,0.09625,-11.78625,-44.592003,-4.144,-83.784004,inter_set_rest,3,5.0,36578.0,46356.0,75332.0,100979.0,33111.0,55039.0,31602.0,56457.0,21628.0,19173.0
2026-05-06 15:49:36.444022,403326,1609504839909268,2439821169,0.856928,-0.21472,0.130784,6.81625,-0.98,-12.53875,-44.608,-4.0,-84.992004,inter_set_rest,3,5.0,36578.0,46356.0,75332.0,100979.0,33111.0,55039.0,31602.0,56457.0,21628.0,19173.0
2026-05-06 15:49:36.446575,403327,1609504839923781,2439836122,0.856928,-0.21472,0.130784,4.8825,-2.51125,-14.2275,-44.608,-4.0,-84.992004,inter_set_rest,3,5.0,36578.0,46356.0,75332.0,100979.0,33111.0,55039.0,31602.0,56457.0,21628.0,19173.0
2026-05-06 15:49:36.449081,403328,1609504839932814,2439845053,0.952576,-0.257664,0.191296,-1.8025,-2.8,-15.77625,-44.424004,-6.952,-83.248,inter_set_rest,3,5.0,36578.0,46356.0,75332.0,100979.0,33111.0,55039.0,31602.0,56457.0,21628.0,19173.0
2026-05-06 15:49:36.453999,403329,1609504839941862,2439853781,0.952576,-0.257664,0.191296,-9.0125,-2.24,-14.28,-44.424004,-6.952,-83.248,inter_set_rest,3,5.0,36578.0,46356.0,75332.0,100979.0,33111.0,55039.0,31602.0,56457.0,21628.0,19173.0
2026-05-06 15:49:36.456632,403330,1609504839956406,2439868775,0.890112,-0.310368,0.199104,-3.99,-3.2725,-9.10875,-44.584003,-5.728,-84.976006,inter_set_rest,3,5.0,36578.0,46356.0,75332.0,100979.0,33111.0,55039.0,31602.0,56457.0,21628.0,19173.0
2026-05-06 15:49:36.462565,403331,1609504839965410,2439877623,0.890112,-0.310368,0.199104,-0.77875,-3.1675,-6.92125,-44.584003,-5.728,-84.976006,inter_set_rest,3,5.0,36578.0,46356.0,75332.0,100979.0,33111.0,55039.0,31602.0,56457.0,21628.0,19173.0
2026-05-06 15:49:36.476418,403332,1609504839979971,2439892538,0.83936,-0.251808,0.17568,3.9025,-3.89375,-6.97375,-44.392002,-6.488,-83.088005,inter_set_rest,3,5.0,36578.0,46356.0,75332.0,100979.0,33111.0,55039.0,31602.0,56457.0,21628.0,19173.0
2026-05-06 15:49:36.490099,403333,1609504839988898,2439901228,0.83936,-0.203008,0.1952,9.40625,-4.095,-6.27375,-44.392002,-6.488,-83.088005,inter_set_rest,3,5.0,36578.0,46356.0,75332.0,100979.0,33111.0,55039.0,31602.0,56457.0,21628.0,19173.0
2026-05-06 15:49:36.528846,403344,1609504839998252,2439910206,0.870592,-0.203008,0.1952,13.02875,-3.8675,-6.4225,-43.944,-4.056,-84.336006,inter_set_rest,3,5.0,36676.0,46449.0,75461.0,101114.0,33187.0,55179.0,31712.0,56611.0,21646.0,19213.0
2026-05-06 15:49:36.531272,403345,1609504840013025,2439925165,0.851072,-0.216672,0.13664,10.605001,-2.59,-6.58,-44.256,-5.68,-83.176,inter_set_rest,3,5.0,36676.0,46449.0,75461.0,101114.0,33187.0,55179.0,31712.0,56611.0,21646.0,19213.0
2026-05-06 15:49:36.533850,403346,1609504840022145,2439933900,0.851072,-0.216672,0.13664,10.64,-0.81375,-5.5125,-44.256,-5.68,-83.176,inter_set_rest,3,5.0,36676.0,46449.0,75461.0,101114.0,33187.0,55179.0,31712.0,56611.0,21646.0,19213.0
2026-05-06 15:49:36.536003,403347,1609504840036642,2439948857,0.794464,-0.226432,0.171776,6.44,0.97125,-8.74125,-44.704002,-6.68,-82.22401,inter_set_rest,3,5.0,36676.0,46449.0,75461.0,101114.0,33187.0,55179.0,31712.0,56611.0,21646.0,19213.0
2026-05-06 15:49:36.542662,403348,1609504840045619,2439957694,0.794464,-0.226432,0.171776,9.065,0.6125,-9.0825,-44.704002,-6.68,-82.22401,inter_set_rest,3,5.0,36676.0,46449.0,75461.0,101114.0,33187.0,55179.0,31712.0,56611.0,21646.0,19213.0
2026-05-06 15:49:36.567562,403349,1609504840054551,2439966385,0.788608,-0.191296,0.212768,10.7975,0.69125,-6.27375,-43.88,-4.544,-84.256004,inter_set_rest,3,5.0,36676.0,46449.0,75461.0,101114.0,33187.0,55179.0,31712.0,56611.0,21646.0,19213.0
2026-05-06 15:49:36.592564,403350,1609504840069082,2439981314,0.788608,-0.191296,0.212768,7.84875,1.81125,-6.125,-43.88,-4.544,-84.256004,inter_set_rest,3,5.0,36676.0,46449.0,75461.0,101114.0,33187.0,55179.0,31712.0,56611.0,21646.0,19213.0
2026-05-06 15:49:36.594956,403351,1609504840078035,2439990103,0.755424,-0.201056,0.140544,10.98125,1.93375,-6.79875,-44.064003,-3.904,-83.008,inter_set_rest,3,5.0,36676.0,46449.0,75461.0,101114.0,33187.0,55179.0,31712.0,56611.0,21646.0,19213.0
2026-05-06 15:49:36.597391,403352,1609504840092547,2440005128,0.753472,-0.16592,0.16592,13.9825,1.715,-7.06125,-44.4,-3.392,-84.272,inter_set_rest,3,5.0,36676.0,46449.0,75461.0,101114.0,33187.0,55179.0,31712.0,56611.0,21646.0,19213.0
2026-05-06 15:49:36.627764,403363,1609504840101660,2440013988,0.753472,-0.16592,0.16592,14.595,1.93375,-6.5625,-44.4,-3.392,-84.272,inter_set_rest,3,5.0,36838.0,46612.0,75615.0,100945.0,33372.0,55293.0,31792.0,56479.0,21768.0,19309.0
2026-05-06 15:49:36.630024,403364,1609504840116232,2440028985,0.743712,-0.12688,0.17568,15.855001,1.32125,-6.62375,-44.408,-5.432,-83.104004,inter_set_rest,3,5.0,36838.0,46612.0,75615.0,100945.0,33372.0,55293.0,31792.0,56479.0,21768.0,19309.0
2026-05-06 15:49:36.632712,403365,1609504840125201,2440037756,0.743712,-0.12688,0.17568,16.2225,1.25125,-6.5275,-44.408,-5.432,-83.104004,inter_set_rest,3,5.0,36838.0,46612.0,75615.0,100945.0,33372.0,55293.0,31792.0,56479.0,21768.0,19309.0
2026-05-06 15:49:36.635229,403366,1609504840134201,2440046495,0.759328,-0.132736,0.13664,14.77875,0.385,-8.5925,-44.624,-5.84,-82.968,inter_set_rest,3,5.0,36838.0,46612.0,75615.0,100945.0,33372.0,55293.0,31792.0,56479.0,21768.0,19309.0
2026-05-06 15:49:36.649013,403367,1609504840148774,2440061484,0.759328,-0.132736,0.13664,11.7075,-0.2625,-9.7825,-44.624,-5.84,-82.968,inter_set_rest,3,5.0,36838.0,46612.0,75615.0,100945.0,33372.0,55293.0,31792.0,56479.0,21768.0,19309.0
2026-05-06 15:49:36.657749,403368,1609504840157776,2440070204,0.804224,-0.138592,0.191296,8.7675,-0.67375,-9.6075,-43.960003,-3.912,-84.608,inter_set_rest,3,5.0,36838.0,46612.0,75615.0,100945.0,33372.0,55293.0,31792.0,56479.0,21768.0,19309.0
2026-05-06 15:49:36.672300,403369,1609504840172306,2440083150,0.806176,-0.1464,0.162016,6.615,-1.4525,-8.8725,-44.208004,-3.936,-83.80801,inter_set_rest,3,5.0,36838.0,46612.0,75615.0,100945.0,33372.0,55293.0,31792.0,56479.0,21768.0,19309.0
2026-05-06 15:49:36.680104,403370,1609504840181710,2440093926,0.806176,-0.1464,0.162016,7.21,-2.7825,-8.40875,-44.208004,-3.936,-83.80801,inter_set_rest,3,5.0,36838.0,46612.0,75615.0,100945.0,33372.0,55293.0,31792.0,56479.0,21768.0,19309.0
2026-05-06 15:49:36.686408,403371,1609504840190687,2440102680,0.813984,-0.128832,0.130784,8.02375,-4.34875,-8.74125,-44.208004,-3.936,-83.80801,inter_set_rest,3,5.0,36838.0,46612.0,75615.0,100945.0,33372.0,55293.0,31792.0,56479.0,21768.0,19309.0
2026-05-06 15:49:36.716518,403382,1609504840205323,2440117709,0.813984,-0.128832,0.130784,8.89875,-5.83625,-8.68,-44.304,-3.592,-83.80801,inter_set_rest,3,5.0,36650.0,46443.0,75244.0,100737.0,33132.0,55052.0,31567.0,56294.0,21610.0,19142.0
2026-05-06 15:49:36.718965,403383,1609504840214353,2440126419,0.876448,-0.138592,0.181536,11.2525,-7.13125,-8.505,-44.488003,-7.736001,-82.16801,inter_set_rest,3,5.0,36650.0,46443.0,75244.0,100737.0,33132.0,55052.0,31567.0,56294.0,21610.0,19142.0
2026-05-06 15:49:36.725256,403384,1609504840228843,2440141395,0.876448,-0.138592,0.181536,12.7575,-8.60125,-8.015,-44.488003,-7.736001,-82.16801,inter_set_rest,3,5.0,36650.0,46443.0,75244.0,100737.0,33132.0,55052.0,31567.0,56294.0,21610.0,19142.0
2026-05-06 15:49:36.734009,403385,1609504840237774,2440150152,0.909632,-0.173728,0.18544,12.90625,-8.5575,-6.85125,-44.376003,-5.712,-83.624,inter_set_rest,3,5.0,36650.0,46443.0,75244.0,100737.0,33132.0,55052.0,31567.0,56294.0,21610.0,19142.0
2026-05-06 15:49:36.742740,403386,1609504840246833,2440158862,0.909632,-0.173728,0.18544,12.3025,-7.5075,-5.32875,-44.376003,-5.712,-83.624,inter_set_rest,3,5.0,36650.0,46443.0,75244.0,100737.0,33132.0,55052.0,31567.0,56294.0,21610.0,19142.0
2026-05-06 15:49:36.776424,403387,1609504840261369,2440173772,0.93696,-0.177632,0.167872,9.8,-6.83375,-5.24125,-44.304,-3.872,-84.43201,inter_set_rest,3,5.0,36650.0,46443.0,75244.0,100737.0,33132.0,55052.0,31567.0,56294.0,21610.0,19142.0
2026-05-06 15:49:36.778805,403388,1609504840270351,2440182534,0.93696,-0.177632,0.167872,9.835,-6.09,-4.61125,-44.304,-3.872,-84.43201,inter_set_rest,3,5.0,36650.0,46443.0,75244.0,100737.0,33132.0,55052.0,31567.0,56294.0,21610.0,19142.0
2026-05-06 15:49:36.781434,403389,1609504840284828,2440197478,0.968192,-0.167872,0.111264,9.292501,-5.495,-3.75375,-44.104004,-2.8,-83.536,inter_set_rest,3,5.0,36650.0,46443.0,75244.0,100737.0,33132.0,55052.0,31567.0,56294.0,21610.0,19142.0
2026-05-06 15:49:36.790110,403390,1609504840293769,2440206169,0.993568,-0.23424,0.128832,9.292501,-5.50375,-3.185,-44.624,-4.728,-83.72,inter_set_rest,3,5.0,36650.0,46443.0,75244.0,100737.0,33132.0,55052.0,31567.0,56294.0,21610.0,19142.0
2026-05-06 15:49:36.820134,403401,1609504840308533,2440221307,0.993568,-0.23424,0.128832,11.15625,-5.25875,-1.49625,-44.624,-4.728,-83.72,inter_set_rest,3,5.0,36767.0,46641.0,75344.0,100729.0,33221.0,55218.0,31604.0,56287.0,21601.0,19184.0
2026-05-06 15:49:36.822648,403402,1609504840317525,2440230060,0.98576,-0.259616,0.13664,10.115,-4.4625,0.79625,-44.304,-4.416,-83.84801,inter_set_rest,3,5.0,36767.0,46641.0,75344.0,100729.0,33221.0,55218.0,31604.0,56287.0,21601.0,19184.0
2026-05-06 15:49:36.825111,403403,1609504840326572,2440238785,0.98576,-0.259616,0.13664,9.33625,-3.42125,2.135,-44.304,-4.416,-83.84801,inter_set_rest,3,5.0,36767.0,46641.0,75344.0,100729.0,33221.0,55218.0,31604.0,56287.0,21601.0,19184.0
2026-05-06 15:49:36.838981,403404,1609504840341148,2440253806,0.976,-0.240096,0.179584,16.178751,-1.82875,7.49,-44.152,-4.128,-83.48801,inter_set_rest,3,5.0,36767.0,46641.0,75344.0,100729.0,33221.0,55218.0,31604.0,56287.0,21601.0,19184.0
2026-05-06 15:49:36.850305,403405,1609504840350131,2440262530,0.976,-0.240096,0.179584,12.71375,0.875,8.9075,-44.152,-4.128,-83.48801,inter_set_rest,3,5.0,36767.0,46641.0,75344.0,100729.0,33221.0,55218.0,31604.0,56287.0,21601.0,19184.0
2026-05-06 15:49:36.861397,403406,1609504840364620,2440275535,0.999424,-0.218624,0.171776,7.2275,2.38875,6.76375,-44.264004,-1.688,-85.672005,inter_set_rest,3,5.0,36767.0,46641.0,75344.0,100729.0,33221.0,55218.0,31604.0,56287.0,21601.0,19184.0
2026-05-06 15:49:36.875062,403407,1609504840374021,2440286305,0.981856,-0.259616,0.18544,3.5,4.41,7.0175,-44.192,-1.824,-84.72,inter_set_rest,3,5.0,36767.0,46641.0,75344.0,100729.0,33221.0,55218.0,31604.0,56287.0,21601.0,19184.0
2026-05-06 15:49:36.877598,403408,1609504840382951,2440295043,0.981856,-0.259616,0.18544,-1.44375,5.92375,8.68,-44.192,-1.824,-84.72,inter_set_rest,3,5.0,36767.0,46641.0,75344.0,100729.0,33221.0,55218.0,31604.0,56287.0,21601.0,19184.0
2026-05-06 15:49:36.978794,403419,1609504840398057,2440310107,0.974048,-0.316224,0.152256,-3.2375,6.895,11.45375,-44.280003,-1.384,-84.632,inter_set_rest,3,5.0,37070.0,46844.0,75714.0,100707.0,33467.0,55422.0,31796.0,56374.0,21715.0,19267.0
2026-05-06 15:49:36.981454,403420,1609504840407140,2440318860,0.974048,-0.316224,0.152256,-1.3825,8.225,15.23375,-44.280003,-1.384,-84.632,inter_set_rest,3,5.0,37070.0,46844.0,75714.0,100707.0,33467.0,55422.0,31796.0,56374.0,21715.0,19267.0
2026-05-06 15:49:36.983987,403421,1609504840421776,2440333874,0.913536,-0.314272,0.130784,2.59,8.58375,15.5925,-44.144,-1.264,-84.616005,inter_set_rest,3,5.0,37070.0,46844.0,75714.0,100707.0,33467.0,55422.0,31796.0,56374.0,21715.0,19267.0
2026-05-06 15:49:36.986545,403422,1609504840430724,2440342570,0.913536,-0.314272,0.130784,16.09125,7.84875,15.75,-44.144,-1.264,-84.616005,inter_set_rest,3,5.0,37070.0,46844.0,75714.0,100707.0,33467.0,55422.0,31796.0,56374.0,21715.0,19267.0
2026-05-06 15:49:36.988982,403423,1609504840439721,2440351298,0.866688,-0.21472,0.142496,13.37,8.11125,15.8025,-44.2,-0.472,-84.200005,inter_set_rest,3,5.0,37070.0,46844.0,75714.0,100707.0,33467.0,55422.0,31796.0,56374.0,21715.0,19267.0
2026-05-06 15:49:36.991570,403424,1609504840454209,2440366239,0.90768,-0.23424,0.169824,20.3,6.475,15.32125,-44.416,-0.376,-84.05601,inter_set_rest,3,5.0,37070.0,46844.0,75714.0,100707.0,33467.0,55422.0,31796.0,56374.0,21715.0,19267.0
2026-05-06 15:49:36.993990,403425,1609504840463099,2440374936,0.90768,-0.23424,0.169824,24.21125,5.11,12.6175,-44.416,-0.376,-84.05601,inter_set_rest,3,5.0,37070.0,46844.0,75714.0,100707.0,33467.0,55422.0,31796.0,56374.0,21715.0,19267.0
2026-05-06 15:49:36.996559,403426,1609504840477625,2440389831,0.886208,-0.201056,0.177632,19.34625,4.6375,11.78625,-44.592003,-0.12,-84.296005,inter_set_rest,3,5.0,37070.0,46844.0,75714.0,100707.0,33467.0,55422.0,31796.0,56374.0,21715.0,19267.0
2026-05-06 15:49:36.998871,403427,1609504840486547,2440398561,0.886208,-0.201056,0.177632,14.88375,4.515,13.16875,-44.592003,-0.12,-84.296005,inter_set_rest,3,5.0,37070.0,46844.0,75714.0,100707.0,33467.0,55422.0,31796.0,56374.0,21715.0,19267.0
2026-05-06 15:49:37.055090,403438,1609504840501311,2440413729,0.872544,-0.187392,0.183488,11.4975,4.4975,13.25625,-44.376003,-1.528,-82.880005,inter_set_rest,3,5.0,36803.0,46440.0,75336.0,99902.0,33392.0,55050.0,31643.0,55849.0,21776.0,19191.0
2026-05-06 15:49:37.057576,403439,1609504840510384,2440422546,0.872544,-0.187392,0.183488,6.46625,4.725,11.0075,-44.376003,-1.528,-82.880005,inter_set_rest,3,5.0,36803.0,46440.0,75336.0,99902.0,33392.0,55050.0,31643.0,55849.0,21776.0,19191.0
2026-05-06 15:49:37.060074,403440,1609504840519368,2440431280,0.845216,-0.228384,0.1464,4.61125,4.85625,11.12125,-44.112003,-1.968,-81.600006,inter_set_rest,3,5.0,36803.0,46440.0,75336.0,99902.0,33392.0,55050.0,31643.0,55849.0,21776.0,19191.0
2026-05-06 15:49:37.062459,403441,1609504840533882,2440446251,0.83936,-0.238144,0.169824,3.3425,4.34,11.13,-44.016003,0.872,-83.872,inter_set_rest,3,5.0,36803.0,46440.0,75336.0,99902.0,33392.0,55050.0,31643.0,55849.0,21776.0,19191.0
2026-05-06 15:49:37.065137,403442,1609504840542797,2440454964,0.83936,-0.238144,0.169824,4.66375,3.08,10.21125,-44.016003,0.872,-83.872,inter_set_rest,3,5.0,36803.0,46440.0,75336.0,99902.0,33392.0,55050.0,31643.0,55849.0,21776.0,19191.0
2026-05-06 15:49:37.067636,403443,1609504840557281,2440469872,0.837408,-0.20496,0.193248,6.50125,1.26,10.255,-43.832,0.984,-83.54401,inter_set_rest,3,5.0,36803.0,46440.0,75336.0,99902.0,33392.0,55050.0,31643.0,55849.0,21776.0,19191.0
2026-05-06 15:49:37.070212,403444,1609504840566216,2440478651,0.837408,-0.20496,0.193248,10.885,-0.3325,12.1625,-43.832,0.984,-83.54401,inter_set_rest,3,5.0,36803.0,46440.0,75336.0,99902.0,33392.0,55050.0,31643.0,55849.0,21776.0,19191.0
2026-05-06 15:49:37.072672,403445,1609504840575207,2440487383,0.845216,-0.21472,0.162016,12.792501,-0.98875,11.96125,-44.04,0.792,-82.912,inter_set_rest,3,5.0,36803.0,46440.0,75336.0,99902.0,33392.0,55050.0,31643.0,55849.0,21776.0,19191.0
2026-05-06 15:49:37.086231,403446,1609504840589813,2440502308,0.845216,-0.21472,0.162016,9.765,-0.18375,9.49375,-44.04,0.792,-82.912,inter_set_rest,3,5.0,36803.0,46440.0,75336.0,99902.0,33392.0,55050.0,31643.0,55849.0,21776.0,19191.0
2026-05-06 15:49:37.120236,403457,1609504840599311,2440511109,0.862784,-0.242048,0.181536,7.525,0.00875,10.14125,-43.912003,1.424,-83.304,inter_set_rest,3,5.0,36491.0,46081.0,75108.0,99593.0,33138.0,54824.0,31533.0,55670.0,21659.0,19113.0
2026-05-06 15:49:37.126210,403458,1609504840613928,2440526113,0.854976,-0.275232,0.1952,5.60875,0.83125,12.29375,-43.912003,1.424,-82.624,inter_set_rest,3,5.0,36491.0,46081.0,75108.0,99593.0,33138.0,54824.0,31533.0,55670.0,21659.0,19113.0
2026-05-06 15:49:37.126402,403459,1609504840622873,2440534860,0.854976,-0.275232,0.1952,3.50875,2.00375,12.20625,-44.184002,0.384,-82.624,inter_set_rest,3,5.0,36491.0,46081.0,75108.0,99593.0,33138.0,54824.0,31533.0,55670.0,21659.0,19113.0
2026-05-06 15:49:37.127518,403460,1609504840631970,2440543561,0.854976,-0.275232,0.1952,4.235,2.10875,11.89125,-44.184002,0.384,-82.624,inter_set_rest,3,5.0,36491.0,46081.0,75108.0,99593.0,33138.0,54824.0,31533.0,55670.0,21659.0,19113.0
2026-05-06 15:49:37.144932,403461,1609504840646496,2440558522,0.85888,-0.284992,0.22448,9.24,2.0125,10.50875,-43.856003,0.064,-82.616005,inter_set_rest,3,5.0,36491.0,46081.0,75108.0,99593.0,33138.0,54824.0,31533.0,55670.0,21659.0,19113.0
2026-05-06 15:49:37.151388,403462,1609504840655421,2440567255,0.872544,-0.265472,0.193248,16.9925,1.53125,11.025,-43.712,2.6,-84.768005,inter_set_rest,3,5.0,36491.0,46081.0,75108.0,99593.0,33138.0,54824.0,31533.0,55670.0,21659.0,19113.0
2026-05-06 15:49:37.185257,403463,1609504840669947,2440582185,0.872544,-0.265472,0.193248,14.95375,1.505,11.66375,-43.712,2.6,-84.768005,inter_set_rest,3,5.0,36491.0,46081.0,75108.0,99593.0,33138.0,54824.0,31533.0,55670.0,21659.0,19113.0
2026-05-06 15:49:37.187712,403464,1609504840679029,2440590906,0.854976,-0.269376,0.212768,12.45125,1.91625,11.06875,-43.736004,3.008,-83.592,inter_set_rest,3,5.0,36491.0,46081.0,75108.0,99593.0,33138.0,54824.0,31533.0,55670.0,21659.0,19113.0
2026-05-06 15:49:37.190208,403465,1609504840693524,2440605899,0.854976,-0.269376,0.212768,10.465,2.8525,9.485,-43.736004,3.008,-83.592,inter_set_rest,3,5.0,36491.0,46081.0,75108.0,99593.0,33138.0,54824.0,31533.0,55670.0,21659.0,19113.0
2026-05-06 15:49:37.220485,403476,1609504840702663,2440614672,0.882304,-0.2928,0.179584,5.88875,4.515,8.18125,-43.856003,2.92,-83.008,inter_set_rest,3,5.0,36375.0,45769.0,75009.0,99216.0,32999.0,54634.0,31509.0,55475.0,21599.0,19057.0
2026-05-06 15:49:37.222454,403477,1609504840711774,2440623472,0.882304,-0.2928,0.179584,-2.0825,6.44,7.13125,-43.856003,2.92,-83.008,inter_set_rest,3,5.0,36375.0,45769.0,75009.0,99216.0,32999.0,54634.0,31509.0,55475.0,21599.0,19057.0
2026-05-06 15:49:37.231778,403478,1609504840726283,2440638430,0.853024,-0.30256,0.1952,-7.14875,7.97125,6.825,-43.696003,-0.456,-80.744,inter_set_rest,3,5.0,36375.0,45769.0,75009.0,99216.0,32999.0,54634.0,31509.0,55475.0,21599.0,19057.0
2026-05-06 15:49:37.231920,403479,1609504840735267,2440647217,0.847168,-0.339648,0.18544,-5.46875,9.065,7.2625,-43.872,0.968,-81.408005,inter_set_rest,3,5.0,36375.0,45769.0,75009.0,99216.0,32999.0,54634.0,31509.0,55475.0,21599.0,19057.0
2026-05-06 15:49:37.253849,403480,1609504840749854,2440662238,0.847168,-0.339648,0.18544,-3.43,10.255,6.055,-43.872,0.968,-81.408005,inter_set_rest,3,5.0,36375.0,45769.0,75009.0,99216.0,32999.0,54634.0,31509.0,55475.0,21599.0,19057.0
2026-05-06 15:49:37.260078,403481,1609504840758740,2440670927,0.851072,-0.327936,0.199104,1.28625,10.87625,5.25875,-44.088,3.528,-82.600006,inter_set_rest,3,5.0,36375.0,45769.0,75009.0,99216.0,32999.0,54634.0,31509.0,55475.0,21599.0,19057.0
2026-05-06 15:49:37.263959,403482,1609504840767750,2440679618,0.851072,-0.327936,0.199104,6.195,11.43625,5.55625,-44.088,3.528,-82.600006,inter_set_rest,3,5.0,36375.0,45769.0,75009.0,99216.0,32999.0,54634.0,31509.0,55475.0,21599.0,19057.0
2026-05-06 15:49:37.302699,403483,1609504840782321,2440694526,0.86864,-0.327936,0.228384,12.11875,11.82125,4.99625,-44.096,2.12,-81.976006,inter_set_rest,3,5.0,36375.0,45769.0,75009.0,99216.0,32999.0,54634.0,31509.0,55475.0,21599.0,19057.0
2026-05-06 15:49:37.327457,403484,1609504840791294,2440703231,0.86864,-0.327936,0.228384,14.28,12.29375,4.01625,-44.096,2.12,-81.976006,inter_set_rest,3,5.0,36375.0,45769.0,75009.0,99216.0,32999.0,54634.0,31509.0,55475.0,21599.0,19057.0
2026-05-06 15:49:37.393957,403495,1609504840805861,2440718520,0.84912,-0.314272,0.220576,14.35,12.95875,3.22,-43.928,3.696,-82.37601,inter_set_rest,3,5.0,36361.0,45628.0,74943.0,98874.0,32909.0,54451.0,31433.0,55298.0,21552.0,18969.0
2026-05-06 15:49:37.396498,403496,1609504840814822,2440727213,0.84912,-0.314272,0.220576,15.33,14.11375,3.5175,-43.928,3.696,-82.37601,inter_set_rest,3,5.0,36361.0,45628.0,74943.0,98874.0,32909.0,54451.0,31433.0,55298.0,21552.0,18969.0
2026-05-06 15:49:37.398963,403497,1609504840829305,2440740112,0.84912,-0.32208,0.22448,15.1725,15.67125,3.35125,-43.920002,4.048,-80.232,inter_set_rest,3,5.0,36361.0,45628.0,74943.0,98874.0,32909.0,54451.0,31433.0,55298.0,21552.0,18969.0
2026-05-06 15:49:37.401537,403498,1609504840838527,2440750898,0.853024,-0.300608,0.23424,13.886251,17.3425,2.835,-44.176003,4.448,-82.240005,inter_set_rest,3,5.0,36361.0,45628.0,74943.0,98874.0,32909.0,54451.0,31433.0,55298.0,21552.0,18969.0
2026-05-06 15:49:37.403981,403499,1609504840847644,2440759619,0.853024,-0.300608,0.23424,13.4575,18.7425,2.975,-44.176003,4.448,-82.240005,inter_set_rest,3,5.0,36361.0,45628.0,74943.0,98874.0,32909.0,54451.0,31433.0,55298.0,21552.0,18969.0
2026-05-06 15:49:37.406497,403500,1609504840862310,2440774559,0.83936,-0.298656,0.222528,14.0875,19.43375,2.68625,-44.392002,4.496,-82.04,inter_set_rest,3,5.0,36361.0,45628.0,74943.0,98874.0,32909.0,54451.0,31433.0,55298.0,21552.0,18969.0
2026-05-06 15:49:37.408968,403501,1609504840871254,2440783249,0.83936,-0.298656,0.222528,15.4875,19.32,1.68875,-44.392002,4.496,-82.04,inter_set_rest,3,5.0,36361.0,45628.0,74943.0,98874.0,32909.0,54451.0,31433.0,55298.0,21552.0,18969.0
2026-05-06 15:49:37.411567,403502,1609504840885778,2440798294,0.827648,-0.300608,0.226432,16.02125,18.97,0.63,-44.408,4.232,-81.552,inter_set_rest,3,5.0,36361.0,45628.0,74943.0,98874.0,32909.0,54451.0,31433.0,55298.0,21552.0,18969.0
2026-05-06 15:49:37.416098,403503,1609504840894710,2440807009,0.827648,-0.300608,0.226432,14.4725,18.50625,0.27125,-44.408,4.232,-81.552,inter_set_rest,3,5.0,36361.0,45628.0,74943.0,98874.0,32909.0,54451.0,31433.0,55298.0,21552.0,18969.0
2026-05-06 15:49:37.443858,403514,1609504840903800,2440815774,0.81008,-0.269376,0.240096,12.845,19.1625,0.46375,-44.696003,1.888,-79.064,inter_set_rest,3,5.0,36243.0,45304.0,74627.0,98450.0,32724.0,54054.0,31266.0,55030.0,21439.0,18834.0
2026-05-06 15:49:37.448933,403515,1609504840918329,2440830744,0.802272,-0.261568,0.249856,12.78375,19.005,-0.09625,-45.112003,3.6,-79.75201,inter_set_rest,3,5.0,36243.0,45304.0,74627.0,98450.0,32724.0,54054.0,31266.0,55030.0,21439.0,18834.0
2026-05-06 15:49:37.451540,403516,1609504840927335,2440839470,0.802272,-0.261568,0.249856,12.5825,18.45375,-0.9625,-45.112003,3.6,-79.75201,inter_set_rest,3,5.0,36243.0,45304.0,74627.0,98450.0,32724.0,54054.0,31266.0,55030.0,21439.0,18834.0
2026-05-06 15:49:37.454016,403517,1609504840941951,2440854465,0.81008,-0.277184,0.2928,12.3025,18.3925,-1.5225,-44.848003,3.576,-79.592,inter_set_rest,3,5.0,36243.0,45304.0,74627.0,98450.0,32724.0,54054.0,31266.0,55030.0,21439.0,18834.0
2026-05-06 15:49:37.456560,403518,1609504840950938,2440863241,0.81008,-0.277184,0.2928,13.1425,18.29625,-2.275,-44.848003,3.576,-79.592,inter_set_rest,3,5.0,36243.0,45304.0,74627.0,98450.0,32724.0,54054.0,31266.0,55030.0,21439.0,18834.0
2026-05-06 15:49:37.462507,403519,1609504840965502,2440878198,0.769088,-0.288896,0.232288,15.21625,17.56125,-2.94,-45.064003,4.496,-80.68,inter_set_rest,3,5.0,36243.0,45304.0,74627.0,98450.0,32724.0,54054.0,31266.0,55030.0,21439.0,18834.0
2026-05-06 15:49:37.471514,403520,1609504840974414,2440886917,0.769088,-0.288896,0.232288,18.03375,16.00375,-3.64875,-45.064003,4.496,-80.68,inter_set_rest,3,5.0,36243.0,45304.0,74627.0,98450.0,32724.0,54054.0,31266.0,55030.0,21439.0,18834.0
2026-05-06 15:49:37.480249,403521,1609504840983317,2440895623,0.769088,-0.275232,0.277184,21.23625,14.41125,-4.3575,-45.384003,5.28,-77.84801,inter_set_rest,3,5.0,36243.0,45304.0,74627.0,98450.0,32724.0,54054.0,31266.0,55030.0,21439.0,18834.0
2026-05-06 15:49:37.493894,403522,1609504840997881,2440910577,0.759328,-0.20496,0.281088,26.5475,13.9125,-3.8325,-45.128002,5.480001,-79.12,inter_set_rest,3,5.0,36243.0,45304.0,74627.0,98450.0,32724.0,54054.0,31266.0,55030.0,21439.0,18834.0
2026-05-06 15:49:37.523792,403534,1609504841006853,2440919412,0.759328,-0.20496,0.281088,27.15125,14.5075,-4.61125,-45.128002,5.480001,-79.12,inter_set_rest,3,5.0,36163.0,45281.0,74579.0,98444.0,32599.0,53988.0,31247.0,54989.0,21405.0,18808.0
2026-05-06 15:49:37.526409,403535,1609504841021456,2440932275,0.76128,-0.220576,0.27328,24.89375,14.735,-7.455,-45.232002,5.168,-79.07201,inter_set_rest,3,5.0,36163.0,45281.0,74579.0,98444.0,32599.0,53988.0,31247.0,54989.0,21405.0,18808.0
2026-05-06 15:49:37.528699,403536,1609504841030743,2440943193,0.76128,-0.220576,0.27328,22.741251,15.21625,-10.03625,-45.232002,5.168,-79.07201,inter_set_rest,3,5.0,36163.0,45281.0,74579.0,98444.0,32599.0,53988.0,31247.0,54989.0,21405.0,18808.0
2026-05-06 15:49:37.537595,403537,1609504841039718,2440951954,0.763232,-0.255712,0.314272,17.61375,15.5575,-11.68125,-45.56,5.752,-79.104004,inter_set_rest,3,5.0,36163.0,45281.0,74579.0,98444.0,32599.0,53988.0,31247.0,54989.0,21405.0,18808.0
2026-05-06 15:49:37.551574,403538,1609504841054284,2440966853,0.763232,-0.255712,0.314272,15.96,15.25125,-12.1625,-45.56,5.752,-79.104004,inter_set_rest,3,5.0,36163.0,45281.0,74579.0,98444.0,32599.0,53988.0,31247.0,54989.0,21405.0,18808.0
2026-05-06 15:49:37.558995,403539,1609504841063195,2440975572,0.778848,-0.265472,0.300608,18.61125,14.035,-11.69,-45.960003,5.632,-78.90401,inter_set_rest,3,5.0,36163.0,45281.0,74579.0,98444.0,32599.0,53988.0,31247.0,54989.0,21405.0,18808.0
2026-05-06 15:49:37.572769,403540,1609504841077702,2440988609,0.79056,-0.232288,0.304512,22.47875,13.23875,-11.305,-45.960003,5.64,-79.392006,inter_set_rest,3,5.0,36163.0,45281.0,74579.0,98444.0,32599.0,53988.0,31247.0,54989.0,21405.0,18808.0
2026-05-06 15:49:37.586359,403541,1609504841087084,2440999393,0.79056,-0.232288,0.304512,26.29375,12.24125,-11.17375,-45.960003,5.64,-79.392006,inter_set_rest,3,5.0,36163.0,45281.0,74579.0,98444.0,32599.0,53988.0,31247.0,54989.0,21405.0,18808.0
2026-05-06 15:49:37.592735,403542,1609504841096029,2441008124,0.79056,-0.232288,0.304512,22.3125,12.87125,-11.45375,-45.960003,5.64,-79.392006,inter_set_rest,3,5.0,36163.0,45281.0,74579.0,98444.0,32599.0,53988.0,31247.0,54989.0,21405.0,18808.0
2026-05-06 15:49:37.623865,403553,1609504841110646,2441023136,0.776896,-0.208864,0.333792,19.78375,12.6875,-11.7075,-46.04,4.112,-78.0,inter_set_rest,3,5.0,35986.0,45069.0,74408.0,98248.0,32430.0,53749.0,31153.0,54896.0,21312.0,18721.0
2026-05-06 15:49:37.626465,403554,1609504841119715,2441031899,0.788608,-0.247904,0.33184,20.0725,12.1975,-11.24375,-46.072002,4.064,-77.104004,inter_set_rest,3,5.0,35986.0,45069.0,74408.0,98248.0,32430.0,53749.0,31153.0,54896.0,21312.0,18721.0
2026-05-06 15:49:37.630185,403555,1609504841134312,2441046829,0.788608,-0.247904,0.33184,20.83375,11.99625,-11.0775,-46.072002,4.064,-77.104004,inter_set_rest,3,5.0,35986.0,45069.0,74408.0,98248.0,32430.0,53749.0,31153.0,54896.0,21312.0,18721.0
2026-05-06 15:49:37.643688,403556,1609504841143354,2441055568,0.823744,-0.242048,0.355264,20.60625,12.0225,-10.57,-45.944004,3.792,-76.76,inter_set_rest,3,5.0,35986.0,45069.0,74408.0,98248.0,32430.0,53749.0,31153.0,54896.0,21312.0,18721.0
2026-05-06 15:49:37.658885,403557,1609504841157882,2441070472,0.823744,-0.226432,0.355264,21.81375,12.9675,-9.77375,-45.944004,3.792,-76.76,inter_set_rest,3,5.0,35986.0,45069.0,74408.0,98248.0,32430.0,53749.0,31153.0,54896.0,21312.0,18721.0
2026-05-06 15:49:37.684027,403558,1609504841166805,2441079186,0.817888,-0.226432,0.355264,21.647501,14.27125,-10.40375,-46.088,5.928001,-79.184006,inter_set_rest,3,5.0,35986.0,45069.0,74408.0,98248.0,32430.0,53749.0,31153.0,54896.0,21312.0,18721.0
2026-05-06 15:49:37.708945,403559,1609504841175713,2441087901,0.817888,-0.226432,0.355264,15.33,16.02125,-11.69,-46.088,5.928001,-79.184006,inter_set_rest,3,5.0,35986.0,45069.0,74408.0,98248.0,32430.0,53749.0,31153.0,54896.0,21312.0,18721.0
2026-05-06 15:49:37.733953,403560,1609504841190189,2441102900,0.815936,-0.240096,0.33184,15.98625,16.765,-11.042501,-46.320004,5.832,-77.416,inter_set_rest,3,5.0,35986.0,45069.0,74408.0,98248.0,32430.0,53749.0,31153.0,54896.0,21312.0,18721.0
2026-05-06 15:49:37.750238,403561,1609504841199126,2441111637,0.821792,-0.26352,0.38064,17.491251,17.5875,-9.1875,-46.528004,6.104,-77.344,inter_set_rest,3,5.0,35986.0,45069.0,74408.0,98248.0,32430.0,53749.0,31153.0,54896.0,21312.0,18721.0
2026-05-06 15:49:37.782539,403572,1609504841213768,2441124643,0.821792,-0.26352,0.38064,18.20875,18.5325,-10.08,-46.528004,6.104,-77.344,inter_set_rest,3,5.0,35874.0,44966.0,74374.0,98047.0,32285.0,53616.0,31129.0,54843.0,21250.0,18672.0
2026-05-06 15:49:37.784970,403573,1609504841223325,2441135482,0.815936,-0.251808,0.345504,20.58875,19.897501,-9.23125,-46.712,5.912,-76.656006,inter_set_rest,3,5.0,35874.0,44966.0,74374.0,98047.0,32285.0,53616.0,31129.0,54843.0,21250.0,18672.0
2026-05-06 15:49:37.787450,403574,1609504841232285,2441144182,0.815936,-0.251808,0.345504,22.155,21.11375,-8.6625,-46.712,5.912,-76.656006,inter_set_rest,3,5.0,35874.0,44966.0,74374.0,98047.0,32285.0,53616.0,31129.0,54843.0,21250.0,18672.0
2026-05-06 15:49:37.790014,403575,1609504841246876,2441159085,0.831552,-0.220576,0.402112,25.03375,22.05875,-8.6275,-46.784,5.992,-75.80801,inter_set_rest,3,5.0,35874.0,44966.0,74374.0,98047.0,32285.0,53616.0,31129.0,54843.0,21250.0,18672.0
2026-05-06 15:49:37.793268,403576,1609504841255839,2441167806,0.831552,-0.220576,0.402112,27.65,22.505,-8.09375,-46.784,5.992,-75.80801,inter_set_rest,3,5.0,35874.0,44966.0,74374.0,98047.0,32285.0,53616.0,31129.0,54843.0,21250.0,18672.0
2026-05-06 15:49:37.794742,403577,1609504841270519,2441182816,0.821792,-0.206912,0.337696,27.2125,23.0475,-7.81375,-46.864002,5.744,-75.568,inter_set_rest,3,5.0,35874.0,44966.0,74374.0,98047.0,32285.0,53616.0,31129.0,54843.0,21250.0,18672.0
2026-05-06 15:49:37.797272,403578,1609504841279503,2441191548,0.845216,-0.197152,0.386496,27.08125,23.33625,-7.49875,-47.296,6.272,-75.552,inter_set_rest,3,5.0,35874.0,44966.0,74374.0,98047.0,32285.0,53616.0,31129.0,54843.0,21250.0,18672.0
2026-05-06 15:49:37.800789,403579,1609504841288520,2441200298,0.845216,-0.197152,0.386496,24.26375,25.1125,-8.16375,-47.296,6.272,-75.552,inter_set_rest,3,5.0,35874.0,44966.0,74374.0,98047.0,32285.0,53616.0,31129.0,54843.0,21250.0,18672.0
2026-05-06 15:49:37.827597,403590,1609504841303761,2441215556,0.798368,-0.191296,0.353312,23.2225,26.81875,-9.14375,-47.016003,4.632,-73.504005,inter_set_rest,3,5.0,35942.0,44905.0,74347.0,97846.0,32363.0,53586.0,31165.0,54685.0,21322.0,18689.0
2026-05-06 15:49:37.830155,403591,1609504841312929,2441224443,0.798368,-0.191296,0.353312,24.94625,27.44,-10.12375,-47.016003,4.632,-73.504005,inter_set_rest,3,5.0,35942.0,44905.0,74347.0,97846.0,32363.0,53586.0,31165.0,54685.0,21322.0,18689.0
2026-05-06 15:49:37.832656,403592,1609504841327472,2441239462,0.802272,-0.203008,0.376736,26.241251,27.15125,-11.4275,-47.496002,3.376,-72.11201,inter_set_rest,3,5.0,35942.0,44905.0,74347.0,97846.0,32363.0,53586.0,31165.0,54685.0,21322.0,18689.0
2026-05-06 15:49:37.835151,403593,1609504841336498,2441248174,0.802272,-0.203008,0.376736,28.411251,26.85375,-11.69,-47.496002,3.376,-72.11201,inter_set_rest,3,5.0,35942.0,44905.0,74347.0,97846.0,32363.0,53586.0,31165.0,54685.0,21322.0,18689.0
2026-05-06 15:49:37.841519,403594,1609504841345438,2441256927,0.812032,-0.197152,0.421632,29.8725,26.67,-11.40125,-48.04,2.696,-71.672005,inter_set_rest,3,5.0,35942.0,44905.0,74347.0,97846.0,32363.0,53586.0,31165.0,54685.0,21322.0,18689.0
2026-05-06 15:49:37.855275,403595,1609504841359934,2441271854,0.808128,-0.154208,0.443104,29.1725,27.09,-11.5675,-48.04,6.592001,-74.392006,inter_set_rest,3,5.0,35942.0,44905.0,74347.0,97846.0,32363.0,53586.0,31165.0,54685.0,21322.0,18689.0
2026-05-06 15:49:37.869001,403596,1609504841368849,2441280633,0.808128,-0.154208,0.443104,28.2975,27.37875,-11.4625,-47.736004,6.592001,-74.392006,inter_set_rest,3,5.0,35942.0,44905.0,74347.0,97846.0,32363.0,53586.0,31165.0,54685.0,21322.0,18689.0
2026-05-06 15:49:37.880254,403597,1609504841383345,2441295599,0.788608,-0.152256,0.452864,29.05875,27.973751,-11.9875,-47.912003,6.424,-72.600006,inter_set_rest,3,5.0,35942.0,44905.0,74347.0,97846.0,32363.0,53586.0,31165.0,54685.0,21322.0,18689.0
2026-05-06 15:49:37.890699,403598,1609504841392309,2441304320,0.788608,-0.152256,0.452864,28.6825,28.647501,-13.125,-47.912003,6.424,-72.600006,inter_set_rest,3,5.0,35942.0,44905.0,74347.0,97846.0,32363.0,53586.0,31165.0,54685.0,21322.0,18689.0
2026-05-06 15:49:37.925041,403609,1609504841406966,2441319313,0.782752,-0.15616,0.470432,25.78625,29.723751,-14.9275,-48.136,5.744,-71.152,inter_set_rest,3,5.0,35950.0,44896.0,74367.0,97912.0,32345.0,53463.0,31170.0,54631.0,21340.0,18691.0
2026-05-06 15:49:37.927246,403610,1609504841416017,2441328065,0.782752,-0.15616,0.470432,23.135,30.275,-16.23125,-48.136,5.744,-71.152,inter_set_rest,3,5.0,35950.0,44896.0,74367.0,97912.0,32345.0,53463.0,31170.0,54631.0,21340.0,18691.0
2026-05-06 15:49:37.929749,403611,1609504841425003,2441336990,0.763232,-0.163968,0.456768,21.8925,30.40625,-17.395,-48.192,3.672,-70.152,inter_set_rest,3,5.0,35950.0,44896.0,74367.0,97912.0,32345.0,53463.0,31170.0,54631.0,21340.0,18691.0
2026-05-06 15:49:37.936174,403612,1609504841439481,2441351942,0.763232,-0.163968,0.456768,21.83125,30.56375,-17.535,-48.192,3.672,-70.152,inter_set_rest,3,5.0,35950.0,44896.0,74367.0,97912.0,32345.0,53463.0,31170.0,54631.0,21340.0,18691.0
2026-05-06 15:49:37.944857,403613,1609504841448413,2441360758,0.767136,-0.177632,0.45872,26.2675,30.1,-18.0775,-48.760002,5.808,-71.272,inter_set_rest,3,5.0,35950.0,44896.0,74367.0,97912.0,32345.0,53463.0,31170.0,54631.0,21340.0,18691.0
2026-05-06 15:49:37.961152,403614,1609504841462939,2441373717,0.774944,-0.12688,0.486048,30.70375,30.817501,-19.27625,-48.632004,5.536,-70.152,inter_set_rest,3,5.0,35950.0,44896.0,74367.0,97912.0,32345.0,53463.0,31170.0,54631.0,21340.0,18691.0
2026-05-06 15:49:37.967281,403615,1609504841472164,2441384550,0.774944,-0.12688,0.486048,29.46125,32.6025,-21.14,-48.632004,5.536,-70.152,inter_set_rest,3,5.0,35950.0,44896.0,74367.0,97912.0,32345.0,53463.0,31170.0,54631.0,21340.0,18691.0
2026-05-06 15:49:37.978636,403616,1609504841481145,2441393260,0.77104,-0.130784,0.466528,27.991251,34.4575,-23.5725,-49.072002,5.784,-67.32,inter_set_rest,3,5.0,35950.0,44896.0,74367.0,97912.0,32345.0,53463.0,31170.0,54631.0,21340.0,18691.0
2026-05-06 15:49:37.992594,403617,1609504841495642,2441408153,0.77104,-0.130784,0.466528,29.925,35.455,-25.03375,-49.072002,5.784,-67.32,inter_set_rest,3,5.0,35950.0,44896.0,74367.0,97912.0,32345.0,53463.0,31170.0,54631.0,21340.0,18691.0
2026-05-06 15:49:38.079906,403628,1609504841504914,2441416958,0.763232,-0.1464,0.491904,29.723751,36.82,-25.82125,-49.480003,4.776,-68.936005,inter_set_rest,3,5.0,35804.0,44763.0,74152.0,97787.0,32190.0,53246.0,30996.0,54523.0,21254.0,18592.0
2026-05-06 15:49:38.083785,403629,1609504841519514,2441432010,0.763232,-0.1464,0.491904,30.1525,37.3625,-27.09,-49.480003,4.776,-68.936005,inter_set_rest,3,5.0,35804.0,44763.0,74152.0,97787.0,32190.0,53246.0,30996.0,54523.0,21254.0,18592.0
2026-05-06 15:49:38.086435,403630,1609504841528643,2441440854,0.769088,-0.115168,0.540704,30.66,38.3075,-28.27125,-49.464,1.424,-65.312004,inter_set_rest,3,5.0,35804.0,44763.0,74152.0,97787.0,32190.0,53246.0,30996.0,54523.0,21254.0,18592.0
2026-05-06 15:49:38.088794,403631,1609504841543235,2441455802,0.802272,-0.085888,0.49776,33.17125,39.10375,-29.4525,-49.944004,4.864,-67.864006,inter_set_rest,3,5.0,35804.0,44763.0,74152.0,97787.0,32190.0,53246.0,30996.0,54523.0,21254.0,18592.0
2026-05-06 15:49:38.091325,403632,1609504841552314,2441464527,0.802272,-0.085888,0.49776,33.4775,40.74875,-30.380001,-49.944004,4.864,-67.864006,inter_set_rest,3,5.0,35804.0,44763.0,74152.0,97787.0,32190.0,53246.0,30996.0,54523.0,21254.0,18592.0
2026-05-06 15:49:38.093614,403633,1609504841561299,2441473234,0.817888,-0.031232,0.591456,31.8675,42.385,-32.22625,-49.944004,4.864,-68.232,inter_set_rest,3,5.0,35804.0,44763.0,74152.0,97787.0,32190.0,53246.0,30996.0,54523.0,21254.0,18592.0
2026-05-06 15:49:38.096245,403634,1609504841575875,2441488234,0.817888,-0.031232,0.591456,29.21625,44.28375,-35.23625,-49.920002,4.192,-68.232,inter_set_rest,3,5.0,35804.0,44763.0,74152.0,97787.0,32190.0,53246.0,30996.0,54523.0,21254.0,18592.0
2026-05-06 15:49:38.098636,403635,1609504841584859,2441496966,0.769088,-0.089792,0.562176,29.2425,44.40625,-37.35375,-50.032,3.536,-65.952,inter_set_rest,3,5.0,35804.0,44763.0,74152.0,97787.0,32190.0,53246.0,30996.0,54523.0,21254.0,18592.0
2026-05-06 15:49:38.101194,403636,1609504841599417,2441511888,0.769088,-0.089792,0.562176,32.22625,43.1725,-39.52375,-50.032,3.536,-65.952,inter_set_rest,3,5.0,35804.0,44763.0,74152.0,97787.0,32190.0,53246.0,30996.0,54523.0,21254.0,18592.0
2026-05-06 15:49:38.128880,403647,1609504841608452,2441520690,0.757376,-0.060512,0.573888,32.89125,41.06375,-41.04625,-50.392002,2.624,-63.824,inter_set_rest,3,5.0,35637.0,44678.0,74185.0,97867.0,32047.0,53142.0,31022.0,54628.0,21149.0,18530.0
2026-05-06 15:49:38.131576,403648,1609504841617632,2441529478,0.757376,-0.060512,0.573888,31.115,40.41625,-41.93875,-50.392002,2.624,-63.824,inter_set_rest,3,5.0,35637.0,44678.0,74185.0,97867.0,32047.0,53142.0,31022.0,54628.0,21149.0,18530.0
2026-05-06 15:49:38.133991,403649,1609504841632220,2441544537,0.80032,0.021472,0.573888,35.32375,39.7425,-40.845,-50.296,2.208,-64.928,inter_set_rest,3,5.0,35637.0,44678.0,74185.0,97867.0,32047.0,53142.0,31022.0,54628.0,21149.0,18530.0
2026-05-06 15:49:38.136362,403650,1609504841641330,2441553301,0.80032,0.021472,0.573888,31.3775,40.985,-41.27375,-50.296,2.208,-64.928,inter_set_rest,3,5.0,35637.0,44678.0,74185.0,97867.0,32047.0,53142.0,31022.0,54628.0,21149.0,18530.0
2026-05-06 15:49:38.170050,403651,1609504841655803,2441568243,0.732,0.03904,0.562176,30.6775,41.4925,-44.7475,-51.000004,1.76,-66.216,inter_set_rest,3,5.0,35637.0,44678.0,74185.0,97867.0,32047.0,53142.0,31022.0,54628.0,21149.0,18530.0
2026-05-06 15:49:38.172975,403652,1609504841664722,2441576942,0.714432,-0.027328,0.581696,33.215,40.41625,-47.845,-51.232002,-0.76,-63.304005,inter_set_rest,3,5.0,35637.0,44678.0,74185.0,97867.0,32047.0,53142.0,31022.0,54628.0,21149.0,18530.0
2026-05-06 15:49:38.175230,403653,1609504841673722,2441585741,0.714432,-0.027328,0.581696,37.19625,39.38375,-48.685,-51.232002,-0.76,-63.304005,inter_set_rest,3,5.0,35637.0,44678.0,74185.0,97867.0,32047.0,53142.0,31022.0,54628.0,21149.0,18530.0
2026-05-06 15:49:38.185187,403654,1609504841688269,2441600658,0.726144,0.03904,0.562176,39.9525,39.64625,-47.20625,-51.416004,-1.944,-60.992004,inter_set_rest,3,5.0,35637.0,44678.0,74185.0,97867.0,32047.0,53142.0,31022.0,54628.0,21149.0,18530.0
2026-05-06 15:49:38.193867,403655,1609504841697246,2441609371,0.726144,0.03904,0.562176,43.0675,40.73125,-45.0625,-51.416004,-1.944,-60.992004,inter_set_rest,3,5.0,35637.0,44678.0,74185.0,97867.0,32047.0,53142.0,31022.0,54628.0,21149.0,18530.0
2026-05-06 15:49:38.225237,403666,1609504841711825,2441624444,0.704672,0.122976,0.568032,46.47125,42.6475,-46.31375,-51.096,-1.12,-61.752003,inter_set_rest,3,5.0,35785.0,44994.0,74669.0,98510.0,32154.0,53470.0,31242.0,54917.0,21186.0,18638.0
2026-05-06 15:49:38.227580,403667,1609504841720837,2441633300,0.704672,0.122976,0.568032,49.60375,43.25125,-47.4075,-51.096,-1.12,-61.752003,inter_set_rest,3,5.0,35785.0,44994.0,74669.0,98510.0,32154.0,53470.0,31242.0,54917.0,21186.0,18638.0
2026-05-06 15:49:38.230225,403668,1609504841735373,2441646253,0.687104,0.103456,0.548512,49.28,42.4375,-47.845,-51.464,-2.744,-59.952003,inter_set_rest,3,5.0,35785.0,44994.0,74669.0,98510.0,32154.0,53470.0,31242.0,54917.0,21186.0,18638.0
2026-05-06 15:49:38.243894,403669,1609504841744697,2441657075,0.632448,0.128832,0.56608,44.87,42.105,-44.5375,-51.544003,-3.568,-59.000004,inter_set_rest,3,5.0,35785.0,44994.0,74669.0,98510.0,32154.0,53470.0,31242.0,54917.0,21186.0,18638.0
2026-05-06 15:49:38.250268,403670,1609504841753604,2441665835,0.632448,0.128832,0.56608,43.925,42.63,-49.201252,-51.544003,-3.568,-59.000004,inter_set_rest,3,5.0,35785.0,44994.0,74669.0,98510.0,32154.0,53470.0,31242.0,54917.0,21186.0,18638.0
2026-05-06 15:49:38.283851,403671,1609504841768101,2441680761,0.601216,0.22448,0.587552,36.855,45.64,-54.76625,-51.464,-2.912,-59.856003,inter_set_rest,3,5.0,35785.0,44994.0,74669.0,98510.0,32154.0,53470.0,31242.0,54917.0,21186.0,18638.0
2026-05-06 15:49:38.288857,403672,1609504841777061,2441689499,0.601216,0.22448,0.587552,37.94875,48.37875,-54.67875,-51.464,-2.912,-59.856003,inter_set_rest,3,5.0,35785.0,44994.0,74669.0,98510.0,32154.0,53470.0,31242.0,54917.0,21186.0,18638.0
2026-05-06 15:49:38.291393,403673,1609504841791576,2441702374,0.519232,0.1952,0.638304,41.1425,49.09625,-56.7525,-51.752003,-3.808,-58.904003,inter_set_rest,3,5.0,35785.0,44994.0,74669.0,98510.0,32154.0,53470.0,31242.0,54917.0,21186.0,18638.0
2026-05-06 15:49:38.297605,403674,1609504841800853,2441713320,0.519232,0.1952,0.638304,42.3325,48.58875,-58.61625,-51.752003,-3.808,-58.904003,inter_set_rest,3,5.0,35785.0,44994.0,74669.0,98510.0,32154.0,53470.0,31242.0,54917.0,21186.0,18638.0
2026-05-06 15:49:38.349978,403685,1609504841809937,2441722697,0.528992,0.2928,0.745664,26.34625,49.04375,-57.23375,-51.728,-7.28,-57.912003,inter_set_rest,3,5.0,35803.0,45047.0,74937.0,99513.0,32125.0,53456.0,31357.0,55376.0,21153.0,18622.0
2026-05-06 15:49:38.354595,403686,1609504841824473,2441735643,0.534848,0.277184,0.851072,-7.0175,49.93625,-53.50625,-51.272003,-5.272,-56.384003,inter_set_rest,3,5.0,35803.0,45047.0,74937.0,99513.0,32125.0,53456.0,31357.0,55376.0,21153.0,18622.0
2026-05-06 15:49:38.354862,403687,1609504841833934,2441746425,0.534848,0.277184,0.851072,-4.8125,45.482502,-43.91625,-51.272003,-5.272,-56.384003,inter_set_rest,3,5.0,35803.0,45047.0,74937.0,99513.0,32125.0,53456.0,31357.0,55376.0,21153.0,18622.0
2026-05-06 15:49:38.360373,403688,1609504841848436,2441759285,0.472384,0.339648,0.944768,-11.80375,41.7375,-41.27375,-51.528004,-5.976,-56.832005,inter_set_rest,3,5.0,35803.0,45047.0,74937.0,99513.0,32125.0,53456.0,31357.0,55376.0,21153.0,18622.0
2026-05-06 15:49:38.360462,403689,1609504841857873,2441770186,0.472384,0.339648,0.944768,-20.23875,36.26875,-44.6775,-51.528004,-5.976,-56.832005,inter_set_rest,3,5.0,35803.0,45047.0,74937.0,99513.0,32125.0,53456.0,31357.0,55376.0,21153.0,18622.0
2026-05-06 15:49:38.363145,403690,1609504841866796,2441778915,0.747616,0.562176,1.020896,-35.23625,32.62875,-43.33,-51.320004,-6.36,-56.544003,inter_set_rest,3,5.0,35803.0,45047.0,74937.0,99513.0,32125.0,53456.0,31357.0,55376.0,21153.0,18622.0
2026-05-06 15:49:38.403980,403691,1609504841881337,2441793824,0.747616,0.562176,1.020896,-77.02625,27.6675,-23.17,-51.320004,-6.36,-56.544003,inter_set_rest,3,5.0,35803.0,45047.0,74937.0,99513.0,32125.0,53456.0,31357.0,55376.0,21153.0,18622.0
2026-05-06 15:49:38.428888,403692,1609504841890254,2441802549,0.255712,0.021472,0.704672,-65.808754,34.195,-20.57125,-51.36,-7.216001,-54.928,inter_set_rest,3,5.0,35803.0,45047.0,74937.0,99513.0,32125.0,53456.0,31357.0,55376.0,21153.0,18622.0
2026-05-06 15:49:38.477497,403703,1609504841904890,2441817499,0.4392,-0.228384,0.808128,-46.69,32.69875,-63.035,-51.464,-8.528001,-55.568,inter_set_rest,3,5.0,34451.0,44708.0,74647.0,98439.0,31041.0,53401.0,31167.0,55325.0,20545.0,18545.0
2026-05-06 15:49:38.479952,403704,1609504841914031,2441826249,0.4392,-0.228384,0.808128,-12.60875,29.6975,-88.52375,-51.464,-8.528001,-55.568,inter_set_rest,3,5.0,34451.0,44708.0,74647.0,98439.0,31041.0,53401.0,31167.0,55325.0,20545.0,18545.0
2026-05-06 15:49:38.482265,403705,1609504841923034,2441835061,0.4392,-0.228384,0.808128,23.91375,31.66625,-62.2475,-51.464,-8.528001,-55.568,inter_set_rest,3,5.0,34451.0,44708.0,74647.0,98439.0,31041.0,53401.0,31167.0,55325.0,20545.0,18545.0
2026-05-06 15:49:38.484745,403706,1609504841937513,2441849963,0.632448,0.259616,0.786656,75.24125,32.97,-26.95875,-51.056004,-8.944,-54.032,inter_set_rest,3,5.0,34451.0,44708.0,74647.0,98439.0,31041.0,53401.0,31167.0,55325.0,20545.0,18545.0
2026-05-06 15:49:38.487475,403707,1609504841946437,2441858689,0.5856,0.597312,0.696864,96.81875,30.79125,-26.1625,-51.016003,-9.568001,-54.680004,inter_set_rest,3,5.0,34451.0,44708.0,74647.0,98439.0,31041.0,53401.0,31167.0,55325.0,20545.0,18545.0
2026-05-06 15:49:38.489975,403708,1609504841960916,2441873613,0.5856,0.597312,0.696864,86.7825,30.17,-44.7125,-51.016003,-9.568001,-54.680004,inter_set_rest,3,5.0,34451.0,44708.0,74647.0,98439.0,31041.0,53401.0,31167.0,55325.0,20545.0,18545.0
2026-05-06 15:49:38.494944,403709,1609504841969893,2441882388,0.491904,0.542656,0.626592,59.87625,32.585,-55.43125,-51.144,-13.152,-51.88,inter_set_rest,3,5.0,34451.0,44708.0,74647.0,98439.0,31041.0,53401.0,31167.0,55325.0,20545.0,18545.0
2026-05-06 15:49:38.497633,403710,1609504841984610,2441897351,0.528992,0.413824,0.6832,20.58,37.79125,-52.605,-51.144,-15.200001,-51.504,inter_set_rest,3,5.0,34451.0,44708.0,74647.0,98439.0,31041.0,53401.0,31167.0,55325.0,20545.0,18545.0
2026-05-06 15:49:38.502646,403711,1609504841993645,2441906073,0.528992,0.413824,0.6832,-10.745,39.10375,-48.93,-50.616,-15.072001,-51.504,inter_set_rest,3,5.0,34451.0,44708.0,74647.0,98439.0,31041.0,53401.0,31167.0,55325.0,20545.0,18545.0
2026-05-06 15:49:38.505141,403712,1609504842002653,2441914853,0.528992,0.413824,0.6832,-19.31125,37.9225,-49.13125,-50.616,-15.072001,-51.504,inter_set_rest,3,5.0,34451.0,44708.0,74647.0,98439.0,31041.0,53401.0,31167.0,55325.0,20545.0,18545.0
2026-05-06 15:49:38.532728,403723,1609504842017371,2441930187,0.462624,0.50752,0.812032,-19.39,33.6525,-45.4125,-50.336002,-12.232,-52.728,inter_set_rest,3,5.0,35969.0,45781.0,75879.0,100684.0,32223.0,54237.0,31800.0,56225.0,21112.0,18813.0
2026-05-06 15:49:38.535225,403724,1609504842026325,2441938952,0.386496,0.160064,0.708576,-26.97625,30.905,-33.87125,-50.584003,-15.936001,-49.784004,inter_set_rest,3,5.0,35969.0,45781.0,75879.0,100684.0,32223.0,54237.0,31800.0,56225.0,21112.0,18813.0
2026-05-06 15:49:38.537694,403725,1609504842040869,2441951975,0.386496,0.160064,0.708576,-41.18625,29.3475,-32.357502,-50.584003,-15.936001,-49.784004,inter_set_rest,3,5.0,35969.0,45781.0,75879.0,100684.0,32223.0,54237.0,31800.0,56225.0,21112.0,18813.0
2026-05-06 15:49:38.553728,403726,1609504842050253,2441962774,0.530944,0.300608,0.808128,-42.00875,27.755001,-44.63375,-50.408,-15.52,-51.192,inter_set_rest,3,5.0,35969.0,45781.0,75879.0,100684.0,32223.0,54237.0,31800.0,56225.0,21112.0,18813.0
2026-05-06 15:49:38.556429,403727,1609504842059277,2441971580,0.530944,0.300608,0.808128,-35.48125,31.036251,-41.65875,-50.408,-15.52,-51.192,inter_set_rest,3,5.0,35969.0,45781.0,75879.0,100684.0,32223.0,54237.0,31800.0,56225.0,21112.0,18813.0
2026-05-06 15:49:38.570107,403728,1609504842073963,2441986628,0.45872,0.35136,0.970144,-23.07375,29.84625,-41.53625,-50.664,-15.376,-50.592003,inter_set_rest,3,5.0,35969.0,45781.0,75879.0,100684.0,32223.0,54237.0,31800.0,56225.0,21112.0,18813.0
2026-05-06 15:49:38.578668,403729,1609504842082910,2441995329,0.45872,0.35136,0.970144,-20.72875,28.65625,-43.6625,-50.664,-15.376,-50.592003,inter_set_rest,3,5.0,35969.0,45781.0,75879.0,100684.0,32223.0,54237.0,31800.0,56225.0,21112.0,18813.0
2026-05-06 15:49:38.592636,403730,1609504842097430,2442008191,0.44896,0.407968,0.892064,-23.59875,27.895,-41.055,-49.656002,-14.960001,-51.536003,inter_set_rest,3,5.0,35969.0,45781.0,75879.0,100684.0,32223.0,54237.0,31800.0,56225.0,21112.0,18813.0
2026-05-06 15:49:38.629847,403741,1609504842106623,2442018937,0.56608,0.411872,0.837408,-21.62125,26.95,-41.4925,-49.352,-15.496,-53.104004,inter_set_rest,3,5.0,34779.0,46259.0,74703.0,99506.0,31351.0,55010.0,31216.0,55807.0,20666.0,19187.0
2026-05-06 15:49:38.632428,403742,1609504842115980,2442027674,0.56608,0.411872,0.837408,-4.34,28.7525,-44.80875,-49.352,-15.496,-53.104004,inter_set_rest,3,5.0,34779.0,46259.0,74703.0,99506.0,31351.0,55010.0,31216.0,55807.0,20666.0,19187.0
2026-05-06 15:49:38.634780,403743,1609504842130517,2442042687,0.577792,0.142496,0.716384,15.12,35.84875,-52.2375,-49.24,-16.576,-50.712,inter_set_rest,3,5.0,34779.0,46259.0,74703.0,99506.0,31351.0,55010.0,31216.0,55807.0,20666.0,19187.0
2026-05-06 15:49:38.637297,403744,1609504842139598,2442051401,0.577792,0.142496,0.716384,21.32375,38.64,-57.2075,-49.24,-16.576,-50.712,inter_set_rest,3,5.0,34779.0,46259.0,74703.0,99506.0,31351.0,55010.0,31216.0,55807.0,20666.0,19187.0
2026-05-06 15:49:38.651333,403745,1609504842154121,2442066352,0.52704,0.376736,0.60512,17.1675,40.25875,-57.58375,-49.224003,-17.496,-49.768,inter_set_rest,3,5.0,34779.0,46259.0,74703.0,99506.0,31351.0,55010.0,31216.0,55807.0,20666.0,19187.0
2026-05-06 15:49:38.660094,403746,1609504842163078,2442075061,0.52704,0.376736,0.60512,-0.3675,42.88375,-51.9575,-49.224003,-17.496,-49.768,inter_set_rest,3,5.0,34779.0,46259.0,74703.0,99506.0,31351.0,55010.0,31216.0,55807.0,20666.0,19187.0
2026-05-06 15:49:38.671475,403747,1609504842172042,2442083813,0.612928,0.2928,0.796416,-13.1075,48.1425,-47.38125,-48.344,-17.976002,-49.024002,inter_set_rest,3,5.0,34779.0,46259.0,74703.0,99506.0,31351.0,55010.0,31216.0,55807.0,20666.0,19187.0
2026-05-06 15:49:38.685131,403748,1609504842186644,2442098859,0.435296,0.238144,0.84912,-26.18,61.6875,-47.38125,-48.160004,-18.720001,-49.352,inter_set_rest,3,5.0,34779.0,46259.0,74703.0,99506.0,31351.0,55010.0,31216.0,55807.0,20666.0,19187.0
2026-05-06 15:49:38.691545,403749,1609504842195539,2442107569,0.435296,0.238144,0.84912,-47.11875,70.7,-54.32,-48.160004,-18.720001,-49.352,inter_set_rest,3,5.0,34779.0,46259.0,74703.0,99506.0,31351.0,55010.0,31216.0,55807.0,20666.0,19187.0
2026-05-06 15:49:38.737665,403760,1609504842210105,2442120914,0.183488,0.144448,0.651968,-59.325,70.175,-66.01,-47.08,-19.152,-46.760002,inter_set_rest,3,5.0,34778.0,47168.0,74383.0,99420.0,31394.0,55913.0,31043.0,55697.0,20650.0,19534.0
2026-05-06 15:49:38.742637,403761,1609504842219456,2442131895,0.183488,0.144448,0.651968,-45.43875,66.9725,-69.22125,-47.08,-19.152,-46.760002,inter_set_rest,3,5.0,34778.0,47168.0,74383.0,99420.0,31394.0,55913.0,31043.0,55697.0,20650.0,19534.0
2026-05-06 15:49:38.745413,403762,1609504842228424,2442140604,0.304512,0.255712,0.36112,-37.45,58.2925,-58.98375,-46.808002,-21.52,-45.160004,inter_set_rest,3,5.0,34778.0,47168.0,74383.0,99420.0,31394.0,55913.0,31043.0,55697.0,20650.0,19534.0
2026-05-06 15:49:38.747710,403763,1609504842243034,2442155607,0.304512,0.255712,0.36112,-43.732502,60.865,-39.5675,-46.808002,-21.52,-45.160004,inter_set_rest,3,5.0,34778.0,47168.0,74383.0,99420.0,31394.0,55913.0,31043.0,55697.0,20650.0,19534.0
2026-05-06 15:49:38.772414,403764,1609504842252012,2442164388,0.290848,0.365024,0.636352,-42.07875,56.385002,-42.11375,-46.632004,-21.992,-44.296,inter_set_rest,3,5.0,34778.0,47168.0,74383.0,99420.0,31394.0,55913.0,31043.0,55697.0,20650.0,19534.0
2026-05-06 15:49:38.797703,403765,1609504842266504,2442177257,0.290848,0.220576,0.651968,-48.195,65.4325,-56.5425,-46.632004,-21.992,-46.344,inter_set_rest,3,5.0,34778.0,47168.0,74383.0,99420.0,31394.0,55913.0,31043.0,55697.0,20650.0,19534.0
2026-05-06 15:49:38.813976,403766,1609504842275670,2442188035,0.111264,0.220576,0.651968,-37.065,55.57125,-65.93125,-45.616,-20.368,-46.008003,inter_set_rest,3,5.0,34778.0,47168.0,74383.0,99420.0,31394.0,55913.0,31043.0,55697.0,20650.0,19534.0
2026-05-06 15:49:38.816544,403767,1609504842290151,2442200952,0.150304,0.056608,0.70272,-55.055,56.7,-46.357502,-45.424004,-20.096,-43.736004,inter_set_rest,3,5.0,34778.0,47168.0,74383.0,99420.0,31394.0,55913.0,31043.0,55697.0,20650.0,19534.0
2026-05-06 15:49:38.819007,403768,1609504842299378,2442211853,0.150304,0.056608,0.70272,-66.08,51.42375,-35.735,-45.424004,-20.096,-43.736004,inter_set_rest,3,5.0,34778.0,47168.0,74383.0,99420.0,31394.0,55913.0,31043.0,55697.0,20650.0,19534.0
2026-05-06 15:49:38.846432,403779,1609504842308682,2442220551,0.132736,0.247904,0.851072,-60.27875,55.97375,-29.49625,-44.536003,-20.800001,-41.640003,inter_set_rest,3,5.0,34890.0,48154.0,72504.0,99886.0,31603.0,57106.0,30173.0,55919.0,20903.0,20148.0
2026-05-06 15:49:38.848870,403780,1609504842323304,2442235500,0.132736,0.247904,0.851072,-39.78625,61.76625,-35.72625,-44.536003,-20.800001,-41.640003,inter_set_rest,3,5.0,34890.0,48154.0,72504.0,99886.0,31603.0,57106.0,30173.0,55919.0,20903.0,20148.0
2026-05-06 15:49:38.851439,403781,1609504842332314,2442244293,0.142496,0.154208,0.753472,-6.9125,65.23125,-50.35625,-44.272003,-21.376001,-42.392002,inter_set_rest,3,5.0,34890.0,48154.0,72504.0,99886.0,31603.0,57106.0,30173.0,55919.0,20903.0,20148.0
2026-05-06 15:49:38.853880,403782,1609504842346948,2442259308,0.142496,0.013664,0.788608,5.32875,66.5175,-53.5325,-44.272003,-21.376001,-42.392002,inter_set_rest,3,5.0,34890.0,48154.0,72504.0,99886.0,31603.0,57106.0,30173.0,55919.0,20903.0,20148.0
2026-05-06 15:49:38.860180,403783,1609504842355934,2442268179,0.181536,0.0,0.788608,-9.511251,65.87875,-43.05,-43.352,-21.424002,-41.128002,inter_set_rest,3,5.0,34890.0,48154.0,72504.0,99886.0,31603.0,57106.0,30173.0,55919.0,20903.0,20148.0
2026-05-06 15:49:38.862531,403784,1609504842364872,2442276904,0.181536,0.0,0.788608,-41.48375,69.09875,-27.973751,-43.352,-21.424002,-41.128002,inter_set_rest,3,5.0,34890.0,48154.0,72504.0,99886.0,31603.0,57106.0,30173.0,55919.0,20903.0,20148.0
2026-05-06 15:49:38.876556,403785,1609504842379362,2442291929,0.257664,0.298656,0.93696,-51.0125,75.145,-27.5275,-42.528004,-21.056002,-40.264004,inter_set_rest,3,5.0,34890.0,48154.0,72504.0,99886.0,31603.0,57106.0,30173.0,55919.0,20903.0,20148.0
2026-05-06 15:49:38.885238,403786,1609504842388299,2442300682,0.0976,0.335744,0.755424,-34.22125,79.0475,-43.4175,-41.920002,-22.744001,-39.168003,inter_set_rest,3,5.0,34890.0,48154.0,72504.0,99886.0,31603.0,57106.0,30173.0,55919.0,20903.0,20148.0
2026-05-06 15:49:38.919663,403787,1609504842402935,2442315581,0.0976,0.335744,0.755424,-10.64875,80.40375,-60.48,-41.920002,-22.744001,-39.168003,inter_set_rest,3,5.0,34890.0,48154.0,72504.0,99886.0,31603.0,57106.0,30173.0,55919.0,20903.0,20148.0
2026-05-06 15:49:38.971549,403798,1609504842412475,2442324350,-0.033184,0.36112,0.601216,-3.15,77.16625,-55.8425,-40.84,-21.984001,-37.904003,inter_set_rest,3,5.0,36143.0,50027.0,71510.0,99945.0,32791.0,58946.0,29712.0,55890.0,21627.0,21037.0
2026-05-06 15:49:38.973988,403799,1609504842421541,2442333059,-0.033184,0.36112,0.601216,-25.66375,77.6475,-37.21375,-40.84,-21.984001,-37.904003,inter_set_rest,3,5.0,36143.0,50027.0,71510.0,99945.0,32791.0,58946.0,29712.0,55890.0,21627.0,21037.0
2026-05-06 15:49:38.976574,403800,1609504842436100,2442348013,-0.074176,0.290848,0.733952,-83.545,73.43875,-20.335001,-40.24,-20.52,-36.648003,inter_set_rest,3,5.0,36143.0,50027.0,71510.0,99945.0,32791.0,58946.0,29712.0,55890.0,21627.0,21037.0
2026-05-06 15:49:38.978862,403801,1609504842445055,2442356743,-0.074176,0.290848,0.733952,-94.4825,81.26125,-23.91375,-40.24,-20.52,-36.648003,inter_set_rest,3,5.0,36143.0,50027.0,71510.0,99945.0,32791.0,58946.0,29712.0,55890.0,21627.0,21037.0
2026-05-06 15:49:38.981490,403802,1609504842459536,2442371754,-0.144448,0.132736,1.0248,-73.027504,87.14125,-37.45875,-39.304,-22.696001,-34.52,inter_set_rest,3,5.0,36143.0,50027.0,71510.0,99945.0,32791.0,58946.0,29712.0,55890.0,21627.0,21037.0
2026-05-06 15:49:38.984021,403803,1609504842468495,2442380445,-0.187392,0.247904,1.016992,-58.8875,90.51,-37.1,-38.280003,-20.592001,-36.104,inter_set_rest,3,5.0,36143.0,50027.0,71510.0,99945.0,32791.0,58946.0,29712.0,55890.0,21627.0,21037.0
2026-05-06 15:49:38.986586,403804,1609504842477453,2442389174,-0.187392,0.247904,1.016992,-31.66625,84.4725,-33.4775,-38.280003,-20.592001,-36.104,inter_set_rest,3,5.0,36143.0,50027.0,71510.0,99945.0,32791.0,58946.0,29712.0,55890.0,21627.0,21037.0
2026-05-06 15:49:38.989006,403805,1609504842492100,2442404186,-0.398208,0.027328,1.126304,-18.6725,70.91875,-14.93625,-37.672,-23.912,-31.552002,inter_set_rest,3,5.0,36143.0,50027.0,71510.0,99945.0,32791.0,58946.0,29712.0,55890.0,21627.0,21037.0
2026-05-06 15:49:38.997708,403806,1609504842501059,2442412902,-0.398208,0.027328,1.126304,-19.29375,59.9725,-10.36875,-37.672,-23.912,-31.552002,inter_set_rest,3,5.0,36143.0,50027.0,71510.0,99945.0,32791.0,58946.0,29712.0,55890.0,21627.0,21037.0
2026-05-06 15:49:39.031426,403817,1609504842515899,2442427902,-0.386496,0.27328,1.436672,3.00125,50.9075,-7.8575,-37.320004,-20.512001,-32.632,inter_set_rest,3,5.0,37068.0,51507.0,67564.0,100723.0,33660.0,60691.0,27898.0,56294.0,22246.0,21883.0
2026-05-06 15:49:39.033835,403818,1609504842524911,2442436669,-0.386496,0.27328,1.436672,2.00375,43.5925,14.4375,-37.320004,-20.512001,-32.632,inter_set_rest,3,5.0,37068.0,51507.0,67564.0,100723.0,33660.0,60691.0,27898.0,56294.0,22246.0,21883.0
2026-05-06 15:49:39.036424,403819,1609504842539478,2442451715,-0.31232,0.244,1.465952,4.27,39.795002,20.0025,-36.68,-21.912,-31.496002,inter_set_rest,3,5.0,37068.0,51507.0,67564.0,100723.0,33660.0,60691.0,27898.0,56294.0,22246.0,21883.0
2026-05-06 15:49:39.044905,403820,1609504842548456,2442460481,-0.31232,0.244,1.056032,16.54625,33.80125,15.89,-36.68,-21.912,-31.496002,inter_set_rest,3,5.0,37068.0,51507.0,67564.0,100723.0,33660.0,60691.0,27898.0,56294.0,22246.0,21883.0
2026-05-06 15:49:39.053613,403821,1609504842557420,2442469181,-0.177632,0.23424,1.056032,49.95375,23.21375,14.88375,-37.456,-22.320002,-31.904001,inter_set_rest,3,5.0,37068.0,51507.0,67564.0,100723.0,33660.0,60691.0,27898.0,56294.0,22246.0,21883.0
2026-05-06 15:49:39.067640,403822,1609504842571986,2442484252,-0.0488,0.314272,0.91744,60.095,12.0225,26.7925,-37.472,-22.024,-33.32,inter_set_rest,3,5.0,37068.0,51507.0,67564.0,100723.0,33660.0,60691.0,27898.0,56294.0,22246.0,21883.0
2026-05-06 15:49:39.077770,403823,1609504842580968,2442493005,-0.0488,0.314272,0.91744,50.46125,4.5675,46.06,-37.472,-22.024,-33.32,inter_set_rest,3,5.0,37068.0,51507.0,67564.0,100723.0,33660.0,60691.0,27898.0,56294.0,22246.0,21883.0
2026-05-06 15:49:39.093990,403824,1609504842595477,2442507960,0.027328,0.382592,0.856928,45.63125,1.47875,55.9125,-37.440002,-21.832,-32.136,inter_set_rest,3,5.0,37068.0,51507.0,67564.0,100723.0,33660.0,60691.0,27898.0,56294.0,22246.0,21883.0
2026-05-06 15:49:39.102743,403825,1609504842604420,2442516699,0.027328,0.382592,0.856928,48.405,4.9,54.78375,-37.440002,-21.832,-32.136,inter_set_rest,3,5.0,37068.0,51507.0,67564.0,100723.0,33660.0,60691.0,27898.0,56294.0,22246.0,21883.0
2026-05-06 15:49:39.193748,403836,1609504842614008,2442525445,-0.027328,0.386496,0.64416,42.53375,16.7125,40.495,-37.312,-20.432001,-33.216003,inter_set_rest,3,5.0,36001.0,48805.0,71096.0,98070.0,32580.0,57723.0,29563.0,54924.0,21452.0,20566.0
2026-05-06 15:49:39.196381,403837,1609504842628580,2442540556,-0.027328,0.386496,0.64416,8.28625,23.135,20.27375,-37.312,-20.432001,-33.216003,inter_set_rest,3,5.0,36001.0,48805.0,71096.0,98070.0,32580.0,57723.0,29563.0,54924.0,21452.0,20566.0
2026-05-06 15:49:39.198863,403838,1609504842637502,2442549278,-0.081984,0.277184,0.747616,-15.39125,24.115,5.6,-37.04,-19.824001,-31.864002,inter_set_rest,3,5.0,36001.0,48805.0,71096.0,98070.0,32580.0,57723.0,29563.0,54924.0,21452.0,20566.0
2026-05-06 15:49:39.203017,403839,1609504842651991,2442564255,0.01952,0.314272,0.813984,-20.5275,21.3325,9.49375,-36.640003,-18.976002,-32.440002,inter_set_rest,3,5.0,36001.0,48805.0,71096.0,98070.0,32580.0,57723.0,29563.0,54924.0,21452.0,20566.0
2026-05-06 15:49:39.203724,403840,1609504842660943,2442572963,0.01952,0.314272,0.813984,-28.2625,20.5975,26.775,-36.640003,-18.976002,-32.440002,inter_set_rest,3,5.0,36001.0,48805.0,71096.0,98070.0,32580.0,57723.0,29563.0,54924.0,21452.0,20566.0
2026-05-06 15:49:39.206296,403841,1609504842675431,2442587893,0.027328,0.366976,0.81008,-48.475,22.98625,35.7875,-36.56,-17.832,-31.976002,inter_set_rest,3,5.0,36001.0,48805.0,71096.0,98070.0,32580.0,57723.0,29563.0,54924.0,21452.0,20566.0
2026-05-06 15:49:39.211062,403842,1609504842684431,2442596653,0.027328,0.366976,0.81008,-67.01625,27.125,25.54125,-36.56,-17.832,-31.976002,inter_set_rest,3,5.0,36001.0,48805.0,71096.0,98070.0,32580.0,57723.0,29563.0,54924.0,21452.0,20566.0
2026-05-06 15:49:39.211161,403843,1609504842693542,2442605379,-0.171776,0.236192,0.901824,-73.0625,31.75375,5.73125,-35.992,-17.136002,-31.184002,inter_set_rest,3,5.0,36001.0,48805.0,71096.0,98070.0,32580.0,57723.0,29563.0,54924.0,21452.0,20566.0
2026-05-06 15:49:39.213551,403844,1609504842708080,2442620342,-0.171776,0.236192,0.901824,-62.1775,34.195,-5.38125,-35.992,-17.136002,-31.184002,inter_set_rest,3,5.0,36001.0,48805.0,71096.0,98070.0,32580.0,57723.0,29563.0,54924.0,21452.0,20566.0
2026-05-06 15:49:39.243872,403855,1609504842717178,2442629238,-0.193248,0.20496,0.915488,-47.46875,32.725,4.87375,-35.632,-16.816,-29.680002,inter_set_rest,3,5.0,35605.0,49957.0,70135.0,97807.0,32347.0,59336.0,29115.0,54825.0,21329.0,21189.0
2026-05-06 15:49:39.246378,403856,1609504842731794,2442644280,0.021472,0.220576,1.040416,-49.7875,26.005,23.7825,-36.08,-16.976002,-27.464,inter_set_rest,3,5.0,35605.0,49957.0,70135.0,97807.0,32347.0,59336.0,29115.0,54825.0,21329.0,21189.0
2026-05-06 15:49:39.248873,403857,1609504842740887,2442653049,0.021472,0.220576,1.040416,-57.26875,20.1775,32.03375,-36.08,-16.976002,-27.464,inter_set_rest,3,5.0,35605.0,49957.0,70135.0,97807.0,32347.0,59336.0,29115.0,54825.0,21329.0,21189.0
2026-05-06 15:49:39.251539,403858,1609504842749851,2442661765,0.021472,0.220576,0.962336,-69.99125,16.31,27.536251,-36.08,-16.976002,-27.464,inter_set_rest,3,5.0,35605.0,49957.0,70135.0,97807.0,32347.0,59336.0,29115.0,54825.0,21329.0,21189.0
2026-05-06 15:49:39.260246,403859,1609504842764397,2442676731,-0.130784,0.101504,0.962336,-85.47,15.33875,18.90875,-35.120003,-16.08,-27.184002,inter_set_rest,3,5.0,35605.0,49957.0,70135.0,97807.0,32347.0,59336.0,29115.0,54825.0,21329.0,21189.0
2026-05-06 15:49:39.269004,403860,1609504842773349,2442685502,-0.288896,-0.015616,0.989664,-90.15125,14.6475,10.22,-34.904003,-13.376,-29.696001,inter_set_rest,3,5.0,35605.0,49957.0,70135.0,97807.0,32347.0,59336.0,29115.0,54825.0,21329.0,21189.0
2026-05-06 15:49:39.302578,403861,1609504842787837,2442700444,-0.288896,-0.015616,0.989664,-82.92375,13.04625,9.56375,-34.904003,-13.376,-29.696001,inter_set_rest,3,5.0,35605.0,49957.0,70135.0,97807.0,32347.0,59336.0,29115.0,54825.0,21329.0,21189.0
2026-05-06 15:49:39.305119,403862,1609504842796739,2442709251,-0.466528,-0.089792,0.148352,-58.415,13.78125,-5.53875,-34.032,-12.920001,-28.232002,inter_set_rest,3,5.0,35605.0,49957.0,70135.0,97807.0,32347.0,59336.0,29115.0,54825.0,21329.0,21189.0
2026-05-06 15:49:39.335037,403873,1609504842811654,2442724418,-0.154208,0.074176,1.145824,-54.10125,6.90375,-137.34875,-34.808002,-13.848001,-29.312002,inter_set_rest,3,5.0,44962.0,56996.0,68859.0,100584.0,40295.0,65372.0,28625.0,55870.0,26202.0,24355.0
2026-05-06 15:49:39.337436,403874,1609504842820601,2442733311,-0.154208,0.074176,1.145824,-40.36375,-47.94125,-69.2825,-34.808002,-13.848001,-29.312002,inter_set_rest,3,5.0,44962.0,56996.0,68859.0,100584.0,40295.0,65372.0,28625.0,55870.0,26202.0,24355.0
2026-05-06 15:49:39.339890,403875,1609504842829682,2442742055,-0.154208,0.074176,1.145824,37.91375,36.53125,17.7625,-34.808002,-13.848001,-29.312002,inter_set_rest,3,5.0,44962.0,56996.0,68859.0,100584.0,40295.0,65372.0,28625.0,55870.0,26202.0,24355.0
2026-05-06 15:49:39.342396,403876,1609504842844469,2442757048,-0.160064,0.093696,0.86864,49.18375,54.6,56.1575,-34.752003,-13.672001,-27.696001,inter_set_rest,3,5.0,44962.0,56996.0,68859.0,100584.0,40295.0,65372.0,28625.0,55870.0,26202.0,24355.0
2026-05-06 15:49:39.348569,403877,1609504842853471,2442765825,-0.0976,0.1464,0.89792,48.055,8.14625,66.2375,-34.528,-14.56,-28.920002,inter_set_rest,3,5.0,44962.0,56996.0,68859.0,100584.0,40295.0,65372.0,28625.0,55870.0,26202.0,24355.0
2026-05-06 15:49:39.357626,403878,1609504842862630,2442774657,-0.0976,0.1464,0.89792,32.7075,8.19,2.61625,-34.528,-14.56,-28.920002,inter_set_rest,3,5.0,44962.0,56996.0,68859.0,100584.0,40295.0,65372.0,28625.0,55870.0,26202.0,24355.0
2026-05-06 15:49:39.391313,403879,1609504842877115,2442789573,-0.607072,0.052704,0.942816,22.93375,15.44375,-50.44375,-34.344,-14.728001,-28.000002,inter_set_rest,3,5.0,44962.0,56996.0,68859.0,100584.0,40295.0,65372.0,28625.0,55870.0,26202.0,24355.0
2026-05-06 15:49:39.393855,403880,1609504842886041,2442798267,-0.607072,0.052704,0.942816,46.69875,9.47625,-10.99875,-34.344,-14.728001,-28.000002,inter_set_rest,3,5.0,44962.0,56996.0,68859.0,100584.0,40295.0,65372.0,28625.0,55870.0,26202.0,24355.0
2026-05-06 15:49:39.396357,403881,1609504842900684,2442813219,-0.05856,0.257664,0.730048,58.9575,13.22125,57.951252,-34.600002,-15.256001,-28.736002,inter_set_rest,3,5.0,44962.0,56996.0,68859.0,100584.0,40295.0,65372.0,28625.0,55870.0,26202.0,24355.0
2026-05-06 15:49:39.410064,403882,1609504842909673,2442822003,-0.05856,0.257664,0.730048,37.31,13.55375,39.8125,-34.600002,-15.256001,-28.736002,inter_set_rest,3,5.0,44962.0,56996.0,68859.0,100584.0,40295.0,65372.0,28625.0,55870.0,26202.0,24355.0
2026-05-06 15:49:39.447658,403893,1609504842924244,2442837057,-0.1952,0.247904,0.80032,9.905,18.13875,5.67,-34.08,-14.112,-27.568,inter_set_rest,3,5.0,39005.0,51470.0,63715.0,100228.0,35114.0,60932.0,26198.0,55989.0,23015.0,22081.0
2026-05-06 15:49:39.450187,403894,1609504842933369,2442845852,-0.245952,0.1952,0.85888,-14.9625,20.0375,-5.88875,-34.224003,-14.464001,-28.432001,inter_set_rest,3,5.0,39005.0,51470.0,63715.0,100228.0,35114.0,60932.0,26198.0,55989.0,23015.0,22081.0
2026-05-06 15:49:39.452687,403895,1609504842942315,2442854562,-0.245952,0.1952,0.85888,-34.02875,20.4225,-2.93125,-34.224003,-14.464001,-28.432001,inter_set_rest,3,5.0,39005.0,51470.0,63715.0,100228.0,35114.0,60932.0,26198.0,55989.0,23015.0,22081.0
2026-05-06 15:49:39.455187,403896,1609504842956838,2442869511,-0.257664,0.163968,0.909632,-32.22625,19.0575,-1.8375,-33.944,-14.272,-28.232002,inter_set_rest,3,5.0,39005.0,51470.0,63715.0,100228.0,35114.0,60932.0,26198.0,55989.0,23015.0,22081.0
2026-05-06 15:49:39.463930,403897,1609504842965779,2442878342,-0.257664,0.163968,0.909632,-10.885,19.9675,-7.175,-33.944,-14.272,-28.232002,inter_set_rest,3,5.0,39005.0,51470.0,63715.0,100228.0,35114.0,60932.0,26198.0,55989.0,23015.0,22081.0
2026-05-06 15:49:39.477505,403898,1609504842980249,2442891177,-0.359168,0.173728,0.93696,5.215,23.205,-9.87875,-33.456,-14.496,-27.920002,inter_set_rest,3,5.0,39005.0,51470.0,63715.0,100228.0,35114.0,60932.0,26198.0,55989.0,23015.0,22081.0
2026-05-06 15:49:39.507698,403899,1609504842989634,2442902019,-0.359168,0.173728,0.93696,16.02125,22.4175,-3.99,-33.456,-14.496,-27.920002,inter_set_rest,3,5.0,39005.0,51470.0,63715.0,100228.0,35114.0,60932.0,26198.0,55989.0,23015.0,22081.0
2026-05-06 15:49:39.532658,403900,1609504842998636,2442910718,-0.238144,0.275232,0.98576,11.76,21.23625,3.3425,-33.184002,-14.136001,-27.36,inter_set_rest,3,5.0,39005.0,51470.0,63715.0,100228.0,35114.0,60932.0,26198.0,55989.0,23015.0,22081.0
2026-05-06 15:49:39.568808,403911,1609504843013620,2442925773,-0.251808,0.15616,0.98576,-12.5125,21.20125,7.8225,-33.0,-14.120001,-29.816002,inter_set_rest,3,5.0,40280.0,51701.0,62780.0,101474.0,36145.0,61161.0,25789.0,56647.0,23572.0,22167.0
2026-05-06 15:49:39.571423,403912,1609504843022904,2442934536,-0.251808,0.15616,0.98576,-0.56,19.31125,0.98,-33.0,-14.120001,-29.816002,inter_set_rest,3,5.0,40280.0,51701.0,62780.0,101474.0,36145.0,61161.0,25789.0,56647.0,23572.0,22167.0
2026-05-06 15:49:39.575843,403913,1609504843037386,2442949450,-0.249856,0.144448,0.942816,8.96,21.735,2.58125,-32.72,-13.992001,-27.216002,inter_set_rest,3,5.0,40280.0,51701.0,62780.0,101474.0,36145.0,61161.0,25789.0,56647.0,23572.0,22167.0
2026-05-06 15:49:39.577404,403914,1609504843046335,2442958173,-0.249856,0.144448,0.942816,9.695,22.995,6.125,-32.72,-13.992001,-27.216002,inter_set_rest,3,5.0,40280.0,51701.0,62780.0,101474.0,36145.0,61161.0,25789.0,56647.0,23572.0,22167.0
2026-05-06 15:49:39.578652,403915,1609504843055325,2442967007,-0.310368,0.158112,0.958432,9.5025,23.96625,4.865,-32.688,-15.536001,-25.808,inter_set_rest,3,5.0,40280.0,51701.0,62780.0,101474.0,36145.0,61161.0,25789.0,56647.0,23572.0,22167.0
2026-05-06 15:49:39.606464,403916,1609504843069851,2442982022,-0.310368,0.158112,0.958432,12.0575,25.17375,-0.2275,-32.688,-15.536001,-25.808,inter_set_rest,3,5.0,40280.0,51701.0,62780.0,101474.0,36145.0,61161.0,25789.0,56647.0,23572.0,22167.0
2026-05-06 15:49:39.608946,403917,1609504843078838,2442990816,-0.296704,0.197152,0.964288,14.70875,25.165,-0.2625,-32.0,-16.256,-25.560001,inter_set_rest,3,5.0,40280.0,51701.0,62780.0,101474.0,36145.0,61161.0,25789.0,56647.0,23572.0,22167.0
2026-05-06 15:49:39.611427,403918,1609504843093374,2443005858,-0.327936,0.191296,0.903776,3.63125,24.64875,5.9325,-31.720001,-14.528001,-28.256,inter_set_rest,3,5.0,40280.0,51701.0,62780.0,101474.0,36145.0,61161.0,25789.0,56647.0,23572.0,22167.0
2026-05-06 15:49:39.613709,403919,1609504843102307,2443014564,-0.327936,0.191296,0.903776,12.915,21.23625,0.7525,-31.720001,-14.528001,-28.256,inter_set_rest,3,5.0,40280.0,51701.0,62780.0,101474.0,36145.0,61161.0,25789.0,56647.0,23572.0,22167.0
2026-05-06 15:49:39.644004,403931,1609504843116999,2443029562,-0.345504,0.21472,0.919392,12.6175,20.116251,2.80875,-31.616001,-14.616001,-26.904001,inter_set_rest,3,5.0,39647.0,51069.0,63806.0,100861.0,35529.0,60488.0,26233.0,56310.0,23175.0,21884.0
2026-05-06 15:49:39.646573,403932,1609504843126029,2443038329,-0.345504,0.21472,0.919392,21.56875,16.68625,0.69125,-31.616001,-14.616001,-26.904001,inter_set_rest,3,5.0,39647.0,51069.0,63806.0,100861.0,35529.0,60488.0,26233.0,56310.0,23175.0,21884.0
2026-05-06 15:49:39.648973,403933,1609504843135244,2443047126,-0.300608,0.284992,0.954528,21.4025,15.8725,3.325,-31.640001,-17.904001,-21.864,inter_set_rest,3,5.0,39647.0,51069.0,63806.0,100861.0,35529.0,60488.0,26233.0,56310.0,23175.0,21884.0
2026-05-06 15:49:39.651556,403934,1609504843149778,2443062090,-0.300608,0.284992,0.954528,10.35125,14.02625,6.25625,-31.640001,-17.904001,-21.864,inter_set_rest,3,5.0,39647.0,51069.0,63806.0,100861.0,35529.0,60488.0,26233.0,56310.0,23175.0,21884.0
2026-05-06 15:49:39.656530,403935,1609504843158783,2443070794,-0.411872,0.208864,0.895968,-13.3,15.015,7.63,-31.248001,-18.112001,-24.272001,inter_set_rest,3,5.0,39647.0,51069.0,63806.0,100861.0,35529.0,60488.0,26233.0,56310.0,23175.0,21884.0
2026-05-06 15:49:39.670474,403936,1609504843173341,2443085734,-0.318176,0.308416,0.931104,-5.50375,12.075,3.535,-31.248001,-18.112001,-28.368002,inter_set_rest,3,5.0,39647.0,51069.0,63806.0,100861.0,35529.0,60488.0,26233.0,56310.0,23175.0,21884.0
2026-05-06 15:49:39.678674,403937,1609504843182361,2443094445,-0.327936,0.308416,0.931104,18.48,10.22,6.39625,-31.096,-14.56,-28.04,inter_set_rest,3,5.0,39647.0,51069.0,63806.0,100861.0,35529.0,60488.0,26233.0,56310.0,23175.0,21884.0
2026-05-06 15:49:39.687590,403938,1609504843191368,2443103173,-0.327936,0.308416,0.931104,-0.04375,12.6875,16.93125,-31.096,-14.56,-28.04,inter_set_rest,3,5.0,39647.0,51069.0,63806.0,100861.0,35529.0,60488.0,26233.0,56310.0,23175.0,21884.0
2026-05-06 15:49:39.721378,403939,1609504843205930,2443118101,-0.314272,0.193248,0.98576,-16.5025,10.59625,15.35625,-31.376001,-14.736001,-27.560001,inter_set_rest,3,5.0,39647.0,51069.0,63806.0,100861.0,35529.0,60488.0,26233.0,56310.0,23175.0,21884.0
2026-05-06 15:49:39.749038,403950,1609504843215075,2443126918,-0.296704,0.261568,0.925248,10.19375,6.6675,4.97,-31.024002,-13.960001,-27.168001,inter_set_rest,3,5.0,38771.0,49881.0,63546.0,100005.0,34701.0,59373.0,26088.0,55886.0,22707.0,21368.0
2026-05-06 15:49:39.754991,403951,1609504843229652,2443141921,-0.296704,0.261568,0.925248,-9.9925,9.8175,15.75,-31.024002,-13.960001,-27.168001,inter_set_rest,3,5.0,38771.0,49881.0,63546.0,100005.0,34701.0,59373.0,26088.0,55886.0,22707.0,21368.0
2026-05-06 15:49:39.755435,403952,1609504843238633,2443150694,-0.343552,0.138592,0.847168,-32.655,7.63875,16.37125,-31.304,-15.776001,-25.296001,inter_set_rest,3,5.0,38771.0,49881.0,63546.0,100005.0,34701.0,59373.0,26088.0,55886.0,22707.0,21368.0
2026-05-06 15:49:39.756212,403953,1609504843247585,2443159432,-0.343552,0.138592,0.847168,-31.4475,8.84625,8.0325,-31.304,-15.776001,-25.296001,inter_set_rest,3,5.0,38771.0,49881.0,63546.0,100005.0,34701.0,59373.0,26088.0,55886.0,22707.0,21368.0
2026-05-06 15:49:39.765612,403954,1609504843262040,2443174339,-0.316224,0.154208,0.923296,-1.3825,6.8425,1.75875,-30.888002,-14.992001,-24.976002,inter_set_rest,3,5.0,38771.0,49881.0,63546.0,100005.0,34701.0,59373.0,26088.0,55886.0,22707.0,21368.0
2026-05-06 15:49:39.767507,403955,1609504843271078,2443183157,-0.316224,0.154208,0.923296,-15.12875,8.12,16.40625,-30.888002,-14.992001,-24.976002,inter_set_rest,3,5.0,38771.0,49881.0,63546.0,100005.0,34701.0,59373.0,26088.0,55886.0,22707.0,21368.0
2026-05-06 15:49:39.781461,403956,1609504843285584,2443198171,-0.240096,0.337696,0.909632,-9.2575,7.32375,8.60125,-30.760002,-13.312,-25.648,inter_set_rest,3,5.0,38771.0,49881.0,63546.0,100005.0,34701.0,59373.0,26088.0,55886.0,22707.0,21368.0
2026-05-06 15:49:39.794981,403957,1609504843294679,2443206886,-0.249856,0.10736,1.104832,-38.45625,11.4625,14.81375,-31.056002,-12.776001,-26.800001,inter_set_rest,3,5.0,38771.0,49881.0,63546.0,100005.0,34701.0,59373.0,26088.0,55886.0,22707.0,21368.0
2026-05-06 15:49:39.808976,403958,1609504843309198,2443221845,-0.249856,0.10736,1.104832,-4.305,0.98875,1.63625,-31.056002,-12.776001,-26.800001,inter_set_rest,3,5.0,38771.0,49881.0,63546.0,100005.0,34701.0,59373.0,26088.0,55886.0,22707.0,21368.0
2026-05-06 15:49:39.836594,403969,1609504843318277,2443230596,-0.236192,0.22448,1.032608,12.74,1.61,5.2325,-30.704002,-13.360001,-26.176,inter_set_rest,3,5.0,38198.0,48970.0,62403.0,100295.0,34248.0,58567.0,25540.0,56118.0,22410.0,20961.0
2026-05-06 15:49:39.838984,403970,1609504843327358,2443239362,-0.236192,0.22448,1.032608,0.3675,-1.2775,8.715,-30.704002,-13.360001,-26.176,inter_set_rest,3,5.0,38198.0,48970.0,62403.0,100295.0,34248.0,58567.0,25540.0,56118.0,22410.0,20961.0
2026-05-06 15:49:39.841577,403971,1609504843341906,2443254338,-0.245952,0.183488,0.98576,-8.0325,-2.87875,5.1275,-30.752,-12.568001,-26.176,inter_set_rest,3,5.0,38198.0,48970.0,62403.0,100295.0,34248.0,58567.0,25540.0,56118.0,22410.0,20961.0
2026-05-06 15:49:39.847608,403972,1609504843350968,2443263271,-0.245952,0.183488,0.98576,-15.28625,-5.0575,2.8875,-30.752,-12.568001,-26.176,inter_set_rest,3,5.0,38198.0,48970.0,62403.0,100295.0,34248.0,58567.0,25540.0,56118.0,22410.0,20961.0
2026-05-06 15:49:39.875191,403973,1609504843365596,2443278258,-0.27328,0.162016,1.016992,-9.345,-2.4675,-2.2925,-31.064001,-12.568001,-25.920002,inter_set_rest,3,5.0,38198.0,48970.0,62403.0,100295.0,34248.0,58567.0,25540.0,56118.0,22410.0,20961.0
2026-05-06 15:49:39.899958,403974,1609504843374565,2443286984,-0.27328,0.162016,1.001376,4.7425,-1.33875,-3.54375,-31.064001,-12.568001,-25.920002,inter_set_rest,3,5.0,38198.0,48970.0,62403.0,100295.0,34248.0,58567.0,25540.0,56118.0,22410.0,20961.0
2026-05-06 15:49:39.925177,403975,1609504843383544,2443295690,-0.238144,0.189344,1.001376,17.01,-0.16625,-0.18375,-31.28,-12.624001,-26.072,inter_set_rest,3,5.0,38198.0,48970.0,62403.0,100295.0,34248.0,58567.0,25540.0,56118.0,22410.0,20961.0
2026-05-06 15:49:39.936546,403976,1609504843398022,2443310587,-0.257664,0.181536,0.940864,21.65625,0.51625,1.40875,-31.048002,-12.968,-26.272001,inter_set_rest,3,5.0,38198.0,48970.0,62403.0,100295.0,34248.0,58567.0,25540.0,56118.0,22410.0,20961.0
2026-05-06 15:49:39.938979,403977,1609504843406935,2443319284,-0.257664,0.181536,0.940864,24.045,1.715,-1.40875,-31.048002,-12.968,-26.272001,inter_set_rest,3,5.0,38198.0,48970.0,62403.0,100295.0,34248.0,58567.0,25540.0,56118.0,22410.0,20961.0
2026-05-06 15:49:39.966430,403988,1609504843421620,2443334281,-0.286944,0.191296,0.923296,19.69625,2.4675,-1.51375,-31.344002,-12.960001,-26.288002,inter_set_rest,3,5.0,40127.0,50364.0,62396.0,101533.0,35799.0,59672.0,25510.0,56683.0,23237.0,21428.0
2026-05-06 15:49:39.968822,403989,1609504843430665,2443342991,-0.286944,0.191296,0.923296,9.72125,3.7975,2.9225,-31.344002,-12.960001,-26.288002,inter_set_rest,3,5.0,40127.0,50364.0,62396.0,101533.0,35799.0,59672.0,25510.0,56683.0,23237.0,21428.0
2026-05-06 15:49:39.976433,403990,1609504843445218,2443357887,-0.279136,0.160064,0.940864,0.16625,5.495,5.88875,-30.744001,-13.072001,-25.984001,inter_set_rest,3,5.0,40127.0,50364.0,62396.0,101533.0,35799.0,59672.0,25510.0,56683.0,23237.0,21428.0
2026-05-06 15:49:39.978821,403991,1609504843454294,2443366667,-0.279136,0.160064,0.940864,-6.265,5.74,5.76625,-30.744001,-13.072001,-25.984001,inter_set_rest,3,5.0,40127.0,50364.0,62396.0,101533.0,35799.0,59672.0,25510.0,56683.0,23237.0,21428.0
2026-05-06 15:49:39.981533,403992,1609504843463556,2443375584,-0.296704,0.154208,0.942816,-4.19125,6.23,5.2675,-31.12,-14.936001,-23.792002,inter_set_rest,3,5.0,40127.0,50364.0,62396.0,101533.0,35799.0,59672.0,25510.0,56683.0,23237.0,21428.0
2026-05-06 15:49:39.983836,403993,1609504843478066,2443390558,-0.265472,0.197152,0.948672,2.35375,5.45125,4.9175,-31.224,-16.256,-23.608002,inter_set_rest,3,5.0,40127.0,50364.0,62396.0,101533.0,35799.0,59672.0,25510.0,56683.0,23237.0,21428.0
2026-05-06 15:49:39.986540,403994,1609504843486993,2443399254,-0.265472,0.197152,0.948672,10.19375,5.36375,3.94625,-31.224,-16.256,-23.608002,inter_set_rest,3,5.0,40127.0,50364.0,62396.0,101533.0,35799.0,59672.0,25510.0,56683.0,23237.0,21428.0
2026-05-06 15:49:40.002738,403995,1609504843501697,2443414179,-0.251808,0.230336,0.95648,14.2625,5.46,4.375,-30.880001,-16.056002,-25.064001,inter_set_rest,3,5.0,40127.0,50364.0,62396.0,101533.0,35799.0,59672.0,25510.0,56683.0,23237.0,21428.0
2026-05-06 15:49:40.006558,403996,1609504843510639,2443422889,-0.251808,0.230336,0.95648,15.3825,5.67,3.0975,-30.880001,-16.056002,-25.064001,inter_set_rest,3,5.0,40127.0,50364.0,62396.0,101533.0,35799.0,59672.0,25510.0,56683.0,23237.0,21428.0
2026-05-06 15:49:40.033822,404007,1609504843519713,2443431724,-0.281088,0.247904,0.923296,15.5225,5.87125,-0.6475,-30.968002,-13.144001,-25.800001,inter_set_rest,3,5.0,42247.0,51488.0,63490.0,102893.0,37575.0,60506.0,26015.0,57334.0,24180.0,21793.0
2026-05-06 15:49:40.036237,404008,1609504843534430,2443446716,-0.281088,0.247904,0.923296,14.49875,6.43125,-2.61625,-30.968002,-13.144001,-25.800001,inter_set_rest,3,5.0,42247.0,51488.0,63490.0,102893.0,37575.0,60506.0,26015.0,57334.0,24180.0,21793.0
2026-05-06 15:49:40.039892,404009,1609504843543567,2443455449,-0.244,0.249856,0.886208,11.78625,7.16625,-2.14375,-30.712002,-14.912001,-24.792002,inter_set_rest,3,5.0,42247.0,51488.0,63490.0,102893.0,37575.0,60506.0,26015.0,57334.0,24180.0,21793.0
2026-05-06 15:49:40.056404,404010,1609504843558074,2443470354,-0.183488,0.279136,1.003328,9.345,9.0475,-4.59375,-30.536001,-13.672001,-26.032001,inter_set_rest,3,5.0,42247.0,51488.0,63490.0,102893.0,37575.0,60506.0,26015.0,57334.0,24180.0,21793.0
2026-05-06 15:49:40.062496,404011,1609504843566980,2443479055,-0.183488,0.279136,1.003328,14.88375,11.725,-10.2725,-30.536001,-13.672001,-26.032001,inter_set_rest,3,5.0,42247.0,51488.0,63490.0,102893.0,37575.0,60506.0,26015.0,57334.0,24180.0,21793.0
2026-05-06 15:49:40.073909,404012,1609504843575912,2443487753,-0.183488,0.279136,0.964288,18.3575,13.30875,-15.65375,-30.536001,-13.672001,-26.032001,inter_set_rest,3,5.0,42247.0,51488.0,63490.0,102893.0,37575.0,60506.0,26015.0,57334.0,24180.0,21793.0
2026-05-06 15:49:40.088924,404013,1609504843590434,2443502728,-0.265472,0.26352,0.964288,27.195,12.88875,-22.3825,-30.560001,-14.52,-23.288002,inter_set_rest,3,5.0,42247.0,51488.0,63490.0,102893.0,37575.0,60506.0,26015.0,57334.0,24180.0,21793.0
2026-05-06 15:49:40.095073,404014,1609504843599426,2443511431,-0.242048,0.28304,0.964288,36.86375,11.55875,-23.82625,-30.504002,-15.176001,-25.480001,inter_set_rest,3,5.0,42247.0,51488.0,63490.0,102893.0,37575.0,60506.0,26015.0,57334.0,24180.0,21793.0
2026-05-06 15:49:40.128907,404015,1609504843613954,2443526366,-0.242048,0.28304,0.964288,40.52125,9.948751,-21.00875,-30.504002,-15.176001,-25.480001,inter_set_rest,3,5.0,42247.0,51488.0,63490.0,102893.0,37575.0,60506.0,26015.0,57334.0,24180.0,21793.0
2026-05-06 15:49:40.156241,404026,1609504843622971,2443535144,-0.218624,0.265472,0.960384,39.64625,8.91625,-22.05875,-30.080002,-15.424001,-25.928001,inter_set_rest,3,5.0,43086.0,52343.0,64019.0,103129.0,38300.0,61375.0,26286.0,57482.0,24573.0,22180.0
2026-05-06 15:49:40.158949,404027,1609504843637492,2443550124,-0.247904,0.290848,0.91744,25.40125,8.77625,-24.325,-29.984001,-16.136002,-26.472002,inter_set_rest,3,5.0,43086.0,52343.0,64019.0,103129.0,38300.0,61375.0,26286.0,57482.0,24573.0,22180.0
2026-05-06 15:49:40.161661,404028,1609504843646445,2443558891,-0.247904,0.290848,0.91744,27.46625,7.67375,-30.56375,-29.984001,-16.136002,-26.472002,inter_set_rest,3,5.0,43086.0,52343.0,64019.0,103129.0,38300.0,61375.0,26286.0,57482.0,24573.0,22180.0
2026-05-06 15:49:40.163853,404029,1609504843655457,2443567646,-0.247904,0.290848,0.91744,31.10625,7.32375,-30.616251,-29.984001,-16.136002,-26.472002,inter_set_rest,3,5.0,43086.0,52343.0,64019.0,103129.0,38300.0,61375.0,26286.0,57482.0,24573.0,22180.0
2026-05-06 15:49:40.166360,404030,1609504843669995,2443582567,-0.290848,0.228384,0.909632,22.93375,5.20625,-29.42625,-29.824001,-16.888,-25.072,inter_set_rest,3,5.0,43086.0,52343.0,64019.0,103129.0,38300.0,61375.0,26286.0,57482.0,24573.0,22180.0
2026-05-06 15:49:40.174813,404031,1609504843678958,2443591297,-0.298656,0.142496,0.960384,24.3775,4.165,-34.48375,-29.992,-17.544,-25.968,inter_set_rest,3,5.0,43086.0,52343.0,64019.0,103129.0,38300.0,61375.0,26286.0,57482.0,24573.0,22180.0
2026-05-06 15:49:40.187675,404032,1609504843693433,2443604190,-0.298656,0.142496,0.960384,25.41,1.365,-32.45375,-29.992,-17.544,-25.968,inter_set_rest,3,5.0,43086.0,52343.0,64019.0,103129.0,38300.0,61375.0,26286.0,57482.0,24573.0,22180.0
2026-05-06 15:49:40.201487,404033,1609504843702622,2443615042,-0.265472,0.226432,0.964288,26.25875,-0.97125,-29.2425,-29.992,-18.016,-25.928001,inter_set_rest,3,5.0,43086.0,52343.0,64019.0,103129.0,38300.0,61375.0,26286.0,57482.0,24573.0,22180.0
2026-05-06 15:49:40.207731,404034,1609504843711651,2443623747,-0.265472,0.226432,0.964288,29.522501,-2.2925,-27.0375,-29.992,-18.016,-25.928001,inter_set_rest,3,5.0,43086.0,52343.0,64019.0,103129.0,38300.0,61375.0,26286.0,57482.0,24573.0,22180.0
2026-05-06 15:49:40.327428,404045,1609504843726251,2443638847,-0.294752,0.212768,0.921344,44.73875,-4.05125,-29.4525,-30.248001,-19.272001,-25.824001,inter_set_rest,3,5.0,42148.0,52102.0,63662.0,102557.0,37484.0,61272.0,26155.0,57190.0,24177.0,22178.0
2026-05-06 15:49:40.332908,404046,1609504843735383,2443647547,-0.294752,0.212768,0.921344,71.25125,-5.94125,-30.96625,-30.248001,-19.272001,-25.824001,inter_set_rest,3,5.0,42148.0,52102.0,63662.0,102557.0,37484.0,61272.0,26155.0,57190.0,24177.0,22178.0
2026-05-06 15:49:40.333094,404047,1609504843749914,2443662482,-0.300608,0.226432,0.854976,55.615,-5.7575,-25.90875,-29.768002,-20.136002,-25.104002,inter_set_rest,3,5.0,42148.0,52102.0,63662.0,102557.0,37484.0,61272.0,26155.0,57190.0,24177.0,22178.0
