pc_time,serial_num,sensor_ts,host_ts,ax,ay,az,gx,gy,gz,mx,my,mz,phase,rpe,weight_kg,ppg_a,ppg_b,ppg_c,ppg_d,ppg_e
2026-04-14 18:01:17.323751,685883,1609507170953028,4770922384,-0.150304,0.931104,-0.474336,-69.44,77.1225,149.65125,-36.4,-14.544001,-4.16,eccentric,5,3.0,40057.0,177071.0,83979.0,172591.0,97822.0
2026-04-14 18:01:17.373893,685894,1609507170962431,4770931467,-0.17568,0.8784,-0.435296,-70.9625,79.82625,151.68124,-35.512,-12.904,-3.976,eccentric,5,3.0,49804.0,187719.0,97110.0,182787.0,112331.0
2026-04-14 18:01:17.375876,685895,1609507170977104,4770946406,-0.17568,0.8784,-0.435296,-62.83375,79.51125,153.49251,-35.512,-12.904,-3.976,eccentric,5,3.0,49804.0,187719.0,97110.0,182787.0,112331.0
2026-04-14 18:01:17.388334,685896,1609507170986286,4770955141,-0.099552,1.016992,-0.532896,-55.48375,79.70375,156.8175,-36.232002,-11.216001,-2.248,eccentric,5,3.0,49804.0,187719.0,97110.0,182787.0,112331.0
2026-04-14 18:01:17.388621,685897,1609507170995215,4770963863,-0.099552,1.016992,-0.532896,-52.36,80.955,158.74251,-36.232002,-11.216001,-2.248,eccentric,5,3.0,49804.0,187719.0,97110.0,182787.0,112331.0
2026-04-14 18:01:17.388850,685898,1609507171010397,4770978783,0.03904,0.991616,-0.18544,-58.59,83.65,157.3775,-37.584003,-9.056001,-0.432,eccentric,5,3.0,49804.0,187719.0,97110.0,182787.0,112331.0
2026-04-14 18:01:17.389099,685899,1609507171019635,4770989576,0.011712,0.821792,-0.203008,-66.00125,86.9575,157.0275,-37.824,-6.864,0.376,eccentric,5,3.0,49804.0,187719.0,97110.0,182787.0,112331.0
2026-04-14 18:01:17.389307,685900,1609507171034166,4771002573,0.011712,0.821792,-0.203008,-63.58625,90.1775,156.52,-37.824,-6.864,0.376,eccentric,5,3.0,49804.0,187719.0,97110.0,182787.0,112331.0
2026-04-14 18:01:17.395792,685901,1609507171043505,4771013337,0.046848,0.847168,-0.443104,-57.365,91.6125,155.42625,-37.952003,-4.872,1.968,eccentric,5,3.0,49804.0,187719.0,97110.0,182787.0,112331.0
2026-04-14 18:01:17.404027,685902,1609507171052447,4771022034,0.046848,0.847168,-0.443104,-54.94125,88.2175,154.2975,-37.952003,-4.872,1.968,eccentric,5,3.0,49804.0,187719.0,97110.0,182787.0,112331.0
2026-04-14 18:01:17.433404,685913,1609507171067058,4771037028,0.162016,0.901824,-0.148352,-57.5925,82.52125,156.10875,-37.944,-2.552,2.848,eccentric,5,3.0,76448.0,203318.0,128291.0,197101.0,148716.0
2026-04-14 18:01:17.435986,685914,1609507171076018,4771045717,0.162016,0.901824,-0.148352,-61.10125,79.65125,157.87625,-37.944,-2.552,2.848,eccentric,5,3.0,76448.0,203318.0,128291.0,197101.0,148716.0
2026-04-14 18:01:17.442054,685915,1609507171090593,4771060709,0.284992,0.650016,-0.15616,-62.825,77.595,158.515,-37.992,-0.68,5.072,eccentric,5,3.0,76448.0,203318.0,128291.0,197101.0,148716.0
2026-04-14 18:01:17.452231,685916,1609507171099528,4771069403,0.290848,0.69296,0.035136,-57.12875,78.72375,161.14,-36.392002,1.456,3.216,eccentric,5,3.0,76448.0,203318.0,128291.0,197101.0,148716.0
2026-04-14 18:01:17.459789,685917,1609507171108563,4771078085,0.290848,0.69296,0.035136,-43.645,82.81,162.35625,-36.392002,1.456,3.216,eccentric,5,3.0,76448.0,203318.0,128291.0,197101.0,148716.0
2026-04-14 18:01:17.473440,685918,1609507171123063,4771093024,0.365024,0.728096,-0.021472,-31.745,84.595,157.2025,-35.624,3.224,4.736,eccentric,5,3.0,76448.0,203318.0,128291.0,197101.0,148716.0
2026-04-14 18:01:17.483556,685919,1609507171132033,4771101712,0.365024,0.728096,-0.021472,-28.9275,81.515,152.0225,-35.624,3.224,4.736,eccentric,5,3.0,76448.0,203318.0,128291.0,197101.0,148716.0
2026-04-14 18:01:17.501249,685920,1609507171146551,4771116773,0.324032,0.650016,-0.36112,-33.46,76.3875,152.34625,-36.088,5.728,6.504,eccentric,5,3.0,76448.0,203318.0,128291.0,197101.0,148716.0
2026-04-14 18:01:17.506950,685921,1609507171155495,4771125462,0.324032,0.650016,-0.36112,-42.44625,71.65375,154.7875,-36.088,5.728,6.504,eccentric,5,3.0,76448.0,203318.0,128291.0,197101.0,148716.0
2026-04-14 18:01:17.559763,685932,1609507171164656,4771134730,0.40992,0.532896,-0.005856,-45.17625,72.49375,157.26375,-34.512,7.776001,6.352,eccentric,5,3.0,97070.0,211106.0,151948.0,203067.0,174791.0
2026-04-14 18:01:17.562132,685933,1609507171179279,4771147640,0.40992,0.532896,-0.06832,-38.6575,72.0475,155.65375,-34.512,7.776001,6.352,eccentric,5,3.0,97070.0,211106.0,151948.0,203067.0,174791.0
2026-04-14 18:01:17.564731,685934,1609507171188465,4771158390,0.447008,0.505568,-0.06832,-26.46875,72.58125,152.075,-33.536003,9.304001,8.376,eccentric,5,3.0,97070.0,211106.0,151948.0,203067.0,174791.0
2026-04-14 18:01:17.567260,685935,1609507171202959,4771173268,0.488,0.571936,0.105408,-15.636251,74.7075,147.595,-33.344,10.968,8.592,eccentric,5,3.0,97070.0,211106.0,151948.0,203067.0,174791.0
2026-04-14 18:01:17.569628,685936,1609507171211916,4771181996,0.488,0.571936,0.105408,-15.75875,73.08875,143.12375,-33.344,10.968,8.592,eccentric,5,3.0,97070.0,211106.0,151948.0,203067.0,174791.0
2026-04-14 18:01:17.578497,685937,1609507171226462,4771194889,0.523136,0.544608,0.105408,-21.77,72.03,141.51375,-32.416,12.848001,9.872001,eccentric,5,3.0,97070.0,211106.0,151948.0,203067.0,174791.0
2026-04-14 18:01:17.588842,685938,1609507171235730,4771205658,0.523136,0.544608,0.105408,-29.07625,73.05375,139.71126,-32.416,12.848001,9.872001,eccentric,5,3.0,97070.0,211106.0,151948.0,203067.0,174791.0
2026-04-14 18:01:17.596279,685939,1609507171244842,4771214352,0.515328,0.329888,0.085888,-30.94,73.605,135.4325,-30.368002,13.912001,9.264001,eccentric,5,3.0,97070.0,211106.0,151948.0,203067.0,174791.0
2026-04-14 18:01:17.635995,685950,1609507171259345,4771229276,0.515328,0.329888,0.085888,-28.77,71.53125,133.77,-30.368002,13.912001,9.264001,eccentric,5,3.0,102619.0,215948.0,158446.0,206628.0,181000.0
2026-04-14 18:01:17.638525,685951,1609507171268478,4771238074,0.593408,0.30256,0.06832,-17.96375,71.1025,131.985,-29.52,15.216001,11.408001,eccentric,5,3.0,102619.0,215948.0,158446.0,206628.0,181000.0
2026-04-14 18:01:17.640979,685952,1609507171283099,4771253135,0.70272,0.372832,0.046848,-6.405,69.72875,124.433754,-28.016,16.36,10.536,eccentric,5,3.0,102619.0,215948.0,158446.0,206628.0,181000.0
2026-04-14 18:01:17.644745,685953,1609507171292020,4771261838,0.70272,0.372832,0.046848,-3.71,71.11125,117.6,-28.016,16.36,10.536,eccentric,5,3.0,102619.0,215948.0,158446.0,206628.0,181000.0
2026-04-14 18:01:17.651007,685954,1609507171300975,4771270613,0.70272,0.327936,0.113216,-9.52,76.93,114.4675,-28.504002,18.480001,13.432001,eccentric,5,3.0,102619.0,215948.0,158446.0,206628.0,181000.0
2026-04-14 18:01:17.690651,685955,1609507171315605,4771285599,0.70272,0.327936,0.113216,-20.01125,76.4575,109.68125,-28.504002,18.480001,13.432001,eccentric,5,3.0,102619.0,215948.0,158446.0,206628.0,181000.0
2026-04-14 18:01:17.714622,685956,1609507171324542,4771294276,0.679296,0.093696,0.163968,-28.18375,70.63,106.54875,-26.488,19.008001,12.072001,eccentric,5,3.0,102619.0,215948.0,158446.0,206628.0,181000.0
2026-04-14 18:01:17.717129,685957,1609507171339008,4771309156,0.679296,0.093696,0.163968,-25.0425,67.0775,107.957504,-26.488,19.008001,12.072001,eccentric,5,3.0,102619.0,215948.0,158446.0,206628.0,181000.0
2026-04-14 18:01:17.719564,685958,1609507171347949,4771317875,0.691008,0.109312,0.201056,-9.765,65.6075,102.0075,-25.432001,20.080002,12.056001,eccentric,5,3.0,102619.0,215948.0,158446.0,206628.0,181000.0
2026-04-14 18:01:17.747142,685969,1609507171363051,4771332800,0.815936,0.220576,0.388448,3.815,62.53625,90.527504,-24.488,20.912,13.040001,eccentric,5,3.0,111226.0,230705.0,169322.0,219104.0,191205.0
2026-04-14 18:01:17.749731,685970,1609507171372054,4771341577,0.815936,0.220576,0.388448,4.9175,60.7775,82.78375,-24.488,20.912,13.040001,eccentric,5,3.0,111226.0,230705.0,169322.0,219104.0,191205.0
2026-04-14 18:01:17.752228,685971,1609507171381035,4771350299,0.876448,0.021472,0.562176,-4.0425,61.6175,78.16375,-24.488,20.912,13.56,eccentric,5,3.0,111226.0,230705.0,169322.0,219104.0,191205.0
2026-04-14 18:01:17.754737,685972,1609507171395655,4771365216,0.876448,0.021472,0.562176,-17.5175,56.27125,73.54375,-23.376001,22.04,13.56,eccentric,5,3.0,111226.0,230705.0,169322.0,219104.0,191205.0
2026-04-14 18:01:17.757079,685973,1609507171404603,4771373947,0.767136,-0.101504,0.472384,-28.76125,50.14625,69.09875,-22.848001,22.368002,14.56,eccentric,5,3.0,111226.0,230705.0,169322.0,219104.0,191205.0
2026-04-14 18:01:17.764559,685974,1609507171413537,4771382654,0.767136,-0.101504,0.472384,-21.2275,42.34125,62.81625,-22.848001,22.368002,14.56,eccentric,5,3.0,111226.0,230705.0,169322.0,219104.0,191205.0
2026-04-14 18:01:17.779778,685975,1609507171428046,4771397559,0.753472,-0.080032,0.279136,-4.3575,34.22125,49.3325,-22.288,21.952002,14.488001,eccentric,5,3.0,111226.0,230705.0,169322.0,219104.0,191205.0
2026-04-14 18:01:17.790754,685976,1609507171437086,4771406241,0.753472,-0.080032,0.279136,6.44875,24.52625,36.96,-22.288,21.952002,14.488001,eccentric,5,3.0,111226.0,230705.0,169322.0,219104.0,191205.0
2026-04-14 18:01:17.802055,685977,1609507171451601,4771421200,0.815936,-0.001952,0.406016,7.42875,19.6875,29.960001,-21.008001,22.232,13.824,eccentric,5,3.0,111226.0,230705.0,169322.0,219104.0,191205.0
2026-04-14 18:01:17.837245,685988,1609507171460567,4771430146,0.815936,-0.001952,0.406016,2.38875,18.795,20.69375,-21.008001,22.232,13.824,eccentric,5,3.0,111064.0,232523.0,168837.0,220075.0,190396.0
2026-04-14 18:01:17.839667,685989,1609507171475102,4771445086,0.757376,-0.0488,0.542656,-4.45375,10.89375,12.87125,-21.224,22.264002,15.52,eccentric,5,3.0,111064.0,232523.0,168837.0,220075.0,190396.0
2026-04-14 18:01:17.842158,685990,1609507171484109,4771453804,0.749568,-0.080032,0.376736,-5.60875,4.62,4.97,-20.912,22.312,13.728001,eccentric,5,3.0,111064.0,232523.0,168837.0,220075.0,190396.0
2026-04-14 18:01:17.844723,685991,1609507171493087,4771462536,0.749568,-0.080032,0.376736,0.8225,-2.765,-6.3175,-20.912,22.312,13.728001,eccentric,5,3.0,111064.0,232523.0,168837.0,220075.0,190396.0
2026-04-14 18:01:17.858466,685992,1609507171507601,4771477441,0.804224,0.003904,0.36112,5.7925,-14.735,-18.24375,-21.568,22.264002,14.000001,eccentric,5,3.0,111064.0,232523.0,168837.0,220075.0,190396.0
2026-04-14 18:01:17.870049,685993,1609507171516547,4771486173,0.804224,0.003904,0.36112,5.46875,-22.84625,-26.32875,-21.568,22.264002,14.000001,eccentric,5,3.0,111064.0,232523.0,168837.0,220075.0,190396.0
2026-04-14 18:01:17.884698,685994,1609507171531038,4771501064,0.804224,0.076128,0.45872,1.82875,-25.40125,-33.52125,-21.824001,21.752,13.832001,eccentric,5,3.0,111064.0,232523.0,168837.0,220075.0,190396.0
2026-04-14 18:01:17.893403,685995,1609507171540126,4771509940,0.804224,0.076128,0.45872,-0.7,-24.8675,-42.53375,-21.824001,21.752,13.832001,eccentric,5,3.0,111064.0,232523.0,168837.0,220075.0,190396.0
2026-04-14 18:01:17.905838,685996,1609507171554704,4771524935,0.728096,0.015616,0.329888,-3.10625,-29.00625,-51.5375,-22.712002,21.256,13.344001,eccentric,5,3.0,111064.0,232523.0,168837.0,220075.0,190396.0
2026-04-14 18:01:17.936006,686007,1609507171564181,4771533647,0.6832,0.080032,0.203008,-0.20125,-33.92375,-58.24,-24.160002,21.024,14.016001,eccentric,5,3.0,108838.0,233068.0,167260.0,221157.0,189323.0
2026-04-14 18:01:17.938578,686008,1609507171573214,4771542468,0.6832,0.080032,0.203008,7.2275,-38.07125,-66.82375,-24.160002,21.024,14.016001,eccentric,5,3.0,108838.0,233068.0,167260.0,221157.0,189323.0
2026-04-14 18:01:17.941027,686009,1609507171587735,4771557484,0.726144,0.138592,0.171776,10.00125,-43.54875,-75.90625,-25.056002,20.168001,13.568001,eccentric,5,3.0,108838.0,233068.0,167260.0,221157.0,189323.0
2026-04-14 18:01:17.948535,686010,1609507171596759,4771566207,0.726144,0.138592,0.171776,8.93375,-47.11,-80.75375,-25.056002,20.168001,13.568001,eccentric,5,3.0,108838.0,233068.0,167260.0,221157.0,189323.0
2026-04-14 18:01:17.963515,686011,1609507171611273,4771581096,0.76128,0.167872,0.396256,5.87125,-48.72,-84.5425,-26.008001,19.048,12.656,eccentric,5,3.0,108838.0,233068.0,167260.0,221157.0,189323.0
2026-04-14 18:01:17.973792,686012,1609507171620385,4771589826,0.76128,0.167872,0.396256,5.01375,-48.5975,-89.53,-26.008001,19.048,12.656,eccentric,5,3.0,108838.0,233068.0,167260.0,221157.0,189323.0
2026-04-14 18:01:17.984375,686013,1609507171629417,4771598534,0.65392,0.171776,0.18544,7.805,-50.98625,-94.115,-26.576002,18.032001,12.064,eccentric,5,3.0,108838.0,233068.0,167260.0,221157.0,189323.0
2026-04-14 18:01:17.997128,686014,1609507171643886,4771613470,0.698816,0.245952,0.30256,12.92375,-55.728752,-99.23375,-27.744001,17.056002,11.984,eccentric,5,3.0,108838.0,233068.0,167260.0,221157.0,189323.0
2026-04-14 18:01:18.004989,686015,1609507171652796,4771622389,0.698816,0.245952,0.30256,20.965,-59.9375,-105.16625,-27.744001,17.056002,11.984,eccentric,5,3.0,108838.0,233068.0,167260.0,221157.0,189323.0
2026-04-14 18:01:18.086966,686026,1609507171667483,4771637555,0.65392,0.304512,0.01952,25.9875,-65.05625,-110.71375,-28.424002,15.808001,11.384001,eccentric,5,3.0,106844.0,234664.0,167426.0,223498.0,189500.0
2026-04-14 18:01:18.091159,686027,1609507171676587,4771646290,0.65392,0.304512,0.01952,27.195,-69.16875,-113.98625,-28.424002,15.808001,11.384001,eccentric,5,3.0,106844.0,234664.0,167426.0,223498.0,189500.0
2026-04-14 18:01:18.091280,686028,1609507171685563,4771655022,0.772992,0.327936,0.329888,24.4825,-70.42,-115.3775,-29.664001,14.024001,10.400001,eccentric,5,3.0,106844.0,234664.0,167426.0,223498.0,189500.0
2026-04-14 18:01:18.107478,686029,1609507171700059,4771669898,0.772992,0.327936,0.329888,23.5375,-70.6825,-117.0225,-29.664001,14.024001,10.400001,eccentric,5,3.0,106844.0,234664.0,167426.0,223498.0,189500.0
2026-04-14 18:01:18.107686,686030,1609507171709039,4771678689,0.64416,0.366976,0.124928,25.7075,-73.92,-119.6125,-30.760002,12.688001,9.808001,eccentric,5,3.0,106844.0,234664.0,167426.0,223498.0,189500.0
2026-04-14 18:01:18.107785,686031,1609507171723546,4771693601,0.628544,0.49776,0.162016,29.7675,-77.37625,-122.92875,-32.184002,11.232,6.576,eccentric,5,3.0,106844.0,234664.0,167426.0,223498.0,189500.0
2026-04-14 18:01:18.107980,686032,1609507171732490,4771702290,0.628544,0.49776,0.162016,34.0725,-79.555,-127.4,-32.184002,11.232,6.576,eccentric,5,3.0,106844.0,234664.0,167426.0,223498.0,189500.0
2026-04-14 18:01:18.108068,686033,1609507171747244,4771717184,0.677344,0.525088,0.177632,35.88375,-82.90625,-132.2125,-32.696003,9.536,7.976,eccentric,5,3.0,106844.0,234664.0,167426.0,223498.0,189500.0
2026-04-14 18:01:18.109972,686034,1609507171756260,4771725911,0.677344,0.525088,0.177632,33.74,-86.54625,-135.1875,-32.696003,9.536,7.976,eccentric,5,3.0,106844.0,234664.0,167426.0,223498.0,189500.0
2026-04-14 18:01:18.139290,686045,1609507171765621,4771734795,0.62464,0.55632,0.160064,30.59,-85.25125,-134.1725,-35.048,8.120001,7.968,eccentric,5,3.0,103337.0,229533.0,165326.0,219884.0,186410.0
2026-04-14 18:01:18.140941,686046,1609507171780339,4771749713,0.62464,0.55632,0.160064,33.99375,-83.20375,-132.95625,-35.048,8.120001,7.968,eccentric,5,3.0,103337.0,229533.0,165326.0,219884.0,186410.0
2026-04-14 18:01:18.143278,686047,1609507171789298,4771758434,0.5856,0.573888,-0.050752,40.6175,-80.64875,-137.34,-35.320004,6.624001,7.512001,eccentric,5,3.0,103337.0,229533.0,165326.0,219884.0,186410.0
2026-04-14 18:01:18.156256,686048,1609507171803893,4771773378,0.431392,0.69296,-0.044896,45.80625,-81.27875,-142.65125,-35.320004,3.992,3.52,eccentric,5,3.0,103337.0,229533.0,165326.0,219884.0,186410.0
2026-04-14 18:01:18.186843,686049,1609507171812883,4771782086,0.431392,0.69296,-0.044896,50.26875,-81.8125,-146.7725,-36.56,3.992,3.52,eccentric,5,3.0,103337.0,229533.0,165326.0,219884.0,186410.0
2026-04-14 18:01:18.188211,686050,1609507171821819,4771790946,0.431392,0.69296,-0.044896,46.73375,-81.515,-149.1,-36.56,3.992,3.52,eccentric,5,3.0,103337.0,229533.0,165326.0,219884.0,186410.0
2026-04-14 18:01:18.191220,686051,1609507171836318,4771805831,0.415776,0.704672,-0.17568,37.89625,-87.17625,-145.775,-36.904003,2.952,5.064,eccentric,5,3.0,103337.0,229533.0,165326.0,219884.0,186410.0
2026-04-14 18:01:18.196164,686052,1609507171845261,4771814554,0.44896,0.657824,-0.1952,35.14,-91.1925,-139.895,-37.376003,0.888,2.656,eccentric,5,3.0,103337.0,229533.0,165326.0,219884.0,186410.0
2026-04-14 18:01:18.211162,686053,1609507171859812,4771829455,0.44896,0.657824,-0.1952,41.55375,-83.65875,-136.91125,-37.376003,0.888,2.656,eccentric,5,3.0,103337.0,229533.0,165326.0,219884.0,186410.0
2026-04-14 18:01:18.239516,686064,1609507171868891,4771838658,0.447008,0.802272,0.132736,58.70375,-76.90375,-140.84875,-36.84,-1.56,2.904,eccentric,5,3.0,82127.0,211049.0,141735.0,204378.0,159197.0
2026-04-14 18:01:18.241876,686065,1609507171877992,4771847389,0.447008,0.802272,0.132736,76.65875,-64.435,-147.56876,-36.84,-1.56,2.904,eccentric,5,3.0,82127.0,211049.0,141735.0,204378.0,159197.0
2026-04-14 18:01:18.244933,686066,1609507171892664,4771862318,0.345504,0.901824,-0.03904,74.83,-47.83625,-152.425,-37.056004,-3.536,2.208,eccentric,5,3.0,82127.0,211049.0,141735.0,204378.0,159197.0
2026-04-14 18:01:18.252054,686067,1609507171901602,4771871166,0.345504,0.901824,-0.03904,59.3425,-50.81125,-153.57124,-37.056004,-3.536,2.208,eccentric,5,3.0,82127.0,211049.0,141735.0,204378.0,159197.0
2026-04-14 18:01:18.268911,686068,1609507171916139,4771886084,0.2928,0.788608,-0.318176,41.43125,-63.44625,-151.96126,-36.968002,-5.064,0.976,eccentric,5,3.0,82127.0,211049.0,141735.0,204378.0,159197.0
2026-04-14 18:01:18.278705,686069,1609507171925109,4771894776,0.288896,0.786656,-0.320128,40.8625,-74.69875,-145.57375,-37.808002,-6.928001,3.2,eccentric,5,3.0,82127.0,211049.0,141735.0,204378.0,159197.0
2026-04-14 18:01:18.290716,686070,1609507171939795,4771909706,0.288896,0.786656,-0.320128,54.81875,-76.58875,-140.98,-37.808002,-6.928001,3.2,eccentric,5,3.0,82127.0,211049.0,141735.0,204378.0,159197.0
2026-04-14 18:01:18.299919,686071,1609507171948904,4771918416,0.203008,0.91744,-0.32208,76.09875,-71.26875,-143.15875,-36.704002,-8.96,-0.408,eccentric,5,3.0,82127.0,211049.0,141735.0,204378.0,159197.0
2026-04-14 18:01:18.309599,686072,1609507171957857,4771927214,0.203008,0.91744,-0.32208,85.44375,-65.835,-147.98875,-36.704002,-8.96,-0.408,eccentric,5,3.0,82127.0,211049.0,141735.0,204378.0,159197.0
2026-04-14 18:01:18.340734,686083,1609507171972395,4771942262,-0.074176,1.0248,-0.45872,68.85375,-66.0975,-149.5375,-36.272003,-10.512,-1.032,eccentric,5,3.0,47423.0,174786.0,98316.0,172774.0,112301.0
2026-04-14 18:01:18.343587,686084,1609507171981395,4771951049,-0.074176,1.0248,-0.45872,45.0625,-74.20875,-145.50375,-36.272003,-10.512,-1.032,eccentric,5,3.0,47423.0,174786.0,98316.0,172774.0,112301.0
2026-04-14 18:01:18.347516,686085,1609507171995942,4771965978,0.0488,0.728096,-0.599264,28.49,-86.38,-139.9475,-37.120003,-11.904,-1.592,eccentric,5,3.0,47423.0,174786.0,98316.0,172774.0,112301.0
2026-04-14 18:01:18.360208,686086,1609507172004884,4771974672,0.0488,0.745664,-0.59536,36.575,-90.01125,-133.8925,-37.120003,-11.904,-5.688,eccentric,5,3.0,47423.0,174786.0,98316.0,172774.0,112301.0
2026-04-14 18:01:18.366017,686087,1609507172013860,4771983365,-0.017568,0.745664,-0.59536,58.17875,-83.8075,-129.89375,-35.72,-13.880001,-4.656,eccentric,5,3.0,47423.0,174786.0,98316.0,172774.0,112301.0
2026-04-14 18:01:18.381181,686088,1609507172028370,4771998288,-0.150304,0.940864,-0.54656,84.2275,-76.335,-128.0475,-34.800003,-15.072001,-5.184,eccentric,5,3.0,47423.0,174786.0,98316.0,172774.0,112301.0
2026-04-14 18:01:18.388367,686089,1609507172037346,4772007015,-0.150304,0.940864,-0.54656,92.8025,-75.22375,-128.35374,-34.800003,-15.072001,-5.184,eccentric,5,3.0,47423.0,174786.0,98316.0,172774.0,112301.0
2026-04-14 18:01:18.443488,686090,1609507172051894,4772021921,-0.169824,0.99552,-0.75152,72.1,-82.41625,-125.9475,-34.144,-16.480001,-6.448,eccentric,5,3.0,47423.0,174786.0,98316.0,172774.0,112301.0
2026-04-14 18:01:18.446005,686091,1609507172060968,4772030612,-0.169824,0.99552,-0.75152,50.015,-90.2475,-117.775,-34.144,-16.480001,-6.448,eccentric,5,3.0,47423.0,174786.0,98316.0,172774.0,112301.0
2026-04-14 18:01:18.473750,686102,1609507172075516,4772043909,-0.220576,0.74176,-0.642208,46.83875,-92.74125,-113.925,-33.816,-18.04,-7.976,eccentric,5,3.0,45093.0,176863.0,93786.0,173650.0,107912.0
2026-04-14 18:01:18.475791,686103,1609507172084843,4772054718,-0.220576,0.74176,-0.642208,51.345,-90.04625,-113.1025,-33.816,-18.04,-7.976,eccentric,5,3.0,45093.0,176863.0,93786.0,173650.0,107912.0
2026-04-14 18:01:18.478347,686104,1609507172093773,4772063391,-0.329888,0.8784,-0.648064,66.045,-82.69625,-106.25125,-32.776,-18.624,-10.336,eccentric,5,3.0,45093.0,176863.0,93786.0,173650.0,107912.0
2026-04-14 18:01:18.480842,686105,1609507172108577,4772078338,-0.265472,0.991616,-0.528992,81.83,-77.90125,-104.685,-32.224003,-19.896002,-10.408001,eccentric,5,3.0,45093.0,176863.0,93786.0,173650.0,107912.0
2026-04-14 18:01:18.483802,686106,1609507172117559,4772087082,-0.265472,0.991616,-0.528992,78.295,-76.746254,-106.6275,-32.224003,-19.896002,-10.408001,eccentric,5,3.0,45093.0,176863.0,93786.0,173650.0,107912.0
2026-04-14 18:01:18.486247,686107,1609507172132193,4772101992,-0.265472,0.864736,-0.462624,58.415,-81.61125,-103.355,-30.552002,-20.456001,-12.104001,eccentric,5,3.0,45093.0,176863.0,93786.0,173650.0,107912.0
2026-04-14 18:01:18.493469,686108,1609507172141245,4772110704,-0.265472,0.864736,-0.462624,43.9075,-86.485,-98.72625,-30.552002,-20.456001,-12.104001,eccentric,5,3.0,45093.0,176863.0,93786.0,173650.0,107912.0
2026-04-14 18:01:18.502191,686109,1609507172150320,4772119390,-0.310368,0.782752,-0.560224,41.93,-87.15,-97.1425,-30.024002,-21.136002,-12.256001,eccentric,5,3.0,45093.0,176863.0,93786.0,173650.0,107912.0
2026-04-14 18:01:18.540773,686120,1609507172164849,4772134310,-0.310368,0.782752,-0.560224,53.3225,-81.655,-92.785,-30.024002,-21.136002,-12.256001,eccentric,5,3.0,40817.0,174790.0,87153.0,171249.0,100397.0
2026-04-14 18:01:18.543281,686121,1609507172174218,4772143095,-0.40016,0.933056,-0.593408,67.54125,-76.44,-89.94125,-29.664001,-21.080002,-12.280001,eccentric,5,3.0,40817.0,174790.0,87153.0,171249.0,100397.0
2026-04-14 18:01:18.549415,686122,1609507172188808,4772158078,-0.435296,0.948672,-0.71248,70.0,-73.8675,-89.075,-29.136002,-22.04,-13.896001,eccentric,5,3.0,40817.0,174790.0,87153.0,171249.0,100397.0
2026-04-14 18:01:18.549507,686123,1609507172197787,4772166764,-0.435296,0.948672,-0.71248,57.575,-73.89375,-88.24375,-29.136002,-22.04,-13.896001,eccentric,5,3.0,40817.0,174790.0,87153.0,171249.0,100397.0
2026-04-14 18:01:18.557040,686124,1609507172206719,4772175457,-0.394304,0.831552,-0.659776,42.14,-72.75625,-87.54375,-27.064001,-22.608002,-13.8,concentric,5,3.0,40817.0,174790.0,87153.0,171249.0,100397.0
2026-04-14 18:01:18.572033,686125,1609507172221709,4772190594,-0.394304,0.831552,-0.659776,35.67375,-69.9825,-86.75625,-27.064001,-22.608002,-13.8,concentric,5,3.0,40817.0,174790.0,87153.0,171249.0,100397.0
2026-04-14 18:01:18.581184,686126,1609507172230852,4772199323,-0.52704,0.845216,-0.8784,36.19875,-68.2325,-84.74375,-25.968,-23.008001,-17.0,concentric,5,3.0,40817.0,174790.0,87153.0,171249.0,100397.0
2026-04-14 18:01:18.591964,686127,1609507172240184,4772210113,-0.52704,0.845216,-0.8784,38.91125,-68.90625,-81.1125,-25.968,-23.008001,-17.0,concentric,5,3.0,40817.0,174790.0,87153.0,171249.0,100397.0
2026-04-14 18:01:18.607253,686128,1609507172254684,4772223051,-0.499712,0.88816,-0.765184,41.5625,-71.67125,-77.2625,-24.632002,-23.36,-16.888,concentric,5,3.0,40817.0,174790.0,87153.0,171249.0,100397.0
2026-04-14 18:01:18.616349,686129,1609507172263897,4772233861,-0.499712,0.88816,-0.765184,42.49,-72.30125,-75.2325,-24.632002,-23.36,-16.888,concentric,5,3.0,40817.0,174790.0,87153.0,171249.0,100397.0
2026-04-14 18:01:18.645885,686140,1609507172278577,4772248813,-0.366976,0.909632,-0.554368,37.5725,-70.3675,-75.29375,-24.536001,-23.216002,-18.096,concentric,5,3.0,41080.0,176173.0,87758.0,172749.0,101280.0
2026-04-14 18:01:18.646203,686141,1609507172287546,4772257547,-0.538752,0.856928,-0.792512,29.91625,-66.2725,-74.9,-24.52,-23.544,-19.152,concentric,5,3.0,41080.0,176173.0,87758.0,172749.0,101280.0
2026-04-14 18:01:18.652504,686142,1609507172302068,4772270501,-0.538752,0.856928,-0.792512,24.85875,-64.28625,-74.165,-24.52,-23.544,-19.152,concentric,5,3.0,41080.0,176173.0,87758.0,172749.0,101280.0
2026-04-14 18:01:18.663450,686143,1609507172311336,4772281226,-0.509472,0.792512,-0.757376,22.7325,-63.42875,-73.115,-21.528002,-23.992,-20.392,concentric,5,3.0,41080.0,176173.0,87758.0,172749.0,101280.0
2026-04-14 18:01:18.671254,686144,1609507172320305,4772289931,-0.509472,0.792512,-0.757376,24.35125,-61.60875,-70.6475,-21.528002,-23.992,-20.392,concentric,5,3.0,41080.0,176173.0,87758.0,172749.0,101280.0
2026-04-14 18:01:18.687557,686145,1609507172334837,4772304893,-0.462624,0.894016,-0.568032,28.25375,-58.72125,-69.44875,-21.6,-24.240002,-19.808,concentric,5,3.0,41080.0,176173.0,87758.0,172749.0,101280.0
2026-04-14 18:01:18.695863,686146,1609507172343775,4772313617,-0.462624,0.894016,-0.568032,31.10625,-56.44625,-68.92375,-21.6,-24.240002,-19.808,concentric,5,3.0,41080.0,176173.0,87758.0,172749.0,101280.0
2026-04-14 18:01:18.710934,686147,1609507172358321,4772328605,-0.505568,0.821792,-0.696864,24.64875,-58.065,-67.095,-19.712002,-24.464,-20.472,concentric,5,3.0,41080.0,176173.0,87758.0,172749.0,101280.0
2026-04-14 18:01:18.744909,686158,1609507172367869,4772337523,-0.505568,0.757376,-0.640256,17.85875,-59.87625,-63.0,-19.712002,-24.464,-22.52,concentric,5,3.0,41329.0,178071.0,87960.0,174360.0,101448.0
2026-04-14 18:01:18.747413,686159,1609507172376935,4772346287,-0.52704,0.757376,-0.640256,15.995,-59.57875,-59.08,-19.608002,-24.328001,-21.168001,concentric,5,3.0,41329.0,178071.0,87960.0,174360.0,101448.0
2026-04-14 18:01:18.749921,686160,1609507172391490,4772361242,-0.60512,0.903776,-0.70272,21.4025,-57.42625,-57.33,-18.792002,-24.720001,-21.728,concentric,5,3.0,41329.0,178071.0,87960.0,174360.0,101448.0
2026-04-14 18:01:18.752010,686161,1609507172400482,4772369982,-0.60512,0.903776,-0.70272,27.51875,-54.5475,-58.03,-18.792002,-24.720001,-21.728,concentric,5,3.0,41329.0,178071.0,87960.0,174360.0,101448.0
2026-04-14 18:01:18.768859,686162,1609507172415117,4772385021,-0.544608,0.894016,-0.51728,29.14625,-52.54375,-58.6775,-17.416,-24.296001,-23.52,concentric,5,3.0,41329.0,178071.0,87960.0,174360.0,101448.0
2026-04-14 18:01:18.793528,686163,1609507172424157,4772393725,-0.544608,0.894016,-0.51728,25.1825,-52.45625,-58.8525,-17.416,-24.296001,-23.52,concentric,5,3.0,41329.0,178071.0,87960.0,174360.0,101448.0
2026-04-14 18:01:18.834013,686164,1609507172433236,4772402444,-0.597312,0.72224,-0.696864,18.34,-53.17375,-56.63,-15.896001,-24.824001,-22.544,concentric,5,3.0,41329.0,178071.0,87960.0,174360.0,101448.0
2026-04-14 18:01:18.846176,686165,1609507172447711,4772417373,-0.597312,0.815936,-0.655872,15.2425,-52.45625,-52.89375,-15.896001,-24.824001,-24.592001,concentric,5,3.0,41329.0,178071.0,87960.0,174360.0,101448.0
2026-04-14 18:01:18.848766,686166,1609507172456632,4772426060,-0.704672,0.815936,-0.655872,18.7425,-48.965,-49.46375,-14.936001,-24.456001,-25.744001,concentric,5,3.0,41329.0,178071.0,87960.0,174360.0,101448.0
2026-04-14 18:01:18.875913,686177,1609507172471313,4772441042,-0.687104,0.862784,-0.77104,26.78375,-42.945,-48.39625,-14.144001,-24.768002,-24.504002,concentric,5,3.0,41357.0,178311.0,87995.0,174506.0,101554.0
2026-04-14 18:01:18.878864,686178,1609507172480341,4772449734,-0.687104,0.862784,-0.77104,29.4,-37.33625,-48.09,-14.144001,-24.768002,-24.504002,concentric,5,3.0,41357.0,178311.0,87995.0,174506.0,101554.0
2026-04-14 18:01:18.881301,686179,1609507172489452,4772458411,-0.691008,0.804224,-0.5368,26.64375,-34.74625,-45.49125,-13.392,-24.400002,-21.968,concentric,5,3.0,41357.0,178311.0,87995.0,174506.0,101554.0
2026-04-14 18:01:18.883758,686180,1609507172504003,4772473310,-0.691008,0.804224,-0.5368,24.45625,-34.83375,-41.825,-13.392,-24.400002,-21.968,concentric,5,3.0,41357.0,178311.0,87995.0,174506.0,101554.0
2026-04-14 18:01:18.886279,686181,1609507172512992,4772482125,-0.67344,0.776896,-0.528992,21.2975,-35.525,-38.6225,-12.736001,-24.528002,-25.024002,concentric,5,3.0,41357.0,178311.0,87995.0,174506.0,101554.0
2026-04-14 18:01:18.888856,686182,1609507172527464,4772497022,-0.67344,0.776896,-0.528992,21.7,-34.825,-33.34625,-12.736001,-24.528002,-25.024002,concentric,5,3.0,41357.0,178311.0,87995.0,174506.0,101554.0
2026-04-14 18:01:18.891346,686183,1609507172536399,4772505758,-0.67344,0.833504,-0.815936,23.3275,-30.75625,-31.80625,-11.984,-24.344002,-27.048,concentric,5,3.0,41357.0,178311.0,87995.0,174506.0,101554.0
2026-04-14 18:01:18.903857,686184,1609507172550984,4772520661,-0.642208,0.776896,-0.737856,24.8325,-24.85875,-30.7475,-12.120001,-23.800001,-24.656002,concentric,5,3.0,41357.0,178311.0,87995.0,174506.0,101554.0
2026-04-14 18:01:18.911277,686185,1609507172559965,4772529428,-0.642208,0.776896,-0.737856,21.875,-21.84875,-29.00625,-12.120001,-23.800001,-24.656002,concentric,5,3.0,41357.0,178311.0,87995.0,174506.0,101554.0
2026-04-14 18:01:18.944630,686196,1609507172569215,4772538582,-0.710528,0.767136,-0.640256,17.710001,-20.3875,-25.33125,-12.120001,-23.736002,-25.976002,concentric,5,3.0,40386.0,178737.0,86234.0,174586.0,99705.0
2026-04-14 18:01:18.946987,686197,1609507172584077,4772553602,-0.710528,0.767136,-0.640256,17.00125,-19.7575,-21.175,-12.240001,-23.736002,-25.976002,concentric,5,3.0,40386.0,178737.0,86234.0,174586.0,99705.0
2026-04-14 18:01:18.949916,686198,1609507172593137,4772562315,-0.650016,0.813984,-0.538752,17.38625,-19.06625,-17.325,-11.368001,-23.808,-26.28,concentric,5,3.0,40386.0,178737.0,86234.0,174586.0,99705.0
2026-04-14 18:01:18.959519,686199,1609507172607725,4772577238,-0.650016,0.813984,-0.538752,19.3025,-16.87,-14.23625,-11.368001,-23.808,-26.28,concentric,5,3.0,40386.0,178737.0,86234.0,174586.0,99705.0
2026-04-14 18:01:18.972649,686200,1609507172616660,4772586039,-0.579744,0.841312,-0.700768,16.66,-13.93875,-13.22125,-10.648001,-23.816002,-26.736002,concentric,5,3.0,40386.0,178737.0,86234.0,174586.0,99705.0
2026-04-14 18:01:18.977282,686201,1609507172625579,4772594742,-0.579744,0.841312,-0.700768,12.075,-10.64875,-12.635,-10.648001,-23.816002,-26.736002,concentric,5,3.0,40386.0,178737.0,86234.0,174586.0,99705.0
2026-04-14 18:01:18.993551,686202,1609507172640344,4772609718,-0.616832,0.772992,-0.763232,6.7025,-7.945,-12.74,-10.768001,-23.728,-25.504002,concentric,5,3.0,40386.0,178737.0,86234.0,174586.0,99705.0
2026-04-14 18:01:18.999755,686203,1609507172649317,4772618414,-0.694912,0.74176,-0.65392,2.23125,-7.5075,-10.395,-10.768001,-23.048,-25.12,concentric,5,3.0,40386.0,178737.0,86234.0,174586.0,99705.0
2026-04-14 18:01:19.014983,686204,1609507172663972,4772633300,-0.694912,0.74176,-0.65392,1.11125,-7.53375,-6.32625,-12.008,-23.048,-25.12,concentric,5,3.0,40386.0,178737.0,86234.0,174586.0,99705.0
2026-04-14 18:01:19.046856,686215,1609507172673080,4772642075,-0.609024,0.70272,-0.72224,2.14375,-6.825,-2.3975,-10.960001,-23.840002,-26.968,concentric,5,3.0,39561.0,177529.0,84792.0,173381.0,98147.0
2026-04-14 18:01:19.049818,686216,1609507172682242,4772650901,-0.609024,0.70272,-0.72224,3.19375,-4.85625,1.82875,-10.960001,-23.840002,-26.968,concentric,5,3.0,39561.0,177529.0,84792.0,173381.0,98147.0
2026-04-14 18:01:19.050561,686217,1609507172697031,4772665806,-0.694912,0.778848,-0.821792,4.83,-2.17,4.41,-12.232,-23.296001,-25.664001,concentric,5,3.0,39561.0,177529.0,84792.0,173381.0,98147.0
2026-04-14 18:01:19.057229,686218,1609507172706471,4772676683,-0.694912,0.778848,-0.821792,2.02125,-0.4025,4.3225,-12.232,-23.296001,-25.664001,concentric,5,3.0,39561.0,177529.0,84792.0,173381.0,98147.0
2026-04-14 18:01:19.067211,686219,1609507172715428,4772685375,-0.597312,0.700768,-0.591456,-4.83875,0.55125,4.4625,-10.92,-23.816002,-26.632002,concentric,5,3.0,39561.0,177529.0,84792.0,173381.0,98147.0
2026-04-14 18:01:19.082125,686220,1609507172729941,4772698316,-0.591456,0.638304,-0.622688,-9.33625,1.23375,5.13625,-10.92,-23.624,-24.744001,concentric,5,3.0,39561.0,177529.0,84792.0,173381.0,98147.0
2026-04-14 18:01:19.089710,686221,1609507172739172,4772709125,-0.591456,0.638304,-0.622688,-10.4125,2.7475,5.29375,-10.648001,-23.624,-24.744001,concentric,5,3.0,39561.0,177529.0,84792.0,173381.0,98147.0
2026-04-14 18:01:19.103312,686222,1609507172753697,4772722064,-0.689056,0.665632,-0.724192,-7.98875,5.3375,5.1975,-11.848001,-23.416,-25.528002,concentric,5,3.0,39561.0,177529.0,84792.0,173381.0,98147.0
2026-04-14 18:01:19.114601,686223,1609507172762887,4772732824,-0.689056,0.665632,-0.724192,-7.63875,7.4025,5.6875,-11.848001,-23.416,-25.528002,concentric,5,3.0,39561.0,177529.0,84792.0,173381.0,98147.0
2026-04-14 18:01:19.217378,686234,1609507172772560,4772741689,-0.691008,0.67344,-0.569984,-7.41125,8.61875,6.5975,-12.144001,-23.408,-26.312002,concentric,5,3.0,39385.0,177857.0,84551.0,173710.0,97826.0
2026-04-14 18:01:19.219899,686235,1609507172787099,4772756639,-0.691008,0.67344,-0.569984,-9.17,8.54,6.81625,-12.144001,-23.408,-26.312002,concentric,5,3.0,39385.0,177857.0,84551.0,173710.0,97826.0
2026-04-14 18:01:19.221949,686236,1609507172796010,4772765334,-0.667584,0.640256,-0.505568,-10.68375,7.7875,7.7875,-12.256001,-23.44,-25.048,concentric,5,3.0,39385.0,177857.0,84551.0,173710.0,97826.0
2026-04-14 18:01:19.225842,686237,1609507172810653,4772780262,-0.651968,0.5856,-0.679296,-10.68375,7.56875,8.72375,-12.56,-23.544,-26.376001,concentric,5,3.0,39385.0,177857.0,84551.0,173710.0,97826.0
2026-04-14 18:01:19.228338,686238,1609507172819600,4772788976,-0.651968,0.5856,-0.679296,-9.9225,8.2425,8.25125,-12.56,-23.544,-26.376001,concentric,5,3.0,39385.0,177857.0,84551.0,173710.0,97826.0
2026-04-14 18:01:19.230754,686239,1609507172834149,4772803834,-0.651968,0.632448,-0.482144,-10.885,8.8025,7.18375,-12.752001,-23.6,-23.68,concentric,5,3.0,39385.0,177857.0,84551.0,173710.0,97826.0
2026-04-14 18:01:19.233431,686240,1609507172843110,4772812552,-0.651968,0.632448,-0.482144,-12.32,9.9575,6.53625,-12.752001,-23.6,-23.68,concentric,5,3.0,39385.0,177857.0,84551.0,173710.0,97826.0
2026-04-14 18:01:19.235796,686241,1609507172852081,4772821229,-0.65392,0.560224,-0.657824,-11.83,10.823751,5.8275,-13.936001,-23.592001,-25.432001,concentric,5,3.0,39385.0,177857.0,84551.0,173710.0,97826.0
2026-04-14 18:01:19.237026,686242,1609507172866644,4772836200,-0.65392,0.560224,-0.657824,-12.18875,11.10375,5.5475,-13.936001,-23.592001,-25.432001,concentric,5,3.0,39385.0,177857.0,84551.0,173710.0,97826.0
2026-04-14 18:01:19.269522,686253,1609507172875661,4772844900,-0.74176,0.573888,-0.710528,-11.17375,10.56125,6.55375,-14.056001,-24.144001,-24.68,concentric,5,3.0,39685.0,178279.0,84972.0,174083.0,98274.0
2026-04-14 18:01:19.271939,686254,1609507172890176,4772859810,-0.74176,0.573888,-0.694912,-8.28625,9.730001,6.37,-14.056001,-24.144001,-24.68,concentric,5,3.0,39685.0,178279.0,84972.0,174083.0,98274.0
2026-04-14 18:01:19.274372,686255,1609507172899131,4772868513,-0.706624,0.618784,-0.700768,-6.50125,8.72375,6.67625,-13.216001,-23.776001,-24.392002,concentric,5,3.0,39685.0,178279.0,84972.0,174083.0,98274.0
2026-04-14 18:01:19.276937,686256,1609507172908158,4772877219,-0.706624,0.618784,-0.700768,-7.11375,9.1875,6.50125,-13.216001,-23.776001,-24.392002,concentric,5,3.0,39685.0,178279.0,84972.0,174083.0,98274.0
2026-04-14 18:01:19.279361,686257,1609507172922776,4772892209,-0.642208,0.65392,-0.464576,-8.11125,11.94375,4.935,-13.576,-23.752,-24.768002,concentric,5,3.0,39685.0,178279.0,84972.0,174083.0,98274.0
2026-04-14 18:01:19.281881,686258,1609507172931801,4772900931,-0.813984,0.640256,-0.669536,-9.79125,15.89875,3.92,-13.632001,-23.896002,-23.392,concentric,5,3.0,39685.0,178279.0,84972.0,174083.0,98274.0
2026-04-14 18:01:19.296870,686259,1609507172946315,4772915852,-0.813984,0.640256,-0.669536,-11.27875,18.9875,4.5675,-13.632001,-23.896002,-23.392,concentric,5,3.0,39685.0,178279.0,84972.0,174083.0,98274.0
2026-04-14 18:01:19.308265,686260,1609507172955292,4772924541,-0.815936,0.650016,-0.774944,-8.0325,21.8225,7.11375,-13.528001,-24.152,-24.904001,concentric,5,3.0,39685.0,178279.0,84972.0,174083.0,98274.0
2026-04-14 18:01:19.345789,686271,1609507172969769,4772939421,-0.815936,0.650016,-0.774944,-6.9825,22.77625,9.8525,-13.528001,-24.152,-24.904001,concentric,5,3.0,38544.0,176808.0,83360.0,173051.0,96415.0
2026-04-14 18:01:19.348281,686272,1609507172979208,4772948152,-0.74176,0.730048,-0.651968,-1.8725,22.8025,12.1625,-14.080001,-24.552002,-23.832,concentric,5,3.0,38544.0,176808.0,83360.0,173051.0,96415.0
2026-04-14 18:01:19.353358,686273,1609507172988153,4772956895,-0.74176,0.730048,-0.651968,-0.48125,23.8,12.215,-14.080001,-24.552002,-23.832,concentric,5,3.0,38544.0,176808.0,83360.0,173051.0,96415.0
2026-04-14 18:01:19.355993,686274,1609507173003279,4772971861,-0.718336,0.769088,-0.687104,-0.32375,25.935,14.105001,-14.808001,-23.888,-24.152,concentric,5,3.0,38544.0,176808.0,83360.0,173051.0,96415.0
2026-04-14 18:01:19.366259,686275,1609507173012726,4772982615,-0.716384,0.845216,-0.737856,1.7675,30.555,15.54,-15.352001,-23.648,-23.576,concentric,5,3.0,38544.0,176808.0,83360.0,173051.0,96415.0
2026-04-14 18:01:19.372540,686276,1609507173021756,4772991322,-0.716384,0.845216,-0.737856,3.01,33.215,16.6775,-15.352001,-23.648,-23.576,concentric,5,3.0,38544.0,176808.0,83360.0,173051.0,96415.0
2026-04-14 18:01:19.388639,686277,1609507173036291,4773006233,-0.560224,0.845216,-0.571936,0.84,32.9875,17.47375,-14.728001,-23.896002,-23.688002,concentric,5,3.0,38544.0,176808.0,83360.0,173051.0,96415.0
2026-04-14 18:01:19.397429,686278,1609507173045410,4773014921,-0.560224,0.845216,-0.571936,0.3675,31.955,17.35125,-14.728001,-23.896002,-23.688002,concentric,5,3.0,38544.0,176808.0,83360.0,173051.0,96415.0
2026-04-14 18:01:19.412465,686279,1609507173059885,4773029885,-0.538752,0.823744,-0.519232,-2.17,30.42375,17.64,-16.488,-23.76,-24.784,concentric,5,3.0,38544.0,176808.0,83360.0,173051.0,96415.0
2026-04-14 18:01:19.419950,686280,1609507173068836,4773038675,-0.538752,0.823744,-0.519232,-4.34875,29.93375,20.29125,-16.488,-23.76,-24.784,concentric,5,3.0,38544.0,176808.0,83360.0,173051.0,96415.0
2026-04-14 18:01:19.477099,686291,1609507173077807,4773047456,-0.630496,0.856928,-0.745664,-6.13375,30.44125,24.64,-16.296001,-23.864,-24.480001,concentric,5,3.0,37764.0,174803.0,81894.0,171015.0,94760.0
2026-04-14 18:01:19.479540,686292,1609507173092448,4773062403,-0.577792,0.91744,-0.782752,-7.02625,30.66,29.67125,-16.52,-24.176,-24.528002,concentric,5,3.0,37764.0,174803.0,81894.0,171015.0,94760.0
2026-04-14 18:01:19.483762,686293,1609507173101409,4773071241,-0.577792,0.91744,-0.782752,-9.66,31.42125,33.34625,-16.52,-24.176,-24.528002,concentric,5,3.0,37764.0,174803.0,81894.0,171015.0,94760.0
2026-04-14 18:01:19.485103,686294,1609507173116039,4773086128,-0.583648,0.882304,-0.646112,-9.66,31.885,36.39125,-17.336,-23.544,-23.480001,concentric,5,3.0,37764.0,174803.0,81894.0,171015.0,94760.0
2026-04-14 18:01:19.487448,686295,1609507173124980,4773094826,-0.583648,0.882304,-0.646112,-10.6925,32.725,38.99,-17.336,-23.544,-23.480001,concentric,5,3.0,37764.0,174803.0,81894.0,171015.0,94760.0
2026-04-14 18:01:19.492029,686296,1609507173139579,4773109741,-0.534848,0.812032,-0.763232,-11.76875,35.245,43.61,-18.160002,-23.2,-22.560001,concentric,5,3.0,37764.0,174803.0,81894.0,171015.0,94760.0
2026-04-14 18:01:19.499897,686297,1609507173148511,4773118477,-0.534848,0.812032,-0.763232,-13.265,37.98375,47.76625,-18.160002,-23.2,-22.560001,concentric,5,3.0,37764.0,174803.0,81894.0,171015.0,94760.0
2026-04-14 18:01:19.528875,686298,1609507173157448,4773127159,-0.60512,0.890112,-0.854976,-19.73125,40.39,52.85875,-19.944,-22.824001,-22.36,concentric,5,3.0,37764.0,174803.0,81894.0,171015.0,94760.0
2026-04-14 18:01:19.583686,686309,1609507173171983,4773142181,-0.60512,0.890112,-0.776896,-25.85625,42.35,58.485,-19.944,-22.824001,-22.36,concentric,5,3.0,37394.0,175554.0,80665.0,171216.0,93629.0
2026-04-14 18:01:19.586166,686310,1609507173180976,4773150986,-0.49776,0.851072,-0.772992,-25.89125,45.255,63.0525,-20.36,-23.184002,-19.320002,concentric,5,3.0,37394.0,175554.0,80665.0,171216.0,93629.0
2026-04-14 18:01:19.591246,686311,1609507173195573,4773163937,-0.435296,0.905728,-0.704672,-25.7075,48.195,65.86125,-20.832,-23.048,-21.808,concentric,5,3.0,37394.0,175554.0,80665.0,171216.0,93629.0
2026-04-14 18:01:19.593558,686312,1609507173204756,4773174692,-0.435296,0.905728,-0.704672,-29.61875,50.9775,68.94125,-20.832,-23.048,-21.808,concentric,5,3.0,37394.0,175554.0,80665.0,171216.0,93629.0
2026-04-14 18:01:19.596150,686313,1609507173213678,4773183372,-0.511424,0.884256,-0.778848,-37.61625,51.49375,71.0325,-22.544,-22.800001,-21.920002,concentric,5,3.0,37394.0,175554.0,80665.0,171216.0,93629.0
2026-04-14 18:01:19.598655,686314,1609507173228305,4773198264,-0.511424,0.884256,-0.778848,-46.71625,52.08,75.66125,-22.544,-22.800001,-21.920002,concentric,5,3.0,37394.0,175554.0,80665.0,171216.0,93629.0
2026-04-14 18:01:19.603811,686315,1609507173237231,4773206947,-0.474336,0.940864,-0.772992,-47.95,53.8825,80.605,-23.208,-22.608002,-20.144001,concentric,5,3.0,37394.0,175554.0,80665.0,171216.0,93629.0
2026-04-14 18:01:19.606313,686316,1609507173251949,4773221848,-0.474336,0.940864,-0.772992,-45.80625,57.74125,81.0425,-23.208,-22.608002,-20.144001,concentric,5,3.0,37394.0,175554.0,80665.0,171216.0,93629.0
2026-04-14 18:01:19.612654,686317,1609507173260965,4773230533,-0.413824,1.022848,-0.88816,-48.34375,61.425,81.1825,-24.248001,-22.472,-20.928001,concentric,5,3.0,37394.0,175554.0,80665.0,171216.0,93629.0
2026-04-14 18:01:19.650116,686328,1609507173275891,4773245574,-0.345504,0.841312,-0.753472,-57.916252,63.14,81.655,-25.536001,-22.096,-18.424002,concentric,5,3.0,37821.0,174690.0,80978.0,170332.0,94019.0
2026-04-14 18:01:19.652549,686329,1609507173284881,4773254370,-0.345504,0.841312,-0.753472,-66.54375,62.4925,84.35875,-25.536001,-22.096,-18.424002,concentric,5,3.0,37821.0,174690.0,80978.0,170332.0,94019.0
2026-04-14 18:01:19.655113,686330,1609507173293924,4773263088,-0.423584,0.901824,-0.677344,-69.62375,62.615,87.885,-27.896002,-21.336,-15.224001,concentric,5,3.0,37821.0,174690.0,80978.0,170332.0,94019.0
2026-04-14 18:01:19.663272,686331,1609507173308458,4773278178,-0.423584,0.901824,-0.677344,-62.92125,64.79375,92.91625,-27.896002,-21.336,-15.224001,concentric,5,3.0,37821.0,174690.0,80978.0,170332.0,94019.0
2026-04-14 18:01:19.669445,686332,1609507173317402,4773286862,-0.327936,1.04432,-0.882304,-58.10875,67.7075,96.31125,-28.376001,-21.128,-16.208,concentric,5,3.0,37821.0,174690.0,80978.0,170332.0,94019.0
2026-04-14 18:01:19.684877,686333,1609507173331898,4773301794,-0.327936,1.04432,-0.882304,-60.7075,72.5025,96.0575,-28.376001,-21.128,-16.208,concentric,5,3.0,37821.0,174690.0,80978.0,170332.0,94019.0
2026-04-14 18:01:19.691993,686334,1609507173340838,4773310505,-0.271328,0.95648,-0.735904,-67.515,78.11125,94.33375,-29.216002,-20.464,-13.080001,concentric,5,3.0,37821.0,174690.0,80978.0,170332.0,94019.0
2026-04-14 18:01:19.702504,686335,1609507173349778,4773319221,-0.271328,0.95648,-0.735904,-76.01125,82.66125,93.66875,-29.216002,-20.464,-13.080001,concentric,5,3.0,37821.0,174690.0,80978.0,170332.0,94019.0
2026-04-14 18:01:19.715119,686336,1609507173364308,4773334198,-0.339648,0.921344,-0.57584,-79.345,85.25125,96.94125,-30.960001,-19.376001,-13.664001,concentric,5,3.0,37821.0,174690.0,80978.0,170332.0,94019.0
2026-04-14 18:01:19.748883,686347,1609507173373705,4773343356,-0.339648,0.921344,-0.74176,-77.16625,84.55125,101.73625,-30.960001,-19.376001,-13.664001,concentric,5,3.0,41589.0,176737.0,86431.0,172158.0,99849.0
2026-04-14 18:01:19.751338,686348,1609507173388270,4773358474,-0.36112,0.989664,-0.74176,-78.715004,81.9525,107.30125,-31.632002,-19.288,-13.512001,concentric,5,3.0,41589.0,176737.0,86431.0,172158.0,99849.0
2026-04-14 18:01:19.753387,686349,1609507173397448,4773367214,-0.206912,0.993568,-0.610976,-79.5025,80.7625,113.4875,-33.504,-17.816,-9.688001,concentric,5,3.0,41589.0,176737.0,86431.0,172158.0,99849.0
2026-04-14 18:01:19.758398,686350,1609507173406497,4773375960,-0.206912,0.993568,-0.610976,-76.48375,82.88,116.97875,-33.504,-17.816,-9.688001,concentric,5,3.0,41589.0,176737.0,86431.0,172158.0,99849.0
2026-04-14 18:01:19.774635,686351,1609507173421025,4773390871,-0.050752,1.020896,-0.466528,-73.395,87.8675,119.14,-34.416,-16.44,-7.488,concentric,5,3.0,41589.0,176737.0,86431.0,172158.0,99849.0
2026-04-14 18:01:19.782401,686352,1609507173429931,4773399572,-0.050752,1.020896,-0.466528,-73.465004,94.395,122.35125,-34.416,-16.44,-7.488,concentric,5,3.0,41589.0,176737.0,86431.0,172158.0,99849.0
2026-04-14 18:01:19.797444,686353,1609507173444423,4773414500,-0.080032,0.993568,-0.452864,-76.195,96.20625,124.18875,-35.304,-15.760001,-6.792,concentric,5,3.0,41589.0,176737.0,86431.0,172158.0,99849.0
2026-04-14 18:01:19.804879,686354,1609507173453388,4773423217,-0.080032,0.993568,-0.452864,-82.11875,93.75625,124.66125,-35.304,-15.760001,-6.792,concentric,5,3.0,41589.0,176737.0,86431.0,172158.0,99849.0
2026-04-14 18:01:19.820086,686355,1609507173467906,4773438111,-0.033184,1.001376,-0.49776,-88.375,89.8625,127.058754,-35.632,-14.096001,-5.696,concentric,5,3.0,41589.0,176737.0,86431.0,172158.0,99849.0
2026-04-14 18:01:19.851040,686366,1609507173477015,4773446879,-0.035136,1.018944,-0.591456,-87.675,88.7425,131.2675,-36.008003,-12.856001,-5.072,concentric,5,3.0,51621.0,183288.0,99357.0,178503.0,114115.0
2026-04-14 18:01:19.851484,686367,1609507173486033,4773455622,-0.035136,1.018944,-0.591456,-83.44875,90.37875,133.42,-36.008003,-12.856001,-5.072,concentric,5,3.0,51621.0,183288.0,99357.0,178503.0,114115.0
2026-04-14 18:01:19.853389,686368,1609507173500571,4773470576,-0.035136,1.052128,-0.54656,-78.60125,92.75,133.84875,-37.136,-10.872001,-2.488,concentric,5,3.0,51621.0,183288.0,99357.0,178503.0,114115.0
2026-04-14 18:01:19.861920,686369,1609507173509512,4773479274,-0.035136,1.052128,-0.54656,-80.43875,93.5375,134.58376,-37.136,-10.872001,-2.488,concentric,5,3.0,51621.0,183288.0,99357.0,178503.0,114115.0
2026-04-14 18:01:19.896295,686370,1609507173524039,4773494243,-0.027328,0.93696,-0.41968,-85.95125,92.82875,135.4325,-37.04,-9.576,-1.376,concentric,5,3.0,51621.0,183288.0,99357.0,178503.0,114115.0
2026-04-14 18:01:19.898905,686371,1609507173533145,4773502938,-0.027328,0.93696,-0.41968,-91.28875,88.7075,136.5175,-37.04,-9.576,-1.376,concentric,5,3.0,51621.0,183288.0,99357.0,178503.0,114115.0
2026-04-14 18:01:19.901344,686372,1609507173542071,4773511615,0.056608,0.815936,-0.626592,-88.36625,85.995,140.07875,-38.112003,-7.496,-2.208,concentric,5,3.0,51621.0,183288.0,99357.0,178503.0,114115.0
2026-04-14 18:01:19.925825,686373,1609507173556598,4773526502,0.179584,0.84912,-0.324032,-80.63125,83.67625,144.235,-38.176003,-5.752,0.088,concentric,5,3.0,51621.0,183288.0,99357.0,178503.0,114115.0
2026-04-14 18:01:19.952158,686374,1609507173565575,4773535228,0.179584,0.84912,-0.324032,-73.535,80.683754,148.33875,-38.176003,-5.752,0.088,concentric,5,3.0,51621.0,183288.0,99357.0,178503.0,114115.0
