pc_time,serial_num,sensor_ts,host_ts,ax,ay,az,gx,gy,gz,mx,my,mz,phase,rpe,weight_kg,ppg_a,ppg_b,ppg_c,ppg_d,ppg_e
2026-04-14 18:01:11.970829,684881,1609507165618857,4765588773,-0.22448,0.925248,-0.718336,-62.67625,98.035,127.7675,-34.768,-14.68,-8.312,eccentric,5,3.0,49120.0,184397.0,95168.0,177759.0,110887.0
2026-04-14 18:01:12.003747,684892,1609507165633458,4765603795,-0.148352,0.798368,-0.632448,-65.135,98.1925,131.7575,-35.704002,-13.440001,-6.608,eccentric,5,3.0,57199.0,189293.0,104793.0,182216.0,121586.0
2026-04-14 18:01:12.006189,684893,1609507165642429,4765612547,-0.148352,0.798368,-0.632448,-60.2525,99.89,135.23125,-35.704002,-13.440001,-6.608,eccentric,5,3.0,57199.0,189293.0,104793.0,182216.0,121586.0
2026-04-14 18:01:12.018775,684894,1609507165656970,4765625508,-0.138592,0.925248,-0.396256,-51.84375,102.2525,136.45625,-37.104,-11.864,-3.104,eccentric,5,3.0,57199.0,189293.0,104793.0,182216.0,121586.0
2026-04-14 18:01:12.022810,684895,1609507165666459,4765636303,-0.080032,0.96624,-0.47824,-47.7925,104.01125,135.5375,-37.56,-10.216001,-3.192,eccentric,5,3.0,57199.0,189293.0,104793.0,182216.0,121586.0
2026-04-14 18:01:12.026935,684896,1609507165675440,4765645059,-0.080032,0.96624,-0.47824,-54.1275,103.6175,133.2275,-37.56,-10.216001,-3.192,eccentric,5,3.0,57199.0,189293.0,104793.0,182216.0,121586.0
2026-04-14 18:01:12.041855,684897,1609507165689953,4765659968,0.06832,0.804224,-0.372832,-62.23875,101.8325,133.20125,-37.056004,-8.352,-1.784,eccentric,5,3.0,57199.0,189293.0,104793.0,182216.0,121586.0
2026-04-14 18:01:12.049396,684898,1609507165698905,4765668713,0.06832,0.804224,-0.372832,-67.9,100.98375,134.6975,-37.056004,-8.352,-1.784,eccentric,5,3.0,57199.0,189293.0,104793.0,182216.0,121586.0
2026-04-14 18:01:12.064655,684899,1609507165713416,4765683612,0.050752,0.81984,-0.579744,-63.58625,102.7075,139.09875,-38.120003,-6.76,-0.24,eccentric,5,3.0,57199.0,189293.0,104793.0,182216.0,121586.0
2026-04-14 18:01:12.075794,684900,1609507165722375,4765692301,0.050752,0.81984,-0.579744,-54.04,102.4975,141.0675,-38.120003,-6.76,-0.24,eccentric,5,3.0,57199.0,189293.0,104793.0,182216.0,121586.0
2026-04-14 18:01:12.107210,684911,1609507165731552,4765701069,0.173728,0.890112,-0.294752,-49.201252,99.96,141.295,-37.128002,-5.296001,-0.216,eccentric,5,3.0,75731.0,199419.0,126592.0,192138.0,147171.0
2026-04-14 18:01:12.111691,684912,1609507165746154,4765715972,0.199104,0.753472,-0.269376,-53.19125,96.52125,139.95625,-38.08,-3.08,3.96,eccentric,5,3.0,75731.0,199419.0,126592.0,192138.0,147171.0
2026-04-14 18:01:12.112044,684913,1609507165755211,4765724744,0.199104,0.753472,-0.269376,-60.7425,93.8175,137.7775,-38.08,-3.08,3.96,eccentric,5,3.0,75731.0,199419.0,126592.0,192138.0,147171.0
2026-04-14 18:01:12.121243,684914,1609507165769740,4765739653,0.255712,0.708576,-0.480192,-61.90625,93.765,136.99,-37.512,-1.52,4.072,eccentric,5,3.0,75731.0,199419.0,126592.0,192138.0,147171.0
2026-04-14 18:01:12.129478,684915,1609507165778788,4765748347,0.255712,0.708576,-0.480192,-54.39,97.37875,136.9025,-37.512,-1.52,4.072,eccentric,5,3.0,75731.0,199419.0,126592.0,192138.0,147171.0
2026-04-14 18:01:12.139588,684916,1609507165787876,4765757039,0.329888,0.743712,-0.15616,-47.52125,100.05625,136.08875,-38.224003,1.312,5.376,eccentric,5,3.0,75731.0,199419.0,126592.0,192138.0,147171.0
2026-04-14 18:01:12.153446,684917,1609507165802368,4765772036,0.329888,0.743712,-0.15616,-45.8675,99.435,136.5,-38.224003,1.312,5.376,eccentric,5,3.0,75731.0,199419.0,126592.0,192138.0,147171.0
2026-04-14 18:01:12.179750,684918,1609507165811305,4765780743,0.396256,0.67344,-0.128832,-48.265,95.54125,137.20876,-36.384003,2.512,4.368,eccentric,5,3.0,75731.0,199419.0,126592.0,192138.0,147171.0
2026-04-14 18:01:12.182252,684919,1609507165825976,4765795624,0.35136,0.636352,-0.193248,-48.107502,94.12375,138.6525,-36.384003,4.112,5.128,eccentric,5,3.0,75731.0,199419.0,126592.0,192138.0,147171.0
2026-04-14 18:01:12.244608,684930,1609507165835012,4765804366,0.35136,0.636352,-0.193248,-45.64,94.14125,137.85625,-36.52,4.112,5.128,eccentric,5,3.0,96789.0,212135.0,151267.0,203440.0,174102.0
2026-04-14 18:01:12.247115,684931,1609507165843961,4765813106,0.35136,0.636352,-0.193248,-43.5225,91.9625,135.3975,-36.52,4.112,5.128,eccentric,5,3.0,96789.0,212135.0,151267.0,203440.0,174102.0
2026-04-14 18:01:12.249625,684932,1609507165858474,4765828110,0.466528,0.577792,-0.150304,-44.89625,90.0725,132.79875,-35.648003,6.072001,7.536,eccentric,5,3.0,96789.0,212135.0,151267.0,203440.0,174102.0
2026-04-14 18:01:12.252056,684933,1609507165867518,4765836820,0.499712,0.59536,0.074176,-47.0575,88.36625,133.21,-35.008003,7.704001,7.744,eccentric,5,3.0,96789.0,212135.0,151267.0,203440.0,174102.0
2026-04-14 18:01:12.254625,684934,1609507165882058,4765851809,0.499712,0.59536,0.074176,-46.50625,87.6925,135.21375,-35.008003,7.704001,7.744,eccentric,5,3.0,96789.0,212135.0,151267.0,203440.0,174102.0
2026-04-14 18:01:12.257139,684935,1609507165891018,4765860594,0.44896,0.558272,-0.091744,-44.1175,88.0425,133.35,-33.976,9.728001,9.120001,eccentric,5,3.0,96789.0,212135.0,151267.0,203440.0,174102.0
2026-04-14 18:01:12.259652,684936,1609507165905604,4765875521,0.44896,0.558272,-0.091744,-41.2475,86.19625,130.01625,-33.976,9.728001,9.120001,eccentric,5,3.0,96789.0,212135.0,151267.0,203440.0,174102.0
2026-04-14 18:01:12.265867,684937,1609507165914581,4765884185,0.554368,0.466528,-0.040992,-38.85,82.83625,126.20125,-33.128002,10.72,9.304001,eccentric,5,3.0,96789.0,212135.0,151267.0,203440.0,174102.0
2026-04-14 18:01:12.273519,684938,1609507165923522,4765892938,0.554368,0.466528,-0.040992,-41.85125,76.62375,124.6,-33.128002,10.72,9.304001,eccentric,5,3.0,96789.0,212135.0,151267.0,203440.0,174102.0
2026-04-14 18:01:12.308603,684949,1609507165938123,4765907969,0.657824,0.417728,0.255712,-41.85125,72.6775,126.04375,-31.296001,12.312,9.440001,eccentric,5,3.0,108733.0,225229.0,166221.0,214598.0,188535.0
2026-04-14 18:01:12.317129,684950,1609507165947127,4765916715,0.650016,0.339648,0.16592,-40.59125,71.86375,125.39625,-30.256,13.480001,9.968,eccentric,5,3.0,108733.0,225229.0,166221.0,214598.0,188535.0
2026-04-14 18:01:12.321929,684951,1609507165961744,4765931625,0.650016,0.339648,0.16592,-38.49125,68.08375,121.957504,-30.256,13.480001,9.968,eccentric,5,3.0,108733.0,225229.0,166221.0,214598.0,188535.0
2026-04-14 18:01:12.328242,684952,1609507165970701,4765940342,0.66368,0.3416,0.169824,-31.325,67.59375,117.53875,-29.112001,15.248001,10.984,eccentric,5,3.0,108733.0,225229.0,166221.0,214598.0,188535.0
2026-04-14 18:01:12.337905,684953,1609507165985206,4765955298,0.66368,0.3416,0.169824,-25.3225,64.63625,110.32,-29.112001,15.248001,10.984,eccentric,5,3.0,108733.0,225229.0,166221.0,214598.0,188535.0
2026-04-14 18:01:12.345880,684954,1609507165994145,4765964025,0.626592,0.325984,0.154208,-26.17125,59.42125,103.1275,-27.784,16.088001,10.992001,eccentric,5,3.0,108733.0,225229.0,166221.0,214598.0,188535.0
2026-04-14 18:01:12.356176,684955,1609507166003081,4765972730,0.626592,0.325984,0.154208,-30.1175,54.32,97.16875,-27.784,16.088001,10.992001,eccentric,5,3.0,108733.0,225229.0,166221.0,214598.0,188535.0
2026-04-14 18:01:12.369935,684956,1609507166017587,4765987596,0.714432,0.20496,0.413824,-35.00875,46.40125,95.47125,-27.44,17.376001,11.368001,eccentric,5,3.0,108733.0,225229.0,166221.0,214598.0,188535.0
2026-04-14 18:01:12.377150,684957,1609507166026655,4765996380,0.714432,0.20496,0.349408,-30.82625,40.48625,95.515,-27.44,17.376001,11.368001,eccentric,5,3.0,108733.0,225229.0,166221.0,214598.0,188535.0
2026-04-14 18:01:12.433735,684968,1609507166041471,4766011351,0.726144,0.16592,0.349408,-21.245,38.22875,88.83,-26.208002,18.28,11.72,eccentric,5,3.0,111263.0,231633.0,169571.0,219606.0,191405.0
2026-04-14 18:01:12.436189,684969,1609507166050527,4766020169,0.694912,0.244,0.294752,-11.1825,36.513752,78.33875,-26.232,19.488,13.160001,eccentric,5,3.0,111263.0,231633.0,169571.0,219606.0,191405.0
2026-04-14 18:01:12.438711,684970,1609507166059490,4766028927,0.694912,0.244,0.294752,-5.2675,37.19625,68.8975,-26.232,19.488,13.160001,eccentric,5,3.0,111263.0,231633.0,169571.0,219606.0,191405.0
2026-04-14 18:01:12.441222,684971,1609507166073986,4766043842,0.81008,0.099552,0.495808,-7.91,34.65875,60.9525,-25.584002,20.088001,13.168,eccentric,5,3.0,111263.0,231633.0,169571.0,219606.0,191405.0
2026-04-14 18:01:12.443750,684972,1609507166083011,4766052641,0.81008,0.099552,0.495808,-13.93875,29.67125,56.3675,-25.584002,20.088001,13.168,eccentric,5,3.0,111263.0,231633.0,169571.0,219606.0,191405.0
2026-04-14 18:01:12.449993,684973,1609507166097540,4766067644,0.812032,0.0488,0.384544,-12.94125,27.7025,54.853752,-25.36,20.36,13.6,eccentric,5,3.0,111263.0,231633.0,169571.0,219606.0,191405.0
2026-04-14 18:01:12.458346,684974,1609507166106507,4766076329,0.812032,0.0488,0.384544,2.05625,23.31875,45.66625,-25.36,20.36,13.6,eccentric,5,3.0,111263.0,231633.0,169571.0,219606.0,191405.0
2026-04-14 18:01:12.473381,684975,1609507166121161,4766091335,0.759328,0.093696,0.257664,15.0325,18.33125,29.715,-24.912,19.936,11.592001,eccentric,5,3.0,111263.0,231633.0,169571.0,219606.0,191405.0
2026-04-14 18:01:12.505759,684986,1609507166130091,4766100151,0.825696,0.132736,0.245952,20.2125,11.33125,22.23375,-23.840002,20.152,12.936001,eccentric,5,3.0,109891.0,234366.0,168262.0,221752.0,190062.0
2026-04-14 18:01:12.508210,684987,1609507166139161,4766108908,0.825696,0.132736,0.245952,16.09125,7.0525,18.935,-23.840002,20.152,12.936001,eccentric,5,3.0,109891.0,234366.0,168262.0,221752.0,190062.0
2026-04-14 18:01:12.510771,684988,1609507166153728,4766123846,0.792512,0.056608,0.4392,9.3975,4.71625,13.4925,-23.528002,20.12,12.84,eccentric,5,3.0,109891.0,234366.0,168262.0,221752.0,190062.0
2026-04-14 18:01:12.514907,684989,1609507166162629,4766132528,0.792512,0.056608,0.4392,4.54125,-1.5925,8.53125,-23.528002,20.12,12.84,eccentric,5,3.0,109891.0,234366.0,168262.0,221752.0,190062.0
2026-04-14 18:01:12.547513,684990,1609507166177255,4766147486,0.854976,0.005856,0.363072,8.32125,-7.0175,3.4125,-24.256,20.336,12.944,eccentric,5,3.0,109891.0,234366.0,168262.0,221752.0,190062.0
2026-04-14 18:01:12.572227,684991,1609507166186184,4766156188,0.854976,0.005856,0.363072,18.445,-14.035,-4.94375,-24.256,20.336,12.944,eccentric,5,3.0,109891.0,234366.0,168262.0,221752.0,190062.0
2026-04-14 18:01:12.596942,684992,1609507166195126,4766164871,0.862784,0.109312,0.392352,24.3775,-22.435,-12.495,-25.704,20.04,13.264001,eccentric,5,3.0,109891.0,234366.0,168262.0,221752.0,190062.0
2026-04-14 18:01:12.609108,684993,1609507166209641,4766179755,0.806176,0.18544,0.40992,26.241251,-22.2075,-16.14375,-26.152,19.832,14.896001,eccentric,5,3.0,109891.0,234366.0,168262.0,221752.0,190062.0
2026-04-14 18:01:12.615508,684994,1609507166218680,4766188464,0.806176,0.18544,0.40992,26.92375,-21.91,-21.41125,-26.152,19.832,14.896001,eccentric,5,3.0,109891.0,234366.0,168262.0,221752.0,190062.0
2026-04-14 18:01:12.629479,685005,1609507166233495,4766203375,0.737856,0.17568,0.284992,20.37875,-25.61125,-28.35875,-25.784,19.272001,13.448001,eccentric,5,3.0,108114.0,233197.0,167343.0,221115.0,189266.0
2026-04-14 18:01:12.632367,685006,1609507166242588,4766212086,0.737856,0.17568,0.284992,15.5575,-29.32125,-32.4975,-25.784,19.272001,13.448001,eccentric,5,3.0,108114.0,233197.0,167343.0,221115.0,189266.0
2026-04-14 18:01:12.634945,685007,1609507166251693,4766220789,0.737856,0.15616,0.091744,14.37625,-34.7025,-36.56625,-26.496002,18.848001,13.72,eccentric,5,3.0,108114.0,233197.0,167343.0,221115.0,189266.0
2026-04-14 18:01:12.637437,685008,1609507166266195,4766235760,0.737856,0.15616,0.091744,14.4025,-39.4975,-41.763752,-26.496002,18.848001,13.72,eccentric,5,3.0,108114.0,233197.0,167343.0,221115.0,189266.0
2026-04-14 18:01:12.639779,685009,1609507166275166,4766244455,0.737856,0.218624,0.169824,15.72375,-42.14875,-45.84125,-27.080002,18.296001,13.344001,eccentric,5,3.0,108114.0,233197.0,167343.0,221115.0,189266.0
2026-04-14 18:01:12.644589,685010,1609507166289698,4766259335,0.79056,0.25376,0.242048,17.15,-43.11125,-50.12875,-27.576002,17.44,10.592001,eccentric,5,3.0,108114.0,233197.0,167343.0,221115.0,189266.0
2026-04-14 18:01:12.650074,685011,1609507166298637,4766268036,0.79056,0.25376,0.242048,18.52375,-44.07375,-54.3375,-27.576002,17.44,10.592001,eccentric,5,3.0,108114.0,233197.0,167343.0,221115.0,189266.0
2026-04-14 18:01:12.665043,685012,1609507166313216,4766282951,0.685152,0.31232,0.134688,18.17375,-46.8125,-58.63375,-27.408,16.544,11.848001,eccentric,5,3.0,108114.0,233197.0,167343.0,221115.0,189266.0
2026-04-14 18:01:12.678457,685013,1609507166322196,4766291638,0.685152,0.31232,0.134688,15.74125,-51.03875,-62.44,-27.408,16.544,11.848001,eccentric,5,3.0,108114.0,233197.0,167343.0,221115.0,189266.0
2026-04-14 18:01:12.682086,685014,1609507166331169,4766300353,0.718336,0.290848,0.025376,12.52125,-56.2625,-65.14375,-28.072,16.016,10.872001,eccentric,5,3.0,108114.0,233197.0,167343.0,221115.0,189266.0
2026-04-14 18:01:12.709493,685025,1609507166345685,4766315329,0.718336,0.290848,0.025376,11.13875,-61.81875,-67.3225,-28.072,16.016,10.872001,eccentric,5,3.0,106160.0,233791.0,166871.0,222492.0,188676.0
2026-04-14 18:01:12.712416,685026,1609507166354705,4766324068,0.706624,0.363072,0.162016,10.05375,-66.70125,-68.915,-29.400002,14.984001,10.664001,eccentric,5,3.0,106160.0,233791.0,166871.0,222492.0,188676.0
2026-04-14 18:01:12.722460,685027,1609507166369239,4766338995,0.706624,0.372832,0.00976,11.62875,-69.2825,-70.5425,-29.400002,14.984001,10.664001,eccentric,5,3.0,106160.0,233791.0,166871.0,222492.0,188676.0
2026-04-14 18:01:12.728814,685028,1609507166378219,4766347723,0.687104,0.372832,0.00976,14.60375,-69.41375,-73.4125,-29.960001,14.392001,12.152,eccentric,5,3.0,106160.0,233791.0,166871.0,222492.0,188676.0
2026-04-14 18:01:12.744589,685029,1609507166392750,4766362623,0.724192,0.415776,0.226432,15.72375,-69.895,-77.21875,-30.672,13.448001,9.160001,eccentric,5,3.0,106160.0,233791.0,166871.0,222492.0,188676.0
2026-04-14 18:01:12.753776,685030,1609507166401746,4766371320,0.724192,0.415776,0.226432,14.86625,-71.86375,-80.99,-30.672,13.448001,9.160001,eccentric,5,3.0,106160.0,233791.0,166871.0,222492.0,188676.0
2026-04-14 18:01:12.761945,685031,1609507166410705,4766380046,0.714432,0.4392,0.242048,12.425,-76.13375,-83.965004,-32.744003,12.64,7.04,eccentric,5,3.0,106160.0,233791.0,166871.0,222492.0,188676.0
2026-04-14 18:01:12.778827,685032,1609507166425194,4766394986,0.714432,0.4392,0.242048,11.935,-80.885,-85.56625,-32.744003,12.64,7.04,eccentric,5,3.0,106160.0,233791.0,166871.0,222492.0,188676.0
2026-04-14 18:01:12.808383,685043,1609507166434641,4766404032,0.669536,0.423584,-0.171776,14.11375,-84.44625,-87.465004,-32.480003,11.136001,7.12,eccentric,5,3.0,104445.0,230121.0,166528.0,220148.0,188618.0
2026-04-14 18:01:12.810650,685044,1609507166449241,4766419008,0.669536,0.423584,0.031232,14.5075,-90.51,-90.04625,-32.480003,11.136001,7.12,eccentric,5,3.0,104445.0,230121.0,166528.0,220148.0,188618.0
2026-04-14 18:01:12.813155,685045,1609507166458276,4766427870,0.74176,0.493856,0.035136,11.82125,-93.33625,-91.0525,-34.384003,10.528001,8.200001,eccentric,5,3.0,104445.0,230121.0,166528.0,220148.0,188618.0
2026-04-14 18:01:12.818474,685046,1609507166467240,4766436584,0.74176,0.493856,0.035136,15.61875,-86.555,-93.63375,-34.384003,10.528001,8.200001,eccentric,5,3.0,104445.0,230121.0,166528.0,220148.0,188618.0
2026-04-14 18:01:12.833475,685047,1609507166481772,4766451506,0.659776,0.480192,0.0976,25.90875,-84.81375,-97.3,-34.776,9.360001,6.728,eccentric,5,3.0,104445.0,230121.0,166528.0,220148.0,188618.0
2026-04-14 18:01:12.842005,685048,1609507166490714,4766460223,0.61488,0.554368,-0.0976,31.928751,-86.45,-101.63125,-35.816,7.824,4.592,eccentric,5,3.0,104445.0,230121.0,166528.0,220148.0,188618.0
2026-04-14 18:01:12.855925,685049,1609507166505206,4766475202,0.61488,0.554368,-0.0976,34.16,-86.4675,-105.28,-35.816,7.824,4.592,eccentric,5,3.0,104445.0,230121.0,166528.0,220148.0,188618.0
2026-04-14 18:01:12.864714,685050,1609507166514120,4766483934,0.501664,0.6344,-0.382592,33.97625,-86.30125,-109.2875,-35.320004,6.32,3.784,eccentric,5,3.0,104445.0,230121.0,166528.0,220148.0,188618.0
2026-04-14 18:01:12.874861,685051,1609507166523171,4766492634,0.501664,0.6344,-0.382592,26.6,-86.87875,-111.71125,-35.320004,6.32,3.784,eccentric,5,3.0,104445.0,230121.0,166528.0,220148.0,188618.0
2026-04-14 18:01:12.952218,685062,1609507166537818,4766507637,0.56608,0.55632,-0.173728,19.215,-92.68875,-109.03375,-37.064003,5.264,3.968,eccentric,5,3.0,74172.0,207573.0,130850.0,199182.0,147368.0
2026-04-14 18:01:12.954711,685063,1609507166546816,4766516379,0.56608,0.55632,-0.173728,21.70875,-89.78375,-105.86625,-37.064003,5.264,3.968,eccentric,5,3.0,74172.0,207573.0,130850.0,199182.0,147368.0
2026-04-14 18:01:12.957223,685064,1609507166561340,4766531265,0.47824,0.560224,-0.089792,31.5525,-88.85625,-107.17875,-37.344,3.696,3.752,eccentric,5,3.0,74172.0,207573.0,130850.0,199182.0,147368.0
2026-04-14 18:01:12.961404,685065,1609507166570488,4766539988,0.47824,0.685152,-0.199104,42.7875,-91.53375,-111.44875,-37.344,3.696,3.752,eccentric,5,3.0,74172.0,207573.0,130850.0,199182.0,147368.0
2026-04-14 18:01:12.964609,685066,1609507166585000,4766554930,0.404064,0.677344,-0.199104,52.325,-90.2125,-114.555,-38.728,2.912,3.304,eccentric,5,3.0,74172.0,207573.0,130850.0,199182.0,147368.0
2026-04-14 18:01:12.969471,685067,1609507166594038,4766563675,0.339648,0.706624,-0.33184,54.416252,-94.29875,-116.26125,-38.920002,1.056,1.176,eccentric,5,3.0,74172.0,207573.0,130850.0,199182.0,147368.0
2026-04-14 18:01:12.969608,685068,1609507166603054,4766572587,0.339648,0.706624,-0.33184,50.575,-98.1225,-115.99,-38.920002,1.056,1.176,eccentric,5,3.0,74172.0,207573.0,130850.0,199182.0,147368.0
2026-04-14 18:01:12.972834,685069,1609507166617559,4766587515,0.415776,0.579744,-0.40016,43.33,-103.31125,-113.3475,-38.616,-0.424,-2.608,eccentric,5,3.0,74172.0,207573.0,130850.0,199182.0,147368.0
2026-04-14 18:01:12.977080,685070,1609507166626496,4766596198,0.415776,0.579744,-0.40016,44.58125,-103.4775,-111.44,-38.616,-0.424,-2.608,eccentric,5,3.0,74172.0,207573.0,130850.0,199182.0,147368.0
2026-04-14 18:01:13.009496,685081,1609507166641184,4766611291,0.343552,0.64416,-0.365024,58.94875,-98.69125,-113.1025,-37.624,-2.4,-2.544,eccentric,5,3.0,58264.0,195838.0,110788.0,188236.0,125981.0
2026-04-14 18:01:13.012519,685082,1609507166650267,4766620122,0.343552,0.64416,-0.365024,74.54125,-91.6825,-118.6325,-37.624,-2.4,-2.544,eccentric,5,3.0,58264.0,195838.0,110788.0,188236.0,125981.0
2026-04-14 18:01:13.015045,685083,1609507166659234,4766628848,0.21472,0.835456,-0.3904,72.205,-90.67625,-124.24125,-38.256,-3.32,-2.32,eccentric,5,3.0,58264.0,195838.0,110788.0,188236.0,125981.0
2026-04-14 18:01:13.027049,685084,1609507166673850,4766643794,0.13664,0.81984,-0.571936,56.53375,-95.996254,-124.73125,-38.376003,-4.88,-4.568,eccentric,5,3.0,58264.0,195838.0,110788.0,188236.0,125981.0
2026-04-14 18:01:13.034988,685085,1609507166682857,4766652493,0.13664,0.81984,-0.571936,43.19875,-100.16125,-122.92875,-38.376003,-4.88,-4.568,eccentric,5,3.0,58264.0,195838.0,110788.0,188236.0,125981.0
2026-04-14 18:01:13.065871,685086,1609507166697367,4766667418,0.245952,0.620736,-0.489952,33.08375,-107.065,-122.3425,-37.848003,-6.656,-6.64,eccentric,5,3.0,58264.0,195838.0,110788.0,188236.0,125981.0
2026-04-14 18:01:13.073445,685087,1609507166706295,4766676108,0.245952,0.620736,-0.489952,37.485,-106.2075,-121.26625,-37.848003,-6.656,-6.64,eccentric,5,3.0,58264.0,195838.0,110788.0,188236.0,125981.0
2026-04-14 18:01:13.076993,685088,1609507166720824,4766691164,0.152256,0.823744,-0.40016,50.8725,-101.4825,-123.375,-37.496002,-8.280001,-7.04,eccentric,5,3.0,58264.0,195838.0,110788.0,188236.0,125981.0
2026-04-14 18:01:13.083097,685089,1609507166729827,4766699877,0.152256,0.823744,-0.40016,57.295002,-95.3925,-126.97125,-37.496002,-8.280001,-7.04,eccentric,5,3.0,58264.0,195838.0,110788.0,188236.0,125981.0
2026-04-14 18:01:13.110808,685100,1609507166739030,4766708895,0.007808,0.968192,-0.607072,41.30875,-97.51875,-130.865,-37.280003,-9.224,-8.248,eccentric,5,3.0,60996.0,189312.0,115714.0,183523.0,132215.0
2026-04-14 18:01:13.113221,685101,1609507166753704,4766723816,0.033184,0.710528,-0.612928,17.0625,-106.6275,-130.83,-36.368,-10.496,-8.992001,eccentric,5,3.0,60996.0,189312.0,115714.0,183523.0,132215.0
2026-04-14 18:01:13.116201,685102,1609507166762649,4766732531,0.033184,0.710528,-0.612928,5.85375,-108.80625,-127.95125,-36.368,-10.496,-8.992001,eccentric,5,3.0,60996.0,189312.0,115714.0,183523.0,132215.0
2026-04-14 18:01:13.131291,685103,1609507166777190,4766747476,-0.044896,0.700768,-0.528992,6.79,-111.39625,-127.89875,-36.216003,-11.744,-9.648001,eccentric,5,3.0,60996.0,189312.0,115714.0,183523.0,132215.0
2026-04-14 18:01:13.137554,685104,1609507166786107,4766756225,-0.044896,0.700768,-0.528992,25.26125,-103.871254,-127.58375,-36.216003,-11.744,-9.648001,eccentric,5,3.0,60996.0,189312.0,115714.0,183523.0,132215.0
2026-04-14 18:01:13.146259,685105,1609507166795032,4766764902,-0.124928,0.91744,-0.454816,45.71,-95.19125,-129.40375,-33.72,-13.304001,-13.080001,eccentric,5,3.0,60996.0,189312.0,115714.0,183523.0,132215.0
2026-04-14 18:01:13.162106,685106,1609507166809549,4766779802,-0.124928,0.91744,-0.454816,50.4875,-91.8925,-130.4975,-33.72,-13.304001,-13.080001,eccentric,5,3.0,60996.0,189312.0,115714.0,183523.0,132215.0
2026-04-14 18:01:13.171574,685107,1609507166818501,4766788475,-0.290848,0.964288,-0.866688,36.2775,-97.23,-130.22626,-32.936,-14.936001,-14.712001,eccentric,5,3.0,60996.0,189312.0,115714.0,183523.0,132215.0
2026-04-14 18:01:13.186143,685108,1609507166833042,4766803413,-0.238144,0.778848,-0.763232,17.99,-100.8525,-127.81125,-32.024002,-16.36,-15.192,eccentric,5,3.0,60996.0,189312.0,115714.0,183523.0,132215.0
2026-04-14 18:01:13.213742,685119,1609507166842150,4766812181,-0.238144,0.778848,-0.763232,9.292501,-102.15625,-125.13375,-32.024002,-16.36,-15.192,concentric,5,3.0,50596.0,180868.0,101184.0,175665.0,115888.0
2026-04-14 18:01:13.216322,685120,1609507166856672,4766825079,-0.28304,0.759328,-0.651968,15.846251,-98.39375,-122.29,-32.0,-16.784,-15.816001,concentric,5,3.0,50596.0,180868.0,101184.0,175665.0,115888.0
2026-04-14 18:01:13.218732,685121,1609507166865961,4766835873,-0.28304,0.759328,-0.651968,33.215,-87.66625,-119.07,-32.0,-16.784,-15.816001,concentric,5,3.0,50596.0,180868.0,101184.0,175665.0,115888.0
2026-04-14 18:01:13.225798,685122,1609507166874908,4766844620,-0.488,0.962336,-0.837408,47.64375,-77.7875,-117.88,-30.536001,-17.496,-16.848001,concentric,5,3.0,50596.0,180868.0,101184.0,175665.0,115888.0
2026-04-14 18:01:13.241330,685123,1609507166889485,4766859707,-0.488,0.962336,-0.837408,54.34625,-71.995,-116.865,-30.536001,-17.496,-16.848001,concentric,5,3.0,50596.0,180868.0,101184.0,175665.0,115888.0
2026-04-14 18:01:13.250472,685124,1609507166898410,4766868403,-0.501664,0.94672,-1.040416,51.02125,-68.81,-113.12875,-29.192001,-18.288,-18.848001,concentric,5,3.0,50596.0,180868.0,101184.0,175665.0,115888.0
2026-04-14 18:01:13.284521,685125,1609507166913021,4766883274,-0.515328,0.866688,-0.933056,44.0825,-68.3725,-104.85125,-27.128002,-18.880001,-21.152,concentric,5,3.0,50596.0,180868.0,101184.0,175665.0,115888.0
2026-04-14 18:01:13.308192,685126,1609507166921938,4766892013,-0.515328,0.866688,-0.933056,43.05,-65.45875,-97.825,-27.128002,-18.880001,-21.152,concentric,5,3.0,50596.0,180868.0,101184.0,175665.0,115888.0
2026-04-14 18:01:13.310623,685127,1609507166930904,4766900709,-0.515328,0.866688,-0.933056,45.28125,-61.8275,-92.98625,-27.128002,-18.880001,-21.152,concentric,5,3.0,50596.0,180868.0,101184.0,175665.0,115888.0
2026-04-14 18:01:13.338755,685138,1609507166945507,4766915844,-0.37088,0.909632,-0.74176,48.3875,-55.405,-87.6225,-26.424002,-19.712002,-20.248001,concentric,5,3.0,39738.0,173755.0,85881.0,168978.0,99102.0
2026-04-14 18:01:13.341267,685139,1609507166954445,4766924516,-0.33184,0.95648,-0.728096,51.35375,-49.90125,-83.88625,-25.632002,-19.064001,-20.720001,concentric,5,3.0,39738.0,173755.0,85881.0,168978.0,99102.0
2026-04-14 18:01:13.343464,685140,1609507166968969,4766937432,-0.33184,0.95648,-0.728096,50.9425,-45.7975,-80.6575,-25.632002,-19.064001,-20.720001,concentric,5,3.0,39738.0,173755.0,85881.0,168978.0,99102.0
2026-04-14 18:01:13.345790,685141,1609507166978474,4766948284,-0.314272,0.913536,-0.882304,47.775,-43.155,-77.93625,-24.68,-19.832,-21.68,concentric,5,3.0,39738.0,173755.0,85881.0,168978.0,99102.0
2026-04-14 18:01:13.348519,685142,1609507166987423,4766956961,-0.314272,0.913536,-0.882304,44.89625,-41.71125,-76.58,-24.68,-19.832,-21.68,concentric,5,3.0,39738.0,173755.0,85881.0,168978.0,99102.0
2026-04-14 18:01:13.353766,685143,1609507167001990,4766971915,-0.206912,0.899872,-0.745664,46.9875,-41.65875,-74.2875,-23.672,-19.792002,-22.688002,concentric,5,3.0,39738.0,173755.0,85881.0,168978.0,99102.0
2026-04-14 18:01:13.362135,685144,1609507167010974,4766980633,-0.206912,0.899872,-0.745664,51.415,-41.83375,-71.75,-23.672,-19.792002,-22.688002,concentric,5,3.0,39738.0,173755.0,85881.0,168978.0,99102.0
2026-04-14 18:01:13.377034,685145,1609507167025501,4766995509,-0.2928,0.938912,-0.696864,49.95375,-43.19875,-70.11375,-22.768002,-19.824001,-23.336,concentric,5,3.0,39738.0,173755.0,85881.0,168978.0,99102.0
2026-04-14 18:01:13.390729,685146,1609507167034478,4767004204,-0.325984,0.91744,-0.806176,45.2025,-46.1825,-68.46875,-22.856,-19.936,-21.448002,concentric,5,3.0,39738.0,173755.0,85881.0,168978.0,99102.0
2026-04-14 18:01:13.418655,685157,1609507167049075,4767019110,-0.325984,0.91744,-0.806176,40.3025,-49.84875,-68.06625,-22.856,-19.936,-21.448002,concentric,5,3.0,42219.0,177546.0,89174.0,171681.0,103111.0
2026-04-14 18:01:13.421300,685158,1609507167058014,4767027872,-0.279136,0.854976,-0.843264,34.43125,-52.52625,-69.685,-20.792002,-19.84,-23.696001,concentric,5,3.0,42219.0,177546.0,89174.0,171681.0,103111.0
2026-04-14 18:01:13.423521,685159,1609507167067003,4767036626,-0.279136,0.854976,-0.843264,30.66,-54.845,-71.12875,-20.792002,-19.84,-23.696001,concentric,5,3.0,42219.0,177546.0,89174.0,171681.0,103111.0
2026-04-14 18:01:13.432554,685160,1609507167081732,4767051595,-0.41968,0.808128,-0.84912,28.18375,-56.46375,-72.485,-20.424002,-19.880001,-24.160002,concentric,5,3.0,42219.0,177546.0,89174.0,171681.0,103111.0
2026-04-14 18:01:13.442102,685161,1609507167090726,4767060322,-0.41968,0.808128,-0.84912,21.91875,-59.010002,-73.78875,-20.424002,-19.880001,-24.160002,concentric,5,3.0,42219.0,177546.0,89174.0,171681.0,103111.0
2026-04-14 18:01:13.458435,685162,1609507167105247,4767075223,-0.466528,0.694912,-0.776896,17.85875,-60.59375,-71.645,-19.480001,-20.416,-25.800001,concentric,5,3.0,42219.0,177546.0,89174.0,171681.0,103111.0
2026-04-14 18:01:13.465969,685163,1609507167114192,4767083901,-0.548512,0.685152,-0.642208,19.20625,-60.7075,-70.44625,-17.432001,-20.320002,-25.888,concentric,5,3.0,42219.0,177546.0,89174.0,171681.0,103111.0
2026-04-14 18:01:13.473635,685164,1609507167123205,4767092662,-0.548512,0.685152,-0.642208,22.23375,-58.8,-67.777504,-18.36,-20.320002,-25.888,concentric,5,3.0,42219.0,177546.0,89174.0,171681.0,103111.0
2026-04-14 18:01:13.515953,685175,1609507167138233,4767107881,-0.745664,0.732,-0.732,26.4425,-56.27125,-63.32375,-16.464,-20.632002,-26.792002,concentric,5,3.0,41481.0,172691.0,87832.0,167575.0,101641.0
2026-04-14 18:01:13.518515,685176,1609507167147252,4767116696,-0.745664,0.732,-0.732,25.31375,-56.455,-60.05125,-16.464,-20.632002,-26.792002,concentric,5,3.0,41481.0,172691.0,87832.0,167575.0,101641.0
2026-04-14 18:01:13.520974,685177,1609507167161796,4767131616,-0.755424,0.6832,-0.786656,17.6575,-59.14125,-57.49625,-16.112001,-19.968,-25.248001,concentric,5,3.0,41481.0,172691.0,87832.0,167575.0,101641.0
2026-04-14 18:01:13.523502,685178,1609507167170743,4767140432,-0.755424,0.6832,-0.786656,7.455,-63.00875,-55.055,-16.112001,-19.968,-25.248001,concentric,5,3.0,41481.0,172691.0,87832.0,167575.0,101641.0
2026-04-14 18:01:13.529505,685179,1609507167179692,4767149150,-0.651968,0.583648,-0.763232,2.38875,-64.89875,-53.1475,-16.032001,-20.480001,-25.144001,concentric,5,3.0,41481.0,172691.0,87832.0,167575.0,101641.0
2026-04-14 18:01:13.545882,685180,1609507167194238,4767164041,-0.651968,0.630496,-0.700768,2.94875,-61.915,-51.66875,-16.032001,-20.480001,-25.144001,concentric,5,3.0,41481.0,172691.0,87832.0,167575.0,101641.0
2026-04-14 18:01:13.556554,685181,1609507167203186,4767172752,-0.696864,0.630496,-0.700768,4.5675,-56.455,-47.53,-13.376,-21.12,-26.496002,concentric,5,3.0,41481.0,172691.0,87832.0,167575.0,101641.0
2026-04-14 18:01:13.569649,685182,1609507167217734,4767187642,-0.671488,0.66368,-0.54656,6.72875,-52.15875,-44.87875,-12.84,-20.976002,-27.936,concentric,5,3.0,41481.0,172691.0,87832.0,167575.0,101641.0
2026-04-14 18:01:13.578451,685183,1609507167226731,4767196329,-0.671488,0.66368,-0.54656,6.8075,-48.5625,-42.84,-12.84,-20.976002,-27.936,concentric,5,3.0,41481.0,172691.0,87832.0,167575.0,101641.0
2026-04-14 18:01:13.614744,685194,1609507167241535,4767211320,-0.675392,0.599264,-0.69296,6.60625,-46.48,-40.81,-12.808001,-20.448002,-27.36,concentric,5,3.0,41009.0,177523.0,87104.0,171923.0,101008.0
2026-04-14 18:01:13.617257,685195,1609507167250548,4767220131,-0.675392,0.599264,-0.69296,5.17125,-47.425,-40.74875,-12.808001,-20.448002,-27.36,concentric,5,3.0,41009.0,177523.0,87104.0,171923.0,101008.0
2026-04-14 18:01:13.619737,685196,1609507167259598,4767228888,-0.737856,0.696864,-0.542656,3.5525,-47.495,-40.50375,-11.192,-20.936,-27.680002,concentric,5,3.0,41009.0,177523.0,87104.0,171923.0,101008.0
2026-04-14 18:01:13.650781,685197,1609507167274219,4767243872,-0.737856,0.696864,-0.542656,3.15875,-47.85375,-40.43375,-11.192,-20.936,-27.680002,concentric,5,3.0,41009.0,177523.0,87104.0,171923.0,101008.0
2026-04-14 18:01:13.675812,685198,1609507167283170,4767252604,-0.706624,0.69296,-0.700768,-0.105,-48.27375,-41.25625,-11.056001,-21.04,-27.992,concentric,5,3.0,41009.0,177523.0,87104.0,171923.0,101008.0
2026-04-14 18:01:13.678429,685199,1609507167297670,4767267511,-0.710528,0.65392,-0.716384,-6.02875,-49.4725,-42.13125,-10.472,-21.672,-28.752,concentric,5,3.0,41009.0,177523.0,87104.0,171923.0,101008.0
2026-04-14 18:01:13.703514,685200,1609507167306573,4767276216,-0.710528,0.65392,-0.716384,-11.6025,-49.90125,-43.14625,-10.472,-21.672,-28.752,concentric,5,3.0,41009.0,177523.0,87104.0,171923.0,101008.0
2026-04-14 18:01:13.728767,685201,1609507167321084,4767291262,-0.767136,0.62464,-0.66368,-13.50125,-48.72875,-43.49625,-8.704,-21.696001,-29.088001,concentric,5,3.0,41009.0,177523.0,87104.0,171923.0,101008.0
2026-04-14 18:01:13.733468,685202,1609507167330079,4767299939,-0.767136,0.62464,-0.66368,-12.99375,-46.24375,-41.685,-8.704,-21.696001,-29.088001,concentric,5,3.0,41009.0,177523.0,87104.0,171923.0,101008.0
2026-04-14 18:01:13.763725,685213,1609507167339336,4767308997,-0.677344,0.616832,-0.558272,-11.47125,-44.03875,-40.0575,-7.960001,-21.560001,-28.800001,concentric,5,3.0,41103.0,176282.0,87502.0,171138.0,101374.0
2026-04-14 18:01:13.766209,685214,1609507167353915,4767323913,-0.677344,0.616832,-0.558272,-11.43625,-41.15125,-37.54625,-7.960001,-21.560001,-28.800001,concentric,5,3.0,41103.0,176282.0,87502.0,171138.0,101374.0
2026-04-14 18:01:13.768696,685215,1609507167362905,4767332629,-0.7808,0.640256,-0.573888,-11.8475,-39.095,-35.1575,-7.232,-21.640001,-28.160002,concentric,5,3.0,41103.0,176282.0,87502.0,171138.0,101374.0
2026-04-14 18:01:13.771197,685216,1609507167377417,4767347478,-0.802272,0.659776,-0.607072,-12.80125,-38.0275,-33.90625,-6.528,-22.056002,-26.328001,concentric,5,3.0,41103.0,176282.0,87502.0,171138.0,101374.0
2026-04-14 18:01:13.773632,685217,1609507167386468,4767356176,-0.802272,0.659776,-0.607072,-11.095,-36.46125,-32.12125,-6.528,-22.056002,-26.328001,concentric,5,3.0,41103.0,176282.0,87502.0,171138.0,101374.0
2026-04-14 18:01:13.775787,685218,1609507167395552,4767364937,-0.802272,0.62464,-0.503616,-8.3475,-35.35,-31.24625,-6.528,-22.056002,-26.328001,concentric,5,3.0,41103.0,176282.0,87502.0,171138.0,101374.0
2026-04-14 18:01:13.778315,685219,1609507167410116,4767379938,-0.747616,0.62464,-0.503616,-8.4875,-35.0875,-30.05625,-6.056,-22.088001,-27.952002,concentric,5,3.0,41103.0,176282.0,87502.0,171138.0,101374.0
2026-04-14 18:01:13.780741,685220,1609507167419034,4767388664,-0.851072,0.599264,-0.691008,-10.01,-35.245,-28.62125,-5.528,-21.960001,-28.904001,concentric,5,3.0,41103.0,176282.0,87502.0,171138.0,101374.0
2026-04-14 18:01:13.787498,685221,1609507167433705,4767403691,-0.851072,0.599264,-0.691008,-9.5375,-36.30375,-27.7025,-5.528,-21.960001,-28.904001,concentric,5,3.0,41103.0,176282.0,87502.0,171138.0,101374.0
2026-04-14 18:01:13.820060,685232,1609507167442751,4767412441,-0.747616,0.583648,-0.569984,-8.19,-36.732502,-27.30875,-4.864,-22.256,-30.392002,concentric,5,3.0,40899.0,173985.0,87396.0,169670.0,101143.0
2026-04-14 18:01:13.822128,685233,1609507167451851,4767421238,-0.747616,0.583648,-0.569984,-8.96875,-36.82875,-26.635,-4.864,-22.256,-30.392002,concentric,5,3.0,40899.0,173985.0,87396.0,169670.0,101143.0
2026-04-14 18:01:13.827218,685234,1609507167466421,4767436164,-0.841312,0.56608,-0.72224,-11.865,-36.53125,-26.13625,-5.368,-21.920002,-27.840002,concentric,5,3.0,40899.0,173985.0,87396.0,169670.0,101143.0
2026-04-14 18:01:13.827521,685235,1609507167475402,4767444926,-0.841312,0.56608,-0.72224,-11.17375,-35.42875,-23.89625,-5.368,-21.920002,-27.840002,concentric,5,3.0,40899.0,173985.0,87396.0,169670.0,101143.0
2026-04-14 18:01:13.841241,685236,1609507167489915,4767459879,-0.84912,0.573888,-0.50752,-8.18125,-33.41625,-21.735,-4.664,-22.096,-28.848001,concentric,5,3.0,40899.0,173985.0,87396.0,169670.0,101143.0
2026-04-14 18:01:13.850785,685237,1609507167498901,4767468613,-0.79056,0.562176,-0.406016,-5.13625,-31.10625,-19.3725,-4.392,-21.896002,-27.720001,concentric,5,3.0,40899.0,173985.0,87396.0,169670.0,101143.0
2026-04-14 18:01:13.867446,685238,1609507167513400,4767483608,-0.79056,0.562176,-0.406016,-3.22875,-28.81375,-17.28125,-4.392,-21.896002,-27.720001,concentric,5,3.0,40899.0,173985.0,87396.0,169670.0,101143.0
2026-04-14 18:01:13.874726,685239,1609507167522411,4767492309,-0.804224,0.523136,-0.489952,-3.4125,-27.6675,-15.7325,-3.288,-22.384,-28.896002,concentric,5,3.0,40899.0,173985.0,87396.0,169670.0,101143.0
2026-04-14 18:01:13.882543,685240,1609507167531359,4767501022,-0.804224,0.523136,-0.489952,-3.75375,-26.0925,-15.1725,-3.288,-22.384,-28.896002,concentric,5,3.0,40899.0,173985.0,87396.0,169670.0,101143.0
2026-04-14 18:01:13.920890,685251,1609507167546087,4767516302,-0.921344,0.577792,-0.569984,-2.5725,-24.4125,-14.0525,-2.728,-22.048,-28.568,concentric,5,3.0,40941.0,176512.0,87320.0,171842.0,101082.0
2026-04-14 18:01:13.921622,685252,1609507167555145,4767525049,-0.921344,0.577792,-0.569984,-1.54875,-22.8725,-13.545,-2.728,-22.048,-28.568,concentric,5,3.0,40941.0,176512.0,87320.0,171842.0,101082.0
2026-04-14 18:01:13.922093,685253,1609507167569643,4767538026,-0.841312,0.538752,-0.5856,-0.14875,-21.49875,-14.21,-2.336,-22.376001,-28.848001,concentric,5,3.0,40941.0,176512.0,87320.0,171842.0,101082.0
2026-04-14 18:01:13.930246,685254,1609507167578864,4767548882,-0.831552,0.509472,-0.52704,-2.0475,-20.58875,-14.525,-2.136,-22.248001,-28.704,concentric,5,3.0,40941.0,176512.0,87320.0,171842.0,101082.0
2026-04-14 18:01:13.939904,685255,1609507167587797,4767557566,-0.831552,0.509472,-0.52704,-4.13,-19.1625,-13.39625,-2.136,-22.248001,-28.704,concentric,5,3.0,40941.0,176512.0,87320.0,171842.0,101082.0
2026-04-14 18:01:13.956262,685256,1609507167602310,4767572470,-0.835456,0.495808,-0.431392,-3.82375,-17.35125,-13.011251,-1.968,-22.224,-28.968002,concentric,5,3.0,40941.0,176512.0,87320.0,171842.0,101082.0
2026-04-14 18:01:13.963708,685257,1609507167611229,4767581159,-0.835456,0.495808,-0.431392,-1.68,-15.9425,-12.15375,-1.968,-22.224,-28.968002,concentric,5,3.0,40941.0,176512.0,87320.0,171842.0,101082.0
2026-04-14 18:01:13.974887,685258,1609507167625739,4767594107,-0.886208,0.55632,-0.530944,3.85875,-13.5975,-11.1825,-1.64,-22.216002,-28.640001,concentric,5,3.0,40941.0,176512.0,87320.0,171842.0,101082.0
2026-04-14 18:01:13.986313,685259,1609507167634974,4767604872,-0.886208,0.55632,-0.530944,7.76125,-11.445,-11.165,-1.64,-22.216002,-28.640001,concentric,5,3.0,40941.0,176512.0,87320.0,171842.0,101082.0
2026-04-14 18:01:14.062095,685270,1609507167644123,4767613679,-0.860832,0.583648,-0.581696,6.67625,-10.9725,-11.7075,-1.512,-22.248001,-28.976002,concentric,5,3.0,40699.0,177125.0,86975.0,172232.0,100769.0
2026-04-14 18:01:14.067581,685271,1609507167658667,4767628599,-0.81984,0.470432,-0.50752,-1.00625,-11.66375,-12.39,-1.088,-21.872002,-27.768002,concentric,5,3.0,40699.0,177125.0,86975.0,172232.0,100769.0
2026-04-14 18:01:14.070078,685272,1609507167667587,4767637279,-0.81984,0.470432,-0.50752,-6.62375,-11.935,-12.45125,-1.088,-21.872002,-27.768002,concentric,5,3.0,40699.0,177125.0,86975.0,172232.0,100769.0
2026-04-14 18:01:14.072496,685273,1609507167682173,4767652217,-0.874496,0.456768,-0.503616,-5.81875,-10.71,-11.69,-2.048,-22.000002,-28.28,concentric,5,3.0,40699.0,177125.0,86975.0,172232.0,100769.0
2026-04-14 18:01:14.074734,685274,1609507167691121,4767660896,-0.874496,0.456768,-0.503616,0.21,-8.2425,-9.73875,-2.048,-22.000002,-28.28,concentric,5,3.0,40699.0,177125.0,86975.0,172232.0,100769.0
2026-04-14 18:01:14.077557,685275,1609507167705812,4767675783,-0.825696,0.540704,-0.427488,7.41125,-5.8275,-8.575,-1.872,-21.464,-28.336,concentric,5,3.0,40699.0,177125.0,86975.0,172232.0,100769.0
2026-04-14 18:01:14.080052,685276,1609507167714764,4767684543,-0.825696,0.540704,-0.427488,8.9425,-4.29625,-8.07625,-1.872,-21.464,-28.336,concentric,5,3.0,40699.0,177125.0,86975.0,172232.0,100769.0
2026-04-14 18:01:14.082137,685277,1609507167723716,4767693245,-0.815936,0.52704,-0.52704,6.09875,-3.87625,-6.79875,-2.088,-21.52,-28.208002,concentric,5,3.0,40699.0,177125.0,86975.0,172232.0,100769.0
2026-04-14 18:01:14.089533,685278,1609507167738368,4767708179,-0.8296,0.480192,-0.548512,1.42625,-4.12125,-7.23625,-1.824,-21.640001,-28.568,concentric,5,3.0,40699.0,177125.0,86975.0,172232.0,100769.0
2026-04-14 18:01:14.118230,685289,1609507167747431,4767716956,-0.8296,0.480192,-0.548512,-0.8925,-3.26375,-7.16625,-1.824,-21.640001,-28.568,concentric,5,3.0,41469.0,181808.0,87693.0,175884.0,101715.0
2026-04-14 18:01:14.123631,685290,1609507167761898,4767731897,-0.847168,0.505568,-0.550464,-0.84,-1.00625,-6.3,-2.28,-21.2,-26.984001,concentric,5,3.0,41469.0,181808.0,87693.0,175884.0,101715.0
2026-04-14 18:01:14.125684,685291,1609507167770892,4767740651,-0.847168,0.505568,-0.550464,0.72625,1.74125,-4.48,-2.28,-21.2,-26.984001,concentric,5,3.0,41469.0,181808.0,87693.0,175884.0,101715.0
2026-04-14 18:01:14.132367,685292,1609507167779815,4767749374,-0.856928,0.548512,-0.435296,4.06875,5.0575,-2.0125,-0.984,-21.624,-29.616001,concentric,5,3.0,41469.0,181808.0,87693.0,175884.0,101715.0
2026-04-14 18:01:14.146109,685293,1609507167794333,4767764265,-0.856928,0.548512,-0.435296,3.54375,7.7175,-1.28625,-0.984,-21.624,-29.616001,concentric,5,3.0,41469.0,181808.0,87693.0,175884.0,101715.0
2026-04-14 18:01:14.155026,685294,1609507167803309,4767772958,-0.83936,0.581696,-0.441152,2.5725,8.95125,-0.00875,-0.896,-21.84,-29.136002,concentric,5,3.0,41469.0,181808.0,87693.0,175884.0,101715.0
2026-04-14 18:01:14.168537,685295,1609507167817833,4767787873,-0.83936,0.581696,-0.503616,2.59,10.49125,-0.035,-0.896,-21.84,-29.136002,concentric,5,3.0,41469.0,181808.0,87693.0,175884.0,101715.0
2026-04-14 18:01:14.178772,685296,1609507167826775,4767796576,-0.821792,0.534848,-0.511424,0.37625,11.08625,0.06125,-1.264,-21.536001,-29.808,concentric,5,3.0,41469.0,181808.0,87693.0,175884.0,101715.0
2026-04-14 18:01:14.215697,685307,1609507167841421,4767811777,-0.876448,0.571936,-0.698816,-4.27,11.48875,1.4875,-1.216,-21.904001,-29.000002,concentric,5,3.0,41148.0,182950.0,87135.0,176817.0,101148.0
2026-04-14 18:01:14.218702,685308,1609507167850479,4767820540,-0.876448,0.571936,-0.698816,-7.32375,13.4225,4.1475,-1.216,-21.904001,-29.000002,concentric,5,3.0,41148.0,182950.0,87135.0,176817.0,101148.0
2026-04-14 18:01:14.221227,685309,1609507167859480,4767829252,-0.8296,0.59536,-0.568032,-6.88625,15.67125,5.81,-2.136,-21.84,-29.560001,concentric,5,3.0,41148.0,182950.0,87135.0,176817.0,101148.0
2026-04-14 18:01:14.225775,685310,1609507167874040,4767844136,-0.8296,0.59536,-0.568032,-6.7725,16.6425,6.25625,-2.136,-21.84,-29.560001,concentric,5,3.0,41148.0,182950.0,87135.0,176817.0,101148.0
2026-04-14 18:01:14.233772,685311,1609507167883100,4767852876,-0.817888,0.620736,-0.618784,-8.47,17.7275,8.47,-2.976,-21.928001,-29.080002,concentric,5,3.0,41148.0,182950.0,87135.0,176817.0,101148.0
2026-04-14 18:01:14.250027,685312,1609507167897691,4767867763,-0.817888,0.620736,-0.618784,-10.45625,18.9525,10.3425,-2.976,-21.928001,-29.080002,concentric,5,3.0,41148.0,182950.0,87135.0,176817.0,101148.0
2026-04-14 18:01:14.258401,685313,1609507167906711,4767876462,-0.767136,0.651968,-0.437248,-14.28875,18.82125,12.25875,-2.656,-22.296001,-29.12,concentric,5,3.0,41148.0,182950.0,87135.0,176817.0,101148.0
2026-04-14 18:01:14.267041,685314,1609507167915681,4767885169,-0.767136,0.651968,-0.437248,-17.71875,21.69125,14.7175,-2.656,-22.296001,-29.12,concentric,5,3.0,41148.0,182950.0,87135.0,176817.0,101148.0
2026-04-14 18:01:14.281804,685315,1609507167930158,4767900108,-0.911584,0.749568,-0.689056,-19.9675,26.3375,13.08125,-3.104,-22.304,-28.552002,concentric,5,3.0,41148.0,182950.0,87135.0,176817.0,101148.0
2026-04-14 18:01:14.291789,685316,1609507167939080,4767908874,-0.895968,0.74176,-0.62464,-24.70125,30.1175,9.68625,-3.104,-22.304,-29.36,concentric,5,3.0,41148.0,182950.0,87135.0,176817.0,101148.0
2026-04-14 18:01:14.319912,685327,1609507167953654,4767923819,-0.905728,0.74176,-0.62464,-29.61,34.0025,8.56625,-3.376,-22.824001,-29.36,concentric,5,3.0,42897.0,196610.0,88869.0,188119.0,103275.0
2026-04-14 18:01:14.344675,685328,1609507167962639,4767932552,-0.911584,0.651968,-0.70272,-34.7375,36.61875,11.38375,-4.264,-23.064001,-27.960001,concentric,5,3.0,42897.0,196610.0,88869.0,188119.0,103275.0
2026-04-14 18:01:14.357516,685329,1609507167977196,4767947546,-0.911584,0.651968,-0.70272,-40.845,35.7,17.71875,-4.264,-23.064001,-27.960001,concentric,5,3.0,42897.0,196610.0,88869.0,188119.0,103275.0
2026-04-14 18:01:14.382576,685330,1609507167986120,4767956233,-0.841312,0.6344,-0.71248,-38.38625,35.04375,25.2525,-4.64,-23.256,-27.768002,concentric,5,3.0,42897.0,196610.0,88869.0,188119.0,103275.0
2026-04-14 18:01:14.407409,685331,1609507167995113,4767964922,-0.841312,0.6344,-0.71248,-33.6,37.7825,29.925,-4.64,-23.256,-27.768002,concentric,5,3.0,42897.0,196610.0,88869.0,188119.0,103275.0
2026-04-14 18:01:14.427434,685332,1609507168009646,4767979833,-0.753472,0.802272,-0.493856,-30.86125,41.36125,34.3525,-5.504,-23.992,-27.184002,concentric,5,3.0,42897.0,196610.0,88869.0,188119.0,103275.0
2026-04-14 18:01:14.430049,685333,1609507168018556,4767988500,-0.753472,0.802272,-0.493856,-33.67875,44.826252,34.23875,-5.504,-23.992,-27.184002,concentric,5,3.0,42897.0,196610.0,88869.0,188119.0,103275.0
2026-04-14 18:01:14.432069,685334,1609507168033102,4768003418,-0.825696,0.77104,-0.5856,-42.525,48.02875,35.665,-6.336,-24.024002,-27.496002,concentric,5,3.0,42897.0,196610.0,88869.0,188119.0,103275.0
2026-04-14 18:01:14.464960,685345,1609507168042565,4768012132,-0.743712,0.622688,-0.51728,-49.4375,49.5075,38.5525,-7.576,-24.712002,-25.352001,concentric,5,3.0,42692.0,201445.0,88278.0,191834.0,102575.0
2026-04-14 18:01:14.467465,685346,1609507168051598,4768020897,-0.743712,0.622688,-0.51728,-52.325,49.27125,42.42875,-7.576,-24.712002,-25.352001,concentric,5,3.0,42692.0,201445.0,88278.0,191834.0,102575.0
2026-04-14 18:01:14.470031,685347,1609507168066187,4768035981,-0.823744,0.739808,-0.74176,-46.5325,51.24875,47.5475,-8.936001,-24.848001,-24.808,concentric,5,3.0,42692.0,201445.0,88278.0,191834.0,102575.0
2026-04-14 18:01:14.472529,685348,1609507168075270,4768044674,-0.823744,0.739808,-0.74176,-38.0625,53.6375,51.7825,-8.936001,-24.848001,-24.808,concentric,5,3.0,42692.0,201445.0,88278.0,191834.0,102575.0
2026-04-14 18:01:14.477539,685349,1609507168089832,4768059624,-0.749568,0.86864,-0.579744,-37.415,56.315,56.06125,-10.392,-24.464,-24.104002,concentric,5,3.0,42692.0,201445.0,88278.0,191834.0,102575.0
2026-04-14 18:01:14.480036,685350,1609507168098979,4768068346,-0.749568,0.86864,-0.579744,-42.62125,59.1675,59.24625,-10.392,-24.464,-24.104002,concentric,5,3.0,42692.0,201445.0,88278.0,191834.0,102575.0
2026-04-14 18:01:14.482527,685351,1609507168113540,4768083302,-0.788608,0.776896,-0.542656,-51.47625,60.9875,60.978752,-11.744,-25.088001,-23.656002,concentric,5,3.0,42692.0,201445.0,88278.0,191834.0,102575.0
2026-04-14 18:01:14.488830,685352,1609507168122483,4768091997,-0.812032,0.767136,-0.772992,-55.072502,62.8075,64.40875,-13.176001,-25.480001,-22.928001,concentric,5,3.0,42692.0,201445.0,88278.0,191834.0,102575.0
2026-04-14 18:01:14.489216,685353,1609507168131419,4768100686,-0.812032,0.767136,-0.772992,-49.37625,64.89,70.28875,-13.176001,-25.480001,-22.928001,concentric,5,3.0,42692.0,201445.0,88278.0,191834.0,102575.0
2026-04-14 18:01:14.517393,685364,1609507168146603,4768115732,-0.739808,0.929152,-0.685152,-44.72125,64.28625,73.92,-14.280001,-25.28,-21.704,concentric,5,3.0,40607.0,190459.0,84932.0,182158.0,99101.0
2026-04-14 18:01:14.519875,685365,1609507168155641,4768124545,-0.739808,0.929152,-0.685152,-40.22375,63.07875,75.81875,-14.280001,-25.28,-21.704,concentric,5,3.0,40607.0,190459.0,84932.0,182158.0,99101.0
2026-04-14 18:01:14.522456,685366,1609507168164693,4768133382,-0.66368,0.933056,-0.46848,-40.8975,64.56625,76.65875,-16.552,-24.904001,-20.544,concentric,5,3.0,40607.0,190459.0,84932.0,182158.0,99101.0
2026-04-14 18:01:14.529975,685367,1609507168179887,4768148394,-0.66368,0.933056,-0.46848,-48.7725,66.00125,78.4175,-16.552,-24.904001,-20.544,concentric,5,3.0,40607.0,190459.0,84932.0,182158.0,99101.0
2026-04-14 18:01:14.543453,685368,1609507168189215,4768159145,-0.728096,0.866688,-0.689056,-57.6275,69.51875,81.13875,-17.536001,-25.640001,-21.744001,concentric,5,3.0,40607.0,190459.0,84932.0,182158.0,99101.0
2026-04-14 18:01:14.556274,685369,1609507168203706,4768174038,-0.655872,0.899872,-0.796416,-56.6825,73.0975,85.18125,-18.240002,-25.696001,-20.76,concentric,5,3.0,40607.0,190459.0,84932.0,182158.0,99101.0
2026-04-14 18:01:14.564122,685370,1609507168212722,4768182737,-0.655872,0.899872,-0.796416,-52.85875,76.3875,88.03375,-18.240002,-25.696001,-20.76,concentric,5,3.0,40607.0,190459.0,84932.0,182158.0,99101.0
2026-04-14 18:01:14.573806,685371,1609507168221674,4768191425,-0.597312,0.983808,-0.589504,-48.825,78.1725,88.89125,-19.688002,-25.512001,-21.44,concentric,5,3.0,40607.0,190459.0,84932.0,182158.0,99101.0
2026-04-14 18:01:14.588760,685372,1609507168236247,4768206337,-0.597312,0.983808,-0.589504,-49.95375,76.81625,89.11,-19.688002,-25.512001,-21.44,concentric,5,3.0,40607.0,190459.0,84932.0,182158.0,99101.0
2026-04-14 18:01:14.618654,685383,1609507168245600,4768215158,-0.530944,0.909632,-0.50752,-61.46,73.87625,90.06375,-20.928001,-25.28,-18.592001,concentric,5,3.0,40933.0,185964.0,84770.0,178505.0,99049.0
2026-04-14 18:01:14.621152,685384,1609507168260418,4768230250,-0.530944,0.909632,-0.50752,-70.28875,73.01,95.27875,-20.928001,-25.28,-18.592001,concentric,5,3.0,40933.0,185964.0,84770.0,178505.0,99049.0
2026-04-14 18:01:14.623540,685385,1609507168269476,4768239060,-0.560224,0.960384,-0.577792,-68.59125,74.340004,100.52875,-23.104002,-24.952002,-17.128,concentric,5,3.0,40933.0,185964.0,84770.0,178505.0,99049.0
2026-04-14 18:01:14.630098,685386,1609507168278640,4768247767,-0.560224,0.960384,-0.577792,-67.558754,76.3175,104.3,-23.104002,-24.952002,-17.128,concentric,5,3.0,40933.0,185964.0,84770.0,178505.0,99049.0
2026-04-14 18:01:14.645091,685387,1609507168293133,4768262725,-0.462624,1.186816,-0.60512,-71.496254,77.09625,102.340004,-25.28,-24.608002,-16.400002,concentric,5,3.0,40933.0,185964.0,84770.0,178505.0,99049.0
2026-04-14 18:01:14.653846,685388,1609507168302096,4768271406,-0.396256,1.08336,-0.739808,-75.81875,81.29625,95.2175,-25.712002,-24.2,-16.296001,concentric,5,3.0,40933.0,185964.0,84770.0,178505.0,99049.0
2026-04-14 18:01:14.667570,685389,1609507168316595,4768286452,-0.396256,1.08336,-0.739808,-84.7175,86.4675,88.26125,-25.712002,-24.2,-16.296001,concentric,5,3.0,40933.0,185964.0,84770.0,178505.0,99049.0
2026-04-14 18:01:14.678703,685390,1609507168325543,4768295178,-0.386496,0.85888,-0.714432,-96.3725,88.515,87.08,-26.704,-24.176,-13.136001,concentric,5,3.0,40933.0,185964.0,84770.0,178505.0,99049.0
2026-04-14 18:01:14.686110,685391,1609507168334657,4768303863,-0.386496,0.85888,-0.714432,-102.27,84.875,96.24125,-26.704,-24.176,-13.136001,concentric,5,3.0,40933.0,185964.0,84770.0,178505.0,99049.0
2026-04-14 18:01:14.718223,685402,1609507168349383,4768318868,-0.298656,0.970144,-0.646112,-100.1,76.545,111.83375,-28.968002,-22.904001,-9.912001,concentric,5,3.0,49889.0,191760.0,96324.0,184184.0,112066.0
2026-04-14 18:01:14.720682,685403,1609507168358433,4768327626,-0.298656,0.970144,-0.646112,-95.095,69.39625,126.035,-28.968002,-22.904001,-9.912001,concentric,5,3.0,49889.0,191760.0,96324.0,184184.0,112066.0
2026-04-14 18:01:14.727124,685404,1609507168372969,4768342578,-0.290848,1.095072,-0.7808,-89.13625,68.0575,132.825,-31.072002,-21.416,-8.208,concentric,5,3.0,49889.0,191760.0,96324.0,184184.0,112066.0
2026-04-14 18:01:14.751098,685405,1609507168381894,4768351277,-0.191296,1.028704,-0.509472,-88.92625,74.36625,134.07625,-31.072002,-21.416,-9.456,concentric,5,3.0,49889.0,191760.0,96324.0,184184.0,112066.0
2026-04-14 18:01:14.753637,685406,1609507168396400,4768366224,-0.191296,1.028704,-0.509472,-92.96,85.82,135.45,-30.888002,-21.184002,-9.456,concentric,5,3.0,49889.0,191760.0,96324.0,184184.0,112066.0
2026-04-14 18:01:14.756132,685407,1609507168405341,4768374916,-0.339648,0.876448,-0.640256,-99.4175,96.08375,135.51125,-33.296,-19.512001,-6.192,concentric,5,3.0,49889.0,191760.0,96324.0,184184.0,112066.0
2026-04-14 18:01:14.782410,685408,1609507168414312,4768383656,-0.339648,0.876448,-0.640256,-103.4775,98.79625,138.32,-33.296,-19.512001,-6.192,concentric,5,3.0,49889.0,191760.0,96324.0,184184.0,112066.0
2026-04-14 18:01:14.784635,685409,1609507168428821,4768398579,-0.374784,0.948672,-0.540704,-101.01,97.37875,145.5825,-33.384003,-18.368,-5.64,concentric,5,3.0,49889.0,191760.0,96324.0,184184.0,112066.0
2026-04-14 18:01:14.794954,685410,1609507168437744,4768407263,-0.374784,0.948672,-0.540704,-94.21125,91.69125,151.41,-33.384003,-18.368,-5.64,concentric,5,3.0,49889.0,191760.0,96324.0,184184.0,112066.0
