pc_time,serial_num,sensor_ts,host_ts,ax,ay,az,gx,gy,gz,mx,my,mz,phase,rpe,weight_kg,ppg_a,ppg_b,ppg_c,ppg_d,ppg_e
2026-04-07 17:54:11.263462,280103,1521630196,1521631108,-1.085312,0.115168,0.03904,-15.61875,5.90625,-7.6475,41.08,1.232,55.496002,concentric,3,3.0,20705.0,303460.0,273543.0,319842.0,280111.0
2026-04-07 17:54:11.267007,280104,1521644733,1521646038,-1.085312,0.111264,0.023424,-13.886251,5.29375,-7.8225,41.08,1.232,55.496002,concentric,3,3.0,20705.0,303460.0,273543.0,319842.0,280111.0
2026-04-07 17:54:11.294467,280114,1521653735,1521654809,-1.0736,0.111264,0.023424,-12.565,5.355,-8.28625,41.592003,1.52,53.304,concentric,3,3.0,20669.0,303157.0,273308.0,319610.0,279940.0
2026-04-07 17:54:11.296936,280115,1521662764,1521663522,-1.0736,0.111264,0.023424,-11.4975,5.88875,-8.74125,41.592003,1.52,53.304,concentric,3,3.0,20669.0,303157.0,273308.0,319610.0,279940.0
2026-04-07 17:54:11.299689,280116,1521672205,1521674326,-1.048224,0.111264,0.01952,-10.675,6.125,-8.4875,41.384003,1.376,54.424004,concentric,3,3.0,20669.0,303157.0,273308.0,319610.0,279940.0
2026-04-07 17:54:11.302151,280117,1521686751,1521687233,-1.026752,0.101504,0.017568,-10.4125,6.3525,-8.05,41.744003,1.384,54.120003,concentric,3,3.0,20669.0,303157.0,273308.0,319610.0,279940.0
2026-04-07 17:54:11.308311,280118,1521696135,1521698009,-1.026752,0.101504,0.017568,-10.5,6.37,-7.6825,41.744003,1.384,54.120003,concentric,3,3.0,20669.0,303157.0,273308.0,319610.0,279940.0
2026-04-07 17:54:11.343471,280119,1521705120,1521706754,-1.026752,0.115168,0.02928,-9.52,6.16875,-7.74375,41.744003,1.384,52.072002,concentric,3,3.0,20669.0,303157.0,273308.0,319610.0,279940.0
2026-04-07 17:54:11.346991,280120,1521714031,1521715441,-1.018944,0.115168,0.02928,-8.68,6.0725,-6.93,42.232002,2.024,51.792004,concentric,3,3.0,20669.0,303157.0,273308.0,319610.0,279940.0
2026-04-07 17:54:11.349442,280121,1521728530,1521730293,-1.042368,0.132736,0.023424,-7.8575,5.83625,-6.545,42.568,2.16,52.888004,concentric,3,3.0,20669.0,303157.0,273308.0,319610.0,279940.0
2026-04-07 17:54:11.351997,280122,1521737466,1521738986,-1.042368,0.132736,0.023424,-8.2775,6.09875,-7.00875,42.568,2.16,52.888004,concentric,3,3.0,20669.0,303157.0,273308.0,319610.0,279940.0
2026-04-07 17:54:11.358852,280123,1521746380,1521747683,-1.05408,0.132736,0.015616,-8.74125,6.72,-7.09625,41.544003,1.776,53.064003,concentric,3,3.0,20669.0,303157.0,273308.0,319610.0,279940.0
2026-04-07 17:54:11.382364,280133,1521761097,1521762618,-1.05408,0.132736,0.015616,-8.12,6.65875,-6.9475,41.544003,1.776,53.064003,concentric,3,3.0,20660.0,303150.0,273336.0,319668.0,279991.0
2026-04-07 17:54:11.384595,280134,1521770086,1521771328,-1.059936,0.113216,0.023424,-7.665,7.09625,-7.46375,41.800003,1.784,54.024002,concentric,3,3.0,20660.0,303150.0,273336.0,319668.0,279991.0
2026-04-07 17:54:11.388335,280135,1521779020,1521780109,-1.059936,0.113216,0.023424,-6.475,7.1225,-7.735,41.800003,1.784,54.024002,concentric,3,3.0,20660.0,303150.0,273336.0,319668.0,279991.0
2026-04-07 17:54:11.420675,280136,1521793518,1521795010,-1.069696,0.105408,0.023424,-4.83,7.1225,-8.05,41.472,1.792,52.36,concentric,3,3.0,20660.0,303150.0,273336.0,319668.0,279991.0
2026-04-07 17:54:11.423451,280137,1521802464,1521803715,-1.069696,0.105408,0.023424,-3.50875,6.6675,-7.8925,41.472,1.792,52.36,concentric,3,3.0,20660.0,303150.0,273336.0,319668.0,279991.0
2026-04-07 17:54:11.424492,280138,1521811345,1521812433,-1.06384,0.099552,0.005856,-2.84375,6.83375,-7.595,41.52,1.992,52.144,concentric,3,3.0,20660.0,303150.0,273336.0,319668.0,279991.0
2026-04-07 17:54:11.467041,280139,1521825851,1521827300,-1.056032,0.0976,0.013664,-1.6275,7.25375,-7.14875,41.52,4.04,54.808002,concentric,3,3.0,20660.0,303150.0,273336.0,319668.0,279991.0
2026-04-07 17:54:11.469471,280140,1521834778,1521835999,-1.056032,0.0976,0.013664,-1.12875,7.455,-6.58,42.344,2.432,54.808002,concentric,3,3.0,20660.0,303150.0,273336.0,319668.0,279991.0
2026-04-07 17:54:11.471978,280141,1521843641,1521844732,-1.056032,0.0976,0.013664,-0.945,7.3675,-6.29125,42.344,2.432,54.808002,concentric,3,3.0,20660.0,303150.0,273336.0,319668.0,279991.0
2026-04-07 17:54:11.501871,280152,1521852836,1521853771,-1.061888,0.099552,0.00976,-0.25375,6.9475,-5.78375,42.168003,2.208,53.216003,concentric,3,3.0,20755.0,303987.0,274055.0,320462.0,280753.0
2026-04-07 17:54:11.504156,280153,1521867488,1521868702,-1.05408,0.10736,0.007808,-0.02625,6.83375,-5.27625,42.232002,2.736,50.496002,concentric,3,3.0,20755.0,303987.0,274055.0,320462.0,280753.0
2026-04-07 17:54:11.507138,280154,1521876422,1521877438,-1.05408,0.10736,0.007808,1.11125,6.36125,-4.7775,42.232002,2.736,50.496002,concentric,3,3.0,20755.0,303987.0,274055.0,320462.0,280753.0
2026-04-07 17:54:11.509457,280155,1521885486,1521886231,-1.05408,0.10736,0.007808,2.61625,6.22125,-4.41,42.232002,2.736,50.496002,concentric,3,3.0,20755.0,303987.0,274055.0,320462.0,280753.0
2026-04-07 17:54:11.512347,280156,1521900399,1521901140,-1.048224,0.0976,0.013664,3.17625,6.09,-4.12125,42.000004,2.2,51.976,concentric,3,3.0,20755.0,303987.0,274055.0,320462.0,280753.0
2026-04-07 17:54:11.542240,280157,1521909878,1521911939,-1.032608,0.091744,0.007808,4.26125,5.88,-3.955,42.632004,2.24,52.56,concentric,3,3.0,20755.0,303987.0,274055.0,320462.0,280753.0
2026-04-07 17:54:11.545668,280158,1521918802,1521920634,-1.032608,0.091744,0.007808,5.1625,6.195,-4.55875,42.632004,2.24,52.56,concentric,3,3.0,20755.0,303987.0,274055.0,320462.0,280753.0
2026-04-07 17:54:11.548237,280159,1521927801,1521929304,-1.026752,0.091744,0.011712,6.055,6.46625,-4.17375,42.464,2.424,52.536003,concentric,3,3.0,20755.0,303987.0,274055.0,320462.0,280753.0
2026-04-07 17:54:11.554488,280160,1521942435,1521944236,-1.026752,0.091744,0.011712,7.6475,6.44875,-4.64625,42.464,2.424,52.536003,concentric,3,3.0,20755.0,303987.0,274055.0,320462.0,280753.0
2026-04-07 17:54:11.585433,280170,1521951818,1521953038,-1.016992,0.103456,0.017568,8.7325,6.65,-4.83,42.616,1.712,52.384003,concentric,3,3.0,20885.0,305316.0,275140.0,321719.0,281874.0
2026-04-07 17:54:11.587120,280171,1521960803,1521961785,-1.016992,0.103456,0.017568,9.03875,6.86,-4.5325,42.616,1.712,52.384003,concentric,3,3.0,20885.0,305316.0,275140.0,321719.0,281874.0
2026-04-07 17:54:11.591153,280172,1521969765,1521970527,-1.009184,0.093696,0.021472,8.77625,7.6125,-4.375,42.504,1.912,52.280003,concentric,3,3.0,20885.0,305316.0,275140.0,321719.0,281874.0
2026-04-07 17:54:11.597421,280173,1521984706,1521985448,-1.009184,0.093696,0.021472,8.6975,8.085,-4.8825,42.504,1.912,52.280003,concentric,3,3.0,20885.0,305316.0,275140.0,321719.0,281874.0
2026-04-07 17:54:11.625900,280174,1521994152,1521996265,-1.011136,0.070272,0.013664,9.0475,8.2075,-4.76875,42.648003,1.784,51.576004,concentric,3,3.0,20885.0,305316.0,275140.0,321719.0,281874.0
2026-04-07 17:54:11.630420,280175,1522003075,1522004968,-1.011136,0.070272,0.013664,9.52875,8.015,-4.69875,42.648003,1.784,51.576004,concentric,3,3.0,20885.0,305316.0,275140.0,321719.0,281874.0
2026-04-07 17:54:11.631896,280176,1522017553,1522019852,-1.028704,0.085888,0.011712,10.92,7.58625,-4.8125,42.984,2.152,52.544003,concentric,3,3.0,20885.0,305316.0,275140.0,321719.0,281874.0
2026-04-07 17:54:11.665580,280177,1522026495,1522028618,-1.028704,0.0976,0.013664,12.39,6.58875,-4.31375,42.984,2.152,54.592003,concentric,3,3.0,20885.0,305316.0,275140.0,321719.0,281874.0
2026-04-07 17:54:11.667895,280178,1522035422,1522037303,-1.022848,0.0976,0.013664,14.0,5.3375,-4.13875,43.000004,1.912,55.104004,concentric,3,3.0,20885.0,305316.0,275140.0,321719.0,281874.0
2026-04-07 17:54:11.672627,280179,1522044329,1522046015,-1.022848,0.0976,0.013664,15.0325,5.3025,-3.98125,43.000004,1.912,55.104004,concentric,3,3.0,20885.0,305316.0,275140.0,321719.0,281874.0
2026-04-07 17:54:11.697490,280189,1522059342,1522061091,-1.026752,0.0976,0.037088,15.190001,5.6875,-4.3925,43.112003,1.128,52.808002,concentric,3,3.0,20847.0,305072.0,275010.0,321703.0,281912.0
2026-04-07 17:54:11.699316,280190,1522068377,1522069915,-1.028704,0.089792,0.017568,14.761251,6.055,-4.57625,42.904003,1.712,52.528004,concentric,3,3.0,20847.0,305072.0,275010.0,321703.0,281912.0
2026-04-07 17:54:11.701654,280191,1522077316,1522078663,-1.028704,0.089792,0.017568,13.39625,5.8975,-5.01375,42.904003,1.712,52.528004,concentric,3,3.0,20847.0,305072.0,275010.0,321703.0,281912.0
2026-04-07 17:54:11.707418,280192,1522091828,1522093571,-1.026752,0.093696,0.021472,13.1775,6.195,-5.29375,42.976,1.048,52.544003,concentric,3,3.0,20847.0,305072.0,275010.0,321703.0,281912.0
2026-04-07 17:54:11.713765,280193,1522100776,1522102277,-1.026752,0.093696,0.021472,12.95,6.20375,-5.48625,42.976,1.048,52.544003,concentric,3,3.0,20847.0,305072.0,275010.0,321703.0,281912.0
2026-04-07 17:54:11.785905,280194,1522109712,1522110993,-1.038464,0.101504,0.033184,13.4225,6.55375,-5.59125,42.824,0.816,53.848003,concentric,3,3.0,20847.0,305072.0,275010.0,321703.0,281912.0
2026-04-07 17:54:11.789446,280195,1522118621,1522119706,-1.038464,0.101504,0.033184,13.1425,6.32625,-5.705,42.824,0.816,53.848003,concentric,3,3.0,20847.0,305072.0,275010.0,321703.0,281912.0
2026-04-07 17:54:11.794377,280196,1522133151,1522134607,-1.048224,0.111264,0.025376,11.7425,6.86,-5.5825,42.912003,1.376,52.872,concentric,3,3.0,20847.0,305072.0,275010.0,321703.0,281912.0
2026-04-07 17:54:11.798943,280197,1522142070,1522143318,-1.048224,0.111264,0.025376,10.03625,7.035,-5.95875,42.912003,1.376,52.872,concentric,3,3.0,20847.0,305072.0,275010.0,321703.0,281912.0
2026-04-07 17:54:11.824457,280208,1522151011,1522152090,-1.046272,0.099552,0.021472,9.1,7.6475,-6.25625,43.112003,1.52,52.824,concentric,3,3.0,20837.0,305315.0,275381.0,322197.0,282394.0
2026-04-07 17:54:11.826980,280209,1522165578,1522167037,-1.046272,0.099552,0.021472,8.575,7.7525,-7.3325,43.112003,1.52,52.824,concentric,3,3.0,20837.0,305315.0,275381.0,322197.0,282394.0
2026-04-07 17:54:11.829471,280210,1522174458,1522175769,-1.046272,0.089792,0.007808,8.37375,7.44625,-8.0675,43.504,1.328,53.432003,concentric,3,3.0,20837.0,305315.0,275381.0,322197.0,282394.0
2026-04-07 17:54:11.831892,280211,1522183401,1522184594,-1.046272,0.089792,0.007808,8.5575,7.14,-8.2425,43.504,1.328,53.432003,concentric,3,3.0,20837.0,305315.0,275381.0,322197.0,282394.0
2026-04-07 17:54:11.834438,280212,1522197932,1522199632,-1.038464,0.089792,0.005856,9.26625,6.895,-7.70875,42.408,-0.088,53.840004,concentric,3,3.0,20837.0,305315.0,275381.0,322197.0,282394.0
2026-04-07 17:54:11.837000,280213,1522206882,1522208401,-1.038464,0.089792,0.005856,9.10875,6.39625,-7.595,42.408,-0.088,53.840004,concentric,3,3.0,20837.0,305315.0,275381.0,322197.0,282394.0
2026-04-07 17:54:11.841889,280214,1522215885,1522217117,-1.052128,0.085888,0.003904,8.44375,6.02875,-7.4725,42.008003,0.912,53.648003,concentric,3,3.0,20837.0,305315.0,275381.0,322197.0,282394.0
2026-04-07 17:54:11.844422,280215,1522230385,1522232067,-1.057984,0.101504,0.011712,7.7,5.5125,-7.28,42.536003,0.512,54.264004,concentric,3,3.0,20837.0,305315.0,275381.0,322197.0,282394.0
2026-04-07 17:54:11.850702,280216,1522239309,1522240811,-1.057984,0.101504,0.011712,7.245,5.32875,-7.21,42.536003,0.512,54.264004,concentric,3,3.0,20837.0,305315.0,275381.0,322197.0,282394.0
2026-04-07 17:54:11.880892,280217,1522248272,1522249539,-1.06384,0.093696,0.015616,4.97875,5.495,-7.30625,43.280003,0.744,53.648003,concentric,3,3.0,20837.0,305315.0,275381.0,322197.0,282394.0
2026-04-07 17:54:11.914467,280227,1522257292,1522258294,-1.06384,0.093696,0.015616,3.85,5.4775,-7.28875,43.280003,0.744,53.648003,concentric,3,3.0,20841.0,305481.0,275581.0,322470.0,282599.0
2026-04-07 17:54:11.916957,280228,1522271834,1522273226,-1.067744,0.0976,0.007808,2.70375,4.97875,-7.14875,43.280003,0.552,52.944004,concentric,3,3.0,20841.0,305481.0,275581.0,322470.0,282599.0
2026-04-07 17:54:11.919514,280229,1522280767,1522281996,-1.067744,0.0976,0.007808,1.84625,4.9175,-7.25375,43.280003,0.552,52.944004,concentric,3,3.0,20841.0,305481.0,275581.0,322470.0,282599.0
2026-04-07 17:54:11.921951,280230,1522289688,1522290776,-1.050176,0.099552,0.001952,0.37625,4.83,-7.84875,42.784,1.304,53.912003,concentric,3,3.0,20841.0,305481.0,275581.0,322470.0,282599.0
2026-04-07 17:54:11.924447,280231,1522304229,1522305675,-1.050176,0.099552,0.001952,-1.11125,5.66125,-7.79625,42.784,1.304,53.912003,concentric,3,3.0,20841.0,305481.0,275581.0,322470.0,282599.0
2026-04-07 17:54:11.926949,280232,1522313180,1522314408,-1.04432,0.089792,-0.011712,-2.59,6.04625,-7.69125,43.112003,0.456,53.864002,concentric,3,3.0,20841.0,305481.0,275581.0,322470.0,282599.0
2026-04-07 17:54:11.957854,280233,1522322138,1522323194,-1.04432,0.089792,-0.011712,-3.85875,4.82125,-7.315,43.112003,0.456,53.864002,concentric,3,3.0,20841.0,305481.0,275581.0,322470.0,282599.0
2026-04-07 17:54:11.960808,280234,1522336644,1522338107,-1.04432,0.091744,-0.00976,-4.55,4.13,-6.9825,42.960003,0.896,52.536003,concentric,3,3.0,20841.0,305481.0,275581.0,322470.0,282599.0
2026-04-07 17:54:11.963256,280235,1522345561,1522346802,-1.04432,0.091744,-0.00976,-4.8125,3.92875,-6.9125,42.960003,0.896,52.536003,concentric,3,3.0,20841.0,305481.0,275581.0,322470.0,282599.0
2026-04-07 17:54:11.988225,280245,1522355050,1522355610,-1.036512,0.10736,-0.007808,-4.85625,4.01625,-6.53625,43.368004,1.184,53.152004,concentric,3,3.0,20723.0,304538.0,274933.0,321793.0,282034.0
2026-04-07 17:54:11.990688,280246,1522364632,1522366380,-1.036512,0.10736,-0.007808,-5.97625,2.77375,-6.2125,43.368004,1.184,53.152004,concentric,3,3.0,20723.0,304538.0,274933.0,321793.0,282034.0
2026-04-07 17:54:11.993258,280247,1522379186,1522381333,-1.059936,0.113216,-0.017568,-7.5425,2.8525,-6.755,43.384003,0.776,54.152004,concentric,3,3.0,20723.0,304538.0,274933.0,321793.0,282034.0
2026-04-07 17:54:12.023377,280248,1522388193,1522390095,-1.059936,0.121024,0.005856,-9.0125,2.975,-7.1225,43.384003,0.776,54.152004,concentric,3,3.0,20723.0,304538.0,274933.0,321793.0,282034.0
2026-04-07 17:54:12.027007,280249,1522397284,1522398788,-1.06384,0.121024,0.005856,-8.93375,1.96875,-7.035,42.664,0.776,54.352,concentric,3,3.0,20723.0,304538.0,274933.0,321793.0,282034.0
2026-04-07 17:54:12.029473,280250,1522411790,1522413671,-1.079456,0.095648,-0.021472,-9.68625,1.51375,-6.97375,43.600002,1.704,52.872,concentric,3,3.0,20723.0,304538.0,274933.0,321793.0,282034.0
2026-04-07 17:54:12.031924,280251,1522420807,1522422420,-1.079456,0.095648,-0.021472,-11.78625,1.995,-7.60375,43.600002,1.704,52.872,concentric,3,3.0,20723.0,304538.0,274933.0,321793.0,282034.0
2026-04-07 17:54:12.069624,280252,1522429819,1522431132,-1.08336,0.08784,-0.025376,-12.34625,1.74125,-7.6125,43.592003,1.688,51.504,concentric,3,3.0,20723.0,304538.0,274933.0,321793.0,282034.0
2026-04-07 17:54:12.071890,280253,1522438782,1522439854,-1.08336,0.08784,-0.025376,-11.83,1.365,-8.26875,43.592003,1.688,51.504,concentric,3,3.0,20723.0,304538.0,274933.0,321793.0,282034.0
2026-04-07 17:54:12.103511,280264,1522453621,1522454974,-1.098976,0.10736,0.003904,-10.59625,1.81125,-8.82875,43.632004,1.936,52.856003,concentric,3,3.0,20534.0,303063.0,273806.0,320652.0,281065.0
2026-04-07 17:54:12.105713,280265,1522462574,1522463711,-1.098976,0.10736,0.003904,-9.72125,0.72625,-8.1725,43.632004,1.936,52.856003,concentric,3,3.0,20534.0,303063.0,273806.0,320652.0,281065.0
2026-04-07 17:54:12.108238,280266,1522471613,1522472441,-1.100928,0.11712,0.015616,-8.5925,-0.49875,-6.9125,43.72,2.08,53.088,concentric,3,3.0,20534.0,303063.0,273806.0,320652.0,281065.0
2026-04-07 17:54:12.110719,280267,1522486333,1522487391,-1.100928,0.11712,0.015616,-9.38875,-0.63,-6.16,43.72,2.08,53.088,concentric,3,3.0,20534.0,303063.0,273806.0,320652.0,281065.0
2026-04-07 17:54:12.113329,280268,1522495275,1522496175,-1.098976,0.11712,-0.001952,-10.77125,-0.88375,-5.7225,42.160004,1.28,54.016003,concentric,3,3.0,20534.0,303063.0,273806.0,320652.0,281065.0
2026-04-07 17:54:12.117290,280269,1522504265,1522504889,-1.098976,0.11712,-0.001952,-11.78625,-0.83125,-6.3875,42.160004,1.28,54.016003,concentric,3,3.0,20534.0,303063.0,273806.0,320652.0,281065.0
2026-04-07 17:54:12.145878,280270,1522513680,1522515673,-1.095072,0.103456,-0.01952,-12.80125,0.1225,-7.32375,42.472,1.528,54.24,concentric,3,3.0,20534.0,303063.0,273806.0,320652.0,281065.0
2026-04-07 17:54:12.149502,280271,1522528166,1522528525,-1.095072,0.103456,-0.01952,-14.11375,0.7875,-7.6825,42.472,1.528,54.24,concentric,3,3.0,20534.0,303063.0,273806.0,320652.0,281065.0
2026-04-07 17:54:12.151921,280272,1522537449,1522539307,-1.087264,0.099552,0.003904,-13.48375,0.35875,-8.18125,43.272003,1.968,53.696003,concentric,3,3.0,20534.0,303063.0,273806.0,320652.0,281065.0
2026-04-07 17:54:12.158205,280273,1522546450,1522548046,-1.087264,0.099552,0.003904,-13.02,-0.0875,-7.46375,43.272003,1.968,53.696003,concentric,3,3.0,20534.0,303063.0,273806.0,320652.0,281065.0
2026-04-07 17:54:12.191915,280283,1522555887,1522556820,-1.091168,0.080032,-0.00976,-13.475,-0.07,-7.28875,43.248,1.984,54.096,concentric,3,3.0,20624.0,303644.0,274227.0,321057.0,281420.0
2026-04-07 17:54:12.194576,280284,1522570509,1522571777,-1.087264,0.083936,-0.013664,-13.15125,-0.07875,-7.14,42.712,1.92,54.656002,concentric,3,3.0,20624.0,303644.0,274227.0,321057.0,281420.0
2026-04-07 17:54:12.198821,280285,1522579434,1522580524,-1.087264,0.083936,-0.013664,-11.06875,-0.3675,-6.5975,42.712,1.92,54.656002,concentric,3,3.0,20624.0,303644.0,274227.0,321057.0,281420.0
2026-04-07 17:54:12.199407,280286,1522588364,1522589273,-1.087264,0.083936,-0.013664,-10.29,-0.28875,-6.64125,42.712,1.92,54.656002,concentric,3,3.0,20624.0,303644.0,274227.0,321057.0,281420.0
2026-04-07 17:54:12.230776,280287,1522602893,1522604185,-1.091168,0.0976,0.001952,-10.08,-0.805,-5.59125,43.768,2.48,53.160004,concentric,3,3.0,20624.0,303644.0,274227.0,321057.0,281420.0
2026-04-07 17:54:12.233206,280288,1522611820,1522612907,-1.085312,0.0976,0.015616,-9.91375,-1.7325,-4.76,43.312,2.384,53.088,concentric,3,3.0,20624.0,303644.0,274227.0,321057.0,281420.0
2026-04-07 17:54:12.235670,280289,1522620769,1522621605,-1.085312,0.0976,0.015616,-8.54,-1.855,-3.92875,43.312,2.384,53.088,concentric,3,3.0,20624.0,303644.0,274227.0,321057.0,281420.0
2026-04-07 17:54:12.265954,280290,1522635267,1522636541,-1.09312,0.111264,0.01952,-6.30875,-2.07375,-3.6575,43.328003,2.336,53.04,concentric,3,3.0,20624.0,303644.0,274227.0,321057.0,281420.0
2026-04-07 17:54:12.269536,280291,1522644205,1522645288,-1.09312,0.111264,0.01952,-4.3225,-2.5025,-4.1825,43.328003,2.336,53.04,concentric,3,3.0,20624.0,303644.0,274227.0,321057.0,281420.0
2026-04-07 17:54:12.294439,280301,1522653165,1522653936,-1.077504,0.099552,0.001952,-3.395,-2.4675,-4.515,43.232002,2.936,53.272003,concentric,3,3.0,20551.0,302997.0,273570.0,320284.0,280647.0
2026-04-07 17:54:12.297023,280302,1522662839,1522664754,-1.077504,0.099552,0.001952,-3.7625,-1.54,-4.64625,43.232002,2.936,53.272003,concentric,3,3.0,20551.0,302997.0,273570.0,320284.0,280647.0
2026-04-07 17:54:12.299439,280303,1522677412,1522679705,-1.08336,0.089792,0.0,-3.325,-0.63,-5.39875,42.656002,2.568,54.208004,concentric,3,3.0,20551.0,302997.0,273570.0,320284.0,280647.0
2026-04-07 17:54:12.302222,280304,1522686345,1522688409,-1.08336,0.089792,0.0,-2.8175,-0.4025,-5.99375,42.656002,2.568,54.208004,concentric,3,3.0,20551.0,302997.0,273570.0,320284.0,280647.0
2026-04-07 17:54:12.306959,280305,1522695295,1522697138,-1.085312,0.093696,0.00976,-1.23375,-0.56875,-5.7925,42.832,2.32,55.616,concentric,3,3.0,20551.0,302997.0,273570.0,320284.0,280647.0
2026-04-07 17:54:12.366047,280306,1522709775,1522712033,-1.087264,0.0976,0.003904,0.84,-0.805,-5.45125,42.832,2.32,53.848003,concentric,3,3.0,20551.0,302997.0,273570.0,320284.0,280647.0
2026-04-07 17:54:12.370384,280307,1522718738,1522720747,-1.087264,0.0976,0.003904,1.77625,-1.58375,-4.62,42.848003,2.928,53.848003,concentric,3,3.0,20551.0,302997.0,273570.0,320284.0,280647.0
2026-04-07 17:54:12.371969,280308,1522727666,1522729437,-1.087264,0.0976,0.003904,1.46125,-1.96875,-4.5325,42.848003,2.928,53.848003,concentric,3,3.0,20551.0,302997.0,273570.0,320284.0,280647.0
2026-04-07 17:54:12.376279,280309,1522736590,1522738137,-1.089216,0.093696,0.003904,1.53125,-1.68,-4.71625,43.288002,2.648,53.104004,concentric,3,3.0,20551.0,302997.0,273570.0,320284.0,280647.0
2026-04-07 17:54:12.377962,280310,1522751084,1522753054,-1.081408,0.0976,0.011712,2.82625,-1.75,-4.61125,43.416,2.448,53.952003,concentric,3,3.0,20551.0,302997.0,273570.0,320284.0,280647.0
2026-04-07 17:54:12.406180,280321,1522760103,1522761810,-1.081408,0.0976,0.011712,3.4475,-1.75,-4.57625,43.416,2.448,53.952003,concentric,3,3.0,20481.0,302545.0,273299.0,320114.0,280537.0
2026-04-07 17:54:12.407889,280322,1522769112,1522770514,-1.081408,0.0976,0.011712,4.1475,-2.135,-4.725,43.416,2.448,53.952003,concentric,3,3.0,20481.0,302545.0,273299.0,320114.0,280537.0
2026-04-07 17:54:12.410357,280323,1522783701,1522785504,-1.065792,0.083936,0.023424,4.82125,-2.26625,-4.55875,42.664,2.368,55.384003,concentric,3,3.0,20481.0,302545.0,273299.0,320114.0,280537.0
2026-04-07 17:54:12.412162,280324,1522792656,1522794254,-1.056032,0.083936,0.015616,5.34625,-2.3275,-4.1475,42.128002,2.224,54.680004,concentric,3,3.0,20481.0,302545.0,273299.0,320114.0,280537.0
2026-04-07 17:54:12.418830,280325,1522801602,1522802955,-1.056032,0.083936,0.015616,4.50625,-2.77375,-4.48875,42.128002,2.224,54.680004,concentric,3,3.0,20481.0,302545.0,273299.0,320114.0,280537.0
2026-04-07 17:54:12.447282,280326,1522816179,1522817851,-1.042368,0.093696,0.013664,4.4275,-3.01,-4.01625,42.568,2.072,55.232002,concentric,3,3.0,20481.0,302545.0,273299.0,320114.0,280537.0
2026-04-07 17:54:12.451531,280327,1522825154,1522826564,-1.042368,0.093696,0.013664,5.08375,-3.15875,-3.54375,42.568,2.072,55.232002,concentric,3,3.0,20481.0,302545.0,273299.0,320114.0,280537.0
2026-04-07 17:54:12.459526,280328,1522834065,1522835265,-1.042368,0.101504,0.007808,5.10125,-3.4475,-3.675,42.424004,2.256,54.120003,concentric,3,3.0,20481.0,302545.0,273299.0,320114.0,280537.0
2026-04-07 17:54:12.461936,280329,1522848656,1522850203,-1.042368,0.101504,0.007808,4.61125,-2.9575,-3.64875,42.424004,2.256,54.120003,concentric,3,3.0,20481.0,302545.0,273299.0,320114.0,280537.0
2026-04-07 17:54:12.491953,280339,1522858128,1522859310,-1.046272,0.103456,0.011712,4.13875,-2.38875,-3.99875,42.568,2.128,52.088,concentric,3,3.0,20433.0,302251.0,273145.0,320031.0,280453.0
2026-04-07 17:54:12.494421,280340,1522867115,1522868191,-1.046272,0.103456,0.011712,3.5,-2.35375,-4.27,42.568,2.128,52.088,concentric,3,3.0,20433.0,302251.0,273145.0,320031.0,280453.0
2026-04-07 17:54:12.496928,280341,1522876045,1522876925,-1.052128,0.095648,0.017568,3.22,-2.02125,-4.375,41.960003,1.72,55.008003,concentric,3,3.0,20433.0,302251.0,273145.0,320031.0,280453.0
2026-04-07 17:54:12.503527,280342,1522890548,1522891900,-1.061888,0.099552,0.033184,3.33375,-1.72375,-4.2175,41.960003,1.72,53.968002,concentric,3,3.0,20433.0,302251.0,273145.0,320031.0,280453.0
2026-04-07 17:54:12.533409,280343,1522899477,1522900608,-1.061888,0.099552,0.033184,3.59625,-1.435,-4.515,42.952003,2.488,53.968002,concentric,3,3.0,20433.0,302251.0,273145.0,320031.0,280453.0
2026-04-07 17:54:12.536969,280344,1522908370,1522909319,-1.061888,0.099552,0.033184,4.0775,-1.645,-4.38375,42.952003,2.488,53.968002,concentric,3,3.0,20433.0,302251.0,273145.0,320031.0,280453.0
2026-04-07 17:54:12.539458,280345,1522922889,1522924202,-1.050176,0.093696,0.035136,5.71375,-1.23375,-4.4275,42.712,2.304,54.688004,concentric,3,3.0,20433.0,302251.0,273145.0,320031.0,280453.0
2026-04-07 17:54:12.544400,280346,1522931819,1522932898,-1.057984,0.095648,0.017568,4.87375,-1.05875,-4.76875,42.272003,2.192,55.168003,concentric,3,3.0,20433.0,302251.0,273145.0,320031.0,280453.0
2026-04-07 17:54:12.574629,280347,1522940746,1522941585,-1.057984,0.095648,0.017568,4.235,-0.41125,-5.005,42.272003,2.192,55.168003,concentric,3,3.0,20433.0,302251.0,273145.0,320031.0,280453.0
2026-04-07 17:54:12.578292,280348,1522949672,1522950331,-1.057984,0.095648,0.017568,3.36875,0.11375,-5.62625,42.272003,2.192,55.168003,concentric,3,3.0,20433.0,302251.0,273145.0,320031.0,280453.0
2026-04-07 17:54:12.605628,280358,1522964597,1522965337,-1.056032,0.093696,0.013664,3.08875,0.5775,-5.5475,42.408,2.192,54.608,concentric,3,3.0,20349.0,301728.0,272831.0,319754.0,280244.0
2026-04-07 17:54:12.608281,280359,1522974041,1522976175,-1.056032,0.0976,0.02928,4.19125,0.63,-5.38125,42.04,1.64,56.72,concentric,3,3.0,20349.0,301728.0,272831.0,319754.0,280244.0
2026-04-07 17:54:12.610732,280360,1522983150,1522984904,-1.056032,0.0976,0.02928,4.69875,0.79625,-5.04,42.04,1.64,56.72,concentric,3,3.0,20349.0,301728.0,272831.0,319754.0,280244.0
2026-04-07 17:54:12.613203,280361,1522997663,1522999816,-1.069696,0.0976,0.037088,4.47125,0.70875,-4.78625,41.68,1.464,56.928,concentric,3,3.0,20349.0,301728.0,272831.0,319754.0,280244.0
2026-04-07 17:54:12.618129,280362,1523006607,1523008497,-1.069696,0.0976,0.037088,3.43,1.26875,-5.0925,41.68,1.464,56.928,concentric,3,3.0,20349.0,301728.0,272831.0,319754.0,280244.0
2026-04-07 17:54:12.666023,280363,1523015609,1523017207,-1.065792,0.093696,0.00976,3.29,2.3275,-4.97,42.424004,1.976,54.88,concentric,3,3.0,20349.0,301728.0,272831.0,319754.0,280244.0
2026-04-07 17:54:12.669506,280364,1523024561,1523025897,-1.065792,0.093696,0.00976,2.63375,2.1875,-5.5825,42.424004,1.976,54.88,concentric,3,3.0,20349.0,301728.0,272831.0,319754.0,280244.0
2026-04-07 17:54:12.671918,280365,1523039019,1523040801,-1.06384,0.08784,0.00976,2.03,2.89625,-5.8975,43.008003,1.768,54.872,concentric,3,3.0,20349.0,301728.0,272831.0,319754.0,280244.0
2026-04-07 17:54:12.674463,280366,1523047953,1523049546,-1.06384,0.08784,0.00976,2.58125,2.75625,-6.3525,43.008003,1.768,54.872,concentric,3,3.0,20349.0,301728.0,272831.0,319754.0,280244.0
2026-04-07 17:54:12.702921,280377,1523057044,1523058390,-1.065792,0.085888,0.021472,2.3625,2.275,-5.9325,43.552002,1.696,54.576004,concentric,3,3.0,20310.0,301399.0,272607.0,319570.0,280091.0
2026-04-07 17:54:12.704507,280378,1523071588,1523073308,-1.056032,0.093696,0.02928,2.5725,2.19625,-5.52125,43.552002,2.056,56.808002,concentric,3,3.0,20310.0,301399.0,272607.0,319570.0,280091.0
2026-04-07 17:54:12.708711,280379,1523080547,1523081998,-1.056032,0.093696,0.02928,2.96625,1.47,-4.9525,42.896004,2.056,56.808002,concentric,3,3.0,20310.0,301399.0,272607.0,319570.0,280091.0
2026-04-07 17:54:12.710413,280380,1523089575,1523090706,-1.056032,0.093696,0.02928,2.30125,1.6275,-4.96125,42.896004,2.056,56.808002,concentric,3,3.0,20310.0,301399.0,272607.0,319570.0,280091.0
2026-04-07 17:54:12.717404,280381,1523104084,1523105711,-1.052128,0.099552,0.023424,1.1375,1.2775,-4.87375,42.592003,1.704,56.480003,concentric,3,3.0,20310.0,301399.0,272607.0,319570.0,280091.0
2026-04-07 17:54:12.745906,280382,1523113027,1523114425,-1.061888,0.099552,0.027328,0.16625,2.05625,-5.145,42.048,1.784,54.192,concentric,3,3.0,20310.0,301399.0,272607.0,319570.0,280091.0
2026-04-07 17:54:12.751269,280383,1523121979,1523123111,-1.061888,0.099552,0.027328,-0.91,3.35125,-5.075,42.048,1.784,54.192,concentric,3,3.0,20310.0,301399.0,272607.0,319570.0,280091.0
2026-04-07 17:54:12.752820,280384,1523130885,1523131848,-1.061888,0.099552,0.027328,-1.00625,3.6925,-5.25875,42.048,1.784,54.192,concentric,3,3.0,20310.0,301399.0,272607.0,319570.0,280091.0
2026-04-07 17:54:12.758629,280385,1523145418,1523146803,-1.071648,0.099552,0.042944,-0.1575,3.73625,-5.13625,42.744003,2.184,55.304,concentric,3,3.0,20310.0,301399.0,272607.0,319570.0,280091.0
2026-04-07 17:54:12.787197,280386,1523154337,1523155507,-1.077504,0.0976,0.035136,0.84,2.8175,-5.46,42.4,1.816,56.056004,concentric,3,3.0,20310.0,301399.0,272607.0,319570.0,280091.0
2026-04-07 17:54:12.813124,280396,1523163318,1523164275,-1.077504,0.0976,0.035136,0.37625,2.73,-5.7925,42.4,1.816,56.056004,concentric,3,3.0,20238.0,300897.0,272212.0,319218.0,279806.0
2026-04-07 17:54:12.815683,280397,1523177802,1523179153,-1.079456,0.099552,0.021472,-1.0325,3.4475,-5.985,43.016003,1.888,55.088,concentric,3,3.0,20238.0,300897.0,272212.0,319218.0,279806.0
2026-04-07 17:54:12.819019,280398,1523186714,1523187854,-1.079456,0.099552,0.021472,-2.31,4.27,-6.125,43.016003,1.888,55.088,concentric,3,3.0,20238.0,300897.0,272212.0,319218.0,279806.0
2026-04-07 17:54:12.820831,280399,1523195669,1523196582,-1.067744,0.080032,0.01952,-2.98375,3.96375,-6.1425,43.104004,1.96,54.944004,concentric,3,3.0,20238.0,300897.0,272212.0,319218.0,279806.0
2026-04-07 17:54:12.823243,280400,1523210198,1523211566,-1.067744,0.080032,0.01952,-2.8175,4.34,-5.94125,43.104004,1.96,54.944004,concentric,3,3.0,20238.0,300897.0,272212.0,319218.0,279806.0
2026-04-07 17:54:12.853449,280401,1523219127,1523220304,-1.059936,0.083936,0.025376,-2.345,5.0225,-5.76625,42.616,1.512,54.896004,concentric,3,3.0,20238.0,300897.0,272212.0,319218.0,279806.0
2026-04-07 17:54:12.856897,280402,1523228035,1523229394,-1.059936,0.083936,0.025376,-1.75875,5.34625,-5.34625,42.616,1.512,54.896004,concentric,3,3.0,20238.0,300897.0,272212.0,319218.0,279806.0
2026-04-07 17:54:12.859540,280403,1523242549,1523244298,-1.061888,0.099552,0.037088,-1.575,4.8825,-5.13625,43.248,1.736,55.320004,concentric,3,3.0,20238.0,300897.0,272212.0,319218.0,279806.0
2026-04-07 17:54:12.863214,280404,1523251494,1523253018,-1.061888,0.099552,0.037088,-2.19625,4.99625,-4.10375,43.248,1.736,55.320004,concentric,3,3.0,20238.0,300897.0,272212.0,319218.0,279806.0
2026-04-07 17:54:12.890672,280414,1523260580,1523261800,-1.061888,0.105408,0.035136,-4.4275,4.89125,-4.06,42.136,1.84,56.824,concentric,3,3.0,20163.0,300261.0,271680.0,318704.0,279409.0
2026-04-07 17:54:12.893211,280415,1523269638,1523270570,-1.061888,0.105408,0.035136,-6.13375,5.50375,-4.45375,42.136,1.84,56.824,concentric,3,3.0,20163.0,300261.0,271680.0,318704.0,279409.0
2026-04-07 17:54:12.905719,280416,1523284192,1523285494,-1.067744,0.0976,0.027328,-6.72,5.95,-4.89125,43.344,2.184,54.976,concentric,3,3.0,20163.0,300261.0,271680.0,318704.0,279409.0
2026-04-07 17:54:12.908210,280417,1523293219,1523294235,-1.059936,0.0976,0.037088,-7.14875,5.90625,-5.39,42.784,2.344,54.288002,concentric,3,3.0,20163.0,300261.0,271680.0,318704.0,279409.0
2026-04-07 17:54:12.913118,280418,1523302174,1523302989,-1.059936,0.0976,0.037088,-6.13375,5.1275,-5.15375,42.784,2.344,54.288002,concentric,3,3.0,20163.0,300261.0,271680.0,318704.0,279409.0
2026-04-07 17:54:12.965852,280419,1523316647,1523317867,-1.06384,0.08784,0.021472,-6.055,5.355,-4.94375,43.432003,2.016,54.88,concentric,3,3.0,20163.0,300261.0,271680.0,318704.0,279409.0
2026-04-07 17:54:12.969410,280420,1523325549,1523326597,-1.06384,0.08784,0.021472,-6.615,5.1625,-5.13625,43.432003,2.016,54.88,concentric,3,3.0,20163.0,300261.0,271680.0,318704.0,279409.0
2026-04-07 17:54:12.971956,280421,1523334513,1523335294,-1.056032,0.08784,0.025376,-6.1075,5.46875,-5.32,43.184002,2.504,54.152004,concentric,3,3.0,20163.0,300261.0,271680.0,318704.0,279409.0
2026-04-07 17:54:12.974447,280422,1523349008,1523350234,-1.056032,0.08784,0.025376,-4.29625,5.29375,-5.90625,43.184002,2.504,54.152004,concentric,3,3.0,20163.0,300261.0,271680.0,318704.0,279409.0
2026-04-07 17:54:13.011976,280433,1523358428,1523359047,-1.067744,0.0976,0.015616,-2.59875,5.8625,-5.92375,43.584003,2.72,54.72,concentric,3,3.0,20015.0,298949.0,270709.0,317845.0,278784.0
2026-04-07 17:54:13.014393,280434,1523367790,1523369886,-1.067744,0.0976,0.015616,-3.36875,5.41625,-5.29375,43.584003,2.72,54.72,concentric,3,3.0,20015.0,298949.0,270709.0,317845.0,278784.0
2026-04-07 17:54:13.017084,280435,1523376845,1523378750,-1.0736,0.099552,0.025376,-3.8675,5.005,-4.71625,43.112003,2.08,56.144,concentric,3,3.0,20015.0,298949.0,270709.0,317845.0,278784.0
2026-04-07 17:54:13.019415,280436,1523391357,1523391700,-1.0736,0.099552,0.025376,-2.8525,5.32875,-4.3575,43.112003,2.08,56.144,concentric,3,3.0,20015.0,298949.0,270709.0,317845.0,278784.0
2026-04-07 17:54:13.021931,280437,1523400570,1523402463,-1.075552,0.0976,0.033184,-1.98625,5.80125,-4.34,43.048,1.648,55.304,concentric,3,3.0,20015.0,298949.0,270709.0,317845.0,278784.0
2026-04-07 17:54:13.024452,280438,1523409580,1523411183,-1.075552,0.0976,0.033184,-1.8725,4.8475,-4.97,43.048,1.648,55.304,concentric,3,3.0,20015.0,298949.0,270709.0,317845.0,278784.0
2026-04-07 17:54:13.059930,280439,1523418581,1523419865,-1.077504,0.101504,0.033184,-2.38,4.3225,-5.29375,42.752003,2.304,55.032,concentric,3,3.0,20015.0,298949.0,270709.0,317845.0,278784.0
2026-04-07 17:54:13.063261,280440,1523433123,1523434802,-1.077504,0.083936,0.035136,-3.40375,4.3925,-5.3725,42.752003,2.304,54.424004,concentric,3,3.0,20015.0,298949.0,270709.0,317845.0,278784.0
2026-04-07 17:54:13.065742,280441,1523442058,1523443506,-1.077504,0.083936,0.035136,-4.33125,4.2175,-5.25,43.152,2.168,54.424004,concentric,3,3.0,20015.0,298949.0,270709.0,317845.0,278784.0
2026-04-07 17:54:13.068236,280442,1523451013,1523452195,-1.077504,0.083936,0.035136,-3.63125,4.34,-5.53,43.152,2.168,54.424004,concentric,3,3.0,20015.0,298949.0,270709.0,317845.0,278784.0
2026-04-07 17:54:13.093182,280452,1523465585,1523467155,-1.075552,0.083936,0.015616,-1.96,4.68125,-5.87125,43.224003,2.096,54.728004,concentric,3,3.0,19952.0,298470.0,270367.0,317514.0,279008.0
2026-04-07 17:54:13.095799,280453,1523474589,1523475872,-1.065792,0.0976,0.025376,-0.37625,3.885,-6.195,43.632004,2.504,53.840004,concentric,3,3.0,19952.0,298470.0,270367.0,317514.0,279008.0
2026-04-07 17:54:13.098190,280454,1523483661,1523484623,-1.065792,0.0976,0.025376,1.79375,3.66625,-6.23875,43.632004,2.504,53.840004,concentric,3,3.0,19952.0,298470.0,270367.0,317514.0,279008.0
2026-04-07 17:54:13.118194,280455,1523498173,1523499573,-1.0736,0.099552,0.033184,2.275,3.29,-5.95,43.440002,1.872,55.976,concentric,3,3.0,19952.0,298470.0,270367.0,317514.0,279008.0
2026-04-07 17:54:13.120763,280456,1523507096,1523508272,-1.0736,0.099552,0.033184,1.54875,3.71875,-5.915,43.440002,1.872,55.976,concentric,3,3.0,19952.0,298470.0,270367.0,317514.0,279008.0
2026-04-07 17:54:13.150924,280457,1523516025,1523516972,-1.077504,0.091744,0.03904,1.6275,3.94625,-5.73125,43.056004,1.68,56.936,concentric,3,3.0,19952.0,298470.0,270367.0,317514.0,279008.0
2026-04-07 17:54:13.154459,280458,1523524930,1523525692,-1.077504,0.091744,0.03904,2.4325,3.99,-5.915,43.056004,1.68,56.936,concentric,3,3.0,19952.0,298470.0,270367.0,317514.0,279008.0
2026-04-07 17:54:13.157682,280459,1523539410,1523540580,-1.077504,0.0976,0.035136,2.625,3.955,-6.20375,43.928,2.224,55.160004,concentric,3,3.0,19952.0,298470.0,270367.0,317514.0,279008.0
2026-04-07 17:54:13.159462,280460,1523548323,1523549283,-1.077504,0.0976,0.035136,2.42375,3.70125,-5.92375,43.928,2.224,55.160004,concentric,3,3.0,19952.0,298470.0,270367.0,317514.0,279008.0
2026-04-07 17:54:13.192156,280461,1523557251,1523557971,-1.08336,0.0976,0.023424,1.6275,3.885,-5.845,43.384003,1.888,55.136,concentric,3,3.0,19952.0,298470.0,270367.0,317514.0,279008.0
2026-04-07 17:54:13.218350,280471,1523572204,1523572929,-1.08336,0.0976,0.023424,1.32125,4.34875,-5.83625,43.384003,1.888,55.136,concentric,3,3.0,19970.0,298507.0,270359.0,317449.0,278964.0
2026-04-07 17:54:13.220731,280472,1523581609,1523583677,-1.077504,0.089792,0.02928,2.2225,4.585,-6.50125,43.576,2.456,55.312004,concentric,3,3.0,19970.0,298507.0,270359.0,317449.0,278964.0
2026-04-07 17:54:13.223194,280473,1523590557,1523592406,-1.077504,0.089792,0.02928,2.42375,4.43625,-6.93875,43.576,2.456,55.312004,concentric,3,3.0,19970.0,298507.0,270359.0,317449.0,278964.0
2026-04-07 17:54:13.225702,280474,1523599511,1523601108,-1.075552,0.085888,0.023424,2.5025,5.0225,-7.34125,42.984,2.224,56.512,concentric,3,3.0,19970.0,298507.0,270359.0,317449.0,278964.0
2026-04-07 17:54:13.228181,280475,1523614196,1523616031,-1.079456,0.089792,0.037088,2.87,5.17125,-7.11375,43.208,2.312,54.472004,concentric,3,3.0,19970.0,298507.0,270359.0,317449.0,278964.0
2026-04-07 17:54:13.268205,280476,1523623155,1523624771,-1.079456,0.089792,0.037088,3.29,5.25,-6.32625,43.208,2.312,54.472004,concentric,3,3.0,19970.0,298507.0,270359.0,317449.0,278964.0
2026-04-07 17:54:13.270767,280477,1523632108,1523633517,-1.079456,0.089792,0.037088,3.7975,4.76875,-6.08125,43.208,2.312,54.472004,concentric,3,3.0,19970.0,298507.0,270359.0,317449.0,278964.0
2026-04-07 17:54:13.273181,280478,1523646576,1523648405,-1.08336,0.109312,0.035136,4.13,4.92625,-5.635,43.760002,1.976,56.440002,concentric,3,3.0,19970.0,298507.0,270359.0,317449.0,278964.0
2026-04-07 17:54:13.275855,280479,1523655504,1523657094,-1.087264,0.101504,0.01952,3.35125,4.69,-5.5125,44.4,2.088,55.360004,concentric,3,3.0,19970.0,298507.0,270359.0,317449.0,278964.0
2026-04-07 17:54:13.309394,280490,1523664468,1523666006,-1.087264,0.101504,0.01952,2.5025,4.90875,-5.64375,44.4,2.088,55.360004,concentric,3,3.0,19973.0,298544.0,270379.0,317429.0,278872.0
2026-04-07 17:54:13.311995,280491,1523678955,1523680983,-1.095072,0.08784,0.023424,2.33625,5.0575,-5.67,43.104004,1.696,56.296,concentric,3,3.0,19973.0,298544.0,270379.0,317429.0,278872.0
2026-04-07 17:54:13.314931,280492,1523687924,1523689687,-1.095072,0.08784,0.023424,2.66,5.1975,-6.37,43.104004,1.696,56.296,concentric,3,3.0,19973.0,298544.0,270379.0,317429.0,278872.0
2026-04-07 17:54:13.317084,280493,1523696859,1523698320,-1.087264,0.080032,0.013664,4.235,4.62,-6.6675,43.288002,1.472,56.680004,concentric,3,3.0,19973.0,298544.0,270379.0,317429.0,278872.0
2026-04-07 17:54:13.323284,280494,1523711362,1523713278,-1.087264,0.080032,0.013664,5.41625,4.5675,-6.65875,43.288002,1.472,56.680004,concentric,3,3.0,19973.0,298544.0,270379.0,317429.0,278872.0
2026-04-07 17:54:13.354286,280495,1523720333,1523721965,-1.087264,0.091744,0.025376,5.39,4.5325,-6.36125,43.152,1.76,54.920002,concentric,3,3.0,19973.0,298544.0,270379.0,317429.0,278872.0
2026-04-07 17:54:13.358733,280496,1523729245,1523730639,-1.087264,0.091744,0.025376,5.1275,4.31375,-5.45125,43.152,1.76,54.920002,concentric,3,3.0,19973.0,298544.0,270379.0,317429.0,278872.0
2026-04-07 17:54:13.360365,280497,1523738150,1523739337,-1.087264,0.091744,0.035136,4.41,4.08625,-4.90875,43.936,1.088,55.464005,concentric,3,3.0,19973.0,298544.0,270379.0,317429.0,278872.0
2026-04-07 17:54:13.364533,280498,1523752645,1523754251,-1.087264,0.091744,0.035136,4.10375,4.59375,-4.94375,43.936,1.088,55.464005,concentric,3,3.0,19973.0,298544.0,270379.0,317429.0,278872.0
2026-04-07 17:54:13.398491,280508,1523762132,1523762981,-1.08336,0.099552,0.027328,3.0275,4.92625,-4.69,42.728,1.744,56.4,concentric,3,3.0,20052.0,299106.0,270776.0,317805.0,279185.0
2026-04-07 17:54:13.400419,280509,1523771125,1523771688,-1.08336,0.099552,0.027328,2.19625,5.38125,-4.4275,42.728,1.744,56.4,concentric,3,3.0,20052.0,299106.0,270776.0,317805.0,279185.0
2026-04-07 17:54:13.401913,280510,1523785906,1523786655,-1.089216,0.10736,0.035136,1.51375,5.66125,-4.585,44.256,1.968,55.016003,concentric,3,3.0,20052.0,299106.0,270776.0,317805.0,279185.0
2026-04-07 17:54:13.409612,280511,1523795289,1523797431,-1.091168,0.111264,0.027328,0.76125,6.41375,-4.66375,43.184002,1.552,55.696003,concentric,3,3.0,20052.0,299106.0,270776.0,317805.0,279185.0
2026-04-07 17:54:13.438458,280512,1523804327,1523806114,-1.091168,0.111264,0.027328,0.455,6.6675,-4.865,43.184002,1.552,55.696003,concentric,3,3.0,20052.0,299106.0,270776.0,317805.0,279185.0
2026-04-07 17:54:13.443120,280513,1523813266,1523814852,-1.091168,0.111264,0.027328,-1.23375,7.4375,-5.13625,43.184002,1.552,55.696003,concentric,3,3.0,20052.0,299106.0,270776.0,317805.0,279185.0
2026-04-07 17:54:13.445663,280514,1523827706,1523829753,-1.091168,0.091744,0.017568,-1.98625,7.53375,-5.62625,44.056004,1.92,55.096004,concentric,3,3.0,20052.0,299106.0,270776.0,317805.0,279185.0
2026-04-07 17:54:13.449319,280515,1523836691,1523838439,-1.09312,0.085888,0.011712,-2.0475,7.28875,-5.53,43.032,1.384,57.264004,concentric,3,3.0,20052.0,299106.0,270776.0,317805.0,279185.0
2026-04-07 17:54:13.499475,280516,1523845605,1523847126,-1.09312,0.085888,0.011712,-1.54875,7.2275,-5.6875,43.032,1.384,57.264004,concentric,3,3.0,20052.0,299106.0,270776.0,317805.0,279185.0
2026-04-07 17:54:13.524397,280526,1523860080,1523862126,-1.08336,0.081984,0.013664,-0.76125,6.825,-5.45125,44.2,1.792,55.192,concentric,3,3.0,20025.0,298841.0,270560.0,317619.0,279058.0
2026-04-07 17:54:13.526938,280527,1523869466,1523870899,-1.08336,0.081984,0.013664,0.21,6.5625,-5.075,44.2,1.792,55.192,concentric,3,3.0,20025.0,298841.0,270560.0,317619.0,279058.0
2026-04-07 17:54:13.529432,280528,1523878363,1523879607,-1.089216,0.095648,0.021472,0.63875,6.6675,-4.45375,44.352,1.328,55.504,concentric,3,3.0,20025.0,298841.0,270560.0,317619.0,279058.0
2026-04-07 17:54:13.531966,280529,1523887280,1523888347,-1.089216,0.095648,0.021472,0.6125,6.50125,-4.0775,44.352,1.328,55.504,concentric,3,3.0,20025.0,298841.0,270560.0,317619.0,279058.0
2026-04-07 17:54:13.536907,280530,1523901810,1523903270,-1.081408,0.103456,0.021472,0.09625,6.37,-4.03375,43.952003,1.032,58.408,concentric,3,3.0,20025.0,298841.0,270560.0,317619.0,279058.0
2026-04-07 17:54:13.539601,280531,1523910792,1523911991,-1.081408,0.103456,0.021472,-0.98,7.42,-4.2875,43.952003,1.032,58.408,concentric,3,3.0,20025.0,298841.0,270560.0,317619.0,279058.0
2026-04-07 17:54:13.541993,280532,1523919788,1523920818,-1.075552,0.103456,0.025376,-1.4175,7.07,-4.7775,44.328003,1.952,55.888004,concentric,3,3.0,20025.0,298841.0,270560.0,317619.0,279058.0
2026-04-07 17:54:13.545632,280533,1523934279,1523935766,-1.075552,0.103456,0.025376,-1.5925,6.71125,-4.8125,44.328003,1.952,55.888004,concentric,3,3.0,20025.0,298841.0,270560.0,317619.0,279058.0
2026-04-07 17:54:13.558211,280534,1523943226,1523944485,-1.069696,0.093696,0.021472,-1.4875,6.79,-5.10125,44.248,1.6,56.000004,concentric,3,3.0,20025.0,298841.0,270560.0,317619.0,279058.0
2026-04-07 17:54:13.564448,280535,1523952143,1523953200,-1.069696,0.093696,0.021472,-1.47875,7.06125,-5.39875,44.248,1.6,56.000004,concentric,3,3.0,20025.0,298841.0,270560.0,317619.0,279058.0
2026-04-07 17:54:13.620758,280546,1523966699,1523968215,-1.056032,0.08784,0.011712,-1.05875,7.37625,-5.3725,44.472004,1.552,56.512,concentric,3,3.0,20024.0,298917.0,270636.0,317664.0,279112.0
2026-04-07 17:54:13.637722,280547,1523975640,1523976932,-1.061888,0.093696,0.011712,-1.085,7.20125,-5.1975,44.472004,2.016,54.672,concentric,3,3.0,20024.0,298917.0,270636.0,317664.0,279112.0
2026-04-07 17:54:13.639442,280548,1523984560,1523985624,-1.061888,0.093696,0.011712,-0.69125,7.105,-5.6,44.856003,2.016,54.672,concentric,3,3.0,20024.0,298917.0,270636.0,317664.0,279112.0
2026-04-07 17:54:13.641919,280549,1523999027,1524000560,-1.040416,0.085888,0.013664,-0.06125,6.36125,-5.52125,44.000004,1.664,56.056004,concentric,3,3.0,20024.0,298917.0,270636.0,317664.0,279112.0
2026-04-07 17:54:13.644425,280550,1524008011,1524009269,-1.040416,0.085888,0.013664,0.2625,5.88,-4.9525,44.000004,1.664,56.056004,concentric,3,3.0,20024.0,298917.0,270636.0,317664.0,279112.0
2026-04-07 17:54:13.646996,280551,1524016970,1524017997,-1.056032,0.099552,0.023424,0.34125,6.335,-4.97,43.752003,1.552,55.824,concentric,3,3.0,20024.0,298917.0,270636.0,317664.0,279112.0
2026-04-07 17:54:13.649422,280552,1524025879,1524026689,-1.056032,0.099552,0.023424,0.51625,6.11625,-5.005,43.752003,1.552,55.824,concentric,3,3.0,20024.0,298917.0,270636.0,317664.0,279112.0
2026-04-07 17:54:13.651925,280553,1524040418,1524041619,-1.067744,0.111264,0.02928,0.55125,6.3525,-5.11875,44.512,1.456,54.904003,concentric,3,3.0,20024.0,298917.0,270636.0,317664.0,279112.0
2026-04-07 17:54:13.668205,280554,1524049338,1524050320,-1.067744,0.111264,0.02928,-0.28,6.51,-5.005,44.512,1.456,54.904003,concentric,3,3.0,20024.0,298917.0,270636.0,317664.0,279112.0
2026-04-07 17:54:13.670757,280555,1524058261,1524059009,-1.087264,0.10736,0.011712,-1.14625,7.00875,-5.1275,44.632004,2.048,54.824,concentric,3,3.0,20024.0,298917.0,270636.0,317664.0,279112.0
2026-04-07 17:54:13.695602,280565,1524073274,1524074000,-1.087264,0.10736,0.011712,-1.72375,6.43125,-5.39,44.632004,2.048,54.824,concentric,3,3.0,20076.0,299235.0,270876.0,317931.0,279338.0
2026-04-07 17:54:13.698334,280566,1524082624,1524084794,-1.089216,0.085888,0.003904,-0.9975,6.79875,-6.16,44.912003,1.968,56.888004,concentric,3,3.0,20076.0,299235.0,270876.0,317931.0,279338.0
2026-04-07 17:54:13.704545,280567,1524091568,1524093490,-1.089216,0.085888,0.003904,0.1925,6.7375,-6.4225,44.912003,1.968,56.888004,concentric,3,3.0,20076.0,299235.0,270876.0,317931.0,279338.0
2026-04-07 17:54:13.735452,280568,1524100562,1524102188,-1.097024,0.095648,0.011712,1.21625,6.57125,-7.04375,44.640003,1.048,55.928,concentric,3,3.0,20076.0,299235.0,270876.0,317931.0,279338.0
2026-04-07 17:54:13.740030,280569,1524115192,1524117018,-1.097024,0.095648,0.011712,2.45,5.99375,-6.62375,44.640003,1.048,55.928,concentric,3,3.0,20076.0,299235.0,270876.0,317931.0,279338.0
2026-04-07 17:54:13.741568,280570,1524124190,1524125717,-1.09312,0.099552,0.017568,2.6425,5.43375,-6.3875,44.584003,1.664,55.304,concentric,3,3.0,20076.0,299235.0,270876.0,317931.0,279338.0
2026-04-07 17:54:13.747437,280571,1524133150,1524134444,-1.09312,0.099552,0.017568,1.68,5.25875,-5.78375,44.584003,1.664,55.304,concentric,3,3.0,20076.0,299235.0,270876.0,317931.0,279338.0
2026-04-07 17:54:13.798515,280572,1524147649,1524149366,-1.09312,0.08784,0.01952,0.7175,5.1275,-5.29375,43.968002,1.432,56.144,concentric,3,3.0,20076.0,299235.0,270876.0,317931.0,279338.0
2026-04-07 17:54:13.799509,280573,1524156565,1524158074,-1.097024,0.101504,0.011712,0.63,4.3575,-4.725,44.648003,1.432,55.000004,concentric,3,3.0,20076.0,299235.0,270876.0,317931.0,279338.0
2026-04-07 17:54:13.827716,280583,1524166067,1524167118,-1.097024,0.101504,0.011712,1.09375,4.27,-4.69,44.648003,1.432,55.000004,concentric,3,3.0,20118.0,299718.0,271284.0,318347.0,279655.0
2026-04-07 17:54:13.829264,280584,1524175012,1524175868,-1.097024,0.101504,0.011712,1.44375,4.33125,-5.3725,44.648003,1.432,55.000004,concentric,3,3.0,20118.0,299718.0,271284.0,318347.0,279655.0
2026-04-07 17:54:13.830780,280585,1524189513,1524190779,-1.091168,0.105408,0.017568,1.4525,4.1475,-5.20625,44.872,1.84,54.840004,concentric,3,3.0,20118.0,299718.0,271284.0,318347.0,279655.0
2026-04-07 17:54:13.841517,280586,1524198676,1524199521,-1.08336,0.093696,0.007808,1.39125,4.08625,-5.25,44.992,1.32,55.920002,concentric,3,3.0,20118.0,299718.0,271284.0,318347.0,279655.0
2026-04-07 17:54:13.843140,280587,1524207607,1524208282,-1.08336,0.093696,0.007808,1.54875,3.82375,-5.67,44.992,1.32,55.920002,concentric,3,3.0,20118.0,299718.0,271284.0,318347.0,279655.0
2026-04-07 17:54:13.845499,280588,1524222562,1524223252,-1.0736,0.089792,0.01952,2.8175,3.7275,-6.23,44.544003,1.872,55.272003,concentric,3,3.0,20118.0,299718.0,271284.0,318347.0,279655.0
2026-04-07 17:54:13.846980,280589,1524231875,1524234022,-1.0736,0.089792,0.01952,3.3425,3.73625,-6.15125,44.544003,1.872,55.272003,concentric,3,3.0,20118.0,299718.0,271284.0,318347.0,279655.0
2026-04-07 17:54:13.855006,280590,1524240851,1524242722,-1.077504,0.093696,0.00976,3.36,3.54375,-5.845,44.192,1.144,56.312004,concentric,3,3.0,20118.0,299718.0,271284.0,318347.0,279655.0
2026-04-07 17:54:13.883617,280591,1524249829,1524251432,-1.077504,0.093696,0.00976,3.4825,3.1325,-6.27375,44.192,1.144,56.312004,concentric,3,3.0,20118.0,299718.0,271284.0,318347.0,279655.0
2026-04-07 17:54:13.916900,280602,1524264924,1524266541,-1.075552,0.093696,0.015616,2.91375,3.255,-5.66125,44.872,1.472,55.104004,concentric,3,3.0,20209.0,300408.0,271782.0,318818.0,279987.0
2026-04-07 17:54:13.919481,280603,1524273933,1524275283,-1.075552,0.093696,0.015616,2.45875,2.72125,-5.69625,44.872,1.472,55.104004,concentric,3,3.0,20209.0,300408.0,271782.0,318818.0,279987.0
2026-04-07 17:54:13.921895,280604,1524282934,1524283996,-1.0736,0.0976,0.007808,2.485,2.58125,-5.64375,45.272003,1.488,55.392002,concentric,3,3.0,20209.0,300408.0,271782.0,318818.0,279987.0
2026-04-07 17:54:13.924407,280605,1524297516,1524298971,-1.08336,0.099552,0.017568,2.51125,2.68625,-5.83625,44.216003,1.504,53.752003,concentric,3,3.0,20209.0,300408.0,271782.0,318818.0,279987.0
2026-04-07 17:54:13.926900,280606,1524306550,1524307715,-1.08336,0.099552,0.017568,2.31875,2.77375,-5.94125,44.216003,1.504,53.752003,concentric,3,3.0,20209.0,300408.0,271782.0,318818.0,279987.0
2026-04-07 17:54:13.929375,280607,1524315523,1524316502,-1.08336,0.099552,0.017568,2.73875,2.905,-5.915,44.216003,1.504,53.752003,concentric,3,3.0,20209.0,300408.0,271782.0,318818.0,279987.0
2026-04-07 17:54:13.935660,280608,1524324513,1524325239,-1.081408,0.095648,0.015616,3.07125,3.07125,-6.11625,44.68,1.408,56.752003,concentric,3,3.0,20209.0,300408.0,271782.0,318818.0,279987.0
2026-04-07 17:54:13.965881,280609,1524339424,1524340160,-1.069696,0.093696,0.013664,2.61625,2.975,-6.43125,44.784,1.776,55.872,concentric,3,3.0,20209.0,300408.0,271782.0,318818.0,279987.0
2026-04-07 17:54:13.969501,280610,1524348788,1524350919,-1.069696,0.093696,0.013664,2.40625,3.4825,-6.13375,44.784,1.776,55.872,concentric,3,3.0,20209.0,300408.0,271782.0,318818.0,279987.0
2026-04-07 17:54:13.971959,280611,1524357744,1524359633,-1.079456,0.089792,0.011712,1.46125,3.7275,-6.1775,45.144,2.0,55.608,concentric,3,3.0,20209.0,300408.0,271782.0,318818.0,279987.0
2026-04-07 17:54:13.996855,280621,1524367162,1524368411,-1.079456,0.089792,0.011712,0.67375,3.9725,-6.37,45.144,2.0,55.608,concentric,3,3.0,20237.0,300692.0,271971.0,318983.0,280104.0
2026-04-07 17:54:13.999443,280622,1524381750,1524383331,-1.079456,0.101504,0.00976,0.95375,4.15625,-5.7925,44.552002,1.752,57.200005,concentric,3,3.0,20237.0,300692.0,271971.0,318983.0,280104.0
2026-04-07 17:54:14.001954,280623,1524390756,1524392086,-1.079456,0.101504,0.00976,0.2275,3.82375,-5.845,44.552002,1.752,57.200005,concentric,3,3.0,20237.0,300692.0,271971.0,318983.0,280104.0
2026-04-07 17:54:14.032135,280624,1524399723,1524400786,-1.077504,0.0976,0.0,-0.55125,4.095,-5.6525,44.616,1.08,56.176003,concentric,3,3.0,20237.0,300692.0,271971.0,318983.0,280104.0
2026-04-07 17:54:14.035705,280625,1524414204,1524415656,-1.077504,0.0976,0.0,-0.4025,4.1125,-5.50375,44.616,1.08,56.176003,concentric,3,3.0,20237.0,300692.0,271971.0,318983.0,280104.0
2026-04-07 17:54:14.039076,280626,1524423180,1524424353,-1.079456,0.0976,0.01952,-0.07875,4.12125,-5.97625,44.936,1.576,55.104004,concentric,3,3.0,20237.0,300692.0,271971.0,318983.0,280104.0
2026-04-07 17:54:14.043182,280627,1524432141,1524433102,-1.079456,0.0976,0.01952,0.21875,4.52375,-5.94125,44.936,1.576,55.104004,concentric,3,3.0,20237.0,300692.0,271971.0,318983.0,280104.0
2026-04-07 17:54:14.100865,280628,1524441088,1524441810,-1.087264,0.099552,0.02928,0.13125,4.76875,-6.18625,44.960003,1.376,54.912003,concentric,3,3.0,20237.0,300692.0,271971.0,318983.0,280104.0
2026-04-07 17:54:14.103548,280629,1524455958,1524456710,-1.087264,0.099552,0.02928,-0.35,5.55625,-6.20375,44.960003,1.376,54.912003,concentric,3,3.0,20237.0,300692.0,271971.0,318983.0,280104.0
2026-04-07 17:54:14.146955,280639,1524466048,1524467462,-1.095072,0.103456,0.02928,-0.77875,5.74,-5.5125,44.896004,1.224,55.336002,concentric,3,3.0,20186.0,300162.0,271539.0,318478.0,279676.0
2026-04-07 17:54:14.149496,280640,1524475027,1524476242,-1.095072,0.103456,0.02928,-1.47,5.88,-5.3725,44.896004,1.224,55.336002,concentric,3,3.0,20186.0,300162.0,271539.0,318478.0,279676.0
2026-04-07 17:54:14.151920,280641,1524483925,1524484926,-1.098976,0.095648,0.001952,-2.45875,5.71375,-5.18875,45.008003,1.608,55.008003,concentric,3,3.0,20186.0,300162.0,271539.0,318478.0,279676.0
2026-04-07 17:54:14.154424,280642,1524498443,1524499860,-1.100928,0.091744,-0.011712,-2.84375,5.29375,-5.11875,45.248,1.64,56.856003,concentric,3,3.0,20186.0,300162.0,271539.0,318478.0,279676.0
2026-04-07 17:54:14.156918,280643,1524508092,1524508714,-1.100928,0.091744,-0.011712,-2.7125,5.355,-5.41625,45.248,1.64,56.856003,concentric,3,3.0,20186.0,300162.0,271539.0,318478.0,279676.0
2026-04-07 17:54:14.159466,280644,1524517431,1524519560,-1.100928,0.091744,0.003904,-2.8525,5.76625,-5.74875,45.248,1.64,56.856003,concentric,3,3.0,20186.0,300162.0,271539.0,318478.0,279676.0
2026-04-07 17:54:14.161940,280645,1524526352,1524528248,-1.097024,0.091744,0.005856,-2.2225,5.27625,-5.3025,44.688004,1.936,56.208004,concentric,3,3.0,20186.0,300162.0,271539.0,318478.0,279676.0
2026-04-07 17:54:14.164412,280646,1524541040,1524543191,-1.100928,0.0976,0.02928,-2.5375,5.1275,-5.11,44.88,1.168,55.288002,concentric,3,3.0,20186.0,300162.0,271539.0,318478.0,279676.0
2026-04-07 17:54:14.166903,280647,1524549998,1524551893,-1.100928,0.0976,0.02928,-2.47625,5.355,-5.08375,44.88,1.168,55.288002,concentric,3,3.0,20186.0,300162.0,271539.0,318478.0,279676.0
2026-04-07 17:54:14.171900,280648,1524558988,1524560668,-1.095072,0.095648,0.007808,-2.555,4.9175,-4.7775,44.816,1.936,54.848003,concentric,3,3.0,20186.0,300162.0,271539.0,318478.0,279676.0
2026-04-07 17:54:14.208261,280658,1524573766,1524575727,-1.095072,0.095648,0.007808,-3.1675,4.3225,-4.8125,44.816,1.936,54.848003,concentric,3,3.0,20120.0,299787.0,271274.0,318196.0,279441.0
2026-04-07 17:54:14.210687,280659,1524582769,1524584486,-1.104832,0.099552,0.0,-3.4825,4.27,-4.50625,44.688004,1.6,56.304,concentric,3,3.0,20120.0,299787.0,271274.0,318196.0,279441.0
2026-04-07 17:54:14.213187,280660,1524591742,1524593178,-1.104832,0.099552,0.0,-4.76875,4.24375,-5.04,44.688004,1.6,56.304,concentric,3,3.0,20120.0,299787.0,271274.0,318196.0,279441.0
2026-04-07 17:54:14.218140,280661,1524606254,1524608173,-1.079456,0.080032,-0.007808,-5.25875,4.0775,-4.62,44.728,1.696,57.008003,concentric,3,3.0,20120.0,299787.0,271274.0,318196.0,279441.0
2026-04-07 17:54:14.248331,280662,1524615235,1524616884,-1.079456,0.080032,-0.007808,-4.48,3.4475,-4.83,44.728,1.696,57.008003,concentric,3,3.0,20120.0,299787.0,271274.0,318196.0,279441.0
2026-04-07 17:54:14.251900,280663,1524624133,1524625568,-1.089216,0.085888,0.007808,-3.745,3.92875,-4.26125,44.664,1.384,56.304,concentric,3,3.0,20120.0,299787.0,271274.0,318196.0,279441.0
2026-04-07 17:54:14.254410,280664,1524633051,1524634264,-1.089216,0.085888,0.007808,-2.6425,3.91125,-4.73375,44.664,1.384,56.304,concentric,3,3.0,20120.0,299787.0,271274.0,318196.0,279441.0
2026-04-07 17:54:14.260759,280665,1524647520,1524649183,-1.085312,0.095648,0.007808,-2.485,3.99,-4.24375,44.528004,1.304,56.904003,concentric,3,3.0,20120.0,299787.0,271274.0,318196.0,279441.0
2026-04-07 17:54:14.290871,280666,1524656449,1524657898,-1.085312,0.095648,0.007808,-3.36875,3.6225,-4.31375,44.528004,1.304,56.904003,concentric,3,3.0,20120.0,299787.0,271274.0,318196.0,279441.0
2026-04-07 17:54:14.355023,280677,1524665452,1524666650,-1.077504,0.08784,0.011712,-3.7975,3.465,-4.0075,44.912003,2.264,55.248,concentric,3,3.0,20080.0,299375.0,270941.0,317817.0,279086.0
2026-04-07 17:54:14.358352,280678,1524680042,1524681627,-1.079456,0.091744,0.011712,-4.0775,4.10375,-3.80625,45.024002,1.976,55.000004,concentric,3,3.0,20080.0,299375.0,270941.0,317817.0,279086.0
2026-04-07 17:54:14.358430,280679,1524688961,1524690316,-1.079456,0.091744,0.011712,-4.68125,3.99875,-4.3925,45.024002,1.976,55.000004,concentric,3,3.0,20080.0,299375.0,270941.0,317817.0,279086.0
2026-04-07 17:54:14.362506,280680,1524697884,1524699026,-1.079456,0.091744,0.011712,-4.47125,3.84125,-4.725,45.024002,1.976,55.000004,concentric,3,3.0,20080.0,299375.0,270941.0,317817.0,279086.0
2026-04-07 17:54:14.364117,280681,1524712362,1524714083,-1.087264,0.0976,-0.003904,-5.005,3.38625,-4.5675,45.04,1.68,54.576004,concentric,3,3.0,20080.0,299375.0,270941.0,317817.0,279086.0
2026-04-07 17:54:14.403378,280682,1524721284,1524722769,-1.077504,0.083936,-0.007808,-5.32,3.29,-4.03375,45.672,2.328,54.840004,concentric,3,3.0,20080.0,299375.0,270941.0,317817.0,279086.0
2026-04-07 17:54:14.411274,280683,1524730207,1524731442,-1.077504,0.083936,-0.007808,-4.76875,2.93125,-4.27,45.672,2.328,54.840004,concentric,3,3.0,20080.0,299375.0,270941.0,317817.0,279086.0
2026-04-07 17:54:14.412927,280684,1524744671,1524746527,-1.085312,0.08784,-0.003904,-4.08625,2.89625,-4.585,44.848003,1.68,56.152004,concentric,3,3.0,20080.0,299375.0,270941.0,317817.0,279086.0
2026-04-07 17:54:14.414508,280685,1524753623,1524755277,-1.085312,0.08784,-0.003904,-2.6425,3.59625,-4.87375,44.848003,1.68,56.152004,concentric,3,3.0,20080.0,299375.0,270941.0,317817.0,279086.0
2026-04-07 17:54:14.417848,280686,1524762549,1524764006,-1.077504,0.085888,0.001952,-2.12625,3.70125,-4.62875,44.960003,1.824,55.768,concentric,3,3.0,20080.0,299375.0,270941.0,317817.0,279086.0
2026-04-07 17:54:14.447458,280696,1524771612,1524772738,-1.077504,0.085888,0.001952,-1.26,3.36,-4.22625,44.960003,1.824,55.768,concentric,3,3.0,20124.0,299603.0,271119.0,317991.0,279231.0
2026-04-07 17:54:14.449157,280697,1524786059,1524787674,-1.077504,0.095648,0.003904,-1.40875,3.36,-4.1825,45.312,2.16,54.800003,concentric,3,3.0,20124.0,299603.0,271119.0,317991.0,279231.0
2026-04-07 17:54:14.450727,280698,1524794967,1524796370,-1.077504,0.095648,0.003904,-1.21625,3.5525,-4.3575,45.312,2.16,54.800003,concentric,3,3.0,20124.0,299603.0,271119.0,317991.0,279231.0
2026-04-07 17:54:14.454980,280699,1524803880,1524805065,-1.085312,0.093696,-0.003904,-1.9075,3.17625,-4.20875,45.256,2.408,54.928,concentric,3,3.0,20124.0,299603.0,271119.0,317991.0,279231.0
2026-04-07 17:54:14.456641,280700,1524818376,1524820052,-1.085312,0.093696,-0.003904,-1.715,3.56125,-4.38375,45.256,2.408,54.928,concentric,3,3.0,20124.0,299603.0,271119.0,317991.0,279231.0
2026-04-07 17:54:14.458317,280701,1524827412,1524828832,-1.08336,0.089792,-0.001952,-1.53125,3.5875,-4.4275,45.072002,1.872,55.632004,concentric,3,3.0,20124.0,299603.0,271119.0,317991.0,279231.0
2026-04-07 17:54:14.462446,280702,1524836383,1524837580,-1.08336,0.089792,-0.001952,-1.07625,3.9375,-4.62,45.072002,1.872,55.632004,concentric,3,3.0,20124.0,299603.0,271119.0,317991.0,279231.0
2026-04-07 17:54:14.464115,280703,1524850891,1524852502,-1.091168,0.091744,0.0,0.14,3.3075,-4.90875,45.632004,1.792,54.904003,concentric,3,3.0,20124.0,299603.0,271119.0,317991.0,279231.0
2026-04-07 17:54:14.494194,280704,1524859809,1524861204,-1.09312,0.091744,0.00976,1.25125,3.0975,-4.9875,44.968002,1.912,54.704002,concentric,3,3.0,20124.0,299603.0,271119.0,317991.0,279231.0
2026-04-07 17:54:14.523135,280714,1524869456,1524869934,-1.09312,0.091744,0.00976,2.0825,3.255,-4.87375,44.968002,1.912,54.704002,concentric,3,3.0,20119.0,299660.0,271155.0,317960.0,279221.0
2026-04-07 17:54:14.525763,280715,1524878907,1524880878,-1.09312,0.091744,0.00976,2.73,3.57,-5.1975,44.968002,1.912,54.704002,concentric,3,3.0,20119.0,299660.0,271155.0,317960.0,279221.0
2026-04-07 17:54:14.528208,280716,1524893405,1524893745,-1.10288,0.103456,0.00976,3.5175,3.465,-5.50375,45.288002,2.024,56.528004,concentric,3,3.0,20119.0,299660.0,271155.0,317960.0,279221.0
2026-04-07 17:54:14.530689,280717,1524902645,1524904524,-1.097024,0.093696,0.001952,3.28125,3.4475,-5.74875,44.056004,1.736,57.096004,concentric,3,3.0,20119.0,299660.0,271155.0,317960.0,279221.0
2026-04-07 17:54:14.533180,280718,1524911646,1524913226,-1.097024,0.093696,0.001952,2.84375,3.395,-5.845,44.056004,1.736,57.096004,concentric,3,3.0,20119.0,299660.0,271155.0,317960.0,279221.0
2026-04-07 17:54:14.535740,280719,1524920596,1524921943,-1.108736,0.091744,-0.007808,3.33375,3.40375,-5.87125,45.160004,2.072,53.608,concentric,3,3.0,20119.0,299660.0,271155.0,317960.0,279221.0
2026-04-07 17:54:14.565817,280720,1524935092,1524936866,-1.108736,0.091744,-0.007808,4.31375,3.73625,-5.81,45.160004,2.072,53.608,concentric,3,3.0,20119.0,299660.0,271155.0,317960.0,279221.0
2026-04-07 17:54:14.569341,280721,1524944047,1524945579,-1.118496,0.105408,0.005856,5.2675,3.38625,-6.23875,45.672,1.96,54.352,concentric,3,3.0,20119.0,299660.0,271155.0,317960.0,279221.0
2026-04-07 17:54:14.571934,280722,1524953021,1524954304,-1.118496,0.105408,0.005856,5.80125,3.71,-6.265,45.672,1.96,54.352,concentric,3,3.0,20119.0,299660.0,271155.0,317960.0,279221.0
2026-04-07 17:54:14.605642,280733,1524968002,1524969567,-1.128256,0.0976,-0.003904,5.71375,3.92875,-5.9325,45.760002,1.736,55.032,concentric,3,3.0,20187.0,300054.0,271401.0,318145.0,279317.0
2026-04-07 17:54:14.608192,280734,1524977082,1524978299,-1.128256,0.0976,-0.003904,5.88875,4.27,-6.04625,45.760002,1.736,55.032,concentric,3,3.0,20187.0,300054.0,271401.0,318145.0,279317.0
2026-04-07 17:54:14.610701,280735,1524986153,1524987133,-1.128256,0.091744,0.003904,6.16,4.62,-6.23,45.208004,1.584,56.016003,concentric,3,3.0,20187.0,300054.0,271401.0,318145.0,279317.0
2026-04-07 17:54:14.613210,280736,1524995120,1524995837,-1.128256,0.091744,0.003904,7.02625,4.20875,-6.55375,45.208004,1.584,56.016003,concentric,3,3.0,20187.0,300054.0,271401.0,318145.0,279317.0
2026-04-07 17:54:14.643329,280737,1525010222,1525010824,-1.130208,0.099552,0.00976,7.79625,4.10375,-6.32625,44.792004,1.328,55.128002,concentric,3,3.0,20187.0,300054.0,271401.0,318145.0,279317.0
2026-04-07 17:54:14.646882,280738,1525019427,1525021597,-1.130208,0.099552,0.00976,8.44375,4.025,-6.36125,44.792004,1.328,55.128002,concentric,3,3.0,20187.0,300054.0,271401.0,318145.0,279317.0
2026-04-07 17:54:14.653167,280739,1525028332,1525030292,-1.138016,0.105408,0.007808,8.42625,4.55875,-6.18625,45.064003,2.264,55.376003,concentric,3,3.0,20187.0,300054.0,271401.0,318145.0,279317.0
2026-04-07 17:54:14.655750,280740,1525042895,1525045175,-1.167296,0.103456,0.0,8.12,4.82125,-6.1425,44.52,1.68,56.304,concentric,3,3.0,20187.0,300054.0,271401.0,318145.0,279317.0
2026-04-07 17:54:14.698403,280741,1525051885,1525053864,-1.167296,0.103456,0.0,8.365,5.15375,-6.195,44.52,1.68,56.304,concentric,3,3.0,20187.0,300054.0,271401.0,318145.0,279317.0
2026-04-07 17:54:14.704424,280742,1525060836,1525062600,-1.18096,0.10736,0.011712,8.2775,4.92625,-6.7025,45.584003,1.472,54.856003,concentric,3,3.0,20187.0,300054.0,271401.0,318145.0,279317.0
2026-04-07 17:54:14.729450,280752,1525069897,1525071402,-1.18096,0.10736,0.011712,8.96,4.69,-6.5625,45.584003,1.472,54.856003,concentric,3,3.0,20118.0,299414.0,270839.0,317504.0,278783.0
2026-04-07 17:54:14.731910,280753,1525084495,1525085363,-1.21024,0.119072,0.00976,9.86125,4.3575,-6.76375,45.696003,2.64,54.544003,concentric,3,3.0,20118.0,299414.0,270839.0,317504.0,278783.0
2026-04-07 17:54:14.734409,280754,1525093424,1525094097,-1.21024,0.119072,0.00976,10.2725,4.47125,-6.9475,45.696003,2.64,54.544003,concentric,3,3.0,20118.0,299414.0,270839.0,317504.0,278783.0
2026-04-07 17:54:14.739745,280755,1525102716,1525104909,-1.221952,0.124928,0.025376,10.85875,4.41875,-7.0175,45.552002,2.008,54.624004,concentric,3,3.0,20118.0,299414.0,270839.0,317504.0,278783.0
2026-04-07 17:54:14.741989,280756,1525117200,1525117778,-1.221952,0.124928,0.025376,10.823751,4.55,-7.48125,45.552002,2.008,54.624004,concentric,3,3.0,20118.0,299414.0,270839.0,317504.0,278783.0
2026-04-07 17:54:14.744626,280757,1525126413,1525128599,-1.231712,0.11712,0.037088,10.63125,4.375,-7.09625,45.440002,1.672,55.008003,concentric,3,3.0,20118.0,299414.0,270839.0,317504.0,278783.0
2026-04-07 17:54:14.746877,280758,1525135384,1525137263,-1.231712,0.11712,0.037088,9.56375,4.305,-7.06125,45.440002,1.672,55.008003,concentric,3,3.0,20118.0,299414.0,270839.0,317504.0,278783.0
2026-04-07 17:54:14.777197,280759,1525144303,1525146003,-1.245376,0.115168,0.003904,8.295,5.36375,-6.93,44.944,1.272,54.888004,concentric,3,3.0,20118.0,299414.0,270839.0,317504.0,278783.0
2026-04-07 17:54:14.789500,280760,1525158797,1525160905,-1.245376,0.115168,0.003904,6.9825,5.48625,-6.51,44.944,1.272,54.888004,concentric,3,3.0,20118.0,299414.0,270839.0,317504.0,278783.0
2026-04-07 17:54:14.814373,280770,1525167731,1525169595,-1.235616,0.109312,-0.00976,6.04625,6.0025,-7.0525,45.336002,1.656,54.640003,concentric,3,3.0,20120.0,299710.0,271155.0,317909.0,279127.0
2026-04-07 17:54:14.816933,280771,1525177092,1525178322,-1.235616,0.109312,-0.00976,6.06375,5.67,-6.79,45.336002,1.656,54.640003,concentric,3,3.0,20120.0,299710.0,271155.0,317909.0,279127.0
2026-04-07 17:54:14.819752,280772,1525191735,1525193316,-1.231712,0.11712,0.021472,6.37,5.6,-6.27375,45.384003,1.312,54.824,concentric,3,3.0,20120.0,299710.0,271155.0,317909.0,279127.0
2026-04-07 17:54:14.821987,280773,1525200885,1525202027,-1.231712,0.109312,0.02928,6.58875,4.92625,-5.71375,45.384003,1.312,54.824,concentric,3,3.0,20120.0,299710.0,271155.0,317909.0,279127.0
2026-04-07 17:54:14.824483,280774,1525209864,1525210751,-1.212192,0.109312,0.02928,5.495,4.47125,-5.5125,45.736004,1.288,55.088,concentric,3,3.0,20120.0,299710.0,271155.0,317909.0,279127.0
2026-04-07 17:54:14.829517,280775,1525218805,1525219541,-1.212192,0.109312,0.02928,5.25875,4.7775,-5.15375,45.736004,1.288,55.088,concentric,3,3.0,20120.0,299710.0,271155.0,317909.0,279127.0
2026-04-07 17:54:14.859613,280776,1525233736,1525234447,-1.192672,0.111264,0.027328,5.18,4.61125,-4.76,45.4,1.808,54.728004,eccentric,3,3.0,20120.0,299710.0,271155.0,317909.0,279127.0
2026-04-07 17:54:14.863141,280777,1525243137,1525245200,-1.186816,0.115168,0.00976,4.655,4.97,-5.0925,45.712,1.624,54.320004,eccentric,3,3.0,20120.0,299710.0,271155.0,317909.0,279127.0
2026-04-07 17:54:14.866772,280778,1525252074,1525253879,-1.186816,0.115168,0.00976,3.71875,5.18875,-4.8475,45.712,1.624,54.320004,eccentric,3,3.0,20120.0,299710.0,271155.0,317909.0,279127.0
2026-04-07 17:54:14.921908,280789,1525266585,1525269077,-1.175104,0.124928,0.023424,3.99875,5.15375,-4.43625,45.312,1.136,55.360004,eccentric,3,3.0,20180.0,299791.0,271150.0,317853.0,279063.0
2026-04-07 17:54:14.924415,280790,1525275561,1525277797,-1.175104,0.124928,0.023424,4.0075,4.8125,-4.52375,45.312,1.136,55.360004,eccentric,3,3.0,20180.0,299791.0,271150.0,317853.0,279063.0
2026-04-07 17:54:14.927007,280791,1525284482,1525286539,-1.196576,0.128832,0.025376,3.56125,4.90875,-4.68125,45.928,1.488,54.392002,eccentric,3,3.0,20180.0,299791.0,271150.0,317853.0,279063.0
2026-04-07 17:54:14.929424,280792,1525293390,1525295273,-1.196576,0.128832,0.025376,3.5525,4.71625,-4.5325,45.928,1.488,54.392002,eccentric,3,3.0,20180.0,299791.0,271150.0,317853.0,279063.0
2026-04-07 17:54:14.931894,280793,1525307908,1525310205,-1.212192,0.134688,0.007808,3.28125,4.97875,-4.9875,45.592003,1.2,55.648003,eccentric,3,3.0,20180.0,299791.0,271150.0,317853.0,279063.0
2026-04-07 17:54:14.934395,280794,1525316851,1525318970,-1.212192,0.134688,0.007808,1.49625,4.76875,-5.52125,45.592003,1.2,55.648003,eccentric,3,3.0,20180.0,299791.0,271150.0,317853.0,279063.0
2026-04-07 17:54:14.944438,280795,1525325794,1525327708,-1.227808,0.119072,0.005856,1.5575,5.3375,-6.125,44.768,1.136,55.544003,eccentric,3,3.0,20180.0,299791.0,271150.0,317853.0,279063.0
2026-04-07 17:54:15.002953,280796,1525340257,1525340604,-1.227808,0.119072,0.005856,0.8925,4.795,-6.1425,44.768,1.136,55.544003,eccentric,3,3.0,20180.0,299791.0,271150.0,317853.0,279063.0
2026-04-07 17:54:15.003092,280797,1525349558,1525351365,-1.253184,0.122976,0.021472,0.735,4.27,-5.3025,45.000004,1.696,54.696003,eccentric,3,3.0,20180.0,299791.0,271150.0,317853.0,279063.0
2026-04-07 17:54:15.018551,280798,1525358496,1525360109,-1.253184,0.122976,0.021472,0.945,3.85,-5.27625,45.000004,1.696,54.696003,eccentric,3,3.0,20180.0,299791.0,271150.0,317853.0,279063.0
2026-04-07 17:54:15.034550,280808,1525373252,1525375073,-1.255136,0.119072,0.023424,1.05875,3.52625,-5.005,45.04,1.664,54.08,eccentric,3,3.0,20163.0,299746.0,271094.0,317752.0,278972.0
2026-04-07 17:54:15.049225,280809,1525382230,1525383790,-1.266848,0.11712,0.0,-0.21,3.0625,-4.12125,45.112003,2.584,54.352,eccentric,3,3.0,20163.0,299746.0,271094.0,317752.0,278972.0
2026-04-07 17:54:15.049445,280810,1525391161,1525392493,-1.266848,0.11712,0.0,-1.9775,2.73,-3.64,45.112003,2.584,54.352,eccentric,3,3.0,20163.0,299746.0,271094.0,317752.0,278972.0
2026-04-07 17:54:15.049498,280811,1525400182,1525401244,-1.266848,0.11712,0.0,-3.21125,2.1875,-2.8875,45.112003,2.584,54.352,eccentric,3,3.0,20163.0,299746.0,271094.0,317752.0,278972.0
2026-04-07 17:54:15.049535,280812,1525414803,1525416233,-1.257088,0.109312,-0.001952,-4.6025,1.39125,-1.995,45.432003,2.448,53.120003,eccentric,3,3.0,20163.0,299746.0,271094.0,317752.0,278972.0
2026-04-07 17:54:15.049706,280813,1525423884,1525424947,-1.255136,0.115168,0.0,-5.25,0.9975,-1.6275,44.608,2.368,54.168003,eccentric,3,3.0,20163.0,299746.0,271094.0,317752.0,278972.0
2026-04-07 17:54:15.049743,280814,1525432865,1525433647,-1.255136,0.115168,0.0,-5.0925,0.42,-1.70625,44.608,2.368,54.168003,eccentric,3,3.0,20163.0,299746.0,271094.0,317752.0,278972.0
2026-04-07 17:54:15.079107,280815,1525447385,1525449327,-1.247328,0.122976,0.025376,-4.4625,-0.07,-1.63625,45.04,2.152,54.048004,eccentric,3,3.0,20163.0,299746.0,271094.0,317752.0,278972.0
2026-04-07 17:54:15.081967,280816,1525456326,1525458013,-1.247328,0.122976,0.025376,-3.29,-0.35875,-0.74375,45.04,2.152,54.048004,eccentric,3,3.0,20163.0,299746.0,271094.0,317752.0,278972.0
2026-04-07 17:54:15.085067,280817,1525465245,1525466695,-1.237568,0.122976,0.031232,-2.905,-0.4025,-1.07625,44.808002,2.624,53.856003,eccentric,3,3.0,20163.0,299746.0,271094.0,317752.0,278972.0
2026-04-07 17:54:15.111590,280827,1525479870,1525481662,-1.237568,0.122976,0.031232,-3.5,-0.5775,-1.79375,44.808002,2.624,53.856003,eccentric,3,3.0,20247.0,300538.0,271714.0,318397.0,279585.0
2026-04-07 17:54:15.112113,280828,1525488854,1525490380,-1.241472,0.124928,0.001952,-3.4475,-0.69125,-2.66875,44.152,2.64,56.056004,eccentric,3,3.0,20247.0,300538.0,271714.0,318397.0,279585.0
2026-04-07 17:54:15.115059,280829,1525497820,1525499180,-1.241472,0.124928,0.001952,-2.0825,-0.6475,-3.07125,44.152,2.64,56.056004,eccentric,3,3.0,20247.0,300538.0,271714.0,318397.0,279585.0
2026-04-07 17:54:15.118334,280830,1525506744,1525507911,-1.23952,0.115168,-0.003904,-0.55125,-0.72625,-3.6925,44.168003,2.696,54.744003,eccentric,3,3.0,20247.0,300538.0,271714.0,318397.0,279585.0
2026-04-07 17:54:15.148410,280831,1525521224,1525522850,-1.23952,0.115168,-0.003904,1.9775,-1.28625,-4.5325,44.168003,2.696,54.744003,eccentric,3,3.0,20247.0,300538.0,271714.0,318397.0,279585.0
2026-04-07 17:54:15.152118,280832,1525530128,1525531524,-1.243424,0.101504,-0.001952,3.26375,-0.86625,-4.9175,44.648003,2.744,54.160004,eccentric,3,3.0,20247.0,300538.0,271714.0,318397.0,279585.0
2026-04-07 17:54:15.154700,280833,1525539048,1525540321,-1.243424,0.101504,-0.001952,3.98125,-0.86625,-5.565,44.648003,2.744,54.160004,eccentric,3,3.0,20247.0,300538.0,271714.0,318397.0,279585.0
2026-04-07 17:54:15.184693,280834,1525553550,1525555246,-1.22976,0.093696,-0.005856,5.1975,-0.98875,-5.88,45.160004,3.56,53.72,eccentric,3,3.0,20247.0,300538.0,271714.0,318397.0,279585.0
2026-04-07 17:54:15.188199,280835,1525562456,1525563934,-1.22976,0.089792,-0.011712,4.34875,-1.4,-5.69625,45.160004,3.56,53.72,eccentric,3,3.0,20247.0,300538.0,271714.0,318397.0,279585.0
2026-04-07 17:54:15.222072,280846,1525571564,1525572914,-1.225856,0.089792,-0.011712,2.59,-1.6275,-5.74875,44.440002,3.272,54.032,eccentric,3,3.0,20427.0,301726.0,272525.0,319172.0,280114.0
2026-04-07 17:54:15.227006,280847,1525586135,1525588010,-1.206336,0.089792,-0.003904,0.7,-1.47875,-5.04,44.432003,3.04,54.424004,eccentric,3,3.0,20427.0,301726.0,272525.0,319172.0,280114.0
2026-04-07 17:54:15.229415,280848,1525595100,1525596715,-1.206336,0.089792,-0.003904,0.1925,-1.68,-4.0775,44.432003,3.04,54.424004,eccentric,3,3.0,20427.0,301726.0,272525.0,319172.0,280114.0
2026-04-07 17:54:15.231899,280849,1525604032,1525605447,-1.184864,0.0976,-0.005856,0.97125,-1.9425,-3.77125,43.392002,2.984,55.024002,eccentric,3,3.0,20427.0,301726.0,272525.0,319172.0,280114.0
2026-04-07 17:54:15.234722,280850,1525612966,1525614240,-1.184864,0.0976,-0.005856,2.44125,-2.26625,-3.43875,43.392002,2.984,55.024002,eccentric,3,3.0,20427.0,301726.0,272525.0,319172.0,280114.0
2026-04-07 17:54:15.239470,280851,1525627556,1525629231,-1.163392,0.105408,0.0,3.4125,-2.7825,-3.4125,43.344,3.616,53.280003,eccentric,3,3.0,20427.0,301726.0,272525.0,319172.0,280114.0
2026-04-07 17:54:15.295864,280852,1525636460,1525637932,-1.163392,0.105408,0.0,4.12125,-3.01,-3.3425,43.344,3.616,53.280003,eccentric,3,3.0,20427.0,301726.0,272525.0,319172.0,280114.0
2026-04-07 17:54:15.299671,280853,1525645372,1525646607,-1.14192,0.0976,-0.007808,3.57,-3.54375,-3.22875,43.456,3.68,53.352,eccentric,3,3.0,20427.0,301726.0,272525.0,319172.0,280114.0
2026-04-07 17:54:15.302063,280854,1525659854,1525661607,-1.14192,0.0976,-0.007808,3.07125,-3.5175,-3.115,43.456,3.68,53.352,eccentric,3,3.0,20427.0,301726.0,272525.0,319172.0,280114.0
2026-04-07 17:54:15.304483,280855,1525668766,1525670301,-1.08336,0.076128,-0.017568,3.325,-3.98125,-3.71875,43.392002,3.728,53.472004,eccentric,3,3.0,20427.0,301726.0,272525.0,319172.0,280114.0
2026-04-07 17:54:15.329443,280865,1525677724,1525679050,-1.08336,0.076128,-0.017568,5.17125,-4.4975,-4.4625,43.392002,3.728,53.472004,eccentric,3,3.0,20592.0,303204.0,273736.0,320500.0,281231.0
2026-04-07 17:54:15.331873,280866,1525692206,1525693956,-1.04432,0.074176,-0.02928,6.2475,-5.15375,-5.1975,43.512,3.744,52.968002,eccentric,3,3.0,20592.0,303204.0,273736.0,320500.0,281231.0
2026-04-07 17:54:15.334422,280867,1525701109,1525702711,-1.04432,0.074176,-0.02928,7.35875,-5.90625,-5.50375,43.512,3.744,52.968002,eccentric,3,3.0,20592.0,303204.0,273736.0,320500.0,281231.0
2026-04-07 17:54:15.337030,280868,1525710147,1525711494,-1.013088,0.076128,-0.02928,8.44375,-6.43125,-4.585,43.016003,3.488,50.568,eccentric,3,3.0,20592.0,303204.0,273736.0,320500.0,281231.0
2026-04-07 17:54:15.339440,280869,1525724680,1525726468,-0.95648,0.072224,-0.031232,9.1175,-7.30625,-3.57,42.832,3.656,53.192,eccentric,3,3.0,20592.0,303204.0,273736.0,320500.0,281231.0
2026-04-07 17:54:15.345770,280870,1525733609,1525735209,-0.95648,0.072224,-0.031232,9.26625,-8.86375,-2.9225,42.832,3.656,53.192,eccentric,3,3.0,20592.0,303204.0,273736.0,320500.0,281231.0
2026-04-07 17:54:15.375870,280871,1525742560,1525743889,-0.95648,0.072224,-0.031232,8.96,-9.61625,-1.95125,42.832,3.656,53.192,eccentric,3,3.0,20592.0,303204.0,273736.0,320500.0,281231.0
2026-04-07 17:54:15.379660,280872,1525751522,1525752609,-0.911584,0.060512,-0.017568,8.75875,-10.35125,-1.68,42.296,3.568,53.352,eccentric,3,3.0,20592.0,303204.0,273736.0,320500.0,281231.0
2026-04-07 17:54:15.382042,280873,1525766000,1525767499,-0.894016,0.081984,-0.007808,8.995,-11.83,-0.8225,42.640003,3.144,53.552002,eccentric,3,3.0,20592.0,303204.0,273736.0,320500.0,281231.0
2026-04-07 17:54:15.408724,280883,1525775100,1525776210,-0.894016,0.081984,-0.007808,9.59,-13.50125,0.4725,42.640003,3.144,53.552002,eccentric,3,3.0,20648.0,303985.0,274496.0,321365.0,281919.0
2026-04-07 17:54:15.411420,280884,1525784106,1525784995,-0.894016,0.093696,0.001952,9.24,-14.665,1.53125,42.04,3.608,53.128002,eccentric,3,3.0,20648.0,303985.0,274496.0,321365.0,281919.0
2026-04-07 17:54:15.415280,280885,1525798618,1525799953,-0.894016,0.093696,0.001952,7.90125,-15.26875,2.31,42.04,3.608,53.128002,eccentric,3,3.0,20648.0,303985.0,274496.0,321365.0,281919.0
2026-04-07 17:54:15.421200,280886,1525807594,1525808701,-0.882304,0.115168,0.00976,6.755,-15.855001,3.535,42.272003,3.328,53.064003,eccentric,3,3.0,20648.0,303985.0,274496.0,321365.0,281919.0
2026-04-07 17:54:15.449584,280887,1525816556,1525817398,-0.882304,0.115168,0.00976,5.03125,-15.846251,3.31625,42.272003,3.328,53.064003,eccentric,3,3.0,20648.0,303985.0,274496.0,321365.0,281919.0
2026-04-07 17:54:15.454171,280888,1525831037,1525832294,-0.895968,0.109312,0.011712,3.0275,-15.23375,2.4325,42.352,3.688,53.032,eccentric,3,3.0,20648.0,303985.0,274496.0,321365.0,281919.0
2026-04-07 17:54:15.455640,280889,1525839991,1525841014,-0.895968,0.109312,0.011712,1.47,-14.735,1.155,42.352,3.688,53.032,eccentric,3,3.0,20648.0,303985.0,274496.0,321365.0,281919.0
2026-04-07 17:54:15.462612,280890,1525848939,1525849720,-0.880352,0.091744,-0.007808,0.07,-14.27125,-0.21875,41.920002,3.696,53.344,eccentric,3,3.0,20648.0,303985.0,274496.0,321365.0,281919.0
2026-04-07 17:54:15.490955,280891,1525863429,1525864607,-0.880352,0.091744,0.007808,-1.49625,-12.915,-2.0475,41.920002,3.696,53.344,eccentric,3,3.0,20648.0,303985.0,274496.0,321365.0,281919.0
2026-04-07 17:54:15.526869,280902,1525872890,1525873426,-0.88816,0.089792,0.0,-1.65375,-11.6375,-3.6925,41.664,3.616,53.416004,eccentric,3,3.0,20576.0,303434.0,274121.0,321106.0,281790.0
2026-04-07 17:54:15.529482,280903,1525881931,1525882291,-0.88816,0.089792,0.0,-0.90125,-12.1275,-4.6725,41.664,3.616,53.416004,eccentric,3,3.0,20576.0,303434.0,274121.0,321106.0,281790.0
2026-04-07 17:54:15.531922,280904,1525891215,1525893101,-0.872544,0.08784,-0.001952,0.3675,-13.3175,-4.89125,41.144,3.816,53.04,eccentric,3,3.0,20576.0,303434.0,274121.0,321106.0,281790.0
2026-04-07 17:54:15.534422,280905,1525905827,1525908132,-0.876448,0.085888,0.023424,0.1925,-13.3875,-4.83875,40.664,3.28,54.032,eccentric,3,3.0,20576.0,303434.0,274121.0,321106.0,281790.0
2026-04-07 17:54:15.536928,280906,1525914807,1525916836,-0.876448,0.085888,0.023424,0.49,-13.06375,-4.2,40.664,3.28,54.032,eccentric,3,3.0,20576.0,303434.0,274121.0,321106.0,281790.0
2026-04-07 17:54:15.539599,280907,1525923753,1525925691,-0.876448,0.085888,0.007808,0.39375,-13.335,-3.29,40.664,3.28,54.032,eccentric,3,3.0,20576.0,303434.0,274121.0,321106.0,281790.0
2026-04-07 17:54:15.544452,280908,1525932753,1525934428,-0.870592,0.095648,0.0,-0.81375,-12.20625,-3.26375,40.56,3.68,54.120003,eccentric,3,3.0,20576.0,303434.0,274121.0,321106.0,281790.0
2026-04-07 17:54:15.614623,280909,1525947240,1525949325,-0.866688,0.066368,0.01952,-1.435,-11.24375,-3.73625,40.696003,3.784,53.440002,eccentric,3,3.0,20576.0,303434.0,274121.0,321106.0,281790.0
2026-04-07 17:54:15.618366,280910,1525956146,1525958035,-0.866688,0.066368,0.01952,-0.9625,-10.31625,-3.70125,40.696003,3.784,53.440002,eccentric,3,3.0,20576.0,303434.0,274121.0,321106.0,281790.0
2026-04-07 17:54:15.642032,280911,1525965122,1525966725,-0.864736,0.081984,0.037088,1.53125,-10.0275,-4.31375,40.112003,4.168,52.624004,eccentric,3,3.0,20576.0,303434.0,274121.0,321106.0,281790.0
2026-04-07 17:54:15.666849,280921,1525979659,1525981706,-0.864736,0.081984,0.037088,5.18875,-9.2225,-4.4975,40.112003,4.168,52.624004,eccentric,3,3.0,20499.0,302978.0,273813.0,320966.0,281733.0
2026-04-07 17:54:15.669473,280922,1525988580,1525990422,-0.851072,0.08784,0.064416,7.4725,-7.245,-4.73375,41.328003,4.12,53.312004,eccentric,3,3.0,20499.0,302978.0,273813.0,320966.0,281733.0
2026-04-07 17:54:15.671922,280923,1525997568,1525999128,-0.851072,0.08784,0.064416,8.16375,-5.46875,-4.655,41.328003,4.12,53.312004,eccentric,3,3.0,20499.0,302978.0,273813.0,320966.0,281733.0
2026-04-07 17:54:15.674462,280924,1526012075,1526014048,-0.827648,0.091744,0.083936,7.875,-3.64875,-4.4975,40.2,3.904,53.128002,eccentric,3,3.0,20499.0,302978.0,273813.0,320966.0,281733.0
2026-04-07 17:54:15.676974,280925,1526021100,1526022748,-0.827648,0.091744,0.083936,7.3325,-2.0125,-4.94375,40.2,3.904,53.128002,eccentric,3,3.0,20499.0,302978.0,273813.0,320966.0,281733.0
2026-04-07 17:54:15.679500,280926,1526030072,1526031464,-0.821792,0.0976,0.07808,6.90375,-0.37625,-5.27625,40.208,3.752,53.456,eccentric,3,3.0,20499.0,302978.0,273813.0,320966.0,281733.0
2026-04-07 17:54:15.681869,280927,1526044609,1526046421,-0.821792,0.124928,0.0976,6.79,1.0675,-6.23875,40.208,3.752,53.456,eccentric,3,3.0,20499.0,302978.0,273813.0,320966.0,281733.0
2026-04-07 17:54:15.684392,280928,1526053591,1526055187,-0.831552,0.124928,0.0976,5.20625,2.65125,-7.55125,39.504,3.192,55.032,eccentric,3,3.0,20499.0,302978.0,273813.0,320966.0,281733.0
2026-04-07 17:54:15.686903,280929,1526062584,1526063924,-0.831552,0.124928,0.0976,4.03375,4.24375,-8.015,39.504,3.192,55.032,eccentric,3,3.0,20499.0,302978.0,273813.0,320966.0,281733.0
2026-04-07 17:54:15.689366,280930,1526071601,1526072654,-0.860832,0.10736,0.064416,2.35375,5.285,-9.135,39.600002,3.832,54.408,eccentric,3,3.0,20499.0,302978.0,273813.0,320966.0,281733.0
2026-04-07 17:54:15.714804,280940,1526086155,1526087626,-0.89792,0.085888,0.066368,1.645,6.79875,-9.9575,39.032,3.776,53.264004,eccentric,3,3.0,20427.0,302278.0,273231.0,320229.0,281024.0
2026-04-07 17:54:15.716944,280941,1526095086,1526096328,-0.89792,0.085888,0.066368,5.1275,6.755,-10.92,39.032,3.776,53.264004,eccentric,3,3.0,20427.0,302278.0,273231.0,320229.0,281024.0
2026-04-07 17:54:15.719465,280942,1526104049,1526105058,-0.89792,0.085888,0.066368,12.55625,6.30875,-12.01375,39.032,3.776,53.264004,eccentric,3,3.0,20427.0,302278.0,273231.0,320229.0,281024.0
2026-04-07 17:54:15.749646,280943,1526118585,1526119983,-0.90768,0.08784,0.080032,19.6175,5.41625,-12.25875,39.816,3.84,54.432003,eccentric,3,3.0,20427.0,302278.0,273231.0,320229.0,281024.0
2026-04-07 17:54:15.753292,280944,1526127500,1526128719,-0.938912,0.119072,0.121024,22.5925,5.3375,-11.87375,39.992,3.824,53.128002,eccentric,3,3.0,20427.0,302278.0,273231.0,320229.0,281024.0
2026-04-07 17:54:15.755712,280945,1526136407,1526137384,-0.938912,0.119072,0.121024,22.51375,6.04625,-10.64875,39.992,3.824,53.128002,eccentric,3,3.0,20427.0,302278.0,273231.0,320229.0,281024.0
2026-04-07 17:54:15.761905,280946,1526151004,1526152327,-0.940864,0.150304,0.119072,20.2125,6.04625,-9.33625,39.920002,3.424,54.72,eccentric,3,3.0,20427.0,302278.0,273231.0,320229.0,281024.0
2026-04-07 17:54:15.792165,280947,1526159985,1526161025,-0.940864,0.150304,0.119072,16.49375,6.09875,-8.3825,39.920002,3.424,54.72,eccentric,3,3.0,20427.0,302278.0,273231.0,320229.0,281024.0
2026-04-07 17:54:15.795783,280948,1526169004,1526169718,-0.976,0.142496,0.099552,14.21875,6.22125,-7.83125,39.312,3.552,53.416004,eccentric,3,3.0,20427.0,302278.0,273231.0,320229.0,281024.0
2026-04-07 17:54:15.823186,280959,1526178387,1526180516,-0.976,0.142496,0.099552,13.67625,6.92125,-7.49875,39.312,3.552,53.416004,eccentric,3,3.0,20382.0,301803.0,272803.0,319736.0,280613.0
2026-04-07 17:54:15.827469,280960,1526193026,1526193474,-0.987712,0.121024,0.080032,14.41125,7.35,-7.875,40.296,3.28,53.192,eccentric,3,3.0,20382.0,301803.0,272803.0,319736.0,280613.0
2026-04-07 17:54:15.829177,280961,1526202369,1526204261,-0.987712,0.121024,0.080032,18.08625,6.71125,-8.05,40.296,3.28,53.192,eccentric,3,3.0,20382.0,301803.0,272803.0,319736.0,280613.0
2026-04-07 17:54:15.830761,280962,1526211310,1526212976,-0.976,0.158112,0.076128,22.61,6.8425,-8.82,40.416,3.08,54.384003,eccentric,3,3.0,20382.0,301803.0,272803.0,319736.0,280613.0
2026-04-07 17:54:15.834838,280963,1526220279,1526221669,-0.976,0.158112,0.076128,25.515,8.14625,-9.765,40.416,3.08,54.384003,eccentric,3,3.0,20382.0,301803.0,272803.0,319736.0,280613.0
2026-04-07 17:54:15.863538,280964,1526235539,1526236861,-0.997472,0.163968,0.103456,24.03625,9.03875,-10.4475,40.128002,2.624,54.648003,eccentric,3,3.0,20382.0,301803.0,272803.0,319736.0,280613.0
2026-04-07 17:54:15.899333,280965,1526244612,1526245637,-0.997472,0.163968,0.103456,23.09125,9.98375,-10.29875,40.128002,2.624,54.648003,eccentric,3,3.0,20382.0,301803.0,272803.0,319736.0,280613.0
2026-04-07 17:54:15.901637,280966,1526253789,1526254743,-1.016992,0.134688,0.10736,22.960001,10.33375,-9.1875,40.168003,2.776,52.432003,eccentric,3,3.0,20382.0,301803.0,272803.0,319736.0,280613.0
2026-04-07 17:54:15.906321,280967,1526268404,1526269691,-1.040416,0.152256,0.07808,23.31,10.28125,-7.98,40.984,3.184,53.512,eccentric,3,3.0,20382.0,301803.0,272803.0,319736.0,280613.0
2026-04-07 17:54:15.930409,280977,1526278340,1526278972,-1.040416,0.152256,0.07808,22.23375,9.6775,-7.8225,40.984,3.184,53.512,eccentric,3,3.0,20468.0,302304.0,273134.0,320123.0,280996.0
2026-04-07 17:54:15.932860,280978,1526287759,1526289752,-1.016992,0.142496,0.064416,21.805,9.56375,-7.525,40.504,2.368,53.568,eccentric,3,3.0,20468.0,302304.0,273134.0,320123.0,280996.0
2026-04-07 17:54:15.934364,280979,1526296695,1526298466,-1.016992,0.142496,0.064416,21.9275,9.30125,-6.65875,40.504,2.368,53.568,eccentric,3,3.0,20468.0,302304.0,273134.0,320123.0,280996.0
2026-04-07 17:54:15.938890,280980,1526305774,1526307390,-1.016992,0.095648,0.056608,22.1375,8.51375,-6.16875,40.504,2.368,53.568,eccentric,3,3.0,20468.0,302304.0,273134.0,320123.0,280996.0
2026-04-07 17:54:15.940592,280981,1526320402,1526322388,-1.0248,0.10736,0.056608,23.03875,8.5925,-5.41625,40.856003,2.088,53.384003,eccentric,3,3.0,20468.0,302304.0,273134.0,320123.0,280996.0
2026-04-07 17:54:15.942851,280982,1526329340,1526331094,-1.016992,0.105408,0.060512,24.5875,8.505,-4.4975,40.336002,1.632,53.728004,eccentric,3,3.0,20468.0,302304.0,273134.0,320123.0,280996.0
2026-04-07 17:54:15.972126,280983,1526338335,1526339771,-1.016992,0.105408,0.060512,27.3875,8.25125,-3.87625,40.336002,1.632,53.728004,eccentric,3,3.0,20468.0,302304.0,273134.0,320123.0,280996.0
2026-04-07 17:54:15.975724,280984,1526352884,1526354660,-1.028704,0.12688,0.062464,30.1175,8.23375,-3.12375,40.24,1.392,52.008003,eccentric,3,3.0,20468.0,302304.0,273134.0,320123.0,280996.0
2026-04-07 17:54:15.978239,280985,1526361815,1526363394,-1.028704,0.12688,0.062464,31.12375,7.7875,-2.87875,40.24,1.392,52.008003,eccentric,3,3.0,20468.0,302304.0,273134.0,320123.0,280996.0
2026-04-07 17:54:15.983149,280986,1526370748,1526372109,-1.01504,0.132736,0.0488,30.02125,8.0325,-2.24875,40.352,1.224,53.840004,eccentric,3,3.0,20468.0,302304.0,273134.0,320123.0,280996.0
2026-04-07 17:54:16.008099,280996,1526385379,1526387095,-1.01504,0.132736,0.0488,28.74375,8.4875,-2.3975,40.352,1.224,53.840004,eccentric,3,3.0,20627.0,303712.0,274238.0,321282.0,281928.0
2026-04-07 17:54:16.010680,280997,1526394383,1526395791,-1.032608,0.124928,0.037088,28.13125,9.4675,-3.26375,40.112003,0.728,53.944004,eccentric,3,3.0,20627.0,303712.0,274238.0,321282.0,281928.0
2026-04-07 17:54:16.014364,280998,1526403430,1526404485,-1.032608,0.124928,0.037088,28.6825,9.8,-4.5325,40.112003,0.728,53.944004,eccentric,3,3.0,20627.0,303712.0,274238.0,321282.0,281928.0
2026-04-07 17:54:16.044684,280999,1526412380,1526413192,-1.030656,0.144448,0.050752,30.7125,10.167501,-5.55625,40.544003,0.592,54.904003,eccentric,3,3.0,20627.0,303712.0,274238.0,321282.0,281928.0
2026-04-07 17:54:16.048106,281000,1526426820,1526428073,-1.04432,0.140544,0.056608,31.4475,9.948751,-6.13375,42.592003,0.768,52.856003,eccentric,3,3.0,20627.0,303712.0,274238.0,321282.0,281928.0
2026-04-07 17:54:16.050680,281001,1526435729,1526436769,-1.04432,0.140544,0.056608,30.51125,10.43,-6.7725,40.976,0.768,52.856003,eccentric,3,3.0,20627.0,303712.0,274238.0,321282.0,281928.0
2026-04-07 17:54:16.056984,281002,1526444679,1526445486,-1.04432,0.140544,0.056608,29.11125,11.38375,-6.69375,40.976,0.768,52.856003,eccentric,3,3.0,20627.0,303712.0,274238.0,321282.0,281928.0
2026-04-07 17:54:16.088309,281003,1526459168,1526460383,-1.036512,0.130784,0.054656,27.78125,11.97875,-6.5275,40.432003,0.32,53.968002,eccentric,3,3.0,20627.0,303712.0,274238.0,321282.0,281928.0
2026-04-07 17:54:16.092025,281004,1526468036,1526469130,-1.050176,0.130784,0.027328,25.9525,12.8975,-6.92125,41.096,-0.144,54.256004,eccentric,3,3.0,20627.0,303712.0,274238.0,321282.0,281928.0
2026-04-07 17:54:16.121949,281015,1526477372,1526477980,-1.050176,0.130784,0.027328,25.13875,13.4925,-7.2275,41.096,-0.144,54.256004,eccentric,3,3.0,20454.0,302095.0,272911.0,319882.0,280820.0
2026-04-07 17:54:16.124518,281016,1526486654,1526488769,-1.050176,0.13664,0.037088,23.59,13.81625,-7.58625,41.096,-0.144,54.256004,eccentric,3,3.0,20454.0,302095.0,272911.0,319882.0,280820.0
2026-04-07 17:54:16.127016,281017,1526501179,1526501655,-1.046272,0.13664,0.037088,21.6125,13.95625,-7.34125,40.728,-0.528,56.896004,eccentric,3,3.0,20454.0,302095.0,272911.0,319882.0,280820.0
2026-04-07 17:54:16.129453,281018,1526510741,1526512436,-1.05408,0.111264,0.040992,20.50125,13.755,-6.265,41.248,-0.784,55.552002,eccentric,3,3.0,20454.0,302095.0,272911.0,319882.0,280820.0
2026-04-07 17:54:16.131908,281019,1526519674,1526521157,-1.05408,0.111264,0.040992,20.58,13.72,-6.0375,41.248,-0.784,55.552002,eccentric,3,3.0,20454.0,302095.0,272911.0,319882.0,280820.0
2026-04-07 17:54:16.162086,281020,1526534154,1526536065,-1.05408,0.130784,0.040992,21.28,13.97375,-5.74,41.016003,-0.4,55.440002,eccentric,3,3.0,20454.0,302095.0,272911.0,319882.0,280820.0
2026-04-07 17:54:16.165679,281021,1526543063,1526544737,-1.05408,0.130784,0.040992,22.33,13.79875,-5.8275,41.016003,-0.4,55.440002,eccentric,3,3.0,20454.0,302095.0,272911.0,319882.0,280820.0
2026-04-07 17:54:16.202171,281022,1526551971,1526553410,-1.050176,0.144448,0.03904,22.225,13.5625,-5.99375,41.68,-0.12,54.016003,eccentric,3,3.0,20454.0,302095.0,272911.0,319882.0,280820.0
2026-04-07 17:54:16.205689,281023,1526566437,1526568342,-1.050176,0.144448,0.03904,20.4225,14.14875,-5.915,41.68,-0.12,54.016003,eccentric,3,3.0,20454.0,302095.0,272911.0,319882.0,280820.0
2026-04-07 17:54:16.250699,281033,1526575335,1526577028,-1.050176,0.130784,0.037088,18.2525,14.5075,-6.27375,41.576,-0.24,53.352,eccentric,3,3.0,20304.0,300963.0,272040.0,319015.0,280206.0
2026-04-07 17:54:16.253197,281034,1526584666,1526585784,-1.050176,0.130784,0.037088,16.45,15.417501,-7.49875,41.576,-0.24,53.352,eccentric,3,3.0,20304.0,300963.0,272040.0,319015.0,280206.0
2026-04-07 17:54:16.255656,281035,1526593586,1526594495,-1.056032,0.11712,0.0488,15.65375,15.365,-7.39375,41.912003,-1.016,53.744003,eccentric,3,3.0,20304.0,300963.0,272040.0,319015.0,280206.0
2026-04-07 17:54:16.258296,281036,1526608189,1526609411,-1.050176,0.111264,0.095648,15.2775,14.2625,-7.84875,41.776,-1.288,53.264004,eccentric,3,3.0,20304.0,300963.0,272040.0,319015.0,280206.0
2026-04-07 17:54:16.260712,281037,1526617055,1526618138,-1.050176,0.111264,0.095648,13.755,13.30875,-8.33,41.776,-1.288,53.264004,eccentric,3,3.0,20304.0,300963.0,272040.0,319015.0,280206.0
2026-04-07 17:54:16.263317,281038,1526625969,1526626823,-1.050176,0.111264,0.095648,10.99875,12.775,-8.72375,41.776,-1.288,53.264004,eccentric,3,3.0,20304.0,300963.0,272040.0,319015.0,280206.0
2026-04-07 17:54:16.265687,281039,1526640545,1526641886,-1.046272,0.095648,0.109312,7.2275,12.32875,-8.77625,41.752003,-0.704,53.592003,eccentric,3,3.0,20304.0,300963.0,272040.0,319015.0,280206.0
2026-04-07 17:54:16.268185,281040,1526649489,1526650598,-1.048224,0.101504,0.08784,3.17625,10.955,-9.23125,41.600002,-0.752,53.184002,eccentric,3,3.0,20304.0,300963.0,272040.0,319015.0,280206.0
2026-04-07 17:54:16.270648,281041,1526658540,1526659311,-1.048224,0.101504,0.08784,0.51625,9.948751,-8.7675,41.600002,-0.752,53.184002,eccentric,3,3.0,20304.0,300963.0,272040.0,319015.0,280206.0
2026-04-07 17:54:16.300835,281042,1526667922,1526670107,-1.032608,0.122976,0.054656,-0.6475,9.415,-8.47875,41.600002,-0.52,54.376003,eccentric,3,3.0,20304.0,300963.0,272040.0,319015.0,280206.0
2026-04-07 17:54:16.330788,281052,1526682450,1526683031,-1.032608,0.122976,0.054656,-3.4475,9.073751,-8.70625,41.760002,-0.52,54.376003,eccentric,3,3.0,20246.0,300552.0,271793.0,318808.0,280063.0
