pc_time,serial_num,sensor_ts,host_ts,ax,ay,az,gx,gy,gz,mx,my,mz,phase,rpe,weight_kg,ppg_a,ppg_b,ppg_c,ppg_d,ppg_e
2026-04-07 17:54:16.341450,281053,1526691644,1526693783,-1.028704,0.130784,0.02928,-7.0875,8.49625,-8.33875,41.968002,-0.496,53.600002,concentric,3,3.0,20246.0,300552.0,271793.0,318808.0,280063.0
2026-04-07 17:54:16.342937,281054,1526700560,1526702495,-1.028704,0.130784,0.02928,-8.81125,8.0675,-7.69125,41.968002,-0.496,53.600002,concentric,3,3.0,20246.0,300552.0,271793.0,318808.0,280063.0
2026-04-07 17:54:16.345387,281055,1526715061,1526715402,-1.01504,0.132736,0.025376,-9.24,6.86875,-7.49,41.832,-0.328,54.656002,concentric,3,3.0,20246.0,300552.0,271793.0,318808.0,280063.0
2026-04-07 17:54:16.346927,281056,1526724334,1526726167,-1.01504,0.132736,0.025376,-9.96625,6.23,-7.49875,41.832,-0.328,54.656002,concentric,3,3.0,20246.0,300552.0,271793.0,318808.0,280063.0
2026-04-07 17:54:16.351092,281057,1526733268,1526734906,-1.0248,0.132736,0.015616,-10.2375,5.8625,-7.88375,42.304,-0.856,53.784004,concentric,3,3.0,20246.0,300552.0,271793.0,318808.0,280063.0
2026-04-07 17:54:16.357014,281058,1526742292,1526743619,-1.0248,0.132736,0.015616,-10.395,5.45125,-7.7175,42.304,-0.856,53.784004,concentric,3,3.0,20246.0,300552.0,271793.0,318808.0,280063.0
2026-04-07 17:54:16.384644,281059,1526756832,1526758553,-1.05408,0.150304,0.001952,-10.52625,5.90625,-8.3125,42.160004,-0.272,53.224003,concentric,3,3.0,20246.0,300552.0,271793.0,318808.0,280063.0
2026-04-07 17:54:16.389188,281060,1526765748,1526767235,-1.05408,0.150304,0.001952,-11.445,6.2825,-8.93375,42.160004,-0.272,53.224003,concentric,3,3.0,20246.0,300552.0,271793.0,318808.0,280063.0
2026-04-07 17:54:16.390697,281061,1526774667,1526775905,-1.050176,0.132736,-0.003904,-12.81,6.1775,-9.073751,42.536003,-0.12,53.016003,concentric,3,3.0,20246.0,300552.0,271793.0,318808.0,280063.0
2026-04-07 17:54:16.419505,281072,1526789287,1526790939,-1.04432,0.101504,0.003904,-13.53625,6.02,-9.56375,42.112003,0.224,55.600002,concentric,3,3.0,20160.0,299945.0,271379.0,318423.0,279758.0
2026-04-07 17:54:16.420861,281073,1526798219,1526799652,-1.04432,0.101504,0.003904,-12.915,5.985,-9.33625,42.112003,0.224,55.600002,concentric,3,3.0,20160.0,299945.0,271379.0,318423.0,279758.0
2026-04-07 17:54:16.424871,281074,1526807242,1526808411,-1.04432,0.101504,0.003904,-11.17375,6.55375,-8.8725,42.112003,0.224,55.600002,concentric,3,3.0,20160.0,299945.0,271379.0,318423.0,279758.0
2026-04-07 17:54:16.453436,281075,1526821842,1526823302,-1.040416,0.091744,0.003904,-10.0275,6.65,-8.65375,42.112003,-0.208,52.344,concentric,3,3.0,20160.0,299945.0,271379.0,318423.0,279758.0
2026-04-07 17:54:16.457955,281076,1526830799,1526832003,-1.03456,0.099552,0.005856,-9.2575,6.195,-7.81375,42.704002,0.192,53.048004,concentric,3,3.0,20160.0,299945.0,271379.0,318423.0,279758.0
2026-04-07 17:54:16.459546,281077,1526839734,1526840691,-1.03456,0.099552,0.005856,-8.225,6.62375,-6.83375,42.704002,0.192,53.048004,concentric,3,3.0,20160.0,299945.0,271379.0,318423.0,279758.0
2026-04-07 17:54:16.499533,281078,1526854283,1526855597,-1.028704,0.119072,0.0,-7.0175,6.50125,-6.0725,42.664,0.536,52.824,concentric,3,3.0,20160.0,299945.0,271379.0,318423.0,279758.0
2026-04-07 17:54:16.500860,281079,1526863214,1526864309,-1.028704,0.119072,0.0,-6.22125,6.51875,-5.5475,42.664,0.536,52.824,concentric,3,3.0,20160.0,299945.0,271379.0,318423.0,279758.0
2026-04-07 17:54:16.504460,281080,1526872281,1526873026,-1.036512,0.140544,0.00976,-6.02,6.545,-5.73125,43.096,1.04,52.296,concentric,3,3.0,20160.0,299945.0,271379.0,318423.0,279758.0
2026-04-07 17:54:16.531961,281090,1526881788,1526882087,-1.036512,0.140544,0.00976,-5.24125,7.04375,-6.2125,43.096,1.04,52.296,concentric,3,3.0,20118.0,299544.0,271017.0,318054.0,279487.0
2026-04-07 17:54:16.534404,281091,1526896645,1526897069,-1.03456,0.1464,0.005856,-5.005,7.525,-7.39375,42.688004,0.456,53.08,concentric,3,3.0,20118.0,299544.0,271017.0,318054.0,279487.0
2026-04-07 17:54:16.536981,281092,1526906005,1526907891,-1.03456,0.1464,0.005856,-5.27625,7.84,-8.12875,42.688004,0.456,53.08,concentric,3,3.0,20118.0,299544.0,271017.0,318054.0,279487.0
2026-04-07 17:54:16.539428,281093,1526915104,1526916676,-1.036512,0.132736,-0.003904,-5.97625,8.49625,-9.1,42.536003,1.088,52.688004,concentric,3,3.0,20118.0,299544.0,271017.0,318054.0,279487.0
2026-04-07 17:54:16.541945,281094,1526924117,1526925400,-1.036512,0.132736,-0.003904,-7.0175,9.16125,-10.12375,42.536003,1.088,52.688004,concentric,3,3.0,20118.0,299544.0,271017.0,318054.0,279487.0
2026-04-07 17:54:16.572122,281095,1526938655,1526940352,-1.032608,0.0976,0.001952,-8.68,10.28125,-10.98125,42.616,0.656,52.464,concentric,3,3.0,20118.0,299544.0,271017.0,318054.0,279487.0
2026-04-07 17:54:16.575678,281096,1526947666,1526949056,-1.032608,0.0976,0.001952,-9.3275,10.77125,-11.40125,42.616,0.656,52.464,concentric,3,3.0,20118.0,299544.0,271017.0,318054.0,279487.0
2026-04-07 17:54:16.578305,281097,1526956610,1526957757,-1.048224,0.080032,-0.005856,-8.75,10.71,-11.64625,42.192,1.024,51.152004,concentric,3,3.0,20118.0,299544.0,271017.0,318054.0,279487.0
2026-04-07 17:54:16.583335,281098,1526971215,1526972689,-1.048224,0.101504,0.001952,-9.05625,10.71,-10.6575,42.848003,0.656,53.864002,concentric,3,3.0,20118.0,299544.0,271017.0,318054.0,279487.0
2026-04-07 17:54:16.618093,281108,1526980877,1526981508,-1.048224,0.101504,0.001952,-9.0125,10.63125,-9.8175,42.848003,0.656,53.864002,concentric,3,3.0,20180.0,300012.0,271385.0,318442.0,279800.0
2026-04-07 17:54:16.620743,281109,1526990161,1526992334,-1.05408,0.101504,-0.00976,-9.35375,10.63125,-9.065,42.784,1.152,52.944004,concentric,3,3.0,20180.0,300012.0,271385.0,318442.0,279800.0
2026-04-07 17:54:16.623147,281110,1526999176,1527001061,-1.05408,0.101504,-0.00976,-12.4075,10.49125,-8.70625,42.784,1.152,52.944004,concentric,3,3.0,20180.0,300012.0,271385.0,318442.0,279800.0
2026-04-07 17:54:16.626991,281111,1527013720,1527015979,-1.056032,0.093696,-0.017568,-14.07,10.4125,-8.89875,43.248,1.648,52.160004,concentric,3,3.0,20180.0,300012.0,271385.0,318442.0,279800.0
2026-04-07 17:54:16.667167,281112,1527022653,1527024680,-1.056032,0.093696,-0.017568,-14.62125,10.94625,-9.17875,43.248,1.648,52.160004,concentric,3,3.0,20180.0,300012.0,271385.0,318442.0,279800.0
2026-04-07 17:54:16.670713,281113,1527031651,1527033372,-1.050176,0.091744,-0.013664,-13.95625,10.5875,-9.730001,43.392002,1.384,52.096,concentric,3,3.0,20180.0,300012.0,271385.0,318442.0,279800.0
2026-04-07 17:54:16.673835,281114,1527040586,1527042098,-1.050176,0.091744,-0.013664,-13.53625,10.42125,-10.14125,43.392002,1.384,52.096,concentric,3,3.0,20180.0,300012.0,271385.0,318442.0,279800.0
2026-04-07 17:54:16.675836,281115,1527055074,1527057018,-1.038464,0.093696,-0.001952,-12.83625,10.10625,-10.08875,43.320004,1.904,52.136,concentric,3,3.0,20180.0,300012.0,271385.0,318442.0,279800.0
2026-04-07 17:54:16.678245,281116,1527064012,1527065751,-1.038464,0.093696,-0.001952,-11.78625,9.87875,-9.1,43.320004,1.904,52.136,concentric,3,3.0,20180.0,300012.0,271385.0,318442.0,279800.0
2026-04-07 17:54:16.708386,281117,1527072924,1527074464,-1.050176,0.093696,0.007808,-10.7975,10.10625,-9.073751,43.56,1.984,51.992,concentric,3,3.0,20180.0,300012.0,271385.0,318442.0,279800.0
2026-04-07 17:54:16.739611,281128,1527087612,1527089402,-1.050176,0.093696,0.007808,-11.36625,10.54375,-9.44125,43.56,1.984,51.992,concentric,3,3.0,20169.0,299823.0,271209.0,318204.0,279550.0
2026-04-07 17:54:16.742027,281129,1527096617,1527098138,-1.0736,0.115168,0.017568,-12.32875,10.4475,-9.80875,43.088,2.048,51.256004,concentric,3,3.0,20169.0,299823.0,271209.0,318204.0,279550.0
2026-04-07 17:54:16.744416,281130,1527105535,1527106924,-1.0736,0.115168,0.017568,-13.4225,9.5725,-9.12625,43.088,2.048,51.256004,concentric,3,3.0,20169.0,299823.0,271209.0,318204.0,279550.0
2026-04-07 17:54:16.747052,281131,1527120067,1527121851,-1.06384,0.076128,0.005856,-14.21,9.63375,-8.53125,42.888,1.608,53.664,concentric,3,3.0,20169.0,299823.0,271209.0,318204.0,279550.0
2026-04-07 17:54:16.749512,281132,1527129064,1527130576,-1.06384,0.076128,0.005856,-13.36125,9.2575,-8.54875,42.888,1.608,53.664,concentric,3,3.0,20169.0,299823.0,271209.0,318204.0,279550.0
2026-04-07 17:54:16.751921,281133,1527137994,1527139302,-1.065792,0.070272,0.013664,-10.87625,8.2425,-8.32125,42.536003,1.736,54.24,concentric,3,3.0,20169.0,299823.0,271209.0,318204.0,279550.0
2026-04-07 17:54:16.797056,281134,1527152610,1527154265,-1.048224,0.093696,0.01952,-7.105,7.0,-8.32125,42.768,2.16,51.616,concentric,3,3.0,20169.0,299823.0,271209.0,318204.0,279550.0
2026-04-07 17:54:16.799506,281135,1527161627,1527162971,-1.048224,0.093696,0.01952,-3.675,6.3175,-7.77,42.768,2.16,51.616,concentric,3,3.0,20169.0,299823.0,271209.0,318204.0,279550.0
2026-04-07 17:54:16.801936,281136,1527170560,1527171660,-1.042368,0.093696,0.021472,-3.0975,6.02875,-6.72,43.88,2.432,53.608,concentric,3,3.0,20169.0,299823.0,271209.0,318204.0,279550.0
2026-04-07 17:54:16.826875,281146,1527179876,1527180310,-1.042368,0.093696,0.021472,-3.5875,5.46,-5.48625,43.88,2.432,53.608,concentric,3,3.0,20153.0,299595.0,271011.0,317998.0,279377.0
2026-04-07 17:54:16.829401,281147,1527194905,1527195301,-1.038464,0.089792,0.021472,-4.2,5.03125,-4.5675,43.576,2.512,51.320004,concentric,3,3.0,20153.0,299595.0,271011.0,317998.0,279377.0
2026-04-07 17:54:16.831894,281148,1527204232,1527206140,-1.038464,0.089792,0.021472,-3.33375,4.80375,-4.1475,43.576,2.512,51.320004,concentric,3,3.0,20153.0,299595.0,271011.0,317998.0,279377.0
2026-04-07 17:54:16.834534,281149,1527213202,1527214842,-1.050176,0.10736,0.00976,-2.7125,4.55,-4.305,43.016003,2.08,52.824,concentric,3,3.0,20153.0,299595.0,271011.0,317998.0,279377.0
2026-04-07 17:54:16.836966,281150,1527222168,1527223547,-1.050176,0.10736,0.00976,-2.24875,4.6025,-4.89125,43.016003,2.08,52.824,concentric,3,3.0,20153.0,299595.0,271011.0,317998.0,279377.0
2026-04-07 17:54:16.900999,281151,1527236683,1527238537,-1.06384,0.115168,0.007808,-2.31875,4.71625,-4.655,43.624,1.832,52.960003,concentric,3,3.0,20153.0,299595.0,271011.0,317998.0,279377.0
2026-04-07 17:54:16.904937,281152,1527245585,1527247223,-1.06384,0.115168,0.007808,-2.37125,4.83,-4.99625,43.624,1.832,52.960003,concentric,3,3.0,20153.0,299595.0,271011.0,317998.0,279377.0
2026-04-07 17:54:16.906948,281153,1527254491,1527255906,-1.04432,0.095648,-0.007808,-2.4325,3.63125,-5.52125,43.992,1.904,51.488003,concentric,3,3.0,20153.0,299595.0,271011.0,317998.0,279377.0
2026-04-07 17:54:16.909404,281154,1527268996,1527270790,-1.04432,0.095648,-0.007808,-2.275,3.33375,-6.195,43.992,1.904,51.488003,concentric,3,3.0,20153.0,299595.0,271011.0,317998.0,279377.0
2026-04-07 17:54:16.934384,281164,1527277915,1527279885,-1.026752,0.076128,-0.01952,-1.96875,3.45625,-6.5275,43.744003,2.552,52.408,concentric,3,3.0,20213.0,300149.0,271436.0,318435.0,279710.0
2026-04-07 17:54:16.936974,281165,1527286869,1527288608,-1.026752,0.076128,-0.01952,-0.945,3.01,-6.32625,43.744003,2.552,52.408,concentric,3,3.0,20213.0,300149.0,271436.0,318435.0,279710.0
2026-04-07 17:54:16.939448,281166,1527301377,1527303547,-1.020896,0.076128,-0.01952,0.49,2.19625,-5.94125,44.056004,2.616,51.584003,concentric,3,3.0,20213.0,300149.0,271436.0,318435.0,279710.0
2026-04-07 17:54:16.941926,281167,1527310341,1527312299,-1.020896,0.12688,-0.005856,0.86625,1.72375,-5.215,44.056004,2.616,51.584003,concentric,3,3.0,20213.0,300149.0,271436.0,318435.0,279710.0
2026-04-07 17:54:16.944419,281168,1527319457,1527321015,-1.042368,0.12688,-0.005856,1.56625,0.77875,-4.0075,44.4,2.56,51.016003,concentric,3,3.0,20213.0,300149.0,271436.0,318435.0,279710.0
2026-04-07 17:54:16.946968,281169,1527328441,1527329748,-1.042368,0.12688,-0.005856,1.26,-0.035,-2.8525,44.4,2.56,51.016003,concentric,3,3.0,20213.0,300149.0,271436.0,318435.0,279710.0
2026-04-07 17:54:16.977113,281170,1527342962,1527344683,-1.056032,0.132736,-0.01952,-1.58375,0.41125,-3.28125,43.536003,2.624,52.104004,concentric,3,3.0,20213.0,300149.0,271436.0,318435.0,279710.0
2026-04-07 17:54:16.980852,281171,1527351962,1527353368,-1.059936,0.093696,-0.027328,-3.675,-0.28875,-3.4825,43.872,2.512,51.208004,concentric,3,3.0,20213.0,300149.0,271436.0,318435.0,279710.0
2026-04-07 17:54:16.983310,281172,1527360865,1527362032,-1.059936,0.093696,-0.027328,-3.045,-1.05875,-3.73625,43.872,2.512,51.208004,concentric,3,3.0,20213.0,300149.0,271436.0,318435.0,279710.0
2026-04-07 17:54:16.987051,281173,1527375322,1527377021,-1.061888,0.095648,-0.015616,0.2275,-0.98875,-4.54125,43.56,2.344,52.304,concentric,3,3.0,20213.0,300149.0,271436.0,318435.0,279710.0
2026-04-07 17:54:17.014530,281184,1527384421,1527385847,-1.061888,0.095648,-0.015616,3.89375,-1.645,-5.46875,43.56,2.344,52.304,concentric,3,3.0,20213.0,300119.0,271421.0,318391.0,279645.0
2026-04-07 17:54:17.016914,281185,1527393469,1527394580,-1.048224,0.099552,-0.017568,6.88625,-1.9775,-5.92375,43.928,1.976,52.392002,concentric,3,3.0,20213.0,300119.0,271421.0,318391.0,279645.0
2026-04-07 17:54:17.022046,281186,1527407997,1527409469,-1.048224,0.099552,-0.017568,7.525,-2.31875,-5.24125,43.928,1.976,52.392002,concentric,3,3.0,20213.0,300119.0,271421.0,318391.0,279645.0
2026-04-07 17:54:17.028283,281187,1527416924,1527418166,-1.06384,0.109312,-0.003904,6.685,-2.16125,-4.6725,43.888,1.72,52.184002,concentric,3,3.0,20213.0,300119.0,271421.0,318391.0,279645.0
2026-04-07 17:54:17.059495,281188,1527425850,1527426902,-1.06384,0.109312,-0.003904,5.20625,-1.9775,-4.29625,43.888,1.72,52.184002,concentric,3,3.0,20213.0,300119.0,271421.0,318391.0,279645.0
2026-04-07 17:54:17.061694,281189,1527434768,1527435607,-1.069696,0.111264,-0.011712,4.235,-1.49625,-4.025,43.448,1.928,52.56,concentric,3,3.0,20213.0,300119.0,271421.0,318391.0,279645.0
2026-04-07 17:54:17.066512,281190,1527449214,1527450473,-1.069696,0.111264,-0.011712,3.5175,-1.715,-3.75375,43.448,1.928,52.56,concentric,3,3.0,20213.0,300119.0,271421.0,318391.0,279645.0
2026-04-07 17:54:17.101997,281191,1527458197,1527459258,-1.087264,0.134688,-0.003904,3.61375,-1.61,-4.20875,43.648003,2.424,53.08,concentric,3,3.0,20213.0,300119.0,271421.0,318391.0,279645.0
2026-04-07 17:54:17.104417,281192,1527467128,1527467950,-1.087264,0.134688,-0.003904,3.5525,-1.6975,-4.3225,43.648003,2.424,53.08,concentric,3,3.0,20213.0,300119.0,271421.0,318391.0,279645.0
2026-04-07 17:54:17.129392,281202,1527481881,1527483230,-1.08336,0.11712,-0.017568,2.84375,-0.91,-4.38375,43.416,2.344,52.472004,concentric,3,3.0,20183.0,299915.0,271230.0,318085.0,279343.0
2026-04-07 17:54:17.131915,281203,1527490901,1527491950,-1.08336,0.11712,-0.017568,2.54625,-0.65625,-4.73375,43.416,2.344,52.472004,concentric,3,3.0,20183.0,299915.0,271230.0,318085.0,279343.0
2026-04-07 17:54:17.134365,281204,1527499846,1527500769,-1.059936,0.08784,-0.017568,3.38625,-0.63875,-4.7425,43.384003,2.312,52.304,concentric,3,3.0,20183.0,299915.0,271230.0,318085.0,279343.0
2026-04-07 17:54:17.136964,281205,1527514375,1527515734,-1.071648,0.095648,-0.005856,4.2875,-0.1925,-4.78625,43.392002,1.304,53.928,concentric,3,3.0,20183.0,299915.0,271230.0,318085.0,279343.0
2026-04-07 17:54:17.139629,281206,1527523307,1527524457,-1.071648,0.095648,-0.005856,5.0225,-0.00875,-4.5325,43.392002,1.304,53.928,concentric,3,3.0,20183.0,299915.0,271230.0,318085.0,279343.0
2026-04-07 17:54:17.144510,281207,1527532252,1527533159,-1.081408,0.12688,-0.003904,5.85375,-0.315,-3.50875,43.216003,1.784,53.56,concentric,3,3.0,20183.0,299915.0,271230.0,318085.0,279343.0
2026-04-07 17:54:17.174636,281208,1527546712,1527548133,-1.081408,0.12688,-0.003904,5.1975,-0.8225,-2.275,43.216003,1.784,53.56,concentric,3,3.0,20183.0,299915.0,271230.0,318085.0,279343.0
2026-04-07 17:54:17.178202,281209,1527555618,1527556882,-1.09312,0.130784,-0.005856,3.8675,-0.98875,-1.42625,43.52,2.192,53.000004,concentric,3,3.0,20183.0,299915.0,271230.0,318085.0,279343.0
2026-04-07 17:54:17.180691,281210,1527564538,1527565623,-1.09312,0.130784,-0.005856,1.89875,-1.4525,-1.84625,43.52,2.192,53.000004,concentric,3,3.0,20183.0,299915.0,271230.0,318085.0,279343.0
2026-04-07 17:54:17.185701,281211,1527573431,1527574319,-1.120448,0.105408,-0.021472,0.98875,-1.82,-2.51125,43.744003,1.64,51.072002,concentric,3,3.0,20183.0,299915.0,271230.0,318085.0,279343.0
2026-04-07 17:54:17.214442,281221,1527587976,1527589360,-1.120448,0.105408,-0.021472,1.89875,-2.38,-3.465,43.744003,1.64,51.072002,concentric,3,3.0,20083.0,299001.0,270491.0,317314.0,278707.0
2026-04-07 17:54:17.216924,281222,1527596902,1527598079,-1.1224,0.0976,-0.023424,4.06875,-3.07125,-4.305,43.536003,1.664,54.296,concentric,3,3.0,20083.0,299001.0,270491.0,317314.0,278707.0
2026-04-07 17:54:17.219680,281223,1527605855,1527606840,-1.1224,0.0976,-0.023424,6.41375,-3.84125,-4.8825,43.536003,1.664,54.296,concentric,3,3.0,20083.0,299001.0,270491.0,317314.0,278707.0
2026-04-07 17:54:17.249676,281224,1527620365,1527621758,-1.120448,0.113216,-0.001952,6.895,-4.26125,-5.005,42.68,0.872,55.408,concentric,3,3.0,20083.0,299001.0,270491.0,317314.0,278707.0
2026-04-07 17:54:17.253285,281225,1527629286,1527630449,-1.120448,0.113216,-0.001952,5.83625,-5.04875,-5.215,42.68,0.872,55.408,concentric,3,3.0,20083.0,299001.0,270491.0,317314.0,278707.0
2026-04-07 17:54:17.255599,281226,1527638194,1527639147,-1.104832,0.113216,0.005856,3.2725,-5.18875,-4.76875,42.752003,1.752,53.456,concentric,3,3.0,20083.0,299001.0,270491.0,317314.0,278707.0
2026-04-07 17:54:17.285840,281227,1527652746,1527654029,-1.118496,0.101504,0.011712,0.42875,-5.22375,-4.9175,43.568,1.592,53.160004,concentric,3,3.0,20083.0,299001.0,270491.0,317314.0,278707.0
2026-04-07 17:54:17.289418,281228,1527661709,1527662749,-1.118496,0.101504,0.011712,-0.77875,-4.34875,-4.4275,43.568,1.592,53.160004,concentric,3,3.0,20083.0,299001.0,270491.0,317314.0,278707.0
2026-04-07 17:54:17.291950,281229,1527670616,1527671442,-1.118496,0.101504,0.011712,-0.1575,-4.725,-4.05125,43.568,1.592,53.160004,concentric,3,3.0,20083.0,299001.0,270491.0,317314.0,278707.0
2026-04-07 17:54:17.319451,281240,1527685442,1527686389,-1.120448,0.132736,0.007808,-0.5075,-4.94375,-4.095,43.24,1.536,53.296,concentric,3,3.0,19903.0,297349.0,269119.0,315810.0,277310.0
2026-04-07 17:54:17.321951,281241,1527694477,1527695211,-1.124352,0.124928,-0.013664,-1.4875,-4.24375,-3.96375,42.336002,1.472,55.056004,concentric,3,3.0,19903.0,297349.0,269119.0,315810.0,277310.0
2026-04-07 17:54:17.324471,281242,1527703866,1527706034,-1.124352,0.124928,-0.013664,-3.045,-4.445,-3.29,42.336002,1.472,55.056004,concentric,3,3.0,19903.0,297349.0,269119.0,315810.0,277310.0
2026-04-07 17:54:17.327007,281243,1527712816,1527714740,-1.120448,0.099552,0.003904,-3.57875,-4.50625,-3.535,42.672,1.704,54.752003,concentric,3,3.0,19903.0,297349.0,269119.0,315810.0,277310.0
2026-04-07 17:54:17.357113,281244,1527727340,1527729640,-1.120448,0.099552,0.003904,-2.0475,-4.0075,-3.99875,42.672,1.704,54.752003,concentric,3,3.0,19903.0,297349.0,269119.0,315810.0,277310.0
2026-04-07 17:54:17.360627,281245,1527736263,1527738317,-1.104832,0.105408,0.011712,0.04375,-4.655,-4.13,43.568,2.12,53.736004,concentric,3,3.0,19903.0,297349.0,269119.0,315810.0,277310.0
2026-04-07 17:54:17.363189,281246,1527745192,1527747038,-1.104832,0.105408,0.011712,1.5575,-5.18875,-4.795,43.568,2.12,53.736004,concentric,3,3.0,19903.0,297349.0,269119.0,315810.0,277310.0
2026-04-07 17:54:17.398552,281247,1527759824,1527761947,-1.085312,0.10736,0.021472,2.2575,-5.3025,-4.235,42.640003,1.976,54.664,concentric,3,3.0,19903.0,297349.0,269119.0,315810.0,277310.0
2026-04-07 17:54:17.401895,281248,1527768756,1527770654,-1.085312,0.10736,0.021472,1.785,-5.03125,-3.3775,42.640003,1.976,54.664,concentric,3,3.0,19903.0,297349.0,269119.0,315810.0,277310.0
2026-04-07 17:54:17.404434,281249,1527777713,1527779346,-1.075552,0.0976,0.015616,0.86625,-4.61125,-2.765,42.592003,1.984,53.896004,concentric,3,3.0,19903.0,297349.0,269119.0,315810.0,277310.0
2026-04-07 17:54:17.436113,281259,1527786830,1527788093,-1.075552,0.0976,0.015616,0.175,-3.745,-2.49375,42.592003,1.984,53.896004,concentric,3,3.0,19923.0,297481.0,269243.0,315954.0,277442.0
2026-04-07 17:54:17.439464,281260,1527801374,1527803058,-1.069696,0.105408,0.031232,0.0175,-3.6925,-2.35375,43.176003,1.8,54.304,concentric,3,3.0,19923.0,297481.0,269243.0,315954.0,277442.0
2026-04-07 17:54:17.446862,281261,1527810410,1527811794,-1.069696,0.105408,0.031232,0.39375,-3.36,-2.17,43.176003,1.8,54.304,concentric,3,3.0,19923.0,297481.0,269243.0,315954.0,277442.0
2026-04-07 17:54:17.449372,281262,1527819416,1527820614,-1.065792,0.105408,0.02928,0.175,-3.4825,-2.02125,42.336002,1.304,54.144,concentric,3,3.0,19923.0,297481.0,269243.0,315954.0,277442.0
2026-04-07 17:54:17.451945,281263,1527833934,1527835539,-1.046272,0.083936,0.025376,-0.1575,-2.87875,-1.74125,42.896004,1.736,55.912003,concentric,3,3.0,19923.0,297481.0,269243.0,315954.0,277442.0
2026-04-07 17:54:17.456860,281264,1527842931,1527844294,-1.046272,0.083936,0.025376,-0.9975,-2.52,-1.53125,42.896004,1.736,55.912003,concentric,3,3.0,19923.0,297481.0,269243.0,315954.0,277442.0
2026-04-07 17:54:17.487218,281265,1527851920,1527853031,-1.046272,0.083936,0.025376,-0.9975,-2.1875,-1.7675,42.896004,1.736,55.912003,concentric,3,3.0,19923.0,297481.0,269243.0,315954.0,277442.0
2026-04-07 17:54:17.490658,281266,1527860878,1527861740,-1.040416,0.056608,0.021472,-1.0675,-2.2225,-2.2225,42.768,1.448,54.904003,concentric,3,3.0,19923.0,297481.0,269243.0,315954.0,277442.0
2026-04-07 17:54:17.493186,281267,1527875389,1527876621,-1.0248,0.083936,0.025376,1.07625,-3.66625,-2.345,42.864002,1.032,54.296,concentric,3,3.0,19923.0,297481.0,269243.0,315954.0,277442.0
2026-04-07 17:54:17.518133,281277,1527884846,1527885486,-1.0248,0.083936,0.025376,3.49125,-5.2325,-2.0475,42.864002,1.032,54.296,concentric,3,3.0,19809.0,296648.0,268634.0,315392.0,276895.0
2026-04-07 17:54:17.520641,281278,1527894242,1527896406,-1.028704,0.128832,0.050752,4.20875,-4.87375,-1.88125,42.448,1.24,56.592003,concentric,3,3.0,19809.0,296648.0,268634.0,315392.0,276895.0
2026-04-07 17:54:17.523133,281279,1527908799,1527909273,-1.028704,0.128832,0.050752,3.00125,-4.6025,-1.42625,42.448,1.24,56.592003,concentric,3,3.0,19809.0,296648.0,268634.0,315392.0,276895.0
2026-04-07 17:54:17.553509,281280,1527918239,1527920123,-1.028704,0.121024,0.0488,-0.58625,-4.0775,-1.785,41.904003,1.36,56.664,concentric,3,3.0,19809.0,296648.0,268634.0,315392.0,276895.0
2026-04-07 17:54:17.557546,281281,1527927225,1527928819,-1.028704,0.121024,0.0488,-3.815,-3.22,-2.37125,41.904003,1.36,56.664,concentric,3,3.0,19809.0,296648.0,268634.0,315392.0,276895.0
2026-04-07 17:54:17.559395,281282,1527936140,1527937542,-1.04432,0.121024,0.046848,-4.6025,-2.6075,-4.2,42.600002,1.384,54.744003,concentric,3,3.0,19809.0,296648.0,268634.0,315392.0,276895.0
2026-04-07 17:54:17.561925,281283,1527950634,1527952458,-1.04432,0.121024,0.046848,-4.71625,-2.1175,-5.76625,42.600002,1.384,54.744003,concentric,3,3.0,19809.0,296648.0,268634.0,315392.0,276895.0
2026-04-07 17:54:17.592161,281284,1527959616,1527961184,-1.05408,0.122976,0.05856,-5.1625,-1.81125,-6.83375,42.688004,1.344,54.528004,concentric,3,3.0,19809.0,296648.0,268634.0,315392.0,276895.0
2026-04-07 17:54:17.595816,281285,1527968533,1527969881,-1.05408,0.122976,0.05856,-7.67375,-1.05875,-7.30625,42.688004,1.344,54.528004,concentric,3,3.0,19809.0,296648.0,268634.0,315392.0,276895.0
2026-04-07 17:54:17.623258,281296,1527983023,1527984738,-1.069696,0.103456,0.03904,-9.40625,-0.0175,-8.05875,42.424004,1.752,54.488003,concentric,3,3.0,19529.0,294602.0,267149.0,313982.0,275550.0
2026-04-07 17:54:17.625695,281297,1527992427,1527993540,-1.069696,0.103456,0.03904,-9.4325,0.18375,-8.085,42.424004,1.752,54.488003,concentric,3,3.0,19529.0,294602.0,267149.0,313982.0,275550.0
2026-04-07 17:54:17.628208,281298,1528001517,1528002313,-1.077504,0.089792,0.040992,-8.2425,-0.21875,-9.05625,42.24,1.76,55.896004,concentric,3,3.0,19529.0,294602.0,267149.0,313982.0,275550.0
2026-04-07 17:54:17.630663,281299,1528010453,1528011018,-1.077504,0.089792,0.040992,-8.89875,0.37625,-10.29875,42.24,1.76,55.896004,concentric,3,3.0,19529.0,294602.0,267149.0,313982.0,275550.0
2026-04-07 17:54:17.639492,281300,1528025224,1528025977,-1.069696,0.103456,0.052704,-10.01,0.67375,-9.63375,42.480003,1.624,55.816,concentric,3,3.0,19529.0,294602.0,267149.0,313982.0,275550.0
2026-04-07 17:54:17.695869,281301,1528034712,1528036790,-1.081408,0.111264,0.060512,-12.06625,0.93625,-8.67125,43.016003,1.784,54.120003,concentric,3,3.0,19529.0,294602.0,267149.0,313982.0,275550.0
2026-04-07 17:54:17.699667,281302,1528043639,1528045477,-1.081408,0.111264,0.060512,-14.14875,0.9625,-7.98875,43.016003,1.784,54.120003,concentric,3,3.0,19529.0,294602.0,267149.0,313982.0,275550.0
2026-04-07 17:54:17.705792,281303,1528052588,1528054147,-1.081408,0.111264,0.060512,-15.2425,1.04125,-6.7725,43.016003,1.784,54.120003,concentric,3,3.0,19529.0,294602.0,267149.0,313982.0,275550.0
2026-04-07 17:54:17.708179,281304,1528067128,1528069044,-1.0736,0.124928,0.05856,-16.616251,1.12,-6.5975,42.072002,2.664,54.776,concentric,3,3.0,19529.0,294602.0,267149.0,313982.0,275550.0
2026-04-07 17:54:17.710667,281305,1528076029,1528077747,-1.077504,0.11712,0.05856,-18.05125,1.5575,-6.6325,41.984,2.464,54.440002,concentric,3,3.0,19529.0,294602.0,267149.0,313982.0,275550.0
2026-04-07 17:54:17.741871,281315,1528085238,1528086582,-1.077504,0.11712,0.05856,-19.95,1.995,-6.83375,41.984,2.464,54.440002,concentric,3,3.0,19393.0,293428.0,266299.0,313126.0,274732.0
2026-04-07 17:54:17.744589,281316,1528099780,1528101496,-1.0736,0.115168,0.03904,-21.0525,2.4675,-7.4025,42.168003,2.52,55.624004,concentric,3,3.0,19393.0,293428.0,266299.0,313126.0,274732.0
2026-04-07 17:54:17.746967,281317,1528108760,1528110290,-1.0736,0.115168,0.03904,-21.3675,2.00375,-7.76125,42.168003,2.52,55.624004,concentric,3,3.0,19393.0,293428.0,266299.0,313126.0,274732.0
2026-04-07 17:54:17.749375,281318,1528117696,1528118976,-1.056032,0.103456,0.021472,-21.88375,1.8025,-8.295,41.864002,3.144,54.384003,concentric,3,3.0,19393.0,293428.0,266299.0,313126.0,274732.0
2026-04-07 17:54:17.751920,281319,1528132226,1528133929,-1.056032,0.103456,0.021472,-22.2075,2.1525,-9.17,41.864002,3.144,54.384003,concentric,3,3.0,19393.0,293428.0,266299.0,313126.0,274732.0
2026-04-07 17:54:17.754413,281320,1528141228,1528142655,-1.059936,0.093696,0.033184,-21.77,1.96,-9.40625,41.912003,2.632,55.640003,concentric,3,3.0,19393.0,293428.0,266299.0,313126.0,274732.0
2026-04-07 17:54:17.784604,281321,1528150216,1528151406,-1.059936,0.093696,0.033184,-21.07875,1.89875,-9.30125,41.912003,2.632,55.640003,concentric,3,3.0,19393.0,293428.0,266299.0,313126.0,274732.0
2026-04-07 17:54:17.788219,281322,1528159120,1528160146,-1.057984,0.10736,0.03904,-20.06375,1.5925,-9.03875,42.608,3.288,54.944004,concentric,3,3.0,19393.0,293428.0,266299.0,313126.0,274732.0
2026-04-07 17:54:17.790670,281323,1528173580,1528175043,-1.057984,0.10736,0.03904,-19.460001,1.58375,-8.75,42.608,3.288,54.944004,concentric,3,3.0,19393.0,293428.0,266299.0,313126.0,274732.0
2026-04-07 17:54:17.795680,281324,1528182519,1528183725,-1.048224,0.109312,0.062464,-20.57125,0.7,-8.5225,42.52,3.728,54.680004,concentric,3,3.0,19393.0,293428.0,266299.0,313126.0,274732.0
2026-04-07 17:54:17.820632,281334,1528191514,1528192458,-1.048224,0.109312,0.062464,-21.63875,0.46375,-7.4725,42.52,3.728,54.680004,concentric,3,3.0,19312.0,292718.0,265766.0,312630.0,274283.0
2026-04-07 17:54:17.825713,281335,1528206041,1528207419,-1.057984,0.099552,0.05856,-23.178751,0.7175,-6.8775,42.384003,3.944,54.376003,concentric,3,3.0,19312.0,292718.0,265766.0,312630.0,274283.0
2026-04-07 17:54:17.828179,281336,1528214986,1528216159,-1.048224,0.095648,0.046848,-23.8525,1.12875,-6.755,42.224003,3.992,53.688004,concentric,3,3.0,19312.0,292718.0,265766.0,312630.0,274283.0
2026-04-07 17:54:17.859483,281337,1528223909,1528224857,-1.048224,0.095648,0.046848,-25.2175,1.30375,-7.14875,42.224003,3.992,53.688004,concentric,3,3.0,19312.0,292718.0,265766.0,312630.0,274283.0
2026-04-07 17:54:17.861617,281338,1528238388,1528239747,-1.057984,0.103456,0.02928,-26.18875,1.2425,-7.4375,42.488003,4.304,53.72,concentric,3,3.0,19312.0,292718.0,265766.0,312630.0,274283.0
2026-04-07 17:54:17.866245,281339,1528247283,1528248452,-1.057984,0.103456,0.02928,-26.11875,1.81125,-7.4025,42.488003,4.304,53.72,concentric,3,3.0,19312.0,292718.0,265766.0,312630.0,274283.0
2026-04-07 17:54:17.868690,281340,1528256169,1528257165,-1.052128,0.103456,0.042944,-25.27875,2.0475,-7.18375,41.848003,4.272,55.384003,concentric,3,3.0,19312.0,292718.0,265766.0,312630.0,274283.0
2026-04-07 17:54:17.897203,281341,1528270647,1528272071,-1.052128,0.103456,0.042944,-23.765,2.38,-7.13125,41.848003,4.272,55.384003,concentric,3,3.0,19312.0,292718.0,265766.0,312630.0,274283.0
2026-04-07 17:54:17.901683,281342,1528279556,1528280751,-1.052128,0.095648,0.050752,-22.68,2.19625,-7.2975,42.264004,4.496,53.688004,concentric,3,3.0,19312.0,292718.0,265766.0,312630.0,274283.0
2026-04-07 17:54:17.925756,281352,1528288720,1528289738,-1.052128,0.095648,0.050752,-21.9975,2.6425,-7.09625,42.264004,4.496,53.688004,concentric,3,3.0,19252.0,292247.0,265415.0,312365.0,274071.0
2026-04-07 17:54:17.930025,281353,1528297679,1528298478,-1.04432,0.085888,0.05856,-20.93875,2.65125,-7.035,42.640003,4.856,54.608,concentric,3,3.0,19252.0,292247.0,265415.0,312365.0,274071.0
2026-04-07 17:54:17.932469,281354,1528312636,1528313443,-1.04432,0.085888,0.05856,-19.845,3.36875,-6.8425,42.640003,4.856,54.608,concentric,3,3.0,19252.0,292247.0,265415.0,312365.0,274071.0
2026-04-07 17:54:17.934042,281355,1528321555,1528322183,-1.048224,0.101504,0.054656,-18.9175,4.06,-6.4925,42.376003,5.208,55.208004,concentric,3,3.0,19252.0,292247.0,265415.0,312365.0,274071.0
2026-04-07 17:54:17.964782,281356,1528330877,1528332952,-1.048224,0.101504,0.054656,-18.94375,4.2875,-5.59125,42.376003,5.208,55.208004,concentric,3,3.0,19252.0,292247.0,265415.0,312365.0,274071.0
2026-04-07 17:54:18.004288,281357,1528345354,1528345795,-1.013088,0.072224,0.074176,-17.38625,4.66375,-5.32,42.624,5.288,53.480003,concentric,3,3.0,19252.0,292247.0,265415.0,312365.0,274071.0
2026-04-07 17:54:18.006573,281358,1528354637,1528356507,-1.013088,0.072224,0.074176,-15.88125,3.85875,-6.23,42.624,5.288,53.480003,concentric,3,3.0,19252.0,292247.0,265415.0,312365.0,274071.0
2026-04-07 17:54:18.011230,281359,1528363603,1528365198,-1.036512,0.138592,0.05856,-12.4425,3.7975,-6.615,42.424004,5.752,54.016003,concentric,3,3.0,19252.0,292247.0,265415.0,312365.0,274071.0
2026-04-07 17:54:18.014632,281360,1528372557,1528373901,-1.036512,0.138592,0.05856,-17.31625,3.89375,-6.11625,42.424004,5.752,54.016003,concentric,3,3.0,19252.0,292247.0,265415.0,312365.0,274071.0
2026-04-07 17:54:18.043725,281371,1528387540,1528388820,-1.046272,0.093696,0.035136,-22.19,4.8825,-5.9675,42.904003,5.56,53.712,concentric,3,3.0,19104.0,291038.0,264537.0,311588.0,273419.0
2026-04-07 17:54:18.045494,281372,1528396487,1528397539,-1.048224,0.066368,0.021472,-20.7025,4.52375,-4.57625,42.584003,5.92,53.248,concentric,3,3.0,19104.0,291038.0,264537.0,311588.0,273419.0
2026-04-07 17:54:18.047062,281373,1528405415,1528406258,-1.048224,0.066368,0.021472,-15.65375,4.01625,-4.8825,42.584003,5.92,53.248,concentric,3,3.0,19104.0,291038.0,264537.0,311588.0,273419.0
2026-04-07 17:54:18.050355,281374,1528420023,1528421174,-1.05408,0.070272,0.07808,-10.29,4.1125,-5.2325,43.08,5.328,53.72,concentric,3,3.0,19104.0,291038.0,264537.0,311588.0,273419.0
2026-04-07 17:54:18.052819,281375,1528428975,1528429890,-1.05408,0.070272,0.07808,-5.3375,4.5325,-6.475,43.08,5.328,53.72,concentric,3,3.0,19104.0,291038.0,264537.0,311588.0,273419.0
2026-04-07 17:54:18.054359,281376,1528437911,1528438636,-1.056032,0.0976,0.081984,-3.66625,5.005,-5.78375,42.848003,5.872,53.248,concentric,3,3.0,19104.0,291038.0,264537.0,311588.0,273419.0
2026-04-07 17:54:18.060234,281377,1528447330,1528449464,-1.056032,0.0976,0.081984,-5.66125,4.83875,-5.03125,42.848003,5.872,53.248,concentric,3,3.0,19104.0,291038.0,264537.0,311588.0,273419.0
2026-04-07 17:54:18.089569,281378,1528461825,1528462314,-1.069696,0.072224,0.060512,-9.80875,5.5825,-4.22625,42.760002,5.896,53.864002,concentric,3,3.0,19104.0,291038.0,264537.0,311588.0,273419.0
2026-04-07 17:54:18.093233,281379,1528471243,1528473076,-1.069696,0.072224,0.060512,-12.11875,5.7925,-4.27875,42.760002,5.896,53.864002,concentric,3,3.0,19104.0,291038.0,264537.0,311588.0,273419.0
2026-04-07 17:54:18.095670,281380,1528480196,1528481802,-1.06384,0.062464,0.050752,-11.235,6.53625,-4.06875,42.88,6.088,52.504,concentric,3,3.0,19104.0,291038.0,264537.0,311588.0,273419.0
2026-04-07 17:54:18.120590,281390,1528489817,1528490911,-1.06384,0.062464,0.050752,-7.2975,5.495,-3.92,42.88,6.088,52.504,concentric,3,3.0,19244.0,292340.0,265638.0,312832.0,274534.0
2026-04-07 17:54:18.123150,281391,1528504412,1528505858,-1.06384,0.072224,0.054656,-3.0625,6.15125,-3.955,42.376003,5.584,55.744003,concentric,3,3.0,19244.0,292340.0,265638.0,312832.0,274534.0
2026-04-07 17:54:18.125708,281392,1528513374,1528514562,-1.06384,0.072224,0.054656,-0.13125,6.6325,-4.13,42.376003,5.584,55.744003,concentric,3,3.0,19244.0,292340.0,265638.0,312832.0,274534.0
2026-04-07 17:54:18.164583,281393,1528522352,1528523267,-1.067744,0.085888,0.050752,1.84625,6.16875,-4.24375,42.288002,5.784,54.184002,concentric,3,3.0,19244.0,292340.0,265638.0,312832.0,274534.0
2026-04-07 17:54:18.168101,281394,1528536848,1528538136,-1.067744,0.101504,0.056608,3.3775,5.565,-4.0425,42.896004,5.896,54.184002,concentric,3,3.0,19244.0,292340.0,265638.0,312832.0,274534.0
2026-04-07 17:54:18.174381,281395,1528545792,1528546857,-1.067744,0.101504,0.056608,3.98125,4.89125,-3.85875,42.896004,5.896,54.184002,concentric,3,3.0,19244.0,292340.0,265638.0,312832.0,274534.0
2026-04-07 17:54:18.176849,281396,1528554683,1528555549,-1.067744,0.101504,0.056608,4.20875,4.5325,-4.43625,42.896004,5.896,54.184002,concentric,3,3.0,19244.0,292340.0,265638.0,312832.0,274534.0
2026-04-07 17:54:18.182020,281397,1528569171,1528570440,-1.057984,0.074176,0.052704,5.3375,4.655,-5.50375,43.048,5.768,53.08,concentric,3,3.0,19244.0,292340.0,265638.0,312832.0,274534.0
2026-04-07 17:54:18.212171,281398,1528578104,1528579171,-1.071648,0.0976,0.060512,6.2825,4.515,-6.23,43.144,6.272,52.592003,concentric,3,3.0,19244.0,292340.0,265638.0,312832.0,274534.0
2026-04-07 17:54:18.238104,281408,1528587088,1528588012,-1.071648,0.0976,0.060512,8.79375,4.7775,-6.2125,43.144,6.272,52.592003,concentric,3,3.0,19227.0,292269.0,265606.0,312849.0,274591.0
2026-04-07 17:54:18.240653,281409,1528596186,1528596838,-1.071648,0.091744,0.052704,9.66875,4.43625,-6.43125,43.144,6.272,52.592003,concentric,3,3.0,19227.0,292269.0,265606.0,312849.0,274591.0
2026-04-07 17:54:18.243137,281410,1528611180,1528611794,-1.057984,0.091744,0.052704,8.9425,4.3925,-6.37,43.472004,5.656,53.504,concentric,3,3.0,19227.0,292269.0,265606.0,312849.0,274591.0
2026-04-07 17:54:18.245633,281411,1528620420,1528622582,-1.067744,0.064416,0.0488,7.65625,4.78625,-5.99375,43.160004,5.024,54.696003,concentric,3,3.0,19227.0,292269.0,265606.0,312849.0,274591.0
2026-04-07 17:54:18.248171,281412,1528629410,1528631319,-1.067744,0.064416,0.0488,8.16375,5.18875,-5.53875,43.160004,5.024,54.696003,concentric,3,3.0,19227.0,292269.0,265606.0,312849.0,274591.0
2026-04-07 17:54:18.255679,281413,1528643960,1528646276,-1.065792,0.064416,0.054656,9.17,5.24125,-5.705,43.112003,5.12,53.552002,concentric,3,3.0,19227.0,292269.0,265606.0,312849.0,274591.0
2026-04-07 17:54:18.299654,281414,1528652918,1528654986,-1.065792,0.064416,0.054656,10.955,5.04875,-5.06625,43.112003,5.12,53.552002,concentric,3,3.0,19227.0,292269.0,265606.0,312849.0,274591.0
2026-04-07 17:54:18.303199,281415,1528661953,1528663699,-1.06384,0.095648,0.064416,12.34625,4.75125,-4.45375,42.688004,5.072,53.552002,concentric,3,3.0,19227.0,292269.0,265606.0,312849.0,274591.0
2026-04-07 17:54:18.305649,281416,1528670898,1528672412,-1.06384,0.095648,0.064416,11.87375,4.34875,-3.885,42.688004,5.072,53.552002,concentric,3,3.0,19227.0,292269.0,265606.0,312849.0,274591.0
2026-04-07 17:54:18.333121,281427,1528685459,1528687678,-1.061888,0.101504,0.066368,10.71,3.98125,-3.73625,43.208,4.968,53.888004,concentric,3,3.0,19229.0,292480.0,265808.0,313103.0,274812.0
2026-04-07 17:54:18.335633,281428,1528694423,1528696382,-1.061888,0.101504,0.066368,8.785,4.27,-3.9375,43.208,4.968,53.888004,concentric,3,3.0,19229.0,292480.0,265808.0,313103.0,274812.0
2026-04-07 17:54:18.338286,281429,1528703530,1528705114,-1.06384,0.083936,0.056608,7.70875,4.445,-4.235,43.312,5.136,53.976,concentric,3,3.0,19229.0,292480.0,265808.0,313103.0,274812.0
2026-04-07 17:54:18.340725,281430,1528718084,1528720126,-1.065792,0.080032,0.050752,7.42875,4.82125,-4.8125,43.016003,5.112001,54.312004,concentric,3,3.0,19229.0,292480.0,265808.0,313103.0,274812.0
2026-04-07 17:54:18.343221,281431,1528727037,1528728904,-1.065792,0.080032,0.050752,7.91875,4.82125,-5.1975,43.016003,5.112001,54.312004,concentric,3,3.0,19229.0,292480.0,265808.0,313103.0,274812.0
2026-04-07 17:54:18.348140,281432,1528735984,1528737633,-1.065792,0.080032,0.050752,9.7125,4.78625,-5.20625,43.016003,5.112001,54.312004,concentric,3,3.0,19229.0,292480.0,265808.0,313103.0,274812.0
2026-04-07 17:54:18.380924,281433,1528750499,1528752561,-1.06384,0.081984,0.050752,11.445,4.69875,-5.20625,43.280003,4.648,52.448,concentric,3,3.0,19229.0,292480.0,265808.0,313103.0,274812.0
2026-04-07 17:54:18.384355,281434,1528759424,1528761257,-1.079456,0.089792,0.056608,12.18875,4.3225,-5.495,43.4,5.232,53.88,concentric,3,3.0,19229.0,292480.0,265808.0,313103.0,274812.0
2026-04-07 17:54:18.386910,281435,1528768349,1528769940,-1.079456,0.089792,0.056608,12.01375,4.0075,-5.27625,43.4,5.232,53.88,concentric,3,3.0,19229.0,292480.0,265808.0,313103.0,274812.0
2026-04-07 17:54:18.389399,281436,1528777262,1528778685,-1.075552,0.076128,0.056608,11.2875,4.3225,-5.08375,43.4,5.232,54.952003,concentric,3,3.0,19229.0,292480.0,265808.0,313103.0,274812.0
2026-04-07 17:54:18.451979,281446,1528791925,1528793613,-1.075552,0.076128,0.056608,10.3075,4.73375,-4.69,43.056004,4.648,54.952003,concentric,3,3.0,19211.0,292205.0,265615.0,312951.0,274693.0
2026-04-07 17:54:18.456242,281447,1528800895,1528802382,-1.089216,0.0976,0.074176,10.22875,5.08375,-5.27625,43.472004,4.344,54.368004,concentric,3,3.0,19211.0,292205.0,265615.0,312951.0,274693.0
2026-04-07 17:54:18.457971,281448,1528809801,1528811057,-1.089216,0.0976,0.074176,9.275,5.10125,-4.97875,43.472004,4.344,54.368004,concentric,3,3.0,19211.0,292205.0,265615.0,312951.0,274693.0
2026-04-07 17:54:18.459612,281449,1528824315,1528825980,-1.087264,0.105408,0.072224,7.4025,5.39,-4.865,43.176003,3.984,53.608,concentric,3,3.0,19211.0,292205.0,265615.0,312951.0,274693.0
2026-04-07 17:54:18.463653,281450,1528833276,1528834761,-1.087264,0.105408,0.072224,4.27875,5.32875,-4.3225,43.176003,3.984,53.608,concentric,3,3.0,19211.0,292205.0,265615.0,312951.0,274693.0
2026-04-07 17:54:18.465287,281451,1528842236,1528843470,-1.09312,0.080032,0.052704,1.98625,6.02875,-4.095,42.992,4.592,55.384003,concentric,3,3.0,19211.0,292205.0,265615.0,312951.0,274693.0
2026-04-07 17:54:18.471136,281452,1528856682,1528858402,-1.09312,0.080032,0.052704,0.79625,6.39625,-4.15625,42.992,4.592,55.384003,concentric,3,3.0,19211.0,292205.0,265615.0,312951.0,274693.0
2026-04-07 17:54:18.499763,281453,1528865637,1528867099,-1.098976,0.072224,0.05856,1.9425,6.825,-4.2175,43.128002,4.416,55.464005,concentric,3,3.0,19211.0,292205.0,265615.0,312951.0,274693.0
2026-04-07 17:54:18.503495,281454,1528874575,1528875822,-1.098976,0.072224,0.05856,2.37125,6.39625,-3.64,43.128002,4.416,55.464005,concentric,3,3.0,19211.0,292205.0,265615.0,312951.0,274693.0
2026-04-07 17:54:18.531822,281464,1528889425,1528891004,-1.106784,0.095648,0.05856,0.805,6.3175,-3.07125,43.600002,4.712,54.304,concentric,3,3.0,19109.0,291482.0,265107.0,312513.0,274388.0
2026-04-07 17:54:18.534369,281465,1528898509,1528899742,-1.091168,0.093696,0.0488,-0.02625,5.59125,-2.93125,43.208,4.6,53.592003,concentric,3,3.0,19109.0,291482.0,265107.0,312513.0,274388.0
2026-04-07 17:54:18.536944,281466,1528907417,1528908474,-1.091168,0.093696,0.0488,-0.81375,5.67875,-3.77125,43.208,4.6,53.592003,concentric,3,3.0,19109.0,291482.0,265107.0,312513.0,274388.0
2026-04-07 17:54:18.539382,281467,1528916392,1528917183,-1.091168,0.093696,0.0488,-1.365,6.60625,-4.34875,43.208,4.6,53.592003,concentric,3,3.0,19109.0,291482.0,265107.0,312513.0,274388.0
2026-04-07 17:54:18.543155,281468,1528930910,1528932122,-1.08336,0.091744,0.060512,-1.61875,6.99125,-4.48,44.04,4.144,53.488003,concentric,3,3.0,19109.0,291482.0,265107.0,312513.0,274388.0
2026-04-07 17:54:18.553111,281469,1528939916,1528940810,-1.075552,0.099552,0.054656,-1.82875,6.88625,-4.4625,43.440002,4.432,55.224003,concentric,3,3.0,19109.0,291482.0,265107.0,312513.0,274388.0
2026-04-07 17:54:18.598435,281470,1528948826,1528949489,-1.075552,0.099552,0.054656,-3.00125,6.8775,-3.94625,43.440002,4.432,55.224003,concentric,3,3.0,19109.0,291482.0,265107.0,312513.0,274388.0
2026-04-07 17:54:18.600637,281471,1528963648,1528964437,-1.065792,0.08784,0.062464,-5.2325,6.8775,-4.0075,43.936,4.52,54.272003,concentric,3,3.0,19109.0,291482.0,265107.0,312513.0,274388.0
2026-04-07 17:54:18.603259,281472,1528972614,1528973124,-1.065792,0.08784,0.062464,-6.7025,6.545,-3.5525,43.936,4.52,54.272003,concentric,3,3.0,19109.0,291482.0,265107.0,312513.0,274388.0
2026-04-07 17:54:18.605681,281473,1528981987,1528983875,-1.079456,0.089792,0.0488,-6.93875,7.02625,-3.15875,43.944,4.704,54.000004,concentric,3,3.0,19109.0,291482.0,265107.0,312513.0,274388.0
2026-04-07 17:54:18.633080,281484,1528991190,1528992598,-1.079456,0.089792,0.0488,-6.25625,7.21,-3.14125,43.944,4.704,54.000004,concentric,3,3.0,19033.0,290911.0,264771.0,312242.0,274188.0
2026-04-07 17:54:18.635665,281485,1529005766,1529007613,-1.071648,0.099552,0.05856,-5.775,6.76375,-2.61625,43.768,4.304,55.264004,concentric,3,3.0,19033.0,290911.0,264771.0,312242.0,274188.0
2026-04-07 17:54:18.638271,281486,1529014705,1529016360,-1.071648,0.099552,0.05856,-4.61125,6.15125,-2.8175,43.768,4.304,55.264004,concentric,3,3.0,19033.0,290911.0,264771.0,312242.0,274188.0
2026-04-07 17:54:18.640626,281487,1529023690,1529025074,-1.071648,0.089792,0.066368,-5.425,7.06125,-2.765,43.712,4.0,55.920002,concentric,3,3.0,19033.0,290911.0,264771.0,312242.0,274188.0
2026-04-07 17:54:18.674667,281488,1529038192,1529040039,-1.071648,0.07808,0.042944,-8.70625,7.8925,-2.40625,43.712,4.0,53.872,concentric,3,3.0,19033.0,290911.0,264771.0,312242.0,274188.0
2026-04-07 17:54:18.678214,281489,1529047103,1529048791,-1.069696,0.07808,0.042944,-13.5625,8.05,-2.72125,43.800003,4.44,53.552002,concentric,3,3.0,19033.0,290911.0,264771.0,312242.0,274188.0
2026-04-07 17:54:18.680752,281490,1529056017,1529057466,-1.069696,0.07808,0.042944,-17.14125,8.16375,-2.70375,43.800003,4.44,53.552002,concentric,3,3.0,19033.0,290911.0,264771.0,312242.0,274188.0
2026-04-07 17:54:18.683135,281491,1529064916,1529066148,-1.05408,0.066368,0.03904,-19.145,8.04125,-2.02125,44.816,4.96,53.624004,concentric,3,3.0,19033.0,290911.0,264771.0,312242.0,274188.0
2026-04-07 17:54:18.713377,281492,1529079390,1529081073,-1.065792,0.080032,0.060512,-19.31125,7.58625,-1.70625,44.960003,4.944,54.72,concentric,3,3.0,19033.0,290911.0,264771.0,312242.0,274188.0
2026-04-07 17:54:18.739626,281502,1529088310,1529089941,-1.065792,0.080032,0.060512,-18.10375,7.0875,-0.6125,44.960003,4.944,54.72,concentric,3,3.0,18943.0,290400.0,264581.0,312237.0,274335.0
2026-04-07 17:54:18.741940,281503,1529097206,1529098722,-1.065792,0.080032,0.060512,-16.96625,6.4575,0.14,44.960003,4.944,54.72,concentric,3,3.0,18943.0,290400.0,264581.0,312237.0,274335.0
2026-04-07 17:54:18.745084,281504,1529111714,1529113656,-1.097024,0.113216,0.042944,-17.99875,6.335,-0.0175,44.624,5.024,53.768,concentric,3,3.0,18943.0,290400.0,264581.0,312237.0,274335.0
2026-04-07 17:54:18.750698,281505,1529120687,1529122365,-1.106784,0.124928,0.042944,-20.53625,6.62375,-0.70875,44.936,5.32,53.672,concentric,3,3.0,18943.0,290400.0,264581.0,312237.0,274335.0
2026-04-07 17:54:18.753137,281506,1529129599,1529131087,-1.106784,0.124928,0.042944,-21.945,6.57125,-2.135,44.936,5.32,53.672,concentric,3,3.0,18943.0,290400.0,264581.0,312237.0,274335.0
2026-04-07 17:54:18.755662,281507,1529144114,1529146032,-1.118496,0.0976,0.05856,-22.05,6.57125,-3.5875,44.592003,5.512,53.872,concentric,3,3.0,18943.0,290400.0,264581.0,312237.0,274335.0
2026-04-07 17:54:18.785909,281508,1529153081,1529154731,-1.118496,0.0976,0.05856,-20.39625,7.0525,-5.78375,44.592003,5.512,53.872,concentric,3,3.0,18943.0,290400.0,264581.0,312237.0,274335.0
2026-04-07 17:54:18.789428,281509,1529161999,1529163446,-1.118496,0.089792,0.052704,-18.69875,7.0525,-7.2625,44.776,5.568,53.440002,concentric,3,3.0,18943.0,290400.0,264581.0,312237.0,274335.0
2026-04-07 17:54:18.810715,281510,1529176464,1529178345,-1.118496,0.089792,0.052704,-16.35375,6.545,-7.49,44.776,5.568,53.440002,concentric,3,3.0,18943.0,290400.0,264581.0,312237.0,274335.0
2026-04-07 17:54:18.813158,281511,1529185390,1529187055,-1.097024,0.081984,0.042944,-14.81375,6.5275,-7.56,44.72,5.464,52.928,concentric,3,3.0,18943.0,290400.0,264581.0,312237.0,274335.0
2026-04-07 17:54:18.841913,281521,1529194482,1529195808,-1.097024,0.081984,0.042944,-14.67375,6.29125,-6.83375,44.72,5.464,52.928,concentric,3,3.0,18803.0,289283.0,263744.0,311409.0,273720.0
2026-04-07 17:54:18.844416,281522,1529203408,1529204495,-1.095072,0.085888,0.027328,-15.37375,6.06375,-6.25625,44.376003,6.048,52.944004,concentric,3,3.0,18803.0,289283.0,263744.0,311409.0,273720.0
2026-04-07 17:54:18.847007,281523,1529217908,1529219495,-1.095072,0.085888,0.027328,-16.7825,6.2475,-5.775,44.376003,6.048,52.944004,concentric,3,3.0,18803.0,289283.0,263744.0,311409.0,273720.0
2026-04-07 17:54:18.849376,281524,1529226889,1529228199,-1.110688,0.091744,0.02928,-17.19375,5.985,-4.935,44.296,5.864,52.816,concentric,3,3.0,18803.0,289283.0,263744.0,311409.0,273720.0
2026-04-07 17:54:18.851886,281525,1529235900,1529236888,-1.110688,0.091744,0.02928,-15.61,5.3375,-4.19125,44.296,5.864,52.816,concentric,3,3.0,18803.0,289283.0,263744.0,311409.0,273720.0
2026-04-07 17:54:18.897345,281526,1529250441,1529251743,-1.098976,0.101504,0.044896,-13.99125,5.69625,-4.27875,44.336002,5.92,53.648003,concentric,3,3.0,18803.0,289283.0,263744.0,311409.0,273720.0
2026-04-07 17:54:18.900984,281527,1529259357,1529260468,-1.10288,0.109312,0.050752,-13.22125,5.7225,-5.075,44.336002,7.968,51.392002,concentric,3,3.0,18803.0,289283.0,263744.0,311409.0,273720.0
2026-04-07 17:54:18.903396,281528,1529268284,1529269152,-1.10288,0.109312,0.050752,-13.78125,6.195,-6.08125,45.032,6.536,51.392002,concentric,3,3.0,18803.0,289283.0,263744.0,311409.0,273720.0
2026-04-07 17:54:18.905670,281529,1529282746,1529284071,-1.085312,0.093696,0.037088,-13.1075,6.51,-6.6325,44.672,6.32,52.464,concentric,3,3.0,18803.0,289283.0,263744.0,311409.0,273720.0
2026-04-07 17:54:18.934105,281540,1529291928,1529293393,-1.085312,0.093696,0.037088,-13.1425,6.27375,-7.2625,44.672,6.32,52.464,concentric,3,3.0,18785.0,288970.0,263452.0,310926.0,273269.0
2026-04-07 17:54:18.935730,281541,1529300993,1529302180,-1.081408,0.064416,0.023424,-12.495,7.02625,-7.55125,44.712,6.168,51.752003,concentric,3,3.0,18785.0,288970.0,263452.0,310926.0,273269.0
2026-04-07 17:54:18.942513,281542,1529309956,1529310940,-1.081408,0.064416,0.023424,-11.13875,7.07,-8.11125,44.712,6.168,51.752003,concentric,3,3.0,18785.0,288970.0,263452.0,310926.0,273269.0
2026-04-07 17:54:18.944239,281543,1529324563,1529325849,-1.077504,0.07808,0.033184,-8.12875,6.51,-8.07625,44.816,5.92,52.232002,concentric,3,3.0,18785.0,288970.0,263452.0,310926.0,273269.0
2026-04-07 17:54:18.945779,281544,1529333533,1529334622,-1.077504,0.07808,0.033184,-4.9875,6.405,-8.015,44.816,5.92,52.232002,concentric,3,3.0,18785.0,288970.0,263452.0,310926.0,273269.0
2026-04-07 17:54:18.976646,281545,1529342608,1529343344,-1.077504,0.08784,0.02928,-2.75625,6.04625,-7.72625,44.552002,6.368001,52.056004,concentric,3,3.0,18785.0,288970.0,263452.0,310926.0,273269.0
2026-04-07 17:54:18.981372,281546,1529357573,1529358243,-1.077504,0.08784,0.02928,-1.225,5.78375,-7.77875,44.552002,6.368001,52.056004,concentric,3,3.0,18785.0,288970.0,263452.0,310926.0,273269.0
2026-04-07 17:54:18.982879,281547,1529366825,1529369001,-1.08336,0.08784,0.040992,0.49,5.11875,-7.56,45.352,6.352,51.752003,concentric,3,3.0,18785.0,288970.0,263452.0,310926.0,273269.0
2026-04-07 17:54:18.989921,281548,1529375770,1529377759,-1.08336,0.08784,0.040992,0.875,4.4625,-7.18375,45.352,6.352,51.752003,concentric,3,3.0,18785.0,288970.0,263452.0,310926.0,273269.0
2026-04-07 17:54:19.018341,281549,1529384738,1529386519,-1.081408,0.080032,0.027328,1.19875,4.3575,-7.9625,44.632004,6.176,52.104004,concentric,3,3.0,18785.0,288970.0,263452.0,310926.0,273269.0
2026-04-07 17:54:19.044453,281559,1529399269,1529401476,-1.081408,0.080032,0.042944,1.645,4.17375,-8.72375,44.632004,6.176,52.104004,concentric,3,3.0,18721.0,288535.0,263120.0,310625.0,273125.0
2026-04-07 17:54:19.048657,281560,1529408226,1529410191,-1.08336,0.085888,0.031232,3.64,4.165,-8.295,44.808002,6.656,51.960003,concentric,3,3.0,18721.0,288535.0,263120.0,310625.0,273125.0
2026-04-07 17:54:19.050391,281561,1529417304,1529418887,-1.08336,0.085888,0.031232,5.36375,3.8325,-7.805,44.808002,6.656,51.960003,concentric,3,3.0,18721.0,288535.0,263120.0,310625.0,273125.0
2026-04-07 17:54:19.051964,281562,1529431821,1529433817,-1.079456,0.081984,0.031232,6.34375,4.165,-7.5425,44.952003,6.144,53.496002,concentric,3,3.0,18721.0,288535.0,263120.0,310625.0,273125.0
2026-04-07 17:54:19.056026,281563,1529440774,1529442567,-1.091168,0.095648,0.035136,7.0,4.66375,-7.4375,44.576,5.752,53.160004,concentric,3,3.0,18721.0,288535.0,263120.0,310625.0,273125.0
2026-04-07 17:54:19.084683,281564,1529449746,1529451293,-1.091168,0.095648,0.035136,7.035,4.5325,-7.4375,44.576,5.752,53.160004,concentric,3,3.0,18721.0,288535.0,263120.0,310625.0,273125.0
2026-04-07 17:54:19.090027,281565,1529464278,1529466177,-1.095072,0.081984,0.037088,7.11375,4.41875,-7.07,45.160004,6.056,52.632004,concentric,3,3.0,18721.0,288535.0,263120.0,310625.0,273125.0
2026-04-07 17:54:19.091626,281566,1529473223,1529474907,-1.095072,0.081984,0.037088,8.54,4.3925,-7.67375,45.160004,6.056,52.632004,concentric,3,3.0,18721.0,288535.0,263120.0,310625.0,273125.0
2026-04-07 17:54:19.093530,281567,1529482154,1529483605,-1.104832,0.083936,0.03904,10.08,4.12125,-7.76125,44.632004,6.176,53.488003,concentric,3,3.0,18721.0,288535.0,263120.0,310625.0,273125.0
2026-04-07 17:54:19.149351,281577,1529491120,1529492255,-1.104832,0.083936,0.03904,11.68125,4.06875,-7.3675,44.632004,6.176,53.488003,concentric,3,3.0,18694.0,288198.0,262877.0,310405.0,272993.0
2026-04-07 17:54:19.151905,281578,1529506457,1529507185,-1.118496,0.101504,0.03904,12.31125,4.0775,-6.69375,45.064003,6.664001,52.232002,concentric,3,3.0,18694.0,288198.0,262877.0,310405.0,272993.0
2026-04-07 17:54:19.154436,281579,1529515786,1529517934,-1.118496,0.101504,0.03904,11.9,3.89375,-6.41375,45.064003,6.664001,52.232002,concentric,3,3.0,18694.0,288198.0,262877.0,310405.0,272993.0
2026-04-07 17:54:19.157635,281580,1529524794,1529526663,-1.114592,0.089792,0.031232,10.7625,4.10375,-6.23,44.288002,5.736,52.760002,concentric,3,3.0,18694.0,288198.0,262877.0,310405.0,272993.0
2026-04-07 17:54:19.159400,281581,1529533794,1529535390,-1.114592,0.089792,0.031232,10.3425,3.8675,-5.83625,44.288002,5.736,52.760002,concentric,3,3.0,18694.0,288198.0,262877.0,310405.0,272993.0
2026-04-07 17:54:19.161948,281582,1529548385,1529550365,-1.1224,0.089792,0.033184,11.2175,3.85875,-5.705,44.832,5.552,52.632004,concentric,3,3.0,18694.0,288198.0,262877.0,310405.0,272993.0
2026-04-07 17:54:19.198361,281583,1529557328,1529559079,-1.1224,0.089792,0.033184,12.2325,3.57875,-5.8625,44.832,5.552,52.632004,concentric,3,3.0,18694.0,288198.0,262877.0,310405.0,272993.0
2026-04-07 17:54:19.201855,281584,1529566296,1529567768,-1.120448,0.089792,0.044896,13.36125,3.36875,-5.83625,44.632004,5.608,52.984,concentric,3,3.0,18694.0,288198.0,262877.0,310405.0,272993.0
2026-04-07 17:54:19.204424,281585,1529580777,1529582680,-1.110688,0.101504,0.046848,14.0875,3.24625,-5.635,44.632004,5.456,52.464,concentric,3,3.0,18694.0,288198.0,262877.0,310405.0,272993.0
2026-04-07 17:54:19.210626,281586,1529589687,1529591363,-1.110688,0.101504,0.046848,14.55125,3.465,-5.45125,44.848003,5.456,52.464,concentric,3,3.0,18694.0,288198.0,262877.0,310405.0,272993.0
2026-04-07 17:54:19.238180,281597,1529598720,1529600187,-1.110688,0.101504,0.046848,12.64375,3.28125,-5.3725,44.848003,5.456,52.464,concentric,3,3.0,18667.0,288070.0,262823.0,310292.0,272905.0
2026-04-07 17:54:19.240670,281598,1529613487,1529615167,-1.114592,0.08784,0.031232,10.64875,3.01,-5.36375,44.968002,5.576,51.416004,concentric,3,3.0,18667.0,288070.0,262823.0,310292.0,272905.0
2026-04-07 17:54:19.243341,281599,1529622440,1529623915,-1.108736,0.074176,0.037088,9.9225,3.22875,-5.4075,44.640003,5.408001,55.760002,concentric,3,3.0,18667.0,288070.0,262823.0,310292.0,272905.0
2026-04-07 17:54:19.245677,281600,1529631430,1529632665,-1.108736,0.074176,0.037088,11.55875,2.91375,-4.92625,44.640003,5.408001,55.760002,concentric,3,3.0,18667.0,288070.0,262823.0,310292.0,272905.0
2026-04-07 17:54:19.251924,281601,1529640334,1529641401,-1.108736,0.074176,0.037088,12.92375,2.835,-5.10125,44.640003,5.408001,55.760002,concentric,3,3.0,18667.0,288070.0,262823.0,310292.0,272905.0
2026-04-07 17:54:19.282055,281602,1529654842,1529656384,-1.118496,0.093696,0.037088,13.72875,3.00125,-5.34625,44.712,5.368,53.840004,concentric,3,3.0,18667.0,288070.0,262823.0,310292.0,272905.0
2026-04-07 17:54:19.285615,281603,1529663791,1529665076,-1.1224,0.099552,0.044896,14.42,2.96625,-5.2675,45.744003,4.984,52.584003,concentric,3,3.0,18667.0,288070.0,262823.0,310292.0,272905.0
2026-04-07 17:54:19.288127,281604,1529672710,1529673801,-1.1224,0.099552,0.044896,14.323751,2.93125,-5.005,45.744003,4.984,52.584003,concentric,3,3.0,18667.0,288070.0,262823.0,310292.0,272905.0
2026-04-07 17:54:19.318427,281605,1529687320,1529688773,-1.139968,0.099552,0.03904,13.9125,2.91375,-5.355,44.920002,5.104,54.168003,concentric,3,3.0,18667.0,288070.0,262823.0,310292.0,272905.0
2026-04-07 17:54:19.344362,281615,1529696483,1529697500,-1.139968,0.099552,0.03904,13.230001,3.4825,-5.7225,44.920002,5.104,54.168003,concentric,3,3.0,18675.0,288154.0,262920.0,310415.0,272982.0
2026-04-07 17:54:19.347032,281616,1529705498,1529706229,-1.165344,0.115168,0.037088,13.43125,3.745,-6.20375,45.112003,4.768,53.104004,concentric,3,3.0,18675.0,288154.0,262920.0,310415.0,272982.0
2026-04-07 17:54:19.353169,281617,1529714826,1529716965,-1.165344,0.115168,0.037088,12.792501,4.025,-6.16875,45.112003,4.768,53.104004,concentric,3,3.0,18675.0,288154.0,262920.0,310415.0,272982.0
2026-04-07 17:54:19.355664,281618,1529729341,1529729863,-1.192672,0.093696,0.011712,11.24375,4.2175,-6.34375,45.296,4.768,53.336002,concentric,3,3.0,18675.0,288154.0,262920.0,310415.0,272982.0
2026-04-07 17:54:19.358224,281619,1529738978,1529740691,-1.192672,0.093696,0.011712,11.61125,5.31125,-6.825,45.296,4.768,53.336002,concentric,3,3.0,18675.0,288154.0,262920.0,310415.0,272982.0
2026-04-07 17:54:19.360662,281620,1529747913,1529749366,-1.218048,0.089792,0.033184,11.8825,5.20625,-7.27125,45.352,4.592,54.448,concentric,3,3.0,18675.0,288154.0,262920.0,310415.0,272982.0
2026-04-07 17:54:19.390889,281621,1529762421,1529764301,-1.221952,0.095648,0.031232,13.22125,4.5675,-7.34125,44.624,4.712,55.736004,concentric,3,3.0,18675.0,288154.0,262920.0,310415.0,272982.0
2026-04-07 17:54:19.394423,281622,1529771378,1529773003,-1.221952,0.095648,0.031232,13.8075,4.3225,-6.9125,44.624,4.712,55.736004,concentric,3,3.0,18675.0,288154.0,262920.0,310415.0,272982.0
2026-04-07 17:54:19.397276,281623,1529780314,1529781691,-1.221952,0.095648,0.031232,12.92375,4.235,-6.62375,44.624,4.712,55.736004,concentric,3,3.0,18675.0,288154.0,262920.0,310415.0,272982.0
2026-04-07 17:54:19.401895,281624,1529789217,1529790402,-1.221952,0.095648,0.054656,13.11625,4.12125,-6.39625,45.08,5.056,52.56,concentric,3,3.0,18675.0,288154.0,262920.0,310415.0,272982.0
2026-04-07 17:54:19.459877,281634,1529803954,1529805544,-1.214144,0.109312,0.056608,12.97625,3.71875,-6.48375,44.632004,4.568,54.312004,concentric,3,3.0,18679.0,288113.0,262821.0,310322.0,272935.0
2026-04-07 17:54:19.463235,281635,1529812949,1529814308,-1.214144,0.109312,0.056608,13.20375,3.70125,-6.23,44.632004,4.568,54.312004,concentric,3,3.0,18679.0,288113.0,262821.0,310322.0,272935.0
2026-04-07 17:54:19.465736,281636,1529821878,1529822995,-1.225856,0.13664,0.042944,12.60875,3.99875,-6.18625,44.632004,4.272,55.224003,concentric,3,3.0,18679.0,288113.0,262821.0,310322.0,272935.0
2026-04-07 17:54:19.502075,281637,1529836350,1529837883,-1.225856,0.13664,0.042944,12.08375,4.0425,-5.845,45.144,4.272,55.224003,concentric,3,3.0,18679.0,288113.0,262821.0,310322.0,272935.0
2026-04-07 17:54:19.505612,281638,1529845259,1529846580,-1.237568,0.130784,0.031232,10.99,4.40125,-6.37875,45.264004,5.112001,53.464,concentric,3,3.0,18679.0,288113.0,262821.0,310322.0,272935.0
2026-04-07 17:54:19.508176,281639,1529854175,1529855265,-1.237568,0.130784,0.031232,8.70625,5.01375,-6.64125,45.264004,5.112001,53.464,concentric,3,3.0,18679.0,288113.0,262821.0,310322.0,272935.0
2026-04-07 17:54:19.510679,281640,1529868677,1529870193,-1.221952,0.099552,0.037088,8.05,5.3375,-7.41125,45.04,4.664,53.632004,concentric,3,3.0,18679.0,288113.0,262821.0,310322.0,272935.0
2026-04-07 17:54:19.513159,281641,1529877595,1529878867,-1.221952,0.099552,0.037088,9.0475,5.36375,-7.945,45.04,4.664,53.632004,concentric,3,3.0,18679.0,288113.0,262821.0,310322.0,272935.0
2026-04-07 17:54:19.515661,281642,1529886505,1529887577,-1.231712,0.105408,0.0488,8.9775,5.78375,-7.945,44.712,4.44,53.416004,concentric,3,3.0,18679.0,288113.0,262821.0,310322.0,272935.0
2026-04-07 17:54:19.543302,281653,1529901071,1529902709,-1.231712,0.105408,0.0488,7.35,5.85375,-7.56,44.712,4.44,53.416004,concentric,3,3.0,18711.0,288060.0,262590.0,309954.0,272570.0
2026-04-07 17:54:19.545704,281654,1529910031,1529911453,-1.23952,0.121024,0.040992,5.66125,5.6525,-6.755,44.976,4.648,50.888004,eccentric,3,3.0,18711.0,288060.0,262590.0,309954.0,272570.0
2026-04-07 17:54:19.548162,281655,1529918953,1529920246,-1.23952,0.121024,0.040992,4.48875,5.3375,-6.06375,44.976,4.648,50.888004,eccentric,3,3.0,18711.0,288060.0,262590.0,309954.0,272570.0
2026-04-07 17:54:19.551433,281656,1529927887,1529928989,-1.23952,0.121024,0.050752,3.57875,4.99625,-5.01375,44.960003,4.944,52.848003,eccentric,3,3.0,18711.0,288060.0,262590.0,309954.0,272570.0
2026-04-07 17:54:19.555683,281657,1529942349,1529943884,-1.25904,0.121024,0.044896,3.91125,4.97875,-5.01375,44.960003,4.944,52.664,eccentric,3,3.0,18711.0,288060.0,262590.0,309954.0,272570.0
2026-04-07 17:54:19.586266,281658,1529951307,1529952615,-1.25904,0.121024,0.044896,2.80875,5.24125,-5.3725,45.56,5.096,52.664,eccentric,3,3.0,18711.0,288060.0,262590.0,309954.0,272570.0
2026-04-07 17:54:19.589382,281659,1529960259,1529961330,-1.25904,0.121024,0.044896,1.96875,4.90875,-4.92625,45.56,5.096,52.664,eccentric,3,3.0,18711.0,288060.0,262590.0,309954.0,272570.0
2026-04-07 17:54:19.591999,281660,1529974728,1529976208,-1.257088,0.122976,0.056608,1.4,4.59375,-4.6025,45.136,5.448,53.248,eccentric,3,3.0,18711.0,288060.0,262590.0,309954.0,272570.0
2026-04-07 17:54:19.596861,281661,1529983637,1529984880,-1.245376,0.105408,0.025376,0.7525,4.27875,-5.22375,44.768,4.624,56.792004,eccentric,3,3.0,18711.0,288060.0,262590.0,309954.0,272570.0
2026-04-07 17:54:19.628398,281662,1529992658,1529993687,-1.245376,0.105408,0.025376,-0.41125,4.75125,-5.1625,44.768,4.624,56.792004,eccentric,3,3.0,18711.0,288060.0,262590.0,309954.0,272570.0
2026-04-07 17:54:19.655372,281672,1530007190,1530008643,-1.260992,0.11712,0.025376,-1.435,4.80375,-4.78625,45.336002,5.072,53.192,eccentric,3,3.0,18808.0,288756.0,263060.0,310306.0,272802.0
2026-04-07 17:54:19.656964,281673,1530016089,1530017303,-1.260992,0.11712,0.025376,-0.7525,4.7075,-4.71625,45.336002,5.072,53.192,eccentric,3,3.0,18808.0,288756.0,263060.0,310306.0,272802.0
2026-04-07 17:54:19.664948,281674,1530024947,1530026039,-1.247328,0.119072,0.046848,-0.04375,4.2175,-4.24375,45.112003,4.72,52.744003,eccentric,3,3.0,18808.0,288756.0,263060.0,310306.0,272802.0
2026-04-07 17:54:19.666617,281675,1530039423,1530041074,-1.247328,0.119072,0.046848,-0.37625,3.94625,-3.84125,45.112003,4.72,52.744003,eccentric,3,3.0,18808.0,288756.0,263060.0,310306.0,272802.0
2026-04-07 17:54:19.668186,281676,1530048352,1530049808,-1.243424,0.113216,0.0488,0.16625,2.98375,-4.05125,44.656002,4.728,53.608,eccentric,3,3.0,18808.0,288756.0,263060.0,310306.0,272802.0
2026-04-07 17:54:19.672301,281677,1530057284,1530058503,-1.243424,0.113216,0.0488,-0.665,2.38875,-3.78875,44.656002,4.728,53.608,eccentric,3,3.0,18808.0,288756.0,263060.0,310306.0,272802.0
2026-04-07 17:54:19.678603,281678,1530066199,1530067222,-1.23952,0.099552,0.042944,-0.86625,2.87875,-3.1325,44.248,4.728,53.768,eccentric,3,3.0,18808.0,288756.0,263060.0,310306.0,272802.0
2026-04-07 17:54:19.707168,281679,1530081299,1530082275,-1.23952,0.099552,0.042944,-2.35375,2.9225,-3.115,44.248,4.728,53.768,eccentric,3,3.0,18808.0,288756.0,263060.0,310306.0,272802.0
2026-04-07 17:54:19.711694,281680,1530090983,1530093040,-1.227808,0.0976,0.040992,-3.15,2.59,-3.00125,45.104004,5.208,52.280003,eccentric,3,3.0,18808.0,288756.0,263060.0,310306.0,272802.0
2026-04-07 17:54:19.739449,281690,1530099974,1530101844,-1.227808,0.0976,0.040992,-2.6075,2.61625,-3.26375,45.104004,5.208,52.280003,eccentric,3,3.0,19008.0,290435.0,264292.0,311453.0,273757.0
2026-04-07 17:54:19.742729,281691,1530108987,1530110621,-1.227808,0.103456,0.031232,-2.6075,2.1875,-2.98375,45.08,6.056,53.256004,eccentric,3,3.0,19008.0,290435.0,264292.0,311453.0,273757.0
2026-04-07 17:54:19.749911,281692,1530123507,1530125591,-1.204384,0.101504,0.011712,-2.975,1.49625,-2.6425,44.456,5.512,54.424004,eccentric,3,3.0,19008.0,290435.0,264292.0,311453.0,273757.0
2026-04-07 17:54:19.751628,281693,1530132464,1530134301,-1.204384,0.101504,0.011712,-3.85875,0.63,-2.8175,44.456,5.512,54.424004,eccentric,3,3.0,19008.0,290435.0,264292.0,311453.0,273757.0
2026-04-07 17:54:19.756058,281694,1530141410,1530142991,-1.204384,0.101504,0.011712,-3.64875,-0.14,-3.325,44.456,5.512,54.424004,eccentric,3,3.0,19008.0,290435.0,264292.0,311453.0,273757.0
2026-04-07 17:54:19.798835,281695,1530155890,1530157971,-1.20048,0.103456,0.02928,-2.84375,-0.16625,-3.955,44.120003,5.128,54.672,eccentric,3,3.0,19008.0,290435.0,264292.0,311453.0,273757.0
2026-04-07 17:54:19.802498,281696,1530164778,1530166690,-1.175104,0.101504,0.042944,-1.74125,-0.35,-3.4475,44.936,5.936,52.328003,eccentric,3,3.0,19008.0,290435.0,264292.0,311453.0,273757.0
2026-04-07 17:54:19.804159,281697,1530173794,1530175386,-1.175104,0.101504,0.042944,-0.4025,-0.70875,-3.465,44.936,5.936,52.328003,eccentric,3,3.0,19008.0,290435.0,264292.0,311453.0,273757.0
2026-04-07 17:54:19.805733,281698,1530188261,1530190287,-1.159488,0.105408,0.046848,-0.56875,-0.70875,-3.77125,44.128002,5.656,52.128002,eccentric,3,3.0,19008.0,290435.0,264292.0,311453.0,273757.0
2026-04-07 17:54:19.837894,281709,1530197738,1530199059,-1.159488,0.105408,0.046848,-1.46125,-0.3675,-3.8675,44.128002,5.656,52.128002,eccentric,3,3.0,19226.0,292244.0,265625.0,312630.0,274740.0
2026-04-07 17:54:19.839427,281710,1530206731,1530207905,-1.136064,0.111264,0.042944,-2.6425,0.23625,-4.13,43.88,6.168,53.672,eccentric,3,3.0,19226.0,292244.0,265625.0,312630.0,274740.0
2026-04-07 17:54:19.842007,281711,1530215735,1530216623,-1.136064,0.111264,0.042944,-4.0075,-0.32375,-4.78625,43.88,6.168,53.672,eccentric,3,3.0,19226.0,292244.0,265625.0,312630.0,274740.0
2026-04-07 17:54:19.845306,281712,1530230261,1530231553,-1.114592,0.093696,0.003904,-5.48625,-1.015,-4.54125,44.128002,6.152,51.768,eccentric,3,3.0,19226.0,292244.0,265625.0,312630.0,274740.0
2026-04-07 17:54:19.875875,281713,1530239235,1530240349,-1.114592,0.093696,0.003904,-5.76625,-1.47,-4.9875,44.128002,6.152,51.768,eccentric,3,3.0,19226.0,292244.0,265625.0,312630.0,274740.0
2026-04-07 17:54:19.878107,281714,1530248155,1530249076,-1.081408,0.074176,-0.001952,-4.13,-1.9075,-4.97875,44.72,6.4,52.232002,eccentric,3,3.0,19226.0,292244.0,265625.0,312630.0,274740.0
2026-04-07 17:54:19.884830,281715,1530262659,1530263964,-1.081408,0.074176,-0.001952,-2.10875,-1.93375,-5.22375,44.72,6.4,52.232002,eccentric,3,3.0,19226.0,292244.0,265625.0,312630.0,274740.0
2026-04-07 17:54:19.891175,281716,1530271558,1530272664,-1.087264,0.091744,0.01952,0.06125,-2.8175,-5.355,44.272003,6.392,50.960003,eccentric,3,3.0,19226.0,292244.0,265625.0,312630.0,274740.0
2026-04-07 17:54:19.894780,281717,1530280491,1530281368,-1.087264,0.091744,0.01952,1.74125,-2.87,-5.06625,44.272003,6.392,50.960003,eccentric,3,3.0,19226.0,292244.0,265625.0,312630.0,274740.0
2026-04-07 17:54:19.955420,281727,1530294963,1530296521,-1.079456,0.113216,0.025376,2.8525,-3.08875,-5.2675,43.88,6.248,53.024002,eccentric,3,3.0,19384.0,293430.0,266424.0,313352.0,275381.0
2026-04-07 17:54:19.958070,281728,1530303943,1530305233,-1.075552,0.101504,0.027328,3.24625,-2.96625,-5.95,43.88,6.248,51.696003,eccentric,3,3.0,19384.0,293430.0,266424.0,313352.0,275381.0
2026-04-07 17:54:19.961312,281729,1530312994,1530313964,-1.075552,0.101504,0.027328,3.815,-3.36,-6.48375,43.088,6.616,51.696003,eccentric,3,3.0,19384.0,293430.0,266424.0,313352.0,275381.0
2026-04-07 17:54:19.963024,281730,1530322011,1530322674,-1.075552,0.101504,0.027328,4.1125,-2.8875,-7.55125,43.088,6.616,51.696003,eccentric,3,3.0,19384.0,293430.0,266424.0,313352.0,275381.0
2026-04-07 17:54:19.964561,281731,1530336971,1530337600,-1.052128,0.093696,0.015616,3.15875,-2.37125,-8.05,43.104004,6.768,52.344,eccentric,3,3.0,19384.0,293430.0,266424.0,313352.0,275381.0
2026-04-07 17:54:19.968666,281732,1530346306,1530348355,-1.028704,0.080032,0.021472,2.485,-1.89,-7.6825,42.928,6.56,52.368004,eccentric,3,3.0,19384.0,293430.0,266424.0,313352.0,275381.0
2026-04-07 17:54:19.970275,281733,1530355256,1530357080,-1.028704,0.080032,0.021472,2.1525,-1.53125,-7.5075,42.928,6.56,52.368004,eccentric,3,3.0,19384.0,293430.0,266424.0,313352.0,275381.0
2026-04-07 17:54:20.000494,281734,1530369762,1530372000,-1.018944,0.074176,0.0,2.80875,-1.30375,-7.455,42.688004,6.832,52.536003,eccentric,3,3.0,19384.0,293430.0,266424.0,313352.0,275381.0
2026-04-07 17:54:20.002783,281735,1530378751,1530380684,-1.018944,0.074176,0.0,3.45625,-1.75875,-6.6325,42.688004,6.832,52.536003,eccentric,3,3.0,19384.0,293430.0,266424.0,313352.0,275381.0
2026-04-07 17:54:20.007497,281736,1530387672,1530389440,-1.020896,0.080032,-0.001952,4.025,-1.9075,-5.97625,42.744003,6.768,51.112003,eccentric,3,3.0,19384.0,293430.0,266424.0,313352.0,275381.0
2026-04-07 17:54:20.034449,281746,1530396887,1530398211,-1.020896,0.080032,-0.001952,4.6725,-2.26625,-4.62,42.744003,6.768,51.112003,eccentric,3,3.0,19478.0,293980.0,266671.0,313417.0,275393.0
2026-04-07 17:54:20.038700,281747,1530411733,1530413223,-1.016992,0.08784,0.005856,4.33125,-2.555,-3.84125,41.600002,6.520001,54.576004,eccentric,3,3.0,19478.0,293980.0,266671.0,313417.0,275393.0
2026-04-07 17:54:20.040406,281748,1530420661,1530421947,-1.016992,0.08784,0.005856,4.7075,-2.835,-3.57875,41.600002,6.520001,54.576004,eccentric,3,3.0,19478.0,293980.0,266671.0,313417.0,275393.0
2026-04-07 17:54:20.042049,281749,1530429652,1530430690,-1.007232,0.08784,0.025376,6.1075,-2.59875,-3.45625,41.760002,6.232,53.536003,eccentric,3,3.0,19478.0,293980.0,266671.0,313417.0,275393.0
2026-04-07 17:54:20.098008,281750,1530444155,1530445585,-1.007232,0.08784,0.033184,7.67375,-3.12375,-3.325,41.760002,6.232,53.536003,eccentric,3,3.0,19478.0,293980.0,266671.0,313417.0,275393.0
2026-04-07 17:54:20.100447,281751,1530453047,1530454274,-0.991616,0.07808,0.033184,8.16375,-3.45625,-3.0975,42.480003,7.008,54.24,eccentric,3,3.0,19478.0,293980.0,266671.0,313417.0,275393.0
2026-04-07 17:54:20.105180,281752,1530462007,1530463032,-0.991616,0.07808,0.033184,8.79375,-3.24625,-2.98375,42.480003,7.008,54.24,eccentric,3,3.0,19478.0,293980.0,266671.0,313417.0,275393.0
2026-04-07 17:54:20.106992,281753,1530470917,1530471711,-0.962336,0.07808,0.023424,9.17875,-3.61375,-2.73875,42.312,7.008,51.752003,eccentric,3,3.0,19478.0,293980.0,266671.0,313417.0,275393.0
2026-04-07 17:54:20.108616,281754,1530485409,1530486616,-0.952576,0.091744,-0.003904,8.86375,-3.63125,-3.14125,42.592003,6.632,51.368004,eccentric,3,3.0,19478.0,293980.0,266671.0,313417.0,275393.0
2026-04-07 17:54:20.115442,281755,1530494354,1530495340,-0.952576,0.091744,-0.003904,7.06125,-3.255,-2.84375,42.592003,6.632,51.368004,eccentric,3,3.0,19478.0,293980.0,266671.0,313417.0,275393.0
2026-04-07 17:54:20.151862,281766,1530503301,1530504100,-0.952576,0.091744,-0.003904,5.57375,-3.26375,-2.30125,42.592003,6.632,51.368004,eccentric,3,3.0,19638.0,295373.0,267690.0,314485.0,276284.0
2026-04-07 17:54:20.154382,281767,1530518437,1530519067,-0.940864,0.074176,-0.001952,3.4475,-3.24625,-2.66875,42.472,6.520001,53.2,eccentric,3,3.0,19638.0,295373.0,267690.0,314485.0,276284.0
2026-04-07 17:54:20.156888,281768,1530527854,1530530092,-0.935008,0.050752,0.0,2.79125,-2.93125,-2.79125,42.336002,6.952,52.440002,eccentric,3,3.0,19638.0,295373.0,267690.0,314485.0,276284.0
2026-04-07 17:54:20.159447,281769,1530536794,1530538802,-0.935008,0.050752,0.0,4.2525,-3.89375,-2.415,42.336002,6.952,52.440002,eccentric,3,3.0,19638.0,295373.0,267690.0,314485.0,276284.0
2026-04-07 17:54:20.161948,281770,1530545716,1530547527,-0.93696,0.080032,0.00976,6.79875,-4.99625,-2.45875,41.688004,6.784,53.408,eccentric,3,3.0,19638.0,295373.0,267690.0,314485.0,276284.0
2026-04-07 17:54:20.192125,281771,1530560262,1530562387,-0.93696,0.080032,0.00976,8.93375,-5.73125,-2.24,41.688004,6.784,53.408,eccentric,3,3.0,19638.0,295373.0,267690.0,314485.0,276284.0
2026-04-07 17:54:20.195691,281772,1530569208,1530571090,-0.931104,0.099552,0.01952,9.38,-6.01125,-2.12625,41.792004,7.256001,50.928,eccentric,3,3.0,19638.0,295373.0,267690.0,314485.0,276284.0
2026-04-07 17:54:20.198221,281773,1530578188,1530579773,-0.931104,0.099552,0.01952,9.00375,-6.67625,-2.23125,41.792004,7.256001,50.928,eccentric,3,3.0,19638.0,295373.0,267690.0,314485.0,276284.0
2026-04-07 17:54:20.229588,281774,1530592806,1530594708,-0.938912,0.0976,0.00976,7.42,-6.7725,-3.05375,41.760002,7.04,51.248,eccentric,3,3.0,19638.0,295373.0,267690.0,314485.0,276284.0
2026-04-07 17:54:20.258231,281784,1530601915,1530603512,-0.938912,0.0976,0.00976,6.4925,-6.4225,-3.85,41.760002,7.04,51.248,eccentric,3,3.0,19719.0,295859.0,267972.0,314842.0,276597.0
2026-04-07 17:54:20.260651,281785,1530610874,1530612235,-0.94672,0.093696,0.023424,6.86,-6.34375,-4.6025,41.584003,7.072001,51.384003,eccentric,3,3.0,19719.0,295859.0,267972.0,314842.0,276597.0
2026-04-07 17:54:20.263201,281786,1530625411,1530627144,-0.94672,0.07808,0.035136,9.44125,-5.74,-5.53,41.584003,7.072001,53.432003,eccentric,3,3.0,19719.0,295859.0,267972.0,314842.0,276597.0
2026-04-07 17:54:20.265720,281787,1530634386,1530635900,-0.923296,0.07808,0.035136,10.64875,-5.8975,-5.88875,41.232002,6.192,54.952003,eccentric,3,3.0,19719.0,295859.0,267972.0,314842.0,276597.0
2026-04-07 17:54:20.268214,281788,1530643313,1530644604,-0.923296,0.07808,0.035136,11.7425,-5.1625,-5.67875,41.232002,6.192,54.952003,eccentric,3,3.0,19719.0,295859.0,267972.0,314842.0,276597.0
2026-04-07 17:54:20.270670,281789,1530652252,1530653365,-0.895968,0.052704,0.044896,12.59125,-3.99,-5.39875,40.984,6.704001,52.680004,eccentric,3,3.0,19719.0,295859.0,267972.0,314842.0,276597.0
2026-04-07 17:54:20.300872,281790,1530666782,1530667292,-0.91744,0.064416,0.050752,12.10125,-2.73,-5.53875,40.88,6.288,53.344,eccentric,3,3.0,19719.0,295859.0,267972.0,314842.0,276597.0
2026-04-07 17:54:20.304397,281791,1530676237,1530678101,-0.91744,0.064416,0.050752,12.45125,-2.17,-4.50625,40.88,6.288,53.344,eccentric,3,3.0,19719.0,295859.0,267972.0,314842.0,276597.0
2026-04-07 17:54:20.306891,281792,1530685152,1530686787,-0.91744,0.064416,0.050752,13.886251,-1.26,-3.40375,40.88,6.288,53.344,eccentric,3,3.0,19719.0,295859.0,267972.0,314842.0,276597.0
2026-04-07 17:54:20.331892,281802,1530700321,1530701735,-0.903776,0.099552,0.0488,14.63,-0.6825,-2.9575,41.456,6.328,52.288002,eccentric,3,3.0,19778.0,296216.0,268216.0,315068.0,276812.0
2026-04-07 17:54:20.334381,281803,1530709358,1530710514,-0.90768,0.101504,0.070272,14.02625,-0.07,-2.70375,41.488003,6.64,50.944004,eccentric,3,3.0,19778.0,296216.0,268216.0,315068.0,276812.0
2026-04-07 17:54:20.336876,281804,1530718369,1530719237,-0.90768,0.101504,0.070272,14.48125,0.91,-3.0625,41.488003,6.64,50.944004,eccentric,3,3.0,19778.0,296216.0,268216.0,315068.0,276812.0
2026-04-07 17:54:20.339555,281805,1530727379,1530728001,-0.894016,0.080032,0.07808,14.385,1.9425,-3.82375,40.896004,6.312,51.792004,eccentric,3,3.0,19778.0,296216.0,268216.0,315068.0,276812.0
2026-04-07 17:54:20.397176,281806,1530742188,1530742927,-0.894016,0.080032,0.07808,13.64125,3.22875,-4.20875,40.896004,6.312,51.792004,eccentric,3,3.0,19778.0,296216.0,268216.0,315068.0,276812.0
2026-04-07 17:54:20.400634,281807,1530751591,1530753689,-0.901824,0.072224,0.062464,13.74625,4.64625,-4.99625,41.256,6.08,51.152004,eccentric,3,3.0,19778.0,296216.0,268216.0,315068.0,276812.0
2026-04-07 17:54:20.403142,281808,1530760506,1530762366,-0.901824,0.072224,0.062464,15.5575,6.02,-5.4775,41.256,6.08,51.152004,eccentric,3,3.0,19778.0,296216.0,268216.0,315068.0,276812.0
2026-04-07 17:54:20.405622,281809,1530769427,1530771109,-0.903776,0.095648,0.060512,17.675,5.7225,-6.02,40.992,6.176,50.920002,eccentric,3,3.0,19778.0,296216.0,268216.0,315068.0,276812.0
2026-04-07 17:54:20.408127,281810,1530783892,1530786028,-0.903776,0.095648,0.060512,20.125,5.18,-6.615,40.992,6.176,50.920002,eccentric,3,3.0,19778.0,296216.0,268216.0,315068.0,276812.0
2026-04-07 17:54:20.410661,281811,1530792834,1530794718,-0.903776,0.130784,0.081984,20.2125,5.2675,-7.41125,40.944,6.088,51.120003,eccentric,3,3.0,19778.0,296216.0,268216.0,315068.0,276812.0
2026-04-07 17:54:20.441868,281822,1530802290,1530803440,-0.903776,0.130784,0.081984,16.4325,6.15125,-7.84,40.944,6.088,51.120003,eccentric,3,3.0,19666.0,295108.0,267267.0,313972.0,275752.0
2026-04-07 17:54:20.446919,281823,1530816852,1530818443,-0.929152,0.10736,0.081984,13.51875,6.755,-7.69125,40.52,5.704001,52.416004,eccentric,3,3.0,19666.0,295108.0,267267.0,313972.0,275752.0
2026-04-07 17:54:20.449465,281824,1530825780,1530827135,-0.929152,0.10736,0.081984,11.19125,6.86,-7.595,40.52,5.704001,52.416004,eccentric,3,3.0,19666.0,295108.0,267267.0,313972.0,275752.0
2026-04-07 17:54:20.451937,281825,1530834692,1530835816,-0.944768,0.085888,0.085888,11.305,6.99125,-7.84875,40.976,5.776001,52.520004,eccentric,3,3.0,19666.0,295108.0,267267.0,313972.0,275752.0
2026-04-07 17:54:20.460674,281826,1530849262,1530850849,-0.968192,0.070272,0.054656,11.76875,6.50125,-8.4875,40.832,5.464,52.568,eccentric,3,3.0,19666.0,295108.0,267267.0,313972.0,275752.0
2026-04-07 17:54:20.490811,281827,1530858225,1530859555,-0.968192,0.070272,0.054656,12.1975,5.97625,-8.47,40.832,5.464,52.568,eccentric,3,3.0,19666.0,295108.0,267267.0,313972.0,275752.0
2026-04-07 17:54:20.494402,281828,1530867181,1530868261,-0.962336,0.070272,0.056608,14.035,5.9325,-7.42,41.176003,5.928001,50.432003,eccentric,3,3.0,19666.0,295108.0,267267.0,313972.0,275752.0
2026-04-07 17:54:20.496885,281829,1530876178,1530876946,-0.962336,0.070272,0.056608,17.57875,6.1775,-6.83375,41.176003,5.928001,50.432003,eccentric,3,3.0,19666.0,295108.0,267267.0,313972.0,275752.0
2026-04-07 17:54:20.502036,281830,1530890644,1530891921,-0.952576,0.095648,0.080032,20.9475,6.02875,-6.6325,40.544003,5.520001,52.504,eccentric,3,3.0,19666.0,295108.0,267267.0,313972.0,275752.0
2026-04-07 17:54:20.555595,281840,1530899618,1530900683,-0.952576,0.095648,0.080032,22.2075,6.11625,-6.44875,40.544003,5.520001,52.504,eccentric,3,3.0,19565.0,294308.0,266656.0,313368.0,275224.0
2026-04-07 17:54:20.558250,281841,1530908599,1530909455,-0.94672,0.115168,0.076128,21.175,6.79,-6.86,41.120003,5.464,51.2,eccentric,3,3.0,19565.0,294308.0,266656.0,313368.0,275224.0
2026-04-07 17:54:20.560632,281842,1530923061,1530924438,-0.94672,0.115168,0.076128,19.73125,7.48125,-6.13375,41.120003,5.464,51.2,eccentric,3,3.0,19565.0,294308.0,266656.0,313368.0,275224.0
2026-04-07 17:54:20.563123,281843,1530931983,1530933192,-0.950624,0.115168,0.085888,18.50625,8.28625,-6.18625,40.672,5.256,51.608,eccentric,3,3.0,19565.0,294308.0,266656.0,313368.0,275224.0
2026-04-07 17:54:20.565607,281844,1530940915,1530942016,-0.950624,0.115168,0.085888,17.84125,9.1525,-6.92125,40.672,5.256,51.608,eccentric,3,3.0,19565.0,294308.0,266656.0,313368.0,275224.0
2026-04-07 17:54:20.568106,281845,1530955390,1530956963,-0.958432,0.115168,0.080032,18.5325,9.1875,-7.49875,41.152,4.904,51.544003,eccentric,3,3.0,19565.0,294308.0,266656.0,313368.0,275224.0
2026-04-07 17:54:20.598742,281846,1530964344,1530965691,-0.958432,0.115168,0.080032,18.935,10.00125,-8.37375,41.152,4.904,51.544003,eccentric,3,3.0,19565.0,294308.0,266656.0,313368.0,275224.0
2026-04-07 17:54:20.601966,281847,1530973251,1530974377,-0.974048,0.10736,0.062464,19.705,10.66625,-9.0475,40.944,5.696,51.344,eccentric,3,3.0,19565.0,294308.0,266656.0,313368.0,275224.0
2026-04-07 17:54:20.604404,281848,1530987707,1530989265,-0.989664,0.083936,0.025376,20.53625,11.0075,-9.84375,41.424004,5.36,51.704002,eccentric,3,3.0,19565.0,294308.0,266656.0,313368.0,275224.0
2026-04-07 17:54:20.610707,281849,1530996575,1530997959,-0.989664,0.083936,0.025376,21.25375,10.77125,-10.75375,41.424004,5.36,51.704002,eccentric,3,3.0,19565.0,294308.0,266656.0,313368.0,275224.0
2026-04-07 17:54:20.638158,281859,1531005737,1531006951,-0.989664,0.083936,0.025376,22.89875,10.92875,-11.1125,41.424004,5.36,51.704002,eccentric,3,3.0,19598.0,294507.0,266744.0,313435.0,275263.0
2026-04-07 17:54:20.640663,281860,1531014714,1531015654,-1.013088,0.095648,0.03904,24.9725,10.68375,-10.465,40.952003,4.808,49.288002,eccentric,3,3.0,19598.0,294507.0,266744.0,313435.0,275263.0
2026-04-07 17:54:20.643156,281861,1531029201,1531030541,-1.040416,0.113216,0.0488,26.18,9.91375,-9.63375,41.632004,4.472,51.152004,eccentric,3,3.0,19598.0,294507.0,266744.0,313435.0,275263.0
2026-04-07 17:54:20.649410,281862,1531038135,1531039303,-1.040416,0.113216,0.0488,25.3925,9.415,-8.1725,41.632004,4.472,51.152004,eccentric,3,3.0,19598.0,294507.0,266744.0,313435.0,275263.0
2026-04-07 17:54:20.697169,281863,1531047061,1531048006,-1.040416,0.113216,0.0488,24.3775,9.17,-6.32625,41.632004,4.472,51.152004,eccentric,3,3.0,19598.0,294507.0,266744.0,313435.0,275263.0
2026-04-07 17:54:20.700578,281864,1531061556,1531062910,-1.06384,0.105408,0.0488,23.5375,8.46125,-5.11875,42.184002,4.504,51.384003,eccentric,3,3.0,19598.0,294507.0,266744.0,313435.0,275263.0
2026-04-07 17:54:20.703230,281865,1531070450,1531071592,-1.081408,0.10736,0.03904,22.39125,8.44375,-5.0925,41.672,3.816,51.768,eccentric,3,3.0,19598.0,294507.0,266744.0,313435.0,275263.0
2026-04-07 17:54:20.739358,281866,1531079356,1531080292,-1.081408,0.10736,0.03904,22.58375,8.58375,-5.25,41.672,3.816,51.768,eccentric,3,3.0,19598.0,294507.0,266744.0,313435.0,275263.0
2026-04-07 17:54:20.743769,281867,1531093906,1531095299,-1.0248,0.142496,0.011712,22.23375,8.81125,-5.76625,41.744003,3.856,51.416004,eccentric,3,3.0,19598.0,294507.0,266744.0,313435.0,275263.0
2026-04-07 17:54:20.772337,281878,1531102990,1531104038,-1.0248,0.142496,0.011712,21.49,9.68625,-6.46625,41.744003,3.856,51.416004,eccentric,3,3.0,19584.0,294260.0,266542.0,313172.0,275078.0
2026-04-07 17:54:20.776219,281879,1531111976,1531112728,-1.095072,0.109312,0.035136,15.9775,11.34,-7.27125,41.800003,4.016,51.472004,eccentric,3,3.0,19584.0,294260.0,266542.0,313172.0,275078.0
2026-04-07 17:54:20.777805,281880,1531121317,1531123521,-1.095072,0.109312,0.035136,11.48875,12.88,-7.93625,41.800003,4.016,51.472004,eccentric,3,3.0,19584.0,294260.0,266542.0,313172.0,275078.0
2026-04-07 17:54:20.782476,281881,1531135796,1531136407,-1.061888,0.08784,0.040992,11.042501,13.2475,-7.2275,41.832,4.392,51.424004,eccentric,3,3.0,19584.0,294260.0,266542.0,313172.0,275078.0
2026-04-07 17:54:20.784083,281882,1531145267,1531147219,-1.061888,0.08784,0.040992,12.915,12.81875,-7.49,41.832,4.392,51.424004,eccentric,3,3.0,19584.0,294260.0,266542.0,313172.0,275078.0
2026-04-07 17:54:20.785666,281883,1531154346,1531155947,-1.0736,0.099552,0.033184,13.658751,12.62625,-7.65625,41.84,3.928,51.520004,eccentric,3,3.0,19584.0,294260.0,266542.0,313172.0,275078.0
2026-04-07 17:54:20.789957,281884,1531168873,1531170839,-1.067744,0.101504,0.023424,14.07,12.08375,-8.225,41.552002,3.344,53.728004,eccentric,3,3.0,19584.0,294260.0,266542.0,313172.0,275078.0
2026-04-07 17:54:20.791503,281885,1531177865,1531179574,-1.067744,0.101504,0.023424,13.667501,11.585,-7.875,41.552002,3.344,53.728004,eccentric,3,3.0,19584.0,294260.0,266542.0,313172.0,275078.0
2026-04-07 17:54:20.821975,281886,1531186842,1531188286,-1.067744,0.101504,0.023424,12.8275,11.10375,-6.9475,41.552002,3.344,53.728004,eccentric,3,3.0,19584.0,294260.0,266542.0,313172.0,275078.0
2026-04-07 17:54:20.824071,281887,1531195767,1531196971,-1.077504,0.083936,0.021472,12.45125,9.87,-6.43125,41.848003,3.208,53.04,eccentric,3,3.0,19584.0,294260.0,266542.0,313172.0,275078.0
2026-04-07 17:54:20.850396,281897,1531210564,1531212265,-1.0736,0.091744,0.027328,13.51,8.89,-5.60875,41.656002,3.248,51.664,eccentric,3,3.0,19575.0,294312.0,266621.0,313364.0,275286.0
2026-04-07 17:54:20.851980,281898,1531219503,1531220954,-1.0736,0.091744,0.027328,14.72625,8.12875,-5.2325,41.656002,3.248,51.664,eccentric,3,3.0,19575.0,294312.0,266621.0,313364.0,275286.0
2026-04-07 17:54:20.856244,281899,1531228624,1531229653,-1.077504,0.115168,0.033184,15.49625,7.84,-5.3025,41.656002,3.12,51.552002,eccentric,3,3.0,19575.0,294312.0,266621.0,313364.0,275286.0
2026-04-07 17:54:20.857795,281900,1531243203,1531244613,-1.077504,0.115168,0.033184,15.54,7.0,-4.9175,41.392002,3.12,51.552002,eccentric,3,3.0,19575.0,294312.0,266621.0,313364.0,275286.0
2026-04-07 17:54:20.887920,281901,1531252144,1531253345,-1.06384,0.10736,0.025376,15.2425,6.25625,-4.57625,42.280003,3.632,51.528004,eccentric,3,3.0,19575.0,294312.0,266621.0,313364.0,275286.0
2026-04-07 17:54:20.892451,281902,1531261071,1531262042,-1.06384,0.10736,0.025376,14.83125,5.4775,-5.32,42.280003,3.632,51.528004,eccentric,3,3.0,19575.0,294312.0,266621.0,313364.0,275286.0
2026-04-07 17:54:20.894011,281903,1531270026,1531270732,-1.069696,0.111264,0.01952,13.9125,4.515,-5.0925,42.232002,3.792,51.336002,eccentric,3,3.0,19575.0,294312.0,266621.0,313364.0,275286.0
2026-04-07 17:54:20.898759,281904,1531284885,1531285635,-1.069696,0.111264,0.01952,13.658751,4.38375,-5.6525,42.232002,3.792,51.336002,eccentric,3,3.0,19575.0,294312.0,266621.0,313364.0,275286.0
2026-04-07 17:54:20.927206,281905,1531294293,1531296464,-1.061888,0.103456,0.013664,13.81625,3.85,-6.15125,41.608,2.44,52.824,eccentric,3,3.0,19575.0,294312.0,266621.0,313364.0,275286.0
2026-04-07 17:54:20.957489,281915,1531303781,1531305179,-1.061888,0.103456,0.013664,15.23375,4.01625,-6.13375,41.608,2.44,52.824,eccentric,3,3.0,19514.0,293850.0,266300.0,313064.0,275091.0
2026-04-07 17:54:20.959152,281916,1531312818,1531313870,-1.04432,0.105408,0.015616,16.1875,3.675,-6.25625,42.248,2.96,52.024002,eccentric,3,3.0,19514.0,293850.0,266300.0,313064.0,275091.0
2026-04-07 17:54:20.960722,281917,1531327313,1531328776,-1.04432,0.105408,0.015616,16.70375,3.5525,-6.51875,42.248,2.96,52.024002,eccentric,3,3.0,19514.0,293850.0,266300.0,313064.0,275091.0
2026-04-07 17:54:20.964910,281918,1531336296,1531337487,-1.050176,0.0976,0.027328,16.6775,3.73625,-6.7725,41.624,2.912,52.776,eccentric,3,3.0,19514.0,293850.0,266300.0,313064.0,275091.0
2026-04-07 17:54:20.966919,281919,1531345200,1531346290,-1.050176,0.0976,0.027328,17.78875,3.605,-6.71125,41.624,2.912,52.776,eccentric,3,3.0,19514.0,293850.0,266300.0,313064.0,275091.0
2026-04-07 17:54:21.000561,281920,1531359729,1531361211,-1.048224,0.11712,0.040992,16.94,3.6575,-6.58875,41.872,2.44,52.872,eccentric,3,3.0,19514.0,293850.0,266300.0,313064.0,275091.0
2026-04-07 17:54:21.003275,281921,1531368826,1531369917,-1.048224,0.105408,0.023424,15.51375,4.2,-6.195,41.872,2.44,52.872,eccentric,3,3.0,19514.0,293850.0,266300.0,313064.0,275091.0
2026-04-07 17:54:21.009975,281922,1531377794,1531378633,-1.046272,0.105408,0.023424,13.76375,3.64875,-6.125,42.648003,2.832,52.192,eccentric,3,3.0,19514.0,293850.0,266300.0,313064.0,275091.0
2026-04-07 17:54:21.011712,281923,1531392275,1531393517,-1.052128,0.103456,0.011712,12.20625,3.61375,-6.29125,42.336002,2.856,51.960003,eccentric,3,3.0,19514.0,293850.0,266300.0,313064.0,275091.0
2026-04-07 17:54:21.013303,281924,1531401185,1531402269,-1.052128,0.103456,0.011712,12.3725,3.52625,-6.57125,42.336002,2.856,51.960003,eccentric,3,3.0,19514.0,293850.0,266300.0,313064.0,275091.0
2026-04-07 17:54:21.045088,281935,1531410216,1531411062,-1.036512,0.101504,0.017568,13.62375,2.87875,-7.25375,42.208,2.568,51.448,eccentric,3,3.0,19582.0,294391.0,266709.0,313479.0,275458.0
2026-04-07 17:54:21.047010,281936,1531419204,1531419800,-1.036512,0.101504,0.017568,14.65625,2.5725,-7.44625,42.208,2.568,51.448,eccentric,3,3.0,19582.0,294391.0,266709.0,313479.0,275458.0
2026-04-07 17:54:21.049461,281937,1531434031,1531434768,-1.04432,0.099552,0.013664,15.05875,2.625,-7.69125,41.616,2.328,53.288002,eccentric,3,3.0,19582.0,294391.0,266709.0,313479.0,275458.0
2026-04-07 17:54:21.058684,281938,1531443452,1531445565,-1.04432,0.099552,0.013664,15.39125,2.45,-7.2975,41.616,2.328,53.288002,eccentric,3,3.0,19582.0,294391.0,266709.0,313479.0,275458.0
2026-04-07 17:54:21.085861,281939,1531452415,1531454263,-1.036512,0.089792,0.015616,15.75875,1.6275,-7.0,41.736004,2.256,51.944004,eccentric,3,3.0,19582.0,294391.0,266709.0,313479.0,275458.0
2026-04-07 17:54:21.089344,281940,1531466907,1531469166,-1.036512,0.089792,0.015616,16.49375,1.33875,-7.14,41.736004,2.256,51.944004,eccentric,3,3.0,19582.0,294391.0,266709.0,313479.0,275458.0
2026-04-07 17:54:21.091844,281941,1531475830,1531477844,-1.04432,0.101504,0.013664,16.70375,1.54875,-7.7525,41.808002,2.016,52.168003,eccentric,3,3.0,19582.0,294391.0,266709.0,313479.0,275458.0
2026-04-07 17:54:21.096927,281942,1531484774,1531486566,-1.04432,0.101504,0.013664,17.2025,1.2775,-7.385,41.808002,2.016,52.168003,eccentric,3,3.0,19582.0,294391.0,266709.0,313479.0,275458.0
2026-04-07 17:54:21.127066,281943,1531493743,1531495283,-1.046272,0.109312,0.021472,17.43,1.75,-7.60375,41.456,1.792,53.008003,eccentric,3,3.0,19582.0,294391.0,266709.0,313479.0,275458.0
2026-04-07 17:54:21.153145,281953,1531508361,1531510244,-1.046272,0.109312,0.021472,17.08875,2.31,-8.37375,41.456,1.792,53.008003,eccentric,3,3.0,19674.0,295177.0,267315.0,314090.0,275994.0
2026-04-07 17:54:21.156197,281954,1531517387,1531518953,-1.056032,0.109312,0.037088,16.52875,2.65125,-8.89875,41.928,1.976,52.552002,eccentric,3,3.0,19674.0,295177.0,267315.0,314090.0,275994.0
2026-04-07 17:54:21.158757,281955,1531526334,1531527729,-1.056032,0.109312,0.037088,16.1525,3.22,-9.0125,41.928,1.976,52.552002,eccentric,3,3.0,19674.0,295177.0,267315.0,314090.0,275994.0
2026-04-07 17:54:21.160653,281956,1531540860,1531542686,-1.067744,0.095648,0.025376,15.21625,3.14125,-9.47625,42.08,1.952,52.472004,eccentric,3,3.0,19674.0,295177.0,267315.0,314090.0,275994.0
2026-04-07 17:54:21.163170,281957,1531549825,1531551380,-1.056032,0.0976,0.013664,14.7875,3.2025,-9.9925,42.08,1.952,52.808002,eccentric,3,3.0,19674.0,295177.0,267315.0,314090.0,275994.0
2026-04-07 17:54:21.193381,281958,1531558791,1531560147,-1.056032,0.0976,0.013664,15.02375,3.3775,-10.2025,41.912003,1.832,52.808002,eccentric,3,3.0,19674.0,295177.0,267315.0,314090.0,275994.0
2026-04-07 17:54:21.196967,281959,1531573324,1531575076,-1.048224,0.089792,0.015616,14.761251,3.8325,-10.05375,42.096,2.048,52.424004,eccentric,3,3.0,19674.0,295177.0,267315.0,314090.0,275994.0
2026-04-07 17:54:21.199506,281960,1531582342,1531583769,-1.048224,0.089792,0.015616,14.39375,4.15625,-9.8875,42.096,2.048,52.424004,eccentric,3,3.0,19674.0,295177.0,267315.0,314090.0,275994.0
2026-04-07 17:54:21.203104,281961,1531591256,1531592492,-1.04432,0.083936,0.013664,13.72,4.57625,-9.5025,41.656002,1.024,53.536003,eccentric,3,3.0,19674.0,295177.0,267315.0,314090.0,275994.0
2026-04-07 17:54:21.233852,281962,1531600238,1531601210,-1.04432,0.083936,0.013664,12.1275,4.80375,-8.65375,41.656002,1.024,53.536003,eccentric,3,3.0,19674.0,295177.0,267315.0,314090.0,275994.0
2026-04-07 17:54:21.259394,281972,1531614862,1531616152,-1.032608,0.085888,0.021472,11.6025,4.76,-7.63875,41.784,1.688,52.808002,eccentric,3,3.0,19747.0,295803.0,267789.0,314539.0,276382.0
2026-04-07 17:54:21.261888,281973,1531623772,1531624871,-1.032608,0.085888,0.021472,11.52375,4.7075,-6.9825,41.784,1.688,52.808002,eccentric,3,3.0,19747.0,295803.0,267789.0,314539.0,276382.0
2026-04-07 17:54:21.264468,281974,1531632700,1531633559,-1.038464,0.105408,0.035136,12.22375,5.005,-6.475,41.736004,1.44,53.112003,eccentric,3,3.0,19747.0,295803.0,267789.0,314539.0,276382.0
2026-04-07 17:54:21.299733,281975,1531647222,1531648447,-1.038464,0.105408,0.035136,11.90875,4.9875,-6.1775,41.736004,1.44,53.112003,eccentric,3,3.0,19747.0,295803.0,267789.0,314539.0,276382.0
2026-04-07 17:54:21.303371,281976,1531656170,1531657271,-1.032608,0.113216,0.023424,10.61375,5.71375,-6.29125,41.84,1.12,52.544003,eccentric,3,3.0,19747.0,295803.0,267789.0,314539.0,276382.0
2026-04-07 17:54:21.305657,281977,1531665168,1531665969,-1.032608,0.113216,0.023424,8.53125,6.3525,-6.76375,41.84,1.12,52.544003,eccentric,3,3.0,19747.0,295803.0,267789.0,314539.0,276382.0
2026-04-07 17:54:21.308111,281978,1531679648,1531680861,-1.026752,0.113216,0.023424,7.18375,6.65875,-7.035,42.376003,1.264,52.840004,eccentric,3,3.0,19747.0,295803.0,267789.0,314539.0,276382.0
2026-04-07 17:54:21.310613,281979,1531688566,1531689557,-1.026752,0.113216,0.023424,6.37875,7.07875,-7.4375,42.376003,1.264,52.840004,eccentric,3,3.0,19747.0,295803.0,267789.0,314539.0,276382.0
2026-04-07 17:54:21.313293,281980,1531697510,1531698283,-1.001376,0.091744,0.017568,5.8275,7.06125,-7.65625,42.104004,1.664,51.384003,eccentric,3,3.0,19747.0,295803.0,267789.0,314539.0,276382.0
