pc_time,serial_num,sensor_ts,host_ts,ax,ay,az,gx,gy,gz,mx,my,mz,phase,rpe,weight_kg,ppg_a,ppg_b,ppg_c,ppg_d,ppg_e
2026-04-07 17:54:21.344479,281991,1531707362,1531709129,-1.001376,0.091744,0.017568,4.4625,6.99125,-7.62125,42.104004,1.664,51.384003,concentric,3,3.0,19813.0,296215.0,268083.0,314805.0,276575.0
2026-04-07 17:54:21.346969,281992,1531722038,1531724036,-1.022848,0.093696,0.005856,3.5175,6.86875,-8.04125,42.536003,1.4,54.096,concentric,3,3.0,19813.0,296215.0,268083.0,314805.0,276575.0
2026-04-07 17:54:21.349328,281993,1531730991,1531732774,-1.040416,0.10736,0.015616,3.675,7.035,-7.1575,42.512,1.776,52.648003,concentric,3,3.0,19813.0,296215.0,268083.0,314805.0,276575.0
2026-04-07 17:54:21.351878,281994,1531739933,1531741502,-1.040416,0.10736,0.015616,3.29,6.44,-7.20125,42.512,1.776,52.648003,concentric,3,3.0,19813.0,296215.0,268083.0,314805.0,276575.0
2026-04-07 17:54:21.384573,281995,1531754408,1531756417,-1.050176,0.10736,0.021472,2.485,6.3175,-6.6675,42.152,0.864,53.592003,concentric,3,3.0,19813.0,296215.0,268083.0,314805.0,276575.0
2026-04-07 17:54:21.388156,281996,1531763340,1531765128,-1.050176,0.10736,0.021472,1.8725,5.90625,-6.65875,42.152,0.864,53.592003,concentric,3,3.0,19813.0,296215.0,268083.0,314805.0,276575.0
2026-04-07 17:54:21.390657,281997,1531772263,1531773861,-1.052128,0.095648,0.00976,0.83125,5.5825,-7.1225,42.072002,0.848,53.304,concentric,3,3.0,19813.0,296215.0,268083.0,314805.0,276575.0
2026-04-07 17:54:21.420895,281998,1531786819,1531788797,-1.052128,0.095648,0.00976,-0.41125,5.5125,-7.6125,42.072002,0.848,53.304,concentric,3,3.0,19813.0,296215.0,268083.0,314805.0,276575.0
2026-04-07 17:54:21.424430,281999,1531795722,1531797483,-1.09312,0.095648,0.007808,-1.085,6.09,-7.32375,42.264004,1.304,52.712,concentric,3,3.0,19813.0,296215.0,268083.0,314805.0,276575.0
2026-04-07 17:54:21.453124,282009,1531804622,1531806186,-1.09312,0.095648,0.007808,-0.2625,5.06625,-6.755,42.264004,1.304,52.712,concentric,3,3.0,19758.0,295853.0,267810.0,314526.0,276343.0
2026-04-07 17:54:21.458263,282010,1531813941,1531815006,-1.108736,0.101504,0.023424,0.595,3.31625,-5.9325,42.056004,1.768,52.72,concentric,3,3.0,19758.0,295853.0,267810.0,314526.0,276343.0
2026-04-07 17:54:21.460678,282011,1531828427,1531829918,-1.108736,0.101504,0.023424,1.32125,2.03875,-5.38125,42.056004,1.768,52.72,concentric,3,3.0,19758.0,295853.0,267810.0,314526.0,276343.0
2026-04-07 17:54:21.463179,282012,1531837345,1531838719,-1.118496,0.10736,0.050752,2.03875,1.51375,-4.725,42.456,0.176,52.416004,concentric,3,3.0,19758.0,295853.0,267810.0,314526.0,276343.0
2026-04-07 17:54:21.465699,282013,1531846272,1531847454,-1.118496,0.10736,0.050752,2.14375,0.5425,-3.9025,42.456,0.176,52.416004,concentric,3,3.0,19758.0,295853.0,267810.0,314526.0,276343.0
2026-04-07 17:54:21.495850,282014,1531860813,1531862388,-1.118496,0.109312,0.046848,1.74125,0.48125,-3.4475,42.672,1.448,53.624004,concentric,3,3.0,19758.0,295853.0,267810.0,314526.0,276343.0
2026-04-07 17:54:21.499439,282015,1531869833,1531871117,-1.118496,0.109312,0.046848,0.91875,-0.58625,-2.86125,42.672,1.448,53.624004,concentric,3,3.0,19758.0,295853.0,267810.0,314526.0,276343.0
2026-04-07 17:54:21.501864,282016,1531878766,1531879835,-1.087264,0.083936,0.02928,-0.3325,-0.455,-3.115,42.776,1.392,53.096,concentric,3,3.0,19758.0,295853.0,267810.0,314526.0,276343.0
2026-04-07 17:54:21.505631,282017,1531893219,1531894734,-1.061888,0.07808,0.02928,-0.16625,-1.435,-2.63375,42.016003,0.984,54.480003,concentric,3,3.0,19758.0,295853.0,267810.0,314526.0,276343.0
2026-04-07 17:54:21.536143,282018,1531902181,1531903424,-1.061888,0.07808,0.02928,0.4375,-2.33625,-1.53125,42.016003,0.984,54.480003,concentric,3,3.0,19758.0,295853.0,267810.0,314526.0,276343.0
2026-04-07 17:54:21.561917,282028,1531911194,1531912215,-1.061888,0.089792,0.031232,1.84625,-3.71,-1.05875,42.016003,0.984,54.480003,concentric,3,3.0,19790.0,296083.0,268003.0,314718.0,276508.0
2026-04-07 17:54:21.564528,282029,1531920101,1531920957,-1.036512,0.089792,0.031232,2.40625,-4.80375,-0.3325,42.832,1.216,52.256004,concentric,3,3.0,19790.0,296083.0,268003.0,314718.0,276508.0
2026-04-07 17:54:21.603200,282030,1531934676,1531935835,-1.038464,0.119072,0.042944,2.03875,-5.355,1.05875,41.632004,1.072,54.128002,concentric,3,3.0,19790.0,296083.0,268003.0,314718.0,276508.0
2026-04-07 17:54:21.609335,282031,1531943700,1531944539,-1.038464,0.119072,0.042944,2.555,-5.90625,1.2425,41.632004,1.072,54.128002,concentric,3,3.0,19790.0,296083.0,268003.0,314718.0,276508.0
2026-04-07 17:54:21.611938,282032,1531952662,1531953321,-1.048224,0.119072,0.040992,1.88125,-5.8625,0.91,41.912003,1.304,54.856003,concentric,3,3.0,19790.0,296083.0,268003.0,314718.0,276508.0
2026-04-07 17:54:21.614398,282033,1531967526,1531968234,-1.048224,0.119072,0.040992,0.91875,-5.915,-0.6825,41.912003,1.304,54.856003,concentric,3,3.0,19790.0,296083.0,268003.0,314718.0,276508.0
2026-04-07 17:54:21.616893,282034,1531976827,1531978973,-1.048224,0.119072,0.046848,1.3825,-5.81,-1.16375,42.304,0.648,53.168003,concentric,3,3.0,19790.0,296083.0,268003.0,314718.0,276508.0
2026-04-07 17:54:21.619640,282035,1531985759,1531987653,-1.048224,0.119072,0.046848,2.0125,-6.0725,-2.6425,42.304,0.648,53.168003,concentric,3,3.0,19790.0,296083.0,268003.0,314718.0,276508.0
2026-04-07 17:54:21.621961,282036,1531994670,1531996396,-1.036512,0.101504,0.027328,2.5025,-6.01125,-4.0075,42.408,1.296,53.000004,concentric,3,3.0,19790.0,296083.0,268003.0,314718.0,276508.0
2026-04-07 17:54:21.652007,282047,1532009836,1532011349,-1.036512,0.101504,0.027328,2.7125,-5.5825,-4.9525,42.408,1.296,53.000004,concentric,3,3.0,19762.0,295916.0,267920.0,314679.0,276473.0
2026-04-07 17:54:21.654427,282048,1532019056,1532020154,-1.03456,0.0976,0.021472,1.40875,-5.005,-4.83,42.160004,0.768,55.736004,concentric,3,3.0,19762.0,295916.0,267920.0,314679.0,276473.0
2026-04-07 17:54:21.656893,282049,1532027985,1532028937,-1.03456,0.0976,0.021472,-0.4375,-3.68375,-4.80375,42.160004,0.768,55.736004,concentric,3,3.0,19762.0,295916.0,267920.0,314679.0,276473.0
2026-04-07 17:54:21.659502,282050,1532037088,1532037684,-1.06384,0.124928,0.03904,0.07,-3.45625,-4.80375,41.72,1.112,55.784004,concentric,3,3.0,19762.0,295916.0,267920.0,314679.0,276473.0
2026-04-07 17:54:21.663174,282051,1532051890,1532052627,-1.06384,0.130784,0.042944,-0.30625,-3.5,-4.48875,41.72,1.112,53.736004,concentric,3,3.0,19762.0,295916.0,267920.0,314679.0,276473.0
2026-04-07 17:54:21.693313,282052,1532061249,1532063418,-1.059936,0.130784,0.042944,-1.1375,-2.94875,-4.31375,41.976,0.584,53.944004,concentric,3,3.0,19762.0,295916.0,267920.0,314679.0,276473.0
2026-04-07 17:54:21.696887,282053,1532070157,1532072104,-1.059936,0.130784,0.042944,-2.3275,-2.52875,-4.52375,41.976,0.584,53.944004,concentric,3,3.0,19762.0,295916.0,267920.0,314679.0,276473.0
2026-04-07 17:54:21.699575,282054,1532084664,1532084976,-1.081408,0.132736,0.03904,-2.79125,-1.5925,-5.04,42.176003,0.96,52.920002,concentric,3,3.0,19762.0,295916.0,267920.0,314679.0,276473.0
2026-04-07 17:54:21.705691,282055,1532093884,1532095846,-1.059936,0.121024,0.044896,-2.9575,-1.33,-5.705,41.696003,0.24,54.392002,concentric,3,3.0,19762.0,295916.0,267920.0,314679.0,276473.0
2026-04-07 17:54:21.735831,282056,1532102820,1532104552,-1.059936,0.121024,0.044896,-2.73,-0.665,-6.76375,41.696003,0.24,54.392002,concentric,3,3.0,19762.0,295916.0,267920.0,314679.0,276473.0
2026-04-07 17:54:21.761852,282066,1532111881,1532113357,-1.059936,0.121024,0.052704,-2.6775,0.39375,-7.34125,41.696003,0.24,54.392002,concentric,3,3.0,19772.0,295999.0,267954.0,314632.0,276407.0
2026-04-07 17:54:21.764385,282067,1532126462,1532128239,-1.069696,0.119072,0.052704,-3.29,0.60375,-7.20125,41.488003,0.84,53.656002,concentric,3,3.0,19772.0,295999.0,267954.0,314632.0,276407.0
2026-04-07 17:54:21.769374,282068,1532135392,1532137016,-1.071648,0.119072,0.033184,-2.31875,1.47875,-6.81625,42.216003,0.896,54.712,concentric,3,3.0,19772.0,295999.0,267954.0,314632.0,276407.0
2026-04-07 17:54:21.771916,282069,1532144352,1532145751,-1.071648,0.119072,0.033184,-2.5025,1.75,-7.44625,42.216003,0.896,54.712,concentric,3,3.0,19772.0,295999.0,267954.0,314632.0,276407.0
2026-04-07 17:54:21.774390,282070,1532158882,1532160655,-1.0736,0.115168,0.025376,-2.6775,1.47,-7.27125,42.256,1.808,54.504,concentric,3,3.0,19772.0,295999.0,267954.0,314632.0,276407.0
2026-04-07 17:54:21.780739,282071,1532167800,1532169363,-1.0736,0.115168,0.025376,-2.51125,2.275,-7.315,42.256,1.808,54.504,concentric,3,3.0,19772.0,295999.0,267954.0,314632.0,276407.0
2026-04-07 17:54:21.810874,282072,1532176746,1532178066,-1.069696,0.103456,0.03904,-1.95125,1.96875,-7.62125,41.760002,1.288,54.824,concentric,3,3.0,19772.0,295999.0,267954.0,314632.0,276407.0
2026-04-07 17:54:21.814509,282073,1532191258,1532193005,-1.069696,0.103456,0.03904,-0.69125,1.61,-7.3325,41.760002,1.288,54.824,concentric,3,3.0,19772.0,295999.0,267954.0,314632.0,276407.0
2026-04-07 17:54:21.817012,282074,1532200203,1532201714,-1.059936,0.0976,0.042944,1.4175,0.9275,-6.65,42.144,1.224,53.696003,concentric,3,3.0,19772.0,295999.0,267954.0,314632.0,276407.0
2026-04-07 17:54:21.841830,282084,1532209417,1532210456,-1.059936,0.0976,0.042944,2.56375,0.42875,-6.02,42.144,1.224,53.696003,concentric,3,3.0,19832.0,296585.0,268379.0,315088.0,276827.0
2026-04-07 17:54:21.844383,282085,1532218464,1532219180,-1.075552,0.111264,0.042944,2.1175,0.27125,-5.08375,42.264004,0.848,53.856003,concentric,3,3.0,19832.0,296585.0,268379.0,315088.0,276827.0
2026-04-07 17:54:21.846880,282086,1532233436,1532234143,-1.067744,0.115168,0.02928,2.275,0.34125,-4.41875,41.800003,1.072,54.128002,concentric,3,3.0,19832.0,296585.0,268379.0,315088.0,276827.0
2026-04-07 17:54:21.899617,282087,1532242785,1532244915,-1.067744,0.115168,0.02928,2.80875,0.1575,-4.445,41.800003,1.072,54.128002,concentric,3,3.0,19832.0,296585.0,268379.0,315088.0,276827.0
2026-04-07 17:54:21.903161,282088,1532251759,1532253617,-1.067744,0.115168,0.02928,3.52625,0.11375,-5.04,41.800003,1.072,54.128002,concentric,3,3.0,19832.0,296585.0,268379.0,315088.0,276827.0
2026-04-07 17:54:21.905643,282089,1532260679,1532262352,-1.065792,0.119072,0.040992,4.235,-0.34125,-5.3375,41.712,1.608,54.448,concentric,3,3.0,19832.0,296585.0,268379.0,315088.0,276827.0
2026-04-07 17:54:21.908194,282090,1532275257,1532277269,-1.042368,0.103456,0.060512,4.62875,-0.56,-4.97,41.640003,1.616,53.792004,concentric,3,3.0,19832.0,296585.0,268379.0,315088.0,276827.0
2026-04-07 17:54:21.910668,282091,1532284206,1532285987,-1.042368,0.103456,0.060512,5.38125,-1.19875,-4.34875,41.640003,1.616,53.792004,concentric,3,3.0,19832.0,296585.0,268379.0,315088.0,276827.0
2026-04-07 17:54:21.913126,282092,1532293150,1532294664,-1.036512,0.095648,0.054656,4.71625,-1.68875,-4.235,41.640003,1.616,54.248,concentric,3,3.0,19832.0,296585.0,268379.0,315088.0,276827.0
2026-04-07 17:54:21.944490,282103,1532308071,1532309507,-1.036512,0.095648,0.054656,3.5875,-2.485,-3.57,42.04,1.44,54.248,concentric,3,3.0,19747.0,295651.0,267611.0,314244.0,276019.0
2026-04-07 17:54:21.946865,282104,1532317143,1532318259,-1.040416,0.0976,0.02928,3.14125,-2.555,-3.0975,41.2,0.936,55.432003,concentric,3,3.0,19747.0,295651.0,267611.0,314244.0,276019.0
2026-04-07 17:54:21.949397,282105,1532326195,1532327003,-1.040416,0.0976,0.02928,2.61625,-3.6925,-2.84375,41.2,0.936,55.432003,concentric,3,3.0,19747.0,295651.0,267611.0,314244.0,276019.0
2026-04-07 17:54:21.956714,282106,1532340707,1532341911,-1.057984,0.121024,0.03904,2.26625,-4.2175,-2.7825,41.632004,0.28,53.888004,concentric,3,3.0,19747.0,295651.0,267611.0,314244.0,276019.0
2026-04-07 17:54:21.961908,282107,1532349746,1532350610,-1.057984,0.121024,0.03904,2.33625,-4.57625,-2.54625,41.632004,0.28,53.888004,concentric,3,3.0,19747.0,295651.0,267611.0,314244.0,276019.0
2026-04-07 17:54:22.005790,282108,1532358770,1532359387,-1.065792,0.109312,0.080032,2.35375,-5.3025,-3.12375,41.608,0.88,54.4,concentric,3,3.0,19747.0,295651.0,267611.0,314244.0,276019.0
2026-04-07 17:54:22.009320,282109,1532367927,1532370169,-1.065792,0.109312,0.080032,2.1525,-5.7575,-3.61375,41.608,0.88,54.4,concentric,3,3.0,19747.0,295651.0,267611.0,314244.0,276019.0
2026-04-07 17:54:22.011915,282110,1532382440,1532383002,-1.056032,0.0976,0.08784,1.995,-6.51875,-3.64875,41.752003,0.504,54.824,concentric,3,3.0,19747.0,295651.0,267611.0,314244.0,276019.0
2026-04-07 17:54:22.014380,282111,1532391679,1532393747,-1.056032,0.0976,0.08784,1.8025,-6.9475,-4.71625,41.752003,0.504,54.824,concentric,3,3.0,19747.0,295651.0,267611.0,314244.0,276019.0
2026-04-07 17:54:22.016885,282112,1532400601,1532402455,-1.052128,0.103456,0.083936,1.42625,-6.7725,-4.445,41.624,0.632,56.472004,concentric,3,3.0,19747.0,295651.0,267611.0,314244.0,276019.0
2026-04-07 17:54:22.041818,282122,1532415228,1532417444,-1.052128,0.13664,0.07808,1.26875,-6.72875,-3.92875,41.216003,0.816,55.112003,concentric,3,3.0,19659.0,294836.0,266959.0,313540.0,275342.0
2026-04-07 17:54:22.044420,282123,1532424245,1532426189,-1.052128,0.13664,0.07808,1.26,-7.0875,-3.96375,41.216003,0.816,55.112003,concentric,3,3.0,19659.0,294836.0,266959.0,313540.0,275342.0
2026-04-07 17:54:22.046934,282124,1532433220,1532434928,-1.052128,0.13664,0.0976,-0.0175,-6.92125,-2.38875,41.216003,0.816,55.112003,concentric,3,3.0,19659.0,294836.0,266959.0,313540.0,275342.0
2026-04-07 17:54:22.064862,282125,1532442203,1532443715,-1.042368,0.144448,0.0976,-1.0325,-6.09,-2.205,41.760002,1.248,55.56,concentric,3,3.0,19659.0,294836.0,266959.0,313540.0,275342.0
2026-04-07 17:54:22.071122,282126,1532456710,1532458623,-1.056032,0.142496,0.083936,-2.80875,-6.1425,-2.05625,41.136,1.248,55.104004,concentric,3,3.0,19659.0,294836.0,266959.0,313540.0,275342.0
2026-04-07 17:54:22.099796,282127,1532465640,1532467305,-1.056032,0.142496,0.083936,-3.2725,-6.4575,-2.86125,41.136,1.248,55.104004,concentric,3,3.0,19659.0,294836.0,266959.0,313540.0,275342.0
2026-04-07 17:54:22.104252,282128,1532474580,1532476005,-1.050176,0.113216,0.070272,-4.6025,-6.8075,-3.395,40.640003,1.192,54.632004,concentric,3,3.0,19659.0,294836.0,266959.0,313540.0,275342.0
2026-04-07 17:54:22.105706,282129,1532489033,1532490934,-1.050176,0.113216,0.070272,-6.83375,-6.055,-4.095,40.640003,1.192,54.632004,concentric,3,3.0,19659.0,294836.0,266959.0,313540.0,275342.0
2026-04-07 17:54:22.112276,282130,1532497944,1532499625,-1.056032,0.101504,0.066368,-9.6425,-5.425,-3.96375,41.088,1.152,54.920002,concentric,3,3.0,19659.0,294836.0,266959.0,313540.0,275342.0
2026-04-07 17:54:22.143393,282131,1532506870,1532508328,-1.056032,0.101504,0.066368,-9.765,-5.0575,-3.5525,41.088,1.152,54.920002,concentric,3,3.0,19659.0,294836.0,266959.0,313540.0,275342.0
2026-04-07 17:54:22.205569,282141,1532521387,1532523237,-1.042368,0.105408,0.089792,-9.77375,-5.48625,-3.28125,40.608,1.064,54.888004,concentric,3,3.0,19598.0,294485.0,266737.0,313361.0,275177.0
2026-04-07 17:54:22.208062,282142,1532530357,1532531931,-1.042368,0.105408,0.089792,-10.2725,-4.64625,-1.96,40.608,1.064,54.888004,concentric,3,3.0,19598.0,294485.0,266737.0,313361.0,275177.0
2026-04-07 17:54:22.210622,282143,1532539284,1532540597,-1.059936,0.122976,0.095648,-10.84125,-4.71625,-1.47,41.408,2.056,55.408,concentric,3,3.0,19598.0,294485.0,266737.0,313361.0,275177.0
2026-04-07 17:54:22.213107,282144,1532553822,1532555572,-1.059936,0.122976,0.089792,-11.698751,-4.12125,-1.1375,41.408,2.056,55.408,concentric,3,3.0,19598.0,294485.0,266737.0,313361.0,275177.0
2026-04-07 17:54:22.215600,282145,1532562752,1532564275,-1.067744,0.132736,0.089792,-12.69625,-3.80625,-0.79625,40.920002,1.616,55.584003,concentric,3,3.0,19598.0,294485.0,266737.0,313361.0,275177.0
2026-04-07 17:54:22.218102,282146,1532571691,1532572952,-1.067744,0.132736,0.089792,-12.83625,-3.6225,-1.295,40.920002,1.616,55.584003,concentric,3,3.0,19598.0,294485.0,266737.0,313361.0,275177.0
2026-04-07 17:54:22.220681,282147,1532580587,1532581676,-1.081408,0.130784,0.0976,-12.60875,-2.96625,-1.58375,41.616,1.784,54.728004,concentric,3,3.0,19598.0,294485.0,266737.0,313361.0,275177.0
2026-04-07 17:54:22.223108,282148,1532595079,1532596646,-1.069696,0.122976,0.10736,-11.59375,-2.3975,-2.38875,40.84,1.608,54.528004,concentric,3,3.0,19598.0,294485.0,266737.0,313361.0,275177.0
2026-04-07 17:54:22.225683,282149,1532603993,1532605387,-1.069696,0.122976,0.10736,-12.80125,-2.21375,-2.8525,40.84,1.608,54.528004,concentric,3,3.0,19598.0,294485.0,266737.0,313361.0,275177.0
2026-04-07 17:54:22.253104,282160,1532613069,1532614132,-1.069696,0.122976,0.10736,-13.76375,-1.82,-3.84125,40.84,1.608,54.528004,concentric,3,3.0,19674.0,295320.0,267439.0,314084.0,275871.0
2026-04-07 17:54:22.255619,282161,1532627681,1532629074,-1.069696,0.093696,0.099552,-15.39125,-1.89,-4.4975,41.024002,1.272,54.536003,concentric,3,3.0,19674.0,295320.0,267439.0,314084.0,275871.0
2026-04-07 17:54:22.258249,282162,1532636602,1532637823,-1.0736,0.074176,0.095648,-16.49375,-2.59875,-4.375,41.36,1.904,56.512,concentric,3,3.0,19674.0,295320.0,267439.0,314084.0,275871.0
2026-04-07 17:54:22.260659,282163,1532645600,1532646626,-1.0736,0.074176,0.095648,-15.4,-3.14125,-4.34875,41.36,1.904,56.512,concentric,3,3.0,19674.0,295320.0,267439.0,314084.0,275871.0
2026-04-07 17:54:22.275734,282164,1532655410,1532657419,-1.061888,0.095648,0.10736,-13.37,-4.19125,-3.9025,41.128002,1.912,54.888004,concentric,3,3.0,19674.0,295320.0,267439.0,314084.0,275871.0
2026-04-07 17:54:22.280689,282165,1532669882,1532670354,-1.061888,0.095648,0.10736,-11.698751,-4.54125,-3.59625,41.128002,1.912,54.888004,concentric,3,3.0,19674.0,295320.0,267439.0,314084.0,275871.0
2026-04-07 17:54:22.310813,282166,1532679297,1532681162,-1.06384,0.103456,0.113216,-10.85875,-5.215,-3.28125,40.864002,2.096,55.312004,concentric,3,3.0,19674.0,295320.0,267439.0,314084.0,275871.0
2026-04-07 17:54:22.314525,282167,1532688181,1532689846,-1.06384,0.103456,0.113216,-9.91375,-5.43375,-3.3425,40.864002,2.096,55.312004,concentric,3,3.0,19674.0,295320.0,267439.0,314084.0,275871.0
2026-04-07 17:54:22.316859,282168,1532702664,1532704777,-1.061888,0.115168,0.140544,-8.155,-5.41625,-3.57,40.264004,1.984,55.744003,concentric,3,3.0,19674.0,295320.0,267439.0,314084.0,275871.0
2026-04-07 17:54:22.346907,282178,1532712191,1532713568,-1.061888,0.115168,0.140544,-6.78125,-5.41625,-3.87625,40.264004,1.984,55.744003,concentric,3,3.0,19899.0,297274.0,269080.0,315891.0,277495.0
2026-04-07 17:54:22.349356,282179,1532721190,1532722390,-1.048224,0.099552,0.121024,-5.8275,-5.87125,-4.22625,40.728,1.816,56.888004,concentric,3,3.0,19899.0,297274.0,269080.0,315891.0,277495.0
2026-04-07 17:54:22.351849,282180,1532730106,1532731074,-1.048224,0.099552,0.121024,-4.795,-6.055,-4.06,40.728,1.816,56.888004,concentric,3,3.0,19899.0,297274.0,269080.0,315891.0,277495.0
2026-04-07 17:54:22.357309,282181,1532744563,1532746075,-1.038464,0.099552,0.099552,-4.13,-5.11,-4.19125,40.136,2.608,56.4,concentric,3,3.0,19899.0,297274.0,269080.0,315891.0,277495.0
2026-04-07 17:54:22.387120,282182,1532753485,1532754794,-1.038464,0.099552,0.099552,-3.38625,-4.17375,-4.4275,40.136,2.608,56.4,concentric,3,3.0,19899.0,297274.0,269080.0,315891.0,277495.0
2026-04-07 17:54:22.390636,282183,1532762421,1532763471,-1.04432,0.11712,0.091744,-2.1525,-3.885,-4.64625,40.4,2.424,55.184002,concentric,3,3.0,19899.0,297274.0,269080.0,315891.0,277495.0
2026-04-07 17:54:22.393178,282184,1532776864,1532778368,-1.032608,0.11712,0.105408,-0.42,-3.5175,-4.68125,40.848003,2.552,55.800003,concentric,3,3.0,19899.0,297274.0,269080.0,315891.0,277495.0
2026-04-07 17:54:22.399499,282185,1532785834,1532787104,-1.032608,0.11712,0.105408,0.14875,-3.465,-4.29625,40.848003,2.552,55.800003,concentric,3,3.0,19899.0,297274.0,269080.0,315891.0,277495.0
2026-04-07 17:54:22.405691,282186,1532794799,1532795807,-1.032608,0.11712,0.121024,1.1375,-3.47375,-4.375,40.848003,2.552,55.800003,concentric,3,3.0,19899.0,297274.0,269080.0,315891.0,277495.0
2026-04-07 17:54:22.459491,282196,1532809275,1532811039,-1.04432,0.113216,0.115168,1.8375,-2.695,-4.54125,40.624,2.352,55.688004,concentric,3,3.0,19931.0,297717.0,269447.0,316246.0,277755.0
2026-04-07 17:54:22.461898,282197,1532818192,1532819725,-1.046272,0.11712,0.109312,2.275,-2.09125,-4.2175,40.408,1.92,55.656002,concentric,3,3.0,19931.0,297717.0,269447.0,316246.0,277755.0
2026-04-07 17:54:22.464481,282198,1532827120,1532828446,-1.046272,0.11712,0.109312,3.2725,-1.995,-4.4275,40.408,1.92,55.656002,concentric,3,3.0,19931.0,297717.0,269447.0,316246.0,277755.0
2026-04-07 17:54:22.498499,282199,1532836077,1532837189,-1.065792,0.124928,0.109312,3.91125,-1.75875,-4.31375,39.976,1.92,55.688004,concentric,3,3.0,19931.0,297717.0,269447.0,316246.0,277755.0
2026-04-07 17:54:22.501983,282200,1532850661,1532852094,-1.065792,0.124928,0.109312,4.165,-1.98625,-3.64875,39.976,1.92,55.688004,concentric,3,3.0,19931.0,297717.0,269447.0,316246.0,277755.0
2026-04-07 17:54:22.504431,282201,1532859630,1532860824,-1.067744,0.115168,0.095648,4.69,-2.24,-3.1325,40.088,1.816,56.2,concentric,3,3.0,19931.0,297717.0,269447.0,316246.0,277755.0
2026-04-07 17:54:22.506919,282202,1532868615,1532869525,-1.067744,0.115168,0.095648,5.355,-1.925,-3.325,40.088,1.816,56.2,concentric,3,3.0,19931.0,297717.0,269447.0,316246.0,277755.0
2026-04-07 17:54:22.509402,282203,1532883123,1532884427,-1.071648,0.103456,0.095648,6.69375,-1.8725,-3.2375,40.656002,2.384,55.504,concentric,3,3.0,19931.0,297717.0,269447.0,316246.0,277755.0
2026-04-07 17:54:22.511901,282204,1532892112,1532893131,-1.071648,0.103456,0.095648,9.2225,-1.82875,-3.1675,40.656002,2.384,55.504,concentric,3,3.0,19931.0,297717.0,269447.0,316246.0,277755.0
2026-04-07 17:54:22.514445,282205,1532901054,1532901838,-1.067744,0.11712,0.113216,10.49125,-1.95125,-2.6775,40.984,2.112,56.2,concentric,3,3.0,19931.0,297717.0,269447.0,316246.0,277755.0
2026-04-07 17:54:22.571840,282216,1532916157,1532916824,-1.056032,0.12688,0.130784,11.03375,-2.24875,-1.715,40.984,1.728,56.312004,concentric,3,3.0,20001.0,298295.0,269927.0,316797.0,278176.0
2026-04-07 17:54:22.574415,282217,1532925429,1532927610,-1.056032,0.12688,0.130784,11.41,-2.82625,-0.7875,40.072002,1.728,56.312004,concentric,3,3.0,20001.0,298295.0,269927.0,316797.0,278176.0
2026-04-07 17:54:22.576889,282218,1532934342,1532936290,-1.056032,0.12688,0.130784,10.823751,-2.87875,-0.2975,40.072002,1.728,56.312004,concentric,3,3.0,20001.0,298295.0,269927.0,316797.0,278176.0
2026-04-07 17:54:22.579547,282219,1532943276,1532945008,-1.057984,0.132736,0.134688,10.5875,-3.35125,0.35,40.104,1.312,57.288002,concentric,3,3.0,20001.0,298295.0,269927.0,316797.0,278176.0
2026-04-07 17:54:22.581960,282220,1532957999,1532959946,-1.038464,0.13664,0.124928,11.92625,-3.6225,0.3325,40.272003,1.232,57.008003,concentric,3,3.0,20001.0,298295.0,269927.0,316797.0,278176.0
2026-04-07 17:54:22.584465,282221,1532966948,1532968709,-1.038464,0.13664,0.124928,13.76375,-4.05125,0.4725,40.272003,1.232,57.008003,concentric,3,3.0,20001.0,298295.0,269927.0,316797.0,278176.0
2026-04-07 17:54:22.588119,282222,1532975903,1532977467,-1.038464,0.152256,0.12688,16.59,-3.57875,0.60375,40.272003,1.232,57.008003,concentric,3,3.0,20001.0,298295.0,269927.0,316797.0,278176.0
2026-04-07 17:54:22.618300,282223,1532990370,1532992366,-1.026752,0.144448,0.12688,18.24375,-3.75375,0.35,40.192,0.944,57.584003,concentric,3,3.0,20001.0,298295.0,269927.0,316797.0,278176.0
2026-04-07 17:54:22.621899,282224,1532999304,1533001090,-1.01504,0.138592,0.162016,17.21125,-3.5,-0.07,39.872,0.904,56.784004,concentric,3,3.0,20001.0,298295.0,269927.0,316797.0,278176.0
2026-04-07 17:54:22.624401,282225,1533008267,1533009788,-1.01504,0.138592,0.162016,15.417501,-2.975,-0.76125,39.872,0.904,56.784004,concentric,3,3.0,20001.0,298295.0,269927.0,316797.0,278176.0
2026-04-07 17:54:22.649334,282235,1533017449,1533018550,-1.098976,0.072224,0.201056,12.6,-3.43875,-1.00625,40.024002,1.088,58.408,concentric,3,3.0,19937.0,297938.0,269700.0,316634.0,278039.0
2026-04-07 17:54:22.651873,282236,1533032065,1533033481,-1.098976,0.072224,0.201056,10.0625,-4.2525,-2.0125,40.024002,1.088,58.408,concentric,3,3.0,19937.0,297938.0,269700.0,316634.0,278039.0
2026-04-07 17:54:22.654346,282237,1533041050,1533042198,-1.167296,0.064416,0.171776,5.92375,-3.3075,-3.885,39.480003,0.736,58.152004,concentric,3,3.0,19937.0,297938.0,269700.0,316634.0,278039.0
2026-04-07 17:54:22.685550,282238,1533050145,1533050943,-1.167296,0.064416,0.171776,6.405,-4.305,-2.98375,39.480003,0.736,58.152004,concentric,3,3.0,19937.0,297938.0,269700.0,316634.0,278039.0
2026-04-07 17:54:22.690005,282239,1533065219,1533065838,-0.962336,0.140544,0.119072,12.53,-7.0,-1.5575,39.896004,0.512,57.368004,concentric,3,3.0,19937.0,297938.0,269700.0,316634.0,278039.0
2026-04-07 17:54:22.692428,282240,1533074438,1533076597,-0.962336,0.140544,0.119072,15.16375,-7.25375,-0.32375,39.896004,0.512,57.368004,concentric,3,3.0,19937.0,297938.0,269700.0,316634.0,278039.0
2026-04-07 17:54:22.697755,282241,1533083396,1533085349,-0.950624,0.177632,0.132736,14.35,-6.99125,-0.69125,39.336002,0.464,57.136,concentric,3,3.0,19937.0,297938.0,269700.0,316634.0,278039.0
2026-04-07 17:54:22.708214,282242,1533092345,1533094092,-0.950624,0.177632,0.132736,12.20625,-6.16,-0.70875,39.336002,0.464,57.136,concentric,3,3.0,19937.0,297938.0,269700.0,316634.0,278039.0
2026-04-07 17:54:22.738484,282243,1533106856,1533109002,-0.98576,0.179584,0.142496,10.115,-4.6025,-1.5225,39.744003,0.448,58.056004,concentric,3,3.0,19937.0,297938.0,269700.0,316634.0,278039.0
2026-04-07 17:54:22.764287,282253,1533116053,1533117711,-0.98576,0.179584,0.142496,6.79,-3.05375,-3.21125,39.744003,0.448,58.056004,concentric,3,3.0,19922.0,297732.0,269569.0,316529.0,277971.0
2026-04-07 17:54:22.800707,282254,1533125005,1533126482,-1.038464,0.167872,0.132736,2.52875,-1.19,-5.03125,39.648003,0.448,57.832005,concentric,3,3.0,19922.0,297732.0,269569.0,316529.0,277971.0
2026-04-07 17:54:22.804673,282255,1533139611,1533141488,-1.026752,0.140544,0.099552,-0.11375,0.4375,-6.22125,39.312,0.12,59.776,concentric,3,3.0,19922.0,297732.0,269569.0,316529.0,277971.0
2026-04-07 17:54:22.807036,282256,1533148540,1533150232,-1.026752,0.140544,0.099552,-2.345,2.31,-7.55125,39.312,0.12,59.776,concentric,3,3.0,19922.0,297732.0,269569.0,316529.0,277971.0
2026-04-07 17:54:22.809525,282257,1533157558,1533159050,-1.038464,0.105408,0.089792,-4.34,4.10375,-8.75,39.352,0.104,61.440002,concentric,3,3.0,19922.0,297732.0,269569.0,316529.0,277971.0
2026-04-07 17:54:22.812038,282258,1533166498,1533167778,-1.038464,0.105408,0.089792,-4.165,4.99625,-8.77625,39.352,0.104,61.440002,concentric,3,3.0,19922.0,297732.0,269569.0,316529.0,277971.0
2026-04-07 17:54:22.814427,282259,1533181052,1533182686,-1.04432,0.109312,0.115168,-2.45,5.635,-8.3475,39.736,0.392,57.424004,concentric,3,3.0,19922.0,297732.0,269569.0,316529.0,277971.0
2026-04-07 17:54:22.816887,282260,1533189995,1533191386,-1.04432,0.109312,0.115168,-0.88375,5.88875,-7.6475,39.736,0.392,57.424004,concentric,3,3.0,19922.0,297732.0,269569.0,316529.0,277971.0
2026-04-07 17:54:22.819600,282261,1533199020,1533200119,-1.036512,0.128832,0.124928,-0.70875,6.1775,-6.7025,40.208,0.448,57.744003,concentric,3,3.0,19922.0,297732.0,269569.0,316529.0,277971.0
2026-04-07 17:54:22.846964,282271,1533214097,1533215432,-1.036512,0.128832,0.124928,-1.88125,6.29125,-5.20625,40.208,0.448,57.744003,concentric,3,3.0,20008.0,298467.0,270189.0,317231.0,278654.0
2026-04-07 17:54:22.849449,282272,1533223331,1533224231,-1.05408,0.132736,0.124928,-4.55875,6.97375,-4.725,39.72,-0.048,57.680004,concentric,3,3.0,20008.0,298467.0,270189.0,317231.0,278654.0
2026-04-07 17:54:22.851874,282273,1533232328,1533232934,-1.05408,0.132736,0.124928,-7.6125,6.7725,-4.52375,39.72,-0.048,57.680004,concentric,3,3.0,20008.0,298467.0,270189.0,317231.0,278654.0
2026-04-07 17:54:22.854376,282274,1533241561,1533243720,-1.040416,0.13664,0.128832,-9.7475,6.9125,-4.2,39.656002,0.0,58.024002,concentric,3,3.0,20008.0,298467.0,270189.0,317231.0,278654.0
2026-04-07 17:54:22.887050,282275,1533256044,1533256614,-1.040416,0.13664,0.128832,-10.57875,7.21,-4.725,39.656002,0.0,58.024002,concentric,3,3.0,20008.0,298467.0,270189.0,317231.0,278654.0
2026-04-07 17:54:22.890669,282276,1533265230,1533267376,-1.052128,0.132736,0.119072,-11.2175,7.28,-4.92625,40.056004,1.056,57.656002,concentric,3,3.0,20008.0,298467.0,270189.0,317231.0,278654.0
2026-04-07 17:54:22.893145,282277,1533274160,1533276053,-1.052128,0.132736,0.119072,-12.6875,7.315,-4.9175,40.056004,1.056,57.656002,concentric,3,3.0,20008.0,298467.0,270189.0,317231.0,278654.0
2026-04-07 17:54:22.923380,282278,1533288688,1533290911,-1.046272,0.119072,0.128832,-14.0875,7.18375,-4.89125,39.832,0.712,57.624004,concentric,3,3.0,20008.0,298467.0,270189.0,317231.0,278654.0
2026-04-07 17:54:22.927472,282279,1533297649,1533299602,-1.042368,0.122976,0.134688,-14.63875,7.3325,-5.32875,39.832,0.712,55.872,concentric,3,3.0,20008.0,298467.0,270189.0,317231.0,278654.0
2026-04-07 17:54:22.930043,282280,1533306570,1533308275,-1.042368,0.122976,0.134688,-14.81375,7.30625,-5.9675,40.048,1.12,55.872,concentric,3,3.0,20008.0,298467.0,270189.0,317231.0,278654.0
2026-04-07 17:54:22.960638,282291,1533315639,1533317033,-1.042368,0.122976,0.134688,-15.05,7.39375,-6.25625,40.048,1.12,55.872,concentric,3,3.0,19938.0,298034.0,269848.0,316900.0,278349.0
2026-04-07 17:54:22.963118,282292,1533330284,1533332055,-1.05408,0.113216,0.132736,-15.2075,7.69125,-6.92125,40.760002,1.256,57.952003,concentric,3,3.0,19938.0,298034.0,269848.0,316900.0,278349.0
2026-04-07 17:54:22.965588,282293,1533339234,1533340772,-1.05408,0.11712,0.138592,-14.63,8.23375,-6.79875,40.088,1.08,57.04,concentric,3,3.0,19938.0,298034.0,269848.0,316900.0,278349.0
2026-04-07 17:54:22.968073,282294,1533348218,1533349495,-1.05408,0.11712,0.138592,-14.02625,8.155,-6.9825,40.088,1.08,57.04,concentric,3,3.0,19938.0,298034.0,269848.0,316900.0,278349.0
2026-04-07 17:54:22.975708,282295,1533362723,1533364451,-1.057984,0.12688,0.140544,-15.198751,8.32125,-7.20125,39.624,1.728,58.624004,concentric,3,3.0,19938.0,298034.0,269848.0,316900.0,278349.0
2026-04-07 17:54:22.983297,282296,1533371739,1533373124,-1.057984,0.12688,0.140544,-16.68625,8.47,-6.69375,39.624,1.728,58.624004,concentric,3,3.0,19938.0,298034.0,269848.0,316900.0,278349.0
2026-04-07 17:54:23.013379,282297,1533380679,1533381845,-1.048224,0.122976,0.144448,-18.61125,8.575,-6.50125,39.904003,1.816,58.912003,concentric,3,3.0,19938.0,298034.0,269848.0,316900.0,278349.0
2026-04-07 17:54:23.017118,282298,1533395165,1533396741,-1.048224,0.122976,0.144448,-20.2125,8.19,-6.60625,39.904003,1.816,58.912003,concentric,3,3.0,19938.0,298034.0,269848.0,316900.0,278349.0
2026-04-07 17:54:23.019385,282299,1533404095,1533405422,-1.059936,0.11712,0.130784,-20.055,8.28625,-6.64125,40.56,1.784,57.064003,concentric,3,3.0,19938.0,298034.0,269848.0,316900.0,278349.0
2026-04-07 17:54:23.046863,282309,1533413035,1533414538,-1.059936,0.11712,0.130784,-19.897501,8.636251,-6.72,40.56,1.784,57.064003,concentric,3,3.0,19862.0,297208.0,269112.0,316055.0,277547.0
2026-04-07 17:54:23.049461,282310,1533422096,1533423291,-1.036512,0.113216,0.134688,-18.515,8.07625,-6.83375,40.016003,1.688,58.264004,concentric,3,3.0,19862.0,297208.0,269112.0,316055.0,277547.0
2026-04-07 17:54:23.051887,282311,1533436649,1533438249,-1.036512,0.113216,0.134688,-16.91375,7.315,-6.3175,40.016003,1.688,58.264004,concentric,3,3.0,19862.0,297208.0,269112.0,316055.0,277547.0
2026-04-07 17:54:23.058339,282312,1533445578,1533446978,-1.050176,0.121024,0.119072,-16.45875,7.77,-6.53625,40.592003,2.248,57.112003,concentric,3,3.0,19862.0,297208.0,269112.0,316055.0,277547.0
2026-04-07 17:54:23.099271,282313,1533454469,1533455697,-1.050176,0.121024,0.119072,-16.1175,8.30375,-6.83375,40.592003,2.248,57.112003,concentric,3,3.0,19862.0,297208.0,269112.0,316055.0,277547.0
2026-04-07 17:54:23.103790,282314,1533469046,1533470665,-1.04432,0.10736,0.115168,-15.35625,8.88125,-7.21,40.336002,3.008,56.528004,concentric,3,3.0,19862.0,297208.0,269112.0,316055.0,277547.0
2026-04-07 17:54:23.105327,282315,1533477954,1533479362,-1.04432,0.10736,0.142496,-14.323751,9.065,-7.79625,40.336002,3.008,56.528004,concentric,3,3.0,19862.0,297208.0,269112.0,316055.0,277547.0
2026-04-07 17:54:23.107844,282316,1533486869,1533488043,-1.056032,0.119072,0.142496,-12.69625,9.35375,-7.875,40.488003,2.72,53.776,concentric,3,3.0,19862.0,297208.0,269112.0,316055.0,277547.0
2026-04-07 17:54:23.137149,282317,1533501439,1533502953,-1.052128,0.111264,0.150304,-11.15625,9.37125,-7.35,40.872,2.776,56.296,concentric,3,3.0,19862.0,297208.0,269112.0,316055.0,277547.0
2026-04-07 17:54:23.140776,282318,1533510391,1533511679,-1.052128,0.111264,0.150304,-11.19125,9.415,-6.86,40.872,2.776,56.296,concentric,3,3.0,19862.0,297208.0,269112.0,316055.0,277547.0
2026-04-07 17:54:23.165560,282328,1533519416,1533520455,-1.06384,0.0976,0.128832,-11.261251,9.59875,-6.5275,40.776,2.768,56.08,concentric,3,3.0,19798.0,296409.0,268445.0,315281.0,276845.0
2026-04-07 17:54:23.168104,282329,1533533893,1533535447,-1.06384,0.0976,0.128832,-9.695,9.75625,-6.58875,40.776,2.768,56.08,concentric,3,3.0,19798.0,296409.0,268445.0,315281.0,276845.0
2026-04-07 17:54:23.170670,282330,1533542860,1533544204,-1.061888,0.109312,0.113216,-7.11375,9.511251,-7.5425,40.68,2.776,58.04,concentric,3,3.0,19798.0,296409.0,268445.0,315281.0,276845.0
2026-04-07 17:54:23.173100,282331,1533551790,1533552903,-1.061888,0.109312,0.113216,-5.88875,9.28375,-8.505,40.68,2.776,58.04,concentric,3,3.0,19798.0,296409.0,268445.0,315281.0,276845.0
2026-04-07 17:54:23.175685,282332,1533560759,1533561651,-1.057984,0.132736,0.130784,-4.29625,9.5375,-8.75,40.528004,2.632,59.680004,concentric,3,3.0,19798.0,296409.0,268445.0,315281.0,276845.0
2026-04-07 17:54:23.205774,282333,1533575245,1533576609,-1.057984,0.132736,0.130784,-4.2525,8.84625,-8.82,40.528004,2.632,59.680004,concentric,3,3.0,19798.0,296409.0,268445.0,315281.0,276845.0
2026-04-07 17:54:23.209344,282334,1533584124,1533585289,-1.057984,0.095648,0.138592,-4.90875,9.073751,-8.4875,41.52,2.76,56.704002,concentric,3,3.0,19798.0,296409.0,268445.0,315281.0,276845.0
2026-04-07 17:54:23.211916,282335,1533593030,1533593960,-1.057984,0.095648,0.138592,-5.15375,9.03,-8.5225,41.52,2.76,56.704002,concentric,3,3.0,19798.0,296409.0,268445.0,315281.0,276845.0
2026-04-07 17:54:23.242113,282336,1533607530,1533608912,-1.059936,0.076128,0.132736,-3.91125,8.435,-8.3825,41.768,3.248,56.368004,concentric,3,3.0,19798.0,296409.0,268445.0,315281.0,276845.0
2026-04-07 17:54:23.298287,282347,1533616986,1533617667,-1.059936,0.076128,0.132736,-1.4,8.72375,-8.46125,41.768,3.248,56.368004,concentric,3,3.0,19774.0,296339.0,268379.0,315174.0,276675.0
2026-04-07 17:54:23.300737,282348,1533626292,1533628460,-1.061888,0.103456,0.134688,-0.1925,8.88125,-8.95125,41.84,2.864,55.584003,concentric,3,3.0,19774.0,296339.0,268379.0,315174.0,276675.0
2026-04-07 17:54:23.303401,282349,1533635211,1533637138,-1.061888,0.103456,0.134688,-0.21875,8.7325,-8.4525,41.84,2.864,55.584003,concentric,3,3.0,19774.0,296339.0,268379.0,315174.0,276675.0
2026-04-07 17:54:23.305629,282350,1533649738,1533650111,-1.075552,0.10736,0.119072,-0.525,8.26875,-8.2425,40.944,2.936,56.256004,concentric,3,3.0,19774.0,296339.0,268379.0,315174.0,276675.0
2026-04-07 17:54:23.308109,282351,1533659068,1533660891,-1.075552,0.105408,0.132736,-1.2425,8.1025,-8.02375,40.944,2.936,56.256004,concentric,3,3.0,19774.0,296339.0,268379.0,315174.0,276675.0
2026-04-07 17:54:23.310600,282352,1533667995,1533669576,-1.0736,0.105408,0.132736,-1.33875,7.67375,-8.00625,41.104,2.864,57.128002,concentric,3,3.0,19774.0,296339.0,268379.0,315174.0,276675.0
2026-04-07 17:54:23.313176,282353,1533682459,1533684513,-1.08336,0.091744,0.115168,-0.27125,7.21875,-8.68,40.984,2.92,56.792004,concentric,3,3.0,19774.0,296339.0,268379.0,315174.0,276675.0
2026-04-07 17:54:23.316016,282354,1533691373,1533693215,-1.08336,0.091744,0.115168,-0.735,7.49,-8.7325,40.984,2.92,56.792004,concentric,3,3.0,19774.0,296339.0,268379.0,315174.0,276675.0
2026-04-07 17:54:23.318516,282355,1533700277,1533701928,-1.089216,0.0976,0.128832,0.315,6.99125,-8.44375,41.136,3.184,56.616,concentric,3,3.0,19774.0,296339.0,268379.0,315174.0,276675.0
2026-04-07 17:54:23.404338,282365,1533714772,1533716941,-1.089216,0.0976,0.128832,1.5575,6.65875,-8.47,41.136,3.184,56.616,concentric,3,3.0,19668.0,295398.0,267637.0,314450.0,276078.0
2026-04-07 17:54:23.406850,282366,1533723684,1533725717,-1.095072,0.099552,0.134688,2.0125,6.475,-8.645,41.048,2.8,56.088,concentric,3,3.0,19668.0,295398.0,267637.0,314450.0,276078.0
2026-04-07 17:54:23.409419,282367,1533732607,1533734444,-1.095072,0.099552,0.134688,3.15,6.1075,-8.89875,41.048,2.8,56.088,concentric,3,3.0,19668.0,295398.0,267637.0,314450.0,276078.0
2026-04-07 17:54:23.411863,282368,1533741517,1533743134,-1.09312,0.10736,0.140544,3.75375,6.195,-7.9275,41.256,3.008,55.904003,concentric,3,3.0,19668.0,295398.0,267637.0,314450.0,276078.0
2026-04-07 17:54:23.414386,282369,1533756037,1533758050,-1.09312,0.10736,0.140544,3.50875,6.3,-7.735,41.256,3.008,55.904003,concentric,3,3.0,19668.0,295398.0,267637.0,314450.0,276078.0
2026-04-07 17:54:23.416847,282370,1533765005,1533766783,-1.081408,0.0976,0.13664,2.9225,6.405,-8.1025,41.312,3.152,57.192,concentric,3,3.0,19668.0,295398.0,267637.0,314450.0,276078.0
2026-04-07 17:54:23.419431,282371,1533773926,1533775497,-1.081408,0.0976,0.13664,2.0825,6.43125,-7.77875,41.312,3.152,57.192,concentric,3,3.0,19668.0,295398.0,267637.0,314450.0,276078.0
2026-04-07 17:54:23.421849,282372,1533788404,1533790388,-1.089216,0.103456,0.142496,1.5225,6.4925,-7.77,41.264004,3.152,56.72,concentric,3,3.0,19668.0,295398.0,267637.0,314450.0,276078.0
2026-04-07 17:54:23.424341,282373,1533797374,1533799095,-1.089216,0.103456,0.142496,1.26875,6.50125,-7.315,41.264004,3.152,56.72,concentric,3,3.0,19668.0,295398.0,267637.0,314450.0,276078.0
2026-04-07 17:54:23.426939,282374,1533806343,1533807822,-1.087264,0.109312,0.142496,0.69125,6.125,-6.9475,41.192,3.088,57.544003,concentric,3,3.0,19668.0,295398.0,267637.0,314450.0,276078.0
2026-04-07 17:54:23.454301,282384,1533820988,1533822912,-1.0736,0.105408,0.119072,0.51625,5.5475,-6.78125,41.256,2.888,56.784004,concentric,3,3.0,19481.0,293787.0,266390.0,313192.0,274922.0
2026-04-07 17:54:23.456852,282385,1533830145,1533831680,-1.0736,0.105408,0.119072,0.81375,5.22375,-7.14,41.256,2.888,56.784004,concentric,3,3.0,19481.0,293787.0,266390.0,313192.0,274922.0
2026-04-07 17:54:23.459598,282386,1533839146,1533840492,-1.0736,0.105408,0.119072,1.32125,5.11875,-8.417501,41.256,2.888,56.784004,concentric,3,3.0,19481.0,293787.0,266390.0,313192.0,274922.0
2026-04-07 17:54:23.461901,282387,1533848099,1533849210,-1.085312,0.10736,0.121024,3.2025,5.32875,-7.95375,41.312,2.848,57.576004,concentric,3,3.0,19481.0,293787.0,266390.0,313192.0,274922.0
2026-04-07 17:54:23.494586,282388,1533862613,1533864116,-1.081408,0.115168,0.128832,4.71625,5.0925,-8.2775,40.992,2.992,57.072002,concentric,3,3.0,19481.0,293787.0,266390.0,313192.0,274922.0
2026-04-07 17:54:23.498169,282389,1533871531,1533872810,-1.081408,0.115168,0.128832,3.99875,4.9,-8.82,40.992,2.992,57.072002,concentric,3,3.0,19481.0,293787.0,266390.0,313192.0,274922.0
2026-04-07 17:54:23.500639,282390,1533880473,1533881540,-1.065792,0.0976,0.130784,2.52875,4.43625,-8.86375,40.992,3.344,56.912003,concentric,3,3.0,19481.0,293787.0,266390.0,313192.0,274922.0
2026-04-07 17:54:23.511095,282391,1533894980,1533896557,-1.065792,0.0976,0.130784,1.855,4.235,-8.82,41.336002,3.344,56.912003,concentric,3,3.0,19481.0,293787.0,266390.0,313192.0,274922.0
2026-04-07 17:54:23.517327,282392,1533903930,1533905296,-1.065792,0.091744,0.113216,0.81375,3.5,-8.93375,41.832,3.336,56.192,concentric,3,3.0,19481.0,293787.0,266390.0,313192.0,274922.0
2026-04-07 17:54:23.545834,282393,1533912875,1533914007,-1.065792,0.091744,0.113216,-0.65625,3.815,-9.0825,41.832,3.336,56.192,concentric,3,3.0,19481.0,293787.0,266390.0,313192.0,274922.0
2026-04-07 17:54:23.574447,282404,1533927416,1533928931,-1.057984,0.091744,0.105408,-0.84,4.36625,-8.40875,42.04,3.312,56.384003,concentric,3,3.0,19423.0,293100.0,265859.0,312640.0,274419.0
2026-04-07 17:54:23.578651,282405,1533936336,1533937617,-1.057984,0.091744,0.105408,-0.88375,4.15625,-7.98875,42.04,3.312,56.384003,concentric,3,3.0,19423.0,293100.0,265859.0,312640.0,274419.0
2026-04-07 17:54:23.580373,282406,1533945316,1533946416,-1.06384,0.109312,0.122976,0.77875,3.50875,-7.6125,41.688004,2.584,56.688004,concentric,3,3.0,19423.0,293100.0,265859.0,312640.0,274419.0
2026-04-07 17:54:23.582021,282407,1533959835,1533961369,-1.06384,0.109312,0.122976,2.73,3.4825,-7.5775,41.688004,2.584,56.688004,concentric,3,3.0,19423.0,293100.0,265859.0,312640.0,274419.0
2026-04-07 17:54:23.586083,282408,1533968836,1533970116,-1.06384,0.111264,0.134688,2.82625,3.08875,-7.8575,41.984,3.4,55.992004,concentric,3,3.0,19423.0,293100.0,265859.0,312640.0,274419.0
2026-04-07 17:54:23.592333,282409,1533977787,1533978892,-1.06384,0.111264,0.134688,2.24875,3.56125,-7.7,41.984,3.4,55.992004,concentric,3,3.0,19423.0,293100.0,265859.0,312640.0,274419.0
2026-04-07 17:54:23.620963,282410,1533986726,1533987570,-1.059936,0.099552,0.122976,0.30625,3.66625,-7.65625,41.704002,3.416,56.872,concentric,3,3.0,19423.0,293100.0,265859.0,312640.0,274419.0
2026-04-07 17:54:23.626179,282411,1534001248,1534002491,-1.069696,0.093696,0.089792,-1.93375,4.59375,-7.84,41.888,3.12,56.08,concentric,3,3.0,19423.0,293100.0,265859.0,312640.0,274419.0
2026-04-07 17:54:23.627936,282412,1534010143,1534011231,-1.069696,0.093696,0.089792,-2.275,5.0225,-7.84,41.888,3.12,56.08,concentric,3,3.0,19423.0,293100.0,265859.0,312640.0,274419.0
2026-04-07 17:54:23.655346,282422,1534019377,1534020047,-1.069696,0.093696,0.089792,-2.1525,4.7425,-7.5425,41.888,3.12,56.08,concentric,3,3.0,19441.0,293233.0,265925.0,312735.0,274511.0
2026-04-07 17:54:23.656918,282423,1534034385,1534035057,-1.059936,0.08784,0.105408,-0.74375,4.0775,-7.74375,41.416,3.016,55.744003,concentric,3,3.0,19441.0,293233.0,265925.0,312735.0,274511.0
2026-04-07 17:54:23.661031,282424,1534043768,1534045856,-1.061888,0.085888,0.119072,0.76125,3.6925,-7.30625,41.632004,3.176,56.168003,concentric,3,3.0,19441.0,293233.0,265925.0,312735.0,274511.0
2026-04-07 17:54:23.667587,282425,1534052730,1534054571,-1.061888,0.085888,0.119072,0.945,3.75375,-7.55125,41.632004,3.176,56.168003,concentric,3,3.0,19441.0,293233.0,265925.0,312735.0,274511.0
2026-04-07 17:54:23.700697,282426,1534061661,1534063266,-1.042368,0.08784,0.121024,0.98,3.17625,-7.245,41.032,3.504,56.872,concentric,3,3.0,19441.0,293233.0,265925.0,312735.0,274511.0
2026-04-07 17:54:23.703107,282427,1534076168,1534078150,-1.042368,0.08784,0.121024,1.12875,3.2375,-7.0175,41.032,3.504,56.872,concentric,3,3.0,19441.0,293233.0,265925.0,312735.0,274511.0
2026-04-07 17:54:23.707434,282428,1534085124,1534086851,-1.028704,0.089792,0.105408,0.90125,3.535,-6.60625,41.816,3.064,56.912003,concentric,3,3.0,19441.0,293233.0,265925.0,312735.0,274511.0
2026-04-07 17:54:23.709024,282429,1534094051,1534095542,-1.028704,0.089792,0.105408,-0.02625,3.7625,-6.90375,41.816,3.064,56.912003,concentric,3,3.0,19441.0,293233.0,265925.0,312735.0,274511.0
2026-04-07 17:54:23.738315,282430,1534108651,1534110436,-1.03456,0.109312,0.111264,-0.035,4.20875,-6.72875,41.288002,2.52,57.640003,concentric,3,3.0,19441.0,293233.0,265925.0,312735.0,274511.0
2026-04-07 17:54:23.764293,282440,1534118059,1534119174,-1.03456,0.109312,0.111264,0.35875,3.6225,-7.0175,41.288002,2.52,57.640003,concentric,3,3.0,19372.0,292865.0,265683.0,312520.0,274311.0
2026-04-07 17:54:23.766854,282441,1534127143,1534127880,-1.030656,0.105408,0.115168,-0.09625,3.3775,-7.07,41.288002,3.032,56.312004,concentric,3,3.0,19372.0,292865.0,265683.0,312520.0,274311.0
2026-04-07 17:54:23.769363,282442,1534136524,1534138724,-1.030656,0.105408,0.115168,-0.7,3.84125,-7.28,41.288002,3.032,56.312004,concentric,3,3.0,19372.0,292865.0,265683.0,312520.0,274311.0
2026-04-07 17:54:23.771877,282443,1534151097,1534151630,-1.052128,0.093696,0.103456,-1.435,4.57625,-7.55125,41.256,3.488,57.648003,concentric,3,3.0,19372.0,292865.0,265683.0,312520.0,274311.0
2026-04-07 17:54:23.774357,282444,1534160531,1534162406,-1.052128,0.093696,0.103456,-0.5775,4.8475,-7.8575,41.256,3.488,57.648003,concentric,3,3.0,19372.0,292865.0,265683.0,312520.0,274311.0
2026-04-07 17:54:23.804582,282445,1534169484,1534171135,-1.059936,0.076128,0.101504,0.39375,5.0575,-8.25125,40.984,3.304,56.848003,concentric,3,3.0,19372.0,292865.0,265683.0,312520.0,274311.0
2026-04-07 17:54:23.808131,282446,1534178414,1534179852,-1.059936,0.076128,0.101504,1.82,4.795,-8.4525,40.984,3.304,56.848003,concentric,3,3.0,19372.0,292865.0,265683.0,312520.0,274311.0
2026-04-07 17:54:23.810654,282447,1534192902,1534194766,-1.085312,0.080032,0.10736,2.9925,4.9,-8.085,41.976,2.792,56.416004,concentric,3,3.0,19372.0,292865.0,265683.0,312520.0,274311.0
2026-04-07 17:54:23.819413,282448,1534201837,1534203452,-1.091168,0.095648,0.11712,3.91125,4.52375,-6.88625,41.976,2.976,56.320004,concentric,3,3.0,19372.0,292865.0,265683.0,312520.0,274311.0
2026-04-07 17:54:23.824417,282449,1534210784,1534212174,-1.091168,0.095648,0.11712,3.955,4.165,-6.475,41.800003,2.976,56.320004,concentric,3,3.0,19372.0,292865.0,265683.0,312520.0,274311.0
2026-04-07 17:54:23.854285,282460,1534225356,1534227200,-1.081408,0.083936,0.105408,3.6925,3.70125,-6.11625,41.952003,3.16,57.384003,concentric,3,3.0,19366.0,292774.0,265662.0,312535.0,274323.0
2026-04-07 17:54:23.856881,282461,1534234320,1534235899,-1.081408,0.083936,0.105408,3.31625,3.63125,-5.78375,41.952003,3.16,57.384003,concentric,3,3.0,19366.0,292774.0,265662.0,312535.0,274323.0
2026-04-07 17:54:23.859601,282462,1534243265,1534244615,-1.079456,0.080032,0.101504,3.40375,4.305,-5.3725,41.552002,3.088,58.224003,concentric,3,3.0,19366.0,292774.0,265662.0,312535.0,274323.0
2026-04-07 17:54:23.889571,282463,1534257843,1534259499,-1.079456,0.080032,0.101504,3.84125,4.655,-5.46875,41.552002,3.088,58.224003,concentric,3,3.0,19366.0,292774.0,265662.0,312535.0,274323.0
2026-04-07 17:54:23.893164,282464,1534266774,1534268205,-1.069696,0.081984,0.101504,4.22625,4.55875,-5.4775,42.144,3.424,56.800003,concentric,3,3.0,19366.0,292774.0,265662.0,312535.0,274323.0
2026-04-07 17:54:23.895653,282465,1534275672,1534276912,-1.069696,0.081984,0.101504,5.145,4.4275,-5.2675,42.144,3.424,56.800003,concentric,3,3.0,19366.0,292774.0,265662.0,312535.0,274323.0
2026-04-07 17:54:23.925776,282466,1534290240,1534291839,-1.075552,0.0976,0.119072,6.0725,4.75125,-4.865,41.192,2.952,56.728004,concentric,3,3.0,19366.0,292774.0,265662.0,312535.0,274323.0
2026-04-07 17:54:23.930238,282467,1534299171,1534300554,-1.075552,0.0976,0.119072,6.36125,4.45375,-4.64625,41.192,2.952,56.728004,concentric,3,3.0,19366.0,292774.0,265662.0,312535.0,274323.0
2026-04-07 17:54:23.969694,282468,1534308030,1534309245,-1.075552,0.093696,0.111264,5.15375,4.5675,-4.89125,42.112003,3.336,56.432003,concentric,3,3.0,19366.0,292774.0,265662.0,312535.0,274323.0
2026-04-07 17:54:24.007613,282469,1534316929,1534317995,-1.075552,0.093696,0.111264,4.03375,4.655,-4.82125,42.112003,3.336,56.432003,concentric,3,3.0,19366.0,292774.0,265662.0,312535.0,274323.0
2026-04-07 17:54:24.034119,282479,1534331449,1534332925,-1.08336,0.085888,0.105408,4.13,4.75125,-5.27625,41.216003,2.664,58.4,concentric,3,3.0,19353.0,292781.0,265668.0,312536.0,274302.0
2026-04-07 17:54:24.036190,282480,1534340372,1534341632,-1.08336,0.085888,0.105408,5.41625,5.25875,-5.45125,41.216003,2.664,58.4,concentric,3,3.0,19353.0,292781.0,265668.0,312536.0,274302.0
2026-04-07 17:54:24.039137,282481,1534349253,1534350285,-1.0736,0.091744,0.111264,6.18625,5.45125,-6.1075,42.184002,3.088,55.552002,concentric,3,3.0,19353.0,292781.0,265668.0,312536.0,274302.0
2026-04-07 17:54:24.040663,282482,1534363890,1534365212,-1.069696,0.076128,0.119072,4.9525,4.97875,-5.87125,41.912003,3.056,57.896004,concentric,3,3.0,19353.0,292781.0,265668.0,312536.0,274302.0
2026-04-07 17:54:24.044911,282483,1534372819,1534373946,-1.069696,0.076128,0.119072,4.22625,5.18,-5.62625,41.912003,3.056,57.896004,concentric,3,3.0,19353.0,292781.0,265668.0,312536.0,274302.0
2026-04-07 17:54:24.046693,282484,1534381720,1534382640,-1.069696,0.076128,0.119072,3.94625,5.03125,-4.8475,41.912003,3.056,57.896004,concentric,3,3.0,19353.0,292781.0,265668.0,312536.0,274302.0
2026-04-07 17:54:24.048161,282485,1534396176,1534397514,-1.065792,0.076128,0.103456,4.5325,5.20625,-4.47125,41.952003,2.68,56.832005,concentric,3,3.0,19353.0,292781.0,265668.0,312536.0,274302.0
2026-04-07 17:54:24.052364,282486,1534405214,1534406228,-1.08336,0.085888,0.11712,4.36625,5.45125,-4.48875,41.72,2.496,58.024002,concentric,3,3.0,19353.0,292781.0,265668.0,312536.0,274302.0
2026-04-07 17:54:24.054106,282487,1534414142,1534414966,-1.08336,0.085888,0.11712,4.375,4.8825,-4.7075,41.72,2.496,58.024002,concentric,3,3.0,19353.0,292781.0,265668.0,312536.0,274302.0
2026-04-07 17:54:24.082839,282497,1534428833,1534430360,-1.0736,0.0976,0.109312,4.5325,5.005,-4.36625,41.896004,2.264,57.816,concentric,3,3.0,19333.0,292538.0,265510.0,312400.0,274208.0
2026-04-07 17:54:24.084406,282498,1534437761,1534439116,-1.0736,0.0976,0.109312,3.31625,4.9525,-3.7625,41.896004,2.264,57.816,concentric,3,3.0,19333.0,292538.0,265510.0,312400.0,274208.0
2026-04-07 17:54:24.091169,282499,1534446749,1534447881,-1.075552,0.091744,0.10736,2.8525,5.08375,-4.235,41.488003,2.488,57.784004,concentric,3,3.0,19333.0,292538.0,265510.0,312400.0,274208.0
2026-04-07 17:54:24.093854,282500,1534455812,1534456668,-1.075552,0.091744,0.10736,2.38875,4.3575,-4.90875,41.488003,2.488,57.784004,concentric,3,3.0,19333.0,292538.0,265510.0,312400.0,274208.0
2026-04-07 17:54:24.100034,282501,1534470295,1534471597,-1.0736,0.085888,0.113216,2.79125,4.7425,-4.9175,42.208,2.872,57.224003,concentric,3,3.0,19333.0,292538.0,265510.0,312400.0,274208.0
2026-04-07 17:54:24.101718,282502,1534479226,1534480311,-1.0736,0.085888,0.113216,2.7125,4.90875,-4.7775,42.208,2.872,57.224003,concentric,3,3.0,19333.0,292538.0,265510.0,312400.0,274208.0
2026-04-07 17:54:24.103827,282503,1534488214,1534489049,-1.079456,0.072224,0.10736,1.67125,4.935,-4.78625,42.784,2.808,56.536003,concentric,3,3.0,19333.0,292538.0,265510.0,312400.0,274208.0
2026-04-07 17:54:24.134615,282504,1534502746,1534504041,-1.079456,0.083936,0.113216,1.44375,4.90875,-5.1975,42.784,2.808,56.536003,concentric,3,3.0,19333.0,292538.0,265510.0,312400.0,274208.0
2026-04-07 17:54:24.138079,282505,1534511697,1534512769,-1.08336,0.083936,0.113216,1.575,5.27625,-5.10125,42.456,2.896,60.264004,concentric,3,3.0,19333.0,292538.0,265510.0,312400.0,274208.0
2026-04-07 17:54:24.165517,282516,1534521243,1534521601,-1.08336,0.083936,0.113216,1.89,5.53,-5.18875,42.456,2.896,60.264004,concentric,3,3.0,19334.0,292589.0,265539.0,312400.0,274235.0
2026-04-07 17:54:24.168078,282517,1534530496,1534532382,-1.075552,0.095648,0.121024,0.91875,5.48625,-5.32,41.36,2.432,56.888004,concentric,3,3.0,19334.0,292589.0,265539.0,312400.0,274235.0
2026-04-07 17:54:24.170610,282518,1534545064,1534547367,-1.075552,0.091744,0.10736,0.00875,5.45125,-5.18,41.328003,2.728,58.128002,concentric,3,3.0,19334.0,292589.0,265539.0,312400.0,274235.0
2026-04-07 17:54:24.173089,282519,1534553982,1534556095,-1.075552,0.091744,0.10736,0.35,5.705,-5.5125,41.328003,2.728,58.128002,concentric,3,3.0,19334.0,292589.0,265539.0,312400.0,274235.0
2026-04-07 17:54:24.176831,282520,1534562990,1534564813,-1.075552,0.08784,0.105408,0.16625,5.6525,-6.16875,41.328003,2.728,58.128002,concentric,3,3.0,19334.0,292589.0,265539.0,312400.0,274235.0
2026-04-07 17:54:24.207069,282521,1534577482,1534579798,-1.098976,0.08784,0.105408,-0.105,6.04625,-6.58875,41.320004,2.56,57.88,concentric,3,3.0,19334.0,292589.0,265539.0,312400.0,274235.0
2026-04-07 17:54:24.210647,282522,1534586366,1534588480,-1.095072,0.08784,0.115168,0.4025,6.4225,-7.035,42.288002,2.688,56.792004,concentric,3,3.0,19334.0,292589.0,265539.0,312400.0,274235.0
2026-04-07 17:54:24.213154,282523,1534595300,1534597161,-1.095072,0.08784,0.115168,0.7875,6.1775,-6.86875,42.288002,2.688,56.792004,concentric,3,3.0,19334.0,292589.0,265539.0,312400.0,274235.0
2026-04-07 17:54:24.243288,282524,1534609826,1534612069,-1.09312,0.072224,0.11712,0.2625,6.16875,-6.97375,42.016003,2.696,57.464005,concentric,3,3.0,19334.0,292589.0,265539.0,312400.0,274235.0
2026-04-07 17:54:24.306831,282534,1534618748,1534620959,-1.09312,0.072224,0.11712,-0.98,6.27375,-7.51625,42.016003,2.696,57.464005,concentric,3,3.0,19318.0,292337.0,265297.0,312118.0,274032.0
2026-04-07 17:54:24.309419,282535,1534627680,1534629661,-1.071648,0.074176,0.109312,-1.2775,6.1425,-7.21875,42.472,2.824,56.600002,concentric,3,3.0,19318.0,292337.0,265297.0,312118.0,274032.0
2026-04-07 17:54:24.311887,282536,1534636606,1534638427,-1.071648,0.074176,0.109312,-0.84875,5.845,-6.79,42.472,2.824,56.600002,concentric,3,3.0,19318.0,292337.0,265297.0,312118.0,274032.0
2026-04-07 17:54:24.314432,282537,1534651109,1534651454,-1.081408,0.081984,0.105408,-0.455,5.74,-6.3525,42.760002,3.176,57.192,concentric,3,3.0,19318.0,292337.0,265297.0,312118.0,274032.0
2026-04-07 17:54:24.316826,282538,1534660454,1534662227,-1.081408,0.081984,0.105408,-0.84875,6.37875,-6.8425,42.760002,3.176,57.192,concentric,3,3.0,19318.0,292337.0,265297.0,312118.0,274032.0
2026-04-07 17:54:24.319409,282539,1534669449,1534670923,-1.09312,0.0976,0.109312,-0.39375,6.32625,-6.30875,42.584003,2.432,56.4,concentric,3,3.0,19318.0,292337.0,265297.0,312118.0,274032.0
2026-04-07 17:54:24.321862,282540,1534683936,1534685883,-1.085312,0.085888,0.10736,-0.0175,6.2475,-6.48375,42.584003,3.16,57.472004,concentric,3,3.0,19318.0,292337.0,265297.0,312118.0,274032.0
2026-04-07 17:54:24.324390,282541,1534692964,1534694582,-1.085312,0.085888,0.10736,0.81375,6.06375,-6.825,42.392002,3.16,57.472004,concentric,3,3.0,19318.0,292337.0,265297.0,312118.0,274032.0
2026-04-07 17:54:24.326838,282542,1534701891,1534703297,-1.085312,0.085888,0.10736,1.28625,6.16,-7.30625,42.392002,3.16,57.472004,concentric,3,3.0,19318.0,292337.0,265297.0,312118.0,274032.0
2026-04-07 17:54:24.329354,282543,1534716422,1534718205,-1.075552,0.076128,0.113216,1.295,6.055,-7.9275,41.992,2.672,57.408,concentric,3,3.0,19318.0,292337.0,265297.0,312118.0,274032.0
2026-04-07 17:54:24.359335,282553,1534725510,1534726959,-1.069696,0.074176,0.105408,1.1375,6.02875,-7.6825,41.920002,2.6,57.488003,concentric,3,3.0,19307.0,292194.0,265133.0,311919.0,273829.0
2026-04-07 17:54:24.361867,282554,1534734481,1534735726,-1.069696,0.074176,0.105408,0.74375,5.97625,-7.245,41.920002,2.6,57.488003,concentric,3,3.0,19307.0,292194.0,265133.0,311919.0,273829.0
2026-04-07 17:54:24.364469,282555,1534743408,1534744489,-1.069696,0.074176,0.105408,0.49,6.125,-6.95625,41.920002,2.6,57.488003,concentric,3,3.0,19307.0,292194.0,265133.0,311919.0,273829.0
2026-04-07 17:54:24.373104,282556,1534758001,1534759408,-1.065792,0.070272,0.101504,0.21875,6.02,-6.86,41.600002,2.616,56.424004,concentric,3,3.0,19307.0,292194.0,265133.0,311919.0,273829.0
2026-04-07 17:54:24.379389,282557,1534766899,1534768089,-1.056032,0.070272,0.081984,0.84,5.36375,-6.37,42.816,2.744,56.528004,concentric,3,3.0,19307.0,292194.0,265133.0,311919.0,273829.0
2026-04-07 17:54:24.409469,282558,1534775890,1534776824,-1.056032,0.070272,0.081984,1.35625,5.0225,-6.16,42.816,2.744,56.528004,concentric,3,3.0,19307.0,292194.0,265133.0,311919.0,273829.0
2026-04-07 17:54:24.413104,282559,1534790397,1534791741,-1.059936,0.083936,0.109312,1.60125,4.69,-6.58875,42.68,3.104,56.648003,concentric,3,3.0,19307.0,292194.0,265133.0,311919.0,273829.0
2026-04-07 17:54:24.415617,282560,1534799300,1534800429,-1.059936,0.083936,0.109312,2.42375,4.655,-6.34375,42.68,3.104,56.648003,concentric,3,3.0,19307.0,292194.0,265133.0,311919.0,273829.0
2026-04-07 17:54:24.420768,282561,1534808263,1534809121,-1.046272,0.081984,0.113216,2.2575,4.445,-6.02,42.432003,2.944,56.376003,concentric,3,3.0,19307.0,292194.0,265133.0,311919.0,273829.0
2026-04-07 17:54:24.476878,282572,1534822950,1534824298,-1.046272,0.081984,0.113216,2.205,4.06875,-5.8275,42.432003,2.944,56.376003,concentric,3,3.0,19424.0,293160.0,265916.0,312714.0,274506.0
2026-04-07 17:54:24.479445,282573,1534831995,1534833034,-1.046272,0.080032,0.113216,1.47,4.1125,-6.2475,42.600002,2.856,55.288002,concentric,3,3.0,19424.0,293160.0,265916.0,312714.0,274506.0
2026-04-07 17:54:24.481874,282574,1534841059,1534841757,-1.046272,0.080032,0.113216,1.33,3.9375,-6.545,42.600002,2.856,55.288002,concentric,3,3.0,19424.0,293160.0,265916.0,312714.0,274506.0
2026-04-07 17:54:24.484367,282575,1534850510,1534852528,-1.0248,0.07808,0.095648,1.11125,3.885,-6.5625,42.032,2.984,56.424004,concentric,3,3.0,19424.0,293160.0,265916.0,312714.0,274506.0
2026-04-07 17:54:24.486866,282576,1534865073,1534867382,-1.028704,0.070272,0.076128,-0.58625,4.62,-6.69375,41.576,3.048,55.296,concentric,3,3.0,19424.0,293160.0,265916.0,312714.0,274506.0
2026-04-07 17:54:24.489337,282577,1534874100,1534876115,-1.028704,0.070272,0.076128,-2.10875,5.48625,-6.5625,41.576,3.048,55.296,concentric,3,3.0,19424.0,293160.0,265916.0,312714.0,274506.0
2026-04-07 17:54:24.495585,282578,1534883053,1534884872,-1.028704,0.070272,0.076128,-1.7675,5.29375,-6.04625,41.576,3.048,55.296,concentric,3,3.0,19424.0,293160.0,265916.0,312714.0,274506.0
2026-04-07 17:54:24.525904,282579,1534897558,1534899763,-1.011136,0.06832,0.091744,-1.07625,5.1275,-6.50125,41.784,2.608,57.200005,concentric,3,3.0,19424.0,293160.0,265916.0,312714.0,274506.0
2026-04-07 17:54:24.529409,282580,1534906479,1534908454,-1.016992,0.083936,0.109312,-0.4025,5.10125,-6.90375,42.296,2.448,56.872,concentric,3,3.0,19424.0,293160.0,265916.0,312714.0,274506.0
2026-04-07 17:54:24.531998,282581,1534915405,1534917179,-1.016992,0.083936,0.109312,-0.385,5.01375,-6.65,42.296,2.448,56.872,concentric,3,3.0,19424.0,293160.0,265916.0,312714.0,274506.0
2026-04-07 17:54:24.620677,282591,1534924541,1534925914,-1.016992,0.083936,0.07808,-1.4,5.52125,-6.51875,42.296,2.448,56.872,concentric,3,3.0,19436.0,293395.0,266213.0,313103.0,274815.0
2026-04-07 17:54:24.623165,282592,1534939110,1534940816,-1.04432,0.085888,0.07808,-3.38625,5.74875,-6.7375,41.920002,3.224,57.480003,concentric,3,3.0,19436.0,293395.0,266213.0,313103.0,274815.0
2026-04-07 17:54:24.625710,282593,1534948036,1534949512,-1.065792,0.083936,0.07808,-4.29625,5.565,-8.2075,42.624,2.968,56.696003,concentric,3,3.0,19436.0,293395.0,266213.0,313103.0,274815.0
2026-04-07 17:54:24.628112,282594,1534956960,1534958201,-1.065792,0.083936,0.07808,-1.995,6.125,-9.0825,42.624,2.968,56.696003,concentric,3,3.0,19436.0,293395.0,266213.0,313103.0,274815.0
2026-04-07 17:54:24.630601,282595,1534971451,1534973114,-1.071648,0.08784,0.08784,-0.2275,6.01125,-9.6425,42.624,3.376,55.976,concentric,3,3.0,19436.0,293395.0,266213.0,313103.0,274815.0
2026-04-07 17:54:24.633102,282596,1534980371,1534981829,-1.071648,0.08784,0.08784,2.24875,5.29375,-9.3275,42.624,3.376,55.976,concentric,3,3.0,19436.0,293395.0,266213.0,313103.0,274815.0
2026-04-07 17:54:24.635602,282597,1534989291,1534990532,-1.06384,0.081984,0.08784,2.835,4.64625,-8.505,42.072002,3.016,57.656002,concentric,3,3.0,19436.0,293395.0,266213.0,313103.0,274815.0
2026-04-07 17:54:24.638102,282598,1535003867,1535005463,-1.06384,0.081984,0.08784,0.84,4.5675,-8.12875,42.072002,3.016,57.656002,concentric,3,3.0,19436.0,293395.0,266213.0,313103.0,274815.0
2026-04-07 17:54:24.640674,282599,1535012813,1535014169,-1.071648,0.062464,0.064416,-0.9275,5.425,-8.575,42.536003,2.808,56.024002,concentric,3,3.0,19436.0,293395.0,266213.0,313103.0,274815.0
2026-04-07 17:54:24.673109,282609,1535021752,1535023233,-1.071648,0.062464,0.064416,-0.23625,5.39875,-8.82875,42.536003,2.808,56.024002,concentric,3,3.0,19482.0,293976.0,266662.0,313570.0,275237.0
2026-04-07 17:54:24.675622,282610,1535030782,1535031989,-1.08336,0.074176,0.091744,0.4025,5.17125,-8.61875,41.944,2.864,57.712,concentric,3,3.0,19482.0,293976.0,266662.0,313570.0,275237.0
2026-04-07 17:54:24.679186,282611,1535045308,1535046919,-1.08336,0.0976,0.091744,1.89875,5.18,-8.155,41.944,2.864,57.600002,concentric,3,3.0,19482.0,293976.0,266662.0,313570.0,275237.0
2026-04-07 17:54:24.680612,282612,1535054342,1535055628,-1.085312,0.0976,0.091744,2.555,4.71625,-7.51625,42.4,2.768,57.600002,concentric,3,3.0,19482.0,293976.0,266662.0,313570.0,275237.0
2026-04-07 17:54:24.683079,282613,1535063273,1535064394,-1.085312,0.0976,0.091744,2.40625,5.32,-7.525,42.4,2.768,57.600002,concentric,3,3.0,19482.0,293976.0,266662.0,313570.0,275237.0
2026-04-07 17:54:24.714270,282614,1535077788,1535079325,-1.10288,0.085888,0.093696,2.28375,6.0725,-7.63,42.336002,3.104,56.792004,concentric,3,3.0,19482.0,293976.0,266662.0,313570.0,275237.0
2026-04-07 17:54:24.716530,282615,1535086750,1535088031,-1.089216,0.07808,0.066368,2.82625,6.09,-7.735,43.216003,3.368,56.656002,concentric,3,3.0,19482.0,293976.0,266662.0,313570.0,275237.0
2026-04-07 17:54:24.721146,282616,1535095660,1535096745,-1.089216,0.07808,0.066368,3.3075,6.08125,-8.4,43.216003,3.368,56.656002,concentric,3,3.0,19482.0,293976.0,266662.0,313570.0,275237.0
2026-04-07 17:54:24.722726,282617,1535110126,1535111608,-1.095072,0.060512,0.074176,2.3975,6.22125,-8.40875,42.448,3.496,56.504,concentric,3,3.0,19482.0,293976.0,266662.0,313570.0,275237.0
2026-04-07 17:54:24.752378,282618,1535119122,1535120319,-1.095072,0.060512,0.074176,2.695,6.265,-8.2425,42.448,3.496,56.504,concentric,3,3.0,19482.0,293976.0,266662.0,313570.0,275237.0
2026-04-07 17:54:24.780630,282629,1535128117,1535129066,-1.081408,0.064416,0.083936,3.75375,6.055,-7.945,42.552002,3.032,56.440002,concentric,3,3.0,19539.0,294200.0,266791.0,313632.0,275322.0
2026-04-07 17:54:24.783095,282630,1535142630,1535144019,-1.081408,0.064416,0.083936,4.05125,6.09,-7.0175,42.552002,3.032,56.440002,concentric,3,3.0,19539.0,294200.0,266791.0,313632.0,275322.0
2026-04-07 17:54:24.785693,282631,1535151608,1535152722,-1.067744,0.062464,0.0976,3.12375,6.2125,-6.58,42.912003,3.064,56.496002,concentric,3,3.0,19539.0,294200.0,266791.0,313632.0,275322.0
2026-04-07 17:54:24.788101,282632,1535160523,1535161440,-1.067744,0.062464,0.0976,2.2575,6.29125,-6.7375,42.912003,3.064,56.496002,concentric,3,3.0,19539.0,294200.0,266791.0,313632.0,275322.0
2026-04-07 17:54:24.790601,282633,1535169530,1535170215,-1.067744,0.080032,0.095648,1.89,6.3,-6.16,42.504,3.256,57.592003,concentric,3,3.0,19539.0,294200.0,266791.0,313632.0,275322.0
2026-04-07 17:54:24.796867,282634,1535184435,1535185172,-1.067744,0.080032,0.095648,2.16125,6.615,-5.915,42.504,3.256,57.592003,concentric,3,3.0,19539.0,294200.0,266791.0,313632.0,275322.0
2026-04-07 17:54:24.827101,282635,1535193864,1535195975,-1.08336,0.095648,0.076128,1.56625,6.36125,-6.37,42.624,2.696,58.744003,concentric,3,3.0,19539.0,294200.0,266791.0,313632.0,275322.0
2026-04-07 17:54:24.830575,282636,1535202778,1535204681,-1.08336,0.095648,0.076128,1.5225,6.20375,-6.5625,42.624,2.696,58.744003,concentric,3,3.0,19539.0,294200.0,266791.0,313632.0,275322.0
2026-04-07 17:54:24.833085,282637,1535211698,1535213367,-1.077504,0.074176,0.07808,2.0825,5.92375,-6.02,43.08,2.944,56.304,concentric,3,3.0,19539.0,294200.0,266791.0,313632.0,275322.0
2026-04-07 17:54:24.858132,282647,1535226325,1535228577,-1.069696,0.05856,0.089792,3.12375,6.06375,-6.39625,43.08,2.944,57.536003,concentric,3,3.0,19491.0,293818.0,266416.0,313175.0,274888.0
2026-04-07 17:54:24.860604,282648,1535235313,1535237352,-1.069696,0.05856,0.089792,3.63125,6.1075,-6.88625,42.2,3.152,57.536003,concentric,3,3.0,19491.0,293818.0,266416.0,313175.0,274888.0
2026-04-07 17:54:24.863136,282649,1535244233,1535246088,-1.069696,0.05856,0.089792,2.84375,6.02,-7.595,42.2,3.152,57.536003,concentric,3,3.0,19491.0,293818.0,266416.0,313175.0,274888.0
2026-04-07 17:54:24.900946,282650,1535258757,1535261018,-1.05408,0.072224,0.105408,2.47625,6.1075,-6.5625,42.352,3.24,59.672005,concentric,3,3.0,19491.0,293818.0,266416.0,313175.0,274888.0
2026-04-07 17:54:24.904491,282651,1535267680,1535269744,-1.071648,0.08784,0.0976,0.84,6.9825,-6.0725,42.528004,2.664,57.800003,concentric,3,3.0,19491.0,293818.0,266416.0,313175.0,274888.0
2026-04-07 17:54:24.906893,282652,1535276578,1535278439,-1.071648,0.08784,0.0976,0.245,6.92125,-5.7575,42.528004,2.664,57.800003,concentric,3,3.0,19491.0,293818.0,266416.0,313175.0,274888.0
2026-04-07 17:54:24.909383,282653,1535291061,1535293340,-1.106784,0.109312,0.07808,-0.00875,6.755,-5.78375,43.336002,3.376,56.168003,concentric,3,3.0,19491.0,293818.0,266416.0,313175.0,274888.0
2026-04-07 17:54:24.913051,282654,1535299999,1535302042,-1.106784,0.109312,0.07808,0.49,6.72875,-6.1775,43.336002,3.376,56.168003,concentric,3,3.0,19491.0,293818.0,266416.0,313175.0,274888.0
2026-04-07 17:54:24.920708,282655,1535308958,1535310753,-1.147776,0.109312,0.072224,1.75875,6.92125,-7.02625,43.04,3.136,56.184002,concentric,3,3.0,19491.0,293818.0,266416.0,313175.0,274888.0
2026-04-07 17:54:24.974413,282665,1535323451,1535325640,-1.147776,0.109312,0.072224,2.98375,6.92125,-8.11125,43.04,3.136,56.184002,concentric,3,3.0,19406.0,293099.0,265874.0,312624.0,274436.0
2026-04-07 17:54:24.978775,282666,1535332438,1535334373,-1.175104,0.081984,0.103456,5.0225,7.21875,-8.86375,42.664,3.352,55.600002,concentric,3,3.0,19406.0,293099.0,265874.0,312624.0,274436.0
2026-04-07 17:54:24.980421,282667,1535341360,1535343055,-1.175104,0.081984,0.103456,6.685,7.7,-9.72125,42.664,3.352,55.600002,concentric,3,3.0,19406.0,293099.0,265874.0,312624.0,274436.0
2026-04-07 17:54:24.982842,282668,1535350304,1535351784,-1.206336,0.083936,0.11712,7.67375,7.93625,-9.40625,42.016003,2.608,57.656002,concentric,3,3.0,19406.0,293099.0,265874.0,312624.0,274436.0
2026-04-07 17:54:24.985361,282669,1535364827,1535366773,-1.206336,0.083936,0.11712,6.02,8.435,-8.75,42.016003,2.608,57.656002,concentric,3,3.0,19406.0,293099.0,265874.0,312624.0,274436.0
2026-04-07 17:54:24.986868,282670,1535373771,1535375503,-1.22,0.072224,0.113216,3.64875,8.54875,-8.25125,43.392002,3.296,58.160004,concentric,3,3.0,19406.0,293099.0,265874.0,312624.0,274436.0
2026-04-07 17:54:25.017920,282671,1535382731,1535384212,-1.22,0.072224,0.113216,1.75,9.03,-7.5775,43.392002,3.296,58.160004,concentric,3,3.0,19406.0,293099.0,265874.0,312624.0,274436.0
2026-04-07 17:54:25.022431,282672,1535397192,1535399111,-1.245376,0.074176,0.089792,0.67375,9.00375,-7.14,42.84,3.208,57.264004,concentric,3,3.0,19406.0,293099.0,265874.0,312624.0,274436.0
2026-04-07 17:54:25.024062,282673,1535406102,1535407792,-1.245376,0.074176,0.089792,0.39375,8.77625,-5.99375,42.84,3.208,57.264004,concentric,3,3.0,19406.0,293099.0,265874.0,312624.0,274436.0
2026-04-07 17:54:25.028568,282674,1535415047,1535416544,-1.255136,0.091744,0.07808,0.875,8.96,-4.8475,43.528004,3.448,56.600002,concentric,3,3.0,19406.0,293099.0,265874.0,312624.0,274436.0
2026-04-07 17:54:25.083152,282685,1535429679,1535431786,-1.241472,0.095648,0.095648,0.91,8.5925,-4.13875,43.368004,3.184,55.944004,concentric,3,3.0,19396.0,292993.0,265772.0,312558.0,274433.0
2026-04-07 17:54:25.087462,282686,1535438619,1535440477,-1.241472,0.095648,0.095648,2.12625,8.93375,-3.71,43.368004,3.184,55.944004,concentric,3,3.0,19396.0,292993.0,265772.0,312558.0,274433.0
2026-04-07 17:54:25.089101,282687,1535447570,1535449156,-1.24928,0.093696,0.122976,3.73625,8.7325,-3.9025,43.296,3.144,55.992004,concentric,3,3.0,19396.0,292993.0,265772.0,312558.0,274433.0
2026-04-07 17:54:25.090651,282688,1535462057,1535464052,-1.24928,0.093696,0.122976,5.88875,8.9075,-4.445,43.296,3.144,55.992004,concentric,3,3.0,19396.0,292993.0,265772.0,312558.0,274433.0
2026-04-07 17:54:25.094893,282689,1535471002,1535472763,-1.262944,0.105408,0.103456,7.09625,9.292501,-4.9875,43.800003,3.272,55.632004,concentric,3,3.0,19396.0,292993.0,265772.0,312558.0,274433.0
2026-04-07 17:54:25.096570,282690,1535480035,1535481497,-1.262944,0.105408,0.103456,6.195,9.555,-5.4775,43.800003,3.272,55.632004,concentric,3,3.0,19396.0,292993.0,265772.0,312558.0,274433.0
2026-04-07 17:54:25.103613,282691,1535489027,1535490254,-1.24928,0.095648,0.0976,4.5675,9.37125,-5.4425,43.120003,3.032,56.800003,concentric,3,3.0,19396.0,292993.0,265772.0,312558.0,274433.0
2026-04-07 17:54:25.132037,282692,1535503527,1535505131,-1.24928,0.095648,0.0976,1.82,10.115,-5.27625,43.120003,3.032,56.800003,concentric,3,3.0,19396.0,292993.0,265772.0,312558.0,274433.0
2026-04-07 17:54:25.136629,282693,1535512527,1535513903,-1.24928,0.074176,0.091744,0.16625,10.49125,-5.66125,43.672,3.56,55.592003,concentric,3,3.0,19396.0,292993.0,265772.0,312558.0,274433.0
2026-04-07 17:54:25.138094,282694,1535521455,1535522592,-1.24928,0.074176,0.091744,0.4725,10.5525,-5.73125,43.672,3.56,55.592003,concentric,3,3.0,19396.0,292993.0,265772.0,312558.0,274433.0
2026-04-07 17:54:25.164944,282704,1535536081,1535537565,-1.231712,0.091744,0.091744,1.42625,10.77125,-6.1075,43.432003,3.68,56.88,concentric,3,3.0,19447.0,293273.0,265901.0,312600.0,274456.0
2026-04-07 17:54:25.166731,282705,1535545019,1535546294,-1.231712,0.091744,0.091744,1.155,10.99,-5.83625,43.432003,3.68,56.88,concentric,3,3.0,19447.0,293273.0,265901.0,312600.0,274456.0
2026-04-07 17:54:25.203280,282706,1535553965,1535555115,-1.22976,0.093696,0.085888,0.455,10.66625,-4.78625,42.88,3.248,56.784004,eccentric,3,3.0,19447.0,293273.0,265901.0,312600.0,274456.0
2026-04-07 17:54:25.209431,282707,1535568524,1535570103,-1.22976,0.095648,0.07808,0.27125,11.06875,-3.8675,43.56,4.184,55.424004,eccentric,3,3.0,19447.0,293273.0,265901.0,312600.0,274456.0
2026-04-07 17:54:25.211892,282708,1535577444,1535578787,-1.22976,0.095648,0.07808,-0.06125,11.1475,-3.70125,43.56,4.184,55.424004,eccentric,3,3.0,19447.0,293273.0,265901.0,312600.0,274456.0
2026-04-07 17:54:25.214359,282709,1535586370,1535587484,-1.22976,0.095648,0.07808,-0.21875,11.025,-3.82375,43.56,4.184,55.424004,eccentric,3,3.0,19447.0,293273.0,265901.0,312600.0,274456.0
2026-04-07 17:54:25.216866,282710,1535595294,1535596198,-1.225856,0.111264,0.08784,-0.3675,11.3925,-3.26375,43.232002,3.368,55.672,eccentric,3,3.0,19447.0,293273.0,265901.0,312600.0,274456.0
2026-04-07 17:54:25.222065,282711,1535609998,1535611112,-1.223904,0.111264,0.080032,-2.72125,11.8125,-2.9225,43.608,3.912,55.08,eccentric,3,3.0,19447.0,293273.0,265901.0,312600.0,274456.0
2026-04-07 17:54:25.252267,282712,1535618951,1535619860,-1.223904,0.111264,0.080032,-6.11625,11.4275,-2.77375,43.608,3.912,55.08,eccentric,3,3.0,19447.0,293273.0,265901.0,312600.0,274456.0
2026-04-07 17:54:25.288161,282722,1535628377,1535628763,-1.218048,0.0976,0.064416,-7.98875,10.92,-2.19625,43.544003,4.184,54.144,eccentric,3,3.0,19459.0,293183.0,265767.0,312352.0,274249.0
2026-04-07 17:54:25.290598,282723,1535643298,1535643702,-1.218048,0.0976,0.064416,-8.91625,10.96375,-1.93375,43.544003,4.184,54.144,eccentric,3,3.0,19459.0,293183.0,265767.0,312352.0,274249.0
2026-04-07 17:54:25.293141,282724,1535652771,1535654511,-1.221952,0.091744,0.052704,-9.695,10.85,-2.35375,43.304,3.968,57.088,eccentric,3,3.0,19459.0,293183.0,265767.0,312352.0,274249.0
2026-04-07 17:54:25.298335,282725,1535661746,1535663268,-1.221952,0.091744,0.052704,-10.815,10.5525,-1.61875,43.304,3.968,57.088,eccentric,3,3.0,19459.0,293183.0,265767.0,312352.0,274249.0
2026-04-07 17:54:25.300795,282726,1535672105,1535674058,-1.214144,0.093696,0.056608,-11.03375,10.8325,-1.0325,43.840004,4.664,54.616,eccentric,3,3.0,19459.0,293183.0,265767.0,312352.0,274249.0
2026-04-07 17:54:25.303351,282727,1535681100,1535682787,-1.214144,0.093696,0.056608,-10.3775,10.6225,-0.56,43.840004,4.664,54.616,eccentric,3,3.0,19459.0,293183.0,265767.0,312352.0,274249.0
2026-04-07 17:54:25.308148,282728,1535695672,1535697783,-1.22,0.091744,0.027328,-10.47375,9.61625,0.1575,42.864002,4.56,55.928,eccentric,3,3.0,19459.0,293183.0,265767.0,312352.0,274249.0
2026-04-07 17:54:25.338380,282729,1535704693,1535706475,-1.22,0.091744,0.027328,-11.19125,8.75,0.70875,42.864002,4.56,55.928,eccentric,3,3.0,19459.0,293183.0,265767.0,312352.0,274249.0
2026-04-07 17:54:25.342004,282730,1535713677,1535715186,-1.204384,0.08784,0.035136,-10.75375,8.30375,1.00625,43.616,4.704,54.512,eccentric,3,3.0,19459.0,293183.0,265767.0,312352.0,274249.0
2026-04-07 17:54:25.373096,282741,1535728623,1535730158,-1.204384,0.085888,0.027328,-10.68375,7.5775,0.8925,43.616,4.336,56.368004,eccentric,3,3.0,19500.0,293405.0,265869.0,312399.0,274320.0
2026-04-07 17:54:25.375625,282742,1535737622,1535738917,-1.208288,0.085888,0.027328,-10.815,6.3875,1.49625,43.192,4.336,56.368004,eccentric,3,3.0,19500.0,293405.0,265869.0,312399.0,274320.0
2026-04-07 17:54:25.378287,282743,1535746646,1535747637,-1.208288,0.085888,0.027328,-11.47125,4.97,2.24,43.192,4.336,56.368004,eccentric,3,3.0,19500.0,293405.0,265869.0,312399.0,274320.0
2026-04-07 17:54:25.380667,282744,1535755755,1535756363,-1.204384,0.0976,0.037088,-11.1475,3.955,3.43,43.064003,4.984,55.600002,eccentric,3,3.0,19500.0,293405.0,265869.0,312399.0,274320.0
2026-04-07 17:54:25.383179,282745,1535770618,1535771282,-1.188768,0.083936,0.044896,-11.85625,2.77375,3.955,43.296,4.736,55.224003,eccentric,3,3.0,19500.0,293405.0,265869.0,312399.0,274320.0
2026-04-07 17:54:25.414231,282746,1535779945,1535782101,-1.188768,0.083936,0.044896,-13.0725,1.7325,4.90875,43.296,4.736,55.224003,eccentric,3,3.0,19500.0,293405.0,265869.0,312399.0,274320.0
2026-04-07 17:54:25.418646,282747,1535788882,1535790800,-1.18096,0.085888,0.035136,-14.16625,1.4,5.4425,43.576,5.384,54.624004,eccentric,3,3.0,19500.0,293405.0,265869.0,312399.0,274320.0
2026-04-07 17:54:25.420250,282748,1535797809,1535799476,-1.18096,0.085888,0.035136,-14.77,0.8925,5.55625,43.576,5.384,54.624004,eccentric,3,3.0,19500.0,293405.0,265869.0,312399.0,274320.0
2026-04-07 17:54:25.427260,282749,1535812333,1535814364,-1.139968,0.085888,0.011712,-14.90125,0.34125,5.495,43.776,5.552,54.04,eccentric,3,3.0,19500.0,293405.0,265869.0,312399.0,274320.0
2026-04-07 17:54:25.455884,282750,1535821284,1535823107,-1.139968,0.085888,0.011712,-15.05875,-0.28,4.9525,43.776,5.552,54.04,eccentric,3,3.0,19500.0,293405.0,265869.0,312399.0,274320.0
2026-04-07 17:54:25.522291,282760,1535830629,1535831888,-1.098976,0.085888,0.003904,-16.695,-0.8225,5.145,43.248,5.936,53.144,eccentric,3,3.0,19738.0,295435.0,267475.0,314048.0,275844.0
2026-04-07 17:54:25.528676,282761,1535845132,1535846939,-1.098976,0.085888,0.003904,-18.4275,-0.5775,4.33125,43.248,5.936,53.144,eccentric,3,3.0,19738.0,295435.0,267475.0,314048.0,275844.0
2026-04-07 17:54:25.530354,282762,1535854142,1535855677,-1.085312,0.091744,0.01952,-19.74,-0.84875,3.92875,43.68,5.32,53.104004,eccentric,3,3.0,19738.0,295435.0,267475.0,314048.0,275844.0
2026-04-07 17:54:25.531930,282763,1535863182,1535864387,-1.085312,0.091744,0.01952,-20.22125,-1.19875,3.745,43.68,5.32,53.104004,eccentric,3,3.0,19738.0,295435.0,267475.0,314048.0,275844.0
2026-04-07 17:54:25.536159,282764,1535877667,1535879295,-1.067744,0.093696,0.033184,-19.635,-1.6975,3.96375,43.280003,5.8,53.608,eccentric,3,3.0,19738.0,295435.0,267475.0,314048.0,275844.0
2026-04-07 17:54:25.538007,282765,1535886589,1535888025,-1.067744,0.093696,0.033184,-19.69625,-1.6275,4.76,43.280003,5.8,53.608,eccentric,3,3.0,19738.0,295435.0,267475.0,314048.0,275844.0
2026-04-07 17:54:25.539619,282766,1535895533,1535896727,-1.077504,0.083936,0.033184,-19.4775,-1.58375,3.78875,43.712,6.152,52.848003,eccentric,3,3.0,19738.0,295435.0,267475.0,314048.0,275844.0
2026-04-07 17:54:25.543700,282767,1535904466,1535905525,-1.077504,0.083936,0.033184,-17.64875,-2.1,3.6225,43.712,6.152,52.848003,eccentric,3,3.0,19738.0,295435.0,267475.0,314048.0,275844.0
2026-04-07 17:54:25.545433,282768,1535919048,1535920503,-1.079456,0.101504,0.00976,-13.83375,-2.45875,2.8525,43.328003,5.832,52.456,eccentric,3,3.0,19738.0,295435.0,267475.0,314048.0,275844.0
2026-04-07 17:54:25.574155,282778,1535928091,1535929167,-1.079456,0.101504,0.00976,-11.33125,-2.42375,1.65375,43.328003,5.832,52.456,eccentric,3,3.0,19961.0,297595.0,269306.0,316102.0,277688.0
2026-04-07 17:54:25.575728,282779,1535937147,1535937940,-1.087264,0.103456,-0.007808,-9.33625,-2.03,0.28875,42.472,6.048,53.848003,eccentric,3,3.0,19961.0,297595.0,269306.0,316102.0,277688.0
2026-04-07 17:54:25.578191,282780,1535952244,1535952903,-1.104832,0.10736,0.001952,-8.04125,-1.84625,-1.23375,42.04,6.856,54.496002,eccentric,3,3.0,19961.0,297595.0,269306.0,316102.0,277688.0
2026-04-07 17:54:25.581531,282781,1535961573,1535963677,-1.104832,0.10736,0.001952,-4.31375,-1.4,-2.8,42.04,6.856,54.496002,eccentric,3,3.0,19961.0,297595.0,269306.0,316102.0,277688.0
2026-04-07 17:54:25.583908,282782,1535970502,1535972349,-1.100928,0.105408,0.027328,0.60375,-0.67375,-4.43625,42.976,6.896,52.112003,eccentric,3,3.0,19961.0,297595.0,269306.0,316102.0,277688.0
2026-04-07 17:54:25.614203,282783,1535979423,1535981082,-1.100928,0.105408,0.027328,4.9875,-0.97125,-5.66125,42.976,6.896,52.112003,eccentric,3,3.0,19961.0,297595.0,269306.0,316102.0,277688.0
2026-04-07 17:54:25.618890,282784,1535993935,1535996013,-1.110688,0.083936,0.003904,6.1425,-0.4725,-6.72,42.584003,7.328001,52.464,eccentric,3,3.0,19961.0,297595.0,269306.0,316102.0,277688.0
2026-04-07 17:54:25.620314,282785,1536002963,1536004705,-1.110688,0.083936,0.003904,5.48625,-0.4725,-7.385,42.584003,7.328001,52.464,eccentric,3,3.0,19961.0,297595.0,269306.0,316102.0,277688.0
2026-04-07 17:54:25.626024,282786,1536011977,1536013429,-1.118496,0.07808,0.001952,7.11375,-0.18375,-7.35875,41.952003,7.000001,53.616,eccentric,3,3.0,19961.0,297595.0,269306.0,316102.0,277688.0
2026-04-07 17:54:25.686925,282797,1536026460,1536028731,-1.118496,0.07808,0.001952,11.61125,-0.035,-8.47875,41.952003,7.000001,53.616,eccentric,3,3.0,20192.0,299135.0,270311.0,316755.0,277886.0
2026-04-07 17:54:25.691191,282798,1536035392,1536037459,-1.108736,0.167872,0.033184,16.87875,0.7,-9.14375,42.272003,6.440001,52.192,eccentric,3,3.0,20192.0,299135.0,270311.0,316755.0,277886.0
2026-04-07 17:54:25.692872,282799,1536044306,1536046165,-1.108736,0.167872,0.033184,17.4475,1.49625,-10.3075,42.272003,6.440001,52.192,eccentric,3,3.0,20192.0,299135.0,270311.0,316755.0,277886.0
2026-04-07 17:54:25.695235,282800,1536058812,1536061099,-1.079456,0.109312,0.021472,12.32,1.53125,-9.87,42.088,6.408001,52.024002,eccentric,3,3.0,20192.0,299135.0,270311.0,316755.0,277886.0
2026-04-07 17:54:25.702610,282801,1536067785,1536069814,-1.079456,0.109312,0.021472,6.34375,2.6075,-8.6625,42.088,6.408001,52.024002,eccentric,3,3.0,20192.0,299135.0,270311.0,316755.0,277886.0
2026-04-07 17:54:25.704190,282802,1536076743,1536078567,-1.061888,0.033184,-0.003904,3.535,1.61875,-6.50125,41.392002,6.544,53.024002,eccentric,3,3.0,20192.0,299135.0,270311.0,316755.0,277886.0
2026-04-07 17:54:25.705639,282803,1536085650,1536087294,-1.061888,0.033184,-0.003904,6.545,-0.04375,-4.26125,41.392002,6.544,53.024002,eccentric,3,3.0,20192.0,299135.0,270311.0,316755.0,277886.0
2026-04-07 17:54:25.736801,282804,1536100186,1536102221,-1.026752,0.02928,-0.035136,11.52375,-1.35625,-3.22875,42.2,6.112001,53.224003,eccentric,3,3.0,20192.0,299135.0,270311.0,316755.0,277886.0
2026-04-07 17:54:25.741215,282805,1536109121,1536110889,-1.026752,0.02928,-0.035136,15.6975,-2.98375,-2.1525,42.2,6.112001,53.224003,eccentric,3,3.0,20192.0,299135.0,270311.0,316755.0,277886.0
2026-04-07 17:54:25.742942,282806,1536118035,1536119613,-0.987712,0.07808,-0.013664,18.375,-3.50875,-1.4,41.696003,6.904,51.680004,eccentric,3,3.0,20192.0,299135.0,270311.0,316755.0,277886.0
2026-04-07 17:54:25.805605,282816,1536132634,1536134609,-0.981856,0.0976,0.0,17.885,-4.54125,-0.7175,41.56,6.848001,51.696003,eccentric,3,3.0,20588.0,302538.0,272944.0,319445.0,279875.0
2026-04-07 17:54:25.819356,282817,1536141608,1536143332,-0.981856,0.0976,0.0,14.88375,-5.01375,0.79625,41.56,6.848001,51.696003,eccentric,3,3.0,20588.0,302538.0,272944.0,319445.0,279875.0
2026-04-07 17:54:25.821972,282818,1536150537,1536152054,-0.972096,0.083936,0.015616,13.02,-5.87125,1.25125,41.608,6.176,52.768,eccentric,3,3.0,20588.0,302538.0,272944.0,319445.0,279875.0
2026-04-07 17:54:25.824415,282819,1536165100,1536166991,-0.972096,0.083936,0.015616,13.83375,-7.3675,1.2075,41.608,6.176,52.768,eccentric,3,3.0,20588.0,302538.0,272944.0,319445.0,279875.0
2026-04-07 17:54:25.859702,282820,1536174003,1536175686,-0.954528,0.11712,0.040992,15.3825,-8.67125,1.09375,41.120003,6.048,52.272003,eccentric,3,3.0,20588.0,302538.0,272944.0,319445.0,279875.0
2026-04-07 17:54:25.863140,282821,1536182909,1536184367,-0.954528,0.11712,0.040992,14.8925,-9.94,1.05,41.120003,6.048,52.272003,eccentric,3,3.0,20588.0,302538.0,272944.0,319445.0,279875.0
2026-04-07 17:54:25.865672,282822,1536191926,1536193093,-0.9272,0.089792,0.023424,11.7775,-10.9725,0.81375,41.528004,5.904,52.264004,eccentric,3,3.0,20588.0,302538.0,272944.0,319445.0,279875.0
2026-04-07 17:54:25.868182,282823,1536206399,1536208008,-0.9272,0.089792,0.023424,7.6475,-11.5325,0.69125,41.528004,5.904,52.264004,eccentric,3,3.0,20588.0,302538.0,272944.0,319445.0,279875.0
2026-04-07 17:54:25.870630,282824,1536215327,1536216719,-0.925248,0.083936,0.001952,4.06,-12.1275,1.11125,40.800003,6.008,52.184002,eccentric,3,3.0,20588.0,302538.0,272944.0,319445.0,279875.0
2026-04-07 17:54:25.873536,282825,1536224252,1536225410,-0.925248,0.083936,0.001952,2.555,-12.41625,1.12875,40.800003,6.008,52.184002,eccentric,3,3.0,20588.0,302538.0,272944.0,319445.0,279875.0
2026-04-07 17:54:25.898019,282835,1536240455,1536241533,-0.876448,0.054656,0.0,2.73,-12.6175,0.21,40.992,6.456,51.992,eccentric,3,3.0,20739.0,304059.0,274267.0,320989.0,281151.0
2026-04-07 17:54:25.900596,282836,1536249363,1536250275,-0.876448,0.054656,0.0,3.17625,-12.29375,-0.53375,40.992,6.456,51.992,eccentric,3,3.0,20739.0,304059.0,274267.0,320989.0,281151.0
2026-04-07 17:54:25.903091,282837,1536258286,1536258979,-0.862784,0.042944,-0.003904,4.71625,-11.82125,-0.98875,41.024002,6.04,51.552002,eccentric,3,3.0,20739.0,304059.0,274267.0,320989.0,281151.0
2026-04-07 17:54:25.905638,282838,1536267632,1536269754,-0.862784,0.042944,-0.003904,5.425,-11.62,-0.9975,41.024002,6.04,51.552002,eccentric,3,3.0,20739.0,304059.0,274267.0,320989.0,281151.0
2026-04-07 17:54:25.908165,282839,1536282147,1536282709,-0.860832,0.06832,0.005856,6.22125,-10.75375,-1.28625,39.920002,6.072001,53.504,eccentric,3,3.0,20739.0,304059.0,274267.0,320989.0,281151.0
2026-04-07 17:54:25.910642,282840,1536291704,1536293546,-0.851072,0.0976,0.046848,7.67375,-10.745,-1.995,39.736,6.184001,51.392002,eccentric,3,3.0,20739.0,304059.0,274267.0,320989.0,281151.0
2026-04-07 17:54:25.913156,282841,1536300630,1536302297,-0.851072,0.0976,0.046848,8.74125,-11.9,-1.68875,39.736,6.184001,51.392002,eccentric,3,3.0,20739.0,304059.0,274267.0,320989.0,281151.0
2026-04-07 17:54:25.943545,282842,1536309607,1536311018,-0.851072,0.0976,0.046848,8.74125,-12.005,-1.295,39.736,6.184001,51.392002,eccentric,3,3.0,20739.0,304059.0,274267.0,320989.0,281151.0
2026-04-07 17:54:25.946930,282843,1536324106,1536326014,-0.823744,0.093696,0.042944,7.105,-11.82125,-2.2225,40.408,5.984,51.704002,eccentric,3,3.0,20739.0,304059.0,274267.0,320989.0,281151.0
2026-04-07 17:54:25.974406,282854,1536333470,1536334720,-0.784704,0.070272,0.037088,5.17125,-10.96375,-3.92875,40.336002,5.960001,52.000004,eccentric,3,3.0,20633.0,303375.0,273794.0,320688.0,281037.0
2026-04-07 17:54:25.976917,282855,1536342434,1536343529,-0.784704,0.070272,0.037088,3.63125,-9.87875,-5.17125,40.336002,5.960001,52.000004,eccentric,3,3.0,20633.0,303375.0,273794.0,320688.0,281037.0
2026-04-07 17:54:25.979404,282856,1536356932,1536358489,-0.759328,0.066368,0.033184,3.2725,-9.31875,-6.3,40.120003,6.064,53.552002,eccentric,3,3.0,20633.0,303375.0,273794.0,320688.0,281037.0
2026-04-07 17:54:25.981814,282857,1536365864,1536367250,-0.759328,0.066368,0.033184,2.2575,-8.435,-6.11625,40.120003,6.064,53.552002,eccentric,3,3.0,20633.0,303375.0,273794.0,320688.0,281037.0
2026-04-07 17:54:25.986877,282858,1536374861,1536375965,-0.763232,0.042944,0.037088,1.4175,-7.315,-4.75125,39.848003,5.976,53.120003,eccentric,3,3.0,20633.0,303375.0,273794.0,320688.0,281037.0
2026-04-07 17:54:26.017013,282859,1536383838,1536384686,-0.763232,0.042944,0.037088,0.1225,-5.41625,-3.33375,39.848003,5.976,53.120003,eccentric,3,3.0,20633.0,303375.0,273794.0,320688.0,281037.0
2026-04-07 17:54:26.020848,282860,1536398314,1536399559,-0.847168,0.074176,0.064416,-0.28875,-4.15625,-2.05625,40.424004,6.016,52.112003,eccentric,3,3.0,20633.0,303375.0,273794.0,320688.0,281037.0
2026-04-07 17:54:26.023215,282861,1536407252,1536408293,-0.847168,0.074176,0.064416,1.23375,-2.79125,-0.91,40.424004,6.016,52.112003,eccentric,3,3.0,20633.0,303375.0,273794.0,320688.0,281037.0
2026-04-07 17:54:26.026889,282862,1536416179,1536417007,-0.921344,0.167872,0.089792,3.64,-1.63625,-1.2425,40.472,6.272,52.216003,eccentric,3,3.0,20633.0,303375.0,273794.0,320688.0,281037.0
2026-04-07 17:54:26.117764,282872,1536430876,1536431952,-0.921344,0.167872,0.089792,4.59375,-0.735,-3.45625,40.472,6.272,52.216003,eccentric,3,3.0,20550.0,302664.0,273245.0,320094.0,280506.0
2026-04-07 17:54:26.119344,282873,1536440041,1536440788,-0.991616,0.167872,0.056608,4.17375,1.26875,-6.3,39.832,6.192,48.24,eccentric,3,3.0,20550.0,302664.0,273245.0,320094.0,280506.0
2026-04-07 17:54:26.121842,282874,1536449463,1536451561,-0.991616,0.167872,0.056608,3.885,4.17375,-9.96625,39.832,6.192,48.24,eccentric,3,3.0,20550.0,302664.0,273245.0,320094.0,280506.0
2026-04-07 17:54:26.124352,282875,1536458380,1536460285,-0.977952,0.113216,0.072224,4.34875,7.315,-14.06125,40.056004,5.672,51.976,eccentric,3,3.0,20550.0,302664.0,273245.0,320094.0,280506.0
2026-04-07 17:54:26.126939,282876,1536472909,1536475167,-0.979904,0.03904,0.080032,4.235,10.08,-18.24375,39.824,5.648,52.464,eccentric,3,3.0,20550.0,302664.0,273245.0,320094.0,280506.0
2026-04-07 17:54:26.129452,282877,1536481881,1536483882,-0.979904,0.03904,0.080032,4.6375,12.52125,-21.67375,39.824,5.648,52.464,eccentric,3,3.0,20550.0,302664.0,273245.0,320094.0,280506.0
2026-04-07 17:54:26.131900,282878,1536490986,1536492570,-0.979904,0.03904,0.080032,6.13375,13.5625,-22.53125,39.824,5.648,52.464,eccentric,3,3.0,20550.0,302664.0,273245.0,320094.0,280506.0
2026-04-07 17:54:26.134345,282879,1536505490,1536507535,-0.962336,0.040992,0.074176,7.07,13.195,-20.53625,39.776,6.208,52.944004,eccentric,3,3.0,20550.0,302664.0,273245.0,320094.0,280506.0
2026-04-07 17:54:26.136911,282880,1536514463,1536516266,-0.977952,0.056608,0.044896,6.08125,12.7225,-17.70125,39.344,5.648,54.424004,eccentric,3,3.0,20550.0,302664.0,273245.0,320094.0,280506.0
2026-04-07 17:54:26.139355,282881,1536523415,1536524987,-0.977952,0.056608,0.044896,4.7775,11.83875,-14.56,39.344,5.648,54.424004,eccentric,3,3.0,20550.0,302664.0,273245.0,320094.0,280506.0
2026-04-07 17:54:26.164347,282891,1536538030,1536540047,-0.970144,0.095648,0.07808,3.59625,10.64,-10.7975,39.688004,5.864,53.064003,eccentric,3,3.0,20358.0,300965.0,271876.0,318695.0,279420.0
2026-04-07 17:54:26.166802,282892,1536546999,1536548845,-0.970144,0.095648,0.07808,4.6375,10.49125,-8.575,39.688004,5.864,53.064003,eccentric,3,3.0,20358.0,300965.0,271876.0,318695.0,279420.0
2026-04-07 17:54:26.169300,282893,1536555921,1536557549,-1.007232,0.103456,0.08784,3.815,10.91125,-7.455,40.04,5.968,52.816,eccentric,3,3.0,20358.0,300965.0,271876.0,318695.0,279420.0
2026-04-07 17:54:26.199537,282894,1536564911,1536566246,-1.007232,0.103456,0.08784,2.59875,11.795,-7.63,40.04,5.968,52.816,eccentric,3,3.0,20358.0,300965.0,271876.0,318695.0,279420.0
2026-04-07 17:54:26.203159,282895,1536579423,1536581158,-1.020896,0.109312,0.08784,2.12625,12.67875,-8.30375,40.048,6.008,53.808002,eccentric,3,3.0,20358.0,300965.0,271876.0,318695.0,279420.0
2026-04-07 17:54:26.205624,282896,1536588327,1536589834,-1.020896,0.109312,0.08784,2.00375,13.69375,-10.21125,40.048,6.008,53.808002,eccentric,3,3.0,20358.0,300965.0,271876.0,318695.0,279420.0
2026-04-07 17:54:26.209455,282897,1536597295,1536598585,-1.065792,0.124928,0.093696,2.72125,15.085,-11.865,40.008003,6.568,51.648003,eccentric,3,3.0,20358.0,300965.0,271876.0,318695.0,279420.0
2026-04-07 17:54:26.239517,282898,1536611806,1536613512,-1.065792,0.124928,0.072224,2.31,15.54,-13.335,40.008003,6.568,51.648003,eccentric,3,3.0,20358.0,300965.0,271876.0,318695.0,279420.0
2026-04-07 17:54:26.243152,282899,1536620717,1536622211,-1.0736,0.093696,0.072224,1.9775,16.7125,-14.3675,40.624,6.032,52.72,eccentric,3,3.0,20358.0,300965.0,271876.0,318695.0,279420.0
2026-04-07 17:54:26.245628,282900,1536629645,1536630896,-1.0736,0.093696,0.072224,1.5225,18.12125,-15.295,40.624,6.032,52.72,eccentric,3,3.0,20358.0,300965.0,271876.0,318695.0,279420.0
2026-04-07 17:54:26.277295,282911,1536644288,1536645869,-1.091168,0.080032,0.081984,2.5025,17.815,-16.03,40.496002,6.24,51.464,eccentric,3,3.0,20293.0,300385.0,271402.0,318151.0,278968.0
2026-04-07 17:54:26.279360,282912,1536653239,1536654612,-1.098976,0.076128,0.083936,5.075,17.71875,-16.45,40.496002,6.312,51.904003,eccentric,3,3.0,20293.0,300385.0,271402.0,318151.0,278968.0
2026-04-07 17:54:26.281879,282913,1536662184,1536663270,-1.098976,0.076128,0.083936,7.27125,17.955,-15.96875,40.496002,6.312,51.904003,eccentric,3,3.0,20293.0,300385.0,271402.0,318151.0,278968.0
2026-04-07 17:54:26.313287,282914,1536676732,1536678201,-1.079456,0.062464,0.072224,8.65375,17.26375,-15.09375,40.872,6.32,51.096,eccentric,3,3.0,20293.0,300385.0,271402.0,318151.0,278968.0
2026-04-07 17:54:26.316832,282915,1536685641,1536686907,-1.079456,0.062464,0.072224,9.12625,16.72125,-13.95625,40.872,6.32,51.096,eccentric,3,3.0,20293.0,300385.0,271402.0,318151.0,278968.0
2026-04-07 17:54:26.319417,282916,1536694568,1536695626,-1.079456,0.052704,0.054656,8.8025,16.59875,-13.58,40.600002,6.832,50.432003,eccentric,3,3.0,20293.0,300385.0,271402.0,318151.0,278968.0
2026-04-07 17:54:26.321852,282917,1536703487,1536704323,-1.079456,0.052704,0.054656,10.00125,16.485,-12.985,40.600002,6.832,50.432003,eccentric,3,3.0,20293.0,300385.0,271402.0,318151.0,278968.0
2026-04-07 17:54:26.352087,282918,1536717951,1536719434,-1.071648,0.089792,0.056608,12.792501,15.16375,-13.29125,40.824,6.176,50.984,eccentric,3,3.0,20293.0,300385.0,271402.0,318151.0,278968.0
2026-04-07 17:54:26.355655,282919,1536726926,1536728156,-1.071648,0.089792,0.056608,15.51375,14.46375,-12.55625,40.824,6.176,50.984,eccentric,3,3.0,20293.0,300385.0,271402.0,318151.0,278968.0
2026-04-07 17:54:26.419589,282929,1536735929,1536736914,-1.059936,0.10736,0.060512,16.415,13.9125,-10.78875,40.544003,6.248,51.24,eccentric,3,3.0,20301.0,300399.0,271372.0,317966.0,278676.0
2026-04-07 17:54:26.421927,282930,1536750435,1536751850,-1.059936,0.10736,0.060512,17.38625,12.845,-10.78,40.544003,6.248,51.24,eccentric,3,3.0,20301.0,300399.0,271372.0,317966.0,278676.0
2026-04-07 17:54:26.424365,282931,1536759429,1536760528,-1.059936,0.099552,0.060512,17.885,12.29375,-11.2,40.704002,6.032,53.216003,eccentric,3,3.0,20301.0,300399.0,271372.0,317966.0,278676.0
2026-04-07 17:54:26.426845,282932,1536768426,1536769222,-1.059936,0.099552,0.060512,18.1825,11.80375,-12.1625,40.704002,6.032,53.216003,eccentric,3,3.0,20301.0,300399.0,271372.0,317966.0,278676.0
2026-04-07 17:54:26.429344,282933,1536782932,1536784084,-1.036512,0.08784,0.06832,18.83,11.4275,-13.13375,40.816,6.368001,51.176003,eccentric,3,3.0,20301.0,300399.0,271372.0,317966.0,278676.0
2026-04-07 17:54:26.431842,282934,1536791872,1536792775,-1.036512,0.08784,0.06832,20.69375,11.57625,-13.83375,40.816,6.368001,51.176003,eccentric,3,3.0,20301.0,300399.0,271372.0,317966.0,278676.0
2026-04-07 17:54:26.434428,282935,1536800804,1536801511,-1.040416,0.07808,0.064416,23.616251,12.425,-14.07,41.08,5.952,50.944004,eccentric,3,3.0,20301.0,300399.0,271372.0,317966.0,278676.0
2026-04-07 17:54:26.437417,282936,1536810117,1536812289,-1.040416,0.07808,0.064416,26.06625,13.055,-13.90375,41.08,5.952,50.944004,eccentric,3,3.0,20301.0,300399.0,271372.0,317966.0,278676.0
2026-04-07 17:54:26.439363,282937,1536824676,1536825213,-1.04432,0.103456,0.083936,28.98875,12.9325,-13.22125,41.136,5.816001,51.552002,eccentric,3,3.0,20301.0,300399.0,271372.0,317966.0,278676.0
2026-04-07 17:54:26.465569,282947,1536834817,1536836082,-1.048224,0.105408,0.07808,28.20125,11.71625,-12.50375,41.408,6.008,51.120003,eccentric,3,3.0,20466.0,301500.0,272184.0,318670.0,279059.0
2026-04-07 17:54:26.468067,282948,1536843901,1536844834,-1.048224,0.105408,0.07808,25.803751,12.4075,-11.62,41.408,6.008,51.120003,eccentric,3,3.0,20466.0,301500.0,272184.0,318670.0,279059.0
2026-04-07 17:54:26.470585,282949,1536852858,1536853573,-1.048224,0.105408,0.08784,24.43875,13.09875,-10.167501,41.408,6.008,51.120003,eccentric,3,3.0,20466.0,301500.0,272184.0,318670.0,279059.0
2026-04-07 17:54:26.502729,282950,1536867828,1536868509,-1.05408,0.10736,0.08784,25.795,12.71375,-9.38,41.272003,5.528,52.032,eccentric,3,3.0,20466.0,301500.0,272184.0,318670.0,279059.0
2026-04-07 17:54:26.505748,282951,1536877228,1536879261,-1.038464,0.099552,0.066368,27.536251,11.97,-9.695,40.824,5.6,51.176003,eccentric,3,3.0,20466.0,301500.0,272184.0,318670.0,279059.0
2026-04-07 17:54:26.508134,282952,1536886131,1536887973,-1.038464,0.099552,0.066368,27.58875,11.82125,-9.45875,40.824,5.6,51.176003,eccentric,3,3.0,20466.0,301500.0,272184.0,318670.0,279059.0
2026-04-07 17:54:26.510610,282953,1536895038,1536896654,-1.026752,0.085888,0.06832,27.65,12.15375,-9.4325,41.504,4.512,51.376003,eccentric,3,3.0,20466.0,301500.0,272184.0,318670.0,279059.0
2026-04-07 17:54:26.544575,282954,1536909556,1536911564,-1.026752,0.085888,0.06832,28.7,12.04,-8.365,41.504,4.512,51.376003,eccentric,3,3.0,20466.0,301500.0,272184.0,318670.0,279059.0
2026-04-07 17:54:26.548152,282955,1536918471,1536920267,-1.020896,0.081984,0.072224,30.42375,11.43625,-7.805,41.640003,4.72,51.520004,eccentric,3,3.0,20466.0,301500.0,272184.0,318670.0,279059.0
2026-04-07 17:54:26.550608,282956,1536927388,1536928977,-1.020896,0.081984,0.072224,33.15375,11.6375,-7.175,41.640003,4.72,51.520004,eccentric,3,3.0,20466.0,301500.0,272184.0,318670.0,279059.0
2026-04-07 17:54:26.578234,282967,1536942378,1536944339,-1.032608,0.111264,0.076128,34.9125,11.585,-6.74625,41.56,4.976,52.056004,eccentric,3,3.0,20577.0,302671.0,273091.0,319620.0,279753.0
2026-04-07 17:54:26.580648,282968,1536951360,1536953048,-1.032608,0.111264,0.076128,35.79625,10.91125,-6.01125,41.56,4.976,52.056004,eccentric,3,3.0,20577.0,302671.0,273091.0,319620.0,279753.0
2026-04-07 17:54:26.586911,282969,1536960304,1536961798,-1.026752,0.130784,0.06832,35.58625,11.24375,-6.23,41.176003,4.128,51.376003,eccentric,3,3.0,20577.0,302671.0,273091.0,319620.0,279753.0
2026-04-07 17:54:26.589344,282970,1536974813,1536976732,-1.036512,0.10736,0.064416,34.982502,11.50625,-5.5825,42.104004,4.304,51.24,eccentric,3,3.0,20577.0,302671.0,273091.0,319620.0,279753.0
2026-04-07 17:54:26.596578,282971,1536983757,1536985460,-1.036512,0.10736,0.064416,33.6875,11.62875,-5.11875,42.104004,4.304,51.24,eccentric,3,3.0,20577.0,302671.0,273091.0,319620.0,279753.0
2026-04-07 17:54:26.625848,282972,1536992687,1536994165,-1.036512,0.10736,0.064416,33.232502,11.935,-4.8125,42.104004,4.304,51.24,eccentric,3,3.0,20577.0,302671.0,273091.0,319620.0,279753.0
2026-04-07 17:54:26.629483,282973,1537001603,1537002884,-1.030656,0.101504,0.03904,33.1625,12.11,-4.375,42.016003,3.832,52.024002,eccentric,3,3.0,20577.0,302671.0,273091.0,319620.0,279753.0
2026-04-07 17:54:26.631943,282974,1537016063,1537017821,-1.042368,0.0976,0.021472,32.3225,11.76875,-4.27,42.08,3.456,52.016003,eccentric,3,3.0,20577.0,302671.0,273091.0,319620.0,279753.0
2026-04-07 17:54:26.636961,282975,1537024999,1537026548,-1.042368,0.0976,0.021472,31.9725,11.3575,-4.80375,42.08,3.456,52.016003,eccentric,3,3.0,20577.0,302671.0,273091.0,319620.0,279753.0
2026-04-07 17:54:26.722411,282985,1537034256,1537035334,-1.042368,0.10736,0.003904,31.59625,11.36625,-3.7275,42.08,3.456,52.016003,eccentric,3,3.0,20447.0,301750.0,272515.0,319209.0,279643.0
2026-04-07 17:54:26.724120,282986,1537048795,1537050305,-1.048224,0.10736,0.003904,32.235,11.43625,-3.5,42.056004,3.352,52.776,eccentric,3,3.0,20447.0,301750.0,272515.0,319209.0,279643.0
2026-04-07 17:54:26.725677,282987,1537057709,1537059020,-1.028704,0.105408,0.00976,33.0925,11.50625,-3.185,42.136,2.864,51.664,eccentric,3,3.0,20447.0,301750.0,272515.0,319209.0,279643.0
2026-04-07 17:54:26.729862,282988,1537066632,1537067702,-1.028704,0.105408,0.00976,34.0725,11.445,-2.77375,42.136,2.864,51.664,eccentric,3,3.0,20447.0,301750.0,272515.0,319209.0,279643.0
2026-04-07 17:54:26.731602,282989,1537081091,1537082581,-1.003328,0.128832,0.023424,34.58875,11.5325,-2.1525,42.536003,1.976,50.72,eccentric,3,3.0,20447.0,301750.0,272515.0,319209.0,279643.0
2026-04-07 17:54:26.733134,282990,1537089986,1537091270,-1.003328,0.128832,0.023424,31.4125,11.87375,-2.86125,42.536003,1.976,50.72,eccentric,3,3.0,20447.0,301750.0,272515.0,319209.0,279643.0
2026-04-07 17:54:26.737474,282991,1537098967,1537100140,-1.048224,0.115168,0.01952,26.241251,13.72,-3.01875,42.416,1.912,51.800003,eccentric,3,3.0,20447.0,301750.0,272515.0,319209.0,279643.0
2026-04-07 17:54:26.740010,282992,1537113466,1537115076,-1.048224,0.115168,0.01952,22.19,14.4025,-2.1175,42.416,1.912,51.800003,eccentric,3,3.0,20447.0,301750.0,272515.0,319209.0,279643.0
2026-04-07 17:54:26.742411,282993,1537122458,1537123795,-1.020896,0.111264,0.035136,19.15375,14.91875,-2.00375,42.584003,1.512,51.048004,eccentric,3,3.0,20447.0,301750.0,272515.0,319209.0,279643.0
2026-04-07 17:54:26.747498,282994,1537131382,1537132509,-1.020896,0.111264,0.035136,17.2025,15.8375,-1.65375,42.584003,1.512,51.048004,eccentric,3,3.0,20447.0,301750.0,272515.0,319209.0,279643.0
2026-04-07 17:54:26.772413,283004,1537140440,1537141485,-1.036512,0.111264,0.031232,16.0475,16.19625,-2.275,42.88,2.328,51.600002,eccentric,3,3.0,20430.0,301914.0,272718.0,319620.0,280180.0
2026-04-07 17:54:26.776625,283005,1537154953,1537156442,-1.038464,0.0976,0.023424,13.895,16.0475,-2.89625,42.88,1.984,52.144,eccentric,3,3.0,20430.0,301914.0,272718.0,319620.0,280180.0
2026-04-07 17:54:26.778127,283006,1537163865,1537165190,-1.038464,0.0976,0.023424,11.31375,16.87875,-3.28125,42.944,1.984,52.144,eccentric,3,3.0,20430.0,301914.0,272718.0,319620.0,280180.0
2026-04-07 17:54:26.787358,283007,1537172843,1537174010,-1.038464,0.0976,0.023424,9.05625,17.24625,-3.7975,42.944,1.984,52.144,eccentric,3,3.0,20430.0,301914.0,272718.0,319620.0,280180.0
2026-04-07 17:54:26.819390,283008,1537187324,1537188958,-1.028704,0.066368,0.001952,5.92375,17.605,-4.52375,42.920002,1.808,52.752003,eccentric,3,3.0,20430.0,301914.0,272718.0,319620.0,280180.0
2026-04-07 17:54:26.823915,283009,1537196213,1537197647,-1.016992,0.062464,-0.005856,2.7125,18.20875,-6.37,43.064003,2.256,52.512,eccentric,3,3.0,20430.0,301914.0,272718.0,319620.0,280180.0
2026-04-07 17:54:26.825180,283010,1537205181,1537206332,-1.016992,0.062464,-0.005856,-1.40875,19.67,-7.1225,43.064003,2.256,52.512,eccentric,3,3.0,20430.0,301914.0,272718.0,319620.0,280180.0
