pc_time,serial_num,sensor_ts,host_ts,ax,ay,az,gx,gy,gz,mx,my,mz,phase,rpe,weight_kg,ppg_a,ppg_b,ppg_c,ppg_d,ppg_e
2026-04-14 18:17:40.802957,870752,1609508154348518,5754318396,0.929152,-0.21472,0.265472,-11.55,-4.6025,22.085001,-16.912,22.992,17.592001,inter_set_rest,4,7.0,99531.0,296018.0,176599.0,283914.0,187303.0
2026-04-14 18:17:40.821685,870753,1609508154357580,5754327188,0.9272,-0.189344,0.376736,-2.96625,-3.19375,20.97375,-18.560001,23.856,18.960001,inter_set_rest,4,7.0,99531.0,296018.0,176599.0,283914.0,187303.0
2026-04-14 18:17:40.821789,870754,1609508154366473,5754335909,0.9272,-0.189344,0.376736,-2.765,-2.31875,18.83,-18.560001,23.856,18.960001,inter_set_rest,4,7.0,99531.0,296018.0,176599.0,283914.0,187303.0
2026-04-14 18:17:40.822092,870755,1609508154381002,5754350835,0.98576,-0.296704,0.30256,-4.69,0.41125,16.3275,-17.824001,23.960001,18.192001,inter_set_rest,4,7.0,99531.0,296018.0,176599.0,283914.0,187303.0
2026-04-14 18:17:40.822162,870756,1609508154389919,5754359551,0.98576,-0.296704,0.30256,-3.255,3.71875,14.79625,-17.824001,23.960001,18.192001,inter_set_rest,4,7.0,99531.0,296018.0,176599.0,283914.0,187303.0
2026-04-14 18:17:40.822209,870757,1609508154404606,5754374452,0.872544,-0.31232,0.1952,0.0875,7.9625,12.59125,-17.152,23.496,18.152,inter_set_rest,4,7.0,99531.0,296018.0,176599.0,283914.0,187303.0
2026-04-14 18:17:40.822288,870758,1609508154413730,5754383199,0.872544,-0.31232,0.1952,5.635,12.0225,10.36,-17.152,23.496,18.152,inter_set_rest,4,7.0,99531.0,296018.0,176599.0,283914.0,187303.0
2026-04-14 18:17:40.822339,870759,1609508154428224,5754398087,0.960384,-0.267424,0.173728,13.755,14.8925,8.35625,-16.728,23.376001,18.408,inter_set_rest,4,7.0,99531.0,296018.0,176599.0,283914.0,187303.0
2026-04-14 18:17:40.822385,870760,1609508154437244,5754406825,0.876448,-0.28304,0.179584,19.92375,15.9775,2.275,-16.192001,23.008001,19.064001,inter_set_rest,4,7.0,99531.0,296018.0,176599.0,283914.0,187303.0
2026-04-14 18:17:40.852351,870771,1609508154446624,5754415999,0.876448,-0.28304,0.179584,21.20125,16.397501,-2.17875,-16.192001,23.008001,19.064001,inter_set_rest,4,7.0,81166.0,300888.0,154604.0,290242.0,164651.0
2026-04-14 18:17:40.854912,870772,1609508154461253,5754431016,0.85888,-0.269376,0.31232,21.88375,17.92,-2.66875,-16.376001,22.68,19.064001,inter_set_rest,4,7.0,81166.0,300888.0,154604.0,290242.0,164651.0
2026-04-14 18:17:40.857395,870773,1609508154470249,5754439720,0.85888,-0.269376,0.31232,25.515,19.8625,-2.75625,-16.376001,22.68,19.064001,inter_set_rest,4,7.0,81166.0,300888.0,154604.0,290242.0,164651.0
2026-04-14 18:17:40.867395,870774,1609508154484905,5754454720,0.866688,-0.201056,0.365024,33.97625,22.53125,-3.07125,-16.36,22.192001,19.504002,inter_set_rest,4,7.0,81166.0,300888.0,154604.0,290242.0,164651.0
2026-04-14 18:17:40.877840,870775,1609508154494049,5754463403,0.866688,-0.201056,0.365024,43.19,23.45875,-4.27875,-16.36,22.192001,19.504002,inter_set_rest,4,7.0,81166.0,300888.0,154604.0,290242.0,164651.0
2026-04-14 18:17:40.889357,870776,1609508154503093,5754472118,0.895968,-0.16592,0.372832,48.95625,23.5725,-5.46,-14.952001,21.712002,18.936,inter_set_rest,4,7.0,81166.0,300888.0,154604.0,290242.0,164651.0
2026-04-14 18:17:40.898822,870777,1609508154517603,5754487027,0.8296,-0.138592,0.294752,51.3275,21.90125,-6.27375,-14.952001,20.84,18.928001,inter_set_rest,4,7.0,81166.0,300888.0,154604.0,290242.0,164651.0
2026-04-14 18:17:40.910321,870778,1609508154526536,5754495721,0.8296,-0.138592,0.294752,47.7575,19.39,-8.93375,-14.952001,20.84,18.928001,inter_set_rest,4,7.0,81166.0,300888.0,154604.0,290242.0,164651.0
2026-04-14 18:17:40.923764,870779,1609508154541178,5754510783,0.757376,-0.076128,0.366976,45.36,18.3925,-9.17,-15.080001,20.984001,20.392,inter_set_rest,4,7.0,81166.0,300888.0,154604.0,290242.0,164651.0
2026-04-14 18:17:40.956513,870790,1609508154550289,5754519544,0.757376,-0.076128,0.366976,42.6475,17.12375,-9.38875,-15.080001,20.984001,20.392,inter_set_rest,4,7.0,79975.0,298574.0,154433.0,291981.0,164594.0
2026-04-14 18:17:40.959809,870791,1609508154559294,5754528263,0.817888,-0.11712,0.339648,38.52625,16.485,-9.05625,-14.296001,20.12,20.368,inter_set_rest,4,7.0,79975.0,298574.0,154433.0,291981.0,164594.0
2026-04-14 18:17:40.961181,870792,1609508154573828,5754543167,0.817888,-0.11712,0.339648,36.7675,15.56625,-7.14875,-14.296001,20.12,20.368,inter_set_rest,4,7.0,79975.0,298574.0,154433.0,291981.0,164594.0
2026-04-14 18:17:40.963782,870793,1609508154582838,5754551955,0.759328,-0.083936,0.197152,36.47,13.06375,-6.93,-14.448001,19.720001,20.336,inter_set_rest,4,7.0,79975.0,298574.0,154433.0,291981.0,164594.0
2026-04-14 18:17:40.979946,870794,1609508154597356,5754566874,0.759328,-0.025376,0.505568,34.02875,10.675,-7.5775,-14.448001,19.720001,20.336,inter_set_rest,4,7.0,79975.0,298574.0,154433.0,291981.0,164594.0
2026-04-14 18:17:40.989916,870795,1609508154606285,5754575575,0.7808,-0.025376,0.505568,29.2075,7.13125,-7.21875,-14.376,19.872002,20.488,inter_set_rest,4,7.0,79975.0,298574.0,154433.0,291981.0,164594.0
2026-04-14 18:17:41.004010,870796,1609508154615244,5754584292,0.7808,-0.025376,0.505568,24.56125,5.3375,-6.405,-14.376,19.872002,20.488,inter_set_rest,4,7.0,79975.0,298574.0,154433.0,291981.0,164594.0
2026-04-14 18:17:41.012373,870797,1609508154629726,5754599217,0.79056,-0.060512,0.499712,24.14125,5.285,-5.25875,-14.456,19.552,21.048,inter_set_rest,4,7.0,79975.0,298574.0,154433.0,291981.0,164594.0
2026-04-14 18:17:41.020382,870798,1609508154638632,5754607914,0.749568,-0.103456,0.294752,23.16125,5.2325,-3.33375,-14.328001,19.632002,19.816002,inter_set_rest,4,7.0,79975.0,298574.0,154433.0,291981.0,164594.0
2026-04-14 18:17:41.054959,870809,1609508154653183,5754623420,0.749568,-0.103456,0.294752,23.80875,5.3025,-0.58625,-14.328001,19.632002,19.816002,inter_set_rest,4,7.0,82147.0,291873.0,157420.0,287879.0,167686.0
2026-04-14 18:17:41.058003,870810,1609508154662166,5754632179,0.835456,-0.095648,0.216672,21.39375,4.08625,1.39125,-15.024001,19.344002,21.984001,inter_set_rest,4,7.0,82147.0,291873.0,157420.0,287879.0,167686.0
2026-04-14 18:17:41.061443,870811,1609508154676741,5754647055,0.835456,-0.095648,0.216672,18.96125,3.71,3.98125,-15.024001,19.344002,21.984001,inter_set_rest,4,7.0,82147.0,291873.0,157420.0,287879.0,167686.0
2026-04-14 18:17:41.067666,870812,1609508154685726,5754655760,0.784704,-0.013664,0.456768,16.905,2.49375,6.265,-15.088,19.28,21.792002,inter_set_rest,4,7.0,82147.0,291873.0,157420.0,287879.0,167686.0
2026-04-14 18:17:41.076529,870813,1609508154694816,5754664445,0.784704,-0.013664,0.456768,12.11875,0.14875,6.65,-15.088,19.28,21.792002,inter_set_rest,4,7.0,82147.0,291873.0,157420.0,287879.0,167686.0
2026-04-14 18:17:41.092772,870814,1609508154709289,5754679330,0.81984,-0.080032,0.396256,9.8875,-2.135,8.18125,-13.936001,18.872002,21.096,inter_set_rest,4,7.0,82147.0,291873.0,157420.0,287879.0,167686.0
2026-04-14 18:17:41.103808,870815,1609508154718236,5754688006,0.804224,-0.171776,0.191296,10.08875,-3.71875,9.8,-13.936001,18.872002,21.096,inter_set_rest,4,7.0,82147.0,291873.0,157420.0,287879.0,167686.0
2026-04-14 18:17:41.127517,870816,1609508154732771,5754702918,0.796416,-0.171776,0.191296,12.62625,-5.90625,11.585,-13.864,19.112001,21.112001,inter_set_rest,4,7.0,82147.0,291873.0,157420.0,287879.0,167686.0
2026-04-14 18:17:41.129902,870817,1609508154741730,5754711612,0.880352,-0.132736,0.31232,16.205,-6.685,14.4025,-14.648001,19.44,22.312,inter_set_rest,4,7.0,82147.0,291873.0,157420.0,287879.0,167686.0
2026-04-14 18:17:41.178670,870828,1609508154756430,5754726618,0.880352,-0.132736,0.31232,17.0275,-6.2475,16.4325,-14.648001,19.44,22.312,inter_set_rest,4,7.0,71828.0,280281.0,143451.0,277521.0,153235.0
2026-04-14 18:17:41.180898,870829,1609508154765378,5754735292,0.837408,-0.115168,0.16592,11.8825,-5.95875,16.44125,-13.568001,18.992,21.36,inter_set_rest,4,7.0,71828.0,280281.0,143451.0,277521.0,153235.0
2026-04-14 18:17:41.188725,870830,1609508154774369,5754744019,0.837408,-0.115168,0.16592,6.8425,-6.5625,16.73875,-13.568001,18.992,21.36,inter_set_rest,4,7.0,71828.0,280281.0,143451.0,277521.0,153235.0
2026-04-14 18:17:41.191201,870831,1609508154788904,5754759014,0.833504,-0.132736,0.23424,5.4425,-8.46125,17.1325,-13.76,19.0,21.44,inter_set_rest,4,7.0,71828.0,280281.0,143451.0,277521.0,153235.0
2026-04-14 18:17:41.193948,870832,1609508154797842,5754767720,0.833504,-0.132736,0.23424,7.245,-10.325,17.94625,-13.76,19.0,21.44,inter_set_rest,4,7.0,71828.0,280281.0,143451.0,277521.0,153235.0
2026-04-14 18:17:41.198944,870833,1609508154812457,5754782609,0.935008,-0.187392,0.281088,13.2825,-11.40125,19.39875,-13.592001,19.0,22.248001,inter_set_rest,4,7.0,71828.0,280281.0,143451.0,277521.0,153235.0
2026-04-14 18:17:41.205017,870834,1609508154821398,5754791312,0.8784,-0.177632,0.167872,20.58,-10.9375,20.44875,-13.688001,18.944,22.648,inter_set_rest,4,7.0,71828.0,280281.0,143451.0,277521.0,153235.0
2026-04-14 18:17:41.232679,870835,1609508154830334,5754800053,0.8784,-0.177632,0.167872,23.82625,-10.22,22.960001,-13.688001,18.944,22.648,inter_set_rest,4,7.0,71828.0,280281.0,143451.0,277521.0,153235.0
2026-04-14 18:17:41.235248,870836,1609508154844878,5754814937,0.938912,-0.122976,0.240096,22.81125,-7.97125,24.82375,-13.912001,18.656,22.704,inter_set_rest,4,7.0,71828.0,280281.0,143451.0,277521.0,153235.0
2026-04-14 18:17:41.262583,870847,1609508154853940,5754823647,0.938912,-0.122976,0.240096,21.42,-5.0925,24.928751,-13.912001,18.656,22.704,inter_set_rest,4,7.0,61458.0,269534.0,129546.0,268670.0,139370.0
2026-04-14 18:17:41.265656,870848,1609508154868577,5754838702,0.905728,-0.054656,0.259616,21.0175,-2.12625,22.11125,-14.432001,18.616001,23.336,inter_set_rest,4,7.0,61458.0,269534.0,129546.0,268670.0,139370.0
2026-04-14 18:17:41.268038,870849,1609508154877551,5754847432,0.905728,-0.054656,0.259616,23.6425,-0.11375,16.275,-14.432001,18.616001,23.336,inter_set_rest,4,7.0,61458.0,269534.0,129546.0,268670.0,139370.0
2026-04-14 18:17:41.275196,870850,1609508154892110,5754862369,0.938912,-0.12688,0.148352,28.14875,1.295,9.94,-13.952001,18.376001,25.104002,inter_set_rest,4,7.0,61458.0,269534.0,129546.0,268670.0,139370.0
2026-04-14 18:17:41.287891,870851,1609508154901078,5754871050,1.01504,-0.113216,0.216672,29.81125,1.61,7.455,-14.080001,18.288,22.744001,inter_set_rest,4,7.0,61458.0,269534.0,129546.0,268670.0,139370.0
2026-04-14 18:17:41.296916,870852,1609508154909979,5754879744,1.01504,-0.113216,0.216672,29.35625,2.38,7.0,-14.080001,18.288,22.744001,inter_set_rest,4,7.0,61458.0,269534.0,129546.0,268670.0,139370.0
2026-04-14 18:17:41.307422,870853,1609508154924623,5754894657,1.007232,-0.091744,0.21472,26.90625,2.6425,2.6075,-12.904,17.784,22.560001,inter_set_rest,4,7.0,61458.0,269534.0,129546.0,268670.0,139370.0
2026-04-14 18:17:41.314820,870854,1609508154933618,5754903425,1.007232,-0.091744,0.21472,27.34375,3.4125,-1.96,-12.904,17.784,22.560001,inter_set_rest,4,7.0,61458.0,269534.0,129546.0,268670.0,139370.0
2026-04-14 18:17:41.354853,870865,1609508154948284,5754918602,0.95648,-0.130784,0.327936,30.00375,3.395,-3.21125,-14.872001,17.976002,24.576,inter_set_rest,4,7.0,68707.0,281938.0,139622.0,279290.0,149721.0
2026-04-14 18:17:41.357319,870866,1609508154957310,5754927377,0.95648,-0.130784,0.327936,31.115,3.325,-2.10875,-14.872001,17.976002,24.576,inter_set_rest,4,7.0,68707.0,281938.0,139622.0,279290.0,149721.0
2026-04-14 18:17:41.359769,870867,1609508154966287,5754936154,0.981856,-0.183488,0.267424,31.40375,4.62875,2.68625,-12.832001,17.072,22.928001,inter_set_rest,4,7.0,68707.0,281938.0,139622.0,279290.0,149721.0
2026-04-14 18:17:41.364760,870868,1609508154980747,5754951101,0.909632,-0.085888,0.290848,33.13625,6.825,8.4,-12.712001,16.92,23.472002,inter_set_rest,4,7.0,68707.0,281938.0,139622.0,279290.0,149721.0
2026-04-14 18:17:41.373703,870869,1609508154989679,5754959777,0.909632,-0.085888,0.290848,37.42375,8.198751,13.1425,-12.712001,16.92,23.472002,inter_set_rest,4,7.0,68707.0,281938.0,139622.0,279290.0,149721.0
2026-04-14 18:17:41.384928,870870,1609508155004294,5754972697,0.929152,-0.0488,0.208864,39.89125,6.55375,16.178751,-12.184001,16.144001,23.432001,inter_set_rest,4,7.0,68707.0,281938.0,139622.0,279290.0,149721.0
2026-04-14 18:17:41.397441,870871,1609508155013651,5754983469,0.929152,-0.0488,0.208864,39.34875,5.775,17.325,-12.184001,16.144001,23.432001,inter_set_rest,4,7.0,68707.0,281938.0,139622.0,279290.0,149721.0
2026-04-14 18:17:41.405053,870872,1609508155022725,5754992161,0.89792,0.01952,0.242048,34.53625,5.36375,16.835001,-12.112,16.352001,23.624,inter_set_rest,4,7.0,68707.0,281938.0,139622.0,279290.0,149721.0
2026-04-14 18:17:41.419915,870873,1609508155037245,5755007039,0.89792,0.01952,0.242048,27.9825,4.89125,14.79625,-12.112,16.352001,23.624,inter_set_rest,4,7.0,68707.0,281938.0,139622.0,279290.0,149721.0
2026-04-14 18:17:41.428718,870874,1609508155046320,5755015873,0.831552,0.017568,0.052704,21.95375,3.745,11.095,-13.232,16.264,24.144001,inter_set_rest,4,7.0,68707.0,281938.0,139622.0,279290.0,149721.0
2026-04-14 18:17:41.457841,870885,1609508155060958,5755030852,0.84912,0.00976,0.060512,19.460001,1.84625,6.37,-13.024,16.128,24.704,inter_set_rest,4,7.0,73322.0,283364.0,146195.0,280536.0,156400.0
2026-04-14 18:17:41.460954,870886,1609508155069972,5755039557,0.84912,0.00976,0.060512,19.62625,0.25375,0.5075,-13.024,16.128,24.704,inter_set_rest,4,7.0,73322.0,283364.0,146195.0,280536.0,156400.0
2026-04-14 18:17:41.467417,870887,1609508155084543,5755054491,0.899872,0.05856,0.327936,20.43125,-0.35875,-4.48875,-13.184001,15.832001,24.712002,inter_set_rest,4,7.0,73322.0,283364.0,146195.0,280536.0,156400.0
2026-04-14 18:17:41.506916,870888,1609508155093535,5755063198,0.899872,0.05856,0.327936,19.29375,-1.26,-8.9425,-13.184001,15.832001,24.712002,inter_set_rest,4,7.0,73322.0,283364.0,146195.0,280536.0,156400.0
2026-04-14 18:17:41.530611,870889,1609508155102488,5755071917,0.854976,0.02928,0.113216,14.0875,-2.2225,-13.37875,-12.168,15.528001,23.544,inter_set_rest,4,7.0,73322.0,283364.0,146195.0,280536.0,156400.0
2026-04-14 18:17:41.533694,870890,1609508155117012,5755086801,0.854976,0.02928,0.113216,7.6125,-1.54875,-15.96,-12.168,15.528001,23.544,inter_set_rest,4,7.0,73322.0,283364.0,146195.0,280536.0,156400.0
2026-04-14 18:17:41.533786,870891,1609508155125953,5755095506,0.8296,0.003904,0.105408,4.6725,-0.62125,-17.6575,-12.288,15.656001,24.104002,inter_set_rest,4,7.0,73322.0,283364.0,146195.0,280536.0,156400.0
2026-04-14 18:17:41.533847,870892,1609508155140437,5755110396,0.8296,0.003904,0.13664,3.36875,0.385,-18.83875,-12.288,15.656001,24.104002,inter_set_rest,4,7.0,73322.0,283364.0,146195.0,280536.0,156400.0
2026-04-14 18:17:41.555128,870903,1609508155149389,5755119663,0.86864,-0.046848,0.132736,3.2375,1.88125,-17.22,-12.272,15.416,25.352001,inter_set_rest,4,7.0,77385.0,283742.0,151335.0,280979.0,161444.0
2026-04-14 18:17:41.557543,870904,1609508155164076,5755132545,0.825696,0.003904,0.140544,1.505,3.3425,-14.30625,-12.224001,15.112,24.264002,inter_set_rest,4,7.0,77385.0,283742.0,151335.0,280979.0,161444.0
2026-04-14 18:17:41.560084,870905,1609508155173460,5755143319,0.825696,0.003904,0.140544,-1.00625,5.85375,-11.97,-12.224001,15.112,24.264002,inter_set_rest,4,7.0,77385.0,283742.0,151335.0,280979.0,161444.0
2026-04-14 18:17:41.564966,870906,1609508155182422,5755152003,0.808128,0.042944,0.134688,-3.6575,7.63875,-8.91625,-12.112,15.456,26.016,inter_set_rest,4,7.0,77385.0,283742.0,151335.0,280979.0,161444.0
2026-04-14 18:17:41.580618,870907,1609508155196927,5755166872,0.808128,0.042944,0.134688,-7.665,8.65375,-7.02625,-12.112,15.456,26.016,inter_set_rest,4,7.0,77385.0,283742.0,151335.0,280979.0,161444.0
2026-04-14 18:17:41.588831,870908,1609508155206068,5755175601,0.9272,-0.00976,0.343552,-11.865,9.31875,-5.67,-11.920001,15.64,24.464,inter_set_rest,4,7.0,77385.0,283742.0,151335.0,280979.0,161444.0
2026-04-14 18:17:41.603746,870909,1609508155220560,5755190511,0.9272,-0.00976,0.343552,-14.8225,8.5925,-3.68375,-11.920001,15.64,24.464,inter_set_rest,4,7.0,77385.0,283742.0,151335.0,280979.0,161444.0
2026-04-14 18:17:41.612978,870910,1609508155229475,5755199186,0.90768,-0.035136,0.150304,-14.9975,8.3475,-1.95125,-11.976001,15.960001,24.128,inter_set_rest,4,7.0,77385.0,283742.0,151335.0,280979.0,161444.0
2026-04-14 18:17:41.623095,870911,1609508155238516,5755207953,0.90768,-0.035136,0.150304,-12.136251,7.41125,-1.09375,-11.976001,15.960001,24.128,inter_set_rest,4,7.0,77385.0,283742.0,151335.0,280979.0,161444.0
2026-04-14 18:17:41.655214,870922,1609508155253317,5755223001,0.821792,0.076128,0.236192,-12.11,4.655,-2.5375,-12.928,16.232,23.888,inter_set_rest,4,7.0,78050.0,283535.0,152103.0,280866.0,162524.0
2026-04-14 18:17:41.657765,870923,1609508155262315,5755231784,0.895968,0.031232,0.187392,-16.42375,1.7675,-4.17375,-12.72,16.296001,25.664001,inter_set_rest,4,7.0,78050.0,283535.0,152103.0,280866.0,162524.0
2026-04-14 18:17:41.660625,870924,1609508155276963,5755246745,0.895968,0.031232,0.187392,-24.5875,-2.40625,-4.61125,-12.72,16.296001,25.664001,inter_set_rest,4,7.0,78050.0,283535.0,152103.0,280866.0,162524.0
2026-04-14 18:17:41.668103,870925,1609508155286030,5755255440,0.802272,0.001952,0.101504,-32.4975,-7.56,-4.80375,-12.808001,16.976002,24.496,inter_set_rest,4,7.0,78050.0,283535.0,152103.0,280866.0,162524.0
2026-04-14 18:17:41.681579,870926,1609508155295020,5755264127,0.802272,0.001952,0.101504,-34.195,-13.13375,-2.61625,-12.808001,16.976002,24.496,inter_set_rest,4,7.0,78050.0,283535.0,152103.0,280866.0,162524.0
2026-04-14 18:17:41.692564,870927,1609508155309555,5755279050,0.884256,-0.025376,0.144448,-32.4625,-14.752501,-0.7875,-12.016001,16.800001,23.36,inter_set_rest,4,7.0,78050.0,283535.0,152103.0,280866.0,162524.0
2026-04-14 18:17:41.702431,870928,1609508155318602,5755287925,0.884256,-0.025376,0.144448,-31.7975,-8.8375,-2.6775,-12.016001,16.800001,23.36,inter_set_rest,4,7.0,78050.0,283535.0,152103.0,280866.0,162524.0
2026-04-14 18:17:41.715191,870929,1609508155333064,5755302884,0.882304,0.03904,0.199104,-31.692501,-5.565,-7.48125,-12.584001,17.368,24.112001,inter_set_rest,4,7.0,78050.0,283535.0,152103.0,280866.0,162524.0
2026-04-14 18:17:41.726594,870930,1609508155342053,5755311572,0.882304,0.070272,0.167872,-32.38375,-4.865,-11.92625,-12.584001,17.368,24.112001,inter_set_rest,4,7.0,78050.0,283535.0,152103.0,280866.0,162524.0
2026-04-14 18:17:41.756287,870941,1609508155351349,5755320738,0.827648,0.064416,0.167872,-36.8025,-1.86375,-15.9425,-12.808001,17.400002,25.096,inter_set_rest,4,7.0,115900.0,303318.0,196497.0,295621.0,208400.0
2026-04-14 18:17:41.757611,870942,1609508155365947,5755335657,0.90768,-0.035136,0.023424,-43.1725,-3.9025,-18.4975,-13.64,18.2,23.68,inter_set_rest,4,7.0,115900.0,303318.0,196497.0,295621.0,208400.0
2026-04-14 18:17:41.760028,870943,1609508155375026,5755344432,0.90768,-0.035136,0.023424,-49.0525,-2.54625,-21.07875,-13.64,18.2,23.68,inter_set_rest,4,7.0,115900.0,303318.0,196497.0,295621.0,208400.0
2026-04-14 18:17:41.772399,870944,1609508155389701,5755359360,0.884256,-0.001952,0.20496,-50.26,-0.35,-23.485,-13.216001,18.192001,23.2,inter_set_rest,4,7.0,115900.0,303318.0,196497.0,295621.0,208400.0
2026-04-14 18:17:41.779881,870945,1609508155398653,5755368185,0.884256,-0.001952,0.20496,-48.763752,1.11125,-25.165,-13.216001,18.192001,23.2,inter_set_rest,4,7.0,115900.0,303318.0,196497.0,295621.0,208400.0
2026-04-14 18:17:41.791419,870946,1609508155407676,5755376911,0.974048,-0.005856,0.281088,-49.04375,3.54375,-25.8475,-12.592001,19.104,23.008001,inter_set_rest,4,7.0,115900.0,303318.0,196497.0,295621.0,208400.0
2026-04-14 18:17:41.811460,870947,1609508155422146,5755391800,0.974048,-0.005856,0.281088,-53.05125,5.78375,-25.41875,-12.592001,19.104,23.008001,inter_set_rest,4,7.0,115900.0,303318.0,196497.0,295621.0,208400.0
2026-04-14 18:17:41.813961,870948,1609508155431106,5755400516,0.890112,-0.011712,0.162016,-57.61,8.015,-25.12125,-13.296001,19.456001,21.448002,inter_set_rest,4,7.0,115900.0,303318.0,196497.0,295621.0,208400.0
2026-04-14 18:17:41.829045,870949,1609508155445614,5755415418,0.88816,-0.040992,0.11712,-59.36875,10.8675,-24.815,-13.632001,19.616001,21.888,inter_set_rest,4,7.0,115900.0,303318.0,196497.0,295621.0,208400.0
2026-04-14 18:17:41.931798,870960,1609508155454730,5755424384,0.88816,-0.040992,0.11712,-57.785,14.58625,-24.78,-13.632001,19.616001,21.888,inter_set_rest,4,7.0,112630.0,300390.0,192019.0,293436.0,202920.0
2026-04-14 18:17:41.934288,870961,1609508155469333,5755439283,0.925248,-0.023424,0.173728,-54.7225,16.8875,-24.56125,-13.408001,20.44,22.304,inter_set_rest,4,7.0,112630.0,300390.0,192019.0,293436.0,202920.0
2026-04-14 18:17:41.936296,870962,1609508155478282,5755447987,0.925248,-0.023424,0.173728,-54.08375,18.82125,-24.6575,-13.408001,20.44,22.304,inter_set_rest,4,7.0,112630.0,300390.0,192019.0,293436.0,202920.0
2026-04-14 18:17:41.939363,870963,1609508155487233,5755456691,0.94672,-0.056608,0.203008,-56.77875,19.775,-24.045,-12.960001,20.928001,21.912,inter_set_rest,4,7.0,112630.0,300390.0,192019.0,293436.0,202920.0
2026-04-14 18:17:41.941886,870964,1609508155501888,5755471607,0.94672,-0.056608,0.203008,-61.87125,17.745,-24.10625,-12.960001,20.928001,21.912,inter_set_rest,4,7.0,112630.0,300390.0,192019.0,293436.0,202920.0
2026-04-14 18:17:41.944333,870965,1609508155510805,5755480309,0.90768,-0.081984,0.033184,-64.785,15.785,-23.26625,-13.168,21.888,21.960001,inter_set_rest,4,7.0,112630.0,300390.0,192019.0,293436.0,202920.0
2026-04-14 18:17:41.946859,870966,1609508155525301,5755495179,0.895968,-0.074176,0.181536,-64.95125,13.39625,-22.95125,-14.696001,21.944,23.488,inter_set_rest,4,7.0,112630.0,300390.0,192019.0,293436.0,202920.0
2026-04-14 18:17:41.949348,870967,1609508155534263,5755503899,0.895968,-0.074176,0.181536,-64.18125,10.47375,-24.54375,-14.696001,21.944,23.488,inter_set_rest,4,7.0,112630.0,300390.0,192019.0,293436.0,202920.0
2026-04-14 18:17:41.951885,870968,1609508155548864,5755518799,0.882304,-0.130784,0.054656,-59.1675,6.11625,-26.71375,-13.912001,22.632002,20.736,inter_set_rest,4,7.0,112630.0,300390.0,192019.0,293436.0,202920.0
2026-04-14 18:17:41.978749,870979,1609508155558105,5755527570,0.882304,-0.130784,0.054656,-54.34625,2.1175,-27.536251,-13.912001,22.632002,20.736,inter_set_rest,4,7.0,53620.0,253765.0,116853.0,253150.0,125835.0
2026-04-14 18:17:41.981835,870980,1609508155567373,5755536407,0.8784,-0.10736,0.066368,-50.732502,-0.72625,-25.41,-13.68,22.408,20.296001,inter_set_rest,4,7.0,53620.0,253765.0,116853.0,253150.0,125835.0
2026-04-14 18:17:41.984243,870981,1609508155581938,5755551287,0.8784,-0.10736,0.066368,-47.46,-1.89875,-22.67125,-13.68,22.408,20.296001,inter_set_rest,4,7.0,53620.0,253765.0,116853.0,253150.0,125835.0
2026-04-14 18:17:41.986368,870982,1609508155590876,5755560049,0.987712,-0.13664,0.275232,-41.65,-2.45,-21.2625,-14.128,22.816002,19.976002,inter_set_rest,4,7.0,53620.0,253765.0,116853.0,253150.0,125835.0
2026-04-14 18:17:41.989389,870983,1609508155605534,5755574988,0.835456,-0.128832,0.171776,-34.7725,-4.165,-20.79875,-14.144001,22.976002,18.336,inter_set_rest,4,7.0,53620.0,253765.0,116853.0,253150.0,125835.0
2026-04-14 18:17:41.996863,870984,1609508155614576,5755583732,0.835456,-0.128832,0.171776,-30.52,-5.845,-21.11375,-14.144001,22.976002,18.336,inter_set_rest,4,7.0,53620.0,253765.0,116853.0,253150.0,125835.0
2026-04-14 18:17:42.005087,870985,1609508155623509,5755592424,0.835456,-0.128832,0.171776,-25.515,-6.405,-20.27375,-14.144001,22.976002,18.336,inter_set_rest,4,7.0,53620.0,253765.0,116853.0,253150.0,125835.0
2026-04-14 18:17:42.020230,870986,1609508155638020,5755607315,0.86864,-0.128832,0.189344,-21.21875,-6.4925,-19.4775,-14.104001,23.104002,20.328001,inter_set_rest,4,7.0,53620.0,253765.0,116853.0,253150.0,125835.0
2026-04-14 18:17:42.030656,870987,1609508155646906,5755616028,0.798368,-0.046848,0.236192,-20.09,-6.74625,-19.6175,-14.264001,22.896002,19.488,inter_set_rest,4,7.0,53620.0,253765.0,116853.0,253150.0,125835.0
2026-04-14 18:17:42.058021,870998,1609508155661550,5755631015,0.798368,-0.046848,0.236192,-20.02875,-6.51,-19.5825,-14.264001,22.896002,19.488,inter_set_rest,4,7.0,55169.0,258248.0,119584.0,256442.0,129030.0
2026-04-14 18:17:42.060509,870999,1609508155670506,5755639777,0.851072,-0.130784,0.244,-20.15125,-6.3175,-18.78625,-14.848001,23.216002,19.616001,inter_set_rest,4,7.0,55169.0,258248.0,119584.0,256442.0,129030.0
2026-04-14 18:17:42.063016,871000,1609508155679458,5755648458,0.851072,-0.130784,0.244,-21.62125,-5.4075,-16.0475,-14.848001,23.216002,19.616001,inter_set_rest,4,7.0,55169.0,258248.0,119584.0,256442.0,129030.0
2026-04-14 18:17:42.075494,871001,1609508155694041,5755663436,0.798368,-0.130784,0.142496,-21.48125,-4.26125,-11.80375,-14.768001,23.512001,19.136002,inter_set_rest,4,7.0,55169.0,258248.0,119584.0,256442.0,129030.0
2026-04-14 18:17:42.086504,871002,1609508155702996,5755672159,0.798368,-0.130784,0.142496,-21.20125,-3.78,-8.4875,-14.768001,23.512001,19.136002,inter_set_rest,4,7.0,55169.0,258248.0,119584.0,256442.0,129030.0
2026-04-14 18:17:42.100600,871003,1609508155717590,5755687051,0.841312,-0.070272,0.42944,-18.8475,-4.40125,-8.015,-13.856001,22.856,19.28,inter_set_rest,4,7.0,55169.0,258248.0,119584.0,256442.0,129030.0
2026-04-14 18:17:42.111849,871004,1609508155726562,5755695750,0.769088,-0.015616,0.218624,-17.08,-5.39875,-8.75,-15.888001,23.592001,19.416,inter_set_rest,4,7.0,55169.0,258248.0,119584.0,256442.0,129030.0
2026-04-14 18:17:42.126921,871005,1609508155741157,5755710640,0.769088,-0.015616,0.218624,-17.43875,-5.11,-10.605001,-15.888001,23.592001,19.416,inter_set_rest,4,7.0,55169.0,258248.0,119584.0,256442.0,129030.0
2026-04-14 18:17:42.133191,871006,1609508155750114,5755719454,0.845216,-0.093696,0.337696,-19.78375,-5.41625,-12.9675,-14.136001,23.072,17.888,inter_set_rest,4,7.0,55169.0,258248.0,119584.0,256442.0,129030.0
2026-04-14 18:17:42.160366,871017,1609508155759131,5755728261,0.845216,-0.093696,0.337696,-24.8325,-6.15125,-16.45,-14.136001,23.072,17.888,inter_set_rest,4,7.0,59123.0,262881.0,125356.0,259840.0,135094.0
2026-04-14 18:17:42.163086,871018,1609508155773666,5755743151,0.81984,-0.124928,0.189344,-33.5475,-6.79,-19.0575,-15.248001,23.392,18.312,inter_set_rest,4,7.0,59123.0,262881.0,125356.0,259840.0,135094.0
2026-04-14 18:17:42.165591,871019,1609508155782742,5755751950,0.81984,-0.124928,0.189344,-25.7775,-2.9225,-13.46625,-15.248001,23.392,18.312,inter_set_rest,4,7.0,59123.0,262881.0,125356.0,259840.0,135094.0
2026-04-14 18:17:42.180684,871020,1609508155797252,5755766867,0.827648,-0.0976,0.46848,-24.64875,-3.5525,-14.42875,-15.184001,23.568,18.048,inter_set_rest,4,7.0,59123.0,262881.0,125356.0,259840.0,135094.0
2026-04-14 18:17:42.190638,871021,1609508155806202,5755775577,0.876448,-0.07808,0.45872,-21.91875,-3.45625,-14.86625,-15.264001,23.584002,17.936,inter_set_rest,4,7.0,59123.0,262881.0,125356.0,259840.0,135094.0
2026-04-14 18:17:42.198186,871022,1609508155815159,5755784257,0.876448,-0.07808,0.45872,-18.69875,-2.1,-13.405,-15.264001,23.584002,17.936,inter_set_rest,4,7.0,59123.0,262881.0,125356.0,259840.0,135094.0
2026-04-14 18:17:42.232300,871023,1609508155829687,5755799187,0.80032,-0.103456,0.359168,-15.015,-1.68875,-14.385,-14.608001,23.376001,16.976002,inter_set_rest,4,7.0,59123.0,262881.0,125356.0,259840.0,135094.0
2026-04-14 18:17:42.253735,871024,1609508155838594,5755807871,0.80032,-0.103456,0.359168,-12.32875,-2.44125,-14.79625,-14.608001,23.376001,16.976002,inter_set_rest,4,7.0,59123.0,262881.0,125356.0,259840.0,135094.0
2026-04-14 18:17:42.281926,871035,1609508155853057,5755823351,0.808128,-0.154208,0.257664,-11.655,-2.70375,-14.0875,-15.592001,23.576,19.584002,inter_set_rest,4,7.0,61915.0,262782.0,129585.0,260918.0,139387.0
2026-04-14 18:17:42.284438,871036,1609508155862007,5755832094,0.808128,-0.154208,0.257664,-10.84125,-2.31,-12.136251,-15.592001,23.576,19.584002,inter_set_rest,4,7.0,61915.0,262782.0,129585.0,260918.0,139387.0
2026-04-14 18:17:42.286313,871037,1609508155876537,5755844952,0.821792,-0.154208,0.277184,-10.75375,-2.0125,-9.58125,-15.896001,23.856,18.288,inter_set_rest,4,7.0,61915.0,262782.0,129585.0,260918.0,139387.0
2026-04-14 18:17:42.289377,871038,1609508155885809,5755856158,0.83936,-0.163968,0.42944,-10.43875,0.2275,-6.825,-15.896001,23.856,18.496,inter_set_rest,4,7.0,61915.0,262782.0,129585.0,260918.0,139387.0
2026-04-14 18:17:42.291878,871039,1609508155894894,5755864856,0.83936,-0.163968,0.42944,-8.75,2.9575,-4.75125,-15.544001,23.744001,18.496,inter_set_rest,4,7.0,61915.0,262782.0,129585.0,260918.0,139387.0
2026-04-14 18:17:42.294378,871040,1609508155909725,5755879801,0.835456,-0.181536,0.413824,-4.97,5.5475,-2.68625,-16.36,23.928001,18.880001,inter_set_rest,4,7.0,61915.0,262782.0,129585.0,260918.0,139387.0
2026-04-14 18:17:42.300608,871041,1609508155918685,5755888532,0.835456,-0.181536,0.413824,0.5075,7.7875,-0.8925,-16.36,23.928001,18.880001,inter_set_rest,4,7.0,61915.0,262782.0,129585.0,260918.0,139387.0
2026-04-14 18:17:42.316874,871042,1609508155933186,5755903466,0.913536,-0.167872,0.491904,5.495,9.8,0.88375,-14.768001,23.2,17.408,inter_set_rest,4,7.0,61915.0,262782.0,129585.0,260918.0,139387.0
2026-04-14 18:17:42.325647,871043,1609508155942134,5755912276,0.913536,-0.167872,0.491904,10.71875,10.10625,2.63375,-14.768001,23.2,17.408,inter_set_rest,4,7.0,61915.0,262782.0,129585.0,260918.0,139387.0
2026-04-14 18:17:42.339456,871044,1609508155951153,5755920964,0.925248,-0.183488,0.3904,14.28,9.292501,3.64875,-14.6,23.240002,17.568,inter_set_rest,4,7.0,61915.0,262782.0,129585.0,260918.0,139387.0
2026-04-14 18:17:42.365483,871055,1609508155965861,5755935965,0.925248,-0.183488,0.470432,15.4525,8.44375,4.7425,-14.6,23.240002,17.568,inter_set_rest,4,7.0,61599.0,263759.0,129424.0,263189.0,139243.0
2026-04-14 18:17:42.367577,871056,1609508155974926,5755944732,0.847168,-0.158112,0.470432,18.4275,7.2975,4.865,-14.52,23.248001,17.048,inter_set_rest,4,7.0,61599.0,263759.0,129424.0,263189.0,139243.0
2026-04-14 18:17:42.371807,871057,1609508155989557,5755959738,0.80032,-0.11712,0.376736,23.2575,5.55625,5.565,-14.144001,22.648,18.072,inter_set_rest,4,7.0,61599.0,263759.0,129424.0,263189.0,139243.0
2026-04-14 18:17:42.381909,871058,1609508155998708,5755968448,0.80032,-0.11712,0.376736,28.2275,5.31125,5.99375,-14.144001,22.648,18.072,inter_set_rest,4,7.0,61599.0,263759.0,129424.0,263189.0,139243.0
2026-04-14 18:17:42.394694,871059,1609508156007643,5755977154,0.83936,-0.109312,0.411872,32.06,4.7075,6.265,-15.120001,22.768002,20.0,inter_set_rest,4,7.0,61599.0,263759.0,129424.0,263189.0,139243.0
2026-04-14 18:17:42.405289,871060,1609508156022257,5755992071,0.83936,-0.109312,0.411872,34.09,3.80625,7.21875,-15.120001,22.768002,20.0,inter_set_rest,4,7.0,61599.0,263759.0,129424.0,263189.0,139243.0
2026-04-14 18:17:42.412833,871061,1609508156031261,5756000831,0.856928,-0.124928,0.345504,35.105,3.1325,9.6075,-15.024001,22.640001,18.096,inter_set_rest,4,7.0,61599.0,263759.0,129424.0,263189.0,139243.0
2026-04-14 18:17:42.429533,871062,1609508156045826,5756015774,0.856928,-0.124928,0.345504,34.60625,2.7475,11.05125,-15.024001,22.640001,18.096,inter_set_rest,4,7.0,61599.0,263759.0,129424.0,263189.0,139243.0
2026-04-14 18:17:42.462712,871073,1609508156055178,5756024547,0.782752,-0.060512,0.277184,34.5975,2.345,10.4825,-13.904,21.84,19.208,inter_set_rest,4,7.0,61407.0,258376.0,129796.0,259608.0,139542.0
2026-04-14 18:17:42.465324,871074,1609508156064233,5756033356,0.782752,-0.060512,0.277184,35.44625,2.87875,10.17625,-13.904,21.84,19.208,inter_set_rest,4,7.0,61407.0,258376.0,129796.0,259608.0,139542.0
2026-04-14 18:17:42.467812,871075,1609508156078783,5756048286,0.866688,-0.035136,0.445056,35.70875,4.12125,9.09125,-14.568001,21.456001,19.944,inter_set_rest,4,7.0,61407.0,258376.0,129796.0,259608.0,139542.0
2026-04-14 18:17:42.470062,871076,1609508156087727,5756056987,0.835456,-0.035136,0.480192,34.763752,5.78375,8.155,-14.688001,21.888,20.536001,inter_set_rest,4,7.0,61407.0,258376.0,129796.0,259608.0,139542.0
2026-04-14 18:17:42.486514,871077,1609508156102301,5756071881,0.835456,-0.035136,0.480192,32.1475,6.2125,8.2775,-14.688001,21.888,20.536001,inter_set_rest,4,7.0,61407.0,258376.0,129796.0,259608.0,139542.0
2026-04-14 18:17:42.515293,871078,1609508156111292,5756080615,0.815936,-0.0488,0.247904,31.7625,7.44625,8.61,-14.264001,21.432001,20.376001,inter_set_rest,4,7.0,61407.0,258376.0,129796.0,259608.0,139542.0
2026-04-14 18:17:42.521251,871079,1609508156125775,5756095542,0.815936,-0.0488,0.247904,32.576252,8.23375,9.40625,-14.264001,21.432001,20.376001,inter_set_rest,4,7.0,61407.0,258376.0,129796.0,259608.0,139542.0
2026-04-14 18:17:42.521706,871080,1609508156134698,5756104230,0.929152,0.005856,0.42944,30.555,9.21375,8.636251,-15.080001,21.632002,21.584002,inter_set_rest,4,7.0,61407.0,258376.0,129796.0,259608.0,139542.0
2026-04-14 18:17:42.526236,871081,1609508156143643,5756113078,0.929152,0.005856,0.42944,25.585001,10.75375,7.175,-15.080001,21.632002,21.584002,inter_set_rest,4,7.0,61407.0,258376.0,129796.0,259608.0,139542.0
2026-04-14 18:17:42.564075,871092,1609508156158278,5756128085,0.913536,0.013664,0.435296,21.88375,13.4575,4.865,-12.976001,20.736,19.776001,inter_set_rest,4,7.0,63266.0,262692.0,132770.0,263039.0,142560.0
2026-04-14 18:17:42.566507,871093,1609508156167415,5756136899,0.913536,-0.076128,0.27328,18.15625,15.25125,4.025,-12.976001,20.736,21.824001,inter_set_rest,4,7.0,63266.0,262692.0,132770.0,263039.0,142560.0
2026-04-14 18:17:42.568902,871094,1609508156182081,5756151862,0.890112,-0.076128,0.27328,17.56125,17.75375,5.34625,-12.672001,20.592001,21.968,inter_set_rest,4,7.0,63266.0,262692.0,132770.0,263039.0,142560.0
2026-04-14 18:17:42.596455,871095,1609508156191036,5756160548,0.870592,-0.105408,0.1952,18.85625,19.36375,7.8925,-12.56,20.44,20.92,inter_set_rest,4,7.0,63266.0,262692.0,132770.0,263039.0,142560.0
2026-04-14 18:17:42.623227,871096,1609508156200000,5756169292,0.870592,-0.105408,0.1952,18.75125,19.62625,10.75375,-12.56,20.44,20.92,inter_set_rest,4,7.0,63266.0,262692.0,132770.0,263039.0,142560.0
2026-04-14 18:17:42.625631,871097,1609508156214448,5756184224,0.925248,-0.023424,0.318176,17.0625,19.74875,13.125,-12.792001,20.816002,20.176,inter_set_rest,4,7.0,63266.0,262692.0,132770.0,263039.0,142560.0
2026-04-14 18:17:42.626542,871098,1609508156223379,5756192898,0.925248,-0.023424,0.318176,12.94125,18.803751,14.72625,-12.792001,20.816002,20.176,inter_set_rest,4,7.0,63266.0,262692.0,132770.0,263039.0,142560.0
2026-04-14 18:17:42.628632,871099,1609508156237889,5756207817,0.895968,0.015616,0.216672,8.53125,16.625,15.1375,-12.688001,20.832,21.776001,inter_set_rest,4,7.0,63266.0,262692.0,132770.0,263039.0,142560.0
2026-04-14 18:17:42.631724,871100,1609508156246889,5756216533,0.895968,0.015616,0.216672,6.02875,15.1375,14.30625,-12.688001,20.832,21.776001,inter_set_rest,4,7.0,63266.0,262692.0,132770.0,263039.0,142560.0
2026-04-14 18:17:42.668144,871111,1609508156261439,5756229815,0.812032,-0.031232,0.21472,3.29,13.5275,13.0025,-12.552001,20.880001,22.080002,inter_set_rest,4,7.0,70276.0,273676.0,142755.0,271430.0,152525.0
2026-04-14 18:17:42.670653,871112,1609508156270837,5756240674,0.823744,-0.074176,0.169824,-0.4375,11.6375,12.71375,-11.184001,20.776001,20.464,inter_set_rest,4,7.0,70276.0,273676.0,142755.0,271430.0,152525.0
2026-04-14 18:17:42.673011,871113,1609508156279753,5756249356,0.823744,-0.074176,0.169824,-1.33875,8.26,13.1775,-11.184001,20.776001,20.464,inter_set_rest,4,7.0,70276.0,273676.0,142755.0,271430.0,152525.0
2026-04-14 18:17:42.678010,871114,1609508156294488,5756264296,0.817888,-0.023424,0.150304,-0.7525,6.72875,12.81,-11.048,20.808,21.000002,inter_set_rest,4,7.0,70276.0,273676.0,142755.0,271430.0,152525.0
2026-04-14 18:17:42.686538,871115,1609508156303560,5756273000,0.817888,-0.023424,0.150304,1.63625,6.335,12.005,-11.048,20.808,21.000002,inter_set_rest,4,7.0,70276.0,273676.0,142755.0,271430.0,152525.0
2026-04-14 18:17:42.701967,871116,1609508156318097,5756287922,0.909632,-0.031232,0.357216,2.7825,4.43625,9.0475,-11.048,20.872002,21.104,inter_set_rest,4,7.0,70276.0,273676.0,142755.0,271430.0,152525.0
2026-04-14 18:17:42.708977,871117,1609508156327090,5756296634,0.909632,-0.031232,0.357216,2.2925,2.905,7.1925,-11.048,20.872002,21.104,inter_set_rest,4,7.0,70276.0,273676.0,142755.0,271430.0,152525.0
2026-04-14 18:17:42.718638,871118,1609508156336038,5756305317,0.90768,-0.099552,0.199104,2.555,2.5725,5.11875,-11.272,20.664001,19.568,inter_set_rest,4,7.0,70276.0,273676.0,142755.0,271430.0,152525.0
2026-04-14 18:17:42.734236,871119,1609508156350539,5756320306,0.91744,-0.113216,0.216672,2.30125,1.575,2.91375,-10.808001,20.448002,20.056002,inter_set_rest,4,7.0,70276.0,273676.0,142755.0,271430.0,152525.0
2026-04-14 18:17:42.768931,871130,1609508156359656,5756329194,0.91744,-0.113216,0.216672,2.2925,0.875,1.51375,-10.808001,20.448002,20.056002,inter_set_rest,4,7.0,66644.0,269425.0,137892.0,267217.0,147675.0
2026-04-14 18:17:42.771383,871131,1609508156374322,5756344211,0.884256,-0.046848,0.359168,2.1875,1.435,1.7325,-12.040001,20.400002,21.752,inter_set_rest,4,7.0,66644.0,269425.0,137892.0,267217.0,147675.0
2026-04-14 18:17:42.773882,871132,1609508156383243,5756352915,0.884256,-0.046848,0.359168,1.49625,1.11125,0.0175,-12.040001,20.400002,21.752,inter_set_rest,4,7.0,66644.0,269425.0,137892.0,267217.0,147675.0
2026-04-14 18:17:42.782151,871133,1609508156397986,5756367806,0.88816,-0.050752,0.355264,0.25375,0.9275,-1.5575,-11.768001,20.856,21.880001,inter_set_rest,4,7.0,66644.0,269425.0,137892.0,267217.0,147675.0
2026-04-14 18:17:42.788699,871134,1609508156406967,5756376552,0.88816,-0.050752,0.355264,-0.63,1.68875,-2.24875,-11.768001,20.856,21.880001,inter_set_rest,4,7.0,66644.0,269425.0,137892.0,267217.0,147675.0
2026-04-14 18:17:42.798844,871135,1609508156415955,5756385258,0.872544,-0.10736,0.115168,0.0875,2.8,-3.9375,-11.008,20.744001,21.080002,inter_set_rest,4,7.0,66644.0,269425.0,137892.0,267217.0,147675.0
2026-04-14 18:17:42.815011,871136,1609508156430513,5756400297,0.915488,-0.072224,0.199104,1.00625,3.52625,-6.15125,-11.352,20.528002,20.552,inter_set_rest,4,7.0,66644.0,269425.0,137892.0,267217.0,147675.0
2026-04-14 18:17:42.822951,871137,1609508156439611,5756408975,0.915488,-0.072224,0.199104,2.0475,3.9375,-7.0175,-11.352,20.528002,20.552,inter_set_rest,4,7.0,66644.0,269425.0,137892.0,267217.0,147675.0
2026-04-14 18:17:42.836333,871138,1609508156454149,5756423975,0.831552,-0.03904,0.232288,2.8,3.36,-7.8225,-10.968,20.776001,21.336,inter_set_rest,4,7.0,66644.0,269425.0,137892.0,267217.0,147675.0
2026-04-14 18:17:42.874423,871149,1609508156463130,5756432736,0.831552,-0.03904,0.232288,0.6825,1.70625,-7.81375,-10.968,20.776001,21.336,inter_set_rest,4,7.0,70061.0,272275.0,142916.0,270012.0,152842.0
2026-04-14 18:17:42.876964,871150,1609508156472125,5756441457,0.837408,-0.01952,0.167872,0.5425,0.2975,-7.4375,-10.784,20.616001,21.048,inter_set_rest,4,7.0,70061.0,272275.0,142916.0,270012.0,152842.0
2026-04-14 18:17:42.878796,871151,1609508156486681,5756456367,0.837408,-0.01952,0.167872,0.69125,-0.65625,-8.05875,-10.784,20.616001,21.048,inter_set_rest,4,7.0,70061.0,272275.0,142916.0,270012.0,152842.0
2026-04-14 18:17:42.881447,871152,1609508156495614,5756465092,0.823744,0.017568,0.169824,0.3675,-1.93375,-10.185,-11.184001,20.624,21.328001,inter_set_rest,4,7.0,70061.0,272275.0,142916.0,270012.0,152842.0
2026-04-14 18:17:42.892820,871153,1609508156510110,5756479982,0.835456,-0.011712,0.1464,-2.24875,-3.96375,-12.15375,-12.192,20.776001,19.352001,inter_set_rest,4,7.0,70061.0,272275.0,142916.0,270012.0,152842.0
2026-04-14 18:17:42.904210,871154,1609508156519055,5756488737,0.835456,-0.011712,0.1464,-4.62,-6.13375,-13.02,-12.192,20.776001,19.352001,inter_set_rest,4,7.0,70061.0,272275.0,142916.0,270012.0,152842.0
2026-04-14 18:17:42.918004,871155,1609508156533576,5756503633,0.860832,-0.001952,0.333792,-5.34625,-7.56875,-13.86875,-11.136001,20.408,21.000002,inter_set_rest,4,7.0,70061.0,272275.0,142916.0,270012.0,152842.0
2026-04-14 18:17:42.925512,871156,1609508156542697,5756512469,0.860832,-0.001952,0.333792,-3.2725,-8.77625,-13.895,-11.136001,20.408,21.000002,inter_set_rest,4,7.0,70061.0,272275.0,142916.0,270012.0,152842.0
2026-04-14 18:17:42.934261,871157,1609508156551727,5756521183,0.870592,0.015616,0.353312,-2.17,-10.0975,-12.74875,-12.296001,20.888,20.472,inter_set_rest,4,7.0,70061.0,272275.0,142916.0,270012.0,152842.0
2026-04-14 18:17:43.027872,871168,1609508156566296,5756536135,0.870592,0.015616,0.353312,-3.96375,-11.12125,-11.61125,-12.296001,20.888,20.472,inter_set_rest,4,7.0,74755.0,273313.0,149403.0,271661.0,159315.0
2026-04-14 18:17:43.029964,871169,1609508156575306,5756544830,0.821792,0.01952,0.111264,-5.64375,-11.73375,-11.48875,-11.704,20.480001,21.608002,inter_set_rest,4,7.0,74755.0,273313.0,149403.0,271661.0,159315.0
2026-04-14 18:17:43.032135,871170,1609508156589799,5756559749,0.821792,0.01952,0.3904,-5.9325,-12.8275,-11.305,-11.704,20.480001,21.608002,inter_set_rest,4,7.0,74755.0,273313.0,149403.0,271661.0,159315.0
2026-04-14 18:17:43.034713,871171,1609508156598851,5756568500,0.915488,0.003904,0.3904,-6.39625,-13.195,-10.823751,-12.472,20.800001,23.688002,inter_set_rest,4,7.0,74755.0,273313.0,149403.0,271661.0,159315.0
2026-04-14 18:17:43.036441,871172,1609508156607792,5756577171,0.915488,0.003904,0.3904,-10.12375,-13.50125,-9.24875,-12.472,20.800001,23.688002,inter_set_rest,4,7.0,74755.0,273313.0,149403.0,271661.0,159315.0
2026-04-14 18:17:43.038892,871173,1609508156622365,5756592052,0.837408,-0.00976,0.236192,-13.50125,-11.61125,-7.14875,-13.304001,21.104,21.816002,inter_set_rest,4,7.0,74755.0,273313.0,149403.0,271661.0,159315.0
2026-04-14 18:17:43.041771,871174,1609508156631327,5756600786,0.870592,0.015616,0.365024,-14.28,-8.54875,-5.45125,-13.080001,20.952002,21.768002,inter_set_rest,4,7.0,74755.0,273313.0,149403.0,271661.0,159315.0
2026-04-14 18:17:43.044251,871175,1609508156645837,5756615714,0.870592,0.015616,0.365024,-13.02875,-6.5975,-4.94375,-13.080001,20.952002,21.768002,inter_set_rest,4,7.0,74755.0,273313.0,149403.0,271661.0,159315.0
2026-04-14 18:17:43.046437,871176,1609508156654789,5756624435,0.942816,-0.033184,0.333792,-11.29625,-6.16,-4.48,-13.448001,21.224,21.584002,inter_set_rest,4,7.0,74755.0,273313.0,149403.0,271661.0,159315.0
2026-04-14 18:17:43.083804,871187,1609508156669591,5756639505,0.942816,-0.033184,0.333792,-11.235,-6.79,-3.3775,-13.448001,21.224,21.584002,inter_set_rest,4,7.0,76425.0,273826.0,151618.0,272372.0,161508.0
2026-04-14 18:17:43.083928,871188,1609508156678564,5756648205,0.833504,-0.027328,0.163968,-12.8625,-7.79625,-2.47625,-13.408001,21.336,21.184002,inter_set_rest,4,7.0,76425.0,273826.0,151618.0,272372.0,161508.0
2026-04-14 18:17:43.089128,871189,1609508156687540,5756656927,0.833504,-0.027328,0.163968,-14.385,-8.25125,-1.12875,-13.408001,21.336,21.184002,inter_set_rest,4,7.0,76425.0,273826.0,151618.0,272372.0,161508.0
2026-04-14 18:17:43.089415,871190,1609508156702090,5756671844,0.870592,0.003904,0.3904,-14.67375,-7.67375,-0.46375,-13.984,21.696001,22.408,inter_set_rest,4,7.0,76425.0,273826.0,151618.0,272372.0,161508.0
2026-04-14 18:17:43.095439,871191,1609508156711069,5756680547,0.854976,-0.033184,0.255712,-15.33875,-6.93,-0.48125,-13.984,21.696001,21.208,inter_set_rest,4,7.0,76425.0,273826.0,151618.0,272372.0,161508.0
2026-04-14 18:17:43.110121,871192,1609508156725600,5756695441,0.853024,-0.033184,0.255712,-16.05625,-6.15125,-0.37625,-14.392001,21.696001,21.208,inter_set_rest,4,7.0,76425.0,273826.0,151618.0,272372.0,161508.0
2026-04-14 18:17:43.116270,871193,1609508156734537,5756704175,0.853024,-0.089792,0.18544,-16.9925,-5.775,-0.37625,-12.824,21.328001,20.024,inter_set_rest,4,7.0,76425.0,273826.0,151618.0,272372.0,161508.0
2026-04-14 18:17:43.124998,871194,1609508156743630,5756712873,0.853024,-0.089792,0.18544,-15.14625,-5.83625,1.12,-12.824,21.328001,20.024,inter_set_rest,4,7.0,76425.0,273826.0,151618.0,272372.0,161508.0
2026-04-14 18:17:43.181350,871205,1609508156758235,5756727807,0.911584,-0.095648,0.191296,-11.54125,-5.9675,2.66875,-12.464001,21.568,18.2,inter_set_rest,4,7.0,76489.0,276276.0,151568.0,274602.0,161483.0
2026-04-14 18:17:43.188544,871206,1609508156767296,5756736585,0.911584,-0.095648,0.191296,-9.17875,-5.66125,2.84375,-12.464001,21.568,18.2,inter_set_rest,4,7.0,76489.0,276276.0,151568.0,274602.0,161483.0
2026-04-14 18:17:43.189756,871207,1609508156781876,5756751698,0.9272,-0.070272,0.343552,-9.66875,-5.3725,3.21125,-13.224001,21.888,20.68,inter_set_rest,4,7.0,76489.0,276276.0,151568.0,274602.0,161483.0
2026-04-14 18:17:43.189847,871208,1609508156790943,5756760418,0.9272,-0.070272,0.343552,-12.0925,-4.165,2.51125,-13.224001,21.888,20.68,inter_set_rest,4,7.0,76489.0,276276.0,151568.0,274602.0,161483.0
2026-04-14 18:17:43.191121,871209,1609508156805513,5756775496,0.89792,-0.111264,0.201056,-13.965,-3.7975,2.485,-13.376,22.12,20.688002,inter_set_rest,4,7.0,76489.0,276276.0,151568.0,274602.0,161483.0
2026-04-14 18:17:43.197995,871210,1609508156814651,5756784225,0.9272,-0.13664,0.23424,-13.685,-3.35125,2.6075,-13.168,21.728,19.296001,inter_set_rest,4,7.0,76489.0,276276.0,151568.0,274602.0,161483.0
2026-04-14 18:17:43.205577,871211,1609508156823712,5756793015,0.9272,-0.13664,0.23424,-10.29,-2.86125,3.36875,-13.168,21.728,19.296001,inter_set_rest,4,7.0,76489.0,276276.0,151568.0,274602.0,161483.0
2026-04-14 18:17:43.220123,871212,1609508156838185,5756807965,0.81984,-0.064416,0.259616,-8.46125,-2.84375,3.45625,-12.272,21.464,19.952002,inter_set_rest,4,7.0,76489.0,276276.0,151568.0,274602.0,161483.0
2026-04-14 18:17:43.231822,871213,1609508156847104,5756816636,0.81984,-0.064416,0.259616,-7.49875,-2.415,3.5525,-12.272,21.464,19.952002,inter_set_rest,4,7.0,76489.0,276276.0,151568.0,274602.0,161483.0
2026-04-14 18:17:43.264410,871224,1609508156862363,5756831631,0.919392,-0.08784,0.363072,-7.8575,-0.8925,3.22875,-12.368001,21.768002,19.624,inter_set_rest,4,7.0,76192.0,278884.0,151285.0,276979.0,161212.0
2026-04-14 18:17:43.266418,871225,1609508156871448,5756840383,0.919392,-0.08784,0.363072,-8.5225,-0.14875,1.6975,-12.368001,21.768002,19.624,inter_set_rest,4,7.0,76192.0,278884.0,151285.0,276979.0,161212.0
2026-04-14 18:17:43.271879,871226,1609508156880422,5756849165,0.827648,-0.105408,0.152256,-9.10875,0.69125,0.88375,-12.512001,21.744001,21.224,inter_set_rest,4,7.0,76192.0,278884.0,151285.0,276979.0,161212.0
2026-04-14 18:17:43.286347,871227,1609508156895556,5756864102,0.931104,-0.122976,0.38064,-8.86375,1.0325,0.77875,-12.448001,21.872002,19.568,inter_set_rest,4,7.0,76192.0,278884.0,151285.0,276979.0,161212.0
2026-04-14 18:17:43.288880,871228,1609508156904919,5756874866,0.931104,-0.122976,0.38064,-7.7,0.2975,0.83125,-12.448001,21.872002,19.568,inter_set_rest,4,7.0,76192.0,278884.0,151285.0,276979.0,161212.0
2026-04-14 18:17:43.296687,871229,1609508156913867,5756883566,0.903776,-0.074176,0.435296,-5.2675,0.20125,0.63,-12.168,21.920002,17.904001,inter_set_rest,4,7.0,76192.0,278884.0,151285.0,276979.0,161212.0
2026-04-14 18:17:43.334372,871230,1609508156928370,5756898475,0.903776,-0.074176,0.435296,-4.5675,-0.02625,-0.2975,-12.168,21.920002,17.904001,inter_set_rest,4,7.0,76192.0,278884.0,151285.0,276979.0,161212.0
2026-04-14 18:17:43.336713,871231,1609508156937280,5756907140,0.798368,-0.05856,0.226432,-5.55625,0.18375,-0.5775,-12.304001,22.064001,19.824001,inter_set_rest,4,7.0,76192.0,278884.0,151285.0,276979.0,161212.0
2026-04-14 18:17:43.339354,871232,1609508156951779,5756922031,0.798368,-0.05856,0.226432,-6.4925,0.2275,-1.56625,-12.304001,22.064001,19.824001,inter_set_rest,4,7.0,76192.0,278884.0,151285.0,276979.0,161212.0
2026-04-14 18:17:43.414377,871243,1609508156961154,5756930779,0.85888,-0.091744,0.366976,-7.44625,-0.665,-1.79375,-12.248,22.160002,18.984001,inter_set_rest,4,7.0,78462.0,281895.0,154214.0,279668.0,164114.0
2026-04-14 18:17:43.416876,871244,1609508156970146,5756939481,0.85888,-0.091744,0.366976,-6.97375,-1.05,-1.33,-12.248,22.160002,18.984001,inter_set_rest,4,7.0,78462.0,281895.0,154214.0,279668.0,164114.0
2026-04-14 18:17:43.418964,871245,1609508156984732,5756954418,0.923296,-0.111264,0.3904,-5.25875,-0.65625,-0.84875,-12.344001,22.008001,20.216002,inter_set_rest,4,7.0,78462.0,281895.0,154214.0,279668.0,164114.0
2026-04-14 18:17:43.421869,871246,1609508156993681,5756963124,0.817888,-0.052704,0.306464,-3.63125,-0.5075,-1.4,-12.872001,22.512001,16.048,inter_set_rest,4,7.0,78462.0,281895.0,154214.0,279668.0,164114.0
2026-04-14 18:17:43.424419,871247,1609508157008171,5756977989,0.817888,-0.052704,0.306464,-4.13875,-0.46375,-1.68,-12.872001,22.512001,16.048,inter_set_rest,4,7.0,78462.0,281895.0,154214.0,279668.0,164114.0
2026-04-14 18:17:43.426893,871248,1609508157017197,5756986728,0.856928,-0.119072,0.208864,-6.20375,-0.0525,-1.75,-13.256001,22.176,20.288,inter_set_rest,4,7.0,78462.0,281895.0,154214.0,279668.0,164114.0
2026-04-14 18:17:43.429390,871249,1609508157031719,5757001687,0.856928,-0.119072,0.208864,-7.5775,-0.2625,-2.03,-13.256001,22.176,20.288,inter_set_rest,4,7.0,78462.0,281895.0,154214.0,279668.0,164114.0
2026-04-14 18:17:43.431891,871250,1609508157040740,5757010410,0.9272,-0.132736,0.368928,-5.71375,-0.14875,-1.995,-13.136001,22.424002,21.400002,inter_set_rest,4,7.0,78462.0,281895.0,154214.0,279668.0,164114.0
2026-04-14 18:17:43.434374,871251,1609508157049798,5757019222,0.9272,-0.132736,0.368928,-4.26125,0.42875,-1.91625,-13.136001,22.424002,21.400002,inter_set_rest,4,7.0,78462.0,281895.0,154214.0,279668.0,164114.0
2026-04-14 18:17:43.468842,871262,1609508157064477,5757034533,0.841312,-0.095648,0.228384,-4.375,0.5425,-1.84625,-13.208,22.448002,20.408,inter_set_rest,4,7.0,79901.0,283821.0,156040.0,281259.0,165968.0
2026-04-14 18:17:43.471276,871263,1609508157073447,5757043239,0.942816,-0.122976,0.35136,-6.685,1.2775,-1.47,-13.208,22.648,21.592001,inter_set_rest,4,7.0,79901.0,283821.0,156040.0,281259.0,165968.0
2026-04-14 18:17:43.476722,871264,1609508157088046,5757058138,0.942816,-0.122976,0.35136,-9.31,1.05875,-1.995,-13.272,22.648,21.592001,inter_set_rest,4,7.0,79901.0,283821.0,156040.0,281259.0,165968.0
2026-04-14 18:17:43.479215,871265,1609508157097072,5757066902,0.931104,-0.10736,0.404064,-9.24,0.98875,-2.51125,-13.928,22.512001,21.28,inter_set_rest,4,7.0,79901.0,283821.0,156040.0,281259.0,165968.0
2026-04-14 18:17:43.488039,871266,1609508157106010,5757075627,0.931104,-0.10736,0.404064,-5.1975,0.35,-3.3425,-13.928,22.512001,21.28,inter_set_rest,4,7.0,79901.0,283821.0,156040.0,281259.0,165968.0
2026-04-14 18:17:43.504196,871267,1609508157120604,5757090517,0.851072,-0.115168,0.26352,-1.9775,-0.735,-3.56125,-12.176001,22.400002,17.056002,inter_set_rest,4,7.0,79901.0,283821.0,156040.0,281259.0,165968.0
2026-04-14 18:17:43.513089,871268,1609508157129609,5757099240,0.851072,-0.115168,0.26352,-1.8375,-1.11125,-2.59875,-12.176001,22.400002,17.056002,inter_set_rest,4,7.0,79901.0,283821.0,156040.0,281259.0,165968.0
2026-04-14 18:17:43.528133,871269,1609508157144154,5757114169,0.876448,-0.148352,0.177632,-2.68625,-1.26875,-1.785,-12.376,22.024,19.368,inter_set_rest,4,7.0,79901.0,283821.0,156040.0,281259.0,165968.0
2026-04-14 18:17:43.535400,871270,1609508157153291,5757122878,0.876448,-0.148352,0.177632,-3.42125,-0.98875,-1.6625,-12.376,22.024,19.368,inter_set_rest,4,7.0,79901.0,283821.0,156040.0,281259.0,165968.0
2026-04-14 18:17:43.573075,871281,1609508157162547,5757131702,0.894016,-0.099552,0.394304,-3.43,-1.015,-1.35625,-11.888001,22.544,20.224,inter_set_rest,4,7.0,81902.0,286607.0,158485.0,283426.0,168456.0
2026-04-14 18:17:43.575567,871282,1609508157177104,5757146609,0.895968,-0.11712,0.415776,-2.56375,-1.47,-0.3325,-12.088,22.36,19.752,inter_set_rest,4,7.0,81902.0,286607.0,158485.0,283426.0,168456.0
2026-04-14 18:17:43.578069,871283,1609508157186036,5757155307,0.895968,-0.11712,0.415776,-3.01,-2.3625,0.44625,-12.088,22.36,19.752,inter_set_rest,4,7.0,81902.0,286607.0,158485.0,283426.0,168456.0
2026-04-14 18:17:43.582654,871284,1609508157200597,5757170236,0.911584,-0.105408,0.445056,-1.82,-2.555,1.4,-12.84,22.384,19.872002,inter_set_rest,4,7.0,81902.0,286607.0,158485.0,283426.0,168456.0
2026-04-14 18:17:43.593075,871285,1609508157209552,5757178933,0.911584,-0.105408,0.445056,-0.595,-1.9425,1.46125,-12.84,22.384,19.872002,inter_set_rest,4,7.0,81902.0,286607.0,158485.0,283426.0,168456.0
2026-04-14 18:17:43.609074,871286,1609508157224204,5757193795,0.905728,-0.081984,0.38064,-0.525,-1.4525,1.12,-13.120001,22.376001,19.624,inter_set_rest,4,7.0,81902.0,286607.0,158485.0,283426.0,168456.0
2026-04-14 18:17:43.615284,871287,1609508157233318,5757202552,0.905728,-0.081984,0.38064,-1.7325,-1.21625,0.595,-13.120001,22.376001,19.624,inter_set_rest,4,7.0,81902.0,286607.0,158485.0,283426.0,168456.0
2026-04-14 18:17:43.624407,871288,1609508157242287,5757211245,0.864736,-0.0976,0.376736,-4.62875,-1.75,-0.035,-12.256001,22.352001,19.944,inter_set_rest,4,7.0,81902.0,286607.0,158485.0,283426.0,168456.0
2026-04-14 18:17:43.639455,871289,1609508157256856,5757226127,0.915488,-0.154208,0.337696,-5.705,-2.415,-0.34125,-11.992001,22.464,19.184,inter_set_rest,4,7.0,81902.0,286607.0,158485.0,283426.0,168456.0
2026-04-14 18:17:43.668071,871300,1609508157266055,5757234908,0.915488,-0.154208,0.337696,-3.955,-2.84375,0.0875,-11.992001,22.464,19.184,inter_set_rest,4,7.0,81005.0,286351.0,157128.0,283057.0,166998.0
2026-04-14 18:17:43.670631,871301,1609508157280577,5757249877,0.85888,-0.11712,0.21472,-0.7525,-3.21125,0.65625,-12.76,22.384,20.984001,inter_set_rest,4,7.0,81005.0,286351.0,157128.0,283057.0,166998.0
2026-04-14 18:17:43.673074,871302,1609508157289522,5757258631,0.85888,-0.11712,0.21472,0.58625,-3.57875,0.385,-12.76,22.384,20.984001,inter_set_rest,4,7.0,81005.0,286351.0,157128.0,283057.0,166998.0
2026-04-14 18:17:43.700298,871303,1609508157298489,5757267474,0.815936,-0.103456,0.132736,-1.8375,-3.47375,-0.14875,-13.888001,22.904001,20.824001,concentric,4,7.0,81005.0,286351.0,157128.0,283057.0,166998.0
2026-04-14 18:17:43.724976,871304,1609508157313015,5757282398,0.815936,-0.103456,0.132736,-5.2675,-3.31625,-0.41125,-13.888001,22.904001,20.824001,concentric,4,7.0,81005.0,286351.0,157128.0,283057.0,166998.0
2026-04-14 18:17:43.727973,871305,1609508157322036,5757291222,0.894016,-0.1464,0.296704,-6.36125,-3.89375,-0.14875,-13.808001,22.720001,19.584002,concentric,4,7.0,81005.0,286351.0,157128.0,283057.0,166998.0
2026-04-14 18:17:43.730461,871306,1609508157336529,5757306092,0.778848,-0.081984,0.242048,-6.22125,-4.43625,-0.105,-12.992001,22.592001,19.632002,concentric,4,7.0,81005.0,286351.0,157128.0,283057.0,166998.0
2026-04-14 18:17:43.733024,871307,1609508157345534,5757314824,0.778848,-0.081984,0.242048,-4.06,-4.4275,0.0,-12.992001,22.592001,19.632002,concentric,4,7.0,81005.0,286351.0,157128.0,283057.0,166998.0
2026-04-14 18:17:43.795247,871318,1609508157360012,5757329875,0.882304,-0.0976,0.335744,-1.65375,-3.78875,-0.5425,-13.040001,22.472,20.328001,concentric,4,7.0,78465.0,283580.0,153728.0,280631.0,163558.0
2026-04-14 18:17:43.807896,871319,1609508157369083,5757338611,0.882304,-0.0976,0.335744,-2.12625,-3.1325,-1.81125,-13.040001,22.472,20.328001,concentric,4,7.0,78465.0,283580.0,153728.0,280631.0,163558.0
2026-04-14 18:17:43.810307,871320,1609508157378194,5757347331,0.763232,-0.101504,0.142496,-5.80125,-3.66625,-2.59875,-13.608001,22.504002,20.240002,concentric,4,7.0,78465.0,283580.0,153728.0,280631.0,163558.0
2026-04-14 18:17:43.812776,871321,1609508157392731,5757362248,0.763232,-0.101504,0.142496,-8.82875,-3.8325,-2.59875,-13.608001,22.504002,20.240002,concentric,4,7.0,78465.0,283580.0,153728.0,280631.0,163558.0
2026-04-14 18:17:43.815330,871322,1609508157401700,5757370984,0.821792,-0.138592,0.13664,-8.68875,-4.235,-3.325,-13.104001,22.480001,20.064001,concentric,4,7.0,78465.0,283580.0,153728.0,280631.0,163558.0
2026-04-14 18:17:43.817930,871323,1609508157416332,5757385962,0.860832,-0.113216,0.339648,-6.0375,-3.77125,-3.9375,-12.968,22.376001,17.424002,concentric,4,7.0,78465.0,283580.0,153728.0,280631.0,163558.0
2026-04-14 18:17:43.820340,871324,1609508157425253,5757394694,0.860832,-0.113216,0.339648,-3.2025,-2.96625,-4.83,-12.968,22.376001,17.424002,concentric,4,7.0,78465.0,283580.0,153728.0,280631.0,163558.0
2026-04-14 18:17:43.822835,871325,1609508157434399,5757403388,0.860832,-0.113216,0.339648,-2.07375,-2.65125,-6.13375,-12.968,22.376001,17.424002,concentric,4,7.0,78465.0,283580.0,153728.0,280631.0,163558.0
2026-04-14 18:17:43.830277,871326,1609508157448919,5757418327,0.757376,-0.0976,0.167872,-2.19625,-2.275,-6.88625,-12.040001,22.944,19.160002,concentric,4,7.0,78465.0,283580.0,153728.0,280631.0,163558.0
2026-04-14 18:17:43.840340,871327,1609508157457827,5757427027,0.74176,-0.101504,0.183488,-2.66875,-2.98375,-7.37625,-12.280001,22.36,19.216002,concentric,4,7.0,78465.0,283580.0,153728.0,280631.0,163558.0
2026-04-14 18:17:43.867881,871338,1609508157472593,5757442105,0.74176,-0.101504,0.183488,-1.70625,-3.535,-8.09375,-12.280001,22.36,19.216002,concentric,4,7.0,77129.0,282251.0,151929.0,279284.0,161824.0
2026-04-14 18:17:43.870241,871339,1609508157481522,5757450804,0.776896,-0.115168,0.128832,0.27125,-4.59375,-8.56625,-12.632001,22.592001,19.256,concentric,4,7.0,77129.0,282251.0,151929.0,279284.0,161824.0
2026-04-14 18:17:43.872794,871340,1609508157490462,5757459575,0.776896,-0.115168,0.128832,1.7325,-4.45375,-9.77375,-12.632001,22.592001,19.256,concentric,4,7.0,77129.0,282251.0,151929.0,279284.0,161824.0
2026-04-14 18:17:43.886357,871341,1609508157504969,5757474492,0.84912,-0.095648,0.318176,2.0825,-4.12125,-11.45375,-12.880001,22.072,18.992,concentric,4,7.0,77129.0,282251.0,151929.0,279284.0,161824.0
2026-04-14 18:17:43.895338,871342,1609508157513965,5757483221,0.84912,-0.095648,0.318176,2.2225,-4.27875,-12.6,-12.880001,22.072,18.992,concentric,4,7.0,77129.0,282251.0,151929.0,279284.0,161824.0
2026-04-14 18:17:43.912919,871343,1609508157528605,5757498211,0.759328,-0.121024,0.113216,1.21625,-4.38375,-13.230001,-13.032001,22.2,18.92,concentric,4,7.0,77129.0,282251.0,151929.0,279284.0,161824.0
2026-04-14 18:17:43.920338,871344,1609508157537508,5757506883,0.733952,-0.0976,0.16592,1.47,-4.10375,-12.775,-13.208,21.776001,19.256,concentric,4,7.0,77129.0,282251.0,151929.0,279284.0,161824.0
2026-04-14 18:17:43.935928,871345,1609508157552071,5757521853,0.733952,-0.0976,0.16592,1.96875,-3.85875,-12.08375,-13.208,21.776001,19.256,concentric,4,7.0,77129.0,282251.0,151929.0,279284.0,161824.0
2026-04-14 18:17:43.969005,871356,1609508157561046,5757531076,0.76128,-0.064416,0.320128,2.03,-3.955,-12.06625,-12.992001,22.256,19.512001,concentric,4,7.0,78968.0,282620.0,154144.0,279124.0,164211.0
2026-04-14 18:17:43.971532,871357,1609508157570015,5757539823,0.76128,-0.064416,0.320128,2.1525,-2.4325,-12.38125,-12.992001,22.256,19.512001,concentric,4,7.0,78968.0,282620.0,154144.0,279124.0,164211.0
2026-04-14 18:17:43.974087,871358,1609508157584678,5757554869,0.76128,-0.0976,0.115168,3.5875,-1.2425,-12.34625,-13.888001,22.376001,19.976002,concentric,4,7.0,78968.0,282620.0,154144.0,279124.0,164211.0
2026-04-14 18:17:43.976587,871359,1609508157593608,5757563574,0.76128,-0.0976,0.115168,3.68375,0.0,-12.55625,-13.888001,22.376001,19.976002,concentric,4,7.0,78968.0,282620.0,154144.0,279124.0,164211.0
2026-04-14 18:17:43.991909,871360,1609508157608186,5757578490,0.767136,-0.070272,0.355264,2.485,1.2425,-12.3375,-14.344001,22.456001,19.240002,concentric,4,7.0,78968.0,282620.0,154144.0,279124.0,164211.0
2026-04-14 18:17:44.000636,871361,1609508157617149,5757587252,0.79056,-0.070272,0.345504,2.93125,1.84625,-13.58,-13.52,21.936,20.096,concentric,4,7.0,78968.0,282620.0,154144.0,279124.0,164211.0
2026-04-14 18:17:44.013161,871362,1609508157631636,5757600133,0.79056,-0.070272,0.345504,5.46875,3.465,-14.5075,-13.52,21.936,20.096,concentric,4,7.0,78968.0,282620.0,154144.0,279124.0,164211.0
2026-04-14 18:17:44.024396,871363,1609508157640913,5757610895,0.661728,-0.06832,0.0976,6.125,5.29375,-15.91625,-14.096001,22.176,20.44,concentric,4,7.0,78968.0,282620.0,154144.0,279124.0,164211.0
2026-04-14 18:17:44.033082,871364,1609508157649845,5757619578,0.661728,-0.06832,0.0976,5.635,7.0,-16.616251,-14.096001,22.176,20.44,concentric,4,7.0,78968.0,282620.0,154144.0,279124.0,164211.0
2026-04-14 18:17:44.116901,871375,1609508157664391,5757634617,0.718336,-0.072224,0.324032,4.1125,8.295,-15.96875,-14.088,22.016,21.184002,concentric,4,7.0,82827.0,285031.0,158834.0,280621.0,169056.0
2026-04-14 18:17:44.118969,871376,1609508157673406,5757643351,0.718336,-0.072224,0.324032,2.09125,9.1175,-13.72,-14.088,22.016,21.184002,concentric,4,7.0,82827.0,285031.0,158834.0,280621.0,169056.0
2026-04-14 18:17:44.123268,871377,1609508157687900,5757658223,0.745664,-0.093696,0.124928,1.39125,9.7125,-11.6725,-13.552001,21.52,19.696001,concentric,4,7.0,82827.0,285031.0,158834.0,280621.0,169056.0
2026-04-14 18:17:44.123735,871378,1609508157697099,5757666943,0.745664,0.0,0.343552,1.88125,10.66625,-11.99625,-13.552001,21.52,19.696001,concentric,4,7.0,82827.0,285031.0,158834.0,280621.0,169056.0
2026-04-14 18:17:44.128721,871379,1609508157706043,5757675648,0.704672,0.0,0.343552,6.1075,11.85625,-13.825,-13.312,21.624,21.144001,concentric,4,7.0,82827.0,285031.0,158834.0,280621.0,169056.0
2026-04-14 18:17:44.128800,871380,1609508157720524,5757690531,0.769088,-0.081984,0.259616,8.93375,12.67,-16.70375,-13.256001,21.248001,20.008001,concentric,4,7.0,82827.0,285031.0,158834.0,280621.0,169056.0
2026-04-14 18:17:44.131169,871381,1609508157729620,5757699279,0.769088,-0.081984,0.259616,8.42625,13.50125,-18.45375,-13.256001,21.248001,20.008001,concentric,4,7.0,82827.0,285031.0,158834.0,280621.0,169056.0
2026-04-14 18:17:44.134240,871382,1609508157744181,5757714227,0.6832,-0.052704,0.238144,6.265,14.25375,-17.4825,-13.352,21.232,19.616001,concentric,4,7.0,82827.0,285031.0,158834.0,280621.0,169056.0
2026-04-14 18:17:44.136277,871383,1609508157753230,5757722933,0.6832,-0.052704,0.238144,4.4275,14.323751,-15.155,-13.352,21.232,19.616001,concentric,4,7.0,82827.0,285031.0,158834.0,280621.0,169056.0
2026-04-14 18:17:44.177907,871394,1609508157762336,5757732126,0.706624,-0.033184,0.171776,2.835,14.27125,-14.65625,-13.368001,20.976002,20.608002,concentric,4,7.0,89367.0,289995.0,167169.0,285292.0,177751.0
2026-04-14 18:17:44.180648,871395,1609508157776927,5757747140,0.706624,-0.033184,0.171776,5.4425,15.49625,-15.58375,-13.368001,20.976002,20.608002,concentric,4,7.0,89367.0,289995.0,167169.0,285292.0,177751.0
2026-04-14 18:17:44.182803,871396,1609508157785918,5757755840,0.64416,0.033184,0.216672,8.14625,17.185,-17.29,-14.416,21.696001,20.648,concentric,4,7.0,89367.0,289995.0,167169.0,285292.0,177751.0
2026-04-14 18:17:44.185595,871397,1609508157800422,5757770779,0.706624,-0.074176,0.154208,10.43875,17.8675,-19.0575,-14.296001,21.400002,20.344002,concentric,4,7.0,89367.0,289995.0,167169.0,285292.0,177751.0
2026-04-14 18:17:44.191904,871398,1609508157809349,5757779558,0.706624,-0.074176,0.154208,12.32875,17.14125,-18.22625,-14.296001,21.400002,20.344002,concentric,4,7.0,89367.0,289995.0,167169.0,285292.0,177751.0
2026-04-14 18:17:44.205650,871399,1609508157823879,5757792398,0.745664,-0.046848,0.171776,12.29375,17.21125,-14.28875,-13.432001,20.608002,20.384,concentric,4,7.0,89367.0,289995.0,167169.0,285292.0,177751.0
2026-04-14 18:17:44.217647,871400,1609508157833264,5757803147,0.745664,-0.046848,0.171776,11.261251,15.715,-12.55625,-13.432001,20.608002,20.384,concentric,4,7.0,89367.0,289995.0,167169.0,285292.0,177751.0
2026-04-14 18:17:44.225085,871401,1609508157842208,5757811826,0.657824,0.085888,0.16592,13.37875,16.09125,-13.71125,-13.504001,20.504002,20.704,concentric,4,7.0,89367.0,289995.0,167169.0,285292.0,177751.0
2026-04-14 18:17:44.240511,871402,1609508157856828,5757826742,0.657824,0.085888,0.16592,18.92625,19.7925,-13.5275,-13.504001,20.504002,20.704,concentric,4,7.0,89367.0,289995.0,167169.0,285292.0,177751.0
2026-04-14 18:17:44.271350,871413,1609508157866228,5757835638,0.679296,0.050752,0.298656,20.13375,21.63,-14.30625,-13.392,20.432001,18.088001,concentric,4,7.0,99324.0,294899.0,179522.0,290246.0,190541.0
2026-04-14 18:17:44.274408,871414,1609508157880844,5757850583,0.681248,-0.001952,0.308416,14.91875,22.91625,-13.195,-14.952001,20.936,23.176,concentric,4,7.0,99324.0,294899.0,179522.0,290246.0,190541.0
2026-04-14 18:17:44.276472,871415,1609508157889787,5757859324,0.681248,-0.001952,0.308416,7.1575,24.185,-9.05625,-14.952001,20.936,23.176,concentric,4,7.0,99324.0,294899.0,179522.0,290246.0,190541.0
2026-04-14 18:17:44.281942,871416,1609508157898724,5757868089,0.747616,0.013664,0.206912,1.1375,24.03625,-7.6825,-14.952001,20.736,22.6,concentric,4,7.0,99324.0,294899.0,179522.0,290246.0,190541.0
2026-04-14 18:17:44.296939,871417,1609508157913211,5757882954,0.747616,0.013664,0.206912,-1.995,22.303751,-8.3475,-15.256001,20.736,22.6,concentric,4,7.0,99324.0,294899.0,179522.0,290246.0,190541.0
2026-04-14 18:17:44.304331,871418,1609508157922191,5757891726,0.677344,0.060512,0.12688,5.31125,20.825,-7.98,-13.304001,20.560001,21.544,concentric,4,7.0,99324.0,294899.0,179522.0,290246.0,190541.0
2026-04-14 18:17:44.318789,871419,1609508157936669,5757906612,0.677344,0.060512,0.12688,14.175,18.375,-8.33,-13.304001,20.560001,21.544,concentric,4,7.0,99324.0,294899.0,179522.0,290246.0,190541.0
2026-04-14 18:17:44.330029,871420,1609508157945586,5757915301,0.747616,0.023424,0.427488,10.10625,15.23375,-9.66,-13.072001,20.568,21.392,concentric,4,7.0,99324.0,294899.0,179522.0,290246.0,190541.0
2026-04-14 18:17:44.344378,871421,1609508157960091,5757930220,0.67344,0.042944,0.206912,5.08375,13.81625,-6.62375,-13.120001,20.52,22.160002,concentric,4,7.0,99324.0,294899.0,179522.0,290246.0,190541.0
2026-04-14 18:17:44.371439,871432,1609508157969158,5757938971,0.67344,0.042944,0.206912,0.6125,11.935,-5.85375,-13.120001,20.52,22.160002,concentric,4,7.0,98994.0,295911.0,178884.0,291248.0,189720.0
2026-04-14 18:17:44.374358,871433,1609508157978361,5757947925,0.67344,0.042944,0.206912,-0.595,10.17625,-7.37625,-13.120001,20.52,22.160002,concentric,4,7.0,98994.0,295911.0,178884.0,291248.0,189720.0
2026-04-14 18:17:44.376874,871434,1609508157992911,5757962905,0.732,0.072224,0.265472,4.26125,7.98875,-8.88125,-14.152,20.480001,24.536001,concentric,4,7.0,98994.0,295911.0,178884.0,291248.0,189720.0
2026-04-14 18:17:44.386536,871435,1609508158001845,5757971604,0.812032,0.03904,0.450912,9.695,6.1775,-11.480001,-14.016001,20.248001,21.752,concentric,4,7.0,98994.0,295911.0,178884.0,291248.0,189720.0
2026-04-14 18:17:44.404786,871436,1609508158016499,5757986545,0.812032,0.03904,0.450912,6.9475,5.4075,-13.16875,-14.016001,20.248001,21.752,concentric,4,7.0,98994.0,295911.0,178884.0,291248.0,189720.0
2026-04-14 18:17:44.430458,871437,1609508158025590,5757995280,0.772992,0.052704,0.392352,1.4875,5.2325,-13.11625,-13.456,19.976002,22.088001,concentric,4,7.0,98994.0,295911.0,178884.0,291248.0,189720.0
2026-04-14 18:17:44.455573,871438,1609508158034556,5758004016,0.772992,0.052704,0.392352,-2.70375,6.08125,-13.74625,-13.456,19.976002,22.088001,concentric,4,7.0,98994.0,295911.0,178884.0,291248.0,189720.0
2026-04-14 18:17:44.480329,871439,1609508158049045,5758018905,0.772992,0.023424,0.275232,-3.80625,6.29125,-15.54875,-14.240001,20.456001,23.256,concentric,4,7.0,98994.0,295911.0,178884.0,291248.0,189720.0
2026-04-14 18:17:44.508295,871440,1609508158057981,5758027584,0.772992,0.023424,0.275232,3.19375,7.595,-16.65125,-14.240001,20.456001,23.256,concentric,4,7.0,98994.0,295911.0,178884.0,291248.0,189720.0
2026-04-14 18:17:44.543069,871451,1609508158072535,5758042642,0.7808,0.062464,0.456768,10.22875,9.12625,-18.52375,-15.016001,20.496,24.352001,concentric,4,7.0,99149.0,296358.0,179052.0,291773.0,190041.0
2026-04-14 18:17:44.545618,871452,1609508158081487,5758051347,0.856928,0.074176,0.501664,13.64125,10.45625,-18.59375,-15.632001,20.344002,23.656002,concentric,4,7.0,99149.0,296358.0,179052.0,291773.0,190041.0
2026-04-14 18:17:44.548052,871453,1609508158090412,5758060066,0.856928,0.074176,0.501664,12.18,12.24125,-17.36875,-15.632001,20.344002,23.656002,concentric,4,7.0,99149.0,296358.0,179052.0,291773.0,190041.0
2026-04-14 18:17:44.550641,871454,1609508158104917,5758074952,0.769088,0.0976,0.304512,6.8425,13.4925,-16.10875,-15.376,20.024,23.048,concentric,4,7.0,99149.0,296358.0,179052.0,291773.0,190041.0
2026-04-14 18:17:44.552855,871455,1609508158113920,5758083625,0.769088,0.0976,0.304512,-1.1025,12.15375,-16.4325,-15.376,20.024,23.048,concentric,4,7.0,99149.0,296358.0,179052.0,291773.0,190041.0
2026-04-14 18:17:44.555629,871456,1609508158128535,5758098610,0.81984,0.064416,0.208864,-1.2775,11.917501,-19.1275,-14.976001,20.096,23.032001,concentric,4,7.0,99149.0,296358.0,179052.0,291773.0,190041.0
2026-04-14 18:17:44.557680,871457,1609508158137455,5758107302,0.81984,0.064416,0.208864,8.58375,11.54125,-20.1075,-14.976001,20.096,23.032001,concentric,4,7.0,99149.0,296358.0,179052.0,291773.0,190041.0
2026-04-14 18:17:44.560117,871458,1609508158152049,5758122274,0.8784,0.05856,0.37088,16.66,9.6775,-20.71125,-14.992001,20.168001,23.288002,concentric,4,7.0,99149.0,296358.0,179052.0,291773.0,190041.0
2026-04-14 18:17:44.562872,871459,1609508158161050,5758131003,0.796416,0.109312,0.374784,19.81,8.645,-19.88,-15.256001,19.352001,23.672,concentric,4,7.0,99149.0,296358.0,179052.0,291773.0,190041.0
2026-04-14 18:17:44.592375,871470,1609508158170160,5758139747,0.796416,0.109312,0.374784,16.3275,9.065,-19.5125,-15.256001,19.352001,23.672,concentric,4,7.0,110710.0,300755.0,193216.0,296317.0,204421.0
2026-04-14 18:17:44.592990,871471,1609508158184968,5758154678,0.870592,0.150304,0.357216,9.91375,10.0975,-19.99375,-15.512001,19.688002,22.736002,concentric,4,7.0,110710.0,300755.0,193216.0,296317.0,204421.0
2026-04-14 18:17:44.595132,871472,1609508158194017,5758163357,0.870592,0.150304,0.357216,7.69125,10.66625,-20.51,-15.512001,19.688002,22.736002,concentric,4,7.0,110710.0,300755.0,193216.0,296317.0,204421.0
2026-04-14 18:17:44.603415,871473,1609508158208567,5758178345,0.913536,0.154208,0.505568,11.38375,8.8725,-20.88625,-15.568001,18.976002,22.872002,concentric,4,7.0,110710.0,300755.0,193216.0,296317.0,204421.0
2026-04-14 18:17:44.603504,871474,1609508158217568,5758187049,0.913536,0.154208,0.505568,11.13,6.1775,-21.06125,-15.568001,18.976002,22.872002,concentric,4,7.0,110710.0,300755.0,193216.0,296317.0,204421.0
2026-04-14 18:17:44.610492,871475,1609508158226505,5758195732,0.929152,0.101504,0.402112,5.52125,2.79125,-19.425,-14.752001,18.976002,23.032001,concentric,4,7.0,110710.0,300755.0,193216.0,296317.0,204421.0
2026-04-14 18:17:44.623052,871476,1609508158241016,5758210679,0.876448,0.148352,0.36112,2.68625,-0.23625,-17.94625,-14.800001,19.184,23.192001,concentric,4,7.0,110710.0,300755.0,193216.0,296317.0,204421.0
2026-04-14 18:17:44.633073,871477,1609508158249976,5758219367,0.876448,0.148352,0.36112,4.64625,0.8925,-18.9875,-14.800001,19.184,23.192001,concentric,4,7.0,110710.0,300755.0,193216.0,296317.0,204421.0
2026-04-14 18:17:44.649384,871478,1609508158264483,5758234256,0.913536,0.183488,0.343552,11.59375,3.82375,-19.678751,-15.152,18.808,23.256,concentric,4,7.0,110710.0,300755.0,193216.0,296317.0,204421.0
2026-04-14 18:17:44.679399,871490,1609508158273476,5758243051,0.913536,0.183488,0.343552,16.2575,6.01125,-20.44875,-15.152,18.808,23.256,concentric,4,7.0,126485.0,305241.0,212330.0,300453.0,223603.0
2026-04-14 18:17:44.681900,871491,1609508158288224,5758258000,1.020896,0.158112,0.499712,16.31,6.4925,-20.41375,-17.208,19.216002,25.016,concentric,4,7.0,126485.0,305241.0,212330.0,300453.0,223603.0
2026-04-14 18:17:44.685934,871492,1609508158297330,5758266736,1.020896,0.158112,0.499712,11.83875,6.01125,-18.82125,-17.208,19.216002,25.016,concentric,4,7.0,126485.0,305241.0,212330.0,300453.0,223603.0
2026-04-14 18:17:44.691866,871493,1609508158306303,5758275437,0.999424,0.201056,0.480192,7.32375,3.77125,-17.5525,-17.056002,18.632,24.248001,concentric,4,7.0,126485.0,305241.0,212330.0,300453.0,223603.0
2026-04-14 18:17:44.704256,871494,1609508158320901,5758290287,0.999424,0.216672,0.4392,4.725,1.7675,-16.93125,-17.056002,18.632,24.248001,concentric,4,7.0,126485.0,305241.0,212330.0,300453.0,223603.0
2026-04-14 18:17:44.711747,871495,1609508158329854,5758299016,1.067744,0.212768,0.4392,4.2525,-0.175,-16.84375,-15.544001,18.528002,23.320002,concentric,4,7.0,126485.0,305241.0,212330.0,300453.0,223603.0
2026-04-14 18:17:44.726816,871496,1609508158344348,5758313998,1.016992,0.269376,0.495808,7.0,-3.9375,-16.2225,-15.496,18.328001,23.672,concentric,4,7.0,126485.0,305241.0,212330.0,300453.0,223603.0
2026-04-14 18:17:44.736880,871497,1609508158353335,5758322728,1.016992,0.269376,0.495808,10.28125,-6.37,-17.0275,-15.496,18.328001,23.672,concentric,4,7.0,126485.0,305241.0,212330.0,300453.0,223603.0
2026-04-14 18:17:44.745251,871498,1609508158362299,5758331463,1.048224,0.15616,0.368928,13.195,-5.705,-19.6525,-17.248001,18.240002,22.904001,concentric,4,7.0,126485.0,305241.0,212330.0,300453.0,223603.0
2026-04-14 18:17:44.774254,871509,1609508158376976,5758346474,1.048224,0.15616,0.368928,12.7225,-6.32625,-19.97625,-17.248001,18.240002,22.904001,concentric,4,7.0,143735.0,313090.0,232602.0,306964.0,243591.0
2026-04-14 18:17:44.779866,871510,1609508158385908,5758355241,1.069696,0.105408,0.325984,15.225,-7.16625,-16.1,-17.352001,18.048,24.528002,concentric,4,7.0,143735.0,313090.0,232602.0,306964.0,243591.0
2026-04-14 18:17:44.801862,871511,1609508158400462,5758370209,1.069696,0.105408,0.325984,19.1625,-9.68625,-9.2575,-17.352001,18.048,24.528002,concentric,4,7.0,143735.0,313090.0,232602.0,306964.0,243591.0
2026-04-14 18:17:44.824085,871512,1609508158409400,5758378887,1.009184,0.249856,0.528992,17.14125,-10.49125,-2.02125,-16.808,17.896,23.800001,concentric,4,7.0,143735.0,313090.0,232602.0,306964.0,243591.0
2026-04-14 18:17:44.826884,871513,1609508158423894,5758393792,1.08336,0.27328,0.74176,12.005,-7.8575,1.995,-16.328001,18.0,23.856,concentric,4,7.0,143735.0,313090.0,232602.0,306964.0,243591.0
2026-04-14 18:17:44.829176,871514,1609508158432820,5758402508,1.08336,0.27328,0.74176,5.85375,-2.8525,3.43875,-16.328001,18.0,23.856,concentric,4,7.0,143735.0,313090.0,232602.0,306964.0,243591.0
2026-04-14 18:17:44.834385,871515,1609508158441711,5758411199,1.08336,0.181536,0.54656,3.42125,3.605,1.7675,-16.328001,18.0,23.856,concentric,4,7.0,143735.0,313090.0,232602.0,306964.0,243591.0
2026-04-14 18:17:44.841379,871516,1609508158456307,5758426140,1.056032,0.181536,0.54656,2.23125,6.755,0.91,-16.36,17.624,24.000002,concentric,4,7.0,143735.0,313090.0,232602.0,306964.0,243591.0
2026-04-14 18:17:44.848121,871517,1609508158465267,5758434859,1.104832,0.152256,0.476288,5.1625,7.8925,3.00125,-16.880001,17.688002,24.776001,concentric,4,7.0,143735.0,313090.0,232602.0,306964.0,243591.0
2026-04-14 18:17:44.874944,871528,1609508158479956,5758449818,1.104832,0.152256,0.476288,8.39125,6.22125,4.3225,-16.880001,17.688002,24.776001,eccentric,4,7.0,145653.0,316233.0,234256.0,309234.0,244813.0
2026-04-14 18:17:44.880389,871529,1609508158489002,5758458534,1.104832,0.259616,0.534848,9.0475,4.1475,5.2325,-18.232,18.152,25.128,eccentric,4,7.0,145653.0,316233.0,234256.0,309234.0,244813.0
2026-04-14 18:17:44.882054,871530,1609508158498086,5758467311,1.104832,0.259616,0.534848,4.6725,2.66875,3.5875,-18.232,18.152,25.128,eccentric,4,7.0,145653.0,316233.0,234256.0,309234.0,244813.0
2026-04-14 18:17:44.895078,871531,1609508158512594,5758482226,1.046272,0.189344,0.60512,-0.65625,2.26625,2.625,-17.528002,17.864,24.456001,eccentric,4,7.0,145653.0,316233.0,234256.0,309234.0,244813.0
2026-04-14 18:17:44.903839,871532,1609508158521520,5758490920,1.046272,0.189344,0.60512,-0.48125,3.7275,2.6775,-17.528002,17.864,24.456001,eccentric,4,7.0,145653.0,316233.0,234256.0,309234.0,244813.0
2026-04-14 18:17:44.918804,871533,1609508158536019,5758505808,1.087264,0.226432,0.521184,2.51125,4.7075,2.765,-15.968,17.472,23.152,eccentric,4,7.0,145653.0,316233.0,234256.0,309234.0,244813.0
2026-04-14 18:17:44.926544,871534,1609508158545003,5758514539,1.10288,0.275232,0.56608,3.0625,2.24,1.42625,-16.320002,17.864,24.256,eccentric,4,7.0,145653.0,316233.0,234256.0,309234.0,244813.0
2026-04-14 18:17:44.944078,871535,1609508158559507,5758529438,1.10288,0.275232,0.56608,2.835,-1.07625,-1.56625,-16.320002,17.864,24.256,eccentric,4,7.0,145653.0,316233.0,234256.0,309234.0,244813.0
2026-04-14 18:17:44.975214,871546,1609508158568952,5758538177,1.098976,0.21472,0.66368,3.66625,-2.345,-5.39875,-16.712,17.92,24.944,eccentric,4,7.0,143972.0,319368.0,231883.0,311599.0,242109.0
2026-04-14 18:17:44.977889,871547,1609508158578067,5758546933,1.098976,0.21472,0.66368,0.11375,-2.28375,-6.37,-16.712,17.92,24.944,eccentric,4,7.0,143972.0,319368.0,231883.0,311599.0,242109.0
2026-04-14 18:17:44.980306,871548,1609508158593255,5758561899,1.143872,0.177632,0.640256,-0.0875,1.2075,-5.0225,-17.224,17.704,24.752,eccentric,4,7.0,143972.0,319368.0,231883.0,311599.0,242109.0
2026-04-14 18:17:44.986459,871549,1609508158602545,5758572689,1.143872,0.177632,0.521184,-0.67375,5.3375,-2.37125,-17.224,17.704,24.752,eccentric,4,7.0,143972.0,319368.0,231883.0,311599.0,242109.0
2026-04-14 18:17:44.995280,871550,1609508158611498,5758581434,1.15168,0.244,0.521184,-4.45375,5.005,0.84875,-16.264,17.624,25.032001,eccentric,4,7.0,143972.0,319368.0,231883.0,311599.0,242109.0
2026-04-14 18:17:45.006589,871551,1609508158626035,5758594481,1.22,0.240096,0.603168,-5.6875,0.875,0.98,-16.624,17.560001,24.024002,eccentric,4,7.0,143972.0,319368.0,231883.0,311599.0,242109.0
2026-04-14 18:17:45.017755,871552,1609508158635337,5758605273,1.22,0.240096,0.603168,-3.64,-2.065,-1.91625,-16.624,17.560001,24.024002,eccentric,4,7.0,143972.0,319368.0,231883.0,311599.0,242109.0
2026-04-14 18:17:45.034056,871553,1609508158649843,5758620184,1.145824,0.124928,0.648064,-2.4325,-2.82625,-4.75125,-16.112001,17.248001,23.944,eccentric,4,7.0,143972.0,319368.0,231883.0,311599.0,242109.0
2026-04-14 18:17:45.042952,871554,1609508158658949,5758628943,1.145824,0.124928,0.648064,-2.66,-1.68,-3.885,-16.112001,17.248001,23.944,eccentric,4,7.0,143972.0,319368.0,231883.0,311599.0,242109.0
2026-04-14 18:17:45.097847,871565,1609508158667882,5758637697,1.01504,0.167872,0.470432,1.47,1.56625,-0.39375,-16.880001,17.44,25.088001,eccentric,4,7.0,143833.0,318402.0,231854.0,310909.0,242255.0
2026-04-14 18:17:45.100332,871566,1609508158682415,5758652635,1.01504,0.167872,0.470432,4.71625,4.54125,3.4475,-16.880001,17.44,25.088001,eccentric,4,7.0,143833.0,318402.0,231854.0,310909.0,242255.0
2026-04-14 18:17:45.102800,871567,1609508158691503,5758661332,1.120448,0.199104,0.534848,5.32,4.025,6.01125,-16.104,17.456001,24.376001,eccentric,4,7.0,143833.0,318402.0,231854.0,310909.0,242255.0
2026-04-14 18:17:45.105320,871568,1609508158706056,5758676276,1.071648,0.265472,0.489952,5.25,0.09625,4.96125,-15.912001,17.144001,24.296001,eccentric,4,7.0,143833.0,318402.0,231854.0,310909.0,242255.0
2026-04-14 18:17:45.107797,871569,1609508158715002,5758684972,1.071648,0.265472,0.489952,5.845,-1.8725,1.96,-15.912001,17.144001,24.296001,eccentric,4,7.0,143833.0,318402.0,231854.0,310909.0,242255.0
2026-04-14 18:17:45.110661,871570,1609508158729537,5758697951,1.026752,0.099552,0.4392,1.1725,-2.0125,-1.2425,-15.664001,17.232,24.320002,eccentric,4,7.0,143833.0,318402.0,231854.0,310909.0,242255.0
2026-04-14 18:17:45.125654,871571,1609508158739000,5758708736,1.026752,0.099552,0.4392,-2.0825,0.49875,0.41125,-15.664001,17.232,24.320002,eccentric,4,7.0,143833.0,318402.0,231854.0,310909.0,242255.0
2026-04-14 18:17:45.131622,871572,1609508158747965,5758717429,1.040416,0.1464,0.38064,1.95125,4.2875,3.66625,-15.824,17.032001,24.408,eccentric,4,7.0,143833.0,318402.0,231854.0,310909.0,242255.0
2026-04-14 18:17:45.170681,871573,1609508158762543,5758732310,1.040416,0.1464,0.38064,1.86375,5.74,5.9675,-15.824,17.032001,24.408,eccentric,4,7.0,143833.0,318402.0,231854.0,310909.0,242255.0
2026-04-14 18:17:45.232956,871584,1609508158772044,5758741027,1.057984,0.226432,0.427488,-0.83125,3.5175,7.14875,-16.04,17.640001,23.384,eccentric,4,7.0,149896.0,320582.0,239549.0,313057.0,249471.0
2026-04-14 18:17:45.235175,871585,1609508158781099,5758749765,1.057984,0.226432,0.427488,-0.0875,-0.14,4.8475,-16.04,17.640001,23.384,eccentric,4,7.0,149896.0,320582.0,239549.0,313057.0,249471.0
2026-04-14 18:17:45.237954,871586,1609508158795892,5758764665,1.095072,0.162016,0.515328,-1.47,-2.31875,2.135,-16.496,17.664001,25.296001,eccentric,4,7.0,149896.0,320582.0,239549.0,313057.0,249471.0
2026-04-14 18:17:45.240349,871587,1609508158805227,5758775457,1.081408,0.128832,0.460672,-2.38,-2.10875,1.6625,-16.400002,17.536001,24.616001,eccentric,4,7.0,149896.0,320582.0,239549.0,313057.0,249471.0
2026-04-14 18:17:45.242914,871588,1609508158819715,5758788320,1.081408,0.128832,0.460672,-1.86375,-0.42,2.51125,-16.400002,17.536001,24.616001,eccentric,4,7.0,149896.0,320582.0,239549.0,313057.0,249471.0
2026-04-14 18:17:45.245313,871589,1609508158828887,5758799073,1.00528,0.16592,0.425536,-1.70625,0.84,4.515,-16.016,17.344002,25.064001,eccentric,4,7.0,149896.0,320582.0,239549.0,313057.0,249471.0
2026-04-14 18:17:45.247953,871590,1609508158837831,5758807770,1.00528,0.16592,0.425536,-4.41875,-1.225,6.81625,-16.016,17.344002,25.064001,eccentric,4,7.0,149896.0,320582.0,239549.0,313057.0,249471.0
2026-04-14 18:17:45.250316,871591,1609508158852465,5758822672,1.028704,0.154208,0.357216,-5.29375,-2.40625,7.875,-16.0,17.312,25.528002,eccentric,4,7.0,149896.0,320582.0,239549.0,313057.0,249471.0
2026-04-14 18:17:45.255110,871592,1609508158861463,5758831374,1.028704,0.154208,0.357216,-7.0,-3.465,6.97375,-16.0,17.312,25.528002,eccentric,4,7.0,149896.0,320582.0,239549.0,313057.0,249471.0
2026-04-14 18:17:45.282791,871603,1609508158876105,5758846415,1.022848,0.140544,0.427488,-10.03625,-3.22875,6.9125,-16.008001,17.536001,25.896002,eccentric,4,7.0,150687.0,321676.0,240570.0,314100.0,250189.0
2026-04-14 18:17:45.285449,871604,1609508158885054,5758855112,1.077504,0.122976,0.573888,-9.975,-2.0475,7.65625,-16.640001,17.896,25.68,eccentric,4,7.0,150687.0,321676.0,240570.0,314100.0,250189.0
2026-04-14 18:17:45.287920,871605,1609508158899591,5758867988,1.077504,0.122976,0.573888,-9.84375,-0.2975,8.32125,-16.640001,17.896,25.68,eccentric,4,7.0,150687.0,321676.0,240570.0,314100.0,250189.0
2026-04-14 18:17:45.292878,871606,1609508158908945,5758878760,1.050176,0.171776,0.542656,-9.73875,0.28875,9.52,-16.328001,17.592001,24.584002,eccentric,4,7.0,150687.0,321676.0,240570.0,314100.0,250189.0
2026-04-14 18:17:45.300345,871607,1609508158917894,5758887455,1.050176,0.171776,0.542656,-7.67375,-1.89875,9.59,-16.328001,17.592001,24.584002,eccentric,4,7.0,150687.0,321676.0,240570.0,314100.0,250189.0
2026-04-14 18:17:45.316396,871608,1609508158932361,5758902371,0.944768,0.142496,0.345504,-7.56875,-4.7075,8.44375,-15.472001,17.2,23.296001,eccentric,4,7.0,150687.0,321676.0,240570.0,314100.0,250189.0
2026-04-14 18:17:45.324050,871609,1609508158941341,5758911146,0.944768,0.142496,0.345504,-8.65375,-6.1425,8.5225,-15.472001,17.2,23.296001,eccentric,4,7.0,150687.0,321676.0,240570.0,314100.0,250189.0
2026-04-14 18:17:45.340662,871610,1609508158955853,5758926071,0.8784,0.085888,0.376736,-10.05375,-5.985,9.905,-14.256001,17.416,24.112001,eccentric,4,7.0,150687.0,321676.0,240570.0,314100.0,250189.0
2026-04-14 18:17:45.347804,871611,1609508158964829,5758934756,0.8784,0.085888,0.46848,-10.4125,-4.795,13.0375,-14.256001,17.416,24.112001,eccentric,4,7.0,150687.0,321676.0,240570.0,314100.0,250189.0
2026-04-14 18:17:45.380585,871622,1609508158974382,5758943564,0.913536,0.103456,0.46848,-8.82,-3.22,17.10625,-15.192,17.672,24.104002,eccentric,4,7.0,143260.0,319037.0,231750.0,311922.0,242004.0
2026-04-14 18:17:45.383080,871623,1609508158988890,5758958546,0.853024,0.152256,0.392352,-7.07,-4.6025,20.055,-14.72,17.576,24.056002,eccentric,4,7.0,143260.0,319037.0,231750.0,311922.0,242004.0
2026-04-14 18:17:45.385518,871624,1609508158997926,5758967241,0.853024,0.152256,0.392352,-6.83375,-6.32625,21.21875,-14.72,17.576,24.056002,eccentric,4,7.0,143260.0,319037.0,231750.0,311922.0,242004.0
2026-04-14 18:17:45.396932,871625,1609508159012439,5758982190,0.874496,0.099552,0.288896,-7.32375,-8.1725,21.30625,-13.368001,17.576,24.056002,eccentric,4,7.0,143260.0,319037.0,231750.0,311922.0,242004.0
2026-04-14 18:17:45.402854,871626,1609508159021419,5758990999,0.874496,0.099552,0.288896,-10.78875,-9.44125,21.35875,-13.368001,17.576,24.056002,eccentric,4,7.0,143260.0,319037.0,231750.0,311922.0,242004.0
2026-04-14 18:17:45.414109,871627,1609508159030444,5758999764,0.802272,0.099552,0.421632,-14.665,-9.345,21.98875,-13.456,17.776001,23.28,eccentric,4,7.0,143260.0,319037.0,231750.0,311922.0,242004.0
2026-04-14 18:17:45.428019,871628,1609508159044948,5759014716,0.802272,0.099552,0.421632,-15.14625,-7.98,23.0825,-13.456,17.776001,23.28,eccentric,4,7.0,143260.0,319037.0,231750.0,311922.0,242004.0
2026-04-14 18:17:45.437905,871629,1609508159053961,5759023400,0.802272,0.054656,0.232288,-14.86625,-6.5625,23.52875,-12.888001,17.912,24.032001,eccentric,4,7.0,143260.0,319037.0,231750.0,311922.0,242004.0
2026-04-14 18:17:45.450492,871630,1609508159068445,5759038338,0.767136,0.062464,0.23424,-12.6875,-5.7225,24.73625,-14.048,18.136002,23.912,eccentric,4,7.0,143260.0,319037.0,231750.0,311922.0,242004.0
2026-04-14 18:17:45.480331,871641,1609508159077452,5759047058,0.767136,0.062464,0.23424,-12.845,-6.3525,24.75375,-14.048,18.136002,23.912,eccentric,4,7.0,133773.0,315808.0,220636.0,308941.0,231289.0
2026-04-14 18:17:45.483002,871642,1609508159091995,5759062020,0.689056,0.081984,0.359168,-14.41125,-7.60375,23.905,-12.504001,17.944,22.784,eccentric,4,7.0,133773.0,315808.0,220636.0,308941.0,231289.0
2026-04-14 18:17:45.485480,871643,1609508159101019,5759070742,0.689056,0.081984,0.359168,-14.77,-8.72375,23.56375,-12.504001,17.944,22.784,eccentric,4,7.0,133773.0,315808.0,220636.0,308941.0,231289.0
2026-04-14 18:17:45.493100,871644,1609508159110052,5759079457,0.671488,0.013664,0.226432,-14.77875,-8.77625,23.94875,-12.120001,18.288,22.52,eccentric,4,7.0,133773.0,315808.0,220636.0,308941.0,231289.0
2026-04-14 18:17:45.509351,871645,1609508159124622,5759094380,0.671488,0.013664,0.226432,-15.68,-7.35875,25.2175,-12.120001,18.288,22.52,eccentric,4,7.0,133773.0,315808.0,220636.0,308941.0,231289.0
2026-04-14 18:17:45.539358,871646,1609508159133574,5759103065,0.667584,0.035136,0.316224,-15.77625,-4.725,26.95,-11.944,18.768002,21.936,eccentric,4,7.0,133773.0,315808.0,220636.0,308941.0,231289.0
2026-04-14 18:17:45.541883,871647,1609508159148097,5759118077,0.659776,-0.017568,0.199104,-15.46125,-4.3575,28.1575,-12.584001,18.92,21.608002,eccentric,4,7.0,133773.0,315808.0,220636.0,308941.0,231289.0
2026-04-14 18:17:45.544191,871648,1609508159157057,5759126753,0.659776,-0.017568,0.199104,-16.63375,-5.99375,28.44625,-12.584001,18.92,21.608002,eccentric,4,7.0,133773.0,315808.0,220636.0,308941.0,231289.0
2026-04-14 18:17:45.568899,871649,1609508159166047,5759135439,0.659776,-0.017568,0.218624,-15.18125,-8.645,29.56625,-12.584001,18.92,21.608002,eccentric,4,7.0,133773.0,315808.0,220636.0,308941.0,231289.0
2026-04-14 18:17:45.599427,871660,1609508159181118,5759150352,0.622688,0.00976,0.218624,-15.00625,-10.12375,28.91875,-12.080001,19.296001,20.720001,eccentric,4,7.0,110310.0,307825.0,192558.0,301645.0,203424.0
2026-04-14 18:17:45.601401,871661,1609508159190031,5759159049,0.583648,0.0,0.357216,-14.805,-10.885,28.455,-12.392,18.976002,21.944,eccentric,4,7.0,110310.0,307825.0,192558.0,301645.0,203424.0
2026-04-14 18:17:45.603928,871662,1609508159204573,5759173953,0.583648,0.0,0.357216,-14.980001,-10.66625,29.93375,-12.392,18.976002,21.944,eccentric,4,7.0,110310.0,307825.0,192558.0,301645.0,203424.0
2026-04-14 18:17:45.606528,871663,1609508159213553,5759182682,0.593408,-0.013664,0.366976,-16.59875,-10.3775,32.24375,-12.128,19.592001,22.272001,eccentric,4,7.0,110310.0,307825.0,192558.0,301645.0,203424.0
2026-04-14 18:17:45.609048,871664,1609508159222507,5759191410,0.593408,-0.013664,0.366976,-18.64625,-10.4475,33.88,-12.128,19.592001,22.272001,eccentric,4,7.0,110310.0,307825.0,192558.0,301645.0,203424.0
2026-04-14 18:17:45.622351,871665,1609508159237022,5759206366,0.519232,0.003904,0.16592,-19.2325,-11.64625,34.53625,-10.912001,19.424002,21.896002,eccentric,4,7.0,110310.0,307825.0,192558.0,301645.0,203424.0
2026-04-14 18:17:45.628465,871666,1609508159245958,5759215113,0.519232,0.003904,0.16592,-19.775,-13.25625,33.06625,-10.912001,19.424002,21.896002,eccentric,4,7.0,110310.0,307825.0,192558.0,301645.0,203424.0
2026-04-14 18:17:45.645077,871667,1609508159260437,5759230038,0.484096,0.025376,0.152256,-17.85,-14.323751,30.54625,-10.256001,19.624,19.872002,eccentric,4,7.0,110310.0,307825.0,192558.0,301645.0,203424.0
2026-04-14 18:17:45.653748,871668,1609508159269389,5759238749,0.554368,-0.062464,0.279136,-15.7325,-14.0525,28.79625,-11.592001,20.408,22.080002,eccentric,4,7.0,110310.0,307825.0,192558.0,301645.0,203424.0
