pc_time,serial_num,sensor_ts,host_ts,ax,ay,az,gx,gy,gz,mx,my,mz,phase,rpe,weight_kg,ppg_a,ppg_b,ppg_c,ppg_d,ppg_e
2026-04-14 18:17:45.686456,871679,1609508159283960,5759253775,0.554368,-0.062464,0.279136,-19.1275,-14.761251,28.14,-11.592001,20.408,22.080002,concentric,4,7.0,92839.0,301890.0,171704.0,296036.0,181979.0
2026-04-14 18:17:45.714724,871680,1609508159293030,5759262476,0.569984,-0.099552,0.232288,-21.79625,-14.7,29.575,-10.472,20.288,21.456001,concentric,4,7.0,92839.0,301890.0,171704.0,296036.0,181979.0
2026-04-14 18:17:45.716846,871681,1609508159302097,5759271176,0.569984,-0.099552,0.232288,-22.6625,-14.42,31.4475,-10.472,20.288,21.456001,concentric,4,7.0,92839.0,301890.0,171704.0,296036.0,181979.0
2026-04-14 18:17:45.721927,871682,1609508159316562,5759286136,0.470432,-0.005856,0.105408,-22.785,-14.21875,30.87,-10.416,20.264002,21.064001,concentric,4,7.0,92839.0,301890.0,171704.0,296036.0,181979.0
2026-04-14 18:17:45.722346,871683,1609508159325481,5759294999,0.470432,-0.005856,0.105408,-17.99,-13.76375,28.65625,-10.416,20.264002,21.064001,concentric,4,7.0,92839.0,301890.0,171704.0,296036.0,181979.0
2026-04-14 18:17:45.723910,871684,1609508159339973,5759309897,0.525088,-0.001952,0.216672,-13.2475,-13.51875,27.25625,-9.848001,20.856,21.920002,concentric,4,7.0,92839.0,301890.0,171704.0,296036.0,181979.0
2026-04-14 18:17:45.731481,871685,1609508159348978,5759318855,0.601216,-0.056608,0.35136,-14.6125,-14.315001,24.99875,-9.968,21.176,22.104002,concentric,4,7.0,92839.0,301890.0,171704.0,296036.0,181979.0
2026-04-14 18:17:45.747998,871686,1609508159363536,5759333752,0.601216,-0.056608,0.35136,-17.84125,-13.79875,23.9225,-9.968,21.176,22.104002,concentric,4,7.0,92839.0,301890.0,171704.0,296036.0,181979.0
2026-04-14 18:17:45.782802,871697,1609508159372612,5759342376,0.642208,-0.08784,0.124928,-20.0375,-12.55625,22.75875,-10.0,21.800001,21.712002,concentric,4,7.0,87223.0,300695.0,165329.0,295165.0,175508.0
2026-04-14 18:17:45.785342,871698,1609508159381981,5759351180,0.642208,-0.08784,0.124928,-19.8275,-11.9525,20.79,-10.0,21.800001,21.712002,concentric,4,7.0,87223.0,300695.0,165329.0,295165.0,175508.0
2026-04-14 18:17:45.787632,871699,1609508159396554,5759366126,0.66368,-0.138592,0.128832,-20.25625,-12.73125,19.6525,-10.76,21.992,20.912,concentric,4,7.0,87223.0,300695.0,165329.0,295165.0,175508.0
2026-04-14 18:17:45.790670,871700,1609508159405626,5759374864,0.66368,-0.138592,0.128832,-21.35875,-13.69375,20.0025,-10.76,21.992,20.912,concentric,4,7.0,87223.0,300695.0,165329.0,295165.0,175508.0
2026-04-14 18:17:45.806031,871701,1609508159420174,5759389792,0.62464,-0.124928,0.206912,-21.58625,-13.20375,21.14875,-9.376,21.936,20.720001,concentric,4,7.0,87223.0,300695.0,165329.0,295165.0,175508.0
2026-04-14 18:17:45.813225,871702,1609508159429282,5759398462,0.694912,-0.144448,0.210816,-20.34375,-10.78875,21.4725,-9.472,21.792002,20.168001,concentric,4,7.0,87223.0,300695.0,165329.0,295165.0,175508.0
2026-04-14 18:17:45.818676,871703,1609508159438285,5759407156,0.694912,-0.144448,0.210816,-17.535,-8.295,20.32625,-9.472,21.792002,20.168001,concentric,4,7.0,87223.0,300695.0,165329.0,295165.0,175508.0
2026-04-14 18:17:45.835118,871704,1609508159452817,5759422037,0.655872,-0.083936,0.193248,-11.5325,-7.25375,18.48875,-9.128,22.12,21.144001,concentric,4,7.0,87223.0,300695.0,165329.0,295165.0,175508.0
2026-04-14 18:17:45.845926,871705,1609508159461739,5759430730,0.655872,-0.083936,0.193248,-4.47125,-7.63875,17.85875,-9.128,22.12,21.144001,concentric,4,7.0,87223.0,300695.0,165329.0,295165.0,175508.0
2026-04-14 18:17:45.935570,871716,1609508159476727,5759445704,0.689056,-0.122976,0.201056,-4.48,-8.40875,16.31875,-9.232,22.136002,20.112001,concentric,4,7.0,85266.0,302909.0,162453.0,296827.0,172268.0
2026-04-14 18:17:45.937610,871717,1609508159485775,5759454514,0.689056,-0.122976,0.201056,-11.01625,-9.835,14.28,-9.232,22.136002,20.112001,concentric,4,7.0,85266.0,302909.0,162453.0,296827.0,172268.0
2026-04-14 18:17:45.940304,871718,1609508159495109,5759465264,0.698816,-0.150304,0.261568,-16.4325,-9.275,13.1425,-10.72,22.800001,21.584002,concentric,4,7.0,85266.0,302909.0,162453.0,296827.0,172268.0
2026-04-14 18:17:45.943114,871719,1609508159509630,5759478151,0.788608,-0.17568,0.294752,-16.51125,-7.8575,11.5325,-9.568001,22.52,20.848001,concentric,4,7.0,85266.0,302909.0,162453.0,296827.0,172268.0
2026-04-14 18:17:45.945631,871720,1609508159518942,5759488878,0.788608,-0.17568,0.294752,-12.145,-6.615,10.15,-9.568001,22.52,20.848001,concentric,4,7.0,85266.0,302909.0,162453.0,296827.0,172268.0
2026-04-14 18:17:45.948010,871721,1609508159533466,5759503757,0.747616,-0.152256,0.18544,-6.36125,-5.85375,9.5025,-9.056001,22.528002,19.792002,concentric,4,7.0,85266.0,302909.0,162453.0,296827.0,172268.0
2026-04-14 18:17:45.950626,871722,1609508159542405,5759512478,0.747616,-0.152256,0.18544,-3.6225,-5.32,8.35625,-9.056001,22.528002,19.792002,concentric,4,7.0,85266.0,302909.0,162453.0,296827.0,172268.0
2026-04-14 18:17:45.952792,871723,1609508159551337,5759521184,0.835456,-0.173728,0.38064,-5.9675,-4.64625,6.79,-9.008,22.488,20.44,concentric,4,7.0,85266.0,302909.0,162453.0,296827.0,172268.0
2026-04-14 18:17:45.955239,871724,1609508159565854,5759536119,0.835456,-0.173728,0.38064,-9.2225,-3.0975,5.53875,-9.008,22.488,20.44,concentric,4,7.0,85266.0,302909.0,162453.0,296827.0,172268.0
2026-04-14 18:17:45.985608,871735,1609508159575352,5759544985,0.7808,-0.171776,0.259616,-9.19625,-1.995,4.0075,-9.728001,23.048,20.504002,concentric,4,7.0,84288.0,304058.0,161085.0,297499.0,170815.0
2026-04-14 18:17:45.987790,871736,1609508159590000,5759559947,0.860832,-0.228384,0.20496,-6.8775,-2.2575,3.45625,-9.904,22.864,18.392,concentric,4,7.0,84288.0,304058.0,161085.0,297499.0,170815.0
2026-04-14 18:17:45.990435,871737,1609508159598974,5759568693,0.860832,-0.228384,0.20496,-4.585,-2.80875,3.36,-9.904,22.864,18.392,concentric,4,7.0,84288.0,304058.0,161085.0,297499.0,170815.0
2026-04-14 18:17:45.993167,871738,1609508159607893,5759577420,0.860832,-0.228384,0.20496,-5.2675,-3.43875,2.5025,-9.904,22.864,18.392,concentric,4,7.0,84288.0,304058.0,161085.0,297499.0,170815.0
2026-04-14 18:17:46.006237,871739,1609508159622561,5759592419,0.895968,-0.216672,0.396256,-6.81625,-2.6425,3.33375,-9.632001,22.936,22.336,concentric,4,7.0,84288.0,304058.0,161085.0,297499.0,170815.0
2026-04-14 18:17:46.015837,871740,1609508159631643,5759601134,0.870592,-0.220576,0.187392,-7.245,-1.67125,2.82625,-9.616,23.28,20.560001,concentric,4,7.0,84288.0,304058.0,161085.0,297499.0,170815.0
2026-04-14 18:17:46.030188,871741,1609508159646157,5759616169,0.870592,-0.220576,0.187392,-6.16875,-0.65625,1.715,-9.616,23.28,20.560001,concentric,4,7.0,84288.0,304058.0,161085.0,297499.0,170815.0
2026-04-14 18:17:46.040480,871742,1609508159655108,5759624869,0.856928,-0.171776,0.359168,-3.325,0.21875,1.435,-8.976001,22.728,19.768002,concentric,4,7.0,84288.0,304058.0,161085.0,297499.0,170815.0
2026-04-14 18:17:46.046845,871743,1609508159664078,5759633597,0.856928,-0.171776,0.359168,-1.95125,-0.28,1.00625,-8.976001,22.728,19.768002,concentric,4,7.0,84288.0,304058.0,161085.0,297499.0,170815.0
2026-04-14 18:17:46.083155,871754,1609508159678696,5759648560,0.827648,-0.23424,0.152256,-3.63125,-1.4,1.75,-8.776,22.776001,19.264002,concentric,4,7.0,86316.0,304722.0,163712.0,298238.0,173506.0
2026-04-14 18:17:46.085481,871755,1609508159687683,5759657316,0.827648,-0.23424,0.152256,-5.67875,-1.75875,2.89625,-8.776,22.776001,19.264002,concentric,4,7.0,86316.0,304722.0,163712.0,298238.0,173506.0
2026-04-14 18:17:46.087690,871756,1609508159702171,5759672235,0.831552,-0.226432,0.177632,-6.335,-1.39125,3.80625,-10.896001,23.064001,18.312,concentric,4,7.0,86316.0,304722.0,163712.0,298238.0,173506.0
2026-04-14 18:17:46.094471,871757,1609508159711141,5759680948,0.864736,-0.167872,0.40992,-4.8125,-0.39375,3.21125,-9.664001,23.264002,19.952002,concentric,4,7.0,86316.0,304722.0,163712.0,298238.0,173506.0
2026-04-14 18:17:46.112953,871758,1609508159725649,5759695832,0.864736,-0.167872,0.40992,-3.85,-0.88375,2.1,-9.664001,23.264002,19.952002,concentric,4,7.0,86316.0,304722.0,163712.0,298238.0,173506.0
2026-04-14 18:17:46.116285,871759,1609508159734676,5759704564,0.866688,-0.201056,0.343552,-2.38875,-1.70625,1.6275,-8.904,22.864,19.448002,concentric,4,7.0,86316.0,304722.0,163712.0,298238.0,173506.0
2026-04-14 18:17:46.125606,871760,1609508159743769,5759713269,0.866688,-0.201056,0.343552,-3.28125,-2.4325,1.2775,-8.904,22.864,19.448002,concentric,4,7.0,86316.0,304722.0,163712.0,298238.0,173506.0
2026-04-14 18:17:46.141875,871761,1609508159758243,5759728156,0.823744,-0.230336,0.163968,-6.48375,-3.15875,1.8725,-9.424001,23.192001,20.472,concentric,4,7.0,86316.0,304722.0,163712.0,298238.0,173506.0
2026-04-14 18:17:46.150638,871762,1609508159767174,5759736899,0.823744,-0.230336,0.163968,-8.6975,-2.16125,3.0625,-9.424001,23.192001,20.472,concentric,4,7.0,86316.0,304722.0,163712.0,298238.0,173506.0
2026-04-14 18:17:46.185615,871773,1609508159781912,5759750351,0.895968,-0.220576,0.392352,-9.12625,-1.5575,3.045,-8.752001,23.080002,19.456001,concentric,4,7.0,86220.0,306137.0,163713.0,299559.0,173491.0
2026-04-14 18:17:46.187767,871774,1609508159791488,5759761236,0.876448,-0.203008,0.392352,-8.12,-1.12875,2.40625,-9.664001,23.112001,17.640001,concentric,4,7.0,86220.0,306137.0,163713.0,299559.0,173491.0
2026-04-14 18:17:46.190298,871775,1609508159800497,5759769952,0.876448,-0.203008,0.392352,-6.48375,-0.48125,1.67125,-9.664001,23.112001,17.640001,concentric,4,7.0,86220.0,306137.0,163713.0,299559.0,173491.0
2026-04-14 18:17:46.200731,871776,1609508159815221,5759784898,0.860832,-0.199104,0.384544,-4.31375,-0.0525,1.42625,-8.368,23.064001,19.504002,concentric,4,7.0,86220.0,306137.0,163713.0,299559.0,173491.0
2026-04-14 18:17:46.206418,871777,1609508159824263,5759793580,0.860832,-0.199104,0.384544,-4.57625,0.16625,1.67125,-8.368,23.064001,19.504002,concentric,4,7.0,86220.0,306137.0,163713.0,299559.0,173491.0
2026-04-14 18:17:46.222998,871778,1609508159838740,5759808498,0.813984,-0.226432,0.15616,-7.09625,0.35875,2.30125,-9.392,23.488,20.04,concentric,4,7.0,86220.0,306137.0,163713.0,299559.0,173491.0
2026-04-14 18:17:46.230183,871779,1609508159847662,5759817236,0.813984,-0.226432,0.15616,-9.3625,1.14625,2.79125,-9.392,23.488,20.04,concentric,4,7.0,86220.0,306137.0,163713.0,299559.0,173491.0
2026-04-14 18:17:46.238971,871780,1609508159856633,5759825912,0.854976,-0.197152,0.404064,-8.9075,1.3125,2.14375,-8.736,23.560001,19.896002,concentric,4,7.0,86220.0,306137.0,163713.0,299559.0,173491.0
2026-04-14 18:17:46.271851,871781,1609508159871214,5759840859,0.845216,-0.197152,0.388448,-8.715,1.30375,1.16375,-9.368,23.640001,20.088001,concentric,4,7.0,86220.0,306137.0,163713.0,299559.0,173491.0
2026-04-14 18:17:46.371913,871792,1609508159880287,5759849615,0.845216,-0.197152,0.388448,-7.7175,0.945,0.2275,-9.368,23.640001,20.088001,concentric,4,7.0,88321.0,309920.0,166221.0,302672.0,175955.0
2026-04-14 18:17:46.374454,871793,1609508159894833,5759864621,0.856928,-0.238144,0.281088,-5.46,0.56,-0.8575,-10.192,23.664001,20.232,concentric,4,7.0,88321.0,309920.0,166221.0,302672.0,175955.0
2026-04-14 18:17:46.376975,871794,1609508159903770,5759873363,0.856928,-0.238144,0.281088,-3.7975,0.1575,-1.53125,-10.192,23.664001,20.232,concentric,4,7.0,88321.0,309920.0,166221.0,302672.0,175955.0
2026-04-14 18:17:46.381309,871795,1609508159918245,5759888238,0.821792,-0.212768,0.365024,-3.5175,-0.09625,-1.54,-10.160001,23.720001,20.880001,concentric,4,7.0,88321.0,309920.0,166221.0,302672.0,175955.0
2026-04-14 18:17:46.381539,871796,1609508159927177,5759896951,0.821792,-0.212768,0.365024,-4.34875,0.28875,-2.135,-10.160001,23.720001,20.880001,concentric,4,7.0,88321.0,309920.0,166221.0,302672.0,175955.0
2026-04-14 18:17:46.383846,871797,1609508159936146,5759905627,0.874496,-0.238144,0.316224,-4.305,0.70875,-2.3975,-9.816001,23.536001,19.944,concentric,4,7.0,88321.0,309920.0,166221.0,302672.0,175955.0
2026-04-14 18:17:46.391423,871798,1609508159950623,5759920614,0.874496,-0.238144,0.316224,-3.7275,0.7,-3.52625,-9.816001,23.536001,19.944,concentric,4,7.0,88321.0,309920.0,166221.0,302672.0,175955.0
2026-04-14 18:17:46.393951,871799,1609508159959564,5759929308,0.778848,-0.228384,0.160064,-2.7125,0.4025,-4.6025,-9.408,23.504002,21.2,concentric,4,7.0,88321.0,309920.0,166221.0,302672.0,175955.0
2026-04-14 18:17:46.396311,871800,1609508159974117,5759944220,0.737856,-0.216672,0.183488,-1.155,0.49875,-5.97625,-9.272,23.648,20.048,concentric,4,7.0,88321.0,309920.0,166221.0,302672.0,175955.0
2026-04-14 18:17:46.424043,871811,1609508159983274,5759952970,0.737856,-0.216672,0.183488,-0.00875,0.53375,-7.46375,-9.272,23.648,20.048,concentric,4,7.0,87220.0,310167.0,164761.0,302759.0,174482.0
2026-04-14 18:17:46.426548,871812,1609508159992375,5759961725,0.755424,-0.232288,0.169824,1.23375,1.61875,-8.46125,-9.296001,23.04,18.92,concentric,4,7.0,87220.0,310167.0,164761.0,302759.0,174482.0
2026-04-14 18:17:46.428913,871813,1609508160007109,5759976683,0.755424,-0.232288,0.169824,2.2225,2.45875,-9.511251,-9.296001,23.04,18.92,concentric,4,7.0,87220.0,310167.0,164761.0,302759.0,174482.0
2026-04-14 18:17:46.431492,871814,1609508160016043,5759985396,0.776896,-0.197152,0.35136,3.78,3.31625,-10.43,-8.696,23.104002,19.44,concentric,4,7.0,87220.0,310167.0,164761.0,302759.0,174482.0
2026-04-14 18:17:46.433980,871815,1609508160030691,5760000312,0.776896,-0.197152,0.35136,4.62875,3.57,-11.45375,-8.696,23.104002,19.44,concentric,4,7.0,87220.0,310167.0,164761.0,302759.0,174482.0
2026-04-14 18:17:46.436469,871816,1609508160039737,5760009152,0.823744,-0.228384,0.31232,4.73375,3.35125,-12.03125,-8.736,23.080002,19.152,concentric,4,7.0,87220.0,310167.0,164761.0,302759.0,174482.0
2026-04-14 18:17:46.438944,871817,1609508160054277,5760024108,0.696864,-0.16592,0.179584,4.62,3.77125,-12.67,-8.992001,23.152,19.376001,concentric,4,7.0,87220.0,310167.0,164761.0,302759.0,174482.0
2026-04-14 18:17:46.446593,871818,1609508160063266,5760032814,0.696864,-0.16592,0.179584,5.92375,3.73625,-13.877501,-8.992001,23.152,19.376001,concentric,4,7.0,87220.0,310167.0,164761.0,302759.0,174482.0
2026-04-14 18:17:46.456594,871819,1609508160072245,5760041573,0.776896,-0.193248,0.230336,6.74625,3.675,-15.12875,-8.992001,23.152,19.672,concentric,4,7.0,87220.0,310167.0,164761.0,302759.0,174482.0
2026-04-14 18:17:46.484152,871830,1609508160086876,5760056622,0.776896,-0.193248,0.230336,7.06125,2.975,-15.72375,-8.952001,22.992,19.672,concentric,4,7.0,87470.0,308207.0,165220.0,301155.0,175015.0
2026-04-14 18:17:46.486360,871831,1609508160096029,5760065374,0.694912,-0.169824,0.275232,6.09875,2.19625,-17.115,-8.816,22.6,19.640001,concentric,4,7.0,87470.0,308207.0,165220.0,301155.0,175015.0
2026-04-14 18:17:46.494179,871832,1609508160110583,5760080326,0.694912,-0.169824,0.275232,4.97875,2.09125,-17.61375,-8.816,22.6,19.640001,concentric,4,7.0,87470.0,308207.0,165220.0,301155.0,175015.0
2026-04-14 18:17:46.502640,871833,1609508160119506,5760089002,0.745664,-0.201056,0.203008,5.9325,2.6775,-17.64875,-9.544001,22.592001,20.240002,concentric,4,7.0,87470.0,308207.0,165220.0,301155.0,175015.0
2026-04-14 18:17:46.510075,871834,1609508160128440,5760097721,0.745664,-0.201056,0.203008,8.82,2.68625,-18.165,-9.544001,22.592001,20.240002,concentric,4,7.0,87470.0,308207.0,165220.0,301155.0,175015.0
2026-04-14 18:17:46.525321,871835,1609508160142892,5760112668,0.681248,-0.152256,0.201056,11.4625,2.835,-18.66375,-9.080001,22.576,19.856,concentric,4,7.0,87470.0,308207.0,165220.0,301155.0,175015.0
2026-04-14 18:17:46.534066,871836,1609508160152017,5760121338,0.681248,-0.152256,0.201056,13.02,3.08,-19.18,-9.080001,22.576,19.856,concentric,4,7.0,87470.0,308207.0,165220.0,301155.0,175015.0
2026-04-14 18:17:46.550308,871837,1609508160166533,5760136265,0.677344,-0.148352,0.251808,12.74,2.7125,-18.9,-9.504001,22.392,21.112001,concentric,4,7.0,87470.0,308207.0,165220.0,301155.0,175015.0
2026-04-14 18:17:46.557948,871838,1609508160175611,5760144983,0.677344,-0.154208,0.115168,12.43375,3.325,-17.84125,-10.592001,22.032001,21.064001,concentric,4,7.0,87470.0,308207.0,165220.0,301155.0,175015.0
2026-04-14 18:17:46.585907,871849,1609508160190147,5760159955,0.677344,-0.154208,0.115168,11.655,3.77125,-17.491251,-10.592001,22.032001,21.064001,concentric,4,7.0,87869.0,305969.0,165752.0,299087.0,175686.0
2026-04-14 18:17:46.587836,871850,1609508160199164,5760168732,0.710528,-0.11712,0.347456,11.10375,3.03625,-17.61375,-10.92,21.936,20.048,concentric,4,7.0,87869.0,305969.0,165752.0,299087.0,175686.0
2026-04-14 18:17:46.589981,871851,1609508160208130,5760177446,0.710528,-0.11712,0.347456,9.56375,2.37125,-17.29,-10.92,21.936,20.048,concentric,4,7.0,87869.0,305969.0,165752.0,299087.0,175686.0
2026-04-14 18:17:46.605198,871852,1609508160222649,5760192400,0.616832,-0.109312,0.179584,8.68,2.38,-17.29,-9.968,21.880001,20.128,concentric,4,7.0,87869.0,305969.0,165752.0,299087.0,175686.0
2026-04-14 18:17:46.614010,871853,1609508160231625,5760201069,0.616832,-0.109312,0.179584,7.98875,2.6775,-17.08875,-9.968,21.880001,20.128,concentric,4,7.0,87869.0,305969.0,165752.0,299087.0,175686.0
2026-04-14 18:17:46.639020,871854,1609508160246154,5760215966,0.630496,-0.085888,0.306464,6.2825,3.47375,-17.07125,-10.160001,21.616001,21.872002,concentric,4,7.0,87869.0,305969.0,165752.0,299087.0,175686.0
2026-04-14 18:17:46.661876,871855,1609508160255118,5760224652,0.679296,-0.115168,0.281088,6.475,3.5525,-16.065,-11.192,22.2,21.128,concentric,4,7.0,87869.0,305969.0,165752.0,299087.0,175686.0
2026-04-14 18:17:46.664094,871856,1609508160264014,5760233342,0.679296,-0.115168,0.281088,6.79875,3.2025,-15.12875,-11.192,22.2,21.128,concentric,4,7.0,87869.0,305969.0,165752.0,299087.0,175686.0
2026-04-14 18:17:46.691459,871867,1609508160278571,5760249024,0.6832,-0.085888,0.355264,6.2825,1.98625,-14.875,-12.120001,22.320002,22.456001,concentric,4,7.0,90315.0,307007.0,168724.0,299903.0,178819.0
2026-04-14 18:17:46.693957,871868,1609508160287604,5760257832,0.6832,-0.085888,0.355264,5.80125,1.37375,-14.4725,-12.120001,22.320002,22.456001,concentric,4,7.0,90315.0,307007.0,168724.0,299903.0,178819.0
2026-04-14 18:17:46.696310,871869,1609508160302145,5760270810,0.691008,-0.044896,0.386496,5.11,1.93375,-15.33875,-12.632001,21.864,21.512001,concentric,4,7.0,90315.0,307007.0,168724.0,299903.0,178819.0
2026-04-14 18:17:46.699271,871870,1609508160311403,5760281642,0.691008,-0.044896,0.386496,3.815,3.2725,-17.29,-12.632001,21.864,21.512001,concentric,4,7.0,90315.0,307007.0,168724.0,299903.0,178819.0
2026-04-14 18:17:46.708039,871871,1609508160325911,5760294615,0.698816,-0.101504,0.25376,1.61,4.66375,-18.87375,-11.848001,21.672,22.592001,concentric,4,7.0,90315.0,307007.0,168724.0,299903.0,178819.0
2026-04-14 18:17:46.721891,871872,1609508160335245,5760305379,0.675392,-0.152256,0.099552,0.37625,6.685,-17.56125,-10.792001,21.672,20.432001,concentric,4,7.0,90315.0,307007.0,168724.0,299903.0,178819.0
2026-04-14 18:17:46.728156,871873,1609508160344308,5760314105,0.675392,-0.152256,0.099552,-1.04125,6.69375,-15.75,-10.792001,21.672,20.432001,concentric,4,7.0,90315.0,307007.0,168724.0,299903.0,178819.0
2026-04-14 18:17:46.741922,871874,1609508160358815,5760329057,0.700768,-0.095648,0.177632,-2.1175,6.8775,-14.805,-10.792001,21.744001,21.76,concentric,4,7.0,90315.0,307007.0,168724.0,299903.0,178819.0
2026-04-14 18:17:46.752007,871875,1609508160367753,5760337747,0.700768,-0.095648,0.177632,-0.49875,7.21875,-14.79625,-10.792001,21.744001,21.76,concentric,4,7.0,90315.0,307007.0,168724.0,299903.0,178819.0
2026-04-14 18:17:46.785083,871886,1609508160382438,5760352880,0.730048,-0.05856,0.404064,1.53125,8.00625,-16.415,-11.016001,21.28,21.128,concentric,4,7.0,93235.0,308599.0,172364.0,301467.0,182526.0
2026-04-14 18:17:46.787603,871887,1609508160391414,5760361614,0.730048,-0.05856,0.404064,2.135,9.80875,-18.5325,-11.016001,21.28,21.128,concentric,4,7.0,93235.0,308599.0,172364.0,301467.0,182526.0
2026-04-14 18:17:46.790029,871888,1609508160400367,5760370317,0.718336,-0.12688,0.343552,-0.00875,12.7575,-17.87625,-11.832001,21.52,21.952002,concentric,4,7.0,93235.0,308599.0,172364.0,301467.0,182526.0
2026-04-14 18:17:46.796259,871889,1609508160414903,5760383301,0.74176,-0.148352,0.320128,-2.70375,13.9125,-15.365,-11.784,21.848001,21.448002,concentric,4,7.0,93235.0,308599.0,172364.0,301467.0,182526.0
2026-04-14 18:17:46.808010,871890,1609508160424207,5760394079,0.74176,-0.148352,0.320128,-2.28375,14.07875,-12.71375,-11.784,21.848001,21.448002,concentric,4,7.0,93235.0,308599.0,172364.0,301467.0,182526.0
2026-04-14 18:17:46.824431,871891,1609508160438892,5760409148,0.650016,-0.035136,0.318176,0.74375,12.78375,-11.01625,-10.968,21.288,21.44,concentric,4,7.0,93235.0,308599.0,172364.0,301467.0,182526.0
2026-04-14 18:17:46.831910,871892,1609508160447821,5760417847,0.650016,-0.035136,0.318176,5.18,11.2175,-12.22375,-10.968,21.288,21.44,concentric,4,7.0,93235.0,308599.0,172364.0,301467.0,182526.0
2026-04-14 18:17:46.839375,871893,1609508160456770,5760426561,0.689056,-0.02928,0.392352,8.9775,11.27,-12.792501,-11.552001,21.584002,22.080002,concentric,4,7.0,93235.0,308599.0,172364.0,301467.0,182526.0
2026-04-14 18:17:46.855674,871894,1609508160471290,5760441454,0.689056,-0.02928,0.392352,5.50375,13.13375,-13.72,-11.552001,21.584002,22.080002,concentric,4,7.0,93235.0,308599.0,172364.0,301467.0,182526.0
2026-04-14 18:17:46.886375,871905,1609508160480526,5760450246,0.720288,-0.152256,0.183488,-2.72125,14.1925,-12.38125,-12.080001,21.888,21.992,concentric,4,7.0,98666.0,310549.0,179048.0,303249.0,189472.0
2026-04-14 18:17:46.888882,871906,1609508160495137,5760465233,0.74176,-0.0976,0.349408,-6.41375,14.752501,-9.345,-11.056001,21.384,21.576,concentric,4,7.0,98666.0,310549.0,179048.0,303249.0,189472.0
2026-04-14 18:17:46.891805,871907,1609508160504141,5760473935,0.74176,-0.0976,0.349408,-2.56375,13.877501,-7.97125,-11.056001,21.384,21.576,concentric,4,7.0,98666.0,310549.0,179048.0,303249.0,189472.0
2026-04-14 18:17:46.896796,871908,1609508160513096,5760482612,0.74176,-0.0976,0.349408,4.19125,11.4275,-7.49875,-11.056001,21.384,21.576,concentric,4,7.0,98666.0,310549.0,179048.0,303249.0,189472.0
2026-04-14 18:17:46.911844,871909,1609508160527636,5760497593,0.792512,-0.066368,0.343552,7.1225,9.511251,-8.4525,-11.120001,21.472,21.416,concentric,4,7.0,98666.0,310549.0,179048.0,303249.0,189472.0
2026-04-14 18:17:46.918920,871910,1609508160536770,5760506347,0.782752,-0.03904,0.460672,5.845,9.68625,-9.87875,-10.88,21.560001,22.04,concentric,4,7.0,98666.0,310549.0,179048.0,303249.0,189472.0
2026-04-14 18:17:46.934732,871911,1609508160551278,5760521252,0.782752,-0.03904,0.460672,3.5525,11.042501,-12.06625,-10.88,21.560001,22.04,concentric,4,7.0,98666.0,310549.0,179048.0,303249.0,189472.0
2026-04-14 18:17:46.945670,871912,1609508160560269,5760529945,0.7808,-0.08784,0.3416,1.68,12.38125,-13.18625,-11.360001,21.768002,22.584002,concentric,4,7.0,98666.0,310549.0,179048.0,303249.0,189472.0
2026-04-14 18:17:46.957787,871913,1609508160574768,5760544892,0.7808,-0.08784,0.222528,0.3675,12.9675,-12.6,-11.360001,21.768002,22.584002,concentric,4,7.0,98666.0,310549.0,179048.0,303249.0,189472.0
2026-04-14 18:17:47.062598,871924,1609508160584016,5760553656,0.763232,-0.093696,0.222528,0.7175,11.61125,-10.5,-12.248,21.728,22.368002,concentric,4,7.0,109723.0,314383.0,192822.0,307285.0,203683.0
2026-04-14 18:17:47.065264,871925,1609508160593007,5760562448,0.763232,-0.093696,0.222528,2.345,9.80875,-8.49625,-12.248,21.728,22.368002,concentric,4,7.0,109723.0,314383.0,192822.0,307285.0,203683.0
2026-04-14 18:17:47.068118,871926,1609508160607513,5760577353,0.81984,-0.060512,0.255712,3.7625,7.9625,-8.645,-12.160001,21.592001,22.504002,concentric,4,7.0,109723.0,314383.0,192822.0,307285.0,203683.0
2026-04-14 18:17:47.070548,871927,1609508160616452,5760586097,0.862784,0.033184,0.396256,5.03125,5.64375,-10.96375,-11.752001,21.560001,23.272001,concentric,4,7.0,109723.0,314383.0,192822.0,307285.0,203683.0
2026-04-14 18:17:47.073061,871928,1609508160630935,5760600989,0.862784,0.033184,0.396256,5.88,4.1475,-15.8725,-11.752001,21.560001,23.272001,concentric,4,7.0,109723.0,314383.0,192822.0,307285.0,203683.0
2026-04-14 18:17:47.075525,871929,1609508160639855,5760609668,0.925248,-0.03904,0.41968,6.3,5.36375,-20.67625,-11.904,21.52,21.936,concentric,4,7.0,109723.0,314383.0,192822.0,307285.0,203683.0
2026-04-14 18:17:47.077970,871930,1609508160648847,5760618358,0.925248,-0.03904,0.41968,3.7275,6.685,-24.08,-11.904,21.52,21.936,concentric,4,7.0,109723.0,314383.0,192822.0,307285.0,203683.0
2026-04-14 18:17:47.080594,871931,1609508160663329,5760633242,0.952576,-0.105408,0.542656,2.2225,7.805,-23.63375,-12.096001,21.2,22.376001,concentric,4,7.0,109723.0,314383.0,192822.0,307285.0,203683.0
2026-04-14 18:17:47.083100,871932,1609508160672248,5760641985,0.952576,-0.105408,0.542656,1.9775,8.855001,-21.13125,-12.096001,21.2,22.376001,concentric,4,7.0,109723.0,314383.0,192822.0,307285.0,203683.0
2026-04-14 18:17:47.110662,871943,1609508160686838,5760657174,0.970144,-0.060512,0.493856,2.9225,8.74125,-19.8275,-11.848001,21.376001,22.376001,concentric,4,7.0,122738.0,321578.0,208451.0,314114.0,218856.0
2026-04-14 18:17:47.112898,871944,1609508160695815,5760665939,0.970144,0.033184,0.284992,8.0675,8.54,-20.4575,-11.848001,21.376001,22.376001,concentric,4,7.0,122738.0,321578.0,208451.0,314114.0,218856.0
2026-04-14 18:17:47.115628,871945,1609508160710508,5760678889,0.958432,0.033184,0.284992,12.67875,7.84875,-23.72125,-12.136001,21.312,23.336,concentric,4,7.0,122738.0,321578.0,208451.0,314114.0,218856.0
2026-04-14 18:17:47.120675,871946,1609508160719713,5760689704,0.96624,0.015616,0.374784,14.49,4.94375,-27.04625,-12.592001,21.336,22.192001,concentric,4,7.0,122738.0,321578.0,208451.0,314114.0,218856.0
2026-04-14 18:17:47.123168,871947,1609508160728694,5760698408,0.96624,0.015616,0.374784,12.90625,3.4825,-28.62125,-12.592001,21.336,22.192001,concentric,4,7.0,122738.0,321578.0,208451.0,314114.0,218856.0
2026-04-14 18:17:47.126918,871948,1609508160743216,5760713370,1.007232,-0.021472,0.597312,7.4375,5.6525,-27.65,-12.768001,20.904001,22.608002,concentric,4,7.0,122738.0,321578.0,208451.0,314114.0,218856.0
2026-04-14 18:17:47.136561,871949,1609508160752134,5760722061,1.007232,-0.021472,0.597312,5.355,6.74625,-26.20625,-12.768001,20.904001,22.608002,concentric,4,7.0,122738.0,321578.0,208451.0,314114.0,218856.0
2026-04-14 18:17:47.153181,871950,1609508160766645,5760736955,1.01504,-0.007808,0.3904,6.7725,7.06125,-24.9375,-12.920001,21.192001,23.36,concentric,4,7.0,122738.0,321578.0,208451.0,314114.0,218856.0
2026-04-14 18:17:47.158880,871951,1609508160775579,5760745640,1.01504,-0.007808,0.3904,12.9325,7.28875,-23.58125,-12.920001,21.192001,23.36,eccentric,4,7.0,122738.0,321578.0,208451.0,314114.0,218856.0
2026-04-14 18:17:47.188745,871962,1609508160790223,5760758610,0.977952,0.074176,0.40992,16.0825,5.3725,-22.67125,-13.768001,20.92,23.928001,eccentric,4,7.0,132662.0,321671.0,220342.0,314847.0,230642.0
2026-04-14 18:17:47.191315,871963,1609508160799513,5760769433,0.993568,0.0488,0.415776,14.35875,2.065,-20.92125,-14.576001,20.816002,22.704,eccentric,4,7.0,132662.0,321671.0,220342.0,314847.0,230642.0
2026-04-14 18:17:47.203285,871964,1609508160808517,5760778140,0.993568,0.0488,0.415776,13.405,-0.035,-19.7225,-14.576001,20.816002,22.704,eccentric,4,7.0,132662.0,321671.0,220342.0,314847.0,230642.0
2026-04-14 18:17:47.205221,871965,1609508160823022,5760793072,1.08336,0.062464,0.618784,10.80625,0.04375,-18.7775,-13.424001,20.408,23.168001,eccentric,4,7.0,132662.0,321671.0,220342.0,314847.0,230642.0
2026-04-14 18:17:47.216472,871966,1609508160831974,5760801777,1.08336,0.062464,0.618784,9.63375,2.59875,-17.66625,-13.424001,20.408,23.168001,eccentric,4,7.0,132662.0,321671.0,220342.0,314847.0,230642.0
2026-04-14 18:17:47.230617,871967,1609508160846487,5760816669,1.106784,0.033184,0.36112,8.3475,4.9525,-16.73,-13.784,20.328001,23.12,eccentric,4,7.0,132662.0,321671.0,220342.0,314847.0,230642.0
2026-04-14 18:17:47.240139,871968,1609508160855490,5760825362,1.106784,0.033184,0.36112,7.21,4.41,-15.37375,-13.784,20.328001,23.12,eccentric,4,7.0,132662.0,321671.0,220342.0,314847.0,230642.0
2026-04-14 18:17:47.247380,871969,1609508160864452,5760834098,1.08336,0.083936,0.558272,10.40375,2.5375,-14.23625,-14.416,20.592001,22.720001,eccentric,4,7.0,132662.0,321671.0,220342.0,314847.0,230642.0
2026-04-14 18:17:47.262751,871970,1609508160879121,5760849012,1.04432,0.085888,0.480192,15.98625,0.76125,-15.04125,-14.992001,20.088001,23.656002,eccentric,4,7.0,132662.0,321671.0,220342.0,314847.0,230642.0
2026-04-14 18:17:47.290264,871981,1609508160888343,5760857754,1.04432,0.085888,0.480192,16.75625,-0.67375,-16.45875,-14.992001,20.088001,23.656002,eccentric,4,7.0,138039.0,322582.0,226598.0,315583.0,236570.0
2026-04-14 18:17:47.292924,871982,1609508160902914,5760872784,1.071648,0.064416,0.562176,13.0375,-2.26625,-15.75,-15.832001,20.256,24.232,eccentric,4,7.0,138039.0,322582.0,226598.0,315583.0,236570.0
2026-04-14 18:17:47.295400,871983,1609508160911942,5760881517,1.071648,0.064416,0.562176,9.65125,-2.00375,-12.8625,-15.832001,20.256,24.232,eccentric,4,7.0,138039.0,322582.0,226598.0,315583.0,236570.0
2026-04-14 18:17:47.302851,871984,1609508160920956,5760890282,1.188768,0.066368,0.589504,10.80625,-0.44625,-9.33625,-15.320001,20.048,24.456001,eccentric,4,7.0,138039.0,322582.0,226598.0,315583.0,236570.0
2026-04-14 18:17:47.318949,871985,1609508160935455,5760905217,1.188768,0.066368,0.589504,9.98375,0.9275,-7.91875,-15.320001,20.048,24.456001,eccentric,4,7.0,138039.0,322582.0,226598.0,315583.0,236570.0
2026-04-14 18:17:47.326637,871986,1609508160944472,5760913932,1.09312,0.109312,0.431392,7.0875,1.3125,-6.5975,-14.472001,19.912,24.952002,eccentric,4,7.0,138039.0,322582.0,226598.0,315583.0,236570.0
2026-04-14 18:17:47.346116,871987,1609508160958991,5760928831,1.0736,0.037088,0.421632,3.29,0.9275,-7.9275,-14.440001,19.824001,22.864,eccentric,4,7.0,138039.0,322582.0,226598.0,315583.0,236570.0
2026-04-14 18:17:47.350038,871988,1609508160968013,5760937671,1.0736,0.037088,0.421632,-1.81125,0.41125,-9.52875,-14.440001,19.824001,22.864,eccentric,4,7.0,138039.0,322582.0,226598.0,315583.0,236570.0
2026-04-14 18:17:47.434476,871999,1609508160982936,5760952645,1.114592,0.046848,0.620736,0.88375,1.2075,-7.48125,-14.160001,19.848001,23.848001,eccentric,4,7.0,142597.0,323910.0,232147.0,316809.0,241863.0
2026-04-14 18:17:47.434917,872000,1609508160991932,5760961467,1.114592,0.046848,0.620736,4.71625,1.575,-5.7575,-14.160001,19.848001,23.848001,eccentric,4,7.0,142597.0,323910.0,232147.0,316809.0,241863.0
2026-04-14 18:17:47.436336,872001,1609508161000857,5760970213,1.097024,0.124928,0.50752,8.28625,3.28125,-3.745,-15.528001,20.056002,24.568,eccentric,4,7.0,142597.0,323910.0,232147.0,316809.0,241863.0
2026-04-14 18:17:47.441083,872002,1609508161015519,5760985150,1.097024,0.124928,0.50752,8.60125,4.17375,-3.045,-15.528001,20.056002,24.568,eccentric,4,7.0,142597.0,323910.0,232147.0,316809.0,241863.0
2026-04-14 18:17:47.441224,872003,1609508161024451,5760993821,1.188768,0.083936,0.708576,5.08375,3.78,-3.82375,-15.120001,19.960001,24.784,eccentric,4,7.0,142597.0,323910.0,232147.0,316809.0,241863.0
2026-04-14 18:17:47.444534,872004,1609508161038971,5761008780,1.118496,0.050752,0.450912,-0.49,3.54375,-4.165,-15.200001,20.008001,26.176,eccentric,4,7.0,142597.0,323910.0,232147.0,316809.0,241863.0
2026-04-14 18:17:47.446245,872005,1609508161047918,5761017485,1.118496,0.050752,0.450912,-3.7275,4.8475,-4.165,-15.200001,20.008001,26.176,eccentric,4,7.0,142597.0,323910.0,232147.0,316809.0,241863.0
2026-04-14 18:17:47.448753,872006,1609508161057001,5761026171,1.118496,0.050752,0.450912,-0.84875,7.44625,-3.52625,-15.200001,20.008001,26.176,eccentric,4,7.0,142597.0,323910.0,232147.0,316809.0,241863.0
2026-04-14 18:17:47.455206,872007,1609508161071591,5761041069,1.233664,0.085888,0.650016,2.73,8.75,-3.675,-15.336,20.168001,25.024002,eccentric,4,7.0,142597.0,323910.0,232147.0,316809.0,241863.0
2026-04-14 18:17:47.462856,872008,1609508161080533,5761049789,1.165344,0.122976,0.642208,4.8125,8.11125,-4.27,-15.384001,19.68,23.840002,eccentric,4,7.0,142597.0,323910.0,232147.0,316809.0,241863.0
2026-04-14 18:17:47.490667,872019,1609508161095175,5761064831,1.165344,0.122976,0.642208,3.9025,6.825,-6.57125,-15.384001,19.68,23.840002,eccentric,4,7.0,147896.0,326992.0,238442.0,319807.0,247403.0
2026-04-14 18:17:47.493183,872020,1609508161104159,5761073528,1.186816,0.105408,0.630496,0.74375,5.3025,-8.995,-14.056001,19.144001,23.584002,eccentric,4,7.0,147896.0,326992.0,238442.0,319807.0,247403.0
2026-04-14 18:17:47.495149,872021,1609508161113115,5761082250,1.186816,0.105408,0.630496,-0.41125,2.47625,-9.3975,-14.056001,19.144001,23.584002,eccentric,4,7.0,147896.0,326992.0,238442.0,319807.0,247403.0
2026-04-14 18:17:47.511225,872022,1609508161127676,5761097156,1.188768,0.091744,0.618784,0.0175,-1.07625,-8.33,-14.128,19.320002,23.568,eccentric,4,7.0,147896.0,326992.0,238442.0,319807.0,247403.0
2026-04-14 18:17:47.518947,872023,1609508161136611,5761105859,1.188768,0.091744,0.618784,1.49625,-0.9975,-6.34375,-14.128,19.320002,23.568,eccentric,4,7.0,147896.0,326992.0,238442.0,319807.0,247403.0
2026-04-14 18:17:47.536772,872024,1609508161151275,5761120732,1.147776,0.132736,0.638304,0.49875,0.18375,-5.48625,-13.768001,19.224,23.624,eccentric,4,7.0,147896.0,326992.0,238442.0,319807.0,247403.0
2026-04-14 18:17:47.542981,872025,1609508161160257,5761129470,1.1224,0.122976,0.56608,-1.28625,2.65125,-4.4975,-14.976001,19.408,26.408,eccentric,4,7.0,147896.0,326992.0,238442.0,319807.0,247403.0
2026-04-14 18:17:47.559270,872026,1609508161174734,5761144443,1.1224,0.122976,0.56608,-1.89875,4.5325,-4.4275,-14.976001,19.408,26.408,eccentric,4,7.0,147896.0,326992.0,238442.0,319807.0,247403.0
2026-04-14 18:17:47.590129,872037,1609508161183990,5761153630,1.077504,0.142496,0.37088,-1.77625,4.025,-4.82125,-14.736001,19.496,24.248001,eccentric,4,7.0,147373.0,325495.0,237942.0,318625.0,246984.0
2026-04-14 18:17:47.593175,872038,1609508161193015,5761162386,1.077504,0.142496,0.37088,0.48125,-0.0175,-5.005,-14.736001,19.496,24.248001,eccentric,4,7.0,147373.0,325495.0,237942.0,318625.0,246984.0
2026-04-14 18:17:47.595659,872039,1609508161207584,5761177359,1.163392,0.101504,0.44896,2.56375,-4.85625,-4.75125,-14.976001,19.080002,24.840002,eccentric,4,7.0,147373.0,325495.0,237942.0,318625.0,246984.0
2026-04-14 18:17:47.599322,872040,1609508161216539,5761186068,1.163392,0.101504,0.44896,-0.4375,-6.27375,-2.52,-14.976001,19.080002,24.840002,eccentric,4,7.0,147373.0,325495.0,237942.0,318625.0,246984.0
2026-04-14 18:17:47.633421,872041,1609508161231049,5761200935,1.040416,0.121024,0.523136,-4.29625,-5.92375,-0.4725,-14.704,19.048,24.584002,eccentric,4,7.0,147373.0,325495.0,237942.0,318625.0,246984.0
2026-04-14 18:17:47.635385,872042,1609508161240007,5761209641,1.048224,0.142496,0.630496,-5.985,-4.75125,1.155,-14.768001,19.144001,26.792002,eccentric,4,7.0,147373.0,325495.0,237942.0,318625.0,246984.0
2026-04-14 18:17:47.640519,872043,1609508161248966,5761218345,1.048224,0.142496,0.630496,-5.95,-3.21125,2.24875,-14.768001,19.144001,26.792002,eccentric,4,7.0,147373.0,325495.0,237942.0,318625.0,246984.0
2026-04-14 18:17:47.648015,872044,1609508161263462,5761233257,1.095072,0.091744,0.509472,-4.9,-2.45,2.625,-15.000001,19.496,25.024002,eccentric,4,7.0,147373.0,325495.0,237942.0,318625.0,246984.0
2026-04-14 18:17:47.655544,872045,1609508161272385,5761241925,1.095072,0.091744,0.509472,-4.5325,-4.01625,3.7275,-15.000001,19.496,25.024002,eccentric,4,7.0,147373.0,325495.0,237942.0,318625.0,246984.0
2026-04-14 18:17:47.691919,872056,1609508161287340,5761256955,1.020896,0.11712,0.488,-6.37,-5.8275,5.45125,-15.464001,19.608002,24.112001,eccentric,4,7.0,142759.0,321251.0,232433.0,314945.0,241869.0
2026-04-14 18:17:47.694400,872057,1609508161296415,5761265669,1.020896,0.11712,0.488,-8.365,-6.08125,6.90375,-15.464001,19.608002,24.112001,eccentric,4,7.0,142759.0,321251.0,232433.0,314945.0,241869.0
2026-04-14 18:17:47.696508,872058,1609508161305382,5761274475,1.065792,0.080032,0.530944,-10.185,-4.41,7.595,-13.624001,18.560001,23.512001,eccentric,4,7.0,142759.0,321251.0,232433.0,314945.0,241869.0
2026-04-14 18:17:47.701392,872059,1609508161319950,5761289403,0.96624,0.103456,0.505568,-9.26625,-1.2425,8.49625,-13.624001,18.560001,23.344002,eccentric,4,7.0,142759.0,321251.0,232433.0,314945.0,241869.0
2026-04-14 18:17:47.713226,872060,1609508161328973,5761298099,0.96624,0.103456,0.505568,-7.35,1.2075,8.19,-13.68,18.712002,23.344002,eccentric,4,7.0,142759.0,321251.0,232433.0,314945.0,241869.0
2026-04-14 18:17:47.741512,872061,1609508161343479,5761312998,0.929152,0.085888,0.310368,-6.60625,1.295,7.84875,-13.048,18.560001,23.840002,eccentric,4,7.0,142759.0,321251.0,232433.0,314945.0,241869.0
2026-04-14 18:17:47.766878,872062,1609508161352382,5761321690,0.929152,0.085888,0.310368,-4.83,-1.505,8.05,-13.048,18.560001,23.840002,eccentric,4,7.0,142759.0,321251.0,232433.0,314945.0,241869.0
2026-04-14 18:17:47.791894,872063,1609508161366986,5761336645,0.993568,0.122976,0.552416,-3.5,-5.355,6.99125,-13.320001,19.056002,24.592001,eccentric,4,7.0,142759.0,321251.0,232433.0,314945.0,241869.0
2026-04-14 18:17:47.794408,872064,1609508161375948,5761345335,0.993568,0.122976,0.552416,-5.34625,-6.86,5.915,-13.320001,19.056002,24.592001,eccentric,4,7.0,142759.0,321251.0,232433.0,314945.0,241869.0
2026-04-14 18:17:47.821243,872075,1609508161385371,5761354083,0.970144,0.08784,0.618784,-9.33625,-7.525,5.5825,-13.6,18.968,24.272001,eccentric,4,7.0,137114.0,320415.0,225386.0,313901.0,235036.0
2026-04-14 18:17:47.824266,872076,1609508161400281,5761369069,0.970144,0.042944,0.316224,-11.2875,-5.69625,5.32,-13.6,18.968,24.272001,eccentric,4,7.0,137114.0,320415.0,225386.0,313901.0,235036.0
2026-04-14 18:17:47.826288,872077,1609508161409616,5761379840,0.856928,0.042944,0.316224,-12.48625,-4.165,5.62625,-13.616,19.064001,23.608002,eccentric,4,7.0,137114.0,320415.0,225386.0,313901.0,235036.0
2026-04-14 18:17:47.829272,872078,1609508161424135,5761392694,0.958432,0.021472,0.384544,-13.39625,-4.06,7.39375,-13.184001,18.984001,23.904001,eccentric,4,7.0,137114.0,320415.0,225386.0,313901.0,235036.0
2026-04-14 18:17:47.831807,872079,1609508161433649,5761403521,0.958432,0.021472,0.384544,-10.15,-6.29125,9.8525,-13.184001,18.984001,23.904001,eccentric,4,7.0,137114.0,320415.0,225386.0,313901.0,235036.0
2026-04-14 18:17:47.834353,872080,1609508161442651,5761412246,0.815936,0.093696,0.314272,-7.98,-9.2225,10.78875,-13.480001,19.504002,24.304,eccentric,4,7.0,137114.0,320415.0,225386.0,313901.0,235036.0
2026-04-14 18:17:47.847397,872081,1609508161457266,5761427200,0.815936,0.093696,0.314272,-9.19625,-10.8325,11.34,-13.480001,19.504002,24.304,eccentric,4,7.0,137114.0,320415.0,225386.0,313901.0,235036.0
2026-04-14 18:17:47.848884,872082,1609508161466193,5761435941,0.765184,0.06832,0.27328,-10.99,-10.7275,10.91125,-12.960001,18.784,23.376001,eccentric,4,7.0,137114.0,320415.0,225386.0,313901.0,235036.0
2026-04-14 18:17:47.865356,872083,1609508161480712,5761450980,0.765184,0.035136,0.31232,-12.92375,-10.0625,10.40375,-12.960001,18.784,23.376001,eccentric,4,7.0,137114.0,320415.0,225386.0,313901.0,235036.0
2026-04-14 18:17:47.892923,872094,1609508161489779,5761459737,0.716384,0.035136,0.31232,-13.81625,-9.10875,10.78,-12.000001,19.12,21.928001,eccentric,4,7.0,125890.0,315944.0,211996.0,309916.0,222194.0
2026-04-14 18:17:47.895374,872095,1609508161498762,5761468497,0.716384,0.035136,0.31232,-13.97375,-8.05,12.4775,-12.000001,19.12,21.928001,eccentric,4,7.0,125890.0,315944.0,211996.0,309916.0,222194.0
2026-04-14 18:17:47.897939,872096,1609508161513324,5761483450,0.675392,0.027328,0.284992,-14.2625,-7.39375,15.54875,-11.944,18.816,22.256,eccentric,4,7.0,125890.0,315944.0,211996.0,309916.0,222194.0
2026-04-14 18:17:47.906238,872097,1609508161522313,5761492226,0.724192,0.025376,0.298656,-14.096251,-7.35,17.710001,-11.496,19.192001,21.640001,eccentric,4,7.0,125890.0,315944.0,211996.0,309916.0,222194.0
