pc_time,serial_num,sensor_ts,host_ts,ax,ay,az,gx,gy,gz,mx,my,mz,phase,rpe,weight_kg,ppg_a,ppg_b,ppg_c,ppg_d,ppg_e
2026-04-14 18:18:08.405206,875950,1609508182000474,5781969900,0.806176,0.033184,0.3904,7.2975,1.2075,-13.83375,-11.408001,23.000002,21.784,eccentric,4,7.0,93917.0,285741.0,175173.0,288733.0,184727.0
2026-04-14 18:18:08.411434,875951,1609508182015081,5781984939,0.821792,0.083936,0.534848,14.90125,1.015,-12.635,-11.056001,23.064001,21.560001,eccentric,4,7.0,93917.0,285741.0,175173.0,288733.0,184727.0
2026-04-14 18:18:08.411543,875952,1609508182024017,5781993619,0.821792,0.083936,0.534848,13.37,0.76125,-10.99,-11.056001,23.064001,21.560001,eccentric,4,7.0,93917.0,285741.0,175173.0,288733.0,184727.0
2026-04-14 18:18:08.416340,875953,1609508182033006,5782002429,0.788608,0.081984,0.450912,2.96625,1.65375,-8.0325,-10.632001,23.792002,20.480001,eccentric,4,7.0,93917.0,285741.0,175173.0,288733.0,184727.0
2026-04-14 18:18:08.431696,875954,1609508182047535,5782017345,0.788608,0.081984,0.450912,-6.32625,2.94875,-7.46375,-10.632001,23.792002,20.480001,eccentric,4,7.0,93917.0,285741.0,175173.0,288733.0,184727.0
2026-04-14 18:18:08.442692,875955,1609508182056494,5782026046,0.851072,0.017568,0.40992,-10.01875,3.45625,-9.21375,-11.160001,23.376001,22.04,eccentric,4,7.0,93917.0,285741.0,175173.0,288733.0,184727.0
2026-04-14 18:18:08.456592,875956,1609508182071063,5782040983,0.851072,0.017568,0.40992,-4.6725,2.59875,-9.7475,-11.160001,23.376001,22.04,eccentric,4,7.0,93917.0,285741.0,175173.0,288733.0,184727.0
2026-04-14 18:18:08.463943,875957,1609508182079992,5782049693,1.001376,0.001952,0.630496,0.86625,1.96875,-9.5725,-10.92,23.792002,21.36,eccentric,4,7.0,93917.0,285741.0,175173.0,288733.0,184727.0
2026-04-14 18:18:08.480213,875958,1609508182094505,5782064585,1.013088,0.033184,0.568032,1.75,4.19125,-7.2975,-11.76,23.696001,20.216002,eccentric,4,7.0,93917.0,285741.0,175173.0,288733.0,184727.0
2026-04-14 18:18:08.506254,875969,1609508182103574,5782073321,1.013088,0.033184,0.568032,1.015,6.04625,-6.64125,-11.76,23.696001,20.216002,eccentric,4,7.0,104778.0,291579.0,188561.0,294120.0,198249.0
2026-04-14 18:18:08.509165,875970,1609508182112560,5782082089,1.013088,0.033184,0.452864,-0.79625,6.79875,-8.3825,-11.76,23.696001,20.216002,eccentric,4,7.0,104778.0,291579.0,188561.0,294120.0,198249.0
2026-04-14 18:18:08.511684,875971,1609508182127126,5782097031,0.944768,0.031232,0.452864,-0.23625,7.0875,-8.855001,-12.280001,24.072,20.880001,eccentric,4,7.0,104778.0,291579.0,188561.0,294120.0,198249.0
2026-04-14 18:18:08.519065,875972,1609508182136060,5782105735,1.036512,0.001952,0.708576,3.14125,7.77,-9.12625,-11.76,23.536001,22.592001,eccentric,4,7.0,104778.0,291579.0,188561.0,294120.0,198249.0
2026-04-14 18:18:08.534120,875973,1609508182150730,5782120671,1.036512,0.001952,0.708576,2.7825,8.32125,-8.785,-11.76,23.536001,22.592001,eccentric,4,7.0,104778.0,291579.0,188561.0,294120.0,198249.0
2026-04-14 18:18:08.544181,875974,1609508182159679,5782129362,1.00528,0.031232,0.69296,0.28875,9.1875,-6.88625,-10.968,23.76,21.960001,eccentric,4,7.0,104778.0,291579.0,188561.0,294120.0,198249.0
2026-04-14 18:18:08.551679,875975,1609508182168697,5782138075,1.00528,0.031232,0.69296,-2.8,9.96625,-6.06375,-10.968,23.76,21.960001,eccentric,4,7.0,104778.0,291579.0,188561.0,294120.0,198249.0
2026-04-14 18:18:08.568522,875976,1609508182183196,5782152948,1.100928,0.00976,0.636352,-3.08875,8.65375,-7.11375,-11.64,23.992,22.736002,eccentric,4,7.0,104778.0,291579.0,188561.0,294120.0,198249.0
2026-04-14 18:18:08.577179,875977,1609508182192142,5782161649,1.100928,0.00976,0.636352,-1.40875,6.2825,-7.69125,-11.64,23.992,22.736002,eccentric,4,7.0,104778.0,291579.0,188561.0,294120.0,198249.0
2026-04-14 18:18:08.607994,875988,1609508182206934,5782177325,1.016992,0.01952,0.636352,-1.02375,3.61375,-7.5775,-11.976001,23.728,21.160002,eccentric,4,7.0,115391.0,303598.0,201425.0,304490.0,211339.0
2026-04-14 18:18:08.610397,875989,1609508182215907,5782186035,1.0248,-0.001952,0.646112,0.7525,3.7625,-7.16625,-11.968,23.928001,22.752,eccentric,4,7.0,115391.0,303598.0,201425.0,304490.0,211339.0
2026-04-14 18:18:08.612930,875990,1609508182230442,5782198948,1.0248,-0.001952,0.646112,1.5925,5.52125,-8.11125,-11.968,23.928001,22.752,eccentric,4,7.0,115391.0,303598.0,201425.0,304490.0,211339.0
2026-04-14 18:18:08.622960,875991,1609508182240016,5782209727,1.067744,0.015616,0.681248,1.00625,6.86,-8.54875,-12.632001,24.12,22.192001,eccentric,4,7.0,115391.0,303598.0,201425.0,304490.0,211339.0
2026-04-14 18:18:08.636512,875992,1609508182248951,5782218400,1.067744,0.015616,0.681248,1.16375,6.5275,-8.925,-12.632001,24.12,22.192001,eccentric,4,7.0,115391.0,303598.0,201425.0,304490.0,211339.0
2026-04-14 18:18:08.647948,875993,1609508182263443,5782233454,1.056032,0.001952,0.532896,2.8525,3.8675,-9.03875,-11.192,24.024002,22.608002,eccentric,4,7.0,115391.0,303598.0,201425.0,304490.0,211339.0
2026-04-14 18:18:08.655411,875994,1609508182272356,5782242165,1.056032,0.001952,0.532896,4.92625,1.60125,-8.155,-11.192,24.024002,22.608002,eccentric,4,7.0,115391.0,303598.0,201425.0,304490.0,211339.0
2026-04-14 18:18:08.690725,875995,1609508182286962,5782257060,1.15168,0.013664,0.769088,2.275,0.98,-6.57125,-12.344001,24.176,21.296001,eccentric,4,7.0,115391.0,303598.0,201425.0,304490.0,211339.0
2026-04-14 18:18:08.710672,875996,1609508182295954,5782265749,1.087264,0.023424,0.704672,0.62125,2.65125,-4.83,-13.376,23.800001,22.704,eccentric,4,7.0,115391.0,303598.0,201425.0,304490.0,211339.0
2026-04-14 18:18:08.771302,876007,1609508182305049,5782274505,1.087264,0.023424,0.704672,1.53125,3.045,-4.7425,-13.376,23.800001,22.704,eccentric,4,7.0,124208.0,312535.0,211942.0,312010.0,221602.0
2026-04-14 18:18:08.772272,876008,1609508182319709,5782289515,1.09312,0.035136,0.665632,1.21625,2.555,-5.6,-12.248,23.712002,22.624,eccentric,4,7.0,124208.0,312535.0,211942.0,312010.0,221602.0
2026-04-14 18:18:08.773606,876009,1609508182328836,5782298226,1.09312,0.035136,0.665632,2.0825,1.19875,-6.09,-12.248,23.712002,22.624,eccentric,4,7.0,124208.0,312535.0,211942.0,312010.0,221602.0
2026-04-14 18:18:08.775084,876010,1609508182343347,5782313164,1.218048,0.01952,0.835456,2.52,-0.72625,-6.34375,-12.400001,23.728,22.480001,eccentric,4,7.0,124208.0,312535.0,211942.0,312010.0,221602.0
2026-04-14 18:18:08.778140,876011,1609508182352310,5782321903,1.218048,0.01952,0.835456,4.55,-0.95375,-4.64625,-12.400001,23.728,22.480001,eccentric,4,7.0,124208.0,312535.0,211942.0,312010.0,221602.0
2026-04-14 18:18:08.780676,876012,1609508182361237,5782330614,1.124352,0.037088,0.66368,3.8675,-0.14875,-4.375,-12.480001,23.936,21.768002,eccentric,4,7.0,124208.0,312535.0,211942.0,312010.0,221602.0
2026-04-14 18:18:08.783093,876013,1609508182375715,5782345566,1.08336,0.052704,0.630496,-1.37375,0.84875,-4.0775,-12.464001,23.584002,25.616001,eccentric,4,7.0,124208.0,312535.0,211942.0,312010.0,221602.0
2026-04-14 18:18:08.785213,876014,1609508182384672,5782354298,1.08336,0.052704,0.630496,-3.745,1.81125,-5.53,-12.464001,23.584002,25.616001,eccentric,4,7.0,124208.0,312535.0,211942.0,312010.0,221602.0
2026-04-14 18:18:08.788142,876015,1609508182399361,5782369228,1.16144,0.027328,0.583648,-2.82625,2.625,-9.47625,-11.696,23.392,22.032001,eccentric,4,7.0,124208.0,312535.0,211942.0,312010.0,221602.0
2026-04-14 18:18:08.815764,876026,1609508182408539,5782377954,1.16144,0.027328,0.583648,0.8225,-0.0175,-12.915,-11.696,23.392,22.032001,eccentric,4,7.0,126314.0,313665.0,214559.0,313054.0,224202.0
2026-04-14 18:18:08.818384,876027,1609508182417535,5782386718,1.153632,0.044896,0.69296,4.9175,-1.89,-14.455,-11.408001,23.256,21.880001,eccentric,4,7.0,126314.0,313665.0,214559.0,313054.0,224202.0
2026-04-14 18:18:08.820815,876028,1609508182432079,5782401651,1.153632,0.044896,0.69296,1.2775,-0.95375,-12.46875,-11.408001,23.256,21.880001,eccentric,4,7.0,126314.0,313665.0,214559.0,313054.0,224202.0
2026-04-14 18:18:08.823265,876029,1609508182441017,5782410372,1.097024,0.01952,0.784704,-6.53625,1.35625,-7.9275,-11.480001,23.128,21.912,eccentric,4,7.0,126314.0,313665.0,214559.0,313054.0,224202.0
2026-04-14 18:18:08.839556,876030,1609508182455515,5782425286,1.100928,0.00976,0.610976,-9.68625,3.045,-3.92,-11.776001,23.184002,21.424002,eccentric,4,7.0,126314.0,313665.0,214559.0,313054.0,224202.0
2026-04-14 18:18:08.848286,876031,1609508182464466,5782433964,1.100928,0.00976,0.610976,-6.5275,4.92625,-0.98875,-11.776001,23.184002,21.424002,eccentric,4,7.0,126314.0,313665.0,214559.0,313054.0,224202.0
2026-04-14 18:18:08.864142,876032,1609508182478938,5782448863,1.130208,0.00976,0.632448,-2.0125,3.7275,-0.7875,-11.120001,23.592001,22.024,eccentric,4,7.0,126314.0,313665.0,214559.0,313054.0,224202.0
2026-04-14 18:18:08.870614,876033,1609508182487879,5782457609,1.130208,0.00976,0.632448,0.63,-1.84625,0.0175,-11.120001,23.592001,22.024,eccentric,4,7.0,126314.0,313665.0,214559.0,313054.0,224202.0
2026-04-14 18:18:08.879376,876034,1609508182496895,5782466338,1.056032,0.076128,0.528992,1.3825,-6.93,0.70875,-11.472,23.272001,23.296001,eccentric,4,7.0,126314.0,313665.0,214559.0,313054.0,224202.0
2026-04-14 18:18:08.909467,876045,1609508182511408,5782481330,1.056032,0.076128,0.528992,-0.84,-7.00875,0.91,-11.472,23.272001,23.296001,eccentric,4,7.0,124083.0,311505.0,211671.0,311152.0,221145.0
2026-04-14 18:18:08.912024,876046,1609508182520410,5782490096,1.091168,0.023424,0.774944,-5.3725,-6.81625,1.33,-12.128,23.472002,22.960001,eccentric,4,7.0,124083.0,311505.0,211671.0,311152.0,221145.0
2026-04-14 18:18:08.917694,876047,1609508182534938,5782505073,1.091168,0.023424,0.774944,-7.72625,-5.80125,2.94875,-12.128,23.472002,22.960001,eccentric,4,7.0,124083.0,311505.0,211671.0,311152.0,221145.0
2026-04-14 18:18:08.928303,876048,1609508182543900,5782513777,1.01504,0.025376,0.540704,-6.0025,-4.87375,3.61375,-11.928,23.272001,21.912,eccentric,4,7.0,124083.0,311505.0,211671.0,311152.0,221145.0
2026-04-14 18:18:08.944526,876049,1609508182558446,5782528731,1.036512,0.089792,0.665632,-4.03375,-6.02875,4.19125,-11.248,22.832,21.976002,eccentric,4,7.0,124083.0,311505.0,211671.0,311152.0,221145.0
2026-04-14 18:18:08.951616,876050,1609508182567380,5782537450,1.036512,0.089792,0.665632,-3.1325,-8.435,3.71875,-11.248,22.832,21.976002,eccentric,4,7.0,124083.0,311505.0,211671.0,311152.0,221145.0
2026-04-14 18:18:08.959320,876051,1609508182576586,5782546159,1.0248,0.044896,0.650016,-4.19125,-9.09125,1.82875,-12.064,23.232,22.128,eccentric,4,7.0,124083.0,311505.0,211671.0,311152.0,221145.0
2026-04-14 18:18:08.974412,876052,1609508182591182,5782561060,1.0248,0.044896,0.650016,-7.77,-8.4875,0.63,-12.064,23.232,22.128,eccentric,4,7.0,124083.0,311505.0,211671.0,311152.0,221145.0
2026-04-14 18:18:08.985163,876053,1609508182600118,5782569752,0.989664,-0.001952,0.704672,-11.2875,-7.84875,1.28625,-10.888001,22.936,21.808,eccentric,4,7.0,124083.0,311505.0,211671.0,311152.0,221145.0
2026-04-14 18:18:09.012940,876064,1609508182614644,5782584829,0.989664,-0.001952,0.704672,-11.375,-6.2125,3.35125,-10.888001,22.936,21.808,eccentric,4,7.0,114968.0,304489.0,200527.0,305017.0,210081.0
2026-04-14 18:18:09.015234,876065,1609508182623656,5782593520,0.979904,0.031232,0.558272,-8.295,-4.27,4.66375,-11.768001,23.36,22.048,eccentric,4,7.0,114968.0,304489.0,200527.0,305017.0,210081.0
2026-04-14 18:18:09.018466,876066,1609508182632595,5782602231,0.979904,0.031232,0.558272,-7.5425,-3.40375,5.53,-11.768001,23.36,22.048,eccentric,4,7.0,114968.0,304489.0,200527.0,305017.0,210081.0
2026-04-14 18:18:09.030830,876067,1609508182647249,5782617207,0.935008,0.042944,0.534848,-8.8025,-4.89125,6.11625,-11.776001,22.960001,23.176,eccentric,4,7.0,114968.0,304489.0,200527.0,305017.0,210081.0
2026-04-14 18:18:09.055712,876068,1609508182656155,5782625887,0.935008,0.027328,0.40992,-10.66625,-6.055,6.1075,-11.776001,22.960001,23.176,eccentric,4,7.0,114968.0,304489.0,200527.0,305017.0,210081.0
2026-04-14 18:18:09.081127,876069,1609508182670674,5782640854,0.895968,0.021472,0.40992,-11.4625,-5.25875,5.95875,-10.672001,22.976002,21.720001,eccentric,4,7.0,114968.0,304489.0,200527.0,305017.0,210081.0
2026-04-14 18:18:09.105433,876070,1609508182679601,5782649595,0.83936,-0.01952,0.482144,-14.0525,-4.515,6.23,-12.312,23.544,22.512001,eccentric,4,7.0,114968.0,304489.0,200527.0,305017.0,210081.0
2026-04-14 18:18:09.110803,876071,1609508182694102,5782662460,0.83936,-0.01952,0.482144,-18.55875,-2.73,7.805,-12.312,23.544,22.512001,eccentric,4,7.0,114968.0,304489.0,200527.0,305017.0,210081.0
2026-04-14 18:18:09.146979,876082,1609508182703382,5782673782,0.8784,-0.0488,0.441152,-18.41,-0.70875,10.255,-10.832001,23.856,21.992,eccentric,4,7.0,108057.0,301627.0,192028.0,302367.0,201432.0
2026-04-14 18:18:09.147114,876083,1609508182712414,5782682540,0.8784,-0.0488,0.441152,-13.27375,0.42,12.1975,-10.832001,23.856,21.992,eccentric,4,7.0,108057.0,301627.0,192028.0,302367.0,201432.0
2026-04-14 18:18:09.148802,876084,1609508182727057,5782695411,0.823744,-0.017568,0.554368,-9.0475,-1.6625,12.5125,-11.024,23.224,21.928001,eccentric,4,7.0,108057.0,301627.0,192028.0,302367.0,201432.0
2026-04-14 18:18:09.150131,876085,1609508182736236,5782706181,0.823744,-0.017568,0.554368,-6.50125,-5.04875,13.011251,-11.024,23.224,21.928001,eccentric,4,7.0,108057.0,301627.0,192028.0,302367.0,201432.0
2026-04-14 18:18:09.154053,876086,1609508182750821,5782721152,0.743712,0.035136,0.437248,-6.30875,-7.81375,12.845,-10.52,23.544,22.336,eccentric,4,7.0,108057.0,301627.0,192028.0,302367.0,201432.0
2026-04-14 18:18:09.156466,876087,1609508182759851,5782729899,0.728096,-0.035136,0.306464,-7.0175,-8.86375,11.305,-10.392,23.168001,21.848001,eccentric,4,7.0,108057.0,301627.0,192028.0,302367.0,201432.0
2026-04-14 18:18:09.158489,876088,1609508182768814,5782738628,0.728096,-0.035136,0.306464,-9.9925,-9.8875,9.24,-10.392,23.168001,21.848001,eccentric,4,7.0,108057.0,301627.0,192028.0,302367.0,201432.0
2026-04-14 18:18:09.167573,876089,1609508182783458,5782753507,0.774944,-0.08784,0.47824,-12.48625,-9.415,9.47625,-10.472,23.136002,20.616001,eccentric,4,7.0,108057.0,301627.0,192028.0,302367.0,201432.0
2026-04-14 18:18:09.176896,876090,1609508182792435,5782762193,0.774944,-0.08784,0.47824,-10.0625,-7.49,11.34,-10.472,23.136002,20.616001,eccentric,4,7.0,108057.0,301627.0,192028.0,302367.0,201432.0
2026-04-14 18:18:09.211939,876101,1609508182807445,5782777352,0.681248,-0.033184,0.406016,-5.81,-5.69625,12.74875,-9.120001,23.240002,20.864,concentric,4,7.0,98939.0,298176.0,181052.0,299204.0,190267.0
2026-04-14 18:18:09.213976,876102,1609508182816489,5782786105,0.681248,-0.033184,0.406016,-3.9725,-5.9325,12.6175,-9.120001,23.240002,20.864,concentric,4,7.0,98939.0,298176.0,181052.0,299204.0,190267.0
2026-04-14 18:18:09.216427,876103,1609508182825532,5782794843,0.6832,-0.01952,0.363072,-2.8525,-6.16,12.3725,-9.704,23.352001,18.400002,concentric,4,7.0,98939.0,298176.0,181052.0,299204.0,190267.0
2026-04-14 18:18:09.224438,876104,1609508182840064,5782809797,0.677344,-0.03904,0.357216,-3.10625,-5.7225,11.01625,-9.664001,23.960001,22.264002,concentric,4,7.0,98939.0,298176.0,181052.0,299204.0,190267.0
2026-04-14 18:18:09.231894,876105,1609508182849126,5782818524,0.677344,-0.03904,0.357216,-5.075,-5.285,8.295,-9.664001,23.960001,22.264002,concentric,4,7.0,98939.0,298176.0,181052.0,299204.0,190267.0
2026-04-14 18:18:09.250144,876106,1609508182863653,5782833418,0.646112,-0.050752,0.427488,-5.6875,-4.725,7.035,-9.120001,23.472002,21.04,concentric,4,7.0,98939.0,298176.0,181052.0,299204.0,190267.0
2026-04-14 18:18:09.256569,876107,1609508182872591,5782842098,0.646112,-0.050752,0.427488,-4.90875,-3.955,7.46375,-9.120001,23.472002,21.04,concentric,4,7.0,98939.0,298176.0,181052.0,299204.0,190267.0
2026-04-14 18:18:09.266606,876108,1609508182881545,5782850839,0.618784,-0.062464,0.388448,-4.26125,-2.86125,7.595,-8.208,23.112001,20.688002,concentric,4,7.0,98939.0,298176.0,181052.0,299204.0,190267.0
2026-04-14 18:18:09.280411,876109,1609508182896023,5782865826,0.618784,-0.062464,0.388448,-2.17,-2.28375,8.295,-8.208,23.112001,20.688002,concentric,4,7.0,98939.0,298176.0,181052.0,299204.0,190267.0
2026-04-14 18:18:09.311746,876120,1609508182905567,5782874907,0.50752,-0.017568,0.232288,-1.37375,-2.07375,9.24875,-8.328,23.392,20.592001,concentric,4,7.0,97975.0,300298.0,180198.0,300545.0,189286.0
2026-04-14 18:18:09.314214,876121,1609508182920296,5782889885,0.525088,-0.001952,0.347456,-1.96875,-1.6625,8.44375,-8.608001,23.184002,21.736002,concentric,4,7.0,97975.0,300298.0,180198.0,300545.0,189286.0
2026-04-14 18:18:09.316758,876122,1609508182929428,5782898718,0.525088,-0.001952,0.347456,-3.22,-1.26,7.7,-8.608001,23.184002,21.736002,concentric,4,7.0,97975.0,300298.0,180198.0,300545.0,189286.0
2026-04-14 18:18:09.322028,876123,1609508182938386,5782907417,0.425536,-0.007808,0.247904,-5.43375,-0.42875,7.65625,-8.608001,23.184002,21.552002,concentric,4,7.0,97975.0,300298.0,180198.0,300545.0,189286.0
2026-04-14 18:18:09.337762,876124,1609508182952890,5782922316,0.425536,-0.007808,0.247904,-8.25125,-0.46375,7.9975,-8.8,23.552002,21.552002,concentric,4,7.0,97975.0,300298.0,180198.0,300545.0,189286.0
2026-04-14 18:18:09.343884,876125,1609508182961837,5782931045,0.413824,-0.011712,0.201056,-8.2075,-1.28625,8.93375,-8.416,23.256,20.976002,concentric,4,7.0,97975.0,300298.0,180198.0,300545.0,189286.0
2026-04-14 18:18:09.360336,876126,1609508182976370,5782945965,0.413824,-0.011712,0.201056,-5.215,-2.625,8.9775,-8.416,23.256,20.976002,concentric,4,7.0,97975.0,300298.0,180198.0,300545.0,189286.0
2026-04-14 18:18:09.396719,876127,1609508182985299,5782954693,0.425536,0.007808,0.210816,-2.6425,-3.85875,8.9075,-8.208,22.968,20.208,concentric,4,7.0,97975.0,300298.0,180198.0,300545.0,189286.0
2026-04-14 18:18:09.399207,876128,1609508182999789,5782969575,0.470432,0.013664,0.384544,-3.57,-4.865,9.1175,-7.432,22.896002,21.960001,concentric,4,7.0,97975.0,300298.0,180198.0,300545.0,189286.0
2026-04-14 18:18:09.479171,876139,1609508183008915,5782978367,0.470432,0.013664,0.384544,-6.195,-5.39,9.56375,-7.432,22.896002,21.960001,concentric,4,7.0,96752.0,303371.0,178704.0,302755.0,187708.0
2026-04-14 18:18:09.484552,876140,1609508183017880,5782987130,0.470432,0.013664,0.384544,-7.14,-5.95875,10.3775,-7.432,22.896002,21.960001,concentric,4,7.0,96752.0,303371.0,178704.0,302755.0,187708.0
2026-04-14 18:18:09.486523,876141,1609508183032386,5783002176,0.435296,-0.040992,0.181536,-7.55125,-6.1775,11.2875,-7.056,23.376001,19.36,concentric,4,7.0,96752.0,303371.0,178704.0,302755.0,187708.0
2026-04-14 18:18:09.489552,876142,1609508183041258,5783010866,0.472384,-0.017568,0.218624,-7.945,-5.90625,12.39,-7.152,23.272001,20.296001,concentric,4,7.0,96752.0,303371.0,178704.0,302755.0,187708.0
2026-04-14 18:18:09.492037,876143,1609508183055757,5783025747,0.472384,-0.017568,0.218624,-8.21625,-7.1575,13.1075,-7.152,23.272001,20.296001,concentric,4,7.0,96752.0,303371.0,178704.0,302755.0,187708.0
2026-04-14 18:18:09.494530,876144,1609508183064682,5783034454,0.554368,-0.037088,0.22448,-8.98625,-8.8375,12.3025,-7.088,23.240002,19.856,concentric,4,7.0,96752.0,303371.0,178704.0,302755.0,187708.0
2026-04-14 18:18:09.496953,876145,1609508183079182,5783049374,0.601216,-0.023424,0.384544,-10.8325,-10.1325,10.92,-7.088,23.240002,19.792002,concentric,4,7.0,96752.0,303371.0,178704.0,302755.0,187708.0
2026-04-14 18:18:09.499550,876146,1609508183088165,5783058074,0.607072,-0.023424,0.384544,-11.6725,-11.3925,9.52,-7.08,23.368002,19.792002,concentric,4,7.0,96752.0,303371.0,178704.0,302755.0,187708.0
2026-04-14 18:18:09.501901,876147,1609508183097235,5783066803,0.607072,-0.023424,0.384544,-11.2175,-11.90875,7.95375,-7.08,23.368002,19.792002,concentric,4,7.0,96752.0,303371.0,178704.0,302755.0,187708.0
2026-04-14 18:18:09.529510,876158,1609508183112051,5783082132,0.603168,-0.054656,0.482144,-13.3175,-11.8825,6.86875,-7.112001,23.264002,19.672,concentric,4,7.0,97457.0,306922.0,179588.0,305589.0,188564.0
2026-04-14 18:18:09.531691,876159,1609508183121257,5783090894,0.638304,-0.083936,0.327936,-15.49625,-10.29,7.55125,-7.088,23.864,18.616001,concentric,4,7.0,97457.0,306922.0,179588.0,305589.0,188564.0
2026-04-14 18:18:09.534512,876160,1609508183135790,5783105837,0.638304,-0.083936,0.327936,-15.3475,-6.7025,6.81625,-7.088,23.864,18.616001,concentric,4,7.0,97457.0,306922.0,179588.0,305589.0,188564.0
2026-04-14 18:18:09.536378,876161,1609508183144723,5783114743,0.650016,-0.062464,0.349408,-13.3175,-4.73375,5.04875,-6.904,23.856,20.632002,concentric,4,7.0,97457.0,306922.0,179588.0,305589.0,188564.0
2026-04-14 18:18:09.539431,876162,1609508183153719,5783123441,0.650016,-0.062464,0.349408,-7.98,-3.24625,3.52625,-6.904,23.856,20.632002,concentric,4,7.0,97457.0,306922.0,179588.0,305589.0,188564.0
2026-04-14 18:18:09.551766,876163,1609508183168243,5783138427,0.714432,-0.085888,0.35136,-4.27875,-2.9575,1.4175,-8.0,24.376001,20.288,concentric,4,7.0,97457.0,306922.0,179588.0,305589.0,188564.0
2026-04-14 18:18:09.562072,876164,1609508183177199,5783147181,0.714432,-0.085888,0.35136,-4.03375,-3.24625,0.20125,-8.0,24.376001,20.288,concentric,4,7.0,97457.0,306922.0,179588.0,305589.0,188564.0
2026-04-14 18:18:09.574626,876165,1609508183191708,5783160111,0.76128,-0.105408,0.44896,-5.215,-3.185,-0.875,-7.648,23.928001,19.44,concentric,4,7.0,97457.0,306922.0,179588.0,305589.0,188564.0
2026-04-14 18:18:09.585360,876166,1609508183201119,5783170880,0.75152,-0.113216,0.41968,-7.79625,-2.0475,-1.88125,-6.872,23.840002,17.632,concentric,4,7.0,97457.0,306922.0,179588.0,305589.0,188564.0
2026-04-14 18:18:09.616263,876177,1609508183210176,5783179683,0.75152,-0.113216,0.41968,-9.0125,0.8925,-1.51375,-6.872,23.840002,17.632,concentric,4,7.0,99031.0,310794.0,181267.0,308777.0,190153.0
2026-04-14 18:18:09.617669,876178,1609508183224785,5783194574,0.813984,-0.150304,0.456768,-8.26875,3.5875,-1.58375,-6.84,23.768002,19.488,concentric,4,7.0,99031.0,310794.0,181267.0,308777.0,190153.0
2026-04-14 18:18:09.621320,876179,1609508183233761,5783203310,0.813984,-0.150304,0.456768,-3.96375,3.92875,-1.7675,-6.84,23.768002,19.488,concentric,4,7.0,99031.0,310794.0,181267.0,308777.0,190153.0
2026-04-14 18:18:09.633222,876180,1609508183248266,5783218304,0.774944,-0.132736,0.388448,-0.2625,3.1325,-1.365,-6.8,24.04,19.704,concentric,4,7.0,99031.0,310794.0,181267.0,308777.0,190153.0
2026-04-14 18:18:09.640337,876181,1609508183257178,5783227060,0.774944,-0.132736,0.388448,0.02625,1.88125,-0.39375,-6.8,24.04,19.704,concentric,4,7.0,99031.0,310794.0,181267.0,308777.0,190153.0
2026-04-14 18:18:09.656889,876182,1609508183271715,5783241952,0.786656,-0.103456,0.398208,-0.56,1.09375,0.4025,-7.624001,23.904001,19.376001,concentric,4,7.0,99031.0,310794.0,181267.0,308777.0,190153.0
2026-04-14 18:18:09.664083,876183,1609508183280713,5783250634,0.794464,-0.113216,0.41968,-1.49625,1.645,0.23625,-7.624001,24.056002,19.6,concentric,4,7.0,99031.0,310794.0,181267.0,308777.0,190153.0
2026-04-14 18:18:09.674231,876184,1609508183289692,5783259347,0.794464,-0.113216,0.41968,-2.40625,2.12625,-0.3675,-8.280001,24.056002,19.6,concentric,4,7.0,99031.0,310794.0,181267.0,308777.0,190153.0
2026-04-14 18:18:09.687793,876185,1609508183304217,5783274246,0.815936,-0.12688,0.3904,-1.365,2.63375,-0.7875,-6.608,23.696001,19.36,concentric,4,7.0,99031.0,310794.0,181267.0,308777.0,190153.0
2026-04-14 18:18:09.717922,876196,1609508183313198,5783283034,0.815936,-0.12688,0.3904,1.19,2.5375,-1.12,-6.608,23.696001,19.36,concentric,4,7.0,102675.0,314597.0,185745.0,312022.0,194786.0
2026-04-14 18:18:09.720129,876197,1609508183327882,5783298080,0.808128,-0.11712,0.415776,2.4675,1.33875,-0.39375,-6.6,23.928001,19.960001,concentric,4,7.0,102675.0,314597.0,185745.0,312022.0,194786.0
2026-04-14 18:18:09.722972,876198,1609508183336815,5783306728,0.808128,-0.11712,0.415776,1.60125,0.63,1.14625,-6.6,23.928001,19.960001,concentric,4,7.0,102675.0,314597.0,185745.0,312022.0,194786.0
2026-04-14 18:18:09.729063,876199,1609508183345756,5783315493,0.85888,-0.121024,0.456768,-0.65625,0.4725,2.54625,-6.496,23.584002,20.76,concentric,4,7.0,102675.0,314597.0,185745.0,312022.0,194786.0
2026-04-14 18:18:09.744211,876200,1609508183360247,5783330374,0.85888,-0.121024,0.456768,-2.14375,0.4375,2.79125,-6.496,23.584002,20.76,concentric,4,7.0,102675.0,314597.0,185745.0,312022.0,194786.0
2026-04-14 18:18:09.751709,876201,1609508183369197,5783339047,0.821792,-0.115168,0.388448,-0.4375,0.385,3.01875,-6.456,23.568,19.168001,concentric,4,7.0,102675.0,314597.0,185745.0,312022.0,194786.0
2026-04-14 18:18:09.768033,876202,1609508183383743,5783353959,0.763232,-0.111264,0.363072,1.4875,-0.18375,2.47625,-6.784,23.528002,19.52,concentric,4,7.0,102675.0,314597.0,185745.0,312022.0,194786.0
2026-04-14 18:18:09.796639,876203,1609508183392848,5783362659,0.763232,-0.111264,0.363072,2.07375,-1.77625,2.205,-6.784,23.528002,19.52,concentric,4,7.0,102675.0,314597.0,185745.0,312022.0,194786.0
2026-04-14 18:18:09.856428,876214,1609508183407399,5783377759,0.817888,-0.101504,0.495808,0.4375,-2.6075,2.415,-6.440001,23.552002,19.672,concentric,4,7.0,105989.0,316864.0,189873.0,314016.0,198858.0
2026-04-14 18:18:09.858895,876215,1609508183416426,5783386529,0.817888,-0.101504,0.495808,-1.365,-2.3625,3.94625,-6.440001,23.552002,19.672,concentric,4,7.0,105989.0,316864.0,189873.0,314016.0,198858.0
2026-04-14 18:18:09.861375,876216,1609508183425478,5783395243,0.862784,-0.121024,0.476288,-3.01,-2.275,4.36625,-6.256001,23.968,19.84,concentric,4,7.0,105989.0,316864.0,189873.0,314016.0,198858.0
2026-04-14 18:18:09.864157,876217,1609508183439990,5783410145,0.862784,-0.121024,0.476288,-4.34,-2.835,4.025,-6.256001,23.968,19.84,concentric,4,7.0,105989.0,316864.0,189873.0,314016.0,198858.0
2026-04-14 18:18:09.866699,876218,1609508183448938,5783419072,0.813984,-0.113216,0.421632,-4.7075,-4.235,4.34,-6.4,23.736002,16.976002,concentric,4,7.0,105989.0,316864.0,189873.0,314016.0,198858.0
2026-04-14 18:18:09.869129,876219,1609508183463468,5783431922,0.856928,-0.134688,0.46848,-4.06875,-5.2675,4.76875,-6.376,23.568,19.656,concentric,4,7.0,105989.0,316864.0,189873.0,314016.0,198858.0
2026-04-14 18:18:09.871724,876220,1609508183472770,5783442713,0.856928,-0.134688,0.46848,-2.345,-6.43125,4.3925,-6.376,23.568,19.656,concentric,4,7.0,105989.0,316864.0,189873.0,314016.0,198858.0
2026-04-14 18:18:09.874400,876221,1609508183481774,5783451456,0.788608,-0.124928,0.359168,-1.89,-6.58875,3.84125,-6.376,23.568,18.160002,concentric,4,7.0,105989.0,316864.0,189873.0,314016.0,198858.0
2026-04-14 18:18:09.879570,876222,1609508183496518,5783466434,0.788608,-0.124928,0.359168,-3.29,-6.755,4.33125,-6.480001,23.872002,18.160002,concentric,4,7.0,105989.0,316864.0,189873.0,314016.0,198858.0
2026-04-14 18:18:09.889504,876223,1609508183505474,5783475141,0.763232,-0.10736,0.329888,-5.71375,-6.34375,4.99625,-6.432,23.736002,19.296001,concentric,4,7.0,105989.0,316864.0,189873.0,314016.0,198858.0
2026-04-14 18:18:09.922061,876234,1609508183520079,5783490141,0.763232,-0.10736,0.329888,-7.455,-6.5275,4.5325,-6.432,23.736002,19.296001,concentric,4,7.0,104156.0,316458.0,187681.0,313547.0,196633.0
2026-04-14 18:18:09.924555,876235,1609508183529110,5783498832,0.776896,-0.1464,0.376736,-8.68875,-6.55375,4.10375,-6.504,23.952002,21.856,concentric,4,7.0,104156.0,316458.0,187681.0,313547.0,196633.0
2026-04-14 18:18:09.927053,876236,1609508183538078,5783507536,0.776896,-0.1464,0.376736,-8.53125,-5.8625,4.01625,-6.504,23.952002,21.856,concentric,4,7.0,104156.0,316458.0,187681.0,313547.0,196633.0
2026-04-14 18:18:09.935295,876237,1609508183552716,5783522523,0.74176,-0.138592,0.404064,-7.42,-4.22625,3.885,-6.416,24.288002,19.824001,concentric,4,7.0,104156.0,316458.0,187681.0,313547.0,196633.0
2026-04-14 18:18:09.947048,876238,1609508183561777,5783531283,0.74176,-0.138592,0.404064,-5.94125,-3.2375,4.0425,-6.416,24.288002,19.824001,concentric,4,7.0,104156.0,316458.0,187681.0,313547.0,196633.0
2026-04-14 18:18:09.960813,876239,1609508183576294,5783546307,0.77104,-0.1464,0.398208,-5.7225,-1.8375,4.2875,-6.528,24.160002,21.456001,concentric,4,7.0,104156.0,316458.0,187681.0,313547.0,196633.0
2026-04-14 18:18:09.970810,876240,1609508183585254,5783554999,0.796416,-0.150304,0.460672,-5.53,-1.435,3.59625,-6.704001,23.976002,19.336,concentric,4,7.0,104156.0,316458.0,187681.0,313547.0,196633.0
2026-04-14 18:18:09.984336,876241,1609508183599764,5783569923,0.796416,-0.150304,0.460672,-4.8475,-1.085,2.52875,-6.704001,23.976002,19.336,concentric,4,7.0,104156.0,316458.0,187681.0,313547.0,196633.0
2026-04-14 18:18:10.043315,876252,1609508183609210,5783578875,0.74176,-0.144448,0.435296,-4.40125,-0.07875,1.11125,-6.192,24.288002,19.056002,concentric,4,7.0,100476.0,314667.0,183224.0,311893.0,192141.0
2026-04-14 18:18:10.045354,876253,1609508183618229,5783587698,0.74176,-0.144448,0.435296,-5.565,1.02375,-0.3675,-6.192,24.288002,19.056002,concentric,4,7.0,100476.0,314667.0,183224.0,311893.0,192141.0
2026-04-14 18:18:10.048298,876254,1609508183633003,5783602868,0.698816,-0.142496,0.427488,-4.43625,1.58375,-0.595,-6.576,24.256,19.2,concentric,4,7.0,100476.0,314667.0,183224.0,311893.0,192141.0
2026-04-14 18:18:10.050802,876255,1609508183642127,5783611561,0.698816,-0.142496,0.427488,-1.855,2.59875,-1.70625,-6.576,24.256,19.2,concentric,4,7.0,100476.0,314667.0,183224.0,311893.0,192141.0
2026-04-14 18:18:10.052964,876256,1609508183656711,5783626626,0.667584,-0.13664,0.337696,0.84875,2.94,-2.6775,-6.256001,23.848001,20.192001,concentric,4,7.0,100476.0,314667.0,183224.0,311893.0,192141.0
2026-04-14 18:18:10.055456,876257,1609508183665802,5783635325,0.65392,-0.13664,0.366976,3.14125,3.07125,-2.8,-6.208,23.808,19.304,concentric,4,7.0,100476.0,314667.0,183224.0,311893.0,192141.0
2026-04-14 18:18:10.058302,876258,1609508183674858,5783644114,0.65392,-0.13664,0.366976,3.85875,4.12125,-3.4475,-6.208,23.808,19.304,concentric,4,7.0,100476.0,314667.0,183224.0,311893.0,192141.0
2026-04-14 18:18:10.072820,876259,1609508183689336,5783659018,0.704672,-0.154208,0.33184,3.7275,4.9525,-3.675,-6.048,24.112001,19.176,concentric,4,7.0,100476.0,314667.0,183224.0,311893.0,192141.0
2026-04-14 18:18:10.081397,876260,1609508183698247,5783667681,0.704672,-0.154208,0.33184,4.38375,5.5825,-3.59625,-6.048,24.112001,19.176,concentric,4,7.0,100476.0,314667.0,183224.0,311893.0,192141.0
2026-04-14 18:18:10.119176,876271,1609508183712877,5783682590,0.700768,-0.148352,0.294752,4.725,5.39,-4.50625,-6.384,23.552002,19.232,concentric,4,7.0,100184.0,313058.0,183114.0,310691.0,191996.0
2026-04-14 18:18:10.121566,876272,1609508183722059,5783691417,0.700768,-0.148352,0.294752,6.64125,4.69,-5.64375,-6.384,23.552002,19.232,concentric,4,7.0,100184.0,313058.0,183114.0,310691.0,191996.0
2026-04-14 18:18:10.124532,876273,1609508183731032,5783700181,0.593408,-0.128832,0.271328,7.35,4.445,-6.72,-7.336,23.864,19.880001,concentric,4,7.0,100184.0,313058.0,183114.0,310691.0,191996.0
2026-04-14 18:18:10.129194,876274,1609508183745592,5783715215,0.665632,-0.0976,0.437248,10.22875,5.06625,-7.3675,-7.256001,23.848001,20.552,concentric,4,7.0,100184.0,313058.0,183114.0,310691.0,191996.0
2026-04-14 18:18:10.160806,876275,1609508183754541,5783723923,0.665632,-0.0976,0.437248,13.2125,6.09,-8.21625,-7.256001,23.848001,20.552,concentric,4,7.0,100184.0,313058.0,183114.0,310691.0,191996.0
2026-04-14 18:18:10.165079,876276,1609508183769053,5783738794,0.648064,-0.124928,0.286944,13.448751,5.88875,-9.89625,-7.008,23.464,20.52,concentric,4,7.0,100184.0,313058.0,183114.0,310691.0,191996.0
2026-04-14 18:18:10.165599,876277,1609508183777975,5783747494,0.648064,-0.124928,0.286944,11.7075,4.78625,-10.98125,-7.008,23.464,20.52,concentric,4,7.0,100184.0,313058.0,183114.0,310691.0,191996.0
2026-04-14 18:18:10.187760,876278,1609508183792610,5783762384,0.603168,-0.064416,0.435296,10.7625,4.3925,-11.9,-7.064,23.68,20.624,concentric,4,7.0,100184.0,313058.0,183114.0,310691.0,191996.0
2026-04-14 18:18:10.190167,876279,1609508183801601,5783771077,0.603168,-0.064416,0.435296,11.305,4.8825,-13.877501,-7.064,23.68,20.624,concentric,4,7.0,100184.0,313058.0,183114.0,310691.0,191996.0
2026-04-14 18:18:10.222812,876290,1609508183810632,5783780112,0.5368,-0.05856,0.368928,11.935,6.15125,-16.1175,-7.392,23.024,20.752,concentric,4,7.0,96452.0,305590.0,178640.0,304561.0,187444.0
2026-04-14 18:18:10.225489,876291,1609508183825429,5783795027,0.599264,-0.070272,0.402112,13.67625,7.21,-17.605,-7.568,23.392,20.288,concentric,4,7.0,96452.0,305590.0,178640.0,304561.0,187444.0
2026-04-14 18:18:10.228018,876292,1609508183834489,5783803825,0.599264,-0.070272,0.402112,16.42375,8.40875,-18.97875,-7.568,23.392,20.288,concentric,4,7.0,96452.0,305590.0,178640.0,304561.0,187444.0
2026-04-14 18:18:10.234264,876293,1609508183848981,5783818757,0.599264,-0.070272,0.31232,17.78875,9.065,-20.8775,-8.008,23.472002,22.408,concentric,4,7.0,96452.0,305590.0,178640.0,304561.0,187444.0
2026-04-14 18:18:10.241771,876294,1609508183857949,5783827486,0.599264,-0.070272,0.31232,18.27875,8.715,-21.525,-8.008,23.472002,22.408,concentric,4,7.0,96452.0,305590.0,178640.0,304561.0,187444.0
2026-04-14 18:18:10.251789,876295,1609508183866889,5783836201,0.618784,-0.080032,0.320128,17.8325,8.155,-21.34125,-7.704001,22.912,20.192001,concentric,4,7.0,96452.0,305590.0,178640.0,304561.0,187444.0
2026-04-14 18:18:10.264481,876296,1609508183881415,5783851233,0.618784,-0.080032,0.320128,13.4925,9.05625,-22.84625,-7.704001,22.912,20.192001,concentric,4,7.0,96452.0,305590.0,178640.0,304561.0,187444.0
2026-04-14 18:18:10.274124,876297,1609508183890344,5783859948,0.579744,-0.06832,0.347456,9.68625,10.07125,-23.73,-7.232,22.352001,21.000002,concentric,4,7.0,96452.0,305590.0,178640.0,304561.0,187444.0
2026-04-14 18:18:10.290461,876298,1609508183904940,5783874894,0.620736,-0.11712,0.261568,10.71875,11.90875,-23.96625,-7.136,22.168001,21.048,concentric,4,7.0,96452.0,305590.0,178640.0,304561.0,187444.0
2026-04-14 18:18:10.322934,876309,1609508183914165,5783883623,0.620736,-0.11712,0.261568,13.895,12.80125,-24.605,-7.136,22.168001,21.048,concentric,4,7.0,95713.0,296921.0,177714.0,297832.0,186878.0
2026-04-14 18:18:10.325495,876310,1609508183923189,5783892427,0.620736,-0.11712,0.261568,16.03875,12.90625,-23.84375,-7.136,22.168001,21.048,concentric,4,7.0,95713.0,296921.0,177714.0,297832.0,186878.0
2026-04-14 18:18:10.327992,876311,1609508183937806,5783907345,0.532896,-0.03904,0.265472,15.925,12.6875,-23.02125,-8.280001,22.216002,21.688002,concentric,4,7.0,95713.0,296921.0,177714.0,297832.0,186878.0
2026-04-14 18:18:10.330543,876312,1609508183946781,5783916025,0.646112,-0.042944,0.443104,13.04625,12.71375,-22.645,-8.576,22.432001,22.112001,concentric,4,7.0,95713.0,296921.0,177714.0,297832.0,186878.0
2026-04-14 18:18:10.344291,876313,1609508183961273,5783930996,0.646112,-0.042944,0.443104,8.2425,13.22125,-23.8175,-8.576,22.432001,22.112001,concentric,4,7.0,95713.0,296921.0,177714.0,297832.0,186878.0
2026-04-14 18:18:10.352853,876314,1609508183970204,5783939689,0.648064,-0.05856,0.495808,7.91,14.3325,-23.6075,-8.64,21.984001,21.568,concentric,4,7.0,95713.0,296921.0,177714.0,297832.0,186878.0
2026-04-14 18:18:10.369108,876315,1609508183984723,5783954610,0.648064,-0.070272,0.247904,9.9925,15.37375,-23.6775,-8.64,21.984001,23.616001,concentric,4,7.0,95713.0,296921.0,177714.0,297832.0,186878.0
2026-04-14 18:18:10.376616,876316,1609508183993686,5783963308,0.616832,-0.070272,0.247904,12.80125,16.4325,-23.35375,-7.8,21.52,23.856,concentric,4,7.0,95713.0,296921.0,177714.0,297832.0,186878.0
2026-04-14 18:18:10.386521,876317,1609508184002625,5783972001,0.616832,-0.070272,0.247904,13.16875,16.1175,-22.75,-7.8,21.52,23.856,concentric,4,7.0,95713.0,296921.0,177714.0,297832.0,186878.0
2026-04-14 18:18:10.420814,876328,1609508184017253,5783987335,0.581696,0.017568,0.45872,9.7825,15.30375,-22.56625,-8.016001,21.624,20.456001,concentric,4,7.0,110818.0,304669.0,196257.0,304978.0,205957.0
2026-04-14 18:18:10.423328,876329,1609508184026221,5783996072,0.597312,0.017568,0.495808,7.5775,15.085,-22.19875,-8.256001,21.504002,23.032001,concentric,4,7.0,110818.0,304669.0,196257.0,304978.0,205957.0
2026-04-14 18:18:10.425333,876330,1609508184040782,5784011034,0.597312,0.017568,0.495808,5.57375,15.26875,-22.3475,-8.256001,21.504002,23.032001,concentric,4,7.0,110818.0,304669.0,196257.0,304978.0,205957.0
2026-04-14 18:18:10.434587,876331,1609508184049767,5784019727,0.581696,-0.007808,0.308416,6.20375,15.18125,-20.86,-8.232,21.448002,21.880001,concentric,4,7.0,110818.0,304669.0,196257.0,304978.0,205957.0
2026-04-14 18:18:10.445204,876332,1609508184058782,5784028446,0.581696,-0.007808,0.308416,4.40125,15.225,-19.2675,-8.232,21.448002,21.880001,concentric,4,7.0,110818.0,304669.0,196257.0,304978.0,205957.0
2026-04-14 18:18:10.457762,876333,1609508184073303,5784043401,0.6832,0.05856,0.406016,2.765,13.74625,-17.815,-8.8,21.704,21.744001,concentric,4,7.0,110818.0,304669.0,196257.0,304978.0,205957.0
2026-04-14 18:18:10.465331,876334,1609508184082423,5784052101,0.6832,0.05856,0.406016,1.46125,11.54125,-18.22625,-8.8,21.704,21.744001,concentric,4,7.0,110818.0,304669.0,196257.0,304978.0,205957.0
2026-04-14 18:18:10.480824,876335,1609508184097089,5784066987,0.671488,0.033184,0.3904,-1.3125,9.84375,-21.14875,-8.528001,21.328001,21.784,concentric,4,7.0,110818.0,304669.0,196257.0,304978.0,205957.0
2026-04-14 18:18:10.492051,876336,1609508184106099,5784075673,0.724192,0.005856,0.525088,-3.5875,7.8575,-24.08,-8.776,21.920002,21.560001,concentric,4,7.0,110818.0,304669.0,196257.0,304978.0,205957.0
2026-04-14 18:18:10.569042,876347,1609508184120631,5784090829,0.724192,0.005856,0.525088,-1.9425,7.3675,-23.93125,-8.776,21.920002,21.560001,concentric,4,7.0,131216.0,320279.0,220676.0,318136.0,230084.0
2026-04-14 18:18:10.572030,876348,1609508184129585,5784099529,0.772992,0.025376,0.568032,1.6275,7.28,-22.82,-9.536,21.832,22.992,concentric,4,7.0,131216.0,320279.0,220676.0,318136.0,230084.0
2026-04-14 18:18:10.574516,876349,1609508184138509,5784108193,0.772992,0.025376,0.568032,2.4325,7.595,-20.01125,-9.536,21.832,22.992,concentric,4,7.0,131216.0,320279.0,220676.0,318136.0,230084.0
2026-04-14 18:18:10.577044,876350,1609508184153061,5784123145,0.708576,0.066368,0.335744,0.34125,7.53375,-17.3425,-9.704,21.960001,22.016,concentric,4,7.0,131216.0,320279.0,220676.0,318136.0,230084.0
2026-04-14 18:18:10.579522,876351,1609508184162034,5784131829,0.708576,0.066368,0.335744,-3.17625,7.25375,-17.36,-9.704,21.960001,22.016,concentric,4,7.0,131216.0,320279.0,220676.0,318136.0,230084.0
2026-04-14 18:18:10.582101,876352,1609508184176675,5784146753,0.739808,0.062464,0.597312,-6.92125,5.92375,-17.56125,-10.008,21.976002,22.800001,concentric,4,7.0,131216.0,320279.0,220676.0,318136.0,230084.0
2026-04-14 18:18:10.584542,876353,1609508184185795,5784155468,0.739808,0.062464,0.528992,-8.1025,5.0225,-18.147501,-10.008,21.976002,22.800001,concentric,4,7.0,131216.0,320279.0,220676.0,318136.0,230084.0
2026-04-14 18:18:10.587065,876354,1609508184194886,5784164163,0.691008,0.01952,0.528992,-5.3025,5.285,-16.9575,-10.288,21.776001,21.712002,concentric,4,7.0,131216.0,320279.0,220676.0,318136.0,230084.0
2026-04-14 18:18:10.593292,876355,1609508184209449,5784179124,0.733952,0.050752,0.562176,-1.35625,6.25625,-14.14,-9.472,21.960001,22.208,concentric,4,7.0,131216.0,320279.0,220676.0,318136.0,230084.0
2026-04-14 18:18:10.620191,876366,1609508184218381,5784187874,0.733952,0.050752,0.562176,2.54625,7.665,-12.97625,-9.472,21.960001,22.208,concentric,4,7.0,131584.0,321819.0,220581.0,319418.0,229829.0
2026-04-14 18:18:10.623305,876367,1609508184233066,5784203042,0.732,0.148352,0.5368,5.3025,9.1,-13.965,-10.240001,21.808,24.024002,concentric,4,7.0,131584.0,321819.0,220581.0,319418.0,229829.0
2026-04-14 18:18:10.627082,876368,1609508184242045,5784211769,0.732,0.148352,0.5368,7.56,10.08875,-16.695,-10.240001,21.808,24.024002,concentric,4,7.0,131584.0,321819.0,220581.0,319418.0,229829.0
2026-04-14 18:18:10.643068,876369,1609508184256576,5784226813,0.7808,0.07808,0.511424,4.97875,9.93125,-18.76875,-10.68,22.240002,24.192001,concentric,4,7.0,131584.0,321819.0,220581.0,319418.0,229829.0
2026-04-14 18:18:10.674392,876370,1609508184265524,5784235508,0.7808,0.07808,0.511424,-0.6125,7.735,-17.745,-10.68,22.240002,24.192001,concentric,4,7.0,131584.0,321819.0,220581.0,319418.0,229829.0
2026-04-14 18:18:10.676402,876371,1609508184274472,5784244196,0.745664,0.093696,0.579744,-4.22625,7.49875,-13.85125,-9.904,22.000002,21.272001,concentric,4,7.0,131584.0,321819.0,220581.0,319418.0,229829.0
2026-04-14 18:18:10.678983,876372,1609508184288986,5784259106,0.81008,0.130784,0.685152,-2.47625,8.47875,-10.2025,-9.88,21.640001,22.304,concentric,4,7.0,131584.0,321819.0,220581.0,319418.0,229829.0
2026-04-14 18:18:10.683287,876373,1609508184297950,5784267797,0.81008,0.130784,0.685152,1.61,8.18125,-8.7675,-9.88,21.640001,22.304,concentric,4,7.0,131584.0,321819.0,220581.0,319418.0,229829.0
2026-04-14 18:18:10.719967,876384,1609508184313052,5784283002,0.874496,0.140544,0.622688,4.935,7.39375,-9.0125,-10.92,22.208,23.336,concentric,4,7.0,116564.0,304502.0,202315.0,305246.0,212048.0
2026-04-14 18:18:10.721392,876385,1609508184322114,5784291755,0.874496,0.140544,0.622688,4.8475,5.48625,-11.12125,-10.92,22.208,23.336,concentric,4,7.0,116564.0,304502.0,202315.0,305246.0,212048.0
2026-04-14 18:18:10.723902,876386,1609508184331038,5784300511,0.84912,0.124928,0.597312,2.54625,3.43,-12.52125,-10.080001,21.928001,22.904001,concentric,4,7.0,116564.0,304502.0,202315.0,305246.0,212048.0
2026-04-14 18:18:10.729976,876387,1609508184345661,5784315428,0.84912,0.124928,0.597312,-1.53125,1.9425,-11.935,-10.080001,21.928001,22.904001,concentric,4,7.0,116564.0,304502.0,202315.0,305246.0,212048.0
