pc_time,serial_num,sensor_ts,host_ts,ax,ay,az,gx,gy,gz,mx,my,mz,phase,rpe,weight_kg,ppg_a,ppg_b,ppg_c,ppg_d,ppg_e
2026-04-14 17:18:51.820788,207379,1609504625550250,2225520339,-1.221952,-0.134688,-0.124928,-0.07875,17.78,-53.87375,20.304,25.136002,10.072001,eccentric,2,3.0,111073.0,295422.0,184767.0,279649.0,199093.0
2026-04-14 17:18:51.834582,207380,1609504625564759,2225533167,-1.145824,-0.1464,-0.005856,-0.81375,18.803751,-55.09,18.944,25.768002,11.52,eccentric,2,3.0,111073.0,295422.0,184767.0,279649.0,199093.0
2026-04-14 17:18:51.864469,207391,1609504625574103,2225543970,-1.145824,-0.1464,-0.005856,6.895,18.97,-53.025,18.944,25.768002,11.52,eccentric,2,3.0,111140.0,295746.0,184522.0,280044.0,198946.0
2026-04-14 17:18:51.866841,207392,1609504625583190,2225552688,-1.095072,-0.193248,-0.066368,10.85875,18.55875,-52.29,18.176,26.04,11.672001,eccentric,2,3.0,111140.0,295746.0,184522.0,280044.0,198946.0
2026-04-14 17:18:51.869277,207393,1609504625597693,2225567596,-1.095072,-0.193248,-0.050752,7.18375,17.4125,-51.607502,18.176,26.04,11.672001,eccentric,2,3.0,111140.0,295746.0,184522.0,280044.0,198946.0
2026-04-14 17:18:51.876852,207394,1609504625606602,2225576315,-1.108736,-0.056608,-0.062464,7.9275,14.79625,-49.55125,17.512001,26.528002,11.864,eccentric,2,3.0,111140.0,295746.0,184522.0,280044.0,198946.0
2026-04-14 17:18:51.892095,207395,1609504625621010,2225591183,-1.206336,-0.148352,-0.044896,10.2725,13.06375,-50.89,17.488,26.504002,10.696,eccentric,2,3.0,111140.0,295746.0,184522.0,280044.0,198946.0
2026-04-14 17:18:51.903162,207396,1609504625629932,2225599887,-1.206336,-0.148352,-0.044896,5.06625,11.4625,-53.6375,17.488,26.504002,10.696,eccentric,2,3.0,111140.0,295746.0,184522.0,280044.0,198946.0
2026-04-14 17:18:51.909649,207397,1609504625638831,2225608597,-1.097024,-0.255712,-0.18544,2.93125,11.795,-53.978752,17.376001,26.640001,9.176001,eccentric,2,3.0,111140.0,295746.0,184522.0,280044.0,198946.0
2026-04-14 17:18:51.927072,207398,1609504625653356,2225623538,-1.097024,-0.255712,-0.18544,9.26625,12.6875,-53.50625,17.376001,26.640001,9.176001,eccentric,2,3.0,111140.0,295746.0,184522.0,280044.0,198946.0
2026-04-14 17:18:51.934485,207399,1609504625662298,2225632233,-1.192672,-0.119072,-0.076128,13.1425,13.81625,-50.3825,16.240002,27.296001,12.248,eccentric,2,3.0,111140.0,295746.0,184522.0,280044.0,198946.0
2026-04-14 17:18:51.965826,207410,1609504625676865,2225645641,-1.192672,-0.119072,-0.076128,11.4625,15.89875,-47.39875,16.240002,27.296001,12.248,eccentric,2,3.0,111977.0,297371.0,185101.0,281444.0,199773.0
2026-04-14 17:18:51.968334,207411,1609504625686333,2225656393,-1.120448,-0.173728,-0.179584,5.3375,18.147501,-47.95,16.024,27.128002,11.032001,eccentric,2,3.0,111977.0,297371.0,185101.0,281444.0,199773.0
2026-04-14 17:18:51.970685,207412,1609504625700872,2225669289,-1.165344,-0.240096,-0.187392,1.4875,19.678751,-48.57125,15.024001,27.704,11.104,eccentric,2,3.0,111977.0,297371.0,185101.0,281444.0,199773.0
2026-04-14 17:18:52.018572,207413,1609504625710082,2225680079,-1.165344,-0.240096,-0.187392,-0.56,19.67,-48.81625,15.024001,27.704,11.104,eccentric,2,3.0,111977.0,297371.0,185101.0,281444.0,199773.0
2026-04-14 17:18:52.020567,207414,1609504625718982,2225688741,-1.040416,-0.216672,-0.167872,4.0075,17.33375,-46.76,15.024001,27.704,10.488001,eccentric,2,3.0,111977.0,297371.0,185101.0,281444.0,199773.0
2026-04-14 17:18:52.024613,207415,1609504625733448,2225703599,-1.040416,-0.216672,-0.167872,11.15625,16.10875,-44.170002,14.808001,28.080002,10.488001,eccentric,2,3.0,111977.0,297371.0,185101.0,281444.0,199773.0
2026-04-14 17:18:52.025789,207416,1609504625742393,2225712339,-1.057984,-0.183488,-0.187392,13.09875,13.2825,-43.05875,14.272,27.792002,11.448001,eccentric,2,3.0,111977.0,297371.0,185101.0,281444.0,199773.0
2026-04-14 17:18:52.028077,207417,1609504625756862,2225725218,-1.057984,-0.183488,-0.187392,11.22625,11.3575,-43.4175,14.272,27.792002,11.448001,eccentric,2,3.0,111977.0,297371.0,185101.0,281444.0,199773.0
2026-04-14 17:18:52.036944,207418,1609504625766108,2225735959,-1.0248,-0.290848,-0.18544,1.015,10.465,-44.826252,14.072001,28.608002,9.784,eccentric,2,3.0,111977.0,297371.0,185101.0,281444.0,199773.0
2026-04-14 17:18:52.065704,207429,1609504625775593,2225744681,-1.0248,-0.290848,-0.18544,0.1225,10.22,-43.6275,14.072001,28.608002,9.784,eccentric,2,3.0,109839.0,304320.0,180523.0,287100.0,196527.0
2026-04-14 17:18:52.068266,207430,1609504625790155,2225759607,-0.98576,-0.216672,-0.066368,10.675,12.17125,-40.50375,12.688001,28.256,12.304001,eccentric,2,3.0,109839.0,304320.0,180523.0,287100.0,196527.0
2026-04-14 17:18:52.071139,207431,1609504625799074,2225768311,-0.98576,-0.216672,0.05856,9.70375,11.76,-41.8775,12.688001,28.256,12.304001,eccentric,2,3.0,109839.0,304320.0,180523.0,287100.0,196527.0
2026-04-14 17:18:52.084545,207432,1609504625813793,2225783199,-0.997472,-0.197152,0.05856,7.035,10.85,-38.05375,12.368001,28.624,13.448001,eccentric,2,3.0,109839.0,304320.0,180523.0,287100.0,196527.0
2026-04-14 17:18:52.091968,207433,1609504625822725,2225791950,-0.962336,-0.236192,-0.099552,6.37,12.285,-37.16125,12.704,28.632002,11.512,eccentric,2,3.0,109839.0,304320.0,180523.0,287100.0,196527.0
2026-04-14 17:18:52.100669,207434,1609504625831661,2225800624,-0.962336,-0.236192,-0.099552,0.945,11.865,-38.71875,12.704,28.632002,11.512,eccentric,2,3.0,109839.0,304320.0,180523.0,287100.0,196527.0
2026-04-14 17:18:52.115763,207435,1609504625846147,2225815523,-0.8784,-0.245952,0.011712,0.7,10.675,-36.54,12.648001,28.664001,11.328,eccentric,2,3.0,109839.0,304320.0,180523.0,287100.0,196527.0
2026-04-14 17:18:52.126080,207436,1609504625855099,2225824205,-0.8784,-0.245952,0.011712,3.5,11.45375,-36.5925,12.648001,28.664001,11.328,eccentric,2,3.0,109839.0,304320.0,180523.0,287100.0,196527.0
2026-04-14 17:18:52.140635,207437,1609504625869571,2225839087,-0.895968,-0.208864,0.0488,1.8025,14.00875,-35.97125,11.736001,29.216002,12.024,eccentric,2,3.0,109839.0,304320.0,180523.0,287100.0,196527.0
2026-04-14 17:18:52.168556,207448,1609504625878502,2225847776,-0.895968,-0.208864,0.0488,4.655,18.2875,-33.92375,11.736001,29.216002,12.024,eccentric,2,3.0,100863.0,311888.0,167817.0,293125.0,184817.0
2026-04-14 17:18:52.171132,207449,1609504625893057,2225862806,-0.813984,-0.298656,-0.132736,2.49375,20.51,-35.79625,10.008,29.36,13.288001,eccentric,2,3.0,100863.0,311888.0,167817.0,293125.0,184817.0
2026-04-14 17:18:52.173665,207450,1609504625902049,2225871518,-0.687104,-0.306464,-0.091744,-0.84875,20.1425,-32.33125,10.176001,29.568,10.592001,eccentric,2,3.0,100863.0,311888.0,167817.0,293125.0,184817.0
2026-04-14 17:18:52.181131,207451,1609504625910958,2225880237,-0.687104,-0.306464,-0.091744,0.455,22.015,-31.10625,10.176001,29.568,10.592001,eccentric,2,3.0,100863.0,311888.0,167817.0,293125.0,184817.0
2026-04-14 17:18:52.197421,207452,1609504625925470,2225895102,-0.669536,-0.279136,-0.021472,-6.48375,22.4175,-29.3475,11.64,28.936,10.88,eccentric,2,3.0,100863.0,311888.0,167817.0,293125.0,184817.0
2026-04-14 17:18:52.203637,207453,1609504625934409,2225903816,-0.669536,-0.279136,-0.021472,-9.03,22.4525,-29.42625,11.64,28.936,10.88,eccentric,2,3.0,100863.0,311888.0,167817.0,293125.0,184817.0
2026-04-14 17:18:52.219794,207454,1609504625948880,2225918688,-0.720288,-0.150304,-0.054656,-5.1975,19.6875,-30.161251,10.488001,29.264002,11.816001,eccentric,2,3.0,100863.0,311888.0,167817.0,293125.0,184817.0
2026-04-14 17:18:52.248669,207455,1609504625957812,2225927360,-0.720288,-0.150304,-0.054656,2.56375,19.66125,-31.2025,10.488001,29.264002,11.816001,eccentric,2,3.0,100863.0,311888.0,167817.0,293125.0,184817.0
2026-04-14 17:18:52.283692,207466,1609504625972669,2225942176,-0.577792,-0.466528,-0.169824,-2.695,21.55125,-33.57375,10.960001,29.592001,11.176001,eccentric,2,3.0,94004.0,314611.0,159362.0,295148.0,176016.0
2026-04-14 17:18:52.286201,207467,1609504625981615,2225950902,-0.638304,-0.158112,-0.154208,-4.41,21.8925,-29.1025,10.112,29.504002,12.704,eccentric,2,3.0,94004.0,314611.0,159362.0,295148.0,176016.0
2026-04-14 17:18:52.288129,207468,1609504625990598,2225959693,-0.638304,-0.158112,-0.154208,2.6775,20.7375,-26.04,10.112,29.504002,12.704,eccentric,2,3.0,94004.0,314611.0,159362.0,295148.0,176016.0
2026-04-14 17:18:52.290592,207469,1609504626005154,2225974564,-0.589504,-0.288896,-0.343552,2.66,18.34,-27.78125,9.664001,29.272001,10.744,eccentric,2,3.0,94004.0,314611.0,159362.0,295148.0,176016.0
2026-04-14 17:18:52.293650,207470,1609504626014109,2225983280,-0.589504,-0.288896,-0.343552,-2.0825,12.46,-31.66625,9.664001,29.272001,10.744,eccentric,2,3.0,94004.0,314611.0,159362.0,295148.0,176016.0
2026-04-14 17:18:52.298238,207471,1609504626028637,2225998250,-0.433344,-0.433344,0.0488,2.59,7.86625,-32.01625,10.360001,29.168001,10.704,eccentric,2,3.0,94004.0,314611.0,159362.0,295148.0,176016.0
2026-04-14 17:18:52.309131,207472,1609504626037548,2226006927,-0.433344,-0.433344,0.0488,1.715,6.3,-29.435,10.360001,29.168001,10.704,eccentric,2,3.0,94004.0,314611.0,159362.0,295148.0,176016.0
2026-04-14 17:18:52.317864,207473,1609504626046501,2226015592,-0.528992,-0.271328,-0.162016,-1.88125,4.375,-24.5175,9.744,29.136002,11.512,eccentric,2,3.0,94004.0,314611.0,159362.0,295148.0,176016.0
2026-04-14 17:18:52.333561,207474,1609504626061047,2226030469,-0.482144,-0.339648,-0.11712,3.35125,3.7625,-22.9775,9.744,29.136002,11.512,eccentric,2,3.0,94004.0,314611.0,159362.0,295148.0,176016.0
2026-04-14 17:18:52.340648,207475,1609504626069926,2226039124,-0.480192,-0.339648,-0.11712,1.35625,5.6175,-24.3075,9.552,29.928001,11.76,eccentric,2,3.0,94004.0,314611.0,159362.0,295148.0,176016.0
2026-04-14 17:18:52.433527,207486,1609504626084511,2226054110,-0.562176,-0.42944,-0.232288,-3.185,6.90375,-25.78625,9.928,29.552002,10.888001,eccentric,2,3.0,95016.0,314273.0,161604.0,295167.0,177828.0
2026-04-14 17:18:52.435554,207487,1609504626093467,2226062780,-0.562176,-0.42944,-0.232288,-1.70625,8.085,-23.40625,9.928,29.552002,10.888001,eccentric,2,3.0,95016.0,314273.0,161604.0,295167.0,177828.0
2026-04-14 17:18:52.438611,207488,1609504626108106,2226077707,-0.651968,-0.306464,-0.132736,-0.98,8.75,-19.1975,9.832001,30.12,10.552,eccentric,2,3.0,95016.0,314273.0,161604.0,295167.0,177828.0
2026-04-14 17:18:52.441107,207489,1609504626116994,2226086378,-0.651968,-0.306464,-0.132736,-0.9625,8.0325,-15.82,9.832001,30.12,10.552,eccentric,2,3.0,95016.0,314273.0,161604.0,295167.0,177828.0
2026-04-14 17:18:52.443585,207490,1609504626125914,2226095040,-0.607072,-0.308416,-0.05856,-3.63125,4.75125,-14.55125,9.976001,29.912,10.864,eccentric,2,3.0,95016.0,314273.0,161604.0,295167.0,177828.0
2026-04-14 17:18:52.446082,207491,1609504626140393,2226109951,-0.607072,-0.308416,-0.05856,-2.77375,0.48125,-12.03125,9.976001,29.912,10.864,eccentric,2,3.0,95016.0,314273.0,161604.0,295167.0,177828.0
2026-04-14 17:18:52.453181,207492,1609504626149296,2226118645,-0.655872,-0.35136,-0.122976,-2.1875,-2.0125,-10.08875,9.928,29.752,13.304001,eccentric,2,3.0,95016.0,314273.0,161604.0,295167.0,177828.0
2026-04-14 17:18:52.455758,207493,1609504626163876,2226133562,-0.69296,-0.35136,-0.02928,-4.54125,-1.21625,-5.90625,9.536,30.136002,11.848001,eccentric,2,3.0,95016.0,314273.0,161604.0,295167.0,177828.0
2026-04-14 17:18:52.483662,207504,1609504626172877,2226142170,-0.69296,-0.35136,-0.02928,-10.07125,2.1175,-3.29,9.536,30.136002,11.848001,eccentric,2,3.0,98697.0,312377.0,166635.0,293440.0,182780.0
2026-04-14 17:18:52.485586,207505,1609504626182192,2226150979,-0.765184,-0.30256,-0.105408,-10.45625,4.82125,-0.35,9.536,29.816002,11.84,eccentric,2,3.0,98697.0,312377.0,166635.0,293440.0,182780.0
2026-04-14 17:18:52.488598,207506,1609504626197323,2226165960,-0.765184,-0.30256,-0.105408,-9.3275,5.27625,3.54375,9.064,29.816002,11.84,eccentric,2,3.0,98697.0,312377.0,166635.0,293440.0,182780.0
2026-04-14 17:18:52.491087,207507,1609504626206669,2226176742,-0.825696,-0.327936,-0.275232,-8.91625,3.0975,8.8025,9.256001,30.400002,11.864,eccentric,2,3.0,98697.0,312377.0,166635.0,293440.0,182780.0
2026-04-14 17:18:52.493621,207508,1609504626221180,2226189570,-0.825696,-0.327936,-0.275232,-9.073751,-0.11375,11.75125,9.256001,30.400002,11.864,eccentric,2,3.0,98697.0,312377.0,166635.0,293440.0,182780.0
2026-04-14 17:18:52.504199,207509,1609504626230463,2226200362,-0.817888,-0.300608,-0.279136,-11.34,-2.14375,15.56625,9.672001,30.032001,11.408001,eccentric,2,3.0,98697.0,312377.0,166635.0,293440.0,182780.0
2026-04-14 17:18:52.512186,207510,1609504626239374,2226209046,-0.817888,-0.300608,-0.279136,-14.70875,-4.15625,19.95,9.672001,30.032001,11.408001,eccentric,2,3.0,98697.0,312377.0,166635.0,293440.0,182780.0
2026-04-14 17:18:52.524890,207511,1609504626253847,2226223917,-0.870592,-0.339648,-0.245952,-14.74375,-4.80375,22.12875,10.632001,29.984001,11.184001,eccentric,2,3.0,98697.0,312377.0,166635.0,293440.0,182780.0
2026-04-14 17:18:52.535702,207512,1609504626262803,2226232591,-0.872544,-0.261568,-0.359168,-15.93375,-5.45125,22.44375,11.032001,30.064001,10.64,eccentric,2,3.0,98697.0,312377.0,166635.0,293440.0,182780.0
2026-04-14 17:18:52.571153,207523,1609504626277803,2226247565,-0.872544,-0.261568,-0.359168,-10.22,-9.30125,25.10375,11.032001,30.064001,10.64,eccentric,2,3.0,102544.0,311777.0,171505.0,292878.0,187560.0
2026-04-14 17:18:52.573659,207524,1609504626286796,2226256278,-0.94672,-0.376736,-0.286944,-4.50625,-13.8075,26.69625,9.664001,30.432001,12.136001,eccentric,2,3.0,102544.0,311777.0,171505.0,292878.0,187560.0
2026-04-14 17:18:52.576104,207525,1609504626295760,2226264995,-0.94672,-0.376736,-0.286944,-7.945,-18.01625,31.68375,9.664001,30.432001,12.136001,eccentric,2,3.0,102544.0,311777.0,171505.0,292878.0,187560.0
2026-04-14 17:18:52.581154,207526,1609504626310274,2226279877,-0.948672,-0.179584,-0.074176,-5.38125,-21.91875,38.77125,10.672001,30.128002,9.84,eccentric,2,3.0,102544.0,311777.0,171505.0,292878.0,187560.0
2026-04-14 17:18:52.588197,207527,1609504626319271,2226288626,-0.948672,-0.179584,-0.074176,-2.37125,-21.65625,41.9475,10.672001,30.128002,9.84,eccentric,2,3.0,102544.0,311777.0,171505.0,292878.0,187560.0
2026-04-14 17:18:52.604786,207528,1609504626333805,2226303528,-0.970144,-0.345504,-0.279136,-9.96625,-19.85375,43.7675,12.232,29.720001,10.544001,eccentric,2,3.0,102544.0,311777.0,171505.0,292878.0,187560.0
2026-04-14 17:18:52.613471,207529,1609504626342744,2226312204,-0.970144,-0.333792,-0.163968,-16.065,-17.0625,45.8675,12.232,29.720001,10.544001,eccentric,2,3.0,102544.0,311777.0,171505.0,292878.0,187560.0
2026-04-14 17:18:52.629857,207530,1609504626357223,2226327084,-0.94672,-0.333792,-0.163968,-12.985,-15.02375,48.64125,12.808001,29.696001,13.432001,eccentric,2,3.0,102544.0,311777.0,171505.0,292878.0,187560.0
2026-04-14 17:18:52.635638,207531,1609504626366151,2226335786,-0.991616,-0.327936,-0.220576,-12.83625,-11.76875,52.66625,13.024,29.712002,11.416,eccentric,2,3.0,102544.0,311777.0,171505.0,292878.0,187560.0
2026-04-14 17:18:52.673662,207542,1609504626375562,2226344514,-0.991616,-0.327936,-0.220576,-17.15875,-8.3825,57.3475,13.024,29.712002,11.416,eccentric,2,3.0,105749.0,309945.0,175599.0,291078.0,191693.0
2026-04-14 17:18:52.676164,207543,1609504626390143,2226359399,-1.0736,-0.210816,-0.460672,-17.26375,-7.44625,58.835,13.312,29.112001,10.040001,eccentric,2,3.0,105749.0,309945.0,175599.0,291078.0,191693.0
2026-04-14 17:18:52.678662,207544,1609504626399043,2226368098,-1.0736,-0.210816,-0.460672,-15.30375,-9.8,59.07125,13.312,29.112001,10.040001,eccentric,2,3.0,105749.0,309945.0,175599.0,291078.0,191693.0
2026-04-14 17:18:52.687156,207545,1609504626413559,2226382978,-1.04432,-0.210816,-0.132736,-13.6325,-15.00625,58.5025,14.56,28.832,9.84,eccentric,2,3.0,105749.0,309945.0,175599.0,291078.0,191693.0
2026-04-14 17:18:52.695575,207546,1609504626422473,2226391751,-1.04432,-0.210816,-0.132736,-13.2125,-18.515,58.31875,14.56,28.832,9.84,eccentric,2,3.0,105749.0,309945.0,175599.0,291078.0,191693.0
2026-04-14 17:18:52.701736,207547,1609504626431377,2226400634,-1.10288,-0.310368,-0.080032,-16.3625,-15.44375,60.8825,15.52,28.920002,9.312,eccentric,2,3.0,105749.0,309945.0,175599.0,291078.0,191693.0
2026-04-14 17:18:52.735659,207548,1609504626446215,2226415525,-1.098976,-0.28304,-0.550464,-20.5275,-11.305,61.43375,16.0,28.432001,9.904,eccentric,2,3.0,105749.0,309945.0,175599.0,291078.0,191693.0
2026-04-14 17:18:52.761184,207549,1609504626455179,2226424250,-1.098976,-0.28304,-0.550464,-20.30875,-14.06125,62.5625,16.0,28.432001,9.904,eccentric,2,3.0,105749.0,309945.0,175599.0,291078.0,191693.0
2026-04-14 17:18:52.785509,207550,1609504626469656,2226439148,-1.108736,-0.142496,-0.349408,-15.155,-22.81125,66.8675,16.480001,28.176,10.040001,eccentric,2,3.0,105749.0,309945.0,175599.0,291078.0,191693.0
2026-04-14 17:18:52.813250,207561,1609504626478823,2226447829,-1.108736,-0.142496,-0.349408,-8.995,-30.70375,65.89625,16.480001,28.176,10.040001,eccentric,2,3.0,108238.0,308215.0,178998.0,289619.0,194845.0
2026-04-14 17:18:52.816122,207562,1609504626487737,2226456572,-1.085312,-0.193248,0.011712,-7.42,-36.25125,63.49875,17.128,27.760002,9.8,eccentric,2,3.0,108238.0,308215.0,178998.0,289619.0,194845.0
2026-04-14 17:18:52.818108,207563,1609504626502299,2226471410,-1.085312,-0.193248,0.011712,-10.63125,-33.74,64.5575,17.128,27.760002,9.8,eccentric,2,3.0,108238.0,308215.0,178998.0,289619.0,194845.0
2026-04-14 17:18:52.821139,207564,1609504626511203,2226480126,-1.059936,-0.218624,-0.230336,-17.07125,-25.445,63.83125,17.296001,27.432001,11.496,eccentric,2,3.0,108238.0,308215.0,178998.0,289619.0,194845.0
2026-04-14 17:18:52.823559,207565,1609504626525892,2226495001,-1.124352,-0.150304,-0.191296,-17.08875,-18.9,61.94125,18.424002,27.184002,10.576,eccentric,2,3.0,108238.0,308215.0,178998.0,289619.0,194845.0
2026-04-14 17:18:52.826159,207566,1609504626534838,2226503775,-1.124352,-0.150304,-0.191296,-15.365,-15.88125,60.62,18.424002,27.184002,10.576,eccentric,2,3.0,108238.0,308215.0,178998.0,289619.0,194845.0
2026-04-14 17:18:52.828633,207567,1609504626549426,2226518674,-1.038464,-0.169824,-0.431392,-16.87,-16.14375,59.71,18.624,27.184002,10.68,eccentric,2,3.0,108238.0,308215.0,178998.0,289619.0,194845.0
2026-04-14 17:18:52.831126,207568,1609504626558453,2226527356,-1.038464,-0.169824,-0.431392,-16.905,-19.83625,57.28625,18.624,27.184002,10.68,eccentric,2,3.0,108238.0,308215.0,178998.0,289619.0,194845.0
2026-04-14 17:18:52.836933,207569,1609504626567407,2226536049,-1.081408,-0.212768,-0.15616,-15.6975,-23.65125,55.90375,18.984001,27.064001,10.664001,eccentric,2,3.0,108238.0,308215.0,178998.0,289619.0,194845.0
2026-04-14 17:18:52.904331,207580,1609504626582216,2226551039,-1.081408,-0.212768,-0.15616,-19.4775,-25.7425,54.985,18.984001,27.064001,10.664001,eccentric,2,3.0,108417.0,305493.0,180051.0,287094.0,195496.0
2026-04-14 17:18:52.907332,207581,1609504626591671,2226561833,-1.038464,-0.150304,-0.32208,-21.1575,-23.77375,51.14375,19.544,26.032001,9.504001,eccentric,2,3.0,108417.0,305493.0,180051.0,287094.0,195496.0
2026-04-14 17:18:52.909853,207582,1609504626606152,2226574677,-1.00528,-0.17568,-0.0488,-16.19625,-21.97125,46.83,20.832,26.072,9.264001,eccentric,2,3.0,108417.0,305493.0,180051.0,287094.0,195496.0
2026-04-14 17:18:52.912326,207583,1609504626615547,2226585433,-1.00528,-0.17568,-0.0488,-15.49625,-20.055,45.38625,20.832,26.072,9.264001,eccentric,2,3.0,108417.0,305493.0,180051.0,287094.0,195496.0
2026-04-14 17:18:52.914819,207584,1609504626624459,2226594132,-1.00528,-0.160064,-0.236192,-19.01375,-17.2375,42.97125,20.832,26.072,9.264001,eccentric,2,3.0,108417.0,305493.0,180051.0,287094.0,195496.0
2026-04-14 17:18:52.916834,207585,1609504626638934,2226609042,-1.00528,-0.163968,-0.236192,-20.57125,-14.88375,41.055,21.152,26.008001,6.912,eccentric,2,3.0,108417.0,305493.0,180051.0,287094.0,195496.0
2026-04-14 17:18:52.919416,207586,1609504626647850,2226617723,-1.10288,-0.072224,-0.167872,-23.42375,-17.2025,38.9025,21.736002,26.064001,9.184,eccentric,2,3.0,108417.0,305493.0,180051.0,287094.0,195496.0
2026-04-14 17:18:52.934374,207587,1609504626662341,2226632600,-1.10288,-0.072224,-0.167872,-20.46625,-23.52,33.29375,21.736002,26.064001,9.184,eccentric,2,3.0,108417.0,305493.0,180051.0,287094.0,195496.0
2026-04-14 17:18:52.941166,207588,1609504626671244,2226641303,-1.196576,-0.162016,-0.38064,-10.07125,-28.90125,24.73625,21.944,25.68,9.200001,eccentric,2,3.0,108417.0,305493.0,180051.0,287094.0,195496.0
2026-04-14 17:18:52.970602,207599,1609504626680443,2226650096,-1.196576,-0.162016,-0.38064,-3.24625,-35.420002,24.08,21.944,25.68,9.200001,eccentric,2,3.0,109808.0,300409.0,182300.0,282324.0,196736.0
2026-04-14 17:18:52.975453,207600,1609504626695034,2226665054,-1.079456,-0.138592,-0.150304,-4.31375,-36.61875,24.64875,22.44,25.696001,9.352,eccentric,2,3.0,109808.0,300409.0,182300.0,282324.0,196736.0
2026-04-14 17:18:52.977769,207601,1609504626704018,2226673834,-1.079456,-0.138592,-0.150304,-6.125,-29.960001,23.02125,22.44,25.696001,9.352,eccentric,2,3.0,109808.0,300409.0,182300.0,282324.0,196736.0
2026-04-14 17:18:52.994707,207602,1609504626718518,2226688723,-1.120448,-0.050752,0.03904,-11.10375,-23.89625,20.4225,22.592001,25.976002,11.064,eccentric,2,3.0,109808.0,300409.0,182300.0,282324.0,196736.0
2026-04-14 17:18:52.999774,207603,1609504626727457,2226697413,-1.1712,-0.132736,-0.244,-16.695,-20.09875,14.5775,22.800001,25.800001,13.144001,eccentric,2,3.0,109808.0,300409.0,182300.0,282324.0,196736.0
2026-04-14 17:18:53.013520,207604,1609504626741949,2226712279,-1.1712,-0.132736,-0.244,-16.555,-16.24875,7.9975,22.800001,25.800001,13.144001,eccentric,2,3.0,109808.0,300409.0,182300.0,282324.0,196736.0
2026-04-14 17:18:53.022336,207605,1609504626750875,2226720992,-1.089216,-0.21472,-0.150304,-15.505,-15.61,6.15125,22.416,25.992,9.952001,eccentric,2,3.0,109808.0,300409.0,182300.0,282324.0,196736.0
2026-04-14 17:18:53.029875,207606,1609504626759845,2226729697,-1.089216,-0.21472,-0.150304,-13.23875,-15.95125,8.26,22.416,25.992,9.952001,eccentric,2,3.0,109808.0,300409.0,182300.0,282324.0,196736.0
2026-04-14 17:18:53.046023,207607,1609504626774312,2226744598,-1.126304,-0.044896,-0.046848,-6.57125,-15.95125,7.6475,22.208,26.296001,11.656,eccentric,2,3.0,109808.0,300409.0,182300.0,282324.0,196736.0
2026-04-14 17:18:53.073526,207618,1609504626783396,2226753359,-1.126304,-0.044896,-0.046848,-1.715,-17.33375,6.22125,22.208,26.296001,11.656,eccentric,2,3.0,106190.0,292865.0,178635.0,275934.0,191919.0
2026-04-14 17:18:53.075992,207619,1609504626797921,2226768274,-1.09312,0.007808,-0.109312,-3.2375,-19.2325,1.12,22.608002,26.128002,10.464001,eccentric,2,3.0,106190.0,292865.0,178635.0,275934.0,191919.0
2026-04-14 17:18:53.100539,207620,1609504626806869,2226776938,-1.075552,-0.216672,-0.095648,-9.31,-16.73,-12.08375,22.640001,26.816002,11.440001,eccentric,2,3.0,106190.0,292865.0,178635.0,275934.0,191919.0
2026-04-14 17:18:53.126148,207621,1609504626821354,2226789775,-1.075552,-0.216672,-0.095648,-15.37375,-17.9375,-17.78,22.640001,26.816002,11.440001,eccentric,2,3.0,106190.0,292865.0,178635.0,275934.0,191919.0
2026-04-14 17:18:53.128664,207622,1609504626830564,2226800520,-1.149728,-0.208864,-0.144448,-17.07125,-20.02875,-13.615,22.632002,27.024002,11.120001,eccentric,2,3.0,106190.0,292865.0,178635.0,275934.0,191919.0
2026-04-14 17:18:53.133797,207623,1609504626839565,2226809190,-1.149728,-0.208864,-0.144448,-16.9575,-19.78375,-14.11375,22.632002,27.024002,11.120001,eccentric,2,3.0,106190.0,292865.0,178635.0,275934.0,191919.0
2026-04-14 17:18:53.135636,207624,1609504626854047,2226824059,-1.225856,-0.03904,-0.093696,-4.90875,-20.01125,-11.3575,22.128,26.936,11.592001,eccentric,2,3.0,106190.0,292865.0,178635.0,275934.0,191919.0
2026-04-14 17:18:53.138066,207625,1609504626862965,2226832729,-1.225856,-0.03904,-0.093696,10.71,-21.7875,-10.29,22.128,26.936,11.592001,eccentric,2,3.0,106190.0,292865.0,178635.0,275934.0,191919.0
2026-04-14 17:18:53.170977,207636,1609504626877817,2226848112,-1.179008,-0.07808,-0.124928,14.105001,-21.11375,-19.04875,21.664001,27.088001,11.896001,eccentric,2,3.0,100720.0,280648.0,172290.0,267194.0,184722.0
2026-04-14 17:18:53.173014,207637,1609504626886901,2226856879,-1.165344,-0.18544,-0.013664,3.465,-21.49,-26.3375,21.424002,26.576002,10.696,eccentric,2,3.0,100720.0,280648.0,172290.0,267194.0,184722.0
2026-04-14 17:18:53.175611,207638,1609504626895844,2226865555,-1.165344,-0.18544,-0.013664,-1.35625,-21.210001,-21.49875,21.424002,26.576002,10.696,eccentric,2,3.0,100720.0,280648.0,172290.0,267194.0,184722.0
2026-04-14 17:18:53.181946,207639,1609504626910330,2226880467,-1.153632,-0.222528,-0.095648,-1.4875,-16.45,-16.835001,21.288,27.016,11.6,eccentric,2,3.0,100720.0,280648.0,172290.0,267194.0,184722.0
2026-04-14 17:18:53.189428,207640,1609504626919235,2226889251,-1.153632,-0.222528,-0.095648,-3.01875,-10.7625,-15.3125,21.288,27.016,11.6,eccentric,2,3.0,100720.0,280648.0,172290.0,267194.0,184722.0
2026-04-14 17:18:53.211657,207641,1609504626933761,2226902105,-1.231712,-0.162016,-0.095648,-7.46375,-9.485,-10.99,19.76,27.032001,12.896001,eccentric,2,3.0,100720.0,280648.0,172290.0,267194.0,184722.0
2026-04-14 17:18:53.213148,207642,1609504626942908,2226912845,-1.231712,-0.162016,-0.095648,-10.19375,-9.77375,-8.42625,19.76,27.032001,12.896001,eccentric,2,3.0,100720.0,280648.0,172290.0,267194.0,184722.0
2026-04-14 17:18:53.229472,207643,1609504626957401,2226927712,-1.18096,-0.171776,-0.191296,-10.9025,-13.125,-10.29875,20.512001,27.024002,11.936001,concentric,2,3.0,100720.0,280648.0,172290.0,267194.0,184722.0
2026-04-14 17:18:53.237054,207644,1609504626966396,2226936416,-1.18096,-0.171776,0.074176,-1.33,-18.375,-9.765,20.512001,27.024002,11.936001,concentric,2,3.0,100720.0,280648.0,172290.0,267194.0,184722.0
2026-04-14 17:18:53.246952,207645,1609504626975356,2226945093,-1.138016,-0.160064,0.066368,13.97375,-22.2075,-6.965,19.464,26.976002,12.968,concentric,2,3.0,100720.0,280648.0,172290.0,267194.0,184722.0
2026-04-14 17:18:53.274376,207656,1609504626989946,2226960061,-1.147776,-0.138592,-0.023424,20.13375,-23.397501,-8.155,19.976002,27.112001,12.304001,concentric,2,3.0,91332.0,270591.0,160845.0,260526.0,172609.0
2026-04-14 17:18:53.277029,207657,1609504626998883,2226968856,-1.147776,-0.138592,-0.023424,15.6975,-22.09375,-9.91375,19.976002,27.112001,12.304001,concentric,2,3.0,91332.0,270591.0,160845.0,260526.0,172609.0
2026-04-14 17:18:53.282026,207658,1609504627013393,2226981748,-1.155584,-0.189344,-0.025376,9.485,-19.38125,-9.45,19.432001,26.544,12.576,concentric,2,3.0,91332.0,270591.0,160845.0,260526.0,172609.0
2026-04-14 17:18:53.293342,207659,1609504627022629,2226992537,-1.155584,-0.189344,-0.025376,0.35,-18.03375,-9.695,19.432001,26.544,12.576,concentric,2,3.0,91332.0,270591.0,160845.0,260526.0,172609.0
2026-04-14 17:18:53.303353,207660,1609504627031558,2227001228,-1.100928,-0.286944,-0.01952,-6.1425,-15.225,-7.2275,19.472,26.960001,12.144001,concentric,2,3.0,91332.0,270591.0,160845.0,260526.0,172609.0
2026-04-14 17:18:53.315830,207661,1609504627046074,2227016069,-1.100928,-0.286944,-0.01952,-9.05625,-12.41625,-3.2725,19.472,26.960001,12.144001,concentric,2,3.0,91332.0,270591.0,160845.0,260526.0,172609.0
2026-04-14 17:18:53.327119,207662,1609504627055000,2227024806,-1.22,-0.275232,-0.12688,-6.16,-10.00125,2.38,19.072,27.008001,13.216001,concentric,2,3.0,91332.0,270591.0,160845.0,260526.0,172609.0
2026-04-14 17:18:53.340559,207663,1609504627069518,2227039667,-1.212192,-0.138592,-0.122976,0.42875,-6.95625,7.14875,19.024,27.024002,11.544001,concentric,2,3.0,91332.0,270591.0,160845.0,260526.0,172609.0
2026-04-14 17:18:53.373260,207674,1609504627078497,2227048309,-1.212192,-0.138592,-0.122976,5.9325,-3.87625,8.8725,19.024,27.024002,11.544001,concentric,2,3.0,83476.0,264919.0,151455.0,255790.0,162744.0
2026-04-14 17:18:53.375760,207675,1609504627087858,2227057061,-1.1712,-0.12688,-0.11712,8.19,-2.17,8.155,19.024,26.920002,13.296001,concentric,2,3.0,83476.0,264919.0,151455.0,255790.0,162744.0
2026-04-14 17:18:53.378351,207676,1609504627102408,2227072030,-1.1712,-0.12688,-0.11712,3.2375,-4.36625,6.51875,18.272001,26.920002,13.296001,concentric,2,3.0,83476.0,264919.0,151455.0,255790.0,162744.0
2026-04-14 17:18:53.382114,207677,1609504627111332,2227080717,-1.225856,-0.17568,-0.242048,-2.1875,-8.30375,5.3725,18.52,26.736002,12.984,concentric,2,3.0,83476.0,264919.0,151455.0,255790.0,162744.0
2026-04-14 17:18:53.397112,207678,1609504627125831,2227095639,-1.225856,-0.17568,-0.242048,-6.64125,-12.4425,3.70125,18.52,26.736002,12.984,concentric,2,3.0,83476.0,264919.0,151455.0,255790.0,162744.0
2026-04-14 17:18:53.404644,207679,1609504627134836,2227104349,-1.110688,-0.238144,-0.06832,-6.95625,-16.7125,1.86375,19.36,26.336,10.224001,concentric,2,3.0,83476.0,264919.0,151455.0,255790.0,162744.0
2026-04-14 17:18:53.419623,207680,1609504627149307,2227119240,-1.104832,-0.171776,0.130784,0.77875,-19.04,2.3275,18.808,26.832,14.480001,concentric,2,3.0,83476.0,264919.0,151455.0,255790.0,162744.0
2026-04-14 17:18:53.428652,207681,1609504627158278,2227127921,-1.104832,-0.171776,0.130784,12.0925,-18.8125,3.4125,18.808,26.832,14.480001,concentric,2,3.0,83476.0,264919.0,151455.0,255790.0,162744.0
2026-04-14 17:18:53.438435,207682,1609504627167207,2227136568,-1.104832,-0.171776,0.130784,16.975,-17.61375,3.01,18.808,26.832,14.480001,concentric,2,3.0,83476.0,264919.0,151455.0,255790.0,162744.0
2026-04-14 17:18:53.593640,207693,1609504627182340,2227151544,-1.110688,-0.171776,0.081984,12.90625,-15.37375,3.2025,18.744001,26.496002,11.752001,concentric,2,3.0,74215.0,258546.0,140081.0,249297.0,150851.0
2026-04-14 17:18:53.596042,207694,1609504627191312,2227160266,-1.216096,-0.199104,-0.162016,3.43,-13.60625,3.2375,18.808,26.704,13.408001,concentric,2,3.0,74215.0,258546.0,140081.0,249297.0,150851.0
2026-04-14 17:18:53.598636,207695,1609504627205767,2227175198,-1.216096,-0.199104,-0.162016,-3.465,-12.3725,4.1475,18.808,26.704,13.408001,concentric,2,3.0,74215.0,258546.0,140081.0,249297.0,150851.0
2026-04-14 17:18:53.606186,207696,1609504627214849,2227183864,-1.173152,-0.210816,0.050752,-3.2375,-11.05125,6.545,18.560001,26.544,13.664001,concentric,2,3.0,74215.0,258546.0,140081.0,249297.0,150851.0
2026-04-14 17:18:53.608621,207697,1609504627223742,2227192551,-1.173152,-0.210816,0.050752,0.23625,-9.91375,8.96,18.560001,26.544,13.664001,concentric,2,3.0,74215.0,258546.0,140081.0,249297.0,150851.0
2026-04-14 17:18:53.611153,207698,1609504627238191,2227207412,-1.098976,-0.18544,0.033184,4.80375,-8.4875,12.25,19.616001,26.064001,12.624001,concentric,2,3.0,74215.0,258546.0,140081.0,249297.0,150851.0
2026-04-14 17:18:53.613666,207699,1609504627247194,2227216101,-1.098976,-0.18544,0.033184,6.76375,-7.02625,14.0875,19.616001,26.064001,12.624001,concentric,2,3.0,74215.0,258546.0,140081.0,249297.0,150851.0
2026-04-14 17:18:53.616163,207700,1609504627261638,2227230964,-1.114592,-0.20496,-0.085888,2.77375,-6.34375,13.27375,19.352001,26.072,12.872001,concentric,2,3.0,74215.0,258546.0,140081.0,249297.0,150851.0
2026-04-14 17:18:53.618258,207701,1609504627270519,2227239652,-1.13216,-0.1952,-0.158112,-7.21,-7.3675,12.48625,19.480001,25.592001,10.352,concentric,2,3.0,74215.0,258546.0,140081.0,249297.0,150851.0
2026-04-14 17:18:53.646000,207712,1609504627285081,2227254664,-1.13216,-0.1952,-0.158112,-9.87,-8.30375,13.3875,19.480001,25.592001,10.352,concentric,2,3.0,73654.0,258709.0,139456.0,249626.0,150267.0
2026-04-14 17:18:53.648034,207713,1609504627293989,2227263358,-1.071648,-0.201056,0.070272,-4.2,-8.575,12.15375,19.736,25.824001,12.136001,concentric,2,3.0,73654.0,258709.0,139456.0,249626.0,150267.0
2026-04-14 17:18:53.650557,207714,1609504627302902,2227272040,-1.071648,-0.201056,0.070272,1.05875,-8.67125,10.59625,19.736,25.824001,12.136001,concentric,2,3.0,73654.0,258709.0,139456.0,249626.0,150267.0
2026-04-14 17:18:53.653553,207715,1609504627317407,2227286948,-1.134112,-0.115168,0.046848,4.515,-8.1375,11.4275,19.744001,26.032001,12.328001,concentric,2,3.0,73654.0,258709.0,139456.0,249626.0,150267.0
2026-04-14 17:18:53.656070,207716,1609504627326296,2227295648,-1.134112,-0.115168,0.046848,5.10125,-6.6325,10.57875,19.744001,26.032001,12.328001,concentric,2,3.0,73654.0,258709.0,139456.0,249626.0,150267.0
2026-04-14 17:18:53.658089,207717,1609504627340798,2227310542,-1.048224,-0.142496,0.160064,0.49875,-5.9325,9.1525,19.6,25.872002,13.368001,concentric,2,3.0,73654.0,258709.0,139456.0,249626.0,150267.0
2026-04-14 17:18:53.661117,207718,1609504627349733,2227319269,-1.077504,-0.183488,-0.062464,-7.00875,-6.02875,8.21625,19.144001,26.112001,12.168,concentric,2,3.0,73654.0,258709.0,139456.0,249626.0,150267.0
2026-04-14 17:18:53.663620,207719,1609504627364456,2227334274,-1.077504,-0.183488,-0.062464,-11.64625,-6.15125,6.76375,19.144001,26.112001,12.168,concentric,2,3.0,73654.0,258709.0,139456.0,249626.0,150267.0
2026-04-14 17:18:53.666055,207720,1609504627373471,2227342973,-1.098976,-0.187392,-0.099552,-9.3975,-6.60625,6.13375,19.328001,26.048,13.184001,concentric,2,3.0,73654.0,258709.0,139456.0,249626.0,150267.0
2026-04-14 17:18:53.696045,207732,1609504627382910,2227351942,-1.098976,-0.187392,-0.099552,-6.16875,-7.07875,4.655,19.328001,26.048,13.184001,concentric,2,3.0,70796.0,254596.0,135870.0,246023.0,146466.0
2026-04-14 17:18:53.698208,207733,1609504627397506,2227366944,-1.05408,-0.216672,-0.031232,-3.64,-7.28875,5.0925,18.880001,25.864,13.240001,concentric,2,3.0,70796.0,254596.0,135870.0,246023.0,146466.0
2026-04-14 17:18:53.700660,207734,1609504627406440,2227375711,-1.05408,-0.216672,-0.031232,-1.21625,-7.58625,6.3175,18.880001,25.864,13.240001,concentric,2,3.0,70796.0,254596.0,135870.0,246023.0,146466.0
2026-04-14 17:18:53.708660,207735,1609504627421085,2227390727,-1.116544,-0.169824,-0.109312,-0.67375,-6.5275,5.8975,18.904001,25.920002,14.144001,concentric,2,3.0,70796.0,254596.0,135870.0,246023.0,146466.0
2026-04-14 17:18:53.711181,207736,1609504627430024,2227399413,-1.079456,-0.171776,-0.0488,-2.16125,-4.9525,6.01125,18.904001,26.12,14.136001,concentric,2,3.0,70796.0,254596.0,135870.0,246023.0,146466.0
2026-04-14 17:18:53.715203,207737,1609504627439018,2227408119,-1.079456,-0.171776,-0.0488,-3.89375,-4.375,5.74,18.976002,26.12,14.136001,concentric,2,3.0,70796.0,254596.0,135870.0,246023.0,146466.0
2026-04-14 17:18:53.725479,207738,1609504627453512,2227423086,-1.085312,-0.201056,-0.066368,-7.455,-5.355,4.7425,18.160002,25.888,13.840001,concentric,2,3.0,70796.0,254596.0,135870.0,246023.0,146466.0
2026-04-14 17:18:53.735600,207739,1609504627462439,2227431772,-1.085312,-0.201056,-0.066368,-10.50875,-6.0725,3.94625,18.160002,25.888,13.840001,concentric,2,3.0,70796.0,254596.0,135870.0,246023.0,146466.0
2026-04-14 17:18:53.747272,207740,1609504627476892,2227446662,-1.145824,-0.142496,-0.066368,-9.72125,-5.81,2.96625,20.12,25.512001,11.704,concentric,2,3.0,70796.0,254596.0,135870.0,246023.0,146466.0
2026-04-14 17:18:53.775739,207751,1609504627485954,2227455929,-1.145824,-0.142496,-0.066368,-7.2275,-4.62,2.02125,20.12,25.512001,11.704,concentric,2,3.0,68292.0,250206.0,132724.0,242216.0,143268.0
2026-04-14 17:18:53.778662,207752,1609504627500471,2227468819,-1.077504,-0.142496,0.06832,-6.5625,-3.7975,0.72625,19.056002,25.688002,12.824,concentric,2,3.0,68292.0,250206.0,132724.0,242216.0,143268.0
2026-04-14 17:18:53.781111,207753,1609504627509645,2227479622,-1.077504,-0.142496,0.06832,-5.67875,-3.675,0.105,19.056002,25.688002,12.824,concentric,2,3.0,68292.0,250206.0,132724.0,242216.0,143268.0
2026-04-14 17:18:53.788678,207754,1609504627518682,2227488321,-1.147776,-0.162016,-0.033184,-5.69625,-3.63125,-0.37625,18.952002,25.792002,13.232,concentric,2,3.0,68292.0,250206.0,132724.0,242216.0,143268.0
2026-04-14 17:18:53.804939,207755,1609504627533151,2227503184,-1.139968,-0.152256,-0.040992,-7.875,-4.03375,-0.35,19.584002,26.000002,12.976001,concentric,2,3.0,68292.0,250206.0,132724.0,242216.0,143268.0
2026-04-14 17:18:53.813333,207756,1609504627542085,2227511859,-1.139968,-0.152256,-0.040992,-6.8775,-5.24125,0.9975,19.584002,26.000002,12.976001,concentric,2,3.0,68292.0,250206.0,132724.0,242216.0,143268.0
2026-04-14 17:18:53.839387,207757,1609504627556544,2227526717,-1.173152,-0.160064,-0.044896,-6.5275,-4.55,0.5775,19.216002,25.904001,11.672001,concentric,2,3.0,68292.0,250206.0,132724.0,242216.0,143268.0
2026-04-14 17:18:53.841777,207758,1609504627565433,2227535404,-1.173152,-0.160064,-0.044896,-7.04375,-4.0075,0.95375,19.216002,25.904001,11.672001,concentric,2,3.0,68292.0,250206.0,132724.0,242216.0,143268.0
2026-04-14 17:18:53.895967,207769,1609504627579974,2227550244,-1.126304,-0.191296,-0.093696,-7.6825,-3.395,2.58125,19.384,26.36,12.336,concentric,2,3.0,68942.0,249797.0,133610.0,242001.0,144123.0
2026-04-14 17:18:53.898686,207770,1609504627588952,2227558962,-1.126304,-0.191296,-0.093696,-6.76375,-1.855,2.94875,19.384,26.36,12.336,concentric,2,3.0,68942.0,249797.0,133610.0,242001.0,144123.0
2026-04-14 17:18:53.903001,207771,1609504627597853,2227567654,-1.077504,-0.160064,0.01952,-3.255,0.16625,2.485,19.664001,25.576002,12.080001,concentric,2,3.0,68942.0,249797.0,133610.0,242001.0,144123.0
2026-04-14 17:18:53.903515,207772,1609504627612383,2227582587,-1.1712,-0.121024,-0.00976,-3.3425,0.74375,2.0475,19.992,25.576002,10.072001,concentric,2,3.0,68942.0,249797.0,133610.0,242001.0,144123.0
2026-04-14 17:18:53.905599,207773,1609504627621304,2227591239,-1.1712,-0.121024,-0.00976,-5.85375,0.6825,1.46125,19.992,25.576002,10.072001,concentric,2,3.0,68942.0,249797.0,133610.0,242001.0,144123.0
2026-04-14 17:18:53.910445,207774,1609504627635798,2227604153,-1.13216,-0.212768,-0.113216,-9.77375,0.88375,0.5075,20.048,26.04,11.544001,concentric,2,3.0,68942.0,249797.0,133610.0,242001.0,144123.0
2026-04-14 17:18:53.916319,207775,1609504627644964,2227614898,-1.13216,-0.212768,-0.113216,-12.15375,1.085,0.56,20.048,26.04,11.544001,concentric,2,3.0,68942.0,249797.0,133610.0,242001.0,144123.0
2026-04-14 17:18:53.926014,207776,1609504627653916,2227623576,-1.077504,-0.218624,-0.015616,-7.9625,0.6125,1.785,19.512001,25.536001,11.512,concentric,2,3.0,68942.0,249797.0,133610.0,242001.0,144123.0
2026-04-14 17:18:53.938473,207777,1609504627668391,2227638495,-1.077504,-0.218624,-0.015616,-1.88125,0.455,1.995,19.512001,25.536001,11.512,concentric,2,3.0,68942.0,249797.0,133610.0,242001.0,144123.0
2026-04-14 17:18:53.946914,207778,1609504627677299,2227647201,-1.08336,-0.142496,0.02928,2.21375,-0.11375,3.01,20.504002,25.184002,11.688001,concentric,2,3.0,68942.0,249797.0,133610.0,242001.0,144123.0
2026-04-14 17:18:53.976097,207789,1609504627691891,2227662176,-1.09312,-0.183488,-0.00976,2.09125,-0.30625,4.2525,20.504002,25.760002,10.352,concentric,2,3.0,73819.0,252416.0,140409.0,244989.0,151041.0
2026-04-14 17:18:53.978631,207790,1609504627701064,2227670887,-1.09312,-0.183488,-0.00976,-2.82625,-0.8925,2.96625,20.488,25.760002,10.352,concentric,2,3.0,73819.0,252416.0,140409.0,244989.0,151041.0
2026-04-14 17:18:53.986098,207791,1609504627715577,2227685880,-1.085312,-0.249856,0.091744,-7.98,-0.4025,2.17875,20.456001,25.760002,12.744,concentric,2,3.0,73819.0,252416.0,140409.0,244989.0,151041.0
2026-04-14 17:18:53.996211,207792,1609504627724516,2227694562,-1.085312,-0.249856,0.091744,-9.84375,0.70875,2.6775,20.456001,25.760002,12.744,concentric,2,3.0,73819.0,252416.0,140409.0,244989.0,151041.0
2026-04-14 17:18:54.004464,207793,1609504627733436,2227703226,-1.175104,-0.173728,-0.01952,-2.9575,0.9975,5.6175,19.52,25.784,11.568001,concentric,2,3.0,73819.0,252416.0,140409.0,244989.0,151041.0
2026-04-14 17:18:54.019774,207794,1609504627747952,2227718097,-1.175104,-0.173728,-0.01952,9.1525,1.6275,8.8375,19.52,25.784,11.568001,concentric,2,3.0,73819.0,252416.0,140409.0,244989.0,151041.0
2026-04-14 17:18:54.027239,207795,1609504627756909,2227726804,-1.095072,-0.103456,-0.001952,15.98625,2.49375,10.167501,19.832,25.224,11.784,concentric,2,3.0,73819.0,252416.0,140409.0,244989.0,151041.0
2026-04-14 17:18:54.042358,207796,1609504627771387,2227741668,-1.095072,-0.103456,-0.001952,12.29375,2.26625,8.84625,19.832,25.224,11.784,concentric,2,3.0,73819.0,252416.0,140409.0,244989.0,151041.0
2026-04-14 17:18:54.050720,207797,1609504627780325,2227750359,-1.184864,-0.177632,-0.13664,-0.41125,1.365,6.51,20.728,25.392002,11.504001,concentric,2,3.0,73819.0,252416.0,140409.0,244989.0,151041.0
2026-04-14 17:18:54.079933,207808,1609504627794935,2227765300,-1.136064,-0.306464,-0.023424,-14.16625,-0.14,4.7075,20.568,24.984001,11.8,concentric,2,3.0,90449.0,266998.0,161355.0,259767.0,173203.0
2026-04-14 17:18:54.081963,207809,1609504627803911,2227773993,-1.136064,-0.306464,-0.023424,-15.33875,-0.53375,5.6525,20.568,24.984001,11.8,concentric,2,3.0,90449.0,266998.0,161355.0,259767.0,173203.0
2026-04-14 17:18:54.084575,207810,1609504627812892,2227782726,-1.19072,-0.232288,-0.16592,-0.8925,1.12,9.6075,20.792002,25.264002,8.176001,concentric,2,3.0,90449.0,266998.0,161355.0,259767.0,173203.0
2026-04-14 17:18:54.100496,207811,1609504627827390,2227797625,-1.19072,-0.232288,-0.16592,16.5725,2.695,11.90875,20.792002,25.264002,8.176001,concentric,2,3.0,90449.0,266998.0,161355.0,259767.0,173203.0
2026-04-14 17:18:54.107267,207812,1609504627836283,2227806316,-1.237568,-0.00976,-0.128832,25.41875,3.92,12.24125,19.632002,24.880001,12.096001,concentric,2,3.0,90449.0,266998.0,161355.0,259767.0,173203.0
2026-04-14 17:18:54.121778,207813,1609504627850761,2227819151,-1.237568,-0.00976,-0.128832,20.23875,5.62625,10.57875,19.632002,24.880001,12.096001,concentric,2,3.0,90449.0,266998.0,161355.0,259767.0,173203.0
2026-04-14 17:18:54.129781,207814,1609504627860007,2227829855,-1.206336,-0.121024,-0.103456,3.49125,4.97,5.29375,21.008001,24.648,12.432,concentric,2,3.0,90449.0,266998.0,161355.0,259767.0,173203.0
2026-04-14 17:18:54.139953,207815,1609504627868951,2227838547,-1.206336,-0.121024,-0.103456,-15.155,3.6575,0.1925,21.008001,24.648,12.432,concentric,2,3.0,90449.0,266998.0,161355.0,259767.0,173203.0
2026-04-14 17:18:54.244877,207826,1609504627883501,2227853855,-1.169248,-0.394304,-0.154208,-24.395,5.34625,-1.33,21.224,24.672,12.240001,concentric,2,3.0,104222.0,281243.0,176500.0,272908.0,189041.0
2026-04-14 17:18:54.246979,207827,1609504627892436,2227862593,-1.169248,-0.394304,-0.183488,-21.13125,8.05,0.14875,21.224,24.672,12.240001,concentric,2,3.0,104222.0,281243.0,176500.0,272908.0,189041.0
2026-04-14 17:18:54.249948,207828,1609504627906920,2227875485,-1.182912,-0.257664,-0.183488,-1.51375,11.55,5.915,21.272001,24.728,14.200001,concentric,2,3.0,104222.0,281243.0,176500.0,272908.0,189041.0
2026-04-14 17:18:54.251968,207829,1609504627916342,2227886241,-1.251232,-0.031232,0.031232,16.54625,14.46375,9.555,21.056002,24.664001,13.160001,concentric,2,3.0,104222.0,281243.0,176500.0,272908.0,189041.0
2026-04-14 17:18:54.254932,207830,1609504627930799,2227901098,-1.251232,-0.031232,0.031232,13.685,15.575,8.56625,21.056002,24.664001,13.160001,concentric,2,3.0,104222.0,281243.0,176500.0,272908.0,189041.0
2026-04-14 17:18:54.257400,207831,1609504627939721,2227909808,-1.27856,-0.0976,-0.148352,-2.5725,14.761251,5.285,20.896002,25.376001,14.360001,concentric,2,3.0,104222.0,281243.0,176500.0,272908.0,189041.0
2026-04-14 17:18:54.259927,207832,1609504627948660,2227918478,-1.27856,-0.0976,-0.148352,-18.75125,12.43375,0.34125,20.896002,25.376001,14.360001,concentric,2,3.0,104222.0,281243.0,176500.0,272908.0,189041.0
2026-04-14 17:18:54.261992,207833,1609504627963153,2227933359,-1.21024,-0.199104,0.005856,-22.04125,11.87375,-3.29875,21.016,25.096,12.656,concentric,2,3.0,104222.0,281243.0,176500.0,272908.0,189041.0
2026-04-14 17:18:54.264952,207834,1609504627972098,2227942078,-1.21024,-0.199104,0.005856,-15.225,12.6,-4.45375,21.016,25.096,12.656,concentric,2,3.0,104222.0,281243.0,176500.0,272908.0,189041.0
2026-04-14 17:18:54.294240,207845,1609504627987367,2227957139,-1.253184,-0.171776,-0.201056,-5.97625,13.0025,-4.59375,20.888,25.312,12.368001,concentric,2,3.0,102846.0,282240.0,174779.0,270111.0,187493.0
2026-04-14 17:18:54.297276,207846,1609504627996394,2227965870,-1.2688,-0.031232,-0.113216,5.85375,13.60625,-3.5875,21.192001,25.368002,13.864,concentric,2,3.0,102846.0,282240.0,174779.0,270111.0,187493.0
2026-04-14 17:18:54.299787,207847,1609504628005350,2227974586,-1.2688,-0.031232,-0.113216,9.86125,14.0,-6.81625,21.192001,25.368002,13.864,concentric,2,3.0,102846.0,282240.0,174779.0,270111.0,187493.0
2026-04-14 17:18:54.302271,207848,1609504628019861,2227989599,-1.22,-0.095648,0.021472,-2.33625,13.125,-11.75125,20.072,25.68,14.264001,concentric,2,3.0,102846.0,282240.0,174779.0,270111.0,187493.0
2026-04-14 17:18:54.304693,207849,1609504628028792,2227998293,-1.22,-0.095648,0.021472,-22.14625,10.5175,-18.15625,20.072,25.68,14.264001,concentric,2,3.0,102846.0,282240.0,174779.0,270111.0,187493.0
2026-04-14 17:18:54.316078,207850,1609504628043297,2228013156,-1.235616,-0.171776,-0.113216,-25.90875,6.755,-25.41875,19.68,25.640001,13.048,concentric,2,3.0,102846.0,282240.0,174779.0,270111.0,187493.0
2026-04-14 17:18:54.322352,207851,1609504628052240,2228021911,-1.235616,-0.171776,-0.113216,-5.845,5.34625,-26.57375,19.68,25.640001,13.048,concentric,2,3.0,102846.0,282240.0,174779.0,270111.0,187493.0
2026-04-14 17:18:54.336880,207852,1609504628066707,2228036790,-1.22976,-0.201056,-0.218624,10.71,4.13875,-26.87125,21.456001,25.208002,11.8,concentric,2,3.0,102846.0,282240.0,174779.0,270111.0,187493.0
2026-04-14 17:18:54.347424,207853,1609504628075630,2228045464,-1.266848,-0.089792,-0.099552,16.397501,3.68375,-23.975,20.488,25.920002,12.184001,concentric,2,3.0,102846.0,282240.0,174779.0,270111.0,187493.0
2026-04-14 17:18:54.378137,207864,1609504628084613,2228054227,-1.266848,-0.089792,-0.099552,14.90125,5.5825,-20.30875,20.488,25.920002,12.184001,concentric,2,3.0,100762.0,284527.0,172111.0,270688.0,185179.0
2026-04-14 17:18:54.383736,207865,1609504628099169,2228069193,-1.163392,-0.128832,0.12688,2.205,8.58375,-21.866251,21.480001,25.824001,13.040001,concentric,2,3.0,100762.0,284527.0,172111.0,270688.0,185179.0
2026-04-14 17:18:54.383829,207866,1609504628108163,2228077924,-1.163392,-0.128832,0.12688,-12.38125,12.573751,-22.61,21.480001,25.824001,13.040001,concentric,2,3.0,100762.0,284527.0,172111.0,270688.0,185179.0
2026-04-14 17:18:54.393567,207867,1609504628122701,2228092826,-1.245376,-0.074176,-0.080032,-11.54125,18.0425,-21.8225,20.84,26.176,13.256001,concentric,2,3.0,100762.0,284527.0,172111.0,270688.0,185179.0
2026-04-14 17:18:54.404831,207868,1609504628131629,2228101516,-1.245376,-0.074176,-0.080032,-6.3175,21.98,-23.75625,20.84,26.176,13.256001,concentric,2,3.0,100762.0,284527.0,172111.0,270688.0,185179.0
2026-04-14 17:18:54.410766,207869,1609504628140577,2228110242,-1.186816,-0.099552,-0.228384,-5.53,23.03,-26.5125,21.560001,25.848001,12.168,concentric,2,3.0,100762.0,284527.0,172111.0,270688.0,185179.0
2026-04-14 17:18:54.427354,207870,1609504628155087,2228125119,-1.221952,-0.042944,-0.128832,-1.7675,21.98,-28.77875,21.568,26.488,10.104,concentric,2,3.0,100762.0,284527.0,172111.0,270688.0,185179.0
2026-04-14 17:18:54.434541,207871,1609504628164000,2228133801,-1.221952,-0.042944,-0.128832,0.56,16.87,-30.817501,21.568,26.488,10.104,concentric,2,3.0,100762.0,284527.0,172111.0,270688.0,185179.0
2026-04-14 17:18:54.450710,207872,1609504628178448,2228148677,-1.110688,-0.10736,-0.054656,0.25375,12.46,-29.07625,21.480001,26.152,12.056001,concentric,2,3.0,100762.0,284527.0,172111.0,270688.0,185179.0
2026-04-14 17:18:54.477854,207883,1609504628187831,2228157610,-1.110688,-0.10736,-0.054656,-1.72375,14.315001,-29.1025,21.480001,26.152,12.056001,concentric,2,3.0,102907.0,287488.0,174631.0,272796.0,188528.0
2026-04-14 17:18:54.480654,207884,1609504628202370,2228172535,-1.179008,-0.10736,-0.066368,-10.71,17.57875,-34.51875,20.728,27.04,16.136002,concentric,2,3.0,102907.0,287488.0,174631.0,272796.0,188528.0
2026-04-14 17:18:54.483049,207885,1609504628211333,2228181229,-1.179008,-0.10736,-0.066368,-9.292501,20.9475,-35.18375,20.728,27.04,16.136002,concentric,2,3.0,102907.0,287488.0,174631.0,272796.0,188528.0
2026-04-14 17:18:54.489827,207886,1609504628220318,2228189951,-1.114592,-0.091744,-0.181536,-0.28875,22.61875,-35.60375,19.720001,26.832,13.336,concentric,2,3.0,102907.0,287488.0,174631.0,272796.0,188528.0
2026-04-14 17:18:54.505989,207887,1609504628234838,2228204881,-1.114592,-0.060512,-0.232288,2.6075,22.82,-39.31375,19.720001,26.832,13.336,concentric,2,3.0,102907.0,287488.0,174631.0,272796.0,188528.0
2026-04-14 17:18:54.514773,207888,1609504628243777,2228213559,-1.128256,-0.056608,-0.232288,2.05625,18.94375,-41.51,21.28,27.168001,12.848001,concentric,2,3.0,102907.0,287488.0,174631.0,272796.0,188528.0
2026-04-14 17:18:54.529895,207889,1609504628258306,2228228450,-1.081408,-0.10736,-0.10736,5.3725,14.46375,-41.62375,20.968,26.608002,10.808001,concentric,2,3.0,102907.0,287488.0,174631.0,272796.0,188528.0
2026-04-14 17:18:54.542338,207890,1609504628267210,2228237173,-1.081408,-0.10736,-0.10736,3.2025,14.41125,-44.3275,20.968,26.608002,10.808001,concentric,2,3.0,102907.0,287488.0,174631.0,272796.0,188528.0
2026-04-14 17:18:54.573340,207891,1609504628281703,2228252047,-1.09312,-0.119072,0.066368,-7.175,17.03625,-47.46,20.688002,27.056002,11.024,concentric,2,3.0,102907.0,287488.0,174631.0,272796.0,188528.0
2026-04-14 17:18:54.643347,207902,1609504628290782,2228260763,-1.09312,-0.119072,0.066368,-7.175,19.985,-48.67625,20.688002,27.056002,11.024,concentric,2,3.0,106497.0,289752.0,179078.0,275191.0,193599.0
2026-04-14 17:18:54.645849,207903,1609504628299739,2228269518,-1.139968,-0.130784,-0.0488,3.54375,21.77875,-49.7875,19.464,27.304,11.568001,concentric,2,3.0,106497.0,289752.0,179078.0,275191.0,193599.0
2026-04-14 17:18:54.650747,207904,1609504628314224,2228284371,-1.139968,-0.130784,-0.0488,9.26625,20.055,-49.8225,19.464,27.304,11.568001,concentric,2,3.0,106497.0,289752.0,179078.0,275191.0,193599.0
2026-04-14 17:18:54.653344,207905,1609504628323158,2228293044,-1.179008,-0.128832,-0.050752,10.1325,17.9725,-48.615,18.688002,27.792002,11.816001,concentric,2,3.0,106497.0,289752.0,179078.0,275191.0,193599.0
2026-04-14 17:18:54.655806,207906,1609504628337621,2228307898,-1.153632,-0.089792,-0.011712,11.01625,17.465,-47.232502,18.104,27.44,9.648001,concentric,2,3.0,106497.0,289752.0,179078.0,275191.0,193599.0
2026-04-14 17:18:54.658350,207907,1609504628346544,2228316603,-1.153632,-0.089792,-0.011712,11.795,19.04,-46.165,18.104,27.44,9.648001,concentric,2,3.0,106497.0,289752.0,179078.0,275191.0,193599.0
2026-04-14 17:18:54.660849,207908,1609504628361045,2228329437,-1.153632,-0.072224,0.005856,3.255,23.31,-47.6,18.472,27.336,9.992001,concentric,2,3.0,106497.0,289752.0,179078.0,275191.0,193599.0
2026-04-14 17:18:54.663242,207909,1609504628370254,2228340246,-1.153632,-0.072224,0.005856,-5.04875,29.723751,-49.315,18.472,27.336,9.992001,concentric,2,3.0,106497.0,289752.0,179078.0,275191.0,193599.0
2026-04-14 17:18:54.665727,207910,1609504628379231,2228348931,-1.042368,-0.271328,-0.169824,-5.81875,34.9475,-50.60125,18.128,27.728,9.808001,concentric,2,3.0,106497.0,289752.0,179078.0,275191.0,193599.0
2026-04-14 17:18:54.693260,207921,1609504628393805,2228363877,-1.042368,-0.271328,-0.169824,-8.75875,37.275,-50.67125,18.128,27.728,9.808001,concentric,2,3.0,108431.0,294454.0,180487.0,279301.0,195789.0
2026-04-14 17:18:54.695681,207922,1609504628402884,2228372663,-1.153632,-0.261568,-0.199104,-9.75625,35.5775,-45.01875,17.328001,28.048002,8.664001,concentric,2,3.0,108431.0,294454.0,180487.0,279301.0,195789.0
2026-04-14 17:18:54.698266,207923,1609504628417389,2228387572,-1.069696,0.003904,-0.230336,0.245,31.1675,-41.15125,17.224,28.072,10.024,concentric,2,3.0,108431.0,294454.0,180487.0,279301.0,195789.0
2026-04-14 17:18:54.700724,207924,1609504628426314,2228396245,-1.069696,0.003904,-0.230336,18.83,27.1775,-41.1775,17.224,28.072,10.024,concentric,2,3.0,108431.0,294454.0,180487.0,279301.0,195789.0
2026-04-14 17:18:54.704585,207925,1609504628435313,2228404903,-1.069696,0.003904,-0.230336,18.9,23.68625,-46.4275,17.224,28.072,10.024,concentric,2,3.0,108431.0,294454.0,180487.0,279301.0,195789.0
2026-04-14 17:18:54.720868,207926,1609504628449818,2228419793,-1.036512,-0.162016,0.099552,0.11375,23.19625,-51.8525,16.504002,28.184002,11.192,concentric,2,3.0,108431.0,294454.0,180487.0,279301.0,195789.0
2026-04-14 17:18:54.730765,207927,1609504628458753,2228428487,-0.99552,-0.320128,0.05856,-9.93125,27.48375,-53.55,16.264,28.296001,9.280001,concentric,2,3.0,108431.0,294454.0,180487.0,279301.0,195789.0
2026-04-14 17:18:54.744401,207928,1609504628473265,2228443353,-0.99552,-0.320128,0.05856,-10.45625,32.095,-51.607502,16.264,28.296001,9.280001,concentric,2,3.0,108431.0,294454.0,180487.0,279301.0,195789.0
