pc_time,serial_num,sensor_ts,host_ts,ax,ay,az,gx,gy,gz,mx,my,mz,phase,rpe,weight_kg,ppg_a,ppg_b,ppg_c,ppg_d,ppg_e
2026-04-14 17:18:24.412665,202230,1609504598119894,2198089508,-1.087264,-0.183488,-0.150304,3.22,-4.2525,1.4875,19.896002,27.6,11.152,concentric,2,3.0,90455.0,264417.0,161227.0,253363.0,176197.0
2026-04-14 17:18:24.439107,202231,1609504598134909,2198104560,-1.143872,-0.177632,-0.150304,5.92375,-3.22,1.47875,20.28,27.192001,10.512,concentric,2,3.0,90455.0,264417.0,161227.0,253363.0,176197.0
2026-04-14 17:18:24.463110,202232,1609504598143831,2198113261,-1.050176,-0.099552,0.173728,11.06,-2.2925,1.33875,19.880001,27.640001,12.272,concentric,2,3.0,90455.0,264417.0,161227.0,253363.0,176197.0
2026-04-14 17:18:24.465664,202233,1609504598152768,2198121943,-1.050176,-0.099552,0.173728,17.8325,-0.49875,0.76125,19.880001,27.640001,12.272,concentric,2,3.0,90455.0,264417.0,161227.0,253363.0,176197.0
2026-04-14 17:18:24.470895,202234,1609504598167209,2198136781,-1.079456,-0.080032,-0.01952,19.2325,0.8925,-1.53125,19.672,27.448002,11.616,concentric,2,3.0,90455.0,264417.0,161227.0,253363.0,176197.0
2026-04-14 17:18:24.471325,202235,1609504598176126,2198145494,-1.079456,-0.080032,-0.01952,16.1875,1.0675,-2.4675,19.672,27.448002,11.616,concentric,2,3.0,90455.0,264417.0,161227.0,253363.0,176197.0
2026-04-14 17:18:24.474240,202236,1609504598190610,2198160343,-1.128256,-0.121024,-0.158112,11.45375,-0.2625,-2.33625,19.576,27.304,12.848001,concentric,2,3.0,90455.0,264417.0,161227.0,253363.0,176197.0
2026-04-14 17:18:24.476632,202237,1609504598199539,2198169040,-1.128256,-0.121024,-0.158112,6.53625,-2.73875,-2.2225,19.576,27.304,12.848001,concentric,2,3.0,90455.0,264417.0,161227.0,253363.0,176197.0
2026-04-14 17:18:24.485475,202238,1609504598214054,2198183920,-1.126304,-0.128832,-0.10736,6.23,-3.40375,-1.63625,18.872002,27.320002,11.84,concentric,2,3.0,90455.0,264417.0,161227.0,253363.0,176197.0
2026-04-14 17:18:24.516986,202250,1609504598223260,2198192725,-1.04432,-0.128832,0.12688,8.5225,-2.5375,-0.805,20.976002,26.920002,11.008,concentric,2,3.0,92198.0,266110.0,163665.0,255105.0,178628.0
2026-04-14 17:18:24.519219,202251,1609504598232290,2198201450,-1.04432,-0.128832,0.12688,9.72125,-1.68,0.07,20.976002,26.920002,11.008,concentric,2,3.0,92198.0,266110.0,163665.0,255105.0,178628.0
2026-04-14 17:18:24.521718,202252,1609504598246782,2198216336,-1.124352,-0.089792,-0.11712,6.58,-1.47875,1.155,20.824001,26.36,11.120001,concentric,2,3.0,92198.0,266110.0,163665.0,255105.0,178628.0
2026-04-14 17:18:24.524230,202253,1609504598255728,2198225058,-1.124352,-0.089792,-0.11712,6.8425,-0.175,1.95125,20.824001,26.36,11.120001,concentric,2,3.0,92198.0,266110.0,163665.0,255105.0,178628.0
2026-04-14 17:18:24.539702,202254,1609504598270364,2198239959,-1.15168,-0.076128,-0.081984,9.625,0.5075,1.42625,20.584002,26.784,12.168,concentric,2,3.0,92198.0,266110.0,163665.0,255105.0,178628.0
2026-04-14 17:18:24.549710,202255,1609504598279305,2198248669,-1.15168,-0.076128,-0.081984,8.3475,-0.4375,1.68875,20.584002,26.784,12.168,concentric,2,3.0,92198.0,266110.0,163665.0,255105.0,178628.0
2026-04-14 17:18:24.558014,202256,1609504598288238,2198257339,-1.130208,-0.027328,0.076128,5.69625,-0.49,1.65375,19.744001,26.568,10.312,concentric,2,3.0,92198.0,266110.0,163665.0,255105.0,178628.0
2026-04-14 17:18:24.572977,202257,1609504598302709,2198272259,-1.138016,-0.05856,-0.062464,2.24875,0.11375,0.0875,20.184,26.392002,12.144001,concentric,2,3.0,92198.0,266110.0,163665.0,255105.0,178628.0
2026-04-14 17:18:24.580456,202258,1609504598311649,2198280930,-1.138016,-0.05856,-0.062464,-1.26875,0.35875,-1.0325,20.184,26.392002,12.144001,concentric,2,3.0,92198.0,266110.0,163665.0,255105.0,178628.0
2026-04-14 17:18:24.615639,202269,1609504598326293,2198296361,-1.046272,-0.13664,0.037088,-6.1075,0.69125,-1.995,20.768002,26.704,11.160001,concentric,2,3.0,96835.0,270697.0,169512.0,259521.0,184721.0
2026-04-14 17:18:24.618078,202270,1609504598335253,2198305072,-1.046272,-0.13664,0.037088,-7.8225,0.39375,-1.60125,20.768002,26.704,11.160001,concentric,2,3.0,96835.0,270697.0,169512.0,259521.0,184721.0
2026-04-14 17:18:24.620569,202271,1609504598349769,2198319892,-1.056032,-0.134688,-0.054656,-4.05125,0.6475,0.2275,20.888,26.216002,11.280001,concentric,2,3.0,96835.0,270697.0,169512.0,259521.0,184721.0
2026-04-14 17:18:24.628128,202272,1609504598358728,2198328641,-1.056032,-0.134688,-0.054656,0.35,0.2975,0.735,20.888,26.216002,11.280001,concentric,2,3.0,96835.0,270697.0,169512.0,259521.0,184721.0
2026-04-14 17:18:24.636714,202273,1609504598367800,2198337314,-1.091168,-0.06832,-0.070272,4.76,0.91,1.4525,20.568,26.392002,12.152,concentric,2,3.0,96835.0,270697.0,169512.0,259521.0,184721.0
2026-04-14 17:18:24.654491,202274,1609504598382329,2198352178,-1.110688,-0.091744,-0.056608,2.765,0.63875,0.875,20.0,26.504002,10.912001,concentric,2,3.0,96835.0,270697.0,169512.0,259521.0,184721.0
2026-04-14 17:18:24.664091,202275,1609504598391254,2198360877,-1.110688,-0.091744,-0.056608,-2.8875,0.0525,-0.6475,20.0,26.504002,10.912001,concentric,2,3.0,96835.0,270697.0,169512.0,259521.0,184721.0
2026-04-14 17:18:24.675603,202276,1609504598405735,2198375747,-1.110688,-0.15616,-0.095648,-8.12,0.30625,-2.05625,21.04,26.056002,11.264001,concentric,2,3.0,96835.0,270697.0,169512.0,259521.0,184721.0
2026-04-14 17:18:24.684063,202277,1609504598414661,2198384442,-1.110688,-0.15616,-0.095648,-9.7125,1.645,-2.59875,21.04,26.056002,11.264001,concentric,2,3.0,96835.0,270697.0,169512.0,259521.0,184721.0
2026-04-14 17:18:24.741586,202288,1609504598429237,2198399389,-1.09312,-0.101504,0.08784,-9.19625,2.7475,-1.81125,20.144001,26.568,12.304001,concentric,2,3.0,101387.0,274284.0,175151.0,262898.0,190600.0
2026-04-14 17:18:24.744106,202289,1609504598438204,2198408099,-1.09312,-0.101504,0.08784,-7.42,3.675,-0.51625,20.144001,26.568,12.304001,concentric,2,3.0,101387.0,274284.0,175151.0,262898.0,190600.0
2026-04-14 17:18:24.746535,202290,1609504598447097,2198416789,-1.079456,-0.113216,-0.003904,-6.0375,3.52625,-0.0175,19.968,26.616001,12.168,concentric,2,3.0,101387.0,274284.0,175151.0,262898.0,190600.0
2026-04-14 17:18:24.749046,202291,1609504598461547,2198431637,-1.079456,-0.113216,-0.003904,-5.03125,2.9925,0.945,19.968,26.616001,12.168,concentric,2,3.0,101387.0,274284.0,175151.0,262898.0,190600.0
2026-04-14 17:18:24.753558,202292,1609504598470542,2198440342,-1.085312,-0.113216,0.140544,-5.13625,2.30125,1.05875,20.536001,26.688002,11.376,concentric,2,3.0,101387.0,274284.0,175151.0,262898.0,190600.0
2026-04-14 17:18:24.755382,202293,1609504598485059,2198455208,-1.198528,-0.124928,-0.03904,-6.7025,2.44125,0.315,20.512001,26.568,11.168,concentric,2,3.0,101387.0,274284.0,175151.0,262898.0,190600.0
2026-04-14 17:18:24.762843,202294,1609504598494043,2198464009,-1.198528,-0.124928,-0.03904,-9.56375,3.80625,0.25375,20.512001,26.568,11.168,concentric,2,3.0,101387.0,274284.0,175151.0,262898.0,190600.0
2026-04-14 17:18:24.778345,202295,1609504598508509,2198476917,-1.069696,-0.18544,-0.044896,-13.27375,4.3925,-0.21875,21.432001,26.368002,10.864,concentric,2,3.0,101387.0,274284.0,175151.0,262898.0,190600.0
2026-04-14 17:18:24.806804,202296,1609504598517753,2198487659,-1.069696,-0.18544,-0.044896,-12.99375,5.005,0.20125,21.432001,26.368002,10.864,concentric,2,3.0,101387.0,274284.0,175151.0,262898.0,190600.0
2026-04-14 17:18:24.857155,202307,1609504598526860,2198496468,-1.089216,-0.113216,0.011712,-8.12,6.8075,0.105,21.256,26.488,10.84,concentric,2,3.0,107563.0,278357.0,182615.0,266467.0,198411.0
2026-04-14 17:18:24.859640,202308,1609504598541357,2198511353,-1.089216,-0.113216,0.011712,-4.03375,7.035,-0.83125,21.256,26.488,10.84,concentric,2,3.0,107563.0,278357.0,182615.0,266467.0,198411.0
2026-04-14 17:18:24.862112,202309,1609504598550335,2198520108,-1.169248,-0.134688,0.076128,-5.3025,5.8975,-1.96,21.128,26.320002,12.264001,concentric,2,3.0,107563.0,278357.0,182615.0,266467.0,198411.0
2026-04-14 17:18:24.864672,202310,1609504598564872,2198534992,-1.182912,-0.160064,-0.035136,-9.84375,5.76625,-2.96625,21.2,26.328001,10.8,concentric,2,3.0,107563.0,278357.0,182615.0,266467.0,198411.0
2026-04-14 17:18:24.867247,202311,1609504598573799,2198543691,-1.182912,-0.160064,-0.035136,-12.24125,7.00875,-3.9725,21.2,26.328001,10.8,concentric,2,3.0,107563.0,278357.0,182615.0,266467.0,198411.0
2026-04-14 17:18:24.869180,202312,1609504598582741,2198552366,-1.182912,-0.160064,-0.128832,-12.74,8.44375,-4.80375,21.2,26.328001,10.8,concentric,2,3.0,107563.0,278357.0,182615.0,266467.0,198411.0
2026-04-14 17:18:24.871594,202313,1609504598597250,2198567243,-1.198528,-0.183488,-0.128832,-12.32875,8.6625,-3.3775,21.288,26.176,12.240001,concentric,2,3.0,107563.0,278357.0,182615.0,266467.0,198411.0
2026-04-14 17:18:24.877082,202314,1609504598606155,2198575930,-1.139968,-0.228384,-0.099552,-10.167501,9.730001,-2.52875,21.352001,26.456001,10.480001,concentric,2,3.0,107563.0,278357.0,182615.0,266467.0,198411.0
2026-04-14 17:18:24.890496,202315,1609504598620609,2198590807,-1.139968,-0.228384,-0.099552,-6.11625,10.78,-1.8375,21.352001,26.456001,10.480001,concentric,2,3.0,107563.0,278357.0,182615.0,266467.0,198411.0
2026-04-14 17:18:24.918089,202326,1609504598629646,2198599583,-1.22,-0.105408,-0.091744,-3.605,12.04,-2.12625,21.656,26.464,10.368,concentric,2,3.0,111624.0,282547.0,187321.0,270107.0,203259.0
2026-04-14 17:18:24.920660,202327,1609504598644272,2198614475,-1.159488,-0.093696,-0.08784,-0.7525,11.94375,-2.96625,20.44,26.712002,11.56,concentric,2,3.0,111624.0,282547.0,187321.0,270107.0,203259.0
2026-04-14 17:18:24.923476,202328,1609504598653191,2198623205,-1.159488,-0.093696,-0.08784,-0.13125,11.4975,-5.38125,20.44,26.712002,11.56,concentric,2,3.0,111624.0,282547.0,187321.0,270107.0,203259.0
2026-04-14 17:18:24.935245,202329,1609504598662178,2198631928,-1.159488,-0.093696,-0.08784,-4.89125,10.3775,-9.8875,20.44,26.712002,11.56,concentric,2,3.0,111624.0,282547.0,187321.0,270107.0,203259.0
2026-04-14 17:18:24.947934,202330,1609504598676654,2198646820,-1.138016,-0.208864,0.121024,-9.52,9.10875,-12.215,20.528002,27.328001,10.960001,concentric,2,3.0,111624.0,282547.0,187321.0,270107.0,203259.0
2026-04-14 17:18:24.957062,202331,1609504598685561,2198655487,-1.204384,-0.245952,-0.216672,-8.49625,9.98375,-12.38125,21.464,26.480001,10.256001,concentric,2,3.0,111624.0,282547.0,187321.0,270107.0,203259.0
2026-04-14 17:18:24.969579,202332,1609504598700066,2198670395,-1.204384,-0.245952,-0.216672,-1.33875,11.45375,-12.3025,21.464,26.480001,10.256001,concentric,2,3.0,111624.0,282547.0,187321.0,270107.0,203259.0
2026-04-14 17:18:24.979177,202333,1609504598709008,2198679072,-1.169248,-0.130784,0.042944,3.255,11.97875,-11.2,21.52,27.128002,10.552,concentric,2,3.0,111624.0,282547.0,187321.0,270107.0,203259.0
2026-04-14 17:18:25.029318,202344,1609504598723955,2198694305,-1.169248,-0.130784,0.042944,1.44375,11.40125,-10.57,21.52,27.128002,10.552,concentric,2,3.0,114676.0,286946.0,191090.0,274215.0,207219.0
2026-04-14 17:18:25.031427,202345,1609504598733050,2198703025,-1.247328,-0.163968,-0.11712,-4.17375,9.6425,-11.6725,21.36,26.648,9.296001,concentric,2,3.0,114676.0,286946.0,191090.0,274215.0,207219.0
2026-04-14 17:18:25.034602,202346,1609504598742030,2198711781,-1.247328,-0.163968,-0.11712,-7.30625,8.25125,-12.2325,21.36,26.648,9.296001,concentric,2,3.0,114676.0,286946.0,191090.0,274215.0,207219.0
2026-04-14 17:18:25.036456,202347,1609504598756521,2198726778,-1.264896,-0.23424,-0.0976,-1.96875,8.4525,-12.4775,19.744001,27.136002,12.104001,concentric,2,3.0,114676.0,286946.0,191090.0,274215.0,207219.0
2026-04-14 17:18:25.039561,202348,1609504598765418,2198735440,-1.231712,-0.199104,-0.031232,3.29875,8.1725,-11.917501,21.288,26.832,11.072001,concentric,2,3.0,114676.0,286946.0,191090.0,274215.0,207219.0
2026-04-14 17:18:25.050602,202349,1609504598779888,2198748254,-1.231712,-0.199104,-0.031232,5.59125,8.16375,-10.42125,21.288,26.832,11.072001,concentric,2,3.0,114676.0,286946.0,191090.0,274215.0,207219.0
2026-04-14 17:18:25.058203,202350,1609504598789047,2198759057,-1.24928,-0.177632,-0.115168,9.3975,6.23875,-7.69125,21.432001,26.496002,11.136001,concentric,2,3.0,114676.0,286946.0,191090.0,274215.0,207219.0
2026-04-14 17:18:25.067826,202351,1609504598797969,2198767746,-1.24928,-0.177632,-0.115168,9.93125,5.145,-6.0025,21.432001,26.496002,11.136001,concentric,2,3.0,114676.0,286946.0,191090.0,274215.0,207219.0
2026-04-14 17:18:25.082197,202352,1609504598812450,2198782650,-1.255136,-0.193248,0.076128,2.6425,4.4625,-5.18,21.472,26.472002,10.944,concentric,2,3.0,114676.0,286946.0,191090.0,274215.0,207219.0
2026-04-14 17:18:25.092190,202353,1609504598821380,2198791319,-1.255136,-0.193248,0.076128,-0.32375,6.01125,-3.99875,21.472,26.472002,10.944,concentric,2,3.0,114676.0,286946.0,191090.0,274215.0,207219.0
2026-04-14 17:18:25.122696,202364,1609504598835927,2198806235,-1.341024,-0.035136,-0.122976,6.58875,9.2225,-6.7025,21.384,26.36,12.648001,concentric,2,3.0,115963.0,290869.0,193046.0,278204.0,209060.0
2026-04-14 17:18:25.122838,202365,1609504598844928,2198814932,-1.309792,-0.070272,-0.11712,13.4575,10.52625,-11.01625,21.384,26.36,13.496,concentric,2,3.0,115963.0,290869.0,193046.0,278204.0,209060.0
2026-04-14 17:18:25.128029,202366,1609504598859466,2198827863,-1.300032,-0.070272,-0.11712,8.26875,8.26875,-15.4875,20.52,26.576002,13.496,concentric,2,3.0,115963.0,290869.0,193046.0,278204.0,209060.0
2026-04-14 17:18:25.139222,202367,1609504598868765,2198838628,-1.245376,-0.197152,0.17568,0.525,5.39,-18.515,20.464,26.688002,12.152,concentric,2,3.0,115963.0,290869.0,193046.0,278204.0,209060.0
2026-04-14 17:18:25.146698,202368,1609504598877672,2198847286,-1.245376,-0.197152,0.17568,-3.14125,6.16875,-17.9725,20.464,26.688002,12.152,concentric,2,3.0,115963.0,290869.0,193046.0,278204.0,209060.0
2026-04-14 17:18:25.173411,202369,1609504598892141,2198862146,-1.28832,-0.138592,-0.142496,-2.6075,8.5225,-18.01625,21.272001,26.480001,12.184001,concentric,2,3.0,115963.0,290869.0,193046.0,278204.0,209060.0
2026-04-14 17:18:25.175948,202370,1609504598901099,2198870843,-1.28832,-0.138592,-0.142496,8.30375,10.5525,-15.846251,21.272001,26.480001,12.184001,concentric,2,3.0,115963.0,290869.0,193046.0,278204.0,209060.0
2026-04-14 17:18:25.203463,202371,1609504598915675,2198885750,-1.292224,0.003904,-0.091744,12.41625,9.905,-17.4475,20.544,26.936,13.864,concentric,2,3.0,115963.0,290869.0,193046.0,278204.0,209060.0
2026-04-14 17:18:25.233321,202382,1609504598924966,2198894496,-1.292224,0.003904,-0.091744,6.4575,7.3675,-19.985,20.544,26.936,13.864,concentric,2,3.0,117561.0,295523.0,195170.0,282565.0,211304.0
2026-04-14 17:18:25.235848,202383,1609504598933974,2198903201,-1.350784,-0.083936,-0.03904,-5.53,5.31125,-22.3825,20.808,27.608002,15.416,concentric,2,3.0,117561.0,295523.0,195170.0,282565.0,211304.0
2026-04-14 17:18:25.238326,202384,1609504598948461,2198918116,-1.251232,-0.124928,0.074176,-10.3425,7.53375,-24.50875,20.136002,27.616001,14.128,concentric,2,3.0,117561.0,295523.0,195170.0,282565.0,211304.0
2026-04-14 17:18:25.240803,202385,1609504598957387,2198926821,-1.251232,-0.124928,0.074176,-7.72625,9.33625,-25.803751,20.136002,27.616001,14.128,concentric,2,3.0,117561.0,295523.0,195170.0,282565.0,211304.0
2026-04-14 17:18:25.242817,202386,1609504598971977,2198941728,-1.300032,0.005856,0.003904,0.7875,9.14375,-23.05625,20.112001,27.664001,13.328001,concentric,2,3.0,117561.0,295523.0,195170.0,282565.0,211304.0
2026-04-14 17:18:25.250472,202387,1609504598980913,2198950436,-1.300032,0.005856,0.003904,4.06,8.12,-22.23375,20.112001,27.664001,13.328001,concentric,2,3.0,117561.0,295523.0,195170.0,282565.0,211304.0
2026-04-14 17:18:25.264725,202388,1609504598995409,2198965374,-1.253184,-0.027328,-0.093696,3.815,7.1925,-22.81125,21.864,27.448002,11.960001,concentric,2,3.0,117561.0,295523.0,195170.0,282565.0,211304.0
2026-04-14 17:18:25.273424,202389,1609504599004323,2198974055,-1.253184,-0.027328,-0.093696,-0.42875,7.7525,-26.85375,21.864,27.448002,11.960001,concentric,2,3.0,117561.0,295523.0,195170.0,282565.0,211304.0
2026-04-14 17:18:25.284291,202390,1609504599013484,2198982747,-1.276608,-0.052704,-0.132736,-3.05375,7.46375,-29.3825,21.528002,27.624,13.744,concentric,2,3.0,117561.0,295523.0,195170.0,282565.0,211304.0
2026-04-14 17:18:25.320378,202401,1609504599028494,2198997932,-1.20048,-0.027328,-0.066368,3.29,7.63875,-29.5925,21.36,27.6,10.200001,concentric,2,3.0,119458.0,296231.0,197758.0,283467.0,213859.0
2026-04-14 17:18:25.323119,202402,1609504599037501,2199006715,-1.20048,-0.027328,-0.066368,5.25875,6.16,-31.885,21.36,27.6,10.200001,concentric,2,3.0,119458.0,296231.0,197758.0,283467.0,213859.0
2026-04-14 17:18:25.325833,202403,1609504599052035,2199021662,-1.253184,0.007808,0.10736,1.46125,4.20875,-32.655,20.096,27.6,11.824,concentric,2,3.0,119458.0,296231.0,197758.0,283467.0,213859.0
2026-04-14 17:18:25.330519,202404,1609504599060963,2199030351,-1.253184,0.007808,0.10736,-3.73625,2.54625,-32.865,20.096,27.6,11.824,concentric,2,3.0,119458.0,296231.0,197758.0,283467.0,213859.0
2026-04-14 17:18:25.341024,202405,1609504599069879,2199039030,-1.223904,-0.023424,0.093696,-5.7575,3.29,-34.30875,19.696001,27.168001,10.128,concentric,2,3.0,119458.0,296231.0,197758.0,283467.0,213859.0
2026-04-14 17:18:25.365960,202406,1609504599084423,2199053935,-1.223904,-0.023424,0.093696,-4.66375,3.955,-36.16375,19.696001,27.168001,10.128,concentric,2,3.0,119458.0,296231.0,197758.0,283467.0,213859.0
2026-04-14 17:18:25.380972,202407,1609504599093394,2199062698,-1.163392,0.072224,0.03904,5.90625,2.12625,-37.31875,19.344002,27.424002,10.168,concentric,2,3.0,119458.0,296231.0,197758.0,283467.0,213859.0
2026-04-14 17:18:25.383478,202408,1609504599107850,2199077611,-1.136064,-0.081984,0.03904,10.99875,-2.26625,-41.8425,18.28,27.704,10.336,concentric,2,3.0,119458.0,296231.0,197758.0,283467.0,213859.0
2026-04-14 17:18:25.387178,202409,1609504599116748,2199086272,-1.136064,-0.081984,0.03904,5.43375,-7.20125,-44.31,18.28,27.704,10.336,concentric,2,3.0,119458.0,296231.0,197758.0,283467.0,213859.0
2026-04-14 17:18:25.417726,202420,1609504599131364,2199101304,-1.214144,-0.101504,0.083936,-3.82375,-9.58125,-42.91,16.68,27.944002,11.136001,concentric,2,3.0,116148.0,295720.0,193620.0,284125.0,209756.0
2026-04-14 17:18:25.420601,202421,1609504599140321,2199110056,-1.214144,-0.101504,0.083936,-4.6375,-8.9425,-39.6025,16.68,27.944002,11.136001,concentric,2,3.0,116148.0,295720.0,193620.0,284125.0,209756.0
2026-04-14 17:18:25.423443,202422,1609504599149256,2199118753,-1.08336,0.021472,0.040992,2.63375,-4.8825,-38.6225,16.416,27.800001,10.056001,concentric,2,3.0,116148.0,295720.0,193620.0,284125.0,209756.0
2026-04-14 17:18:25.434153,202423,1609504599163807,2199133676,-1.08336,0.021472,0.040992,6.30875,-3.7975,-41.34375,16.416,27.800001,10.056001,concentric,2,3.0,116148.0,295720.0,193620.0,284125.0,209756.0
2026-04-14 17:18:25.442186,202424,1609504599172818,2199142452,-1.126304,0.02928,-0.03904,2.765,-5.46,-43.5225,15.536001,27.944002,9.68,concentric,2,3.0,116148.0,295720.0,193620.0,284125.0,209756.0
2026-04-14 17:18:25.457170,202425,1609504599187285,2199157318,-0.993568,-0.197152,-0.109312,-7.1925,-6.3525,-47.52125,15.536001,27.944002,8.120001,concentric,2,3.0,116148.0,295720.0,193620.0,284125.0,209756.0
2026-04-14 17:18:25.465644,202426,1609504599196234,2199165996,-0.993568,-0.197152,-0.109312,-14.525,-8.81125,-50.33875,15.016001,28.288002,8.120001,concentric,2,3.0,116148.0,295720.0,193620.0,284125.0,209756.0
2026-04-14 17:18:25.475994,202427,1609504599205171,2199174659,-0.993568,-0.197152,-0.109312,-10.92875,-9.9225,-48.71125,15.016001,28.288002,8.120001,concentric,2,3.0,116148.0,295720.0,193620.0,284125.0,209756.0
2026-04-14 17:18:25.488466,202428,1609504599219617,2199189501,-0.977952,-0.076128,0.099552,3.19375,-8.54,-44.40625,13.960001,28.680002,10.752001,concentric,2,3.0,116148.0,295720.0,193620.0,284125.0,209756.0
2026-04-14 17:18:25.564694,202439,1609504599228628,2199198228,-1.007232,0.03904,0.011712,11.97875,-6.6325,-45.28125,13.392,29.04,10.448001,eccentric,2,3.0,110469.0,289107.0,187068.0,279873.0,202885.0
2026-04-14 17:18:25.571858,202440,1609504599243159,2199213216,-1.007232,0.03904,0.011712,7.9275,-8.75,-48.71125,13.392,29.04,10.448001,eccentric,2,3.0,110469.0,289107.0,187068.0,279873.0,202885.0
2026-04-14 17:18:25.574733,202441,1609504599252184,2199221923,-0.921344,-0.0976,-0.042944,-3.92,-13.11625,-52.5175,11.872001,29.408,10.128,eccentric,2,3.0,110469.0,289107.0,187068.0,279873.0,202885.0
2026-04-14 17:18:25.592058,202442,1609504599266650,2199236794,-0.921344,-0.0976,-0.042944,-10.4475,-15.75,-54.5475,11.872001,29.408,10.128,eccentric,2,3.0,110469.0,289107.0,187068.0,279873.0,202885.0
2026-04-14 17:18:25.592479,202443,1609504599275543,2199245575,-0.884256,-0.30256,-0.033184,-10.535,-16.12625,-53.15625,11.768001,29.44,10.144,eccentric,2,3.0,110469.0,289107.0,187068.0,279873.0,202885.0
2026-04-14 17:18:25.592847,202444,1609504599284457,2199254243,-0.884256,-0.30256,-0.033184,-6.9475,-14.105001,-49.16625,11.768001,29.44,10.144,eccentric,2,3.0,110469.0,289107.0,187068.0,279873.0,202885.0
2026-04-14 17:18:25.593088,202445,1609504599298913,2199269103,-0.845216,-0.10736,0.062464,-3.395,-12.9325,-44.9575,11.280001,30.04,10.528001,eccentric,2,3.0,110469.0,289107.0,187068.0,279873.0,202885.0
2026-04-14 17:18:25.593387,202446,1609504599307811,2199277861,-0.845216,0.0488,0.076128,4.76875,-10.5525,-40.915,11.280001,30.04,10.528001,eccentric,2,3.0,110469.0,289107.0,187068.0,279873.0,202885.0
2026-04-14 17:18:25.593649,202447,1609504599322310,2199290745,-0.815936,0.0488,0.076128,6.2125,-8.93375,-46.095,10.56,29.944002,8.424001,eccentric,2,3.0,110469.0,289107.0,187068.0,279873.0,202885.0
2026-04-14 17:18:25.620383,202458,1609504599331663,2199301656,-0.737856,-0.349408,0.111264,-6.895,-11.7425,-54.46,9.936001,30.080002,10.280001,eccentric,2,3.0,105725.0,291500.0,179707.0,281179.0,196041.0
2026-04-14 17:18:25.623074,202459,1609504599346194,2199314566,-0.737856,-0.349408,0.111264,-15.44375,-14.9975,-50.32125,9.936001,30.080002,10.280001,eccentric,2,3.0,105725.0,291500.0,179707.0,281179.0,196041.0
2026-04-14 17:18:25.625585,202460,1609504599355377,2199325351,-0.74176,-0.316224,-0.007808,-9.79125,-13.81625,-41.67625,7.736001,30.544,11.296001,eccentric,2,3.0,105725.0,291500.0,179707.0,281179.0,196041.0
2026-04-14 17:18:25.633149,202461,1609504599364359,2199334039,-0.74176,-0.316224,-0.007808,-4.43625,-12.5125,-37.65125,7.736001,30.544,11.296001,eccentric,2,3.0,105725.0,291500.0,179707.0,281179.0,196041.0
2026-04-14 17:18:25.649356,202462,1609504599378855,2199348919,-0.698816,-0.003904,0.10736,3.73625,-11.05125,-33.74,9.272,30.520002,10.200001,eccentric,2,3.0,105725.0,291500.0,179707.0,281179.0,196041.0
2026-04-14 17:18:25.658055,202463,1609504599387780,2199357599,-0.698816,-0.003904,0.10736,-3.89375,-14.27125,-36.8375,9.272,30.520002,10.200001,eccentric,2,3.0,105725.0,291500.0,179707.0,281179.0,196041.0
2026-04-14 17:18:25.673152,202464,1609504599402277,2199372502,-0.7808,-0.201056,0.140544,-11.20875,-17.64875,-38.920002,8.240001,30.704002,10.456,eccentric,2,3.0,105725.0,291500.0,179707.0,281179.0,196041.0
2026-04-14 17:18:25.680410,202465,1609504599411202,2199381199,-0.646112,-0.47824,0.140544,-18.8825,-16.84375,-40.005,7.456,31.088001,10.160001,eccentric,2,3.0,105725.0,291500.0,179707.0,281179.0,196041.0
2026-04-14 17:18:25.699232,202466,1609504599425698,2199394064,-0.646112,-0.47824,0.140544,-15.5575,-13.02,-35.95375,7.456,31.088001,10.160001,eccentric,2,3.0,105725.0,291500.0,179707.0,281179.0,196041.0
2026-04-14 17:18:25.726886,202477,1609504599434887,2199404841,-0.66368,-0.296704,-0.033184,-6.3525,-8.1725,-25.22625,6.672,30.816002,9.896001,eccentric,2,3.0,104164.0,293612.0,176607.0,281523.0,193633.0
2026-04-14 17:18:25.729397,202478,1609504599443853,2199413611,-0.66368,-0.296704,-0.033184,2.275,-5.87125,-18.29625,6.672,30.816002,9.896001,eccentric,2,3.0,104164.0,293612.0,176607.0,281523.0,193633.0
2026-04-14 17:18:25.731769,202479,1609504599458422,2199428521,-0.776896,-0.003904,-0.191296,4.52375,-5.80125,-15.98625,6.72,31.008001,11.368001,eccentric,2,3.0,104164.0,293612.0,176607.0,281523.0,193633.0
2026-04-14 17:18:25.736926,202480,1609504599467346,2199437188,-0.776896,-0.003904,-0.191296,-2.1525,-10.29875,-18.3575,6.72,31.008001,11.368001,eccentric,2,3.0,104164.0,293612.0,176607.0,281523.0,193633.0
2026-04-14 17:18:25.751864,202481,1609504599481801,2199452071,-0.609024,-0.2928,0.16592,-3.5525,-11.8825,-22.91625,6.232,31.424002,11.592001,eccentric,2,3.0,104164.0,293612.0,176607.0,281523.0,193633.0
2026-04-14 17:18:25.760661,202482,1609504599490738,2199460807,-0.552416,-0.445056,0.238144,-14.4725,-10.35125,-23.03,5.976,31.568,11.992001,eccentric,2,3.0,104164.0,293612.0,176607.0,281523.0,193633.0
2026-04-14 17:18:25.770691,202483,1609504599499643,2199469486,-0.552416,-0.445056,0.238144,-11.96125,-3.66625,-14.95375,5.976,31.568,11.992001,eccentric,2,3.0,104164.0,293612.0,176607.0,281523.0,193633.0
2026-04-14 17:18:25.787431,202484,1609504599514139,2199484371,-0.671488,-0.083936,0.150304,-9.66,2.58125,-8.82,6.976,31.12,9.784,eccentric,2,3.0,104164.0,293612.0,176607.0,281523.0,193633.0
2026-04-14 17:18:25.794196,202485,1609504599523080,2199493097,-0.671488,-0.083936,0.150304,-5.075,7.3325,-6.2475,6.976,31.12,9.784,eccentric,2,3.0,104164.0,293612.0,176607.0,281523.0,193633.0
2026-04-14 17:18:25.824693,202496,1609504599537586,2199506051,-0.708576,-0.208864,-0.085888,-0.1575,8.5225,-10.1325,6.872,30.808,9.848001,eccentric,2,3.0,105779.0,294207.0,178675.0,281628.0,195502.0
2026-04-14 17:18:25.827196,202497,1609504599546839,2199516840,-0.708576,-0.208864,-0.085888,-3.57875,6.51875,-13.658751,6.872,30.808,9.848001,eccentric,2,3.0,105779.0,294207.0,178675.0,281628.0,195502.0
2026-04-14 17:18:25.832211,202498,1609504599561410,2199531729,-0.65392,-0.406016,0.033184,-7.42875,7.315,-8.12875,6.544,31.296001,10.656,eccentric,2,3.0,105779.0,294207.0,178675.0,281628.0,195502.0
2026-04-14 17:18:25.840686,202499,1609504599570331,2199540414,-0.689056,-0.20496,0.040992,-6.41375,11.68125,0.49875,6.736001,31.352001,12.328001,eccentric,2,3.0,105779.0,294207.0,178675.0,281628.0,195502.0
2026-04-14 17:18:25.850712,202500,1609504599579274,2199549098,-0.689056,-0.20496,0.040992,-10.08,15.7325,7.1575,6.736001,31.352001,12.328001,eccentric,2,3.0,105779.0,294207.0,178675.0,281628.0,195502.0
2026-04-14 17:18:25.863447,202501,1609504599593812,2199564007,-0.77104,-0.119072,0.076128,-12.08375,16.10875,12.1625,7.392,31.488,10.416,eccentric,2,3.0,105779.0,294207.0,178675.0,281628.0,195502.0
2026-04-14 17:18:25.872205,202502,1609504599602769,2199572730,-0.77104,-0.119072,0.076128,-6.95625,13.3,12.88875,7.392,31.488,10.416,eccentric,2,3.0,105779.0,294207.0,178675.0,281628.0,195502.0
2026-04-14 17:18:25.908284,202503,1609504599617260,2199585611,-0.75152,-0.316224,-0.140544,-3.7625,10.7975,9.0825,6.768,31.28,8.832001,eccentric,2,3.0,105779.0,294207.0,178675.0,281628.0,195502.0
2026-04-14 17:18:25.933117,202504,1609504599626406,2199596367,-0.75152,-0.316224,-0.140544,-5.81875,8.40875,8.3475,6.768,31.28,8.832001,eccentric,2,3.0,105779.0,294207.0,178675.0,281628.0,195502.0
2026-04-14 17:18:25.960662,202515,1609504599635360,2199605118,-0.735904,-0.324032,0.06832,-8.68875,6.16,13.8425,7.024,31.336002,10.8,eccentric,2,3.0,109049.0,295810.0,182578.0,282822.0,199582.0
2026-04-14 17:18:25.963148,202516,1609504599649867,2199620044,-0.735904,-0.324032,0.025376,-6.20375,8.30375,21.35,7.024,31.336002,10.8,eccentric,2,3.0,109049.0,295810.0,182578.0,282822.0,199582.0
2026-04-14 17:18:25.965609,202517,1609504599658748,2199628730,-0.831552,-0.179584,0.025376,-2.7475,12.04875,25.147501,7.688,31.288002,10.528001,eccentric,2,3.0,109049.0,295810.0,182578.0,282822.0,199582.0
2026-04-14 17:18:25.968030,202518,1609504599673382,2199643701,-0.948672,-0.267424,0.033184,-12.136251,11.3225,25.41875,8.128,31.520002,11.024,eccentric,2,3.0,109049.0,295810.0,182578.0,282822.0,199582.0
2026-04-14 17:18:25.970652,202519,1609504599682324,2199652442,-0.948672,-0.267424,0.033184,-14.65625,11.89125,33.145,8.128,31.520002,11.024,eccentric,2,3.0,109049.0,295810.0,182578.0,282822.0,199582.0
2026-04-14 17:18:25.973160,202520,1609504599696856,2199665318,-0.905728,-0.265472,-0.286944,-6.3875,15.33,34.43125,8.04,31.504002,10.872001,eccentric,2,3.0,109049.0,295810.0,182578.0,282822.0,199582.0
2026-04-14 17:18:25.976922,202521,1609504599706135,2199676067,-0.905728,-0.265472,-0.286944,-5.46875,13.41375,33.3025,8.04,31.504002,10.872001,eccentric,2,3.0,109049.0,295810.0,182578.0,282822.0,199582.0
2026-04-14 17:18:26.006735,202522,1609504599715130,2199684788,-0.835456,-0.240096,-0.11712,-7.63,6.67625,39.48,8.312,31.272001,10.144,eccentric,2,3.0,109049.0,295810.0,182578.0,282822.0,199582.0
2026-04-14 17:18:26.044332,202533,1609504599729617,2199699830,-0.835456,-0.240096,-0.11712,-9.16125,1.75,44.28375,8.312,31.272001,10.144,eccentric,2,3.0,112437.0,295829.0,187524.0,283195.0,204197.0
2026-04-14 17:18:26.046890,202534,1609504599738647,2199708946,-0.972096,-0.171776,0.259616,-10.045,-0.02625,47.46875,10.480001,31.000002,8.928,eccentric,2,3.0,112437.0,295829.0,187524.0,283195.0,204197.0
2026-04-14 17:18:26.049417,202535,1609504599753395,2199721892,-0.921344,-0.167872,-0.122976,-5.46875,5.83625,50.72375,11.296001,30.512001,8.816,eccentric,2,3.0,112437.0,295829.0,187524.0,283195.0,204197.0
2026-04-14 17:18:26.051870,202536,1609504599762812,2199732787,-0.921344,-0.167872,-0.122976,-0.76125,11.83875,45.73625,11.296001,30.512001,8.816,eccentric,2,3.0,112437.0,295829.0,187524.0,283195.0,204197.0
2026-04-14 17:18:26.054326,202537,1609504599772169,2199741541,-0.89792,-0.249856,0.109312,-6.20375,11.41875,45.675,11.960001,30.616001,9.888001,eccentric,2,3.0,112437.0,295829.0,187524.0,283195.0,204197.0
2026-04-14 17:18:26.056871,202538,1609504599786816,2199756602,-0.89792,-0.249856,0.109312,-14.42875,10.43875,50.61,11.960001,30.616001,9.888001,eccentric,2,3.0,112437.0,295829.0,187524.0,283195.0,204197.0
2026-04-14 17:18:26.064370,202539,1609504599795776,2199765401,-0.991616,-0.218624,-0.07808,-23.40625,8.855001,55.93875,12.256001,30.160002,9.712001,eccentric,2,3.0,112437.0,295829.0,187524.0,283195.0,204197.0
2026-04-14 17:18:26.079465,202540,1609504599810244,2199780283,-0.991616,-0.218624,-0.07808,-21.0525,7.77875,64.18125,12.256001,30.160002,9.712001,eccentric,2,3.0,112437.0,295829.0,187524.0,283195.0,204197.0
2026-04-14 17:18:26.090494,202541,1609504599819154,2199788954,-1.007232,0.023424,-0.101504,-5.4775,8.75875,63.41125,13.032001,29.960001,8.248,eccentric,2,3.0,112437.0,295829.0,187524.0,283195.0,204197.0
2026-04-14 17:18:26.128070,202552,1609504599828063,2199798137,-1.007232,0.023424,-0.101504,-2.05625,5.88875,53.29625,13.032001,29.960001,8.248,eccentric,2,3.0,111211.0,292903.0,186812.0,281010.0,203125.0
2026-04-14 17:18:26.130571,202553,1609504599842623,2199811024,-0.979904,-0.21472,-0.113216,-10.00125,-1.68875,50.49625,13.944,29.496002,8.568001,eccentric,2,3.0,111211.0,292903.0,186812.0,281010.0,203125.0
2026-04-14 17:18:26.133147,202554,1609504599851939,2199821832,-0.923296,-0.281088,0.191296,-17.745,-4.57625,54.5125,15.992001,29.424002,9.392,eccentric,2,3.0,111211.0,292903.0,186812.0,281010.0,203125.0
2026-04-14 17:18:26.135491,202555,1609504599866530,2199836757,-0.923296,-0.281088,0.191296,-23.98375,-2.0125,61.4775,14.952001,29.424002,9.392,eccentric,2,3.0,111211.0,292903.0,186812.0,281010.0,203125.0
2026-04-14 17:18:26.144657,202556,1609504599875455,2199845466,-1.042368,0.083936,-0.22448,-16.35375,2.49375,68.871254,15.744,29.000002,8.328,eccentric,2,3.0,111211.0,292903.0,186812.0,281010.0,203125.0
2026-04-14 17:18:26.154777,202557,1609504599884389,2199854144,-1.042368,0.083936,-0.22448,-1.4525,5.81,62.982502,15.744,29.000002,8.328,eccentric,2,3.0,111211.0,292903.0,186812.0,281010.0,203125.0
2026-04-14 17:18:26.171532,202558,1609504599898883,2199869010,-0.991616,-0.033184,-0.062464,3.0625,-1.3125,50.56625,14.624001,29.104002,9.784,eccentric,2,3.0,111211.0,292903.0,186812.0,281010.0,203125.0
2026-04-14 17:18:26.181220,202559,1609504599907803,2199877683,-0.991616,-0.033184,-0.062464,-0.6825,-11.4625,44.7475,14.624001,29.104002,9.784,eccentric,2,3.0,111211.0,292903.0,186812.0,281010.0,203125.0
2026-04-14 17:18:26.193432,202560,1609504599922263,2199892583,-0.909632,-0.23424,0.236192,-10.5175,-17.00125,45.15,16.992,28.320002,7.808001,eccentric,2,3.0,111211.0,292903.0,186812.0,281010.0,203125.0
2026-04-14 17:18:26.227215,202571,1609504599931571,2199901296,-0.909632,-0.23424,0.236192,-14.27125,-13.74625,52.115,16.992,28.320002,7.808001,eccentric,2,3.0,110523.0,292465.0,186150.0,280234.0,202339.0
2026-04-14 17:18:26.229662,202572,1609504599946165,2199916253,-1.118496,0.003904,0.05856,-9.1,-6.195,58.065,17.512001,27.512001,8.256001,eccentric,2,3.0,110523.0,292465.0,186150.0,280234.0,202339.0
2026-04-14 17:18:26.232189,202573,1609504599955126,2199925038,-1.052128,0.027328,-0.222528,1.1375,1.74125,53.795002,17.712,27.416,9.008,eccentric,2,3.0,110523.0,292465.0,186150.0,280234.0,202339.0
2026-04-14 17:18:26.234238,202574,1609504599964051,2199933741,-1.052128,0.027328,-0.222528,-1.82875,-0.7,43.09375,17.712,27.416,9.008,eccentric,2,3.0,110523.0,292465.0,186150.0,280234.0,202339.0
2026-04-14 17:18:26.249752,202575,1609504599978536,2199948621,-0.968192,-0.210816,-0.08784,-9.8,-9.54625,41.0025,17.888,27.408,8.944,eccentric,2,3.0,110523.0,292465.0,186150.0,280234.0,202339.0
2026-04-14 17:18:26.277099,202576,1609504599987436,2199957291,-0.968192,-0.210816,-0.08784,-14.9625,-14.30625,43.1025,17.888,27.408,8.944,eccentric,2,3.0,110523.0,292465.0,186150.0,280234.0,202339.0
2026-04-14 17:18:26.277691,202577,1609504600001997,2199972199,-1.16144,0.138592,0.308416,-9.6775,-12.20625,48.58,18.68,27.032001,7.696001,eccentric,2,3.0,110523.0,292465.0,186150.0,280234.0,202339.0
2026-04-14 17:18:26.280277,202578,1609504600010888,2199980874,-1.16144,0.138592,0.308416,7.21875,1.60125,47.92375,18.68,27.032001,7.696001,eccentric,2,3.0,110523.0,292465.0,186150.0,280234.0,202339.0
2026-04-14 17:18:26.305055,202579,1609504600025360,2199993711,-1.159488,0.05856,-0.1952,7.0175,10.03625,29.68875,19.496,27.096,8.928,eccentric,2,3.0,110523.0,292465.0,186150.0,280234.0,202339.0
2026-04-14 17:18:26.336767,202590,1609504600034643,2200004477,-0.944768,-0.187392,-0.054656,-17.38625,4.3575,23.205,20.720001,26.312002,7.568,eccentric,2,3.0,109169.0,289149.0,185332.0,277193.0,201173.0
2026-04-14 17:18:26.339728,202591,1609504600043660,2200013248,-0.944768,-0.187392,-0.054656,-32.52375,-1.9775,28.945,20.720001,26.312002,7.568,eccentric,2,3.0,109169.0,289149.0,185332.0,277193.0,201173.0
2026-04-14 17:18:26.342237,202592,1609504600058262,2200028176,-1.243424,0.046848,0.320128,-25.87375,-11.7775,33.9675,21.712002,26.256,7.368001,eccentric,2,3.0,109169.0,289149.0,185332.0,277193.0,201173.0
2026-04-14 17:18:26.344584,202593,1609504600067269,2200036856,-1.243424,0.046848,0.320128,2.24875,-10.0625,39.5675,21.712002,26.256,7.368001,eccentric,2,3.0,109169.0,289149.0,185332.0,277193.0,201173.0
2026-04-14 17:18:26.352872,202594,1609504600081760,2200051758,-1.167296,0.191296,-0.187392,26.97625,-0.7,26.45125,22.216002,25.960001,7.936,eccentric,2,3.0,109169.0,289149.0,185332.0,277193.0,201173.0
2026-04-14 17:18:26.359695,202595,1609504600090695,2200060465,-1.167296,0.191296,-0.187392,25.69,-1.505,9.96625,22.216002,25.960001,7.936,eccentric,2,3.0,109169.0,289149.0,185332.0,277193.0,201173.0
2026-04-14 17:18:26.370698,202596,1609504600099645,2200069143,-1.13216,-0.13664,-0.222528,-6.335,-10.92,10.15875,22.000002,26.04,8.072001,eccentric,2,3.0,109169.0,289149.0,185332.0,277193.0,201173.0
2026-04-14 17:18:26.385384,202597,1609504600114107,2200084002,-1.301984,-0.140544,0.236192,-26.4775,-14.035,16.45,23.312,26.256,9.568001,eccentric,2,3.0,109169.0,289149.0,185332.0,277193.0,201173.0
2026-04-14 17:18:26.392820,202598,1609504600123042,2200092678,-1.301984,-0.140544,0.236192,-17.57,-15.47,16.8875,23.312,26.256,9.568001,eccentric,2,3.0,109169.0,289149.0,185332.0,277193.0,201173.0
2026-04-14 17:18:26.428032,202609,1609504600137645,2200107686,-1.077504,0.13664,-0.197152,13.7025,-14.06125,22.35625,23.408,26.28,9.144,eccentric,2,3.0,108893.0,282840.0,185719.0,270805.0,200301.0
2026-04-14 17:18:26.430995,202610,1609504600146603,2200116423,-1.077504,0.13664,-0.197152,34.02875,1.3475,10.36,23.408,26.28,9.144,eccentric,2,3.0,108893.0,282840.0,185719.0,270805.0,200301.0
2026-04-14 17:18:26.433529,202611,1609504600161106,2200131403,-1.27856,-0.099552,0.07808,13.37875,0.1925,-6.11625,23.232,26.632002,10.376,eccentric,2,3.0,108893.0,282840.0,185719.0,270805.0,200301.0
2026-04-14 17:18:26.441008,202612,1609504600170033,2200140125,-1.27856,-0.099552,0.07808,-16.065,-9.8,8.715,23.232,26.632002,10.376,eccentric,2,3.0,108893.0,282840.0,185719.0,270805.0,200301.0
2026-04-14 17:18:26.448469,202613,1609504600179010,2200148859,-1.057984,-0.101504,0.160064,-22.51375,-5.6525,16.94,23.072,27.024002,10.52,eccentric,2,3.0,108893.0,282840.0,185719.0,270805.0,200301.0
2026-04-14 17:18:26.463496,202614,1609504600193477,2200163750,-1.057984,-0.101504,-0.003904,-11.08625,-4.59375,6.5625,23.072,27.024002,10.52,eccentric,2,3.0,108893.0,282840.0,185719.0,270805.0,200301.0
2026-04-14 17:18:26.471690,202615,1609504600202449,2200172423,-1.399584,0.197152,-0.003904,15.96875,-7.35,11.68125,23.056002,26.320002,10.352,eccentric,2,3.0,108893.0,282840.0,185719.0,270805.0,200301.0
2026-04-14 17:18:26.488296,202616,1609504600216955,2200187288,-1.192672,-0.150304,-0.152256,30.0825,1.39125,7.105,23.456001,26.416,10.080001,eccentric,2,3.0,108893.0,282840.0,185719.0,270805.0,200301.0
2026-04-14 17:18:26.498290,202617,1609504600225898,2200195957,-1.192672,-0.150304,-0.152256,6.2475,-3.52625,-10.955,23.456001,26.416,10.080001,eccentric,2,3.0,108893.0,282840.0,185719.0,270805.0,200301.0
2026-04-14 17:18:26.530915,202628,1609504600235472,2200204784,-1.009184,-0.05856,0.076128,-11.36625,-12.76625,2.86125,23.296001,26.016,9.592,eccentric,2,3.0,108540.0,281108.0,185062.0,269188.0,199838.0
2026-04-14 17:18:26.533643,202629,1609504600250090,2200219722,-1.009184,-0.05856,0.076128,-7.7875,-6.16,7.9975,23.296001,26.016,9.592,eccentric,2,3.0,108540.0,281108.0,185062.0,269188.0,199838.0
2026-04-14 17:18:26.535429,202630,1609504600259007,2200228395,-1.333216,-0.00976,0.08784,1.19,-5.71375,-5.2675,22.976002,26.312002,10.904,eccentric,2,3.0,108540.0,281108.0,185062.0,269188.0,199838.0
2026-04-14 17:18:26.545991,202631,1609504600273503,2200243270,-1.333216,-0.00976,0.08784,13.335,-8.44375,1.61875,22.976002,26.312002,10.904,eccentric,2,3.0,108540.0,281108.0,185062.0,269188.0,199838.0
2026-04-14 17:18:26.555538,202632,1609504600282417,2200251947,-1.177056,0.031232,-0.0976,21.428751,-4.17375,2.66,22.648,26.576002,8.360001,eccentric,2,3.0,108540.0,281108.0,185062.0,269188.0,199838.0
2026-04-14 17:18:26.567790,202633,1609504600296881,2200266824,-1.290272,-0.132736,0.08784,12.85375,-5.25,-9.52,22.640001,26.480001,10.328,eccentric,2,3.0,108540.0,281108.0,185062.0,269188.0,199838.0
2026-04-14 17:18:26.576695,202634,1609504600305806,2200275513,-1.290272,-0.132736,0.08784,-3.17625,-10.42125,-3.10625,22.640001,26.480001,10.328,eccentric,2,3.0,108540.0,281108.0,185062.0,269188.0,199838.0
2026-04-14 17:18:26.585228,202635,1609504600314740,2200284186,-1.091168,-0.02928,0.042944,-1.89,-8.18125,7.84,22.640001,26.480001,12.072001,eccentric,2,3.0,108540.0,281108.0,185062.0,269188.0,199838.0
2026-04-14 17:18:26.598336,202636,1609504600329223,2200299149,-1.091168,-0.02928,0.042944,9.0825,-2.05625,1.4175,22.552002,26.160002,12.072001,eccentric,2,3.0,108540.0,281108.0,185062.0,269188.0,199838.0
2026-04-14 17:18:26.702939,202647,1609504600338278,2200307898,-1.214144,0.095648,0.05856,18.20875,-2.54625,-2.73875,22.472,26.288002,11.624001,eccentric,2,3.0,107830.0,277744.0,184812.0,265236.0,199660.0
2026-04-14 17:18:26.713010,202648,1609504600352755,2200322810,-1.214144,0.095648,0.05856,20.9125,-5.81,1.75,22.472,26.288002,11.624001,eccentric,2,3.0,107830.0,277744.0,184812.0,265236.0,199660.0
2026-04-14 17:18:26.715605,202649,1609504600361690,2200331493,-1.145824,-0.076128,-0.169824,13.4575,-6.39625,-2.65125,21.824001,26.424002,12.552001,eccentric,2,3.0,107830.0,277744.0,184812.0,265236.0,199660.0
2026-04-14 17:18:26.717921,202650,1609504600376146,2200346350,-1.22976,-0.070272,-0.07808,2.7475,-9.7825,-8.0325,21.424002,26.584002,13.856001,eccentric,2,3.0,107830.0,277744.0,184812.0,265236.0,199660.0
2026-04-14 17:18:26.720419,202651,1609504600385019,2200355071,-1.22976,-0.070272,-0.07808,5.83625,-11.41875,-3.21125,21.424002,26.584002,13.856001,eccentric,2,3.0,107830.0,277744.0,184812.0,265236.0,199660.0
2026-04-14 17:18:26.728160,202652,1609504600393961,2200363765,-1.22976,-0.070272,-0.07808,19.897501,-8.8025,-3.78,21.424002,26.584002,13.856001,eccentric,2,3.0,107830.0,277744.0,184812.0,265236.0,199660.0
2026-04-14 17:18:26.730674,202653,1609504600408416,2200378647,-1.155584,0.052704,0.07808,30.975,-7.42,-10.14125,21.128,26.240002,12.464001,eccentric,2,3.0,107830.0,277744.0,184812.0,265236.0,199660.0
2026-04-14 17:18:26.733082,202654,1609504600417431,2200387321,-1.223904,-0.007808,-0.074176,30.625,-7.8225,-10.98125,20.992,26.056002,12.52,eccentric,2,3.0,107830.0,277744.0,184812.0,265236.0,199660.0
2026-04-14 17:18:26.762528,202665,1609504600431885,2200402231,-1.223904,-0.007808,-0.074176,21.4025,-9.84375,-9.30125,20.992,26.056002,12.52,eccentric,2,3.0,102495.0,274430.0,178048.0,262801.0,192709.0
2026-04-14 17:18:26.763196,202666,1609504600440790,2200410914,-1.079456,-0.173728,0.066368,8.9425,-11.78625,-7.62125,20.616001,26.136002,13.144001,eccentric,2,3.0,102495.0,274430.0,178048.0,262801.0,192709.0
2026-04-14 17:18:26.765271,202667,1609504600455333,2200423788,-1.079456,-0.095648,-0.128832,2.49375,-12.34625,-2.68625,20.616001,26.136002,13.144001,eccentric,2,3.0,102495.0,274430.0,178048.0,262801.0,192709.0
2026-04-14 17:18:26.767864,202668,1609504600464743,2200434594,-1.179008,-0.095648,-0.128832,6.88625,-10.57875,3.85,20.232,26.28,13.392,eccentric,2,3.0,102495.0,274430.0,178048.0,262801.0,192709.0
2026-04-14 17:18:26.770255,202669,1609504600473675,2200443304,-1.179008,-0.095648,-0.128832,17.89375,-7.35,4.22625,20.232,26.28,13.392,eccentric,2,3.0,102495.0,274430.0,178048.0,262801.0,192709.0
2026-04-14 17:18:26.773050,202670,1609504600488188,2200458211,-1.08336,0.033184,0.091744,25.52375,-5.7575,-0.105,19.992,26.328001,12.952001,eccentric,2,3.0,102495.0,274430.0,178048.0,262801.0,192709.0
2026-04-14 17:18:26.775602,202671,1609504600497154,2200466940,-1.052128,0.060512,-0.03904,31.036251,-5.2675,-2.56375,20.344002,26.088001,12.968,eccentric,2,3.0,102495.0,274430.0,178048.0,262801.0,192709.0
2026-04-14 17:18:26.783105,202672,1609504600511636,2200481830,-1.052128,0.060512,-0.03904,27.755001,-5.39,-7.2975,20.344002,26.088001,12.968,eccentric,2,3.0,102495.0,274430.0,178048.0,262801.0,192709.0
2026-04-14 17:18:26.790563,202673,1609504600520564,2200490510,-1.05408,-0.040992,0.163968,15.8025,-7.81375,-12.6875,21.264002,25.456001,11.912001,eccentric,2,3.0,102495.0,274430.0,178048.0,262801.0,192709.0
2026-04-14 17:18:26.829449,202684,1609504600535499,2200505423,-1.05408,-0.040992,0.163968,5.3375,-9.625,-13.1775,21.264002,25.456001,11.912001,eccentric,2,3.0,95736.0,270890.0,169586.0,260149.0,183823.0
2026-04-14 17:18:26.831693,202685,1609504600544531,2200514222,-1.100928,-0.132736,0.208864,4.36625,-7.665,-12.5125,21.416,25.888,12.880001,eccentric,2,3.0,95736.0,270890.0,169586.0,260149.0,183823.0
2026-04-14 17:18:26.837725,202686,1609504600553506,2200522940,-1.100928,-0.132736,0.208864,7.5075,-3.49125,-15.09375,21.416,25.888,12.880001,eccentric,2,3.0,95736.0,270890.0,169586.0,260149.0,183823.0
2026-04-14 17:18:26.839156,202687,1609504600568020,2200537841,-1.231712,-0.081984,-0.230336,10.80625,-1.70625,-17.5,20.464,25.760002,12.936001,eccentric,2,3.0,95736.0,270890.0,169586.0,260149.0,183823.0
2026-04-14 17:18:26.847753,202688,1609504600577038,2200546543,-1.19072,-0.060512,-0.083936,21.16625,0.81375,-16.52,20.624,25.688002,13.624001,eccentric,2,3.0,95736.0,270890.0,169586.0,260149.0,183823.0
