pc_time,serial_num,sensor_ts,host_ts,ax,ay,az,gx,gy,gz,mx,my,mz,phase,rpe,weight_kg,ppg_a,ppg_b,ppg_c,ppg_d,ppg_e
2026-04-14 17:18:28.073709,202916,1609504601802814,2201773150,-1.204384,-0.130784,-0.197152,4.08625,22.26,-50.5925,19.552,25.936,12.368001,eccentric,2,3.0,128146.0,291466.0,211812.0,282097.0,226890.0
2026-04-14 17:18:28.087241,202917,1609504601811761,2201781821,-1.214144,0.128832,-0.027328,8.56625,21.6125,-49.02625,18.864,25.944002,10.656,eccentric,2,3.0,128146.0,291466.0,211812.0,282097.0,226890.0
2026-04-14 17:18:28.111785,202918,1609504601820760,2201790502,-1.214144,0.128832,-0.027328,11.795,20.85125,-49.46375,18.864,25.944002,10.656,eccentric,2,3.0,128146.0,291466.0,211812.0,282097.0,226890.0
2026-04-14 17:18:28.136757,202919,1609504601835264,2201805471,-1.153632,0.0488,-0.021472,8.6975,20.09875,-56.2275,19.168001,25.912,11.104,eccentric,2,3.0,128146.0,291466.0,211812.0,282097.0,226890.0
2026-04-14 17:18:28.184137,202930,1609504601844573,2201814179,-1.153632,-0.150304,-0.15616,2.1175,20.7375,-63.105,19.168001,25.912,11.104,eccentric,2,3.0,134143.0,297675.0,217548.0,286169.0,233133.0
2026-04-14 17:18:28.186693,202931,1609504601859068,2201829118,-1.116544,-0.150304,-0.15616,-2.12625,20.06375,-63.55125,17.288,26.728,13.024,eccentric,2,3.0,134143.0,297675.0,217548.0,286169.0,233133.0
2026-04-14 17:18:28.189415,202932,1609504601867968,2201837741,-1.09312,-0.08784,-0.109312,0.09625,16.975,-62.2825,16.744001,27.12,12.240001,eccentric,2,3.0,134143.0,297675.0,217548.0,286169.0,233133.0
2026-04-14 17:18:28.191910,202933,1609504601876896,2201846474,-1.09312,-0.08784,-0.109312,9.75625,15.4,-57.61875,16.744001,27.12,12.240001,eccentric,2,3.0,134143.0,297675.0,217548.0,286169.0,233133.0
2026-04-14 17:18:28.194406,202934,1609504601891385,2201861346,-1.050176,0.066368,0.130784,20.8775,17.19375,-55.37,16.096,27.528002,12.080001,eccentric,2,3.0,134143.0,297675.0,217548.0,286169.0,233133.0
2026-04-14 17:18:28.196957,202935,1609504601900359,2201870062,-1.050176,0.066368,0.130784,17.38625,20.553751,-57.68,16.096,27.528002,12.080001,eccentric,2,3.0,134143.0,297675.0,217548.0,286169.0,233133.0
2026-04-14 17:18:28.199446,202936,1609504601914858,2201885029,-1.026752,-0.128832,-0.033184,3.675,27.76375,-60.6375,15.624001,27.640001,11.152,eccentric,2,3.0,134143.0,297675.0,217548.0,286169.0,233133.0
2026-04-14 17:18:28.201713,202937,1609504601923785,2201893757,-1.026752,-0.128832,-0.033184,-6.41375,32.19125,-61.62625,15.624001,27.640001,11.152,eccentric,2,3.0,134143.0,297675.0,217548.0,286169.0,233133.0
2026-04-14 17:18:28.206701,202938,1609504601938236,2201906627,-1.061888,-0.169824,-0.31232,-5.9675,30.03,-58.16125,15.552001,27.864002,11.200001,eccentric,2,3.0,134143.0,297675.0,217548.0,286169.0,233133.0
2026-04-14 17:18:28.234380,202949,1609504601947525,2201917495,-1.095072,-0.011712,0.046848,7.1575,20.475,-55.615,15.104001,27.968,11.072001,eccentric,2,3.0,133418.0,303847.0,213098.0,288494.0,229949.0
2026-04-14 17:18:28.236674,202950,1609504601956447,2201926238,-1.095072,-0.011712,0.046848,16.6425,10.40375,-50.77625,15.104001,27.968,11.072001,eccentric,2,3.0,133418.0,303847.0,213098.0,288494.0,229949.0
2026-04-14 17:18:28.241958,202951,1609504601970949,2201941181,-0.864736,0.015616,0.158112,18.095,8.96875,-48.37875,14.848001,28.400002,11.112,eccentric,2,3.0,133418.0,303847.0,213098.0,288494.0,229949.0
2026-04-14 17:18:28.252284,202952,1609504601979866,2201949875,-0.864736,0.015616,0.158112,6.1425,14.56875,-51.51125,14.848001,28.400002,11.112,eccentric,2,3.0,133418.0,303847.0,213098.0,288494.0,229949.0
2026-04-14 17:18:28.264348,202953,1609504601994428,2201962770,-1.009184,-0.23424,-0.193248,-8.47,20.7025,-53.0775,13.184001,28.736002,11.408001,eccentric,2,3.0,133418.0,303847.0,213098.0,288494.0,229949.0
2026-04-14 17:18:28.274341,202954,1609504602003699,2201973508,-1.009184,-0.23424,-0.193248,-14.86625,25.4625,-53.2175,13.184001,28.736002,11.408001,eccentric,2,3.0,133418.0,303847.0,213098.0,288494.0,229949.0
2026-04-14 17:18:28.284257,202955,1609504602012652,2201982177,-0.99552,-0.177632,-0.240096,-6.23875,24.91125,-47.34625,13.6,28.608002,12.52,eccentric,2,3.0,133418.0,303847.0,213098.0,288494.0,229949.0
2026-04-14 17:18:28.296750,202956,1609504602027135,2201997109,-0.931104,-0.07808,-0.060512,4.69,24.52625,-40.0925,13.536,28.928001,11.008,eccentric,2,3.0,133418.0,303847.0,213098.0,288494.0,229949.0
2026-04-14 17:18:28.307010,202957,1609504602036046,2202005796,-0.931104,-0.07808,-0.060512,6.79875,24.053751,-37.5025,13.536,28.928001,11.008,eccentric,2,3.0,133418.0,303847.0,213098.0,288494.0,229949.0
2026-04-14 17:18:28.335425,202968,1609504602050942,2202020909,-0.915488,-0.070272,0.122976,-0.93625,24.73625,-36.91625,13.320001,29.080002,10.808001,eccentric,2,3.0,126613.0,309130.0,199507.0,292339.0,217943.0
2026-04-14 17:18:28.343383,202969,1609504602059913,2202029621,-0.915488,-0.070272,0.122976,-6.41375,25.2,-36.8375,13.320001,29.080002,10.808001,eccentric,2,3.0,126613.0,309130.0,199507.0,292339.0,217943.0
2026-04-14 17:18:28.344045,202970,1609504602074482,2202044580,-0.8784,-0.316224,-0.046848,-6.50125,24.94625,-37.905,12.416,29.624,11.688001,eccentric,2,3.0,126613.0,309130.0,199507.0,292339.0,217943.0
2026-04-14 17:18:28.352984,202971,1609504602083421,2202053274,-0.8784,-0.316224,-0.046848,-7.5775,25.7075,-37.1875,12.416,29.624,11.688001,eccentric,2,3.0,126613.0,309130.0,199507.0,292339.0,217943.0
2026-04-14 17:18:28.362901,202972,1609504602092415,2202061979,-0.911584,-0.124928,0.070272,-1.61875,27.37875,-29.93375,12.968,29.488,10.288,eccentric,2,3.0,126613.0,309130.0,199507.0,292339.0,217943.0
2026-04-14 17:18:28.376723,202973,1609504602106887,2202076840,-0.923296,-0.06832,-0.290848,4.69875,28.35875,-24.928751,12.352,29.584002,11.968,eccentric,2,3.0,126613.0,309130.0,199507.0,292339.0,217943.0
2026-04-14 17:18:28.384256,202974,1609504602115815,2202085536,-0.923296,-0.06832,-0.290848,1.9075,24.43875,-24.7625,12.352,29.584002,11.968,eccentric,2,3.0,126613.0,309130.0,199507.0,292339.0,217943.0
2026-04-14 17:18:28.400647,202975,1609504602130255,2202100410,-0.767136,-0.28304,-0.0488,-4.94375,19.03125,-27.60625,12.552001,29.528002,9.88,eccentric,2,3.0,126613.0,309130.0,199507.0,292339.0,217943.0
2026-04-14 17:18:28.409699,202976,1609504602139197,2202109088,-0.767136,-0.28304,-0.0488,-8.715,15.72375,-28.67375,12.552001,29.528002,9.88,eccentric,2,3.0,126613.0,309130.0,199507.0,292339.0,217943.0
2026-04-14 17:18:28.436946,202987,1609504602153755,2202124107,-0.757376,-0.21472,0.083936,-5.95875,15.925,-27.58875,11.744,30.216002,11.984,eccentric,2,3.0,114415.0,310889.0,182499.0,293228.0,202410.0
2026-04-14 17:18:28.439991,202988,1609504602162748,2202132866,-0.757376,-0.21472,0.083936,-5.45125,17.815,-23.59,11.744,30.216002,11.984,eccentric,2,3.0,114415.0,310889.0,182499.0,293228.0,202410.0
2026-04-14 17:18:28.441733,202989,1609504602171661,2202141546,-0.737856,-0.281088,-0.07808,-6.5975,18.75125,-23.03,10.92,30.256,12.184001,eccentric,2,3.0,114415.0,310889.0,182499.0,293228.0,202410.0
2026-04-14 17:18:28.480953,202990,1609504602186293,2202156428,-0.737856,-0.281088,-0.23424,-6.685,16.93125,-20.39625,10.92,30.256,12.184001,eccentric,2,3.0,114415.0,310889.0,182499.0,293228.0,202410.0
2026-04-14 17:18:28.505974,202991,1609504602195204,2202165124,-0.704672,-0.206912,-0.232288,0.28,16.03875,-19.1975,11.424001,29.920002,8.68,eccentric,2,3.0,114415.0,310889.0,182499.0,293228.0,202410.0
2026-04-14 17:18:28.510981,202992,1609504602209654,2202179981,-0.657824,-0.288896,-0.070272,0.42,15.1725,-22.155,12.056001,29.776001,10.176001,eccentric,2,3.0,114415.0,310889.0,182499.0,293228.0,202410.0
2026-04-14 17:18:28.513462,202993,1609504602218546,2202188691,-0.657824,-0.288896,-0.070272,-2.66875,17.115,-19.73125,12.056001,29.776001,10.176001,eccentric,2,3.0,114415.0,310889.0,182499.0,293228.0,202410.0
2026-04-14 17:18:28.515947,202994,1609504602233048,2202201499,-0.679296,-0.257664,-0.052704,-6.08125,18.4275,-22.60125,12.128,30.056002,9.872001,eccentric,2,3.0,114415.0,310889.0,182499.0,293228.0,202410.0
2026-04-14 17:18:28.568075,203005,1609504602242315,2202212365,-0.679296,-0.257664,-0.052704,-7.37625,17.96375,-19.55625,12.128,30.056002,9.872001,eccentric,2,3.0,106022.0,310617.0,172449.0,292127.0,192146.0
2026-04-14 17:18:28.570898,203006,1609504602251864,2202221201,-0.730048,-0.23424,-0.275232,-7.63875,15.54,-19.45125,11.704,30.368002,10.632001,eccentric,2,3.0,106022.0,310617.0,172449.0,292127.0,192146.0
2026-04-14 17:18:28.573152,203007,1609504602266367,2202236122,-0.730048,-0.23424,-0.275232,-7.04375,10.03625,-19.83625,11.704,30.368002,10.632001,eccentric,2,3.0,106022.0,310617.0,172449.0,292127.0,192146.0
2026-04-14 17:18:28.575978,203008,1609504602275323,2202244833,-0.650016,-0.296704,-0.122976,-6.02875,6.39625,-21.14,11.040001,30.616001,8.280001,eccentric,2,3.0,106022.0,310617.0,172449.0,292127.0,192146.0
2026-04-14 17:18:28.577965,203009,1609504602284376,2202253503,-0.650016,-0.296704,-0.122976,-5.50375,4.89125,-19.705,11.040001,30.616001,8.280001,eccentric,2,3.0,106022.0,310617.0,172449.0,292127.0,192146.0
2026-04-14 17:18:28.580956,203010,1609504602298846,2202268420,-0.696864,-0.349408,-0.132736,-0.7175,6.93875,-19.215,10.824,30.368002,10.832001,eccentric,2,3.0,106022.0,310617.0,172449.0,292127.0,192146.0
2026-04-14 17:18:28.583501,203011,1609504602307791,2202277117,-0.71248,-0.267424,-0.025376,0.69125,10.5,-17.57,10.824,30.600002,9.96,eccentric,2,3.0,106022.0,310617.0,172449.0,292127.0,192146.0
2026-04-14 17:18:28.592224,203012,1609504602322330,2202292075,-0.71248,-0.267424,-0.025376,-0.67375,16.10875,-15.9075,11.000001,30.600002,9.96,eccentric,2,3.0,106022.0,310617.0,172449.0,292127.0,192146.0
2026-04-14 17:18:28.600631,203013,1609504602331246,2202300763,-0.67344,-0.267424,0.033184,-8.02375,19.425,-12.81,11.6,30.376001,9.536,eccentric,2,3.0,106022.0,310617.0,172449.0,292127.0,192146.0
2026-04-14 17:18:28.636946,203024,1609504602345814,2202315799,-0.67344,-0.267424,0.033184,-10.823751,23.07375,-9.72125,11.6,30.376001,9.536,eccentric,2,3.0,104679.0,310079.0,171496.0,291340.0,190646.0
2026-04-14 17:18:28.639462,203025,1609504602354882,2202324580,-0.843264,-0.288896,-0.407968,-16.21375,22.715,-7.35875,11.736001,30.368002,9.64,eccentric,2,3.0,104679.0,310079.0,171496.0,291340.0,190646.0
2026-04-14 17:18:28.642006,203026,1609504602363883,2202333279,-0.843264,-0.288896,-0.407968,-7.39375,16.6075,-5.94125,11.736001,30.368002,9.64,eccentric,2,3.0,104679.0,310079.0,171496.0,291340.0,190646.0
2026-04-14 17:18:28.649337,203027,1609504602378396,2202348174,-0.737856,-0.240096,-0.0488,2.2925,7.55125,-6.7025,11.584001,30.504002,9.536,eccentric,2,3.0,104679.0,310079.0,171496.0,291340.0,190646.0
2026-04-14 17:18:28.655600,203028,1609504602387326,2202356884,-0.737856,-0.240096,-0.0488,-2.65125,0.49,-7.525,11.584001,30.504002,9.536,eccentric,2,3.0,104679.0,310079.0,171496.0,291340.0,190646.0
2026-04-14 17:18:28.671881,203029,1609504602401876,2202371753,-0.75152,-0.357216,-0.056608,-4.0775,-1.8725,-5.0575,11.384001,30.720001,10.304001,eccentric,2,3.0,104679.0,310079.0,171496.0,291340.0,190646.0
2026-04-14 17:18:28.680685,203030,1609504602410835,2202380458,-0.890112,-0.308416,-0.066368,-7.63,2.65125,0.44625,11.864,30.112001,9.488001,eccentric,2,3.0,104679.0,310079.0,171496.0,291340.0,190646.0
2026-04-14 17:18:28.695698,203031,1609504602425336,2202395337,-0.890112,-0.308416,-0.066368,-12.145,7.8575,6.58,11.864,30.112001,9.488001,eccentric,2,3.0,104679.0,310079.0,171496.0,291340.0,190646.0
2026-04-14 17:18:28.705686,203032,1609504602434270,2202404041,-0.952576,-0.183488,-0.333792,-9.33625,9.68625,9.33625,12.048,30.368002,9.376,eccentric,2,3.0,104679.0,310079.0,171496.0,291340.0,190646.0
2026-04-14 17:18:28.736753,203043,1609504602443297,2202412734,-0.952576,-0.183488,-0.333792,-8.00625,6.25625,7.3325,12.048,30.368002,9.376,eccentric,2,3.0,106119.0,309364.0,173819.0,290891.0,192796.0
2026-04-14 17:18:28.739257,203044,1609504602457878,2202427691,-0.88816,-0.296704,0.031232,-7.41125,0.70875,7.77875,12.352,30.28,10.072001,eccentric,2,3.0,106119.0,309364.0,173819.0,290891.0,192796.0
2026-04-14 17:18:28.741706,203045,1609504602466795,2202436423,-0.88816,-0.296704,0.031232,-7.98,-0.49875,10.823751,12.352,30.28,10.072001,eccentric,2,3.0,106119.0,309364.0,173819.0,290891.0,192796.0
2026-04-14 17:18:28.753034,203046,1609504602481273,2202451306,-0.8784,-0.308416,-0.17568,-12.635,1.88125,14.1575,11.912001,30.952002,10.136001,eccentric,2,3.0,106119.0,309364.0,173819.0,290891.0,192796.0
2026-04-14 17:18:28.760554,203047,1609504602490162,2202460065,-0.864736,-0.316224,-0.113216,-15.925,3.24625,17.4825,12.52,30.760002,9.88,eccentric,2,3.0,106119.0,309364.0,173819.0,290891.0,192796.0
2026-04-14 17:18:28.775663,203048,1609504602504718,2202475026,-0.864736,-0.316224,-0.113216,-13.9475,1.4175,18.40125,12.52,30.760002,9.88,eccentric,2,3.0,106119.0,309364.0,173819.0,290891.0,192796.0
2026-04-14 17:18:28.783294,203049,1609504602513736,2202483716,-0.813984,-0.31232,-0.142496,-11.27,-3.31625,20.51875,12.872001,30.600002,9.056001,eccentric,2,3.0,106119.0,309364.0,173819.0,290891.0,192796.0
2026-04-14 17:18:28.791911,203050,1609504602522668,2202492449,-0.813984,-0.31232,-0.142496,-6.7725,-7.62125,22.91625,12.872001,30.600002,9.056001,eccentric,2,3.0,106119.0,309364.0,173819.0,290891.0,192796.0
2026-04-14 17:18:28.813094,203051,1609504602537112,2202507361,-0.84912,-0.203008,-0.00976,-9.8525,-9.59875,27.79875,12.344001,30.824001,10.656,eccentric,2,3.0,106119.0,309364.0,173819.0,290891.0,192796.0
2026-04-14 17:18:28.883527,203062,1609504602546051,2202516186,-0.84912,-0.203008,-0.00976,-9.6775,-7.5425,30.0475,12.344001,30.824001,10.656,eccentric,2,3.0,106205.0,309285.0,174710.0,290894.0,193405.0
2026-04-14 17:18:28.885480,203063,1609504602560608,2202529035,-0.909632,-0.179584,-0.310368,-11.76875,-6.81625,28.4025,13.528001,30.104002,8.68,eccentric,2,3.0,106205.0,309285.0,174710.0,290894.0,193405.0
2026-04-14 17:18:28.888541,203064,1609504602569814,2202539747,-0.968192,-0.2928,-0.347456,-12.29375,-9.26625,24.66625,13.880001,30.128002,8.808001,eccentric,2,3.0,106205.0,309285.0,174710.0,290894.0,193405.0
2026-04-14 17:18:28.890973,203065,1609504602578720,2202548400,-0.968192,-0.2928,-0.347456,-9.30125,-13.71125,22.12,13.880001,30.128002,8.808001,eccentric,2,3.0,106205.0,309285.0,174710.0,290894.0,193405.0
2026-04-14 17:18:28.893506,203066,1609504602593256,2202563343,-0.784704,-0.382592,-0.080032,-6.04625,-14.55125,25.99625,14.584001,29.808,8.448,eccentric,2,3.0,106205.0,309285.0,174710.0,290894.0,193405.0
2026-04-14 17:18:28.896021,203067,1609504602602154,2202572020,-0.784704,-0.382592,-0.080032,-12.32875,-11.375,36.505,14.584001,29.808,8.448,eccentric,2,3.0,106205.0,309285.0,174710.0,290894.0,193405.0
2026-04-14 17:18:28.898489,203068,1609504602616710,2202586908,-0.903776,0.03904,0.052704,-8.085,-9.66,46.08625,14.728001,29.760002,8.648001,eccentric,2,3.0,106205.0,309285.0,174710.0,290894.0,193405.0
2026-04-14 17:18:28.900412,203069,1609504602625643,2202595582,-0.903776,0.03904,0.052704,-1.855,-10.15875,41.23875,14.728001,29.760002,8.648001,eccentric,2,3.0,106205.0,309285.0,174710.0,290894.0,193405.0
2026-04-14 17:18:28.912919,203070,1609504602640150,2202610527,-0.948672,-0.130784,-0.173728,-7.2275,-13.39625,30.415,15.128,29.688002,9.848001,eccentric,2,3.0,106205.0,309285.0,174710.0,290894.0,193405.0
2026-04-14 17:18:28.940863,203081,1609504602649209,2202619266,-0.948672,-0.130784,-0.173728,-6.5275,-18.803751,25.83875,15.128,29.688002,9.848001,eccentric,2,3.0,108694.0,308624.0,177932.0,290463.0,196406.0
2026-04-14 17:18:28.943473,203082,1609504602658221,2202627972,-0.841312,-0.339648,-0.113216,-3.71,-17.61375,29.19,14.584001,29.880001,10.016001,eccentric,2,3.0,108694.0,308624.0,177932.0,290463.0,196406.0
2026-04-14 17:18:28.945994,203083,1609504602672745,2202642950,-1.06384,0.003904,-0.105408,-11.83,-11.62,38.89375,15.480001,29.304,10.064,eccentric,2,3.0,108694.0,308624.0,177932.0,290463.0,196406.0
2026-04-14 17:18:28.953091,203084,1609504602681675,2202651732,-1.06384,0.003904,-0.105408,-11.795,-8.6275,46.48875,15.480001,29.304,10.064,eccentric,2,3.0,108694.0,308624.0,177932.0,290463.0,196406.0
2026-04-14 17:18:28.964716,203085,1609504602696157,2202664541,-1.018944,-0.081984,-0.173728,-0.86625,-7.1575,39.357502,15.464001,29.328001,9.752001,eccentric,2,3.0,108694.0,308624.0,177932.0,290463.0,196406.0
2026-04-14 17:18:28.975858,203086,1609504602705352,2202675319,-1.018944,-0.081984,-0.173728,-1.63625,-10.78,28.210001,15.464001,29.328001,9.752001,eccentric,2,3.0,108694.0,308624.0,177932.0,290463.0,196406.0
2026-04-14 17:18:28.989785,203087,1609504602719825,2202688176,-0.894016,-0.244,-0.052704,-10.05375,-17.4125,27.055,16.36,28.624,9.52,eccentric,2,3.0,108694.0,308624.0,177932.0,290463.0,196406.0
2026-04-14 17:18:28.999751,203088,1609504602728970,2202698930,-0.894016,-0.244,-0.052704,-7.0,-15.37375,31.61375,16.36,28.624,9.52,eccentric,2,3.0,108694.0,308624.0,177932.0,290463.0,196406.0
2026-04-14 17:18:29.006751,203089,1609504602737944,2202707610,-1.048224,-0.21472,-0.121024,-13.09875,-11.3575,41.58875,17.176,28.36,5.624,eccentric,2,3.0,108694.0,308624.0,177932.0,290463.0,196406.0
2026-04-14 17:18:29.042140,203100,1609504602752474,2202722628,-1.052128,0.083936,-0.203008,-16.0825,-8.67125,48.755,17.016,28.808,9.072001,eccentric,2,3.0,110978.0,307863.0,181130.0,289900.0,199803.0
2026-04-14 17:18:29.044339,203101,1609504602761435,2202731317,-1.052128,0.083936,-0.203008,-7.6475,-8.785,42.7875,17.016,28.808,9.072001,eccentric,2,3.0,110978.0,307863.0,181130.0,289900.0,199803.0
2026-04-14 17:18:29.047219,203102,1609504602776039,2202746295,-1.124352,-0.074176,-0.236192,2.07375,-17.43,31.29875,18.032001,27.864002,8.752001,eccentric,2,3.0,110978.0,307863.0,181130.0,289900.0,199803.0
2026-04-14 17:18:29.054755,203103,1609504602784992,2202755009,-1.124352,-0.074176,-0.236192,5.73125,-31.3775,24.325,18.032001,27.864002,8.752001,eccentric,2,3.0,110978.0,307863.0,181130.0,289900.0,199803.0
2026-04-14 17:18:29.064759,203104,1609504602793959,2202763695,-0.981856,-0.290848,0.06832,-0.34125,-34.99125,23.94,18.224,27.496002,9.136001,eccentric,2,3.0,110978.0,307863.0,181130.0,289900.0,199803.0
2026-04-14 17:18:29.081047,203105,1609504602808443,2202778579,-0.981856,-0.290848,0.06832,-14.21875,-31.885,34.18625,18.224,27.496002,9.136001,eccentric,2,3.0,110978.0,307863.0,181130.0,289900.0,199803.0
2026-04-14 17:18:29.088082,203106,1609504602817366,2202787264,-1.208288,0.0488,0.162016,-14.79625,-20.9475,45.5875,18.696001,27.192001,8.76,eccentric,2,3.0,110978.0,307863.0,181130.0,289900.0,199803.0
2026-04-14 17:18:29.103446,203107,1609504602831837,2202802182,-1.147776,-0.111264,-0.495808,-6.18625,-10.2375,41.25625,19.432001,27.680002,9.936001,eccentric,2,3.0,110978.0,307863.0,181130.0,289900.0,199803.0
2026-04-14 17:18:29.110821,203108,1609504602840744,2202810856,-1.147776,-0.111264,-0.495808,-5.71375,-6.9825,25.61125,19.432001,27.680002,9.936001,eccentric,2,3.0,110978.0,307863.0,181130.0,289900.0,199803.0
2026-04-14 17:18:29.146008,203119,1609504602855453,2202823849,-0.845216,-0.308416,-0.085888,-14.63,-20.13375,25.69875,19.728,27.152,8.784,eccentric,2,3.0,117962.0,305599.0,190213.0,288091.0,208409.0
2026-04-14 17:18:29.148502,203120,1609504602864877,2202834598,-0.845216,-0.308416,-0.085888,-12.6875,-25.54125,31.045,19.728,27.152,8.784,eccentric,2,3.0,117962.0,305599.0,190213.0,288091.0,208409.0
2026-04-14 17:18:29.150524,203121,1609504602873826,2202843338,-1.329312,0.179584,-0.070272,-5.5125,-26.845,39.33125,19.376001,26.656002,9.120001,eccentric,2,3.0,117962.0,305599.0,190213.0,288091.0,208409.0
2026-04-14 17:18:29.157986,203122,1609504602888322,2202858240,-1.329312,0.179584,-0.070272,1.30375,-25.165,40.31125,19.376001,26.656002,9.120001,eccentric,2,3.0,117962.0,305599.0,190213.0,288091.0,208409.0
2026-04-14 17:18:29.168023,203123,1609504602897221,2202866918,-1.204384,-0.070272,-0.40016,4.3925,-20.86,20.15125,20.672,26.712002,9.456,eccentric,2,3.0,117962.0,305599.0,190213.0,288091.0,208409.0
2026-04-14 17:18:29.182229,203124,1609504602911759,2202881787,-1.0248,-0.294752,-0.066368,-2.9225,-27.74625,14.04375,20.672,26.736002,9.68,eccentric,2,3.0,117962.0,305599.0,190213.0,288091.0,208409.0
2026-04-14 17:18:29.209577,203125,1609504602920686,2202890466,-1.0248,-0.294752,-0.066368,-11.4625,-29.942501,20.20375,21.240002,26.736002,9.68,eccentric,2,3.0,117962.0,305599.0,190213.0,288091.0,208409.0
2026-04-14 17:18:29.234076,203126,1609504602929610,2202899133,-1.0248,-0.294752,-0.066368,-5.87125,-21.035,26.53,21.240002,26.736002,9.68,eccentric,2,3.0,117962.0,305599.0,190213.0,288091.0,208409.0
2026-04-14 17:18:29.259753,203127,1609504602944066,2202913998,-1.165344,0.017568,0.197152,-2.26625,-13.658751,32.06,20.312,26.904001,9.856001,eccentric,2,3.0,117962.0,305599.0,190213.0,288091.0,208409.0
2026-04-14 17:18:29.297080,203138,1609504602953056,2202922697,-1.059936,0.177632,-0.279136,-9.555,-13.37875,32.34875,20.488,27.152,10.856001,eccentric,2,3.0,117263.0,303147.0,190376.0,285376.0,208046.0
2026-04-14 17:18:29.299590,203139,1609504602967522,2202937601,-1.059936,0.177632,-0.279136,-8.18125,-10.5875,17.43,20.488,27.152,10.856001,eccentric,2,3.0,117263.0,303147.0,190376.0,285376.0,208046.0
2026-04-14 17:18:29.301691,203140,1609504602976464,2202946288,-1.19072,-0.320128,-0.044896,-7.04375,-15.74125,7.18375,21.480001,26.632002,10.936001,eccentric,2,3.0,117263.0,303147.0,190376.0,285376.0,208046.0
2026-04-14 17:18:29.304213,203141,1609504602990934,2202961134,-1.19072,-0.320128,-0.044896,-11.1125,-25.50625,17.0275,21.480001,26.632002,10.936001,eccentric,2,3.0,117263.0,303147.0,190376.0,285376.0,208046.0
2026-04-14 17:18:29.307062,203142,1609504602999893,2202969826,-0.997472,0.011712,0.023424,4.10375,-18.935,20.95625,22.296001,26.328001,10.424001,eccentric,2,3.0,117263.0,303147.0,190376.0,285376.0,208046.0
2026-04-14 17:18:29.309563,203143,1609504603014525,2202984744,-1.223904,0.124928,0.284992,13.825,-13.62375,19.4775,22.632002,26.28,11.784,eccentric,2,3.0,117263.0,303147.0,190376.0,285376.0,208046.0
2026-04-14 17:18:29.312106,203144,1609504603023470,2202993440,-1.223904,0.124928,0.284992,-0.09625,-14.51625,22.4875,22.632002,26.28,11.784,eccentric,2,3.0,117263.0,303147.0,190376.0,285376.0,208046.0
2026-04-14 17:18:29.314144,203145,1609504603032456,2203002149,-1.138016,-0.1464,-0.40992,-7.30625,-7.875,14.77,22.632002,26.28,11.552001,eccentric,2,3.0,117263.0,303147.0,190376.0,285376.0,208046.0
2026-04-14 17:18:29.347182,203156,1609504603046974,2203017140,-1.138016,-0.1464,-0.40992,-11.17375,-5.775,0.7525,22.808,26.584002,11.552001,eccentric,2,3.0,117321.0,299698.0,191239.0,282318.0,208441.0
2026-04-14 17:18:29.349726,203157,1609504603056541,2203025918,-1.097024,-0.103456,-0.031232,-13.48375,-12.11,9.45,22.752,26.368002,11.592001,eccentric,2,3.0,117321.0,299698.0,191239.0,282318.0,208441.0
2026-04-14 17:18:29.351767,203158,1609504603065473,2203034654,-1.097024,-0.103456,-0.031232,-4.43625,-11.57625,15.91625,22.752,26.368002,11.592001,eccentric,2,3.0,117321.0,299698.0,191239.0,282318.0,208441.0
2026-04-14 17:18:29.354684,203159,1609504603079958,2203049581,-1.300032,-0.007808,-0.02928,7.55125,-6.9825,7.35,23.472002,26.552002,11.216001,eccentric,2,3.0,117321.0,299698.0,191239.0,282318.0,208441.0
2026-04-14 17:18:29.358060,203160,1609504603088880,2203058256,-1.300032,-0.007808,-0.02928,7.63,-14.5775,7.34125,23.472002,26.552002,11.216001,eccentric,2,3.0,117321.0,299698.0,191239.0,282318.0,208441.0
2026-04-14 17:18:29.375688,203161,1609504603103368,2203073121,-1.20048,0.042944,-0.154208,10.57875,-16.66,5.03125,23.336,26.488,11.920001,eccentric,2,3.0,117321.0,299698.0,191239.0,282318.0,208441.0
2026-04-14 17:18:29.380852,203162,1609504603112280,2203081806,-1.20048,0.042944,-0.154208,11.24375,-13.1425,-11.4975,23.336,26.488,11.920001,eccentric,2,3.0,117321.0,299698.0,191239.0,282318.0,208441.0
2026-04-14 17:18:29.397250,203163,1609504603126764,2203096691,-1.20048,-0.212768,-0.121024,-0.16625,-14.07,-13.825,22.944,25.936,14.000001,eccentric,2,3.0,117321.0,299698.0,191239.0,282318.0,208441.0
2026-04-14 17:18:29.405624,203164,1609504603135674,2203105371,-1.11264,-0.130784,0.083936,-5.69625,-13.825,-0.18375,22.560001,26.376001,12.128,eccentric,2,3.0,117321.0,299698.0,191239.0,282318.0,208441.0
2026-04-14 17:18:29.446594,203176,1609504603150208,2203118585,-1.11264,-0.130784,0.083936,-4.585,-9.86125,4.31375,22.560001,26.376001,12.128,eccentric,2,3.0,115338.0,293576.0,190527.0,276758.0,207005.0
2026-04-14 17:18:29.449070,203177,1609504603159467,2203129428,-1.22976,-0.103456,0.031232,1.51375,-5.425,5.48625,21.656,25.984001,12.456,eccentric,2,3.0,115338.0,293576.0,190527.0,276758.0,207005.0
2026-04-14 17:18:29.451583,203178,1609504603168408,2203138175,-1.22976,-0.103456,0.031232,1.14625,-8.1025,8.49625,21.656,25.984001,12.456,eccentric,2,3.0,115338.0,293576.0,190527.0,276758.0,207005.0
2026-04-14 17:18:29.454715,203179,1609504603182991,2203153074,-1.14192,-0.03904,-0.244,6.55375,-8.18125,7.27125,22.096,25.984001,12.592001,eccentric,2,3.0,115338.0,293576.0,190527.0,276758.0,207005.0
2026-04-14 17:18:29.462233,203180,1609504603191910,2203161756,-1.14192,-0.03904,-0.244,9.37125,-8.6275,-5.27625,22.096,25.984001,12.592001,eccentric,2,3.0,115338.0,293576.0,190527.0,276758.0,207005.0
2026-04-14 17:18:29.476209,203181,1609504603206421,2203176697,-1.194624,-0.138592,0.064416,4.96125,-15.3825,-6.04625,22.080002,26.096,11.984,eccentric,2,3.0,115338.0,293576.0,190527.0,276758.0,207005.0
2026-04-14 17:18:29.486728,203182,1609504603215397,2203185407,-1.145824,-0.076128,0.054656,2.21375,-17.78,0.62125,20.856,26.048,13.408001,concentric,2,3.0,115338.0,293576.0,190527.0,276758.0,207005.0
2026-04-14 17:18:29.494606,203183,1609504603224318,2203194080,-1.145824,-0.076128,0.054656,4.85625,-15.32125,-2.8,20.856,26.048,13.408001,concentric,2,3.0,115338.0,293576.0,190527.0,276758.0,207005.0
2026-04-14 17:18:29.509572,203184,1609504603238795,2203208994,-1.243424,-0.074176,0.099552,4.69875,-15.58375,-4.2,21.008001,26.352001,12.752001,concentric,2,3.0,115338.0,293576.0,190527.0,276758.0,207005.0
2026-04-14 17:18:29.544560,203195,1609504603247727,2203217764,-1.243424,-0.074176,0.099552,-0.735,-13.2125,-1.09375,21.008001,26.352001,12.752001,concentric,2,3.0,112583.0,288863.0,188176.0,273479.0,203878.0
2026-04-14 17:18:29.547069,203196,1609504603262784,2203232763,-1.169248,-0.251808,-0.199104,-7.4725,-9.975,-4.515,20.44,26.056002,13.656001,concentric,2,3.0,112583.0,288863.0,188176.0,273479.0,203878.0
2026-04-14 17:18:29.549708,203197,1609504603271710,2203241461,-1.169248,-0.251808,-0.199104,-9.54625,-10.80625,-3.15875,20.44,26.056002,13.656001,concentric,2,3.0,112583.0,288863.0,188176.0,273479.0,203878.0
2026-04-14 17:18:29.552202,203198,1609504603280674,2203250183,-1.14192,-0.144448,-0.076128,0.105,-9.2575,4.27875,20.496,26.312002,15.056001,concentric,2,3.0,112583.0,288863.0,188176.0,273479.0,203878.0
2026-04-14 17:18:29.583452,203199,1609504603295150,2203265061,-1.157536,-0.03904,0.021472,9.6775,-6.09,3.2025,21.616001,26.112001,14.920001,concentric,2,3.0,112583.0,288863.0,188176.0,273479.0,203878.0
2026-04-14 17:18:29.608372,203200,1609504603304069,2203273775,-1.157536,-0.03904,0.021472,8.0325,-5.45125,-2.35375,21.616001,26.112001,14.920001,concentric,2,3.0,112583.0,288863.0,188176.0,273479.0,203878.0
2026-04-14 17:18:29.633051,203201,1609504603318523,2203288640,-1.179008,-0.056608,0.081984,-3.3775,-8.198751,-3.91125,21.224,26.048,11.872001,concentric,2,3.0,112583.0,288863.0,188176.0,273479.0,203878.0
2026-04-14 17:18:29.635364,203202,1609504603327452,2203297349,-1.179008,-0.056608,0.081984,-12.60875,-10.28125,-4.73375,21.224,26.048,11.872001,concentric,2,3.0,112583.0,288863.0,188176.0,273479.0,203878.0
2026-04-14 17:18:29.637875,203203,1609504603341863,2203310217,-1.194624,-0.257664,-0.138592,-13.448751,-11.795,-10.50875,21.152,26.456001,11.712001,concentric,2,3.0,112583.0,288863.0,188176.0,273479.0,203878.0
2026-04-14 17:18:29.669385,203214,1609504603351182,2203321044,-1.194624,-0.257664,-0.138592,-10.84125,-13.93,-12.215,21.152,26.456001,11.712001,concentric,2,3.0,104377.0,280815.0,178932.0,269656.0,193774.0
2026-04-14 17:18:29.671374,203215,1609504603360167,2203329714,-1.134112,-0.18544,-0.080032,-2.00375,-17.1325,-6.97375,20.864,26.152,11.904,concentric,2,3.0,104377.0,280815.0,178932.0,269656.0,193774.0
2026-04-14 17:18:29.673882,203216,1609504603374676,2203344624,-1.126304,-0.062464,-0.148352,16.8875,-15.0675,-3.29875,20.864,26.152,10.68,concentric,2,3.0,104377.0,280815.0,178932.0,269656.0,193774.0
2026-04-14 17:18:29.676472,203217,1609504603383672,2203353318,-1.126304,-0.062464,-0.148352,27.0025,-12.53,-9.28375,20.800001,26.152,10.68,concentric,2,3.0,104377.0,280815.0,178932.0,269656.0,193774.0
2026-04-14 17:18:29.678139,203218,1609504603398168,2203368208,-1.104832,-0.081984,0.134688,16.26625,-13.7725,-13.5975,20.816002,26.272001,12.904,concentric,2,3.0,104377.0,280815.0,178932.0,269656.0,193774.0
2026-04-14 17:18:29.680827,203219,1609504603407144,2203376919,-1.104832,-0.081984,0.134688,-4.34875,-14.27125,-12.25,20.816002,26.272001,12.904,concentric,2,3.0,104377.0,280815.0,178932.0,269656.0,193774.0
2026-04-14 17:18:29.693323,203220,1609504603421664,2203391835,-1.227808,-0.218624,-0.052704,-18.97875,-12.792501,-13.09875,19.592001,26.816002,12.792001,concentric,2,3.0,104377.0,280815.0,178932.0,269656.0,193774.0
2026-04-14 17:18:29.700382,203221,1609504603430591,2203400510,-1.227808,-0.218624,-0.052704,-23.94,-12.285,-15.93375,19.592001,26.816002,12.792001,concentric,2,3.0,104377.0,280815.0,178932.0,269656.0,193774.0
2026-04-14 17:18:29.709738,203222,1609504603439512,2203409178,-1.19072,-0.25376,-0.160064,-19.0925,-12.20625,-14.70875,20.144001,26.736002,12.032001,concentric,2,3.0,104377.0,280815.0,178932.0,269656.0,193774.0
2026-04-14 17:18:29.742206,203233,1609504603454130,2203424344,-1.19072,-0.25376,-0.160064,-6.86,-10.64,-9.82625,20.144001,26.736002,12.032001,concentric,2,3.0,92861.0,271204.0,165402.0,263045.0,179705.0
2026-04-14 17:18:29.744776,203234,1609504603463227,2203433036,-1.221952,-0.220576,-0.152256,1.12875,-10.3075,-6.755,19.736,26.888,13.472001,concentric,2,3.0,92861.0,271204.0,165402.0,263045.0,179705.0
2026-04-14 17:18:29.751818,203235,1609504603477774,2203447937,-1.22,-0.152256,-0.16592,1.67125,-11.78625,-3.3425,20.128,26.528002,11.72,concentric,2,3.0,92861.0,271204.0,165402.0,263045.0,179705.0
2026-04-14 17:18:29.758169,203236,1609504603486700,2203456606,-1.22,-0.152256,-0.16592,-0.70875,-11.8475,0.11375,20.128,26.528002,11.72,concentric,2,3.0,92861.0,271204.0,165402.0,263045.0,179705.0
2026-04-14 17:18:29.764216,203237,1609504603495631,2203465329,-1.186816,-0.130784,0.0488,-3.4125,-12.495,-0.035,20.128,27.016,11.776001,concentric,2,3.0,92861.0,271204.0,165402.0,263045.0,179705.0
2026-04-14 17:18:29.780837,203238,1609504603510124,2203480226,-1.186816,-0.130784,0.0488,-6.41375,-12.4425,-1.6275,20.224,27.016,11.776001,concentric,2,3.0,92861.0,271204.0,165402.0,263045.0,179705.0
2026-04-14 17:18:29.789577,203239,1609504603519022,2203488903,-1.15168,-0.20496,-0.035136,-12.18875,-11.9525,-3.57875,19.28,26.984001,12.464001,concentric,2,3.0,92861.0,271204.0,165402.0,263045.0,179705.0
2026-04-14 17:18:29.804782,203240,1609504603533489,2203503771,-1.15168,-0.20496,-0.035136,-12.565,-11.71625,-5.17125,19.28,26.984001,12.464001,concentric,2,3.0,92861.0,271204.0,165402.0,263045.0,179705.0
2026-04-14 17:18:29.813049,203241,1609504603542402,2203512434,-1.20048,-0.314272,-0.203008,-4.92625,-13.7375,-5.76625,19.976002,27.072,11.672001,concentric,2,3.0,92861.0,271204.0,165402.0,263045.0,179705.0
2026-04-14 17:18:29.876004,203252,1609504603557000,2203525402,-1.098976,-0.17568,0.128832,3.08875,-14.9625,-3.89375,18.800001,27.168001,14.416,concentric,2,3.0,86570.0,266761.0,157589.0,259469.0,171432.0
2026-04-14 17:18:29.877951,203253,1609504603566221,2203536162,-1.098976,-0.17568,0.128832,10.92,-13.81625,0.14875,18.800001,27.168001,14.416,concentric,2,3.0,86570.0,266761.0,157589.0,259469.0,171432.0
2026-04-14 17:18:29.880978,203254,1609504603575148,2203544826,-1.098976,-0.17568,0.128832,12.24125,-11.5325,0.28875,18.800001,27.168001,14.416,concentric,2,3.0,86570.0,266761.0,157589.0,259469.0,171432.0
2026-04-14 17:18:29.883483,203255,1609504603589617,2203559807,-1.198528,-0.091744,-0.037088,5.8275,-10.64,-1.05,18.864,27.112001,12.728001,concentric,2,3.0,86570.0,266761.0,157589.0,259469.0,171432.0
2026-04-14 17:18:29.885635,203256,1609504603598681,2203568562,-1.075552,-0.20496,0.099552,-5.57375,-10.19375,-1.54,18.800001,27.000002,12.784,concentric,2,3.0,86570.0,266761.0,157589.0,259469.0,171432.0
2026-04-14 17:18:29.887973,203257,1609504603613215,2203583526,-1.075552,-0.20496,0.099552,-18.13875,-10.4125,-2.42375,18.800001,27.000002,12.784,concentric,2,3.0,86570.0,266761.0,157589.0,259469.0,171432.0
2026-04-14 17:18:29.893504,203258,1609504603622135,2203592242,-1.192672,-0.286944,-0.074176,-21.58625,-9.14375,-1.7325,19.12,27.416,11.8,concentric,2,3.0,86570.0,266761.0,157589.0,259469.0,171432.0
2026-04-14 17:18:29.905998,203259,1609504603636606,2203605045,-1.097024,-0.247904,0.121024,-15.3125,-9.52875,3.03625,19.12,27.176,11.328,concentric,2,3.0,86570.0,266761.0,157589.0,259469.0,171432.0
2026-04-14 17:18:29.917286,203260,1609504603645913,2203615773,-1.097024,-0.247904,0.121024,-4.165,-9.555,8.75,19.976002,27.176,11.328,concentric,2,3.0,86570.0,266761.0,157589.0,259469.0,171432.0
2026-04-14 17:18:29.991510,203271,1609504603654955,2203624587,-1.097024,-0.247904,0.121024,2.31,-8.49625,12.1625,19.976002,27.176,11.328,concentric,2,3.0,83975.0,265046.0,154803.0,258210.0,168412.0
2026-04-14 17:18:29.994486,203272,1609504603669488,2203639501,-1.100928,-0.101504,0.035136,5.62625,-6.335,14.21,18.824001,26.904001,12.696001,concentric,2,3.0,83975.0,265046.0,154803.0,258210.0,168412.0
2026-04-14 17:18:29.996590,203273,1609504603678433,2203648173,-1.11264,-0.095648,-0.080032,2.9225,-4.8125,12.92375,18.960001,27.080002,14.320001,concentric,2,3.0,83975.0,265046.0,154803.0,258210.0,168412.0
2026-04-14 17:18:29.999244,203274,1609504603692918,2203663049,-1.11264,-0.095648,-0.080032,-7.5425,-5.99375,8.54,18.960001,27.080002,14.320001,concentric,2,3.0,83975.0,265046.0,154803.0,258210.0,168412.0
2026-04-14 17:18:30.001771,203275,1609504603701832,2203671676,-1.071648,-0.203008,-0.05856,-15.2425,-8.365,4.4625,18.264,27.632002,13.576,concentric,2,3.0,83975.0,265046.0,154803.0,258210.0,168412.0
2026-04-14 17:18:30.004333,203276,1609504603710741,2203680405,-1.071648,-0.203008,-0.05856,-14.37625,-10.57,2.205,18.264,27.632002,13.576,concentric,2,3.0,83975.0,265046.0,154803.0,258210.0,168412.0
2026-04-14 17:18:30.006788,203277,1609504603725267,2203695305,-1.028704,-0.23424,0.0488,-4.235,-11.38375,1.19,18.416,27.488,13.736001,concentric,2,3.0,83975.0,265046.0,154803.0,258210.0,168412.0
2026-04-14 17:18:30.009304,203278,1609504603734184,2203703991,-1.028704,-0.23424,0.0488,7.875,-8.925,1.5575,18.416,27.488,13.736001,concentric,2,3.0,83975.0,265046.0,154803.0,258210.0,168412.0
2026-04-14 17:18:30.019364,203279,1609504603748686,2203718863,-1.032608,-0.12688,0.113216,16.31875,-6.6675,2.8175,19.064001,26.976002,13.072001,concentric,2,3.0,83975.0,265046.0,154803.0,258210.0,168412.0
2026-04-14 17:18:30.046632,203290,1609504603757696,2203727613,-1.03456,-0.099552,0.080032,11.64625,-4.4975,2.2225,19.032001,27.248001,12.480001,concentric,2,3.0,81813.0,263091.0,152562.0,256781.0,165933.0
2026-04-14 17:18:30.049264,203291,1609504603772278,2203742558,-1.03456,-0.099552,0.080032,-2.1525,-2.2925,0.70875,19.032001,27.248001,12.480001,concentric,2,3.0,81813.0,263091.0,152562.0,256781.0,165933.0
2026-04-14 17:18:30.051727,203292,1609504603781216,2203751254,-1.091168,-0.187392,-0.060512,-13.4925,-2.77375,1.295,18.880001,27.04,12.736001,concentric,2,3.0,81813.0,263091.0,152562.0,256781.0,165933.0
2026-04-14 17:18:30.059313,203293,1609504603790190,2203759948,-1.091168,-0.187392,-0.060512,-17.3425,-3.68375,2.31,18.880001,27.04,12.736001,concentric,2,3.0,81813.0,263091.0,152562.0,256781.0,165933.0
2026-04-14 17:18:30.076798,203294,1609504603804667,2203774864,-1.128256,-0.20496,-0.109312,-12.67,-4.0075,3.395,19.104,27.072,11.368001,concentric,2,3.0,81813.0,263091.0,152562.0,256781.0,165933.0
2026-04-14 17:18:30.084284,203295,1609504603813574,2203783567,-1.128256,-0.20496,-0.109312,-3.56125,-3.33375,6.0375,19.104,27.072,11.368001,concentric,2,3.0,81813.0,263091.0,152562.0,256781.0,165933.0
2026-04-14 17:18:30.095964,203296,1609504603828055,2203796455,-1.126304,-0.025376,0.1464,3.73625,-1.67125,6.92125,19.024,26.728,11.712001,concentric,2,3.0,81813.0,263091.0,152562.0,256781.0,165933.0
2026-04-14 17:18:30.106901,203297,1609504603837267,2203807188,-1.126304,-0.025376,0.060512,6.51875,0.77875,4.10375,19.024,26.728,11.712001,concentric,2,3.0,81813.0,263091.0,152562.0,256781.0,165933.0
2026-04-14 17:18:30.146537,203308,1609504603852038,2203822394,-1.067744,-0.064416,0.060512,-0.42875,1.49625,-1.18125,20.096,26.808,11.568001,concentric,2,3.0,82545.0,264146.0,153234.0,257637.0,166786.0
2026-04-14 17:18:30.148746,203309,1609504603861133,2203831155,-1.138016,-0.150304,-0.042944,-9.30125,-0.21,-4.78625,19.320002,27.088001,13.360001,concentric,2,3.0,82545.0,264146.0,153234.0,257637.0,166786.0
2026-04-14 17:18:30.151470,203310,1609504603870137,2203839923,-1.138016,-0.150304,-0.042944,-10.84125,-0.77875,-5.3375,19.320002,27.088001,13.360001,concentric,2,3.0,82545.0,264146.0,153234.0,257637.0,166786.0
2026-04-14 17:18:30.155504,203311,1609504603884670,2203854879,-1.120448,-0.167872,0.070272,-4.2525,-0.18375,-6.0725,18.560001,26.976002,13.744,concentric,2,3.0,82545.0,264146.0,153234.0,257637.0,166786.0
2026-04-14 17:18:30.164294,203312,1609504603893579,2203863565,-1.120448,-0.167872,0.070272,3.745,1.02375,-3.9375,18.560001,26.976002,13.744,concentric,2,3.0,82545.0,264146.0,153234.0,257637.0,166786.0
2026-04-14 17:18:30.176843,203313,1609504603908079,2203876454,-1.13216,-0.10736,0.037088,7.5425,2.8175,-0.595,20.008001,26.672,11.656,concentric,2,3.0,82545.0,264146.0,153234.0,257637.0,166786.0
2026-04-14 17:18:30.188158,203314,1609504603917292,2203887276,-1.13216,-0.10736,0.037088,6.51,4.2525,1.25125,20.008001,26.672,11.656,concentric,2,3.0,82545.0,264146.0,153234.0,257637.0,166786.0
2026-04-14 17:18:30.195654,203315,1609504603926213,2203895942,-1.155584,-0.07808,-0.017568,3.78875,4.6725,3.0275,20.128,26.368002,11.888001,concentric,2,3.0,82545.0,264146.0,153234.0,257637.0,166786.0
2026-04-14 17:18:30.210661,203316,1609504603940705,2203910819,-1.08336,-0.183488,-0.05856,-0.88375,4.41875,3.3425,19.896002,26.592001,11.696,concentric,2,3.0,82545.0,264146.0,153234.0,257637.0,166786.0
2026-04-14 17:18:30.220573,203317,1609504603949634,2203919517,-1.08336,-0.183488,-0.05856,-3.325,4.06,3.9025,19.896002,26.592001,11.696,concentric,2,3.0,82545.0,264146.0,153234.0,257637.0,166786.0
2026-04-14 17:18:30.248193,203328,1609504603964300,2203934480,-1.128256,-0.160064,0.07808,-2.70375,3.71,5.74,20.064001,26.552002,12.032001,concentric,2,3.0,84248.0,265473.0,155554.0,259166.0,169178.0
2026-04-14 17:18:30.250390,203329,1609504603973331,2203943161,-1.128256,-0.160064,0.07808,3.0975,3.54375,8.84625,20.064001,26.552002,12.032001,concentric,2,3.0,84248.0,265473.0,155554.0,259166.0,169178.0
2026-04-14 17:18:30.257197,203330,1609504603987840,2203958126,-1.091168,-0.1464,0.00976,8.925,3.0625,10.6575,19.704,26.504002,12.8,concentric,2,3.0,84248.0,265473.0,155554.0,259166.0,169178.0
2026-04-14 17:18:30.267994,203331,1609504603996771,2203966865,-1.091168,-0.1464,0.00976,9.905,3.26375,11.43625,19.704,26.504002,12.8,concentric,2,3.0,84248.0,265473.0,155554.0,259166.0,169178.0
2026-04-14 17:18:30.277219,203332,1609504604005754,2203975543,-1.16144,-0.062464,0.113216,7.1225,3.36875,10.815,20.736,25.936,11.160001,concentric,2,3.0,84248.0,265473.0,155554.0,259166.0,169178.0
2026-04-14 17:18:30.290966,203333,1609504604020236,2203990416,-1.136064,-0.199104,-0.109312,1.925,3.57875,9.70375,21.192001,25.984001,12.384001,concentric,2,3.0,84248.0,265473.0,155554.0,259166.0,169178.0
2026-04-14 17:18:30.321147,203334,1609504604029205,2203999099,-1.136064,-0.199104,-0.109312,-0.41125,2.66,10.395,21.192001,25.984001,12.384001,concentric,2,3.0,84248.0,265473.0,155554.0,259166.0,169178.0
2026-04-14 17:18:30.321725,203335,1609504604043703,2204013990,-1.108736,-0.216672,0.08784,4.9525,1.4525,12.705,20.080002,25.664001,12.992001,concentric,2,3.0,84248.0,265473.0,155554.0,259166.0,169178.0
2026-04-14 17:18:30.374586,203346,1609504604053048,2204022743,-1.108736,-0.216672,0.08784,11.5325,0.09625,15.0325,20.080002,25.664001,12.992001,concentric,2,3.0,90829.0,271854.0,164149.0,265657.0,178191.0
2026-04-14 17:18:30.377216,203347,1609504604062086,2204031457,-1.091168,-0.11712,0.109312,14.1925,0.18375,18.40125,20.208,26.272001,14.144001,concentric,2,3.0,90829.0,271854.0,164149.0,265657.0,178191.0
2026-04-14 17:18:30.382249,203348,1609504604076533,2204046298,-1.091168,-0.11712,0.109312,12.43375,1.37375,21.6825,20.208,26.272001,14.144001,concentric,2,3.0,90829.0,271854.0,164149.0,265657.0,178191.0
2026-04-14 17:18:30.384274,203349,1609504604085436,2204055002,-1.212192,-0.10736,0.07808,6.23,2.5025,22.085001,19.736,26.024002,14.120001,concentric,2,3.0,90829.0,271854.0,164149.0,265657.0,178191.0
2026-04-14 17:18:30.387106,203350,1609504604099940,2204069900,-1.206336,-0.189344,0.080032,-3.31625,3.2375,21.72625,19.84,25.832,13.024,concentric,2,3.0,90829.0,271854.0,164149.0,265657.0,178191.0
2026-04-14 17:18:30.389323,203351,1609504604108927,2204078659,-1.206336,-0.189344,0.080032,-6.9475,3.73625,23.07375,19.84,25.832,13.024,concentric,2,3.0,90829.0,271854.0,164149.0,265657.0,178191.0
2026-04-14 17:18:30.394971,203352,1609504604123486,2204093531,-1.138016,-0.158112,0.025376,-1.365,3.22,25.2525,20.752,24.928001,13.224001,concentric,2,3.0,90829.0,271854.0,164149.0,265657.0,178191.0
2026-04-14 17:18:30.402211,203353,1609504604132414,2204102246,-1.138016,-0.158112,0.025376,6.79875,2.24,26.6175,20.752,24.928001,13.224001,concentric,2,3.0,90829.0,271854.0,164149.0,265657.0,178191.0
2026-04-14 17:18:30.410857,203354,1609504604141376,2204110939,-1.15168,-0.056608,-0.033184,12.3375,-0.53375,27.1075,20.736,24.552002,11.464001,concentric,2,3.0,90829.0,271854.0,164149.0,265657.0,178191.0
2026-04-14 17:18:30.447121,203365,1609504604156272,2204126072,-1.15168,-0.056608,-0.033184,11.29625,-2.70375,26.17125,20.736,24.552002,11.464001,concentric,2,3.0,98160.0,280673.0,173338.0,272999.0,187901.0
2026-04-14 17:18:30.449764,203366,1609504604165428,2204134839,-1.282464,-0.07808,-0.046848,3.33375,-5.39875,21.9975,21.064001,24.824001,14.152,concentric,2,3.0,98160.0,280673.0,173338.0,272999.0,187901.0
2026-04-14 17:18:30.451745,203367,1609504604179913,2204149831,-1.253184,-0.163968,-0.18544,-4.61125,-6.2125,16.4325,21.064001,24.824001,13.592001,concentric,2,3.0,98160.0,280673.0,173338.0,272999.0,187901.0
2026-04-14 17:18:30.459412,203368,1609504604188845,2204158583,-1.253184,-0.163968,-0.18544,-6.92125,-4.9525,12.1275,21.160002,24.344002,13.592001,concentric,2,3.0,98160.0,280673.0,173338.0,272999.0,187901.0
2026-04-14 17:18:30.492243,203369,1609504604197808,2204167297,-1.253184,-0.163968,-0.18544,-0.32375,-3.52625,11.2175,21.160002,24.344002,13.592001,concentric,2,3.0,98160.0,280673.0,173338.0,272999.0,187901.0
2026-04-14 17:18:30.494760,203370,1609504604212309,2204182172,-1.221952,-0.091744,-0.105408,4.47125,-3.9025,11.6025,21.416,24.152,13.320001,concentric,2,3.0,98160.0,280673.0,173338.0,272999.0,187901.0
2026-04-14 17:18:30.497246,203371,1609504604221227,2204190838,-1.251232,-0.044896,-0.10736,4.4275,-3.73625,11.7075,22.256,24.04,13.280001,concentric,2,3.0,98160.0,280673.0,173338.0,272999.0,187901.0
2026-04-14 17:18:30.505595,203372,1609504604235725,2204205767,-1.251232,-0.044896,-0.10736,-0.46375,-3.78,8.91625,22.256,24.04,13.280001,concentric,2,3.0,98160.0,280673.0,173338.0,272999.0,187901.0
2026-04-14 17:18:30.515805,203373,1609504604244669,2204214475,-1.126304,-0.142496,0.052704,-7.2975,-2.59875,4.12125,21.808,24.088001,13.112,concentric,2,3.0,98160.0,280673.0,173338.0,272999.0,187901.0
2026-04-14 17:18:30.546690,203384,1609504604259250,2204229443,-1.126304,-0.142496,0.052704,-8.47,1.46125,1.88125,21.808,24.088001,13.112,concentric,2,3.0,101969.0,286025.0,177618.0,276486.0,192466.0
2026-04-14 17:18:30.549111,203385,1609504604268215,2204238099,-1.231712,-0.074176,0.062464,-5.7575,5.74,1.7675,22.192001,24.496,10.992001,concentric,2,3.0,101969.0,286025.0,177618.0,276486.0,192466.0
2026-04-14 17:18:30.551878,203386,1609504604277141,2204246794,-1.231712,-0.074176,0.062464,-5.11875,9.33625,2.0475,22.192001,24.496,10.992001,concentric,2,3.0,101969.0,286025.0,177618.0,276486.0,192466.0
2026-04-14 17:18:30.561924,203387,1609504604291624,2204261688,-1.251232,-0.07808,-0.007808,-9.52875,11.13875,2.2575,22.232,23.912,12.792001,concentric,2,3.0,101969.0,286025.0,177618.0,276486.0,192466.0
2026-04-14 17:18:30.570997,203388,1609504604300589,2204270367,-1.251232,-0.115168,0.121024,-12.22375,12.15375,2.09125,22.232,23.912,12.792001,concentric,2,3.0,101969.0,286025.0,177618.0,276486.0,192466.0
2026-04-14 17:18:30.585989,203389,1609504604315072,2204285225,-1.186816,-0.115168,0.121024,-10.78,13.90375,0.7175,22.376001,23.904001,12.728001,concentric,2,3.0,101969.0,286025.0,177618.0,276486.0,192466.0
2026-04-14 17:18:30.597959,203390,1609504604324005,2204293952,-1.294176,-0.054656,-0.189344,-4.41,16.45875,-1.225,22.504002,23.904001,12.752001,concentric,2,3.0,101969.0,286025.0,177618.0,276486.0,192466.0
2026-04-14 17:18:30.607942,203391,1609504604338543,2204308872,-1.294176,-0.054656,-0.189344,2.91375,16.45,-3.465,22.504002,23.904001,12.752001,concentric,2,3.0,101969.0,286025.0,177618.0,276486.0,192466.0
2026-04-14 17:18:30.619593,203392,1609504604347469,2204317545,-1.280512,0.023424,-0.113216,0.98,15.6975,-6.74625,22.872002,23.872002,13.256001,concentric,2,3.0,101969.0,286025.0,177618.0,276486.0,192466.0
2026-04-14 17:18:30.648497,203403,1609504604356655,2204326337,-1.280512,0.023424,-0.113216,-4.7075,14.455,-10.4125,22.872002,23.872002,13.256001,concentric,2,3.0,112751.0,291335.0,190825.0,278401.0,206167.0
2026-04-14 17:18:30.650667,203404,1609504604371238,2204341266,-1.225856,-0.124928,-0.070272,-8.925,13.83375,-13.125,21.880001,24.160002,14.168,concentric,2,3.0,112751.0,291335.0,190825.0,278401.0,206167.0
2026-04-14 17:18:30.653047,203405,1609504604380168,2204349964,-1.225856,-0.124928,-0.070272,-10.4475,14.25375,-15.9775,21.880001,24.160002,14.168,concentric,2,3.0,112751.0,291335.0,190825.0,278401.0,206167.0
2026-04-14 17:18:30.685807,203406,1609504604394681,2204364921,-1.157536,-0.085888,0.076128,-6.4925,17.26375,-18.1125,22.368002,24.544,14.296001,concentric,2,3.0,112751.0,291335.0,190825.0,278401.0,206167.0
2026-04-14 17:18:30.713355,203407,1609504604403597,2204373621,-1.27856,0.046848,-0.0488,1.04125,18.9525,-19.845,22.624,24.224,12.856001,concentric,2,3.0,112751.0,291335.0,190825.0,278401.0,206167.0
2026-04-14 17:18:30.715981,203408,1609504604418048,2204386439,-1.27856,0.046848,-0.0488,1.575,17.33375,-22.93375,22.624,24.224,12.856001,concentric,2,3.0,112751.0,291335.0,190825.0,278401.0,206167.0
2026-04-14 17:18:30.718018,203409,1609504604427301,2204397217,-1.301984,-0.021472,-0.046848,-1.6975,14.875,-27.71125,23.000002,24.04,12.984,concentric,2,3.0,112751.0,291335.0,190825.0,278401.0,206167.0
2026-04-14 17:18:30.743485,203410,1609504604436191,2204405875,-1.301984,-0.021472,-0.046848,-4.10375,12.1275,-31.3775,23.000002,24.04,12.984,concentric,2,3.0,112751.0,291335.0,190825.0,278401.0,206167.0
2026-04-14 17:18:30.753495,203411,1609504604450707,2204420711,-1.184864,-0.066368,0.066368,-2.03,12.5475,-32.7075,22.696001,24.616001,12.864,concentric,2,3.0,112751.0,291335.0,190825.0,278401.0,206167.0
2026-04-14 17:18:30.782969,203422,1609504604459752,2204429760,-1.184864,-0.066368,0.066368,-1.19875,14.525,-33.5125,22.696001,24.616001,12.864,concentric,2,3.0,118848.0,292322.0,197888.0,279289.0,213222.0
2026-04-14 17:18:30.783333,203423,1609504604474241,2204442605,-1.24928,0.001952,0.109312,-1.56625,18.99625,-34.16,23.112001,24.856,12.944,concentric,2,3.0,118848.0,292322.0,197888.0,279289.0,213222.0
2026-04-14 17:18:30.785481,203424,1609504604483593,2204453392,-1.243424,-0.033184,0.040992,-3.49125,21.98,-36.1025,23.36,24.824001,12.496,concentric,2,3.0,118848.0,292322.0,197888.0,279289.0,213222.0
2026-04-14 17:18:30.794073,203425,1609504604492563,2204462093,-1.243424,-0.033184,0.040992,-4.4275,22.4525,-37.42375,23.36,24.824001,12.496,concentric,2,3.0,118848.0,292322.0,197888.0,279289.0,213222.0
2026-04-14 17:18:30.794995,203426,1609504604507147,2204477088,-1.22976,-0.08784,-0.154208,-2.38875,20.4575,-39.4275,23.096,25.272001,11.832001,concentric,2,3.0,118848.0,292322.0,197888.0,279289.0,213222.0
2026-04-14 17:18:30.796063,203427,1609504604516058,2204485775,-1.22976,-0.08784,-0.154208,3.22875,16.555,-39.47125,23.096,25.272001,11.832001,concentric,2,3.0,118848.0,292322.0,197888.0,279289.0,213222.0
2026-04-14 17:18:30.800434,203428,1609504604530564,2204500636,-1.282464,0.035136,0.0488,10.12375,12.67875,-38.6225,23.176,24.984001,12.208,concentric,2,3.0,118848.0,292322.0,197888.0,279289.0,213222.0
2026-04-14 17:18:30.809561,203429,1609504604539596,2204509326,-1.282464,0.035136,0.0488,12.67,12.6875,-40.66125,23.176,24.984001,12.208,concentric,2,3.0,118848.0,292322.0,197888.0,279289.0,213222.0
2026-04-14 17:18:30.817274,203430,1609504604548547,2204518032,-1.368352,-0.01952,-0.10736,9.28375,13.667501,-44.00375,22.568,25.296001,11.576,concentric,2,3.0,118848.0,292322.0,197888.0,279289.0,213222.0
2026-04-14 17:18:30.850554,203441,1609504604563251,2204532967,-1.276608,-0.040992,-0.103456,3.36875,14.25375,-45.91125,21.488,25.68,13.264001,concentric,2,3.0,122592.0,294255.0,201798.0,280645.0,217202.0
2026-04-14 17:18:30.853503,203442,1609504604572242,2204541725,-1.276608,-0.040992,-0.103456,1.46125,16.10875,-47.451252,21.488,25.68,13.264001,concentric,2,3.0,122592.0,294255.0,201798.0,280645.0,217202.0
2026-04-14 17:18:30.858050,203443,1609504604586744,2204556611,-1.163392,-0.105408,0.10736,4.50625,18.41,-47.74,20.496,26.016,11.752001,concentric,2,3.0,122592.0,294255.0,201798.0,280645.0,217202.0
2026-04-14 17:18:30.867307,203444,1609504604595684,2204565283,-1.163392,-0.105408,0.10736,5.8275,18.76,-46.3925,20.496,26.016,11.752001,concentric,2,3.0,122592.0,294255.0,201798.0,280645.0,217202.0
2026-04-14 17:18:30.879233,203445,1609504604610175,2204580228,-1.303936,0.046848,-0.119072,7.62125,21.0,-44.695,20.872002,25.568,10.872001,concentric,2,3.0,122592.0,294255.0,201798.0,280645.0,217202.0
2026-04-14 17:18:30.888946,203446,1609504604619107,2204588954,-1.303936,0.046848,-0.119072,13.4925,21.98875,-44.94875,20.872002,25.568,10.872001,concentric,2,3.0,122592.0,294255.0,201798.0,280645.0,217202.0
2026-04-14 17:18:30.899601,203447,1609504604628048,2204597651,-1.21024,-0.023424,0.003904,11.94375,22.015,-48.265,19.632002,25.984001,10.736,concentric,2,3.0,122592.0,294255.0,201798.0,280645.0,217202.0
2026-04-14 17:18:30.913405,203448,1609504604642449,2204612505,-1.21024,-0.023424,-0.1464,4.13,19.4075,-52.8325,19.632002,25.984001,10.736,concentric,2,3.0,122592.0,294255.0,201798.0,280645.0,217202.0
2026-04-14 17:18:30.920417,203449,1609504604651394,2204621218,-1.303936,-0.044896,-0.1464,5.425,18.0425,-54.775,18.984001,26.392002,12.704,concentric,2,3.0,122592.0,294255.0,201798.0,280645.0,217202.0
2026-04-14 17:18:30.948500,203460,1609504604666021,2204636206,-1.188768,-0.085888,0.085888,9.948751,15.56625,-53.73375,16.712,27.000002,13.040001,concentric,2,3.0,125751.0,299663.0,202961.0,284251.0,218864.0
2026-04-14 17:18:30.950619,203461,1609504604675062,2204644890,-1.188768,-0.085888,0.085888,11.41875,12.06625,-50.02375,16.712,27.000002,13.040001,concentric,2,3.0,125751.0,299663.0,202961.0,284251.0,218864.0
2026-04-14 17:18:30.962238,203462,1609504604689592,2204659773,-1.173152,0.111264,0.0488,8.98625,10.8325,-46.54125,16.024,27.104002,11.896001,concentric,2,3.0,125751.0,299663.0,202961.0,284251.0,218864.0
2026-04-14 17:18:30.970765,203463,1609504604698503,2204668499,-1.173152,0.111264,0.0488,13.37875,11.2,-45.920002,16.024,27.104002,11.896001,concentric,2,3.0,125751.0,299663.0,202961.0,284251.0,218864.0
2026-04-14 17:18:30.980984,203464,1609504604707402,2204677170,-1.184864,0.042944,0.011712,16.31875,11.025,-53.1825,16.84,27.12,11.000001,concentric,2,3.0,125751.0,299663.0,202961.0,284251.0,218864.0
2026-04-14 17:18:30.991650,203465,1609504604721856,2204692033,-1.184864,0.042944,0.011712,13.125,11.025,-58.345,16.84,27.12,11.000001,concentric,2,3.0,125751.0,299663.0,202961.0,284251.0,218864.0
2026-04-14 17:18:31.003151,203466,1609504604730800,2204700713,-1.159488,-0.167872,0.0488,7.805,13.825,-59.010002,16.016,27.000002,12.296001,concentric,2,3.0,125751.0,299663.0,202961.0,284251.0,218864.0
2026-04-14 17:18:31.017174,203467,1609504604745292,2204715602,-1.052128,-0.033184,0.0,8.12,16.38875,-53.08625,15.608001,27.840002,12.192,concentric,2,3.0,125751.0,299663.0,202961.0,284251.0,218864.0
2026-04-14 17:18:31.024588,203468,1609504604754196,2204724273,-1.052128,-0.033184,0.0,16.0475,18.75125,-46.40125,15.608001,27.840002,12.192,concentric,2,3.0,125751.0,299663.0,202961.0,284251.0,218864.0
