pc_time,serial_num,sensor_ts,host_ts,ax,ay,az,gx,gy,gz,mx,my,mz,phase,rpe,weight_kg,ppg_a,ppg_b,ppg_c,ppg_d,ppg_e
2026-04-14 17:18:41.454342,205431,1609504615181747,2215151963,-1.1224,-0.064416,-0.119072,-6.15125,-25.2175,-16.205,20.208,27.008001,12.240001,concentric,2,3.0,107228.0,287393.0,178365.0,270056.0,191736.0
2026-04-14 17:18:41.462178,205432,1609504615190696,2215160645,-1.1224,-0.064416,-0.119072,-11.6375,-23.135,-20.30875,20.208,27.008001,12.240001,concentric,2,3.0,107228.0,287393.0,178365.0,270056.0,191736.0
2026-04-14 17:18:41.478531,205433,1609504615205233,2215175537,-1.169248,-0.150304,-0.199104,-14.035,-22.51375,-21.32375,19.832,27.168001,12.968,concentric,2,3.0,107228.0,287393.0,178365.0,270056.0,191736.0
2026-04-14 17:18:41.507181,205444,1609504615214275,2215184656,-1.114592,-0.206912,-0.06832,-17.50875,-23.65125,-20.09875,20.032001,27.52,12.432,concentric,2,3.0,90608.0,266887.0,157997.0,253309.0,170040.0
2026-04-14 17:18:41.509333,205445,1609504615228844,2215197512,-1.114592,-0.206912,-0.06832,-16.91375,-22.5925,-18.78625,20.032001,27.52,12.432,concentric,2,3.0,90608.0,266887.0,157997.0,253309.0,170040.0
2026-04-14 17:18:41.512248,205446,1609504615238106,2215208255,-1.097024,-0.171776,0.101504,-8.00625,-20.83375,-16.73,18.84,27.752,13.496,concentric,2,3.0,90608.0,266887.0,157997.0,253309.0,170040.0
2026-04-14 17:18:41.517139,205447,1609504615247065,2215217032,-1.097024,-0.171776,0.101504,-0.1575,-19.678751,-13.83375,18.84,27.752,13.496,concentric,2,3.0,90608.0,266887.0,157997.0,253309.0,170040.0
2026-04-14 17:18:41.529759,205448,1609504615261553,2215229902,-1.13216,-0.15616,0.042944,2.03875,-17.21125,-12.215,20.048,27.088001,11.432,concentric,2,3.0,90608.0,266887.0,157997.0,253309.0,170040.0
2026-04-14 17:18:41.541071,205449,1609504615270746,2215240696,-1.13216,-0.15616,0.042944,-2.0825,-15.198751,-11.20875,20.048,27.088001,11.432,concentric,2,3.0,90608.0,266887.0,157997.0,253309.0,170040.0
2026-04-14 17:18:41.556085,205450,1609504615285213,2215253579,-1.124352,-0.140544,0.052704,-10.43875,-13.895,-9.03,20.160002,27.256,11.272,concentric,2,3.0,90608.0,266887.0,157997.0,253309.0,170040.0
2026-04-14 17:18:41.567206,205451,1609504615294451,2215264315,-1.126304,-0.142496,0.02928,-15.1725,-12.95,-7.77875,19.952002,27.480001,11.72,concentric,2,3.0,90608.0,266887.0,157997.0,253309.0,170040.0
2026-04-14 17:18:41.573579,205452,1609504615303379,2215273051,-1.126304,-0.142496,0.02928,-14.8225,-13.11625,-8.1725,19.952002,27.480001,11.72,concentric,2,3.0,90608.0,266887.0,157997.0,253309.0,170040.0
2026-04-14 17:18:41.608454,205463,1609504615318326,2215288019,-1.177056,-0.0976,-0.206912,-10.12375,-14.665,-9.275,19.432001,27.824001,12.288,concentric,2,3.0,69216.0,244965.0,130683.0,233108.0,141882.0
2026-04-14 17:18:41.610959,205464,1609504615327349,2215296742,-1.177056,-0.0976,-0.206912,-2.00375,-15.1025,-12.915,19.432001,27.824001,12.288,concentric,2,3.0,69216.0,244965.0,130683.0,233108.0,141882.0
2026-04-14 17:18:41.612978,205465,1609504615341919,2215311687,-1.21024,-0.109312,-0.015616,2.45875,-17.35125,-16.2925,18.528002,27.904001,12.320001,concentric,2,3.0,69216.0,244965.0,130683.0,233108.0,141882.0
2026-04-14 17:18:41.620909,205466,1609504615350831,2215320371,-1.21024,-0.109312,-0.015616,1.72375,-19.29375,-15.88125,18.528002,27.904001,12.320001,concentric,2,3.0,69216.0,244965.0,130683.0,233108.0,141882.0
2026-04-14 17:18:41.633673,205467,1609504615359793,2215329042,-1.065792,-0.222528,-0.035136,-1.35625,-19.18,-14.88375,19.160002,27.768002,10.848001,concentric,2,3.0,69216.0,244965.0,130683.0,233108.0,141882.0
2026-04-14 17:18:41.646117,205468,1609504615374297,2215343915,-1.116544,-0.251808,-0.10736,-2.68625,-19.897501,-14.980001,18.976002,27.640001,12.096001,concentric,2,3.0,69216.0,244965.0,130683.0,233108.0,141882.0
2026-04-14 17:18:41.652392,205469,1609504615383197,2215352638,-1.116544,-0.251808,-0.10736,1.19,-19.11875,-12.53875,18.976002,27.640001,12.096001,concentric,2,3.0,69216.0,244965.0,130683.0,233108.0,141882.0
2026-04-14 17:18:41.668267,205470,1609504615397747,2215367539,-1.159488,-0.11712,-0.033184,6.0725,-15.6975,-7.4725,18.936,27.736002,11.576,concentric,2,3.0,69216.0,244965.0,130683.0,233108.0,141882.0
2026-04-14 17:18:41.677933,205471,1609504615406676,2215376255,-1.159488,-0.11712,-0.033184,8.16375,-13.09,-5.705,18.936,27.736002,11.576,concentric,2,3.0,69216.0,244965.0,130683.0,233108.0,141882.0
2026-04-14 17:18:41.758578,205482,1609504615421316,2215391214,-1.13216,-0.144448,-0.060512,5.6875,-10.64875,-7.13125,18.072,28.168001,11.992001,concentric,2,3.0,61916.0,235890.0,121245.0,224313.0,132357.0
2026-04-14 17:18:41.761083,205483,1609504615430292,2215399888,-1.13216,-0.144448,-0.060512,-0.76125,-9.82625,-7.63,18.072,28.168001,11.992001,concentric,2,3.0,61916.0,235890.0,121245.0,224313.0,132357.0
2026-04-14 17:18:41.763582,205484,1609504615439196,2215408582,-1.106784,-0.255712,0.017568,-4.235,-9.7475,-7.105,17.256,28.176,13.048,concentric,2,3.0,61916.0,235890.0,121245.0,224313.0,132357.0
2026-04-14 17:18:41.766048,205485,1609504615453676,2215423461,-1.149728,-0.181536,-0.130784,-1.645,-10.15,-3.955,17.640001,28.04,12.792001,concentric,2,3.0,61916.0,235890.0,121245.0,224313.0,132357.0
2026-04-14 17:18:41.772092,205486,1609504615462565,2215432122,-1.149728,-0.181536,-0.130784,5.83625,-10.36,4.54125,17.640001,28.04,12.792001,concentric,2,3.0,61916.0,235890.0,121245.0,224313.0,132357.0
2026-04-14 17:18:41.772429,205487,1609504615477072,2215447012,-1.14192,-0.113216,-0.076128,17.68375,-7.7,3.0275,17.824001,27.616001,13.000001,concentric,2,3.0,61916.0,235890.0,121245.0,224313.0,132357.0
2026-04-14 17:18:41.772925,205488,1609504615486184,2215455775,-1.14192,-0.113216,-0.076128,21.07875,-8.72375,-6.4925,17.824001,27.616001,13.000001,concentric,2,3.0,61916.0,235890.0,121245.0,224313.0,132357.0
2026-04-14 17:18:41.775412,205489,1609504615500725,2215470726,-1.145824,-0.109312,0.033184,17.815,-10.14125,-7.93625,17.480001,27.816002,12.928,concentric,2,3.0,61916.0,235890.0,121245.0,224313.0,132357.0
2026-04-14 17:18:41.781252,205490,1609504615509646,2215479450,-1.145824,-0.109312,0.033184,8.12,-12.52125,-6.18625,17.480001,27.816002,12.928,concentric,2,3.0,61916.0,235890.0,121245.0,224313.0,132357.0
2026-04-14 17:18:41.809513,205501,1609504615519105,2215488437,-1.157536,-0.259616,0.005856,0.2975,-13.93,-6.4225,17.584002,27.848001,12.392,concentric,2,3.0,62408.0,237094.0,121638.0,226179.0,132785.0
2026-04-14 17:18:41.811941,205502,1609504615533778,2215503329,-1.1224,-0.228384,0.064416,1.04125,-13.1075,-4.3925,17.584002,27.464,13.088,concentric,2,3.0,62408.0,237094.0,121638.0,226179.0,132785.0
2026-04-14 17:18:41.814521,205503,1609504615542711,2215512002,-1.1224,-0.228384,0.064416,9.59,-9.5725,-0.30625,17.616001,27.464,13.088,concentric,2,3.0,62408.0,237094.0,121638.0,226179.0,132785.0
2026-04-14 17:18:41.828196,205504,1609504615557180,2215526948,-1.097024,-0.130784,0.132736,20.86,-5.80125,4.025,18.344002,26.864002,12.512001,concentric,2,3.0,62408.0,237094.0,121638.0,226179.0,132785.0
2026-04-14 17:18:41.838193,205505,1609504615566128,2215535610,-1.097024,-0.130784,0.132736,24.84125,-3.4825,6.335,18.344002,26.864002,12.512001,concentric,2,3.0,62408.0,237094.0,121638.0,226179.0,132785.0
2026-04-14 17:18:41.844581,205506,1609504615575089,2215544279,-1.067744,-0.140544,0.076128,15.6975,-3.185,6.88625,18.368,27.024002,13.384001,concentric,2,3.0,62408.0,237094.0,121638.0,226179.0,132785.0
2026-04-14 17:18:41.860713,205507,1609504615589619,2215559173,-1.067744,-0.140544,0.076128,6.125,-1.28625,6.34375,18.368,27.024002,13.384001,concentric,2,3.0,62408.0,237094.0,121638.0,226179.0,132785.0
2026-04-14 17:18:41.868223,205508,1609504615598626,2215567853,-1.075552,-0.173728,0.044896,-1.25125,-0.74375,5.71375,18.848001,27.088001,13.504001,concentric,2,3.0,62408.0,237094.0,121638.0,226179.0,132785.0
2026-04-14 17:18:41.884709,205509,1609504615613104,2215582735,-1.075552,-0.173728,0.044896,-6.55375,-0.53375,4.29625,18.848001,27.088001,13.504001,concentric,2,3.0,62408.0,237094.0,121638.0,226179.0,132785.0
2026-04-14 17:18:41.911926,205520,1609504615622051,2215591433,-1.149728,-0.158112,-0.122976,-1.47875,0.84,3.82375,18.632,27.016,13.352,concentric,2,3.0,60319.0,235656.0,119238.0,225776.0,130466.0
2026-04-14 17:18:41.914390,205521,1609504615636548,2215606388,-1.134112,-0.138592,-0.050752,3.61375,0.4025,2.82625,16.952002,27.088001,13.208,concentric,2,3.0,60319.0,235656.0,119238.0,225776.0,130466.0
2026-04-14 17:18:41.917136,205522,1609504615645541,2215615162,-1.134112,-0.138592,-0.050752,6.41375,-0.9625,3.3075,16.952002,27.088001,13.208,concentric,2,3.0,60319.0,235656.0,119238.0,225776.0,130466.0
2026-04-14 17:18:41.924499,205523,1609504615654500,2215623873,-1.056032,-0.1464,0.113216,9.98375,-1.30375,3.605,16.952002,26.928001,13.512001,concentric,2,3.0,60319.0,235656.0,119238.0,225776.0,130466.0
2026-04-14 17:18:41.939579,205524,1609504615668986,2215638740,-1.056032,-0.1464,0.113216,12.4425,-1.085,1.7675,17.92,26.928001,13.512001,concentric,2,3.0,60319.0,235656.0,119238.0,225776.0,130466.0
2026-04-14 17:18:41.948246,205525,1609504615677904,2215647396,-1.128256,-0.11712,-0.044896,13.448751,-1.33875,0.945,18.664001,26.592001,12.728001,concentric,2,3.0,60319.0,235656.0,119238.0,225776.0,130466.0
2026-04-14 17:18:41.963274,205526,1609504615692406,2215662299,-1.128256,-0.11712,-0.044896,11.76875,-0.42,-0.18375,18.664001,26.592001,12.728001,concentric,2,3.0,60319.0,235656.0,119238.0,225776.0,130466.0
2026-04-14 17:18:41.971149,205527,1609504615701373,2215671004,-1.059936,-0.160064,-0.003904,8.77625,-0.49875,-0.23625,18.792002,26.624,13.448001,concentric,2,3.0,60319.0,235656.0,119238.0,225776.0,130466.0
2026-04-14 17:18:42.033091,205538,1609504615715831,2215685897,-1.077504,-0.160064,-0.0488,6.22125,0.1575,1.3475,17.904001,26.920002,12.888001,concentric,2,3.0,60466.0,232145.0,119164.0,222274.0,130462.0
2026-04-14 17:18:42.035466,205539,1609504615724766,2215694624,-1.077504,-0.160064,-0.0488,3.605,0.97125,2.4325,17.904001,26.920002,12.888001,concentric,2,3.0,60466.0,232145.0,119164.0,222274.0,130462.0
2026-04-14 17:18:42.037965,205540,1609504615733675,2215703357,-1.077504,-0.160064,-0.0488,2.14375,2.61625,2.9575,17.904001,26.920002,12.888001,concentric,2,3.0,60466.0,232145.0,119164.0,222274.0,130462.0
2026-04-14 17:18:42.040421,205541,1609504615748182,2215718267,-1.124352,-0.093696,0.083936,2.52,4.22625,3.5175,17.904001,26.544,13.864,concentric,2,3.0,60466.0,232145.0,119164.0,222274.0,130462.0
2026-04-14 17:18:42.045413,205542,1609504615757136,2215726990,-1.065792,-0.115168,0.13664,2.1875,4.27,3.1325,18.08,26.472002,13.824,concentric,2,3.0,60466.0,232145.0,119164.0,222274.0,130462.0
2026-04-14 17:18:42.047888,205543,1609504615771647,2215741937,-1.065792,-0.115168,0.13664,1.505,3.4475,2.6075,18.08,26.472002,13.824,concentric,2,3.0,60466.0,232145.0,119164.0,222274.0,130462.0
2026-04-14 17:18:42.050297,205544,1609504615780558,2215750609,-1.110688,-0.115168,0.08784,2.03875,3.01875,2.2575,18.288,26.472002,14.840001,concentric,2,3.0,60466.0,232145.0,119164.0,222274.0,130462.0
2026-04-14 17:18:42.078388,205545,1609504615795044,2215763424,-1.110688,-0.122976,0.03904,4.15625,2.51125,2.33625,18.288,26.472002,12.792001,concentric,2,3.0,60466.0,232145.0,119164.0,222274.0,130462.0
2026-04-14 17:18:42.103499,205546,1609504615804212,2215774154,-1.069696,-0.122976,0.03904,5.0925,2.94875,2.8,18.408,26.160002,14.176001,concentric,2,3.0,60466.0,232145.0,119164.0,222274.0,130462.0
2026-04-14 17:18:42.106953,205547,1609504615813146,2215782829,-1.069696,-0.122976,0.03904,4.445,3.89375,1.54875,18.408,26.160002,14.176001,concentric,2,3.0,60466.0,232145.0,119164.0,222274.0,130462.0
2026-04-14 17:18:42.134510,205558,1609504615827705,2215796157,-1.128256,-0.06832,-0.080032,1.25125,4.41,-0.2975,17.664001,26.544,13.496,concentric,2,3.0,59472.0,228917.0,117623.0,219030.0,128875.0
2026-04-14 17:18:42.137336,205559,1609504615836962,2215806891,-1.1224,-0.10736,0.052704,-2.42375,3.535,-1.84625,18.400002,26.448002,14.752001,concentric,2,3.0,59472.0,228917.0,117623.0,219030.0,128875.0
2026-04-14 17:18:42.139833,205560,1609504615851445,2215821785,-1.1224,-0.10736,0.052704,-6.62375,2.52,-3.4825,18.400002,26.448002,14.752001,concentric,2,3.0,59472.0,228917.0,117623.0,219030.0,128875.0
2026-04-14 17:18:42.142269,205561,1609504615860409,2215830462,-1.108736,-0.189344,-0.080032,-8.68875,1.015,-3.57,19.008001,26.056002,12.76,concentric,2,3.0,59472.0,228917.0,117623.0,219030.0,128875.0
2026-04-14 17:18:42.149385,205562,1609504615869363,2215839169,-1.108736,-0.189344,-0.080032,-2.6075,0.67375,-2.1,19.008001,26.056002,12.76,concentric,2,3.0,59472.0,228917.0,117623.0,219030.0,128875.0
2026-04-14 17:18:42.155076,205563,1609504615883872,2215854093,-1.10288,-0.115168,0.162016,5.27625,1.26,-0.8225,19.288,25.968,13.576,concentric,2,3.0,59472.0,228917.0,117623.0,219030.0,128875.0
2026-04-14 17:18:42.162970,205564,1609504615892801,2215862773,-1.10288,-0.115168,0.162016,9.77375,2.765,-0.56875,19.288,25.968,13.576,concentric,2,3.0,59472.0,228917.0,117623.0,219030.0,128875.0
2026-04-14 17:18:42.178093,205565,1609504615907263,2215875624,-1.1712,-0.040992,0.021472,9.24875,4.0075,0.0875,19.384,25.576002,12.968,concentric,2,3.0,59472.0,228917.0,117623.0,219030.0,128875.0
2026-04-14 17:18:42.211125,205576,1609504615916480,2215886438,-1.139968,-0.179584,-0.095648,3.21125,4.5325,-1.16375,18.872002,26.184002,12.432,concentric,2,3.0,59755.0,228146.0,117773.0,218005.0,129142.0
2026-04-14 17:18:42.213541,205577,1609504615931103,2215901353,-1.139968,-0.179584,-0.095648,-9.82625,3.63125,-1.49625,18.872002,26.184002,12.432,concentric,2,3.0,59755.0,228146.0,117773.0,218005.0,129142.0
2026-04-14 17:18:42.215705,205578,1609504615940037,2215910163,-1.16144,-0.259616,0.023424,-17.70125,1.95125,1.68875,19.424002,26.152,12.696001,concentric,2,3.0,59755.0,228146.0,117773.0,218005.0,129142.0
2026-04-14 17:18:42.221136,205579,1609504615948975,2215918858,-1.16144,-0.259616,0.023424,-10.70125,1.12,5.88,19.424002,26.152,12.696001,concentric,2,3.0,59755.0,228146.0,117773.0,218005.0,129142.0
2026-04-14 17:18:42.234473,205580,1609504615963433,2215933716,-1.145824,-0.162016,0.103456,5.005,2.30125,9.8525,19.480001,25.872002,12.912001,concentric,2,3.0,59755.0,228146.0,117773.0,218005.0,129142.0
2026-04-14 17:18:42.243242,205581,1609504615972367,2215942382,-1.145824,-0.162016,0.103456,19.985,4.26125,11.36625,19.480001,25.872002,12.912001,concentric,2,3.0,59755.0,228146.0,117773.0,218005.0,129142.0
2026-04-14 17:18:42.255337,205582,1609504615986867,2215955221,-1.075552,0.017568,0.218624,22.96875,5.81875,9.415,19.480001,25.808,14.368001,concentric,2,3.0,59755.0,228146.0,117773.0,218005.0,129142.0
2026-04-14 17:18:42.267063,205583,1609504615995998,2215965968,-1.075552,0.017568,0.085888,13.2125,5.1975,5.915,19.480001,25.808,14.368001,concentric,2,3.0,59755.0,228146.0,117773.0,218005.0,129142.0
2026-04-14 17:18:42.277164,205584,1609504616004911,2215974655,-1.194624,-0.076128,0.085888,-4.52375,3.31625,1.89,19.696001,25.672,13.688001,concentric,2,3.0,59755.0,228146.0,117773.0,218005.0,129142.0
2026-04-14 17:18:42.313251,205595,1609504616019551,2215989575,-1.126304,-0.27328,0.050752,-19.81875,1.365,0.07875,19.736,25.720001,12.672001,concentric,2,3.0,68206.0,236256.0,128377.0,225219.0,140286.0
2026-04-14 17:18:42.315758,205596,1609504616028615,2215998403,-1.126304,-0.27328,0.050752,-19.87125,1.35625,1.81125,19.736,25.720001,12.672001,concentric,2,3.0,68206.0,236256.0,128377.0,225219.0,140286.0
2026-04-14 17:18:42.318207,205597,1609504616043217,2216013316,-1.153632,-0.251808,-0.066368,-2.9575,2.89625,5.5825,19.536001,25.496,12.992001,concentric,2,3.0,68206.0,236256.0,128377.0,225219.0,140286.0
2026-04-14 17:18:42.323259,205598,1609504616052139,2216022063,-1.153632,-0.251808,-0.066368,12.565,5.18,9.80875,19.536001,25.496,12.992001,concentric,2,3.0,68206.0,236256.0,128377.0,225219.0,140286.0
2026-04-14 17:18:42.336942,205599,1609504616066620,2216036969,-1.118496,-0.103456,-0.01952,18.22625,7.39375,13.22125,20.072,25.328001,13.584001,concentric,2,3.0,68206.0,236256.0,128377.0,225219.0,140286.0
2026-04-14 17:18:42.346938,205600,1609504616075538,2216045636,-1.118496,-0.103456,-0.01952,11.655,9.42375,12.71375,20.072,25.328001,13.584001,concentric,2,3.0,68206.0,236256.0,128377.0,225219.0,140286.0
2026-04-14 17:18:42.354421,205601,1609504616084477,2216054304,-1.128256,-0.074176,-0.037088,-7.7875,8.9075,9.03875,20.024,25.504002,14.120001,concentric,2,3.0,68206.0,236256.0,128377.0,225219.0,140286.0
2026-04-14 17:18:42.370747,205602,1609504616098959,2216069179,-1.147776,-0.236192,0.015616,-20.58,6.18625,5.50375,19.616001,25.672,12.432,concentric,2,3.0,68206.0,236256.0,128377.0,225219.0,140286.0
2026-04-14 17:18:42.378265,205603,1609504616107913,2216077841,-1.147776,-0.236192,0.015616,-22.0675,4.3225,1.19875,19.616001,25.672,12.432,concentric,2,3.0,68206.0,236256.0,128377.0,225219.0,140286.0
2026-04-14 17:18:42.413278,205614,1609504616122575,2216092709,-1.159488,-0.251808,-0.20496,-12.53875,2.7825,-1.67125,20.136002,24.776001,12.752001,concentric,2,3.0,82695.0,248962.0,146377.0,237558.0,159142.0
2026-04-14 17:18:42.415776,205615,1609504616131547,2216101528,-1.159488,-0.251808,-0.20496,3.70125,3.71875,-2.35375,20.136002,24.776001,12.752001,concentric,2,3.0,82695.0,248962.0,146377.0,237558.0,159142.0
2026-04-14 17:18:42.418226,205616,1609504616146094,2216116457,-1.165344,-0.03904,-0.011712,17.115,5.25,-3.885,19.472,25.552002,13.968,concentric,2,3.0,82695.0,248962.0,146377.0,237558.0,159142.0
2026-04-14 17:18:42.445719,205617,1609504616155028,2216125133,-1.165344,-0.03904,-0.011712,17.99,5.915,-4.7775,19.472,25.552002,13.968,concentric,2,3.0,82695.0,248962.0,146377.0,237558.0,159142.0
2026-04-14 17:18:42.470611,205618,1609504616163966,2216133796,-1.143872,-0.134688,0.169824,2.6075,5.67875,-7.945,20.224,25.52,13.72,concentric,2,3.0,82695.0,248962.0,146377.0,237558.0,159142.0
2026-04-14 17:18:42.478308,205619,1609504616178513,2216148693,-1.08336,-0.339648,-0.07808,-19.04875,4.01625,-11.90875,18.936,26.320002,12.448001,concentric,2,3.0,82695.0,248962.0,146377.0,237558.0,159142.0
2026-04-14 17:18:42.480801,205620,1609504616187439,2216157385,-1.08336,-0.339648,-0.07808,-25.27,5.1975,-12.775,18.936,26.320002,12.448001,concentric,2,3.0,82695.0,248962.0,146377.0,237558.0,159142.0
2026-04-14 17:18:42.483205,205621,1609504616201928,2216172239,-1.16144,-0.16592,0.003904,-12.985,7.5775,-12.32,18.928001,26.544,13.856001,concentric,2,3.0,82695.0,248962.0,146377.0,237558.0,159142.0
2026-04-14 17:18:42.485790,205622,1609504616210987,2216180914,-1.16144,-0.16592,0.003904,6.08125,9.86125,-11.31375,18.928001,26.544,13.856001,concentric,2,3.0,82695.0,248962.0,146377.0,237558.0,159142.0
2026-04-14 17:18:42.513216,205633,1609504616225602,2216194130,-1.104832,-0.095648,-0.015616,14.8925,11.08625,-11.4625,19.152,26.224,13.912001,concentric,2,3.0,101287.0,266922.0,169832.0,255137.0,183326.0
2026-04-14 17:18:42.516138,205634,1609504616235035,2216204919,-1.104832,-0.095648,-0.015616,9.26625,10.91125,-13.5275,19.152,26.224,13.912001,concentric,2,3.0,101287.0,266922.0,169832.0,255137.0,183326.0
2026-04-14 17:18:42.520593,205635,1609504616244037,2216213650,-1.106784,-0.199104,-0.015616,-3.815,9.1,-18.235,19.096,25.768002,14.264001,concentric,2,3.0,101287.0,266922.0,169832.0,255137.0,183326.0
2026-04-14 17:18:42.530379,205636,1609504616258502,2216228601,-1.1712,-0.259616,-0.050752,-12.11875,8.84625,-23.0475,19.968,25.872002,11.888001,concentric,2,3.0,101287.0,266922.0,169832.0,255137.0,183326.0
2026-04-14 17:18:42.536714,205637,1609504616267434,2216237303,-1.1712,-0.259616,-0.050752,-11.480001,8.75,-24.10625,19.968,25.872002,11.888001,concentric,2,3.0,101287.0,266922.0,169832.0,255137.0,183326.0
2026-04-14 17:18:42.552852,205638,1609504616281933,2216252199,-1.22976,-0.189344,-0.154208,-2.40625,10.2025,-22.8025,19.888,25.584002,13.040001,concentric,2,3.0,101287.0,266922.0,169832.0,255137.0,183326.0
2026-04-14 17:18:42.563492,205639,1609504616290906,2216260880,-1.22976,-0.189344,-0.154208,5.6175,12.04875,-21.175,19.888,25.584002,13.040001,concentric,2,3.0,101287.0,266922.0,169832.0,255137.0,183326.0
2026-04-14 17:18:42.571078,205640,1609504616299902,2216269569,-1.159488,-0.124928,0.095648,7.32375,12.71375,-20.2475,18.944,25.976002,14.128,concentric,2,3.0,101287.0,266922.0,169832.0,255137.0,183326.0
2026-04-14 17:18:42.586064,205641,1609504616314396,2216284407,-1.159488,-0.124928,0.095648,6.04625,14.945,-21.665,18.944,25.976002,14.128,concentric,2,3.0,101287.0,266922.0,169832.0,255137.0,183326.0
2026-04-14 17:18:42.616356,205652,1609504616323694,2216293220,-1.216096,-0.212768,-0.076128,-2.40625,15.627501,-25.165,20.136002,26.072,13.272,concentric,2,3.0,111600.0,278526.0,182103.0,264834.0,196145.0
2026-04-14 17:18:42.616855,205653,1609504616338208,2216308186,-1.216096,-0.212768,-0.040992,-7.35,16.975,-25.31375,20.136002,26.072,13.272,concentric,2,3.0,111600.0,278526.0,182103.0,264834.0,196145.0
2026-04-14 17:18:42.618005,205654,1609504616347125,2216316856,-1.202432,-0.160064,-0.040992,-4.6725,19.425,-23.66875,19.968,26.320002,13.376,concentric,2,3.0,111600.0,278526.0,182103.0,264834.0,196145.0
2026-04-14 17:18:42.646894,205655,1609504616356088,2216325529,-1.202432,-0.160064,-0.040992,-2.1525,20.71125,-23.0825,19.968,26.320002,13.376,concentric,2,3.0,111600.0,278526.0,182103.0,264834.0,196145.0
2026-04-14 17:18:42.649417,205656,1609504616370564,2216340440,-1.202432,-0.210816,0.0,-1.26,19.7575,-22.12875,19.928001,26.432001,13.056001,concentric,2,3.0,111600.0,278526.0,182103.0,264834.0,196145.0
2026-04-14 17:18:42.651998,205657,1609504616379468,2216349145,-1.173152,-0.201056,-0.021472,-1.715,18.27,-22.91625,18.400002,26.848001,13.664001,concentric,2,3.0,111600.0,278526.0,182103.0,264834.0,196145.0
2026-04-14 17:18:42.667096,205658,1609504616393951,2216364022,-1.173152,-0.201056,-0.021472,1.505,17.91125,-24.08875,18.400002,26.848001,13.664001,concentric,2,3.0,111600.0,278526.0,182103.0,264834.0,196145.0
2026-04-14 17:18:42.674568,205659,1609504616402876,2216372703,-1.147776,-0.130784,0.099552,9.345,18.2875,-22.07625,19.456001,26.344002,13.576,concentric,2,3.0,111600.0,278526.0,182103.0,264834.0,196145.0
2026-04-14 17:18:42.688249,205660,1609504616417369,2216387637,-1.147776,-0.130784,0.099552,7.70875,18.0425,-21.46375,19.456001,26.344002,13.576,concentric,2,3.0,111600.0,278526.0,182103.0,264834.0,196145.0
2026-04-14 17:18:42.718445,205671,1609504616426368,2216396330,-1.214144,-0.216672,-0.021472,1.4525,17.85875,-22.09375,19.960001,26.312002,13.280001,concentric,2,3.0,117349.0,291329.0,189709.0,274967.0,203895.0
2026-04-14 17:18:42.718552,205672,1609504616435438,2216405062,-1.214144,-0.216672,-0.021472,-3.5175,20.23,-22.12875,19.960001,26.312002,13.280001,concentric,2,3.0,117349.0,291329.0,189709.0,274967.0,203895.0
2026-04-14 17:18:42.720333,205673,1609504616449919,2216419956,-1.216096,-0.20496,-0.062464,-2.70375,21.07875,-19.6175,20.160002,26.752,13.552001,concentric,2,3.0,117349.0,291329.0,189709.0,274967.0,203895.0
2026-04-14 17:18:42.729447,205674,1609504616458851,2216428667,-1.216096,-0.20496,-0.062464,7.49875,21.49875,-18.62,20.160002,26.752,13.552001,concentric,2,3.0,117349.0,291329.0,189709.0,274967.0,203895.0
2026-04-14 17:18:42.744575,205675,1609504616473335,2216443559,-1.245376,-0.099552,-0.140544,16.49375,20.685,-19.678751,20.496,26.496002,14.032001,concentric,2,3.0,117349.0,291329.0,189709.0,274967.0,203895.0
2026-04-14 17:18:42.751945,205676,1609504616482306,2216452289,-1.218048,-0.18544,-0.150304,12.36375,18.41875,-22.12875,20.224,26.728,13.664001,concentric,2,3.0,117349.0,291329.0,189709.0,274967.0,203895.0
2026-04-14 17:18:42.767139,205677,1609504616496761,2216465126,-1.218048,-0.18544,-0.150304,3.045,17.7275,-22.81125,20.224,26.728,13.664001,concentric,2,3.0,117349.0,291329.0,189709.0,274967.0,203895.0
2026-04-14 17:18:42.775710,205678,1609504616505923,2216475860,-1.128256,-0.212768,0.148352,1.65375,19.1975,-19.985,19.696001,26.840002,13.376,concentric,2,3.0,117349.0,291329.0,189709.0,274967.0,203895.0
2026-04-14 17:18:42.785766,205679,1609504616514852,2216484566,-1.128256,-0.212768,0.148352,1.86375,21.51625,-17.80625,19.696001,26.840002,13.376,concentric,2,3.0,117349.0,291329.0,189709.0,274967.0,203895.0
2026-04-14 17:18:42.861097,205690,1609504616529766,2216499898,-1.266848,-0.085888,-0.238144,4.06875,22.96875,-17.710001,20.368,26.792002,13.56,concentric,2,3.0,117543.0,299342.0,190363.0,281380.0,205290.0
2026-04-14 17:18:42.863567,205691,1609504616538689,2216508637,-1.266848,-0.085888,-0.238144,13.545,23.73875,-19.90625,20.368,26.792002,13.56,concentric,2,3.0,117543.0,299342.0,190363.0,281380.0,205290.0
2026-04-14 17:18:42.865792,205692,1609504616553305,2216523525,-1.179008,-0.074176,-0.011712,16.765,21.595,-22.79375,20.080002,26.752,15.360001,concentric,2,3.0,117543.0,299342.0,190363.0,281380.0,205290.0
2026-04-14 17:18:42.868543,205693,1609504616562276,2216532253,-1.208288,-0.183488,-0.132736,9.63375,18.76,-25.38375,19.576,27.480001,14.688001,concentric,2,3.0,117543.0,299342.0,190363.0,281380.0,205290.0
2026-04-14 17:18:42.871098,205694,1609504616571203,2216540933,-1.208288,-0.183488,-0.132736,5.15375,19.08375,-22.26,19.576,27.480001,14.688001,concentric,2,3.0,117543.0,299342.0,190363.0,281380.0,205290.0
2026-04-14 17:18:42.875843,205695,1609504616585772,2216555822,-1.15168,-0.121024,0.121024,6.7025,21.28875,-19.83625,19.248001,27.344002,14.664001,concentric,2,3.0,117543.0,299342.0,190363.0,281380.0,205290.0
2026-04-14 17:18:42.878601,205696,1609504616594776,2216564541,-1.15168,-0.121024,0.121024,9.21375,20.39625,-19.04875,19.248001,27.344002,14.664001,concentric,2,3.0,117543.0,299342.0,190363.0,281380.0,205290.0
2026-04-14 17:18:42.881068,205697,1609504616609260,2216579455,-1.134112,-0.050752,-0.095648,13.93,18.94375,-21.105,19.448002,26.648,13.672001,concentric,2,3.0,117543.0,299342.0,190363.0,281380.0,205290.0
2026-04-14 17:18:42.889576,205698,1609504616618210,2216588147,-1.134112,-0.050752,-0.095648,18.585001,13.9125,-26.95875,19.448002,26.648,13.672001,concentric,2,3.0,117543.0,299342.0,190363.0,281380.0,205290.0
2026-04-14 17:18:42.917005,205709,1609504616632845,2216603090,-1.179008,-0.093696,-0.169824,19.95875,8.995,-30.54625,20.784,26.744001,12.352,concentric,2,3.0,115113.0,299373.0,187100.0,281629.0,202145.0
2026-04-14 17:18:42.919749,205710,1609504616641780,2216611818,-1.085312,-0.232288,0.119072,12.46875,6.93,-31.4825,20.12,26.136002,13.992001,concentric,2,3.0,115113.0,299373.0,187100.0,281629.0,202145.0
2026-04-14 17:18:42.922247,205711,1609504616650723,2216620524,-1.085312,-0.232288,0.119072,4.13,9.52875,-29.00625,20.12,26.136002,13.992001,concentric,2,3.0,115113.0,299373.0,187100.0,281629.0,202145.0
2026-04-14 17:18:42.936099,205712,1609504616665261,2216635388,-1.188768,-0.091744,-0.132736,2.1525,12.24125,-25.87375,18.784,26.208002,13.184001,concentric,2,3.0,115113.0,299373.0,187100.0,281629.0,202145.0
2026-04-14 17:18:42.943647,205713,1609504616674171,2216644024,-1.188768,-0.091744,-0.132736,10.50875,12.48625,-24.87625,18.784,26.208002,13.184001,concentric,2,3.0,115113.0,299373.0,187100.0,281629.0,202145.0
2026-04-14 17:18:42.959510,205714,1609504616688654,2216658923,-1.104832,-0.08784,-0.093696,23.1,8.9075,-27.125,18.064001,26.032001,12.216001,concentric,2,3.0,115113.0,299373.0,187100.0,281629.0,202145.0
2026-04-14 17:18:42.969855,205715,1609504616697593,2216667584,-1.104832,-0.08784,-0.093696,25.2875,4.52375,-33.25875,18.064001,26.032001,12.216001,concentric,2,3.0,115113.0,299373.0,187100.0,281629.0,202145.0
2026-04-14 17:18:42.980709,205716,1609504616712082,2216680436,-1.155584,-0.132736,-0.052704,23.17,2.9925,-37.0825,18.240002,26.456001,12.352,concentric,2,3.0,115113.0,299373.0,187100.0,281629.0,202145.0
2026-04-14 17:18:43.015892,205727,1609504616721325,2216691280,-1.069696,-0.31232,-0.101504,17.115,5.99375,-38.6925,18.240002,26.456001,12.112,concentric,2,3.0,109644.0,300934.0,180406.0,283067.0,195393.0
2026-04-14 17:18:43.017993,205728,1609504616730275,2216700162,-1.069696,-0.31232,-0.101504,2.24,11.82125,-35.805,17.76,26.192001,12.112,concentric,2,3.0,109644.0,300934.0,180406.0,283067.0,195393.0
2026-04-14 17:18:43.020885,205729,1609504616744844,2216715108,-1.09312,-0.162016,-0.28304,-6.2125,17.3425,-30.4325,17.400002,25.928001,12.416,concentric,2,3.0,109644.0,300934.0,180406.0,283067.0,195393.0
2026-04-14 17:18:43.025953,205730,1609504616753869,2216723798,-1.09312,-0.162016,-0.28304,-3.115,18.29625,-30.6075,17.400002,25.928001,12.416,concentric,2,3.0,109644.0,300934.0,180406.0,283067.0,195393.0
2026-04-14 17:18:43.039321,205731,1609504616768334,2216738682,-1.00528,-0.052704,-0.089792,4.97875,16.065,-36.225,16.744001,26.36,12.168,concentric,2,3.0,109644.0,300934.0,180406.0,283067.0,195393.0
2026-04-14 17:18:43.047305,205732,1609504616777249,2216747375,-1.00528,-0.052704,-0.089792,10.61375,12.2325,-44.3625,16.744001,26.36,12.168,concentric,2,3.0,109644.0,300934.0,180406.0,283067.0,195393.0
2026-04-14 17:18:43.057374,205733,1609504616786167,2216756048,-0.913536,-0.406016,-0.138592,8.05,11.20875,-53.655,15.968,26.976002,12.376,concentric,2,3.0,109644.0,300934.0,180406.0,283067.0,195393.0
2026-04-14 17:18:43.073629,205734,1609504616800660,2216770951,-0.913536,-0.406016,-0.138592,0.37625,13.3175,-54.635002,15.968,26.976002,12.376,concentric,2,3.0,109644.0,300934.0,180406.0,283067.0,195393.0
2026-04-14 17:18:43.081110,205735,1609504616809576,2216779610,-0.976,-0.300608,-0.18544,2.87875,18.82125,-47.73125,15.512001,27.264002,11.488001,concentric,2,3.0,109644.0,300934.0,180406.0,283067.0,195393.0
2026-04-14 17:18:43.116891,205746,1609504616824615,2216794640,-0.972096,-0.0976,-0.05856,3.29875,21.8925,-46.7775,15.016001,27.368002,12.968,concentric,2,3.0,105608.0,301277.0,175455.0,283071.0,190315.0
2026-04-14 17:18:43.119798,205747,1609504616833723,2216803367,-0.972096,-0.0976,-0.05856,5.66125,20.71125,-49.95375,15.016001,27.368002,12.968,concentric,2,3.0,105608.0,301277.0,175455.0,283071.0,190315.0
2026-04-14 17:18:43.122305,205748,1609504616842730,2216812134,-0.929152,-0.25376,-0.244,2.89625,16.66,-60.48,13.296001,28.024002,13.688001,concentric,2,3.0,105608.0,301277.0,175455.0,283071.0,190315.0
2026-04-14 17:18:43.128560,205749,1609504616857252,2216827015,-0.929152,-0.25376,-0.244,4.59375,13.02875,-68.01375,13.296001,28.024002,13.688001,concentric,2,3.0,105608.0,301277.0,175455.0,283071.0,190315.0
2026-04-14 17:18:43.135864,205750,1609504616866192,2216835761,-0.851072,-0.437248,-0.091744,12.39,12.53,-70.84875,12.832001,27.960001,12.464001,concentric,2,3.0,105608.0,301277.0,175455.0,283071.0,190315.0
2026-04-14 17:18:43.150643,205751,1609504616880666,2216850644,-0.851072,-0.437248,-0.091744,7.21875,16.49375,-68.29375,12.832001,27.960001,12.464001,concentric,2,3.0,105608.0,301277.0,175455.0,283071.0,190315.0
2026-04-14 17:18:43.197259,205752,1609504616889572,2216859313,-0.905728,-0.38064,-0.222528,0.35,23.2925,-61.48625,13.056001,28.008001,12.56,eccentric,2,3.0,105608.0,301277.0,175455.0,283071.0,190315.0
2026-04-14 17:18:43.199336,205753,1609504616904051,2216874163,-0.98576,-0.128832,-0.26352,3.99,29.04125,-60.8825,12.672001,27.648,12.68,eccentric,2,3.0,105608.0,301277.0,175455.0,283071.0,190315.0
2026-04-14 17:18:43.201891,205754,1609504616912982,2216882856,-0.98576,-0.128832,-0.26352,11.97875,28.88375,-63.02625,12.672001,27.648,12.68,eccentric,2,3.0,105608.0,301277.0,175455.0,283071.0,190315.0
2026-04-14 17:18:43.241834,205765,1609504616921928,2216891688,-0.98576,-0.128832,-0.26352,14.21875,28.4725,-69.5625,12.672001,27.648,12.68,eccentric,2,3.0,103901.0,302748.0,173701.0,284329.0,188483.0
2026-04-14 17:18:43.244492,205766,1609504616936436,2216906562,-0.905728,-0.359168,0.02928,5.50375,27.825,-78.32125,12.024,28.680002,13.688001,eccentric,2,3.0,103901.0,302748.0,173701.0,284329.0,188483.0
2026-04-14 17:18:43.246902,205767,1609504616945332,2216915242,-0.91744,-0.542656,-0.228384,0.20125,31.3775,-77.83125,11.64,29.032001,12.352,eccentric,2,3.0,103901.0,302748.0,173701.0,284329.0,188483.0
2026-04-14 17:18:43.249491,205768,1609504616959860,2216930185,-0.91744,-0.542656,-0.228384,-1.645,35.56875,-70.77,11.64,29.032001,12.352,eccentric,2,3.0,103901.0,302748.0,173701.0,284329.0,188483.0
2026-04-14 17:18:43.251871,205769,1609504616968759,2216938905,-0.981856,-0.269376,-0.122976,5.59125,38.77125,-60.9175,11.120001,28.824001,12.224001,eccentric,2,3.0,103901.0,302748.0,173701.0,284329.0,188483.0
2026-04-14 17:18:43.254534,205770,1609504616983309,2216951725,-0.948672,-0.318176,-0.26352,7.7875,38.17625,-62.79,10.576,29.048002,10.176001,eccentric,2,3.0,103901.0,302748.0,173701.0,284329.0,188483.0
2026-04-14 17:18:43.262004,205771,1609504616992576,2216962517,-0.948672,-0.318176,-0.26352,5.66125,36.015,-64.5925,10.576,29.048002,10.176001,eccentric,2,3.0,103901.0,302748.0,173701.0,284329.0,188483.0
2026-04-14 17:18:43.291915,205772,1609504617001516,2216971221,-0.948672,-0.318176,-0.26352,5.6175,38.03625,-70.3325,10.576,29.048002,10.176001,eccentric,2,3.0,103901.0,302748.0,173701.0,284329.0,188483.0
2026-04-14 17:18:43.296853,205773,1609504617016009,2216986084,-0.899872,-0.568032,-0.238144,3.36875,39.75125,-68.78375,10.048,28.904001,11.64,eccentric,2,3.0,103901.0,302748.0,173701.0,284329.0,188483.0
2026-04-14 17:18:43.324592,205784,1609504617024995,2216994797,-0.999424,-0.257664,-0.0488,0.525,43.65375,-62.8075,10.032001,29.368002,12.792001,eccentric,2,3.0,109223.0,307665.0,179518.0,288307.0,194988.0
2026-04-14 17:18:43.327002,205785,1609504617039594,2217009773,-0.999424,-0.257664,-0.0488,6.88625,49.44625,-54.57375,10.032001,29.368002,12.792001,eccentric,2,3.0,109223.0,307665.0,179518.0,288307.0,194988.0
2026-04-14 17:18:43.329617,205786,1609504617048518,2217018471,-0.970144,-0.415776,-0.316224,1.9075,51.6425,-58.07375,9.104,29.808,13.024,eccentric,2,3.0,109223.0,307665.0,179518.0,288307.0,194988.0
2026-04-14 17:18:43.334436,205787,1609504617063015,2217033334,-0.970144,-0.415776,-0.279136,-4.41875,45.08875,-56.6475,9.104,29.808,13.024,eccentric,2,3.0,109223.0,307665.0,179518.0,288307.0,194988.0
2026-04-14 17:18:43.341961,205788,1609504617071913,2217042040,-1.026752,-0.3904,-0.279136,1.09375,39.24375,-55.06375,8.64,29.904001,12.608001,eccentric,2,3.0,109223.0,307665.0,179518.0,288307.0,194988.0
2026-04-14 17:18:43.352006,205789,1609504617080846,2217050723,-1.026752,-0.3904,-0.279136,9.82625,35.21875,-48.79,8.64,29.904001,12.608001,eccentric,2,3.0,109223.0,307665.0,179518.0,288307.0,194988.0
2026-04-14 17:18:43.368855,205790,1609504617095334,2217065581,-0.821792,-0.433344,0.013664,13.685,36.3125,-45.6225,8.968,29.344002,11.816001,eccentric,2,3.0,109223.0,307665.0,179518.0,288307.0,194988.0
2026-04-14 17:18:43.375497,205791,1609504617104267,2217074263,-0.860832,-0.33184,-0.076128,3.78875,35.65625,-43.63625,8.784,29.208002,10.664001,eccentric,2,3.0,109223.0,307665.0,179518.0,288307.0,194988.0
2026-04-14 17:18:43.386890,205792,1609504617118725,2217087127,-0.860832,-0.33184,-0.076128,10.47375,41.08125,-38.12375,8.784,29.208002,10.664001,eccentric,2,3.0,109223.0,307665.0,179518.0,288307.0,194988.0
2026-04-14 17:18:43.419573,205803,1609504617128190,2217097954,-0.890112,-0.38064,-0.230336,7.58625,45.01875,-38.08875,8.0,30.064001,13.936001,eccentric,2,3.0,110641.0,308122.0,181057.0,288620.0,196342.0
2026-04-14 17:18:43.422050,205804,1609504617137208,2217106749,-0.890112,-0.38064,-0.230336,-0.98875,45.78,-32.52375,8.0,30.064001,13.936001,eccentric,2,3.0,110641.0,308122.0,181057.0,288620.0,196342.0
2026-04-14 17:18:43.424471,205805,1609504617151690,2217121667,-0.84912,-0.27328,-0.142496,-0.1575,45.465,-28.02625,7.32,30.376001,13.944,eccentric,2,3.0,110641.0,308122.0,181057.0,288620.0,196342.0
2026-04-14 17:18:43.430768,205806,1609504617160619,2217130376,-0.84912,-0.27328,-0.142496,-4.305,42.0175,-25.22625,7.32,30.376001,13.944,eccentric,2,3.0,110641.0,308122.0,181057.0,288620.0,196342.0
2026-04-14 17:18:43.447322,205807,1609504617175131,2217145277,-0.710528,-0.406016,-0.167872,-9.4675,33.565,-22.81125,8.768001,29.416002,11.784,eccentric,2,3.0,110641.0,308122.0,181057.0,288620.0,196342.0
2026-04-14 17:18:43.453574,205808,1609504617184137,2217153912,-0.710528,-0.363072,-0.109312,-1.715,25.4975,-17.78,8.768001,29.416002,11.784,eccentric,2,3.0,110641.0,308122.0,181057.0,288620.0,196342.0
2026-04-14 17:18:43.469364,205809,1609504617198626,2217168792,-0.75152,-0.363072,-0.109312,-1.53125,17.7275,-13.22125,8.064,29.824001,10.312,eccentric,2,3.0,110641.0,308122.0,181057.0,288620.0,196342.0
2026-04-14 17:18:43.478139,205810,1609504617207585,2217177481,-0.681248,-0.222528,-0.060512,0.63875,12.7575,-6.0025,8.792001,29.824001,12.040001,eccentric,2,3.0,110641.0,308122.0,181057.0,288620.0,196342.0
2026-04-14 17:18:43.488455,205811,1609504617216532,2217186168,-0.681248,-0.222528,-0.060512,-0.69125,12.74875,-6.51,8.792001,29.824001,12.040001,eccentric,2,3.0,110641.0,308122.0,181057.0,288620.0,196342.0
2026-04-14 17:18:43.522336,205822,1609504617231141,2217201118,-0.622688,-0.368928,-0.265472,-9.45,10.4475,-4.64625,8.576,30.080002,12.448001,eccentric,2,3.0,109017.0,308530.0,179630.0,289230.0,194174.0
2026-04-14 17:18:43.547249,205823,1609504617240124,2217209893,-0.622688,-0.368928,-0.265472,-8.84625,7.39375,-4.6725,8.576,30.080002,12.448001,eccentric,2,3.0,109017.0,308530.0,179630.0,289230.0,194174.0
2026-04-14 17:18:43.573287,205824,1609504617254670,2217224859,-0.650016,-0.46848,-0.257664,-6.85125,3.24625,-0.77,8.104,30.344002,12.152,eccentric,2,3.0,109017.0,308530.0,179630.0,289230.0,194174.0
2026-04-14 17:18:43.577989,205825,1609504617263609,2217233582,-0.650016,-0.46848,-0.257664,-3.255,-0.44625,7.6125,8.104,30.344002,12.152,eccentric,2,3.0,109017.0,308530.0,179630.0,289230.0,194174.0
2026-04-14 17:18:43.579154,205826,1609504617278069,2217246405,-0.554368,-0.368928,0.013664,1.42625,-2.3975,14.735,9.208,29.528002,11.848001,eccentric,2,3.0,109017.0,308530.0,179630.0,289230.0,194174.0
2026-04-14 17:18:43.581831,205827,1609504617287205,2217257181,-0.66368,-0.265472,-0.201056,-7.46375,-4.96125,17.54375,9.52,29.44,11.688001,eccentric,2,3.0,109017.0,308530.0,179630.0,289230.0,194174.0
2026-04-14 17:18:43.584304,205828,1609504617296116,2217265847,-0.66368,-0.265472,-0.201056,-9.205,-7.79625,23.31875,9.52,29.44,11.688001,eccentric,2,3.0,109017.0,308530.0,179630.0,289230.0,194174.0
2026-04-14 17:18:43.586773,205829,1609504617310605,2217280723,-0.665632,-0.26352,-0.08784,-7.665,-8.26875,23.555,9.52,29.496002,11.544001,eccentric,2,3.0,109017.0,308530.0,179630.0,289230.0,194174.0
2026-04-14 17:18:43.592180,205830,1609504617319532,2217289394,-0.665632,-0.26352,-0.08784,-16.79125,-9.17875,21.9975,9.52,29.496002,11.544001,eccentric,2,3.0,109017.0,308530.0,179630.0,289230.0,194174.0
2026-04-14 17:18:43.624548,205841,1609504617334535,2217304542,-0.665632,-0.503616,-0.251808,-21.23625,-10.21125,21.83125,9.6,29.816002,11.352,eccentric,2,3.0,105056.0,307939.0,175030.0,288856.0,189403.0
2026-04-14 17:18:43.627330,205842,1609504617343501,2217313366,-0.665632,-0.503616,-0.251808,-16.6425,-9.59,27.20375,9.6,29.816002,11.352,eccentric,2,3.0,105056.0,307939.0,175030.0,288856.0,189403.0
2026-04-14 17:18:43.629596,205843,1609504617352514,2217322065,-0.698816,-0.325984,-0.183488,-14.07,-7.0175,35.035,10.056001,29.816002,10.848001,eccentric,2,3.0,105056.0,307939.0,175030.0,288856.0,189403.0
2026-04-14 17:18:43.638603,205844,1609504617367039,2217336937,-0.732,-0.249856,-0.329888,-11.41875,-7.28,41.15125,10.632001,29.808,11.168,eccentric,2,3.0,105056.0,307939.0,175030.0,288856.0,189403.0
2026-04-14 17:18:43.646622,205845,1609504617375981,2217345748,-0.732,-0.249856,-0.329888,-12.18875,-11.01625,40.355,10.632001,29.808,11.168,eccentric,2,3.0,105056.0,307939.0,175030.0,288856.0,189403.0
2026-04-14 17:18:43.661714,205846,1609504617390463,2217360668,-0.778848,-0.372832,-0.240096,-20.125,-18.45375,36.785,10.824,29.576002,11.288,eccentric,2,3.0,105056.0,307939.0,175030.0,288856.0,189403.0
2026-04-14 17:18:43.669305,205847,1609504617399345,2217369333,-0.778848,-0.372832,-0.240096,-18.68125,-22.68875,37.905,10.824,29.576002,11.288,eccentric,2,3.0,105056.0,307939.0,175030.0,288856.0,189403.0
2026-04-14 17:18:43.684312,205848,1609504617413838,2217382189,-0.759328,-0.357216,-0.144448,-13.93875,-21.35875,41.9475,11.512,29.672,11.84,eccentric,2,3.0,105056.0,307939.0,175030.0,288856.0,189403.0
2026-04-14 17:18:43.693231,205849,1609504617423001,2217392902,-0.759328,-0.357216,-0.144448,-16.30125,-17.465,46.85625,11.512,29.672,11.84,eccentric,2,3.0,105056.0,307939.0,175030.0,288856.0,189403.0
2026-04-14 17:18:43.723278,205860,1609504617432066,2217401625,-0.685152,-0.335744,-0.052704,-25.45375,-12.85375,50.6625,11.976001,29.656002,10.632001,eccentric,2,3.0,101727.0,307165.0,171089.0,288083.0,185608.0
2026-04-14 17:18:43.725816,205861,1609504617446604,2217416568,-0.782752,-0.210816,-0.445056,-28.62125,-10.85,53.445,11.608001,29.584002,10.552,eccentric,2,3.0,101727.0,307165.0,171089.0,288083.0,185608.0
2026-04-14 17:18:43.728207,205862,1609504617455590,2217425341,-0.782752,-0.210816,-0.445056,-25.76875,-14.4725,50.74125,11.608001,29.584002,10.552,eccentric,2,3.0,101727.0,307165.0,171089.0,288083.0,185608.0
2026-04-14 17:18:43.742044,205863,1609504617470097,2217440249,-0.747616,-0.42944,-0.15616,-25.3575,-23.765,45.2725,12.992001,29.472002,10.464001,eccentric,2,3.0,101727.0,307165.0,171089.0,288083.0,185608.0
2026-04-14 17:18:43.752578,205864,1609504617479011,2217448906,-0.747616,-0.42944,-0.15616,-25.29625,-32.2175,43.4525,12.992001,29.472002,10.464001,eccentric,2,3.0,101727.0,307165.0,171089.0,288083.0,185608.0
2026-04-14 17:18:43.761081,205865,1609504617487982,2217457576,-0.769088,-0.398208,-0.064416,-22.79375,-32.59375,45.955,12.592001,29.528002,11.984,eccentric,2,3.0,101727.0,307165.0,171089.0,288083.0,185608.0
2026-04-14 17:18:43.772006,205866,1609504617502463,2217472505,-0.769088,-0.398208,-0.064416,-21.48125,-30.8,51.19625,12.592001,29.528002,11.984,eccentric,2,3.0,101727.0,307165.0,171089.0,288083.0,185608.0
2026-04-14 17:18:43.782001,205867,1609504617511390,2217481188,-0.903776,-0.242048,-0.325984,-19.74875,-30.4325,56.7175,13.616,28.984001,10.232,eccentric,2,3.0,101727.0,307165.0,171089.0,288083.0,185608.0
2026-04-14 17:18:43.822039,205879,1609504617525910,2217496116,-0.903776,-0.242048,-0.10736,-18.803751,-33.670002,55.53625,13.616,28.984001,10.232,eccentric,2,3.0,105376.0,304434.0,175747.0,285569.0,190066.0
2026-04-14 17:18:43.824586,205880,1609504617534912,2217504879,-0.970144,-0.259616,-0.095648,-16.695,-38.9725,49.88375,13.224001,29.344002,11.544001,eccentric,2,3.0,105376.0,304434.0,175747.0,285569.0,190066.0
2026-04-14 17:18:43.829565,205881,1609504617549443,2217519806,-1.020896,-0.398208,-0.339648,-14.752501,-40.7575,47.18,12.864,29.36,11.360001,eccentric,2,3.0,105376.0,304434.0,175747.0,285569.0,190066.0
2026-04-14 17:18:43.832051,205882,1609504617558372,2217528481,-1.020896,-0.398208,-0.339648,-19.705,-37.21375,47.95,12.864,29.36,11.360001,eccentric,2,3.0,105376.0,304434.0,175747.0,285569.0,190066.0
2026-04-14 17:18:43.838057,205883,1609504617567364,2217537186,-0.981856,-0.376736,-0.210816,-20.8425,-32.31375,51.9575,14.280001,28.848001,11.384001,eccentric,2,3.0,105376.0,304434.0,175747.0,285569.0,190066.0
2026-04-14 17:18:43.853291,205884,1609504617581897,2217552148,-0.981856,-0.376736,-0.210816,-19.15375,-28.2275,55.0375,14.280001,28.848001,11.384001,eccentric,2,3.0,105376.0,304434.0,175747.0,285569.0,190066.0
2026-04-14 17:18:43.860684,205885,1609504617590795,2217560823,-1.15168,-0.206912,-0.52704,-19.69625,-29.54875,55.195,15.216001,28.480001,10.392,eccentric,2,3.0,105376.0,304434.0,175747.0,285569.0,190066.0
2026-04-14 17:18:43.874592,205886,1609504617605286,2217573675,-1.15168,-0.206912,-0.52704,-13.97375,-35.23625,54.355,15.216001,28.480001,10.392,eccentric,2,3.0,105376.0,304434.0,175747.0,285569.0,190066.0
2026-04-14 17:18:43.885644,205887,1609504617614490,2217584418,-0.983808,-0.359168,-0.081984,-8.855001,-38.94625,50.951252,15.832001,28.176,10.288,eccentric,2,3.0,105376.0,304434.0,175747.0,285569.0,190066.0
2026-04-14 17:18:44.006107,205898,1609504617629480,2217599413,-1.108736,-0.368928,-0.2928,-13.34375,-35.95375,48.97375,15.632001,28.416002,10.816001,eccentric,2,3.0,109293.0,302811.0,180285.0,284084.0,194733.0
2026-04-14 17:18:44.008633,205899,1609504617638417,2217608103,-1.108736,-0.368928,-0.2928,-16.345,-29.3825,51.66,15.632001,28.416002,10.816001,eccentric,2,3.0,109293.0,302811.0,180285.0,284084.0,194733.0
2026-04-14 17:18:44.011131,205900,1609504617647325,2217616763,-1.159488,-0.275232,-0.470432,-11.8475,-23.695,52.0625,15.632001,28.416002,11.056001,eccentric,2,3.0,109293.0,302811.0,180285.0,284084.0,194733.0
2026-04-14 17:18:44.013543,205901,1609504617661909,2217631638,-1.159488,-0.275232,-0.470432,-9.66,-23.2925,51.170002,15.840001,27.856,11.056001,eccentric,2,3.0,109293.0,302811.0,180285.0,284084.0,194733.0
2026-04-14 17:18:44.016131,205902,1609504617670788,2217640317,-1.061888,-0.269376,-0.1464,-8.47875,-25.865,51.415,16.456001,27.512001,11.072001,eccentric,2,3.0,109293.0,302811.0,180285.0,284084.0,194733.0
2026-04-14 17:18:44.020729,205903,1609504617685264,2217655200,-1.061888,-0.269376,-0.1464,-9.765,-21.14875,51.345,16.456001,27.512001,11.072001,eccentric,2,3.0,109293.0,302811.0,180285.0,284084.0,194733.0
2026-04-14 17:18:44.021288,205904,1609504617694196,2217663864,-1.056032,-0.232288,-0.27328,-15.98625,-15.33,50.16375,17.096,27.584002,11.8,eccentric,2,3.0,109293.0,302811.0,180285.0,284084.0,194733.0
2026-04-14 17:18:44.022983,205905,1609504617703156,2217672555,-1.056032,-0.232288,-0.27328,-15.198751,-8.30375,42.7875,17.096,27.584002,11.8,eccentric,2,3.0,109293.0,302811.0,180285.0,284084.0,194733.0
2026-04-14 17:18:44.025599,205906,1609504617717673,2217687426,-1.069696,-0.345504,-0.261568,-15.93375,-8.75,39.08625,17.088001,28.04,11.848001,eccentric,2,3.0,109293.0,302811.0,180285.0,284084.0,194733.0
2026-04-14 17:18:44.056011,205917,1609504617726635,2217696414,-1.069696,-0.345504,-0.261568,-13.15125,-12.8975,42.67375,17.088001,28.04,11.848001,eccentric,2,3.0,107820.0,301530.0,178578.0,282519.0,192883.0
2026-04-14 17:18:44.058611,205918,1609504617741172,2217711374,-0.968192,-0.236192,-0.181536,-6.1075,-15.7325,44.58125,17.512001,27.504002,10.776001,eccentric,2,3.0,107820.0,301530.0,178578.0,282519.0,192883.0
2026-04-14 17:18:44.061093,205919,1609504617750117,2217720172,-1.15168,-0.03904,-0.095648,-2.02125,-17.36,45.6575,18.824001,26.832,11.104,eccentric,2,3.0,107820.0,301530.0,178578.0,282519.0,192883.0
2026-04-14 17:18:44.063603,205920,1609504617764658,2217733038,-1.15168,-0.03904,-0.095648,-1.93375,-19.06625,40.67875,18.824001,26.832,11.104,eccentric,2,3.0,107820.0,301530.0,178578.0,282519.0,192883.0
2026-04-14 17:18:44.066151,205921,1609504617773927,2217743826,-1.0736,-0.308416,-0.265472,-1.9075,-17.255,30.275,19.320002,26.720001,10.488001,eccentric,2,3.0,107820.0,301530.0,178578.0,282519.0,192883.0
2026-04-14 17:18:44.068242,205922,1609504617783000,2217752648,-1.0736,-0.308416,-0.265472,-9.16125,-17.1675,28.13125,19.320002,26.720001,10.488001,eccentric,2,3.0,107820.0,301530.0,178578.0,282519.0,192883.0
2026-04-14 17:18:44.070513,205923,1609504617797499,2217767548,-1.003328,-0.240096,0.015616,-13.3,-12.90625,35.14,20.104,26.240002,10.896001,eccentric,2,3.0,107820.0,301530.0,178578.0,282519.0,192883.0
2026-04-14 17:18:44.078517,205924,1609504617806463,2217776262,-1.003328,-0.240096,0.015616,-9.87875,-4.9,37.98375,20.104,26.240002,10.896001,eccentric,2,3.0,107820.0,301530.0,178578.0,282519.0,192883.0
2026-04-14 17:18:44.092288,205925,1609504617820937,2217791138,-1.14192,-0.074176,-0.144448,-9.6075,-3.07125,38.24625,20.832,26.456001,9.832001,eccentric,2,3.0,107820.0,301530.0,178578.0,282519.0,192883.0
2026-04-14 17:18:44.121835,205936,1609504617830341,2217799843,-0.993568,-0.12688,-0.392352,-8.89875,-11.0075,34.51875,21.12,25.840002,12.880001,eccentric,2,3.0,107480.0,297375.0,178394.0,278496.0,192560.0
2026-04-14 17:18:44.124284,205937,1609504617839418,2217808714,-0.993568,-0.12688,-0.392352,1.51375,-15.47,24.64875,21.12,25.840002,12.880001,eccentric,2,3.0,107480.0,297375.0,178394.0,278496.0,192560.0
2026-04-14 17:18:44.132284,205938,1609504617853910,2217823665,-1.114592,-0.265472,0.130784,3.49125,-19.60875,19.99375,21.36,26.112001,11.152,eccentric,2,3.0,107480.0,297375.0,178394.0,278496.0,192560.0
2026-04-14 17:18:44.132402,205939,1609504617862859,2217832423,-1.114592,-0.265472,0.130784,-0.175,-19.705,29.04125,21.36,26.112001,11.152,eccentric,2,3.0,107480.0,297375.0,178394.0,278496.0,192560.0
2026-04-14 17:18:44.147228,205940,1609504617877328,2217847292,-1.048224,-0.103456,-0.245952,-1.5225,-9.5375,29.6975,22.024,25.976002,11.968,eccentric,2,3.0,107480.0,297375.0,178394.0,278496.0,192560.0
2026-04-14 17:18:44.157292,205941,1609504617886268,2217855970,-1.048224,-0.103456,-0.245952,-6.23875,-3.61375,30.7125,22.024,25.976002,11.968,eccentric,2,3.0,107480.0,297375.0,178394.0,278496.0,192560.0
2026-04-14 17:18:44.173600,205942,1609504617900742,2217870872,-1.24928,-0.001952,-0.284992,-18.1125,-10.43,29.35625,23.192001,25.992,11.248,eccentric,2,3.0,107480.0,297375.0,178394.0,278496.0,192560.0
2026-04-14 17:18:44.179846,205943,1609504617909693,2217879595,-1.110688,-0.247904,-0.197152,-13.86,-12.31125,22.7325,23.720001,25.944002,11.280001,eccentric,2,3.0,107480.0,297375.0,178394.0,278496.0,192560.0
2026-04-14 17:18:44.188073,205944,1609504617918595,2217888264,-1.110688,-0.247904,-0.197152,-7.48125,-15.67125,13.37,23.720001,25.944002,11.280001,eccentric,2,3.0,107480.0,297375.0,178394.0,278496.0,192560.0
2026-04-14 17:18:44.224528,205955,1609504617933231,2217901596,-1.03456,-0.226432,-0.183488,-4.29625,-21.945,17.12375,24.056002,25.904001,10.864,eccentric,2,3.0,105823.0,293779.0,176597.0,275509.0,190542.0
2026-04-14 17:18:44.225948,205956,1609504617942444,2217912389,-1.03456,-0.226432,-0.183488,-2.17,-20.06375,22.4,24.056002,25.904001,10.864,eccentric,2,3.0,105823.0,293779.0,176597.0,275509.0,190542.0
2026-04-14 17:18:44.228503,205957,1609504617957014,2217927362,-1.19072,-0.001952,-0.005856,1.25125,-13.79875,24.82375,24.192001,25.768002,11.152,eccentric,2,3.0,105823.0,293779.0,176597.0,275509.0,190542.0
2026-04-14 17:18:44.235445,205958,1609504617965949,2217936070,-1.19072,-0.001952,-0.005856,-3.00125,-13.36125,24.745,24.192001,25.768002,11.152,eccentric,2,3.0,105823.0,293779.0,176597.0,275509.0,190542.0
2026-04-14 17:18:44.245924,205959,1609504617974914,2217944742,-1.100928,-0.085888,-0.212768,-10.43875,-13.62375,18.8125,23.968,25.800001,11.968,eccentric,2,3.0,105823.0,293779.0,176597.0,275509.0,190542.0
2026-04-14 17:18:44.283849,205960,1609504617989398,2217959636,-1.100928,-0.238144,-0.173728,-16.58125,-12.17125,9.35375,23.968,25.800001,11.968,eccentric,2,3.0,105823.0,293779.0,176597.0,275509.0,190542.0
2026-04-14 17:18:44.285619,205961,1609504617998302,2217968310,-1.223904,-0.238144,-0.173728,-15.75875,-14.595,9.28375,24.168001,25.848001,11.816001,eccentric,2,3.0,105823.0,293779.0,176597.0,275509.0,190542.0
2026-04-14 17:18:44.288569,205962,1609504618012798,2217981147,-1.026752,-0.160064,-0.111264,-13.60625,-17.395,13.4925,23.064001,26.128002,12.880001,eccentric,2,3.0,105823.0,293779.0,176597.0,275509.0,190542.0
2026-04-14 17:18:44.313427,205963,1609504618022019,2217991889,-1.026752,-0.160064,-0.111264,-10.15875,-16.24875,16.35375,23.064001,26.128002,12.880001,eccentric,2,3.0,105823.0,293779.0,176597.0,275509.0,190542.0
2026-04-14 17:18:44.340992,205974,1609504618036601,2218006876,-1.245376,0.027328,-0.015616,-4.06,-17.92,17.955,22.952002,25.656002,13.136001,eccentric,2,3.0,103592.0,285735.0,174424.0,269599.0,187822.0
2026-04-14 17:18:44.343506,205975,1609504618045549,2218015537,-1.245376,0.027328,-0.015616,1.2425,-22.435,17.12375,22.952002,25.656002,13.136001,eccentric,2,3.0,103592.0,285735.0,174424.0,269599.0,187822.0
2026-04-14 17:18:44.345998,205976,1609504618054550,2218024257,-1.061888,-0.083936,-0.122976,0.07,-23.45875,7.875,22.44,25.656002,13.432001,eccentric,2,3.0,103592.0,285735.0,174424.0,269599.0,187822.0
2026-04-14 17:18:44.348081,205977,1609504618069135,2218039260,-1.061888,-0.083936,-0.122976,-7.1575,-22.645,-0.32375,22.44,25.656002,13.432001,eccentric,2,3.0,103592.0,285735.0,174424.0,269599.0,187822.0
2026-04-14 17:18:44.350471,205978,1609504618078074,2218047942,-1.204384,-0.191296,-0.0976,-11.41875,-25.12125,2.0825,22.160002,25.760002,14.616001,eccentric,2,3.0,103592.0,285735.0,174424.0,269599.0,187822.0
2026-04-14 17:18:44.363185,205979,1609504618092554,2218062808,-1.173152,-0.128832,-0.222528,-11.13875,-23.40625,5.06625,22.048,25.768002,12.864,eccentric,2,3.0,103592.0,285735.0,174424.0,269599.0,187822.0
2026-04-14 17:18:44.373607,205980,1609504618101463,2218071491,-1.173152,-0.128832,-0.222528,-6.20375,-19.845,4.22625,22.048,25.768002,12.864,eccentric,2,3.0,103592.0,285735.0,174424.0,269599.0,187822.0
2026-04-14 17:18:44.384369,205981,1609504618116032,2218084391,-1.202432,-0.066368,-0.163968,0.4025,-21.42,6.30875,21.056002,26.128002,13.384001,eccentric,2,3.0,103592.0,285735.0,174424.0,269599.0,187822.0
2026-04-14 17:18:44.396090,205982,1609504618125242,2218095136,-1.202432,-0.066368,-0.163968,0.9275,-22.28625,6.67625,21.056002,26.128002,13.384001,eccentric,2,3.0,103592.0,285735.0,174424.0,269599.0,187822.0
2026-04-14 17:18:44.423049,205993,1609504618134362,2218103861,-1.079456,-0.162016,-0.001952,-6.23,-22.1725,2.6425,21.936,25.592001,12.424001,eccentric,2,3.0,96487.0,275147.0,165658.0,262117.0,178424.0
2026-04-14 17:18:44.426035,205994,1609504618148958,2218118888,-1.079456,-0.162016,-0.001952,-5.85375,-25.725,6.32625,21.936,25.592001,12.424001,eccentric,2,3.0,96487.0,275147.0,165658.0,262117.0,178424.0
2026-04-14 17:18:44.428547,205995,1609504618157893,2218127650,-1.091168,-0.083936,0.128832,-0.8925,-24.03625,10.325,21.112001,25.704,13.568001,eccentric,2,3.0,96487.0,275147.0,165658.0,262117.0,178424.0
2026-04-14 17:18:44.443589,205996,1609504618172359,2218142533,-1.153632,-0.033184,0.109312,1.72375,-19.7925,7.77875,22.048,25.472002,12.072001,eccentric,2,3.0,96487.0,275147.0,165658.0,262117.0,178424.0
2026-04-14 17:18:44.453030,205997,1609504618181302,2218151212,-1.153632,-0.033184,0.109312,0.63,-18.19125,6.90375,22.048,25.472002,12.072001,eccentric,2,3.0,96487.0,275147.0,165658.0,262117.0,178424.0
2026-04-14 17:18:44.461814,205998,1609504618190210,2218159934,-1.153632,-0.033184,-0.031232,-2.44125,-18.03375,6.41375,22.048,25.472002,12.072001,eccentric,2,3.0,96487.0,275147.0,165658.0,262117.0,178424.0
2026-04-14 17:18:44.475367,205999,1609504618204679,2218174851,-1.165344,-0.128832,-0.025376,-9.17,-18.03375,1.89875,20.960001,25.512001,13.232,eccentric,2,3.0,96487.0,275147.0,165658.0,262117.0,178424.0
2026-04-14 17:18:44.484163,206000,1609504618213585,2218183529,-1.214144,-0.158112,-0.085888,-14.4725,-19.83625,0.735,21.576,25.304,12.328001,eccentric,2,3.0,96487.0,275147.0,165658.0,262117.0,178424.0
2026-04-14 17:18:44.499886,206001,1609504618228067,2218198405,-1.214144,-0.158112,-0.085888,-9.37125,-20.97375,5.11875,21.576,25.304,12.328001,eccentric,2,3.0,96487.0,275147.0,165658.0,262117.0,178424.0
2026-04-14 17:18:44.527292,206012,1609504618237037,2218207204,-1.208288,-0.121024,-0.244,1.3125,-20.3525,7.35,21.456001,25.408,12.272,eccentric,2,3.0,87229.0,264516.0,154439.0,253450.0,166265.0
2026-04-14 17:18:44.529685,206013,1609504618251530,2218220187,-1.243424,0.003904,-0.005856,6.44,-20.39625,5.74,20.848001,25.560001,13.112,eccentric,2,3.0,87229.0,264516.0,154439.0,253450.0,166265.0
2026-04-14 17:18:44.532295,206014,1609504618260763,2218230959,-1.243424,0.003904,-0.005856,5.62625,-22.0325,3.185,20.848001,25.560001,13.112,eccentric,2,3.0,87229.0,264516.0,154439.0,253450.0,166265.0
2026-04-14 17:18:44.542332,206015,1609504618269683,2218239651,-1.243424,0.003904,-0.005856,1.72375,-23.6425,-0.2625,20.848001,25.560001,13.112,eccentric,2,3.0,87229.0,264516.0,154439.0,253450.0,166265.0
