pc_time,serial_num,sensor_ts,host_ts,ax,ay,az,gx,gy,gz,mx,my,mz,phase,rpe,weight_kg,ppg_a,ppg_b,ppg_c,ppg_d,ppg_e
2026-04-14 17:09:16.177123,99157,1609504049886669,1649856612,0.91744,-0.191296,-0.134688,15.96875,2.68625,4.48,-21.656,-10.712001,-11.064,inter_set_rest,2,3.0,55196.0,219844.0,118517.0,215967.0,131799.0
2026-04-14 17:09:16.180293,99158,1609504049895625,1649865334,0.9272,-0.191296,-0.134688,20.125,3.54375,3.87625,-22.160002,-10.688001,-9.344001,inter_set_rest,2,3.0,55196.0,219844.0,118517.0,215967.0,131799.0
2026-04-14 17:09:16.180698,99159,1609504049910094,1649880242,0.8296,-0.134688,-0.16592,20.23875,3.185,3.36875,-22.176,-10.672001,-11.376,inter_set_rest,2,3.0,55196.0,219844.0,118517.0,215967.0,131799.0
2026-04-14 17:09:16.192146,99160,1609504049918990,1649888884,0.8296,-0.134688,-0.16592,15.51375,2.7825,4.52375,-22.176,-10.672001,-11.376,inter_set_rest,2,3.0,55196.0,219844.0,118517.0,215967.0,131799.0
2026-04-14 17:09:16.210326,99171,1609504049934113,1649904201,0.909632,-0.18544,-0.044896,9.38875,1.89,7.76125,-21.992,-10.072001,-11.464001,inter_set_rest,2,3.0,55239.0,219596.0,118729.0,216480.0,132000.0
2026-04-14 17:09:16.213080,99172,1609504049943047,1649912894,0.909632,-0.18544,-0.044896,6.3875,0.63875,8.365,-21.992,-10.072001,-11.464001,inter_set_rest,2,3.0,55239.0,219596.0,118729.0,216480.0,132000.0
2026-04-14 17:09:16.215432,99173,1609504049952074,1649921603,0.86864,-0.160064,-0.122976,5.64375,-0.1925,7.35,-21.752,-10.984,-10.88,inter_set_rest,2,3.0,55239.0,219596.0,118729.0,216480.0,132000.0
2026-04-14 17:09:16.246748,99174,1609504049966655,1649936526,0.86864,-0.160064,-0.122976,6.93,-0.62125,6.51875,-21.752,-10.984,-10.88,inter_set_rest,2,3.0,55239.0,219596.0,118729.0,216480.0,132000.0
2026-04-14 17:09:16.249316,99175,1609504049975595,1649945218,0.89792,-0.163968,-0.144448,9.19625,-1.575,5.53875,-22.192001,-10.248,-9.344001,inter_set_rest,2,3.0,55239.0,219596.0,118729.0,216480.0,132000.0
2026-04-14 17:09:16.251665,99176,1609504049990066,1649960124,0.923296,-0.162016,-0.132736,9.26625,-2.80875,4.24375,-22.616001,-10.232,-11.712001,inter_set_rest,2,3.0,55239.0,219596.0,118729.0,216480.0,132000.0
2026-04-14 17:09:16.254412,99177,1609504049998969,1649968822,0.923296,-0.162016,-0.132736,7.51625,-3.68375,4.24375,-22.616001,-10.232,-11.712001,inter_set_rest,2,3.0,55239.0,219596.0,118729.0,216480.0,132000.0
2026-04-14 17:09:16.259402,99178,1609504050007950,1649977544,0.909632,-0.163968,-0.245952,5.3025,-4.4275,4.9,-20.568,-10.392,-9.88,inter_set_rest,2,3.0,55239.0,219596.0,118729.0,216480.0,132000.0
2026-04-14 17:09:16.276883,99179,1609504050022465,1649992452,0.909632,-0.163968,-0.245952,5.50375,-4.80375,4.795,-22.008001,-10.392,-9.88,inter_set_rest,2,3.0,55239.0,219596.0,118729.0,216480.0,132000.0
2026-04-14 17:09:16.304379,99190,1609504050031436,1650001220,1.01504,-0.1952,-0.089792,7.37625,-5.17125,3.64,-22.240002,-10.608001,-11.384001,inter_set_rest,2,3.0,57086.0,222933.0,121639.0,218794.0,135182.0
2026-04-14 17:09:16.306689,99191,1609504050046045,1650016147,1.01504,-0.1952,-0.089792,9.72125,-6.57125,1.89875,-22.240002,-10.608001,-11.384001,inter_set_rest,2,3.0,57086.0,222933.0,121639.0,218794.0,135182.0
2026-04-14 17:09:16.309335,99192,1609504050055080,1650024833,1.016992,-0.1952,-0.12688,10.26375,-9.415,1.89875,-22.136002,-10.808001,-11.568001,inter_set_rest,2,3.0,57086.0,222933.0,121639.0,218794.0,135182.0
2026-04-14 17:09:16.325516,99193,1609504050069557,1650039734,0.960384,-0.255712,-0.357216,7.0175,-12.4775,3.89375,-22.512001,-9.952001,-10.808001,inter_set_rest,2,3.0,57086.0,222933.0,121639.0,218794.0,135182.0
2026-04-14 17:09:16.330622,99194,1609504050078473,1650048424,0.960384,-0.255712,-0.357216,4.4975,-13.3525,7.0175,-22.512001,-9.952001,-10.808001,inter_set_rest,2,3.0,57086.0,222933.0,121639.0,218794.0,135182.0
2026-04-14 17:09:16.339753,99195,1609504050087391,1650057109,0.960384,-0.255712,-0.357216,4.6375,-12.43375,7.63,-22.512001,-9.952001,-10.808001,inter_set_rest,2,3.0,57086.0,222933.0,121639.0,218794.0,135182.0
2026-04-14 17:09:16.354482,99196,1609504050101848,1650071998,0.96624,-0.26352,-0.333792,6.545,-12.215,7.00875,-23.056002,-10.400001,-12.080001,inter_set_rest,2,3.0,57086.0,222933.0,121639.0,218794.0,135182.0
2026-04-14 17:09:16.363160,99197,1609504050110766,1650080664,0.940864,-0.28304,-0.368928,8.58375,-13.3175,8.30375,-22.376001,-10.344001,-11.952001,inter_set_rest,2,3.0,57086.0,222933.0,121639.0,218794.0,135182.0
2026-04-14 17:09:16.402867,99208,1609504050125270,1650095597,0.940864,-0.28304,-0.368928,9.82625,-14.04375,14.735,-22.376001,-10.344001,-11.952001,inter_set_rest,2,3.0,61488.0,228994.0,128436.0,223915.0,141777.0
2026-04-14 17:09:16.405541,99209,1609504050134245,1650104330,1.0248,-0.286944,-0.236192,10.0625,-13.58,16.1175,-22.368002,-10.400001,-11.960001,inter_set_rest,2,3.0,61488.0,228994.0,128436.0,223915.0,141777.0
2026-04-14 17:09:16.407928,99210,1609504050148790,1650117219,1.028704,-0.265472,-0.11712,10.03625,-14.5775,15.02375,-24.416,-10.152,-11.112,inter_set_rest,2,3.0,61488.0,228994.0,128436.0,223915.0,141777.0
2026-04-14 17:09:16.410627,99211,1609504050158027,1650127972,1.028704,-0.265472,-0.11712,8.1025,-14.945,16.9925,-23.2,-10.152,-11.112,inter_set_rest,2,3.0,61488.0,228994.0,128436.0,223915.0,141777.0
2026-04-14 17:09:16.419436,99212,1609504050167002,1650136666,1.028704,-0.265472,-0.11712,5.67875,-15.6975,17.07125,-23.2,-10.152,-11.112,inter_set_rest,2,3.0,61488.0,228994.0,128436.0,223915.0,141777.0
2026-04-14 17:09:16.434245,99213,1609504050181475,1650151522,0.931104,-0.27328,-0.376736,4.45375,-16.205,16.8,-22.632002,-9.968,-11.592001,inter_set_rest,2,3.0,61488.0,228994.0,128436.0,223915.0,141777.0
2026-04-14 17:09:16.441850,99214,1609504050190464,1650160285,0.921344,-0.286944,-0.343552,3.33375,-17.28125,16.72125,-23.152,-9.808001,-8.88,inter_set_rest,2,3.0,61488.0,228994.0,128436.0,223915.0,141777.0
2026-04-14 17:09:16.456699,99215,1609504050204964,1650175171,0.921344,-0.286944,-0.343552,3.955,-17.75375,17.5525,-23.152,-9.808001,-8.88,inter_set_rest,2,3.0,61488.0,228994.0,128436.0,223915.0,141777.0
2026-04-14 17:09:16.490400,99216,1609504050213948,1650183853,0.970144,-0.277184,-0.357216,4.92625,-17.535,17.71875,-22.400002,-10.312,-12.184001,inter_set_rest,2,3.0,61488.0,228994.0,128436.0,223915.0,141777.0
2026-04-14 17:09:16.543155,99227,1609504050228785,1650198774,0.970144,-0.277184,-0.357216,3.2025,-18.85625,16.03,-22.400002,-10.312,-12.184001,inter_set_rest,2,3.0,49591.0,207946.0,109653.0,206637.0,122207.0
2026-04-14 17:09:16.545589,99228,1609504050237772,1650207495,0.968192,-0.244,-0.38064,0.5075,-20.43125,15.1375,-22.488,-10.368,-12.920001,inter_set_rest,2,3.0,49591.0,207946.0,109653.0,206637.0,122207.0
2026-04-14 17:09:16.548112,99229,1609504050246760,1650216201,0.968192,-0.244,-0.38064,-2.19625,-21.58625,14.84875,-22.488,-10.368,-12.920001,inter_set_rest,2,3.0,49591.0,207946.0,109653.0,206637.0,122207.0
2026-04-14 17:09:16.550657,99230,1609504050261255,1650231085,1.011136,-0.288896,-0.337696,-6.16,-21.98,13.48375,-22.352001,-10.464001,-12.384001,inter_set_rest,2,3.0,49591.0,207946.0,109653.0,206637.0,122207.0
2026-04-14 17:09:16.553134,99231,1609504050270144,1650239783,0.938912,-0.31232,-0.378688,-7.9975,-21.98875,12.215,-22.36,-10.64,-12.6,inter_set_rest,2,3.0,49591.0,207946.0,109653.0,206637.0,122207.0
2026-04-14 17:09:16.555642,99232,1609504050284684,1650254675,0.938912,-0.31232,-0.378688,-5.495,-23.19625,10.47375,-22.36,-10.64,-12.6,inter_set_rest,2,3.0,49591.0,207946.0,109653.0,206637.0,122207.0
2026-04-14 17:09:16.558124,99233,1609504050293637,1650263428,1.048224,-0.26352,-0.160064,-3.955,-24.56125,9.6775,-22.12,-10.544001,-12.848001,inter_set_rest,2,3.0,49591.0,207946.0,109653.0,206637.0,122207.0
2026-04-14 17:09:16.562276,99234,1609504050302569,1650272101,1.048224,-0.26352,-0.160064,-1.26875,-25.01625,10.36875,-22.12,-10.544001,-12.848001,inter_set_rest,2,3.0,49591.0,207946.0,109653.0,206637.0,122207.0
2026-04-14 17:09:16.575948,99235,1609504050317126,1650287083,0.968192,-0.286944,-0.3904,-0.1225,-25.1125,10.5875,-22.136002,-10.856001,-13.232,inter_set_rest,2,3.0,49591.0,207946.0,109653.0,206637.0,122207.0
2026-04-14 17:09:16.602726,99246,1609504050326059,1650295853,0.968192,-0.286944,-0.3904,-1.44375,-23.94875,11.29625,-22.136002,-10.856001,-13.232,inter_set_rest,2,3.0,52529.0,209538.0,114292.0,207453.0,127571.0
2026-04-14 17:09:16.605357,99247,1609504050340638,1650310735,0.950624,-0.316224,-0.480192,-0.98875,-22.26,11.235,-22.160002,-10.672001,-12.624001,inter_set_rest,2,3.0,52529.0,209538.0,114292.0,207453.0,127571.0
2026-04-14 17:09:16.607836,99248,1609504050349609,1650319457,0.950624,-0.31232,-0.249856,0.56,-22.6625,10.35125,-22.160002,-10.672001,-12.624001,inter_set_rest,2,3.0,52529.0,209538.0,114292.0,207453.0,127571.0
2026-04-14 17:09:16.622895,99249,1609504050364195,1650334387,1.032608,-0.31232,-0.249856,3.33375,-23.40625,12.69625,-22.008001,-10.488001,-11.352,inter_set_rest,2,3.0,52529.0,209538.0,114292.0,207453.0,127571.0
2026-04-14 17:09:16.626702,99250,1609504050373107,1650343061,0.964288,-0.304512,-0.337696,6.0375,-22.25125,13.877501,-22.640001,-11.032001,-12.016001,inter_set_rest,2,3.0,52529.0,209538.0,114292.0,207453.0,127571.0
2026-04-14 17:09:16.635367,99251,1609504050382041,1650351750,0.964288,-0.304512,-0.337696,7.56875,-22.18125,13.0725,-22.640001,-11.032001,-12.016001,inter_set_rest,2,3.0,52529.0,209538.0,114292.0,207453.0,127571.0
2026-04-14 17:09:16.649505,99252,1609504050396576,1650366615,1.038464,-0.427488,-0.347456,10.96375,-20.51,13.9475,-22.160002,-11.224001,-13.384001,inter_set_rest,2,3.0,52529.0,209538.0,114292.0,207453.0,127571.0
2026-04-14 17:09:16.656529,99253,1609504050405523,1650375344,1.038464,-0.427488,-0.347456,15.785,-17.955,14.0525,-22.160002,-11.224001,-13.384001,inter_set_rest,2,3.0,52529.0,209538.0,114292.0,207453.0,127571.0
2026-04-14 17:09:16.673212,99254,1609504050419989,1650390251,0.960384,-0.339648,-0.290848,22.1025,-15.70625,15.505,-21.888,-10.952001,-13.424001,inter_set_rest,2,3.0,52529.0,209538.0,114292.0,207453.0,127571.0
2026-04-14 17:09:16.715894,99265,1609504050429320,1650399096,0.960384,-0.339648,-0.290848,27.195,-12.8975,17.73625,-21.888,-10.952001,-13.424001,inter_set_rest,2,3.0,48335.0,206450.0,107347.0,205198.0,119466.0
2026-04-14 17:09:16.718404,99266,1609504050438318,1650407803,0.913536,-0.21472,-0.206912,28.4025,-8.96,19.425,-22.144001,-11.136001,-14.432001,inter_set_rest,2,3.0,48335.0,206450.0,107347.0,205198.0,119466.0
2026-04-14 17:09:16.720892,99267,1609504050452791,1650422742,0.854976,-0.240096,-0.407968,21.7175,-5.66125,16.765,-23.728,-10.912001,-11.568001,inter_set_rest,2,3.0,48335.0,206450.0,107347.0,205198.0,119466.0
2026-04-14 17:09:16.723454,99268,1609504050461701,1650431434,0.854976,-0.240096,-0.407968,7.37625,-3.1325,9.52,-23.728,-10.912001,-11.568001,inter_set_rest,2,3.0,48335.0,206450.0,107347.0,205198.0,119466.0
2026-04-14 17:09:16.729783,99269,1609504050476250,1650446389,0.862784,-0.355264,-0.384544,-2.7825,-1.0325,4.2175,-24.064001,-11.312,-11.88,inter_set_rest,2,3.0,48335.0,206450.0,107347.0,205198.0,119466.0
2026-04-14 17:09:16.736829,99270,1609504050485251,1650455126,0.862784,-0.355264,-0.384544,-0.525,1.12875,3.75375,-24.064001,-11.312,-11.88,inter_set_rest,2,3.0,48335.0,206450.0,107347.0,205198.0,119466.0
2026-04-14 17:09:16.753458,99271,1609504050499753,1650470039,0.981856,-0.324032,-0.154208,-0.41125,3.99,-0.98,-22.544,-11.416,-13.408001,inter_set_rest,2,3.0,48335.0,206450.0,107347.0,205198.0,119466.0
2026-04-14 17:09:16.763015,99272,1609504050508682,1650478722,0.981856,-0.324032,-0.154208,8.02375,5.9325,4.8475,-22.544,-11.416,-13.408001,inter_set_rest,2,3.0,48335.0,206450.0,107347.0,205198.0,119466.0
2026-04-14 17:09:16.770965,99273,1609504050517609,1650487388,0.853024,-0.279136,-0.365024,12.78375,10.535,4.8825,-22.184002,-12.160001,-11.944,inter_set_rest,2,3.0,48335.0,206450.0,107347.0,205198.0,119466.0
2026-04-14 17:09:16.805794,99284,1609504050532301,1650502380,0.792512,-0.310368,-0.388448,12.01375,12.0225,1.18125,-22.616001,-11.976001,-11.920001,inter_set_rest,2,3.0,42674.0,194393.0,97897.0,194970.0,109132.0
2026-04-14 17:09:16.807903,99285,1609504050541425,1650511152,0.792512,-0.310368,-0.388448,7.9275,12.03125,-1.1725,-22.616001,-11.976001,-11.920001,inter_set_rest,2,3.0,42674.0,194393.0,97897.0,194970.0,109132.0
2026-04-14 17:09:16.810919,99286,1609504050555968,1650526200,0.901824,-0.335744,-0.208864,3.00125,11.40125,-0.16625,-23.272001,-11.808001,-11.960001,inter_set_rest,2,3.0,42674.0,194393.0,97897.0,194970.0,109132.0
2026-04-14 17:09:16.818406,99287,1609504050564907,1650534936,0.901824,-0.335744,-0.208864,3.185,11.45375,1.05,-23.272001,-11.808001,-11.960001,inter_set_rest,2,3.0,42674.0,194393.0,97897.0,194970.0,109132.0
2026-04-14 17:09:16.829696,99288,1609504050579402,1650547805,0.88816,-0.275232,-0.2928,3.6575,14.971251,-0.98,-23.528002,-12.336,-13.000001,inter_set_rest,2,3.0,42674.0,194393.0,97897.0,194970.0,109132.0
2026-04-14 17:09:16.860474,99289,1609504050588665,1650558549,0.88816,-0.275232,-0.2928,-3.955,16.8875,-4.89125,-23.528002,-12.336,-13.000001,inter_set_rest,2,3.0,42674.0,194393.0,97897.0,194970.0,109132.0
2026-04-14 17:09:16.862939,99290,1609504050597587,1650567230,0.74176,-0.31232,-0.425536,-10.15875,18.3225,-8.05,-22.84,-13.136001,-12.8,inter_set_rest,2,3.0,42674.0,194393.0,97897.0,194970.0,109132.0
2026-04-14 17:09:16.868509,99291,1609504050612067,1650582087,0.812032,-0.40016,-0.37088,-11.94375,16.89625,-9.5375,-22.864,-13.328001,-12.752001,inter_set_rest,2,3.0,42674.0,194393.0,97897.0,194970.0,109132.0
2026-04-14 17:09:16.893418,99292,1609504050621076,1650590824,0.812032,-0.40016,-0.37088,-7.81375,13.86,-13.4925,-22.864,-13.328001,-12.752001,inter_set_rest,2,3.0,42674.0,194393.0,97897.0,194970.0,109132.0
2026-04-14 17:09:16.945458,99303,1609504050635575,1650605913,0.815936,-0.32208,-0.452864,-0.69125,13.965,-13.3,-22.832,-13.624001,-12.304001,inter_set_rest,2,3.0,46064.0,207708.0,103829.0,206394.0,115421.0
2026-04-14 17:09:16.950931,99304,1609504050644465,1650614590,0.815936,-0.32208,-0.452864,2.52875,17.43875,-11.80375,-22.832,-13.624001,-12.304001,inter_set_rest,2,3.0,46064.0,207708.0,103829.0,206394.0,115421.0
2026-04-14 17:09:16.953632,99305,1609504050653370,1650623252,0.813984,-0.324032,-0.20496,-0.0175,20.8075,-14.69125,-22.856,-13.736001,-12.352,inter_set_rest,2,3.0,46064.0,207708.0,103829.0,206394.0,115421.0
2026-04-14 17:09:16.955562,99306,1609504050667843,1650638100,0.813984,-0.324032,-0.20496,1.0675,25.235,-17.10625,-22.856,-13.736001,-12.352,inter_set_rest,2,3.0,46064.0,207708.0,103829.0,206394.0,115421.0
2026-04-14 17:09:16.958242,99307,1609504050676852,1650646820,0.823744,-0.382592,-0.121024,3.57,27.04625,-18.5325,-23.208,-14.184001,-11.872001,inter_set_rest,2,3.0,46064.0,207708.0,103829.0,206394.0,115421.0
2026-04-14 17:09:16.960212,99308,1609504050691388,1650661726,0.823744,-0.382592,-0.121024,6.09875,27.02,-18.9875,-23.208,-14.184001,-11.872001,inter_set_rest,2,3.0,46064.0,207708.0,103829.0,206394.0,115421.0
2026-04-14 17:09:16.962806,99309,1609504050700310,1650670490,0.786656,-0.30256,-0.1464,5.5475,26.88875,-19.92375,-23.296001,-14.368001,-12.048,inter_set_rest,2,3.0,46064.0,207708.0,103829.0,206394.0,115421.0
2026-04-14 17:09:16.965636,99310,1609504050714836,1650683324,0.802272,-0.257664,-0.294752,3.0975,27.76375,-20.44,-22.68,-14.992001,-11.688001,inter_set_rest,2,3.0,46064.0,207708.0,103829.0,206394.0,115421.0
2026-04-14 17:09:16.977053,99311,1609504050724167,1650694075,0.802272,-0.257664,-0.294752,-1.9075,29.61875,-21.93625,-22.68,-14.992001,-11.688001,inter_set_rest,2,3.0,46064.0,207708.0,103829.0,206394.0,115421.0
2026-04-14 17:09:17.006749,99322,1609504050733338,1650702863,0.8296,-0.386496,-0.242048,-7.25375,32.6375,-24.82375,-23.76,-15.048,-10.240001,inter_set_rest,2,3.0,50238.0,229036.0,111012.0,224773.0,121895.0
2026-04-14 17:09:17.009204,99323,1609504050747916,1650717791,0.8296,-0.386496,-0.242048,-5.075,34.825,-28.1575,-23.76,-15.048,-10.240001,inter_set_rest,2,3.0,50238.0,229036.0,111012.0,224773.0,121895.0
2026-04-14 17:09:17.012127,99324,1609504050756921,1650726530,0.7808,-0.386496,-0.230336,-2.75625,33.81875,-30.2575,-24.008001,-15.696001,-9.64,inter_set_rest,2,3.0,50238.0,229036.0,111012.0,224773.0,121895.0
2026-04-14 17:09:17.024261,99325,1609504050771423,1650741453,0.7808,-0.386496,-0.230336,0.14875,33.635,-24.7975,-24.008001,-15.696001,-9.64,inter_set_rest,2,3.0,50238.0,229036.0,111012.0,224773.0,121895.0
2026-04-14 17:09:17.033477,99326,1609504050780319,1650750148,0.817888,-0.269376,-0.044896,-0.6475,35.7525,-21.428751,-23.728,-16.136002,-9.048,inter_set_rest,2,3.0,50238.0,229036.0,111012.0,224773.0,121895.0
2026-04-14 17:09:17.043660,99327,1609504050789316,1650758896,0.817888,-0.269376,-0.044896,-6.3175,36.6625,-22.88125,-23.728,-16.136002,-9.048,inter_set_rest,2,3.0,50238.0,229036.0,111012.0,224773.0,121895.0
2026-04-14 17:09:17.057849,99328,1609504050803805,1650773783,0.753472,-0.257664,-0.167872,-5.15375,38.19375,-24.14125,-22.904001,-16.656,-10.096001,inter_set_rest,2,3.0,50238.0,229036.0,111012.0,224773.0,121895.0
2026-04-14 17:09:17.065913,99329,1609504050812714,1650782453,0.612928,-0.26352,-0.21472,-5.985,39.34,-30.73875,-22.904001,-16.656,-9.416,inter_set_rest,2,3.0,50238.0,229036.0,111012.0,224773.0,121895.0
2026-04-14 17:09:17.082182,99330,1609504050827200,1650797345,0.622688,-0.26352,-0.21472,-0.46375,39.4625,-32.41,-24.096,-16.624,-9.416,inter_set_rest,2,3.0,50238.0,229036.0,111012.0,224773.0,121895.0
2026-04-14 17:09:17.109261,99341,1609504050836136,1650806090,0.757376,-0.314272,-0.031232,-2.3625,38.94625,-31.745,-22.792002,-16.848001,-8.816,inter_set_rest,2,3.0,56057.0,259449.0,120427.0,249163.0,129258.0
2026-04-14 17:09:17.112252,99342,1609504050850785,1650821053,0.757376,-0.314272,-0.031232,-9.5375,37.625,-24.03625,-22.792002,-16.848001,-8.816,inter_set_rest,2,3.0,56057.0,259449.0,120427.0,249163.0,129258.0
2026-04-14 17:09:17.114732,99343,1609504050859728,1650829745,0.708576,-0.249856,-0.152256,-7.76125,38.61375,-19.90625,-23.000002,-17.272001,-9.84,inter_set_rest,2,3.0,56057.0,259449.0,120427.0,249163.0,129258.0
2026-04-14 17:09:17.122248,99344,1609504050868670,1650838425,0.708576,-0.249856,-0.152256,-11.73375,38.8325,-24.053751,-23.000002,-17.272001,-9.84,inter_set_rest,2,3.0,56057.0,259449.0,120427.0,249163.0,129258.0
2026-04-14 17:09:17.138498,99345,1609504050883149,1650853290,0.64416,-0.18544,-0.183488,-9.975,38.115,-22.505,-23.488,-17.544,-9.328,inter_set_rest,2,3.0,56057.0,259449.0,120427.0,249163.0,129258.0
2026-04-14 17:09:17.144358,99346,1609504050892085,1650861978,0.64416,-0.18544,-0.183488,-10.43,38.955,-27.93875,-23.488,-17.544,-9.328,inter_set_rest,2,3.0,56057.0,259449.0,120427.0,249163.0,129258.0
2026-04-14 17:09:17.165928,99347,1609504050906538,1650876851,0.743712,-0.318176,-0.089792,-10.17625,37.31875,-27.195,-23.528002,-17.496,-6.888001,inter_set_rest,2,3.0,56057.0,259449.0,120427.0,249163.0,129258.0
2026-04-14 17:09:17.168445,99348,1609504050915459,1650885531,0.632448,-0.306464,-0.13664,-8.37375,34.763752,-24.9725,-22.688002,-18.264,-8.664001,inter_set_rest,2,3.0,56057.0,259449.0,120427.0,249163.0,129258.0
2026-04-14 17:09:17.183009,99349,1609504050929921,1650898345,0.632448,-0.306464,-0.13664,-9.14375,32.90875,-22.88125,-22.688002,-18.264,-8.664001,inter_set_rest,2,3.0,56057.0,259449.0,120427.0,249163.0,129258.0
2026-04-14 17:09:17.268341,99360,1609504050939686,1650909242,0.75152,-0.201056,0.03904,-3.2725,32.27875,-21.4025,-22.384,-18.256,-7.536,inter_set_rest,2,3.0,64827.0,284662.0,134173.0,269012.0,144846.0
2026-04-14 17:09:17.273128,99361,1609504050948717,1650917999,0.75152,-0.201056,0.03904,-2.5725,32.19125,-24.78875,-22.384,-18.256,-7.536,inter_set_rest,2,3.0,64827.0,284662.0,134173.0,269012.0,144846.0
2026-04-14 17:09:17.275559,99362,1609504050963203,1650932986,0.778848,-0.169824,-0.017568,-0.105,31.19375,-24.56125,-23.536001,-18.368,-7.272,inter_set_rest,2,3.0,64827.0,284662.0,134173.0,269012.0,144846.0
2026-04-14 17:09:17.278131,99363,1609504050972111,1650941661,0.778848,-0.169824,-0.017568,-0.805,30.1525,-27.37875,-23.536001,-18.368,-7.272,inter_set_rest,2,3.0,64827.0,284662.0,134173.0,269012.0,144846.0
2026-04-14 17:09:17.280929,99364,1609504050986555,1650956511,0.745664,-0.343552,-0.203008,-5.5475,26.80125,-27.6675,-23.12,-18.952002,-6.056,inter_set_rest,2,3.0,64827.0,284662.0,134173.0,269012.0,144846.0
2026-04-14 17:09:17.282915,99365,1609504050995459,1650965178,0.753472,-0.199104,-0.124928,-4.655,22.645,-22.23375,-22.688002,-18.968,-8.112,inter_set_rest,2,3.0,64827.0,284662.0,134173.0,269012.0,144846.0
2026-04-14 17:09:17.285609,99366,1609504051004385,1650973839,0.753472,-0.199104,-0.124928,-2.94,19.80125,-19.565,-22.688002,-18.968,-8.112,inter_set_rest,2,3.0,64827.0,284662.0,134173.0,269012.0,144846.0
2026-04-14 17:09:17.288428,99367,1609504051018868,1650988847,0.894016,-0.244,-0.206912,-4.2,18.2525,-20.5625,-22.080002,-19.136002,-7.552001,inter_set_rest,2,3.0,64827.0,284662.0,134173.0,269012.0,144846.0
2026-04-14 17:09:17.290390,99368,1609504051027795,1650997537,0.894016,-0.244,-0.206912,-6.32625,18.66375,-22.12,-22.080002,-19.136002,-7.552001,inter_set_rest,2,3.0,64827.0,284662.0,134173.0,269012.0,144846.0
2026-04-14 17:09:17.320952,99380,1609504051042412,1651012523,0.886208,-0.150304,0.265472,-2.3975,22.37375,-24.1325,-22.216002,-19.288,-7.520001,inter_set_rest,2,3.0,75889.0,297534.0,149835.0,279687.0,162945.0
2026-04-14 17:09:17.323163,99381,1609504051051347,1651021225,0.886208,-0.150304,0.265472,9.905,26.678751,-22.07625,-22.216002,-19.288,-7.520001,inter_set_rest,2,3.0,75889.0,297534.0,149835.0,279687.0,162945.0
2026-04-14 17:09:17.327561,99382,1609504051065872,1651036164,0.884256,-0.232288,-0.05856,7.91875,31.38625,-27.65,-21.904001,-19.504002,-7.512001,inter_set_rest,2,3.0,75889.0,297534.0,149835.0,279687.0,162945.0
2026-04-14 17:09:17.327944,99383,1609504051074838,1651044871,0.749568,-0.20496,-0.076128,-1.16375,32.305,-26.90625,-21.672,-20.056002,-7.656,inter_set_rest,2,3.0,75889.0,297534.0,149835.0,279687.0,162945.0
2026-04-14 17:09:17.338295,99384,1609504051083845,1651053552,0.749568,-0.20496,-0.076128,-0.06125,29.05,-22.925,-21.672,-20.056002,-7.656,inter_set_rest,2,3.0,75889.0,297534.0,149835.0,279687.0,162945.0
2026-04-14 17:09:17.352011,99385,1609504051098340,1651068555,0.83936,-0.193248,0.003904,3.00125,23.58125,-20.34375,-21.904001,-19.800001,-6.920001,inter_set_rest,2,3.0,75889.0,297534.0,149835.0,279687.0,162945.0
2026-04-14 17:09:17.359633,99386,1609504051107247,1651077317,0.83936,-0.193248,0.003904,2.2575,19.06625,-17.03625,-21.904001,-19.800001,-6.920001,inter_set_rest,2,3.0,75889.0,297534.0,149835.0,279687.0,162945.0
2026-04-14 17:09:17.374180,99387,1609504051121753,1651090158,0.841312,-0.208864,0.027328,4.31375,16.37125,-14.62125,-22.160002,-19.752,-5.728,inter_set_rest,2,3.0,75889.0,297534.0,149835.0,279687.0,162945.0
2026-04-14 17:09:17.407992,99398,1609504051130973,1651100903,0.841312,-0.208864,0.027328,6.67625,15.02375,-15.53125,-22.160002,-19.752,-5.728,inter_set_rest,2,3.0,88226.0,303043.0,165469.0,284632.0,179836.0
2026-04-14 17:09:17.410958,99399,1609504051139937,1651109707,0.860832,-0.220576,0.005856,7.20125,14.39375,-16.23125,-21.768002,-20.048,-5.904,inter_set_rest,2,3.0,88226.0,303043.0,165469.0,284632.0,179836.0
2026-04-14 17:09:17.413449,99400,1609504051154434,1651124625,0.860832,-0.220576,0.031232,6.30875,13.5275,-14.65625,-21.768002,-20.048,-5.904,inter_set_rest,2,3.0,88226.0,303043.0,165469.0,284632.0,179836.0
2026-04-14 17:09:17.415912,99401,1609504051163364,1651133303,0.79056,-0.134688,0.031232,7.20125,11.8475,-12.775,-22.480001,-19.944,-4.224,inter_set_rest,2,3.0,88226.0,303043.0,165469.0,284632.0,179836.0
2026-04-14 17:09:17.434872,99402,1609504051177907,1651148212,0.864736,-0.181536,-0.005856,5.775,10.386251,-11.41875,-22.296001,-20.152,-7.144001,inter_set_rest,2,3.0,88226.0,303043.0,165469.0,284632.0,179836.0
2026-04-14 17:09:17.438292,99403,1609504051186817,1651156907,0.864736,-0.181536,-0.005856,3.605,10.5525,-9.03,-22.296001,-20.152,-7.144001,inter_set_rest,2,3.0,88226.0,303043.0,165469.0,284632.0,179836.0
2026-04-14 17:09:17.452042,99404,1609504051201298,1651169768,0.8784,-0.187392,0.08784,3.5175,10.92875,-9.1,-21.304,-20.296001,-6.928001,inter_set_rest,2,3.0,88226.0,303043.0,165469.0,284632.0,179836.0
2026-04-14 17:09:17.463948,99405,1609504051210564,1651180504,0.8784,-0.187392,0.08784,3.815,10.01875,-9.16125,-21.304,-20.296001,-6.928001,inter_set_rest,2,3.0,88226.0,303043.0,165469.0,284632.0,179836.0
2026-04-14 17:09:17.472103,99406,1609504051219508,1651189195,0.895968,-0.21472,-0.08784,6.69375,7.63875,-7.70875,-21.464,-20.424002,-6.744,inter_set_rest,2,3.0,88226.0,303043.0,165469.0,284632.0,179836.0
2026-04-14 17:09:17.539965,99417,1609504051234474,1651204287,0.895968,-0.21472,-0.08784,9.3625,3.78875,-5.495,-21.464,-20.424002,-6.744,inter_set_rest,2,3.0,90615.0,306424.0,168544.0,288025.0,183040.0
2026-04-14 17:09:17.540715,99418,1609504051243515,1651212995,0.884256,-0.134688,0.142496,8.435,0.77,-3.12375,-21.808,-20.392,-7.936,inter_set_rest,2,3.0,90615.0,306424.0,168544.0,288025.0,183040.0
2026-04-14 17:09:17.542790,99419,1609504051257970,1651227873,0.831552,-0.179584,-0.132736,2.26625,0.25375,-1.23375,-23.152,-19.6,-5.2,inter_set_rest,2,3.0,90615.0,306424.0,168544.0,288025.0,183040.0
2026-04-14 17:09:17.545916,99420,1609504051266877,1651236560,0.831552,-0.179584,-0.132736,-3.15,0.9975,-0.39375,-23.152,-19.6,-5.2,inter_set_rest,2,3.0,90615.0,306424.0,168544.0,288025.0,183040.0
2026-04-14 17:09:17.547840,99421,1609504051275792,1651245237,0.862784,-0.109312,0.089792,-2.9575,0.63,-0.7175,-23.152,-19.6,-6.096,inter_set_rest,2,3.0,90615.0,306424.0,168544.0,288025.0,183040.0
2026-04-14 17:09:17.550891,99422,1609504051290264,1651260155,0.862784,-0.109312,0.089792,2.5725,-0.84875,-2.09125,-22.976002,-19.936,-6.096,inter_set_rest,2,3.0,90615.0,306424.0,168544.0,288025.0,183040.0
2026-04-14 17:09:17.553391,99423,1609504051299231,1651268895,0.86864,-0.13664,0.062464,6.95625,-2.45,-3.19375,-22.536001,-19.640001,-6.216,inter_set_rest,2,3.0,90615.0,306424.0,168544.0,288025.0,183040.0
2026-04-14 17:09:17.566749,99424,1609504051313721,1651283753,0.86864,-0.13664,0.062464,6.4925,-4.59375,-3.54375,-22.536001,-19.640001,-6.216,inter_set_rest,2,3.0,90615.0,306424.0,168544.0,288025.0,183040.0
2026-04-14 17:09:17.594218,99425,1609504051322705,1651292373,0.921344,-0.20496,-0.115168,5.46,-7.09625,-2.3975,-21.224,-20.352001,-6.808,inter_set_rest,2,3.0,90615.0,306424.0,168544.0,288025.0,183040.0
2026-04-14 17:09:17.644546,99436,1609504051337366,1651305728,0.95648,-0.124928,0.162016,1.855,-8.35625,0.07,-21.992,-19.800001,-4.16,inter_set_rest,2,3.0,88067.0,307400.0,165450.0,288993.0,179807.0
2026-04-14 17:09:17.647038,99437,1609504051346568,1651316473,0.95648,-0.124928,0.162016,-1.84625,-7.27125,2.33625,-21.992,-19.800001,-4.16,inter_set_rest,2,3.0,88067.0,307400.0,165450.0,288993.0,179807.0
2026-04-14 17:09:17.649523,99438,1609504051355457,1651325127,0.95648,-0.124928,0.162016,-3.29,-5.5125,2.9575,-21.992,-19.800001,-4.16,inter_set_rest,2,3.0,88067.0,307400.0,165450.0,288993.0,179807.0
2026-04-14 17:09:17.651849,99439,1609504051369950,1651339999,0.968192,-0.160064,0.06832,-3.10625,-4.5325,2.31,-22.552002,-19.648,-4.904,inter_set_rest,2,3.0,88067.0,307400.0,165450.0,288993.0,179807.0
2026-04-14 17:09:17.654540,99440,1609504051378898,1651348725,0.929152,-0.169824,-0.0976,-1.785,-5.1275,1.86375,-22.208,-19.824001,-6.32,inter_set_rest,2,3.0,88067.0,307400.0,165450.0,288993.0,179807.0
2026-04-14 17:09:17.656423,99441,1609504051393507,1651363599,0.929152,-0.169824,-0.0976,0.35875,-6.25625,1.2425,-22.208,-19.824001,-6.32,inter_set_rest,2,3.0,88067.0,307400.0,165450.0,288993.0,179807.0
2026-04-14 17:09:17.659557,99442,1609504051402481,1651372301,0.958432,-0.162016,-0.046848,0.37625,-6.85125,1.16375,-22.704,-19.720001,-6.232,inter_set_rest,2,3.0,88067.0,307400.0,165450.0,288993.0,179807.0
2026-04-14 17:09:17.669283,99443,1609504051417064,1651387250,0.882304,-0.142496,0.021472,-1.75875,-6.475,0.86625,-21.320002,-20.096,-6.480001,inter_set_rest,2,3.0,88067.0,307400.0,165450.0,288993.0,179807.0
2026-04-14 17:09:17.678417,99444,1609504051425981,1651395930,0.882304,-0.142496,0.021472,-5.0925,-5.10125,1.07625,-21.320002,-20.096,-6.480001,inter_set_rest,2,3.0,88067.0,307400.0,165450.0,288993.0,179807.0
2026-04-14 17:09:17.710946,99455,1609504051435028,1651404711,0.882304,-0.142496,0.021472,-5.46,-3.6575,1.44375,-21.320002,-20.096,-6.480001,inter_set_rest,2,3.0,87641.0,308346.0,164858.0,289846.0,179157.0
2026-04-14 17:09:17.713429,99456,1609504051449635,1651419654,0.884256,-0.152256,-0.115168,-4.305,-3.2025,0.9275,-21.696001,-20.088001,-8.488001,inter_set_rest,2,3.0,87641.0,308346.0,164858.0,289846.0,179157.0
2026-04-14 17:09:17.717589,99457,1609504051458597,1651428358,0.915488,-0.177632,-0.07808,-3.535,-3.12375,0.18375,-21.44,-20.288,-7.232,inter_set_rest,2,3.0,87641.0,308346.0,164858.0,289846.0,179157.0
2026-04-14 17:09:17.727045,99458,1609504051473092,1651443236,0.915488,-0.177632,-0.07808,-3.92,-2.94875,0.32375,-21.44,-20.288,-7.232,inter_set_rest,2,3.0,87641.0,308346.0,164858.0,289846.0,179157.0
2026-04-14 17:09:17.734573,99459,1609504051482045,1651451931,0.950624,-0.197152,-0.007808,-4.06875,-2.79125,0.455,-21.496,-20.208,-7.376,inter_set_rest,2,3.0,87641.0,308346.0,164858.0,289846.0,179157.0
2026-04-14 17:09:17.744692,99460,1609504051490997,1651460619,0.950624,-0.197152,-0.007808,-5.41625,-2.835,1.49625,-21.496,-20.208,-7.376,inter_set_rest,2,3.0,87641.0,308346.0,164858.0,289846.0,179157.0
2026-04-14 17:09:17.756774,99461,1609504051505469,1651475504,0.884256,-0.134688,0.0976,-6.4225,-2.73,2.37125,-21.944,-19.936,-7.408001,inter_set_rest,2,3.0,87641.0,308346.0,164858.0,289846.0,179157.0
2026-04-14 17:09:17.773402,99462,1609504051514392,1651484208,0.884256,-0.134688,0.0976,-7.69125,-2.9575,3.185,-21.944,-19.936,-7.408001,inter_set_rest,2,3.0,87641.0,308346.0,164858.0,289846.0,179157.0
2026-04-14 17:09:17.781884,99463,1609504051528864,1651499081,0.831552,-0.148352,-0.080032,-7.6125,-4.36625,3.0625,-21.68,-20.144001,-6.528,inter_set_rest,2,3.0,87641.0,308346.0,164858.0,289846.0,179157.0
2026-04-14 17:09:17.816564,99474,1609504051537973,1651507844,0.933056,-0.17568,0.111264,-6.22125,-5.46875,2.31,-22.752,-19.720001,-6.448,inter_set_rest,2,3.0,87068.0,308662.0,164425.0,290491.0,178596.0
2026-04-14 17:09:17.816702,99475,1609504051552550,1651522797,0.933056,-0.17568,0.111264,-5.94125,-6.90375,1.925,-22.752,-19.720001,-6.448,inter_set_rest,2,3.0,87068.0,308662.0,164425.0,290491.0,178596.0
2026-04-14 17:09:17.818680,99476,1609504051561528,1651531499,0.952576,-0.208864,0.06832,-5.88875,-8.33875,1.61,-22.584002,-19.752,-6.408001,inter_set_rest,2,3.0,87068.0,308662.0,164425.0,290491.0,178596.0
2026-04-14 17:09:17.824299,99477,1609504051570473,1651540209,0.952576,-0.208864,0.06832,-5.59125,-9.17,2.79125,-22.584002,-19.752,-6.408001,inter_set_rest,2,3.0,87068.0,308662.0,164425.0,290491.0,178596.0
2026-04-14 17:09:17.838016,99478,1609504051584975,1651555081,0.886208,-0.208864,-0.134688,-6.85125,-8.93375,3.8675,-21.792002,-20.136002,-7.2,inter_set_rest,2,3.0,87068.0,308662.0,164425.0,290491.0,178596.0
2026-04-14 17:09:17.846816,99479,1609504051593946,1651563771,0.886208,-0.208864,-0.134688,-8.79375,-8.28625,4.52375,-21.792002,-20.136002,-7.2,inter_set_rest,2,3.0,87068.0,308662.0,164425.0,290491.0,178596.0
2026-04-14 17:09:17.860639,99480,1609504051608403,1651578665,0.962336,-0.212768,0.037088,-9.7825,-8.435,4.9875,-21.744001,-19.872002,-6.984,inter_set_rest,2,3.0,87068.0,308662.0,164425.0,290491.0,178596.0
2026-04-14 17:09:17.870615,99481,1609504051617370,1651587339,0.962336,-0.212768,0.037088,-9.10875,-8.61,5.25875,-21.744001,-19.872002,-6.984,inter_set_rest,2,3.0,87068.0,308662.0,164425.0,290491.0,178596.0
2026-04-14 17:09:17.882953,99482,1609504051631835,1651600234,0.892064,-0.177632,0.0,-7.7525,-9.24875,5.3375,-21.952002,-19.568,-6.296001,inter_set_rest,2,3.0,87068.0,308662.0,164425.0,290491.0,178596.0
2026-04-14 17:09:17.912938,99493,1609504051641189,1651611523,0.884256,-0.22448,-0.16592,-8.0325,-9.59875,4.75125,-23.456001,-19.176,-5.6,inter_set_rest,2,3.0,83816.0,308364.0,160596.0,290489.0,174388.0
2026-04-14 17:09:17.915433,99494,1609504051650199,1651620253,0.884256,-0.22448,-0.16592,-8.05,-10.3075,4.1125,-23.456001,-19.176,-5.6,inter_set_rest,2,3.0,83816.0,308364.0,160596.0,290489.0,174388.0
2026-04-14 17:09:17.917989,99495,1609504051664719,1651633092,0.864736,-0.171776,-0.109312,-7.455,-10.75375,3.61375,-23.640001,-19.184,-6.736001,inter_set_rest,2,3.0,83816.0,308364.0,160596.0,290489.0,174388.0
2026-04-14 17:09:17.926782,99496,1609504051673921,1651643849,0.864736,-0.171776,-0.109312,-6.615,-10.675,3.0975,-23.640001,-19.184,-6.736001,inter_set_rest,2,3.0,83816.0,308364.0,160596.0,290489.0,174388.0
2026-04-14 17:09:17.962993,99497,1609504051688389,1651658741,0.942816,-0.1952,0.091744,-8.33,-9.555,2.09125,-22.04,-19.488,-7.352,inter_set_rest,2,3.0,83816.0,308364.0,160596.0,290489.0,174388.0
2026-04-14 17:09:17.965398,99498,1609504051697282,1651667428,0.942816,-0.1952,0.091744,-9.8875,-9.31875,1.9775,-22.04,-19.488,-7.352,inter_set_rest,2,3.0,83816.0,308364.0,160596.0,290489.0,174388.0
2026-04-14 17:09:17.968122,99499,1609504051706169,1651676080,0.89792,-0.177632,0.027328,-8.75875,-9.835,1.47875,-22.624,-19.704,-7.464,inter_set_rest,2,3.0,83816.0,308364.0,160596.0,290489.0,174388.0
2026-04-14 17:09:17.991594,99500,1609504051720702,1651690970,0.90768,-0.201056,-0.140544,-7.0,-10.2725,0.91875,-22.856,-19.568,-6.472,inter_set_rest,2,3.0,83816.0,308364.0,160596.0,290489.0,174388.0
2026-04-14 17:09:17.994481,99501,1609504051729628,1651699655,0.90768,-0.201056,-0.140544,-6.01125,-11.13875,0.70875,-22.856,-19.568,-6.472,inter_set_rest,2,3.0,83816.0,308364.0,160596.0,290489.0,174388.0
2026-04-14 17:09:18.027061,99512,1609504051744324,1651714573,0.95648,-0.197152,0.074176,-6.125,-10.91125,-0.0875,-22.912,-19.112001,-6.968,inter_set_rest,2,3.0,83318.0,307762.0,160003.0,289831.0,173804.0
2026-04-14 17:09:18.029199,99513,1609504051753288,1651723290,0.95648,-0.197152,0.074176,-6.86875,-10.78875,-1.3125,-22.912,-19.112001,-6.968,inter_set_rest,2,3.0,83318.0,307762.0,160003.0,289831.0,173804.0
2026-04-14 17:09:18.032111,99514,1609504051767828,1651736188,0.872544,-0.201056,-0.152256,-6.8075,-10.167501,-1.6275,-22.664001,-19.216002,-6.672,inter_set_rest,2,3.0,83318.0,307762.0,160003.0,289831.0,173804.0
2026-04-14 17:09:18.034567,99515,1609504051777037,1651746927,0.872544,-0.201056,-0.152256,-6.67625,-9.17875,-2.31875,-22.664001,-19.216002,-6.672,inter_set_rest,2,3.0,83318.0,307762.0,160003.0,289831.0,173804.0
2026-04-14 17:09:18.037069,99516,1609504051785979,1651755675,0.85888,-0.162016,-0.035136,-7.11375,-9.54625,-2.35375,-22.744001,-19.0,-5.856,inter_set_rest,2,3.0,83318.0,307762.0,160003.0,289831.0,173804.0
2026-04-14 17:09:18.053390,99517,1609504051800454,1651770574,0.9272,-0.208864,-0.052704,-6.685,-9.61625,-2.68625,-21.800001,-19.776001,-9.208,inter_set_rest,2,3.0,83318.0,307762.0,160003.0,289831.0,173804.0
2026-04-14 17:09:18.061719,99518,1609504051809378,1651779266,0.9272,-0.208864,-0.052704,-6.16875,-10.0275,-3.185,-21.800001,-19.776001,-9.208,inter_set_rest,2,3.0,83318.0,307762.0,160003.0,289831.0,173804.0
2026-04-14 17:09:18.076597,99519,1609504051823877,1651794124,0.938912,-0.21472,-0.066368,-4.6725,-9.9225,-3.325,-21.944,-19.128,-6.888001,inter_set_rest,2,3.0,83318.0,307762.0,160003.0,289831.0,173804.0
2026-04-14 17:09:18.085914,99520,1609504051832801,1651802824,0.938912,-0.21472,-0.066368,-3.92,-10.0975,-4.025,-21.944,-19.128,-6.888001,inter_set_rest,2,3.0,83318.0,307762.0,160003.0,289831.0,173804.0
2026-04-14 17:09:18.114191,99531,1609504051847332,1651815719,0.919392,-0.18544,0.05856,-3.0625,-9.56375,-4.20875,-22.44,-19.488,-7.776001,inter_set_rest,2,3.0,80602.0,304965.0,156787.0,287279.0,170147.0
2026-04-14 17:09:18.117057,99532,1609504051856580,1651826580,0.919392,-0.18544,0.05856,-3.3775,-9.7825,-4.06875,-22.44,-19.488,-7.776001,inter_set_rest,2,3.0,80602.0,304965.0,156787.0,287279.0,170147.0
2026-04-14 17:09:18.119241,99533,1609504051865509,1651835274,0.845216,-0.193248,-0.070272,-4.4975,-9.61625,-3.36875,-23.424002,-19.424002,-7.088,inter_set_rest,2,3.0,80602.0,304965.0,156787.0,287279.0,170147.0
2026-04-14 17:09:18.133062,99534,1609504051880033,1651850179,0.91744,-0.22448,-0.144448,-4.99625,-9.205,-2.35375,-21.880001,-19.576,-8.064,inter_set_rest,2,3.0,80602.0,304965.0,156787.0,287279.0,170147.0
2026-04-14 17:09:18.169703,99535,1609504051888977,1651858854,0.91744,-0.22448,-0.144448,-4.8475,-9.26625,-2.12625,-21.880001,-19.576,-8.064,inter_set_rest,2,3.0,80602.0,304965.0,156787.0,287279.0,170147.0
2026-04-14 17:09:18.172203,99536,1609504051903485,1651873735,0.864736,-0.181536,-0.076128,-4.13,-9.275,-1.645,-22.376001,-19.384,-7.344,inter_set_rest,2,3.0,80602.0,304965.0,156787.0,287279.0,170147.0
2026-04-14 17:09:18.174658,99537,1609504051912416,1651882427,0.864736,-0.181536,-0.076128,-3.64,-9.8525,-1.61875,-22.376001,-19.384,-7.344,inter_set_rest,2,3.0,80602.0,304965.0,156787.0,287279.0,170147.0
2026-04-14 17:09:18.177208,99538,1609504051921344,1651891116,0.93696,-0.226432,-0.187392,-4.10375,-10.57,-1.4875,-22.432001,-19.088001,-6.912,inter_set_rest,2,3.0,80602.0,304965.0,156787.0,287279.0,170147.0
2026-04-14 17:09:18.211649,99549,1609504051935880,1651905979,0.93696,-0.226432,-0.187392,-4.1475,-10.78875,-1.25125,-22.432001,-19.088001,-6.912,inter_set_rest,2,3.0,74740.0,300812.0,149109.0,283573.0,161880.0
2026-04-14 17:09:18.214619,99550,1609504051945188,1651914864,0.93696,-0.222528,-0.173728,-3.92875,-10.33375,-1.33,-21.584002,-19.696001,-8.456,inter_set_rest,2,3.0,74740.0,300812.0,149109.0,283573.0,161880.0
2026-04-14 17:09:18.217108,99551,1609504051959721,1651929809,0.93696,-0.222528,-0.005856,-3.50875,-9.7125,-1.82,-21.584002,-19.696001,-8.456,inter_set_rest,2,3.0,74740.0,300812.0,149109.0,283573.0,161880.0
2026-04-14 17:09:18.222157,99552,1609504051968672,1651938494,0.94672,-0.187392,-0.005856,-2.8525,-9.45875,-2.4675,-22.12,-19.304,-5.480001,inter_set_rest,2,3.0,74740.0,300812.0,149109.0,283573.0,161880.0
2026-04-14 17:09:18.236781,99553,1609504051983204,1651953353,0.933056,-0.21472,-0.162016,-2.9925,-8.70625,-2.8875,-21.28,-19.328001,-8.120001,inter_set_rest,2,3.0,74740.0,300812.0,149109.0,283573.0,161880.0
2026-04-14 17:09:18.244072,99554,1609504051992154,1651962069,0.933056,-0.21472,-0.162016,-3.19375,-8.33,-2.51125,-21.28,-19.328001,-8.120001,inter_set_rest,2,3.0,74740.0,300812.0,149109.0,283573.0,161880.0
2026-04-14 17:09:18.254363,99555,1609504052001190,1651970829,0.876448,-0.181536,-0.212768,-2.49375,-8.40875,-2.33625,-21.880001,-19.408,-7.912,inter_set_rest,2,3.0,74740.0,300812.0,149109.0,283573.0,161880.0
2026-04-14 17:09:18.268500,99556,1609504052015689,1651985706,0.876448,-0.181536,-0.212768,-1.1375,-8.68,-2.8175,-21.880001,-19.408,-7.912,inter_set_rest,2,3.0,74740.0,300812.0,149109.0,283573.0,161880.0
2026-04-14 17:09:18.278245,99557,1609504052024602,1651994403,0.942816,-0.20496,-0.076128,-0.39375,-8.61875,-3.57,-22.376001,-19.2,-7.856,inter_set_rest,2,3.0,74740.0,300812.0,149109.0,283573.0,161880.0
2026-04-14 17:09:18.379182,99568,1609504052039745,1652009502,0.942816,-0.20496,-0.076128,-1.37375,-8.04125,-4.1475,-22.376001,-19.2,-7.856,inter_set_rest,2,3.0,72172.0,297750.0,145591.0,280683.0,158117.0
2026-04-14 17:09:18.382113,99569,1609504052048699,1652018219,0.884256,-0.187392,-0.052704,-0.76125,-8.33,-4.33125,-22.328001,-19.424002,-9.104,inter_set_rest,2,3.0,72172.0,297750.0,145591.0,280683.0,158117.0
2026-04-14 17:09:18.384218,99570,1609504052057742,1652026893,0.884256,-0.187392,-0.052704,0.81375,-8.2425,-4.41875,-22.328001,-19.424002,-9.104,inter_set_rest,2,3.0,72172.0,297750.0,145591.0,280683.0,158117.0
2026-04-14 17:09:18.387084,99571,1609504052072183,1652041767,0.894016,-0.1952,-0.134688,1.32125,-7.5775,-5.6875,-21.592001,-19.576,-8.504001,inter_set_rest,2,3.0,72172.0,297750.0,145591.0,280683.0,158117.0
2026-04-14 17:09:18.389562,99572,1609504052081110,1652050499,0.827648,-0.181536,-0.025376,-0.035,-7.63875,-5.5475,-21.592001,-19.36,-8.944,inter_set_rest,2,3.0,72172.0,297750.0,145591.0,280683.0,158117.0
2026-04-14 17:09:18.392024,99573,1609504052095587,1652065370,0.827648,-0.181536,-0.025376,-1.44375,-8.84625,-4.85625,-21.792002,-19.36,-8.944,inter_set_rest,2,3.0,72172.0,297750.0,145591.0,280683.0,158117.0
2026-04-14 17:09:18.394550,99574,1609504052104495,1652074038,0.767136,-0.16592,-0.119072,-0.28,-10.15875,-4.05125,-21.792002,-19.304,-7.792,inter_set_rest,2,3.0,72172.0,297750.0,145591.0,280683.0,158117.0
2026-04-14 17:09:18.397062,99575,1609504052118968,1652088932,0.767136,-0.16592,-0.119072,0.95375,-11.24375,-4.01625,-21.792002,-19.304,-7.792,inter_set_rest,2,3.0,72172.0,297750.0,145591.0,280683.0,158117.0
2026-04-14 17:09:18.399552,99576,1609504052127853,1652097584,0.827648,-0.212768,-0.1464,0.84,-12.4425,-4.38375,-21.888,-19.12,-8.328,inter_set_rest,2,3.0,72172.0,297750.0,145591.0,280683.0,158117.0
2026-04-14 17:09:18.427212,99587,1609504052136778,1652106237,0.827648,-0.212768,-0.1464,-1.23375,-12.87125,-3.84125,-21.888,-19.12,-8.328,inter_set_rest,2,3.0,64030.0,285058.0,133965.0,269397.0,145120.0
2026-04-14 17:09:18.429727,99588,1609504052151603,1652121161,0.792512,-0.193248,-0.206912,-2.58125,-12.83625,-0.9975,-22.000002,-18.880001,-7.808001,inter_set_rest,2,3.0,64030.0,285058.0,133965.0,269397.0,145120.0
2026-04-14 17:09:18.431808,99589,1609504052160652,1652129896,0.792512,-0.193248,-0.206912,-1.37375,-12.25,-0.58625,-22.000002,-18.880001,-7.808001,inter_set_rest,2,3.0,64030.0,285058.0,133965.0,269397.0,145120.0
2026-04-14 17:09:18.437203,99590,1609504052175242,1652144954,0.782752,-0.169824,-0.080032,-1.28625,-11.20875,-3.4475,-22.2,-19.0,-9.240001,inter_set_rest,2,3.0,64030.0,285058.0,133965.0,269397.0,145120.0
2026-04-14 17:09:18.439858,99591,1609504052184219,1652153655,0.831552,-0.216672,-0.001952,-0.98,-10.52625,-2.94875,-22.216002,-18.984001,-7.648,inter_set_rest,2,3.0,64030.0,285058.0,133965.0,269397.0,145120.0
2026-04-14 17:09:18.445965,99592,1609504052193180,1652162353,0.831552,-0.216672,-0.001952,-0.69125,-10.605001,-1.72375,-22.216002,-18.984001,-7.648,inter_set_rest,2,3.0,64030.0,285058.0,133965.0,269397.0,145120.0
2026-04-14 17:09:18.459663,99593,1609504052207654,1652177362,0.726144,-0.210816,-0.240096,-0.02625,-10.885,-0.60375,-21.560001,-19.256,-9.224,inter_set_rest,2,3.0,64030.0,285058.0,133965.0,269397.0,145120.0
2026-04-14 17:09:18.467950,99594,1609504052216555,1652186040,0.726144,-0.210816,-0.240096,2.02125,-12.6875,-1.085,-21.560001,-19.256,-9.224,inter_set_rest,2,3.0,64030.0,285058.0,133965.0,269397.0,145120.0
2026-04-14 17:09:18.483303,99595,1609504052231009,1652200925,0.75152,-0.183488,-0.12688,3.08875,-15.198751,-0.56,-22.192001,-18.672,-9.672001,inter_set_rest,2,3.0,64030.0,285058.0,133965.0,269397.0,145120.0
2026-04-14 17:09:18.514697,99606,1609504052240126,1652209835,0.75152,-0.183488,-0.12688,-0.18375,-18.9525,0.02625,-22.192001,-18.672,-9.672001,inter_set_rest,2,3.0,56628.0,263691.0,121608.0,251644.0,130718.0
2026-04-14 17:09:18.517198,99607,1609504052254777,1652224746,0.786656,-0.238144,-0.005856,-3.6925,-21.3325,3.3425,-21.76,-18.984001,-6.64,inter_set_rest,2,3.0,56628.0,263691.0,121608.0,251644.0,130718.0
2026-04-14 17:09:18.519673,99608,1609504052263829,1652233473,0.704672,-0.199104,-0.218624,-0.51625,-22.9075,8.89875,-22.36,-18.44,-7.880001,inter_set_rest,2,3.0,56628.0,263691.0,121608.0,251644.0,130718.0
2026-04-14 17:09:18.525549,99609,1609504052272878,1652242198,0.704672,-0.199104,-0.218624,5.565,-22.61,5.7925,-22.36,-18.44,-7.880001,inter_set_rest,2,3.0,56628.0,263691.0,121608.0,251644.0,130718.0
2026-04-14 17:09:18.544241,99610,1609504052287342,1652257106,0.728096,-0.220576,-0.22448,7.28,-22.54875,1.1375,-20.92,-18.616001,-10.016001,inter_set_rest,2,3.0,56628.0,263691.0,121608.0,251644.0,130718.0
2026-04-14 17:09:18.548438,99611,1609504052296262,1652265829,0.728096,-0.220576,-0.22448,7.91,-22.4875,1.75,-20.92,-18.616001,-10.016001,inter_set_rest,2,3.0,56628.0,263691.0,121608.0,251644.0,130718.0
2026-04-14 17:09:18.564590,99612,1609504052310704,1652280686,0.720288,-0.189344,-0.081984,7.98,-24.00125,2.59,-21.12,-17.936,-9.280001,inter_set_rest,2,3.0,56628.0,263691.0,121608.0,251644.0,130718.0
2026-04-14 17:09:18.571472,99613,1609504052319626,1652289374,0.720288,-0.189344,-0.081984,9.45875,-26.95,1.32125,-21.12,-17.936,-9.280001,inter_set_rest,2,3.0,56628.0,263691.0,121608.0,251644.0,130718.0
2026-04-14 17:09:18.588306,99614,1609504052334176,1652304256,0.804224,-0.240096,-0.286944,10.71875,-30.4675,1.2775,-21.36,-18.176,-10.504001,inter_set_rest,2,3.0,56628.0,263691.0,121608.0,251644.0,130718.0
2026-04-14 17:09:18.615844,99625,1609504052343248,1652313360,0.679296,-0.134688,-0.113216,6.67625,-32.585,2.02125,-22.208,-17.76,-9.792001,inter_set_rest,2,3.0,50147.0,233491.0,110754.0,228021.0,120550.0
2026-04-14 17:09:18.618445,99626,1609504052352216,1652322073,0.679296,-0.134688,-0.113216,3.5525,-31.24625,7.1925,-22.208,-17.76,-9.792001,inter_set_rest,2,3.0,50147.0,233491.0,110754.0,228021.0,120550.0
2026-04-14 17:09:18.620944,99627,1609504052366854,1652336961,0.732,-0.183488,-0.050752,5.7575,-28.1575,8.56625,-21.736002,-17.176,-9.976001,inter_set_rest,2,3.0,50147.0,233491.0,110754.0,228021.0,120550.0
2026-04-14 17:09:18.629665,99628,1609504052375905,1652345648,0.732,-0.183488,-0.050752,5.5125,-27.27375,4.27,-21.736002,-17.176,-9.976001,inter_set_rest,2,3.0,50147.0,233491.0,110754.0,228021.0,120550.0
2026-04-14 17:09:18.642189,99629,1609504052390426,1652360577,0.655872,-0.238144,-0.220576,6.27375,-26.62625,3.85,-21.112001,-17.6,-10.672001,inter_set_rest,2,3.0,50147.0,233491.0,110754.0,228021.0,120550.0
2026-04-14 17:09:18.653447,99630,1609504052399323,1652369246,0.655872,-0.238144,-0.220576,10.386251,-27.02,7.63875,-21.112001,-17.6,-10.672001,inter_set_rest,2,3.0,50147.0,233491.0,110754.0,228021.0,120550.0
2026-04-14 17:09:18.660560,99631,1609504052408207,1652377899,0.784704,-0.259616,-0.316224,17.710001,-29.6275,12.15375,-21.400002,-17.04,-10.608001,inter_set_rest,2,3.0,50147.0,233491.0,110754.0,228021.0,120550.0
2026-04-14 17:09:18.699035,99632,1609504052422689,1652392805,0.784704,-0.259616,-0.093696,10.5525,-33.57375,13.58875,-21.400002,-17.04,-10.608001,inter_set_rest,2,3.0,50147.0,233491.0,110754.0,228021.0,120550.0
2026-04-14 17:09:18.701006,99633,1609504052431590,1652401476,0.903776,-0.134688,-0.093696,-6.92125,-34.545002,16.135,-21.904001,-16.168001,-13.56,inter_set_rest,2,3.0,50147.0,233491.0,110754.0,228021.0,120550.0
2026-04-14 17:09:18.755390,99644,1609504052446119,1652414497,0.8296,-0.099552,-0.197152,-11.05125,-26.38125,18.57625,-22.704,-16.216002,-10.496,inter_set_rest,2,3.0,44945.0,206411.0,101600.0,205861.0,111943.0
2026-04-14 17:09:18.764143,99645,1609504052455426,1652425288,0.8296,-0.099552,-0.197152,-9.0825,-19.32875,9.511251,-22.704,-16.216002,-10.496,inter_set_rest,2,3.0,44945.0,206411.0,101600.0,205861.0,111943.0
2026-04-14 17:09:18.764980,99646,1609504052469951,1652440218,0.778848,-0.335744,-0.281088,-10.885,-17.08,2.5025,-21.76,-16.240002,-12.504001,inter_set_rest,2,3.0,44945.0,206411.0,101600.0,205861.0,111943.0
2026-04-14 17:09:18.765165,99647,1609504052478854,1652448879,0.778848,-0.335744,-0.281088,-12.6,-17.4475,4.90875,-21.76,-16.240002,-12.504001,inter_set_rest,2,3.0,44945.0,206411.0,101600.0,205861.0,111943.0
2026-04-14 17:09:18.765290,99648,1609504052487790,1652457548,0.782752,-0.310368,-0.372832,-7.56875,-19.4425,13.1425,-22.072,-15.504001,-10.960001,inter_set_rest,2,3.0,44945.0,206411.0,101600.0,205861.0,111943.0
2026-04-14 17:09:18.767981,99649,1609504052502307,1652472412,0.782752,-0.310368,-0.372832,-0.315,-20.6675,20.53625,-22.072,-15.504001,-10.960001,inter_set_rest,2,3.0,44945.0,206411.0,101600.0,205861.0,111943.0
2026-04-14 17:09:18.770855,99650,1609504052511249,1652481183,0.944768,-0.1952,-0.22448,-2.975,-19.94125,18.73375,-22.016,-15.392001,-11.120001,inter_set_rest,2,3.0,44945.0,206411.0,101600.0,205861.0,111943.0
2026-04-14 17:09:18.778330,99651,1609504052525776,1652496093,0.83936,-0.105408,-0.337696,-10.49125,-20.78125,14.84,-21.992,-15.264001,-12.120001,inter_set_rest,2,3.0,44945.0,206411.0,101600.0,205861.0,111943.0
2026-04-14 17:09:18.806776,99652,1609504052534738,1652504774,0.83936,-0.105408,-0.337696,-21.1575,-13.09875,13.04625,-21.992,-15.264001,-12.120001,inter_set_rest,2,3.0,44945.0,206411.0,101600.0,205861.0,111943.0
2026-04-14 17:09:18.834731,99663,1609504052543828,1652513534,0.83936,-0.316224,-0.271328,-26.50375,-8.6275,9.38875,-21.992,-15.264001,-12.120001,inter_set_rest,2,3.0,48540.0,213097.0,107083.0,209298.0,118721.0
2026-04-14 17:09:18.837219,99664,1609504052558327,1652528400,0.870592,-0.316224,-0.271328,-26.22375,-7.7525,10.08875,-22.128,-15.016001,-10.696,inter_set_rest,2,3.0,48540.0,213097.0,107083.0,209298.0,118721.0
2026-04-14 17:09:18.839519,99665,1609504052567340,1652537141,0.786656,-0.353312,-0.284992,-16.42375,-6.4575,13.32625,-22.312,-14.512001,-10.872001,inter_set_rest,2,3.0,48540.0,213097.0,107083.0,209298.0,118721.0
2026-04-14 17:09:18.842205,99666,1609504052581815,1652552060,0.786656,-0.353312,-0.284992,1.23375,-4.73375,17.1325,-22.312,-14.512001,-10.872001,inter_set_rest,2,3.0,48540.0,213097.0,107083.0,209298.0,118721.0
2026-04-14 17:09:18.846786,99667,1609504052590759,1652560789,0.792512,-0.167872,-0.325984,19.4775,-2.1,19.53875,-22.264002,-14.112,-9.768001,inter_set_rest,2,3.0,48540.0,213097.0,107083.0,209298.0,118721.0
2026-04-14 17:09:18.855378,99668,1609504052605273,1652573660,0.813984,-0.122976,-0.417728,25.9875,-0.945,15.5925,-21.744001,-13.736001,-11.544001,inter_set_rest,2,3.0,48540.0,213097.0,107083.0,209298.0,118721.0
2026-04-14 17:09:18.867101,99669,1609504052614478,1652584428,0.813984,-0.122976,-0.417728,15.015,0.8225,7.9975,-21.744001,-13.736001,-11.544001,inter_set_rest,2,3.0,48540.0,213097.0,107083.0,209298.0,118721.0
2026-04-14 17:09:18.875810,99670,1609504052623397,1652593104,0.813984,-0.122976,-0.417728,-0.0525,3.84125,4.9525,-21.744001,-13.736001,-11.544001,inter_set_rest,2,3.0,48540.0,213097.0,107083.0,209298.0,118721.0
2026-04-14 17:09:18.890439,99671,1609504052637851,1652608004,0.765184,-0.212768,-0.308416,-12.01375,5.24125,4.8125,-22.376001,-13.512001,-12.072001,inter_set_rest,2,3.0,48540.0,213097.0,107083.0,209298.0,118721.0
2026-04-14 17:09:18.918417,99682,1609504052646879,1652616713,0.767136,-0.32208,-0.257664,-14.980001,5.3725,3.78875,-21.512001,-13.688001,-11.592001,inter_set_rest,2,3.0,45119.0,200112.0,101368.0,199065.0,112974.0
2026-04-14 17:09:18.920964,99683,1609504052661405,1652631685,0.767136,-0.32208,-0.257664,-7.62125,8.198751,5.3025,-21.512001,-13.688001,-11.592001,inter_set_rest,2,3.0,45119.0,200112.0,101368.0,199065.0,112974.0
2026-04-14 17:09:18.925882,99684,1609504052670315,1652640391,0.759328,-0.167872,-0.025376,2.975,11.261251,5.04,-21.720001,-13.336,-11.696,inter_set_rest,2,3.0,45119.0,200112.0,101368.0,199065.0,112974.0
2026-04-14 17:09:18.935931,99685,1609504052684823,1652653229,0.774944,-0.169824,-0.267424,12.3025,12.6875,2.80875,-21.720001,-13.160001,-11.504001,inter_set_rest,2,3.0,45119.0,200112.0,101368.0,199065.0,112974.0
2026-04-14 17:09:18.947047,99686,1609504052694084,1652663969,0.774944,-0.169824,-0.267424,15.995,13.60625,0.8575,-21.824001,-13.160001,-11.504001,inter_set_rest,2,3.0,45119.0,200112.0,101368.0,199065.0,112974.0
2026-04-14 17:09:18.954570,99687,1609504052703033,1652672684,0.774944,-0.169824,-0.267424,10.33375,12.8625,-2.38,-21.824001,-13.160001,-11.504001,inter_set_rest,2,3.0,45119.0,200112.0,101368.0,199065.0,112974.0
2026-04-14 17:09:18.969113,99688,1609504052717497,1652687547,0.933056,-0.216672,-0.121024,-1.75875,10.43875,-7.0,-22.2,-12.240001,-9.968,inter_set_rest,2,3.0,45119.0,200112.0,101368.0,199065.0,112974.0
2026-04-14 17:09:18.980940,99689,1609504052726453,1652696224,1.009184,-0.222528,-0.298656,-11.305,14.39375,-5.46,-22.432001,-12.384001,-10.656,inter_set_rest,2,3.0,45119.0,200112.0,101368.0,199065.0,112974.0
2026-04-14 17:09:19.017242,99700,1609504052741140,1652711522,1.009184,-0.222528,-0.298656,-18.83,18.08625,-4.29625,-22.432001,-12.384001,-10.656,inter_set_rest,2,3.0,49581.0,207983.0,108625.0,205143.0,120844.0
2026-04-14 17:09:19.019708,99701,1609504052750131,1652720297,0.919392,-0.329888,-0.2928,-22.60125,21.21875,-7.60375,-21.720001,-12.152,-11.168,inter_set_rest,2,3.0,49581.0,207983.0,108625.0,205143.0,120844.0
2026-04-14 17:09:19.021935,99702,1609504052759057,1652728973,0.919392,-0.329888,-0.2928,-15.74125,24.80625,-9.6775,-21.720001,-12.152,-11.168,inter_set_rest,2,3.0,49581.0,207983.0,108625.0,205143.0,120844.0
2026-04-14 17:09:19.027257,99703,1609504052773659,1652743868,0.950624,-0.290848,-0.085888,-3.3775,24.54375,-11.48875,-22.168001,-12.264001,-11.432,inter_set_rest,2,3.0,49581.0,207983.0,108625.0,205143.0,120844.0
2026-04-14 17:09:19.035540,99704,1609504052782622,1652752566,0.950624,-0.290848,-0.085888,14.8225,20.755,-12.99375,-22.168001,-12.264001,-11.432,inter_set_rest,2,3.0,49581.0,207983.0,108625.0,205143.0,120844.0
2026-04-14 17:09:19.067138,99705,1609504052797137,1652767460,1.032608,-0.191296,-0.076128,28.6825,18.4275,-15.9075,-21.888,-11.592001,-10.568001,inter_set_rest,2,3.0,49581.0,207983.0,108625.0,205143.0,120844.0
2026-04-14 17:09:19.069680,99706,1609504052806068,1652776168,0.993568,-0.167872,-0.314272,26.46875,19.67,-18.165,-21.864,-11.456,-11.376,inter_set_rest,2,3.0,49581.0,207983.0,108625.0,205143.0,120844.0
2026-04-14 17:09:19.072172,99707,1609504052820542,1652788972,0.993568,-0.167872,-0.314272,14.28,23.8525,-20.8075,-21.864,-11.456,-11.376,inter_set_rest,2,3.0,49581.0,207983.0,108625.0,205143.0,120844.0
2026-04-14 17:09:19.098469,99708,1609504052829786,1652799717,0.952576,-0.22448,-0.259616,3.12375,26.27625,-24.22875,-21.872002,-11.648001,-11.456,inter_set_rest,2,3.0,49581.0,207983.0,108625.0,205143.0,120844.0
2026-04-14 17:09:19.100953,99709,1609504052838709,1652808404,0.952576,-0.22448,-0.259616,1.54,26.57375,-27.93,-21.872002,-11.648001,-11.456,inter_set_rest,2,3.0,49581.0,207983.0,108625.0,205143.0,120844.0
2026-04-14 17:09:19.140389,99720,1609504052853240,1652823311,1.007232,-0.27328,-0.228384,3.87625,24.29,-30.40625,-22.984001,-11.112,-9.768001,inter_set_rest,2,3.0,48899.0,207995.0,108080.0,206573.0,120482.0
2026-04-14 17:09:19.143121,99721,1609504052862188,1652832006,1.007232,-0.27328,-0.228384,2.7825,24.15875,-31.66625,-22.984001,-11.112,-9.768001,inter_set_rest,2,3.0,48899.0,207995.0,108080.0,206573.0,120482.0
2026-04-14 17:09:19.145554,99722,1609504052876917,1652846953,1.013088,-0.1464,-0.109312,2.37125,27.9125,-30.09125,-22.728,-11.088,-9.616,inter_set_rest,2,3.0,48899.0,207995.0,108080.0,206573.0,120482.0
2026-04-14 17:09:19.148081,99723,1609504052885863,1652855641,1.013088,-0.189344,-0.261568,3.01,31.59625,-29.9075,-22.728,-11.088,-11.664001,inter_set_rest,2,3.0,48899.0,207995.0,108080.0,206573.0,120482.0
2026-04-14 17:09:19.150629,99724,1609504052894833,1652864359,1.059936,-0.189344,-0.261568,4.6375,36.21625,-32.03375,-22.552002,-11.144,-10.400001,inter_set_rest,2,3.0,48899.0,207995.0,108080.0,206573.0,120482.0
2026-04-14 17:09:19.161756,99725,1609504052909325,1652879233,1.048224,-0.199104,-0.089792,0.175,39.20875,-33.25,-22.688002,-10.584001,-10.096001,inter_set_rest,2,3.0,48899.0,207995.0,108080.0,206573.0,120482.0
2026-04-14 17:09:19.171795,99726,1609504052918250,1652887914,1.048224,-0.199104,-0.089792,-3.0275,39.235,-29.925,-22.688002,-10.584001,-10.096001,inter_set_rest,2,3.0,48899.0,207995.0,108080.0,206573.0,120482.0
2026-04-14 17:09:19.184484,99727,1609504052932727,1652902817,1.167296,-0.206912,-0.0488,-2.905,38.57,-27.29125,-22.624,-11.256001,-9.368,inter_set_rest,2,3.0,48899.0,207995.0,108080.0,206573.0,120482.0
2026-04-14 17:09:19.222141,99738,1609504052941625,1652911529,1.167296,-0.206912,-0.0488,-2.695,36.98625,-26.705,-22.624,-11.256001,-9.368,inter_set_rest,2,3.0,56229.0,230679.0,120252.0,226231.0,132875.0
2026-04-14 17:09:19.222247,99739,1609504052956667,1652926560,1.145824,-0.142496,-0.015616,-2.275,37.607502,-25.52375,-22.728,-11.040001,-9.112,inter_set_rest,2,3.0,56229.0,230679.0,120252.0,226231.0,132875.0
2026-04-14 17:09:19.224035,99740,1609504052965688,1652935273,1.145824,-0.142496,-0.015616,-0.93625,38.57875,-25.57625,-22.728,-11.040001,-9.112,inter_set_rest,2,3.0,56229.0,230679.0,120252.0,226231.0,132875.0
2026-04-14 17:09:19.226728,99741,1609504052974627,1652943974,1.214144,-0.25376,-0.167872,3.35125,36.39125,-25.2175,-22.904001,-11.160001,-6.824,inter_set_rest,2,3.0,56229.0,230679.0,120252.0,226231.0,132875.0
2026-04-14 17:09:19.243010,99742,1609504052989136,1652958884,1.194624,-0.162016,-0.113216,1.00625,36.085,-23.52875,-22.056002,-10.912001,-8.704,inter_set_rest,2,3.0,56229.0,230679.0,120252.0,226231.0,132875.0
2026-04-14 17:09:19.249416,99743,1609504052998033,1652967598,1.194624,-0.162016,-0.113216,0.00875,35.07875,-18.0425,-22.056002,-10.912001,-8.704,inter_set_rest,2,3.0,56229.0,230679.0,120252.0,226231.0,132875.0
2026-04-14 17:09:19.265595,99744,1609504053012578,1652982587,1.09312,-0.134688,-0.210816,-1.89875,33.888752,-17.12375,-22.824001,-11.072001,-9.928,inter_set_rest,2,3.0,56229.0,230679.0,120252.0,226231.0,132875.0
2026-04-14 17:09:19.273156,99745,1609504053021490,1652991252,1.09312,-0.134688,-0.210816,-4.29625,31.75375,-19.43375,-22.824001,-11.072001,-9.928,inter_set_rest,2,3.0,56229.0,230679.0,120252.0,226231.0,132875.0
2026-04-14 17:09:19.294479,99746,1609504053035984,1653006107,1.1712,-0.216672,-0.275232,-5.62625,28.46375,-19.1275,-22.184002,-11.320001,-9.328,inter_set_rest,2,3.0,56229.0,230679.0,120252.0,226231.0,132875.0
2026-04-14 17:09:19.326666,99757,1609504053045055,1653014974,1.1712,-0.216672,-0.275232,-2.09125,23.89625,-15.645,-22.184002,-11.320001,-9.328,inter_set_rest,2,3.0,60110.0,251527.0,127404.0,244474.0,138254.0
2026-04-14 17:09:19.329363,99758,1609504053054128,1653023719,1.15168,-0.228384,-0.267424,-0.06125,20.5975,-11.8475,-22.304,-11.408001,-9.112,inter_set_rest,2,3.0,60110.0,251527.0,127404.0,244474.0,138254.0
2026-04-14 17:09:19.331826,99759,1609504053068652,1653038677,1.179008,-0.122976,-0.080032,3.21125,18.13,-7.30625,-22.704,-10.736,-8.352,inter_set_rest,2,3.0,60110.0,251527.0,127404.0,244474.0,138254.0
2026-04-14 17:09:19.334415,99760,1609504053077595,1653047545,1.179008,-0.122976,-0.080032,10.185,15.1025,-5.425,-22.704,-10.736,-8.352,inter_set_rest,2,3.0,60110.0,251527.0,127404.0,244474.0,138254.0
2026-04-14 17:09:19.345623,99761,1609504053092114,1653062477,1.153632,-0.144448,-0.052704,9.3625,12.74875,-7.21875,-23.296001,-10.968,-8.112,inter_set_rest,2,3.0,60110.0,251527.0,127404.0,244474.0,138254.0
2026-04-14 17:09:19.354392,99762,1609504053101040,1653071161,1.153632,-0.144448,-0.052704,1.9075,11.22625,-6.09,-23.296001,-10.968,-8.112,inter_set_rest,2,3.0,60110.0,251527.0,127404.0,244474.0,138254.0
2026-04-14 17:09:19.364729,99763,1609504053109975,1653079882,1.06384,-0.17568,-0.035136,-6.3,8.37375,-4.1475,-22.992,-10.944,-9.480001,inter_set_rest,2,3.0,60110.0,251527.0,127404.0,244474.0,138254.0
2026-04-14 17:09:19.377198,99764,1609504053124463,1653094819,1.06384,-0.17568,-0.035136,-6.25625,4.31375,-1.9775,-22.992,-10.944,-9.480001,inter_set_rest,2,3.0,60110.0,251527.0,127404.0,244474.0,138254.0
2026-04-14 17:09:19.389700,99765,1609504053133387,1653103498,1.003328,-0.17568,-0.150304,-1.015,-0.385,-1.2075,-22.336,-11.496,-9.112,inter_set_rest,2,3.0,60110.0,251527.0,127404.0,244474.0,138254.0
2026-04-14 17:09:19.490469,99776,1609504053147975,1653116458,0.981856,-0.124928,-0.001952,2.28375,-3.675,-0.41125,-24.384,-11.488001,-8.568001,inter_set_rest,2,3.0,62897.0,267707.0,132188.0,258507.0,141816.0
2026-04-14 17:09:19.499116,99777,1609504053157456,1653127307,0.981856,-0.124928,-0.001952,3.1325,-6.46625,1.07625,-23.032001,-11.488001,-8.568001,inter_set_rest,2,3.0,62897.0,267707.0,132188.0,258507.0,141816.0
2026-04-14 17:09:19.499626,99778,1609504053166387,1653136012,0.981856,-0.124928,-0.001952,3.66625,-8.5925,1.16375,-23.032001,-11.488001,-8.568001,inter_set_rest,2,3.0,62897.0,267707.0,132188.0,258507.0,141816.0
2026-04-14 17:09:19.500421,99779,1609504053180891,1653150880,1.020896,-0.15616,0.007808,3.64875,-10.63125,0.49875,-23.248001,-10.72,-8.360001,inter_set_rest,2,3.0,62897.0,267707.0,132188.0,258507.0,141816.0
2026-04-14 17:09:19.502945,99780,1609504053189805,1653159608,0.968192,-0.154208,0.099552,4.585,-12.2675,-1.015,-23.888,-11.000001,-8.328,inter_set_rest,2,3.0,62897.0,267707.0,132188.0,258507.0,141816.0
2026-04-14 17:09:19.510795,99781,1609504053204247,1653174480,0.968192,-0.154208,0.099552,5.04875,-14.1225,-2.1175,-23.888,-11.000001,-8.328,inter_set_rest,2,3.0,62897.0,267707.0,132188.0,258507.0,141816.0
2026-04-14 17:09:19.512817,99782,1609504053213172,1653183174,0.915488,-0.18544,-0.132736,5.11,-16.05625,-2.05625,-23.688002,-10.784,-8.288,inter_set_rest,2,3.0,62897.0,267707.0,132188.0,258507.0,141816.0
2026-04-14 17:09:19.513060,99783,1609504053227660,1653196002,0.915488,-0.18544,0.11712,5.45125,-17.6575,-1.8375,-23.688002,-10.784,-8.288,inter_set_rest,2,3.0,62897.0,267707.0,132188.0,258507.0,141816.0
2026-04-14 17:09:19.513526,99784,1609504053236870,1653206748,0.886208,-0.138592,0.113216,6.51,-18.89125,-1.82875,-23.240002,-11.344001,-9.784,inter_set_rest,2,3.0,62897.0,267707.0,132188.0,258507.0,141816.0
2026-04-14 17:09:19.542910,99795,1609504053245943,1653215488,0.886208,-0.138592,0.113216,6.37,-19.3725,-2.12625,-23.240002,-11.344001,-9.784,inter_set_rest,2,3.0,62394.0,266843.0,131362.0,257781.0,141197.0
2026-04-14 17:09:19.545375,99796,1609504053260499,1653230431,0.827648,-0.162016,-0.12688,5.9325,-19.355,-2.52,-22.872002,-11.296001,-8.768001,inter_set_rest,2,3.0,62394.0,266843.0,131362.0,257781.0,141197.0
2026-04-14 17:09:19.548408,99797,1609504053269422,1653239171,0.890112,-0.150304,0.042944,6.34375,-19.39875,-2.5375,-22.864,-10.712001,-9.440001,inter_set_rest,2,3.0,62394.0,266843.0,131362.0,257781.0,141197.0
2026-04-14 17:09:19.550996,99798,1609504053283925,1653254080,0.890112,-0.150304,0.042944,6.4925,-19.5475,-2.8875,-22.864,-10.712001,-9.440001,inter_set_rest,2,3.0,62394.0,266843.0,131362.0,257781.0,141197.0
2026-04-14 17:09:19.553521,99799,1609504053292838,1653262787,0.870592,-0.128832,0.054656,4.3925,-19.6175,-3.3075,-22.800001,-11.096001,-9.152,inter_set_rest,2,3.0,62394.0,266843.0,131362.0,257781.0,141197.0
2026-04-14 17:09:19.560951,99800,1609504053307392,1653277708,0.870592,-0.128832,0.054656,2.9225,-19.355,-3.325,-22.800001,-11.096001,-9.152,inter_set_rest,2,3.0,62394.0,266843.0,131362.0,257781.0,141197.0
2026-04-14 17:09:19.569710,99801,1609504053316383,1653286398,0.901824,-0.193248,0.046848,0.7525,-18.78625,-2.42375,-22.424002,-11.288,-12.696001,inter_set_rest,2,3.0,62394.0,266843.0,131362.0,257781.0,141197.0
2026-04-14 17:09:19.578453,99802,1609504053325378,1653295057,0.901824,-0.193248,0.046848,-1.32125,-17.47375,-0.76125,-22.424002,-11.288,-12.696001,inter_set_rest,2,3.0,62394.0,266843.0,131362.0,257781.0,141197.0
2026-04-14 17:09:19.592263,99803,1609504053339856,1653309958,0.823744,-0.189344,-0.183488,-1.44375,-16.695,0.53375,-22.272001,-11.416,-10.512,inter_set_rest,2,3.0,62394.0,266843.0,131362.0,257781.0,141197.0
2026-04-14 17:09:19.621620,99814,1609504053348902,1653319032,0.823744,-0.177632,0.005856,-0.2625,-15.9075,1.35625,-22.272001,-11.416,-8.464001,inter_set_rest,2,3.0,61419.0,263919.0,129666.0,255093.0,139800.0
2026-04-14 17:09:19.624144,99815,1609504053363547,1653331898,0.935008,-0.177632,0.005856,-1.60125,-15.636251,1.91625,-23.128,-10.992001,-8.624001,inter_set_rest,2,3.0,61419.0,263919.0,129666.0,255093.0,139800.0
2026-04-14 17:09:19.627110,99816,1609504053372730,1653342680,0.90768,-0.203008,-0.244,-3.00125,-15.12,2.205,-23.008001,-10.856001,-9.04,inter_set_rest,2,3.0,61419.0,263919.0,129666.0,255093.0,139800.0
2026-04-14 17:09:19.633377,99817,1609504053381682,1653351431,0.90768,-0.203008,-0.244,-5.1975,-15.05875,1.8725,-23.008001,-10.856001,-9.04,inter_set_rest,2,3.0,61419.0,263919.0,129666.0,255093.0,139800.0
2026-04-14 17:09:19.649609,99818,1609504053396194,1653366343,0.890112,-0.203008,-0.281088,-7.35875,-15.18125,2.56375,-22.248001,-10.88,-11.024,inter_set_rest,2,3.0,61419.0,263919.0,129666.0,255093.0,139800.0
2026-04-14 17:09:19.658478,99819,1609504053405149,1653375029,0.890112,-0.203008,-0.281088,-7.27125,-13.7725,2.87875,-22.248001,-10.88,-11.024,inter_set_rest,2,3.0,61419.0,263919.0,129666.0,255093.0,139800.0
2026-04-14 17:09:19.673391,99820,1609504053419615,1653389899,0.99552,-0.183488,-0.007808,-3.70125,-13.06375,2.17,-21.832,-11.072001,-11.256001,inter_set_rest,2,3.0,61419.0,263919.0,129666.0,255093.0,139800.0
2026-04-14 17:09:19.682215,99821,1609504053428539,1653398644,0.99552,-0.183488,-0.007808,-5.18,-13.83375,1.8375,-21.832,-11.072001,-11.256001,inter_set_rest,2,3.0,61419.0,263919.0,129666.0,255093.0,139800.0
2026-04-14 17:09:19.695630,99822,1609504053443053,1653411491,0.93696,-0.158112,-0.0976,-7.3675,-13.81625,1.67125,-22.064001,-11.368001,-11.032001,inter_set_rest,2,3.0,61419.0,263919.0,129666.0,255093.0,139800.0
2026-04-14 17:09:19.723073,99833,1609504053452345,1653422290,0.931104,-0.220576,-0.296704,-7.77,-13.99125,-0.42875,-22.04,-11.104,-10.776001,inter_set_rest,2,3.0,52481.0,236045.0,114810.0,232222.0,125120.0
2026-04-14 17:09:19.725929,99834,1609504053461373,1653430995,0.931104,-0.220576,-0.296704,-8.198751,-14.65625,-1.93375,-22.04,-11.104,-10.776001,inter_set_rest,2,3.0,52481.0,236045.0,114810.0,232222.0,125120.0
2026-04-14 17:09:19.728465,99835,1609504053475958,1653445910,1.020896,-0.206912,-0.152256,-8.14625,-15.30375,-1.21625,-22.336,-10.752001,-10.480001,inter_set_rest,2,3.0,52481.0,236045.0,114810.0,232222.0,125120.0
2026-04-14 17:09:19.737225,99836,1609504053484892,1653454610,1.020896,-0.206912,-0.152256,-9.415,-15.225,-1.60125,-22.336,-10.752001,-10.480001,inter_set_rest,2,3.0,52481.0,236045.0,114810.0,232222.0,125120.0
2026-04-14 17:09:19.752102,99837,1609504053499348,1653469463,0.89792,-0.179584,-0.206912,-11.0075,-14.83125,-3.1325,-22.632002,-10.928,-11.824,inter_set_rest,2,3.0,52481.0,236045.0,114810.0,232222.0,125120.0
2026-04-14 17:09:19.762964,99838,1609504053508275,1653478133,0.89792,-0.179584,-0.206912,-10.2375,-14.175,-3.57875,-22.632002,-10.928,-11.824,inter_set_rest,2,3.0,52481.0,236045.0,114810.0,232222.0,125120.0
2026-04-14 17:09:19.774491,99839,1609504053522771,1653493056,0.905728,-0.173728,-0.144448,-8.77625,-13.62375,-3.2025,-21.880001,-11.160001,-11.624001,inter_set_rest,2,3.0,52481.0,236045.0,114810.0,232222.0,125120.0
2026-04-14 17:09:19.799268,99840,1609504053531713,1653501726,0.99552,-0.20496,-0.257664,-7.13125,-13.69375,-3.66625,-21.568,-11.368001,-11.912001,inter_set_rest,2,3.0,52481.0,236045.0,114810.0,232222.0,125120.0
2026-04-14 17:09:19.824336,99841,1609504053540622,1653510393,0.99552,-0.20496,-0.257664,-5.8275,-13.85125,-3.43875,-21.568,-11.368001,-11.912001,inter_set_rest,2,3.0,52481.0,236045.0,114810.0,232222.0,125120.0
2026-04-14 17:09:19.854736,99852,1609504053555194,1653525292,0.948672,-0.152256,-0.111264,-6.13375,-13.440001,-2.8175,-21.76,-11.264001,-11.568001,inter_set_rest,2,3.0,48390.0,213315.0,107946.0,213416.0,118703.0
2026-04-14 17:09:19.856716,99853,1609504053564143,1653533948,0.948672,-0.152256,-0.111264,-9.98375,-12.67,-2.73875,-21.76,-11.264001,-11.568001,inter_set_rest,2,3.0,48390.0,213315.0,107946.0,213416.0,118703.0
2026-04-14 17:09:19.859745,99854,1609504053578691,1653548836,0.925248,-0.18544,-0.31232,-12.64375,-11.34875,-1.95125,-21.896002,-11.208,-11.648001,inter_set_rest,2,3.0,48390.0,213315.0,107946.0,213416.0,118703.0
2026-04-14 17:09:19.862223,99855,1609504053587920,1653557578,0.925248,-0.18544,-0.31232,-13.29125,-9.485,-1.9775,-21.896002,-11.208,-11.648001,inter_set_rest,2,3.0,48390.0,213315.0,107946.0,213416.0,118703.0
2026-04-14 17:09:19.864723,99856,1609504053596913,1653566297,0.983808,-0.162016,-0.070272,-13.51,-8.3125,-2.09125,-21.536001,-11.336,-11.504001,inter_set_rest,2,3.0,48390.0,213315.0,107946.0,213416.0,118703.0
2026-04-14 17:09:19.867207,99857,1609504053611399,1653581191,0.940864,-0.167872,-0.314272,-14.30625,-7.8225,-1.79375,-21.784,-11.832001,-12.656,inter_set_rest,2,3.0,48390.0,213315.0,107946.0,213416.0,118703.0
2026-04-14 17:09:19.872220,99858,1609504053620373,1653589969,0.940864,-0.167872,-0.314272,-15.1375,-6.97375,-0.97125,-21.784,-11.832001,-12.656,inter_set_rest,2,3.0,48390.0,213315.0,107946.0,213416.0,118703.0
2026-04-14 17:09:19.887076,99859,1609504053634863,1653604902,0.99552,-0.20496,-0.406016,-16.905,-7.42,0.49,-21.712002,-11.416,-11.64,inter_set_rest,2,3.0,48390.0,213315.0,107946.0,213416.0,118703.0
2026-04-14 17:09:19.897090,99860,1609504053643831,1653613560,0.99552,-0.20496,-0.406016,-19.43375,-7.35875,3.0625,-21.712002,-11.416,-11.64,inter_set_rest,2,3.0,48390.0,213315.0,107946.0,213416.0,118703.0
2026-04-14 17:09:19.926848,99871,1609504053658312,1653628545,0.96624,-0.191296,-0.281088,-21.875,-7.98,5.0225,-21.696001,-11.144,-8.712001,inter_set_rest,2,3.0,48368.0,208984.0,107633.0,209523.0,118879.0
2026-04-14 17:09:19.929726,99872,1609504053667267,1653637257,0.96624,-0.191296,-0.281088,-23.765,-7.42,7.21,-21.696001,-11.144,-8.712001,inter_set_rest,2,3.0,48368.0,208984.0,107633.0,209523.0,118879.0
2026-04-14 17:09:19.932180,99873,1609504053676243,1653645959,0.974048,-0.179584,-0.206912,-24.2025,-6.39625,7.945,-22.384,-11.192,-10.416,inter_set_rest,2,3.0,48368.0,208984.0,107633.0,209523.0,118879.0
2026-04-14 17:09:19.943470,99874,1609504053690795,1653660914,0.974048,-0.179584,-0.433344,-23.415,-6.58,5.99375,-22.384,-11.192,-10.416,inter_set_rest,2,3.0,48368.0,208984.0,107633.0,209523.0,118879.0
2026-04-14 17:09:19.952207,99875,1609504053699787,1653669619,1.05408,-0.222528,-0.433344,-22.19875,-8.435,6.825,-22.168001,-11.68,-11.296001,inter_set_rest,2,3.0,48368.0,208984.0,107633.0,209523.0,118879.0
2026-04-14 17:09:19.967868,99876,1609504053714273,1653684502,1.128256,-0.203008,-0.138592,-23.2925,-8.89,10.29875,-21.776001,-11.528001,-11.456,inter_set_rest,2,3.0,48368.0,208984.0,107633.0,209523.0,118879.0
2026-04-14 17:09:19.975420,99877,1609504053723187,1653693169,1.128256,-0.203008,-0.138592,-22.785,-8.4525,14.21875,-21.776001,-11.528001,-11.456,inter_set_rest,2,3.0,48368.0,208984.0,107633.0,209523.0,118879.0
2026-04-14 17:09:19.990598,99878,1609504053737664,1653706023,1.050176,-0.230336,-0.20496,-17.1325,-11.4275,14.6125,-21.504002,-12.016001,-11.472,inter_set_rest,2,3.0,48368.0,208984.0,107633.0,209523.0,118879.0
2026-04-14 17:09:20.027186,99889,1609504053746849,1653717348,1.050176,-0.230336,-0.20496,-11.585,-12.8975,15.715,-21.504002,-12.016001,-11.472,inter_set_rest,2,3.0,45927.0,200634.0,103088.0,201007.0,114155.0
2026-04-14 17:09:20.029729,99890,1609504053755811,1653726056,1.08336,-0.179584,-0.384544,-8.9075,-14.46375,16.02125,-22.592001,-10.992001,-9.376,inter_set_rest,2,3.0,45927.0,200634.0,103088.0,201007.0,114155.0
2026-04-14 17:09:20.032205,99891,1609504053770291,1653738959,1.08336,-0.179584,-0.384544,-2.65125,-15.6625,18.99625,-22.592001,-10.992001,-9.376,inter_set_rest,2,3.0,45927.0,200634.0,103088.0,201007.0,114155.0
2026-04-14 17:09:20.034724,99892,1609504053779517,1653749740,1.136064,-0.189344,-0.41968,-0.84,-16.59,21.44625,-23.36,-10.968,-10.424001,inter_set_rest,2,3.0,45927.0,200634.0,103088.0,201007.0,114155.0
2026-04-14 17:09:20.045953,99893,1609504053794017,1653762666,1.110688,-0.22448,-0.316224,-8.07625,-18.38375,18.01625,-21.656,-11.368001,-11.496,inter_set_rest,2,3.0,45927.0,200634.0,103088.0,201007.0,114155.0
2026-04-14 17:09:20.056838,99894,1609504053803303,1653773401,1.110688,-0.22448,-0.316224,-9.94,-18.4275,15.417501,-21.656,-11.368001,-11.496,inter_set_rest,2,3.0,45927.0,200634.0,103088.0,201007.0,114155.0
2026-04-14 17:09:20.084617,99895,1609504053812214,1653782068,1.19072,-0.1952,-0.210816,-6.25625,-17.3075,14.18375,-21.656,-11.296001,-12.096001,inter_set_rest,2,3.0,45927.0,200634.0,103088.0,201007.0,114155.0
2026-04-14 17:09:20.087075,99896,1609504053826715,1653796930,1.19072,-0.1952,-0.210816,0.16625,-18.655,14.105001,-22.344002,-11.296001,-12.096001,inter_set_rest,2,3.0,45927.0,200634.0,103088.0,201007.0,114155.0
2026-04-14 17:09:20.089664,99897,1609504053835636,1653805608,1.157536,-0.218624,-0.3904,2.56375,-19.45125,15.3825,-22.536001,-11.536,-10.544001,inter_set_rest,2,3.0,45927.0,200634.0,103088.0,201007.0,114155.0
2026-04-14 17:09:20.127224,99908,1609504053850800,1653820563,1.157536,-0.218624,-0.3904,-0.35875,-19.6175,14.62125,-22.536001,-11.536,-10.544001,inter_set_rest,2,3.0,44205.0,191339.0,100038.0,192538.0,111259.0
2026-04-14 17:09:20.129551,99909,1609504053859819,1653829352,1.097024,-0.265472,-0.218624,-3.325,-18.20875,11.6375,-22.344002,-11.76,-10.952001,inter_set_rest,2,3.0,44205.0,191339.0,100038.0,192538.0,111259.0
2026-04-14 17:09:20.132235,99910,1609504053868775,1653838026,1.097024,-0.265472,-0.218624,-0.11375,-16.7825,9.9925,-22.344002,-11.76,-10.952001,inter_set_rest,2,3.0,44205.0,191339.0,100038.0,192538.0,111259.0
2026-04-14 17:09:20.137224,99911,1609504053883306,1653852914,1.04432,-0.17568,-0.23424,4.80375,-14.48125,7.74375,-22.320002,-11.504001,-11.024,inter_set_rest,2,3.0,44205.0,191339.0,100038.0,192538.0,111259.0
2026-04-14 17:09:20.169574,99912,1609504053892241,1653861616,1.04432,-0.17568,-0.18544,8.26875,-12.8275,7.58625,-22.320002,-11.504001,-11.024,inter_set_rest,2,3.0,44205.0,191339.0,100038.0,192538.0,111259.0
2026-04-14 17:09:20.172040,99913,1609504053906658,1653876440,1.1224,-0.18544,-0.18544,6.965,-11.515,8.0325,-21.624,-12.384001,-10.264001,inter_set_rest,2,3.0,44205.0,191339.0,100038.0,192538.0,111259.0
2026-04-14 17:09:20.174221,99914,1609504053915640,1653885118,1.1224,-0.193248,-0.134688,2.19625,-11.795,9.28375,-21.136002,-12.360001,-11.480001,inter_set_rest,2,3.0,44205.0,191339.0,100038.0,192538.0,111259.0
2026-04-14 17:09:20.200866,99915,1609504053930144,1653900036,1.1224,-0.193248,-0.134688,-4.8475,-8.81125,8.44375,-21.136002,-12.360001,-11.480001,inter_set_rest,2,3.0,44205.0,191339.0,100038.0,192538.0,111259.0
2026-04-14 17:09:20.203473,99916,1609504053939101,1653908720,1.071648,-0.197152,-0.105408,-8.925,-7.525,4.48,-21.304,-12.568001,-11.784,inter_set_rest,2,3.0,44205.0,191339.0,100038.0,192538.0,111259.0
2026-04-14 17:09:20.242950,99927,1609504053948540,1653917485,1.071648,-0.197152,-0.105408,-10.31625,-5.3375,2.44125,-21.304,-12.568001,-11.784,inter_set_rest,2,3.0,45375.0,192624.0,101992.0,193752.0,113262.0
2026-04-14 17:09:20.245453,99928,1609504053963118,1653932465,0.989664,-0.210816,-0.08784,-7.8225,-2.24875,3.255,-22.448002,-12.256001,-9.248,inter_set_rest,2,3.0,45375.0,192624.0,101992.0,193752.0,113262.0
2026-04-14 17:09:20.251403,99929,1609504053972045,1653941143,0.989664,-0.210816,-0.08784,-2.66875,-0.9625,2.695,-22.448002,-12.256001,-9.248,inter_set_rest,2,3.0,45375.0,192624.0,101992.0,193752.0,113262.0
2026-04-14 17:09:20.251482,99930,1609504053986581,1653956037,0.974048,-0.191296,-0.074176,3.52625,1.225,1.855,-22.672,-12.032001,-8.872001,inter_set_rest,2,3.0,45375.0,192624.0,101992.0,193752.0,113262.0
2026-04-14 17:09:20.252727,99931,1609504053995496,1653964709,0.987712,-0.222528,-0.286944,8.12875,5.2325,0.98,-22.864,-13.144001,-10.232,inter_set_rest,2,3.0,45375.0,192624.0,101992.0,193752.0,113262.0
2026-04-14 17:09:20.255382,99932,1609504054004429,1653973456,0.987712,-0.222528,-0.286944,10.8675,7.81375,-3.535,-22.864,-13.144001,-10.232,inter_set_rest,2,3.0,45375.0,192624.0,101992.0,193752.0,113262.0
2026-04-14 17:09:20.272193,99933,1609504054018891,1653988379,0.942816,-0.144448,-0.091744,10.63125,11.2875,-7.37625,-20.992,-13.624001,-11.280001,inter_set_rest,2,3.0,45375.0,192624.0,101992.0,193752.0,113262.0
2026-04-14 17:09:20.279724,99934,1609504054027853,1653997034,0.942816,-0.144448,-0.091744,11.165,16.2225,-10.4825,-20.992,-13.624001,-11.280001,inter_set_rest,2,3.0,45375.0,192624.0,101992.0,193752.0,113262.0
2026-04-14 17:09:20.295983,99935,1609504054042353,1654011950,0.847168,-0.220576,-0.290848,13.685,18.78625,-13.99125,-21.12,-14.224001,-10.552,inter_set_rest,2,3.0,45375.0,192624.0,101992.0,193752.0,113262.0
2026-04-14 17:09:20.325972,99946,1609504054051813,1654020837,0.847168,-0.220576,-0.290848,12.573751,19.1625,-17.89375,-21.12,-14.224001,-10.552,inter_set_rest,2,3.0,41628.0,184049.0,95519.0,185352.0,106152.0
2026-04-14 17:09:20.328475,99947,1609504054060912,1654029615,0.972096,-0.187392,-0.3416,5.31125,19.67,-20.7375,-21.592001,-14.032001,-9.576,inter_set_rest,2,3.0,41628.0,184049.0,95519.0,185352.0,106152.0
2026-04-14 17:09:20.331005,99948,1609504054075727,1654044539,0.919392,-0.130784,-0.023424,-4.92625,22.33,-24.9375,-21.576,-14.728001,-10.592001,inter_set_rest,2,3.0,41628.0,184049.0,95519.0,185352.0,106152.0
2026-04-14 17:09:20.336739,99949,1609504054084637,1654053231,0.919392,-0.130784,-0.023424,-13.58875,28.63875,-29.1375,-21.576,-14.728001,-10.592001,inter_set_rest,2,3.0,41628.0,184049.0,95519.0,185352.0,106152.0
2026-04-14 17:09:20.350855,99950,1609504054099346,1654068168,0.681248,-0.310368,-0.191296,-7.175,36.3125,-32.89125,-20.720001,-15.256001,-10.304001,inter_set_rest,2,3.0,41628.0,184049.0,95519.0,185352.0,106152.0
2026-04-14 17:09:20.360856,99951,1609504054108261,1654076885,0.681248,-0.310368,-0.191296,4.6725,39.6025,-40.6,-20.720001,-15.256001,-10.304001,inter_set_rest,2,3.0,41628.0,184049.0,95519.0,185352.0,106152.0
2026-04-14 17:09:20.372082,99952,1609504054117436,1654087619,0.79056,-0.191296,-0.06832,14.4375,40.87125,-46.8825,-20.824001,-16.104,-10.544001,inter_set_rest,2,3.0,41628.0,184049.0,95519.0,185352.0,106152.0
2026-04-14 17:09:20.383424,99953,1609504054131983,1654100433,0.79056,-0.191296,-0.06832,22.67125,42.9625,-44.86125,-20.824001,-16.104,-10.544001,inter_set_rest,2,3.0,41628.0,184049.0,95519.0,185352.0,106152.0
2026-04-14 17:09:20.394723,99954,1609504054141214,1654111204,0.823744,-0.140544,-0.36112,23.0475,44.4675,-45.66625,-20.408,-16.256,-7.664001,inter_set_rest,2,3.0,41628.0,184049.0,95519.0,185352.0,106152.0
2026-04-14 17:09:20.430418,99965,1609504054155813,1654126216,0.66368,-0.023424,0.025376,24.43875,45.98125,-42.77875,-20.344002,-16.656,-10.104,inter_set_rest,2,3.0,41247.0,182345.0,94538.0,183217.0,104559.0
2026-04-14 17:09:20.433425,99966,1609504054164774,1654134952,0.66368,-0.023424,0.025376,16.2225,52.82375,-49.385,-20.344002,-16.656,-10.104,inter_set_rest,2,3.0,41247.0,182345.0,94538.0,183217.0,104559.0
2026-04-14 17:09:20.436643,99967,1609504054179318,1654147777,0.749568,-0.197152,0.040992,16.1175,55.2125,-56.41125,-20.056002,-17.352001,-9.848001,inter_set_rest,2,3.0,41247.0,182345.0,94538.0,183217.0,104559.0
2026-04-14 17:09:20.440370,99968,1609504054188682,1654158591,0.749568,-0.197152,0.040992,15.02375,55.055,-56.67375,-20.056002,-17.352001,-9.848001,inter_set_rest,2,3.0,41247.0,182345.0,94538.0,183217.0,104559.0
2026-04-14 17:09:20.450478,99969,1609504054197610,1654167277,0.733952,-0.152256,-0.359168,13.65,55.37,-49.32375,-20.088001,-17.84,-9.408,inter_set_rest,2,3.0,41247.0,182345.0,94538.0,183217.0,104559.0
2026-04-14 17:09:20.466785,99970,1609504054212101,1654182191,0.733952,-0.152256,-0.359168,12.90625,57.96,-45.1325,-20.088001,-17.84,-9.408,inter_set_rest,2,3.0,41247.0,182345.0,94538.0,183217.0,104559.0
2026-04-14 17:09:20.474457,99971,1609504054221026,1654190885,0.8784,-0.124928,-0.021472,6.44875,60.43625,-51.03,-19.768002,-18.248001,-9.328,inter_set_rest,2,3.0,41247.0,182345.0,94538.0,183217.0,104559.0
2026-04-14 17:09:20.489519,99972,1609504054235489,1654205808,0.61488,-0.10736,-0.134688,5.85375,67.8825,-54.55625,-19.552,-18.416,-7.880001,inter_set_rest,2,3.0,41247.0,182345.0,94538.0,183217.0,104559.0
2026-04-14 17:09:20.496920,99973,1609504054244409,1654214467,0.61488,-0.10736,-0.134688,15.37375,71.933754,-56.32375,-19.552,-18.416,-7.880001,inter_set_rest,2,3.0,41247.0,182345.0,94538.0,183217.0,104559.0
2026-04-14 17:09:20.578157,99984,1609504054253493,1654223170,0.61488,-0.10736,-0.134688,23.63375,69.95625,-54.55625,-19.552,-18.416,-7.880001,inter_set_rest,2,3.0,45757.0,197724.0,103055.0,199434.0,112749.0
2026-04-14 17:09:20.580605,99985,1609504054267963,1654238138,0.802272,-0.027328,0.113216,18.19125,70.25375,-48.93,-20.024,-19.12,-6.992,inter_set_rest,2,3.0,45757.0,197724.0,103055.0,199434.0,112749.0
2026-04-14 17:09:20.583152,99986,1609504054276880,1654246843,0.694912,-0.070272,-0.134688,6.4575,75.90625,-45.99,-19.632002,-19.168001,-7.136,inter_set_rest,2,3.0,45757.0,197724.0,103055.0,199434.0,112749.0
2026-04-14 17:09:20.585629,99987,1609504054291525,1654261712,0.694912,-0.070272,-0.134688,2.51125,78.1375,-50.93375,-19.632002,-19.168001,-7.136,inter_set_rest,2,3.0,45757.0,197724.0,103055.0,199434.0,112749.0
2026-04-14 17:09:20.588155,99988,1609504054300466,1654270393,0.679296,-0.072224,-0.085888,1.925,76.22125,-54.705,-19.648,-19.664001,-6.872,inter_set_rest,2,3.0,45757.0,197724.0,103055.0,199434.0,112749.0
2026-04-14 17:09:20.590541,99989,1609504054314976,1654285233,0.679296,-0.040992,0.044896,-2.695,73.03625,-53.69,-19.648,-19.664001,-6.872,inter_set_rest,2,3.0,45757.0,197724.0,103055.0,199434.0,112749.0
2026-04-14 17:09:20.593153,99990,1609504054323924,1654293937,0.749568,-0.03904,0.044896,-8.7325,67.9525,-48.29125,-19.304,-20.312,-4.616,inter_set_rest,2,3.0,45757.0,197724.0,103055.0,199434.0,112749.0
2026-04-14 17:09:20.595663,99991,1609504054332872,1654302642,0.749568,-0.03904,0.044896,-14.5775,65.54625,-42.84875,-19.304,-20.312,-4.616,inter_set_rest,2,3.0,45757.0,197724.0,103055.0,199434.0,112749.0
2026-04-14 17:09:20.600655,99992,1609504054347411,1654317582,0.675392,0.013664,0.37088,-16.87,69.4225,-42.77,-19.264002,-20.304,-4.8,inter_set_rest,2,3.0,45757.0,197724.0,103055.0,199434.0,112749.0
2026-04-14 17:09:20.634507,100003,1609504054356378,1654326316,0.599264,-0.037088,0.095648,-11.64625,76.90375,-43.05,-19.448002,-20.424002,-4.856,inter_set_rest,2,3.0,63560.0,273184.0,133260.0,261174.0,142784.0
2026-04-14 17:09:20.635194,100004,1609504054370960,1654339311,0.599264,-0.037088,0.095648,-3.87625,82.285,-45.36875,-19.448002,-20.424002,-4.856,inter_set_rest,2,3.0,63560.0,273184.0,133260.0,261174.0,142784.0
2026-04-14 17:09:20.637968,100005,1609504054380165,1654350172,0.60512,-0.083936,-0.17568,2.695,81.8475,-48.9125,-19.152,-21.024,-5.088,inter_set_rest,2,3.0,63560.0,273184.0,133260.0,261174.0,142784.0
2026-04-14 17:09:20.643029,100006,1609504054389093,1654358909,0.60512,-0.083936,-0.17568,7.0,76.0375,-46.795002,-19.152,-21.024,-5.088,inter_set_rest,2,3.0,63560.0,273184.0,133260.0,261174.0,142784.0
2026-04-14 17:09:20.656653,100007,1609504054403579,1654373825,0.61488,0.031232,-0.12688,8.015,66.50875,-43.37375,-17.144001,-21.768002,-5.752,inter_set_rest,2,3.0,63560.0,273184.0,133260.0,261174.0,142784.0
2026-04-14 17:09:20.666796,100008,1609504054412492,1654382490,0.61488,0.031232,-0.12688,0.7525,55.728752,-38.535,-17.144001,-21.768002,-5.752,inter_set_rest,2,3.0,63560.0,273184.0,133260.0,261174.0,142784.0
2026-04-14 17:09:20.678189,100009,1609504054426968,1654395365,0.5856,0.091744,0.099552,-9.7125,47.27625,-35.2275,-17.288,-21.720001,-5.088,inter_set_rest,2,3.0,63560.0,273184.0,133260.0,261174.0,142784.0
2026-04-14 17:09:20.689331,100010,1609504054436210,1654406138,0.720288,-0.138592,0.173728,-13.9825,41.18625,-34.95625,-17.288,-21.992,-4.312,inter_set_rest,2,3.0,63560.0,273184.0,133260.0,261174.0,142784.0
2026-04-14 17:09:20.751648,100021,1609504054450715,1654421051,0.720288,-0.138592,0.173728,-10.99875,36.645,-35.35875,-17.328001,-21.992,-4.312,inter_set_rest,2,3.0,73120.0,286938.0,147064.0,271351.0,158920.0
2026-04-14 17:09:20.754163,100022,1609504054459712,1654429795,0.714432,-0.080032,0.013664,-0.34125,31.73625,-32.13,-17.608002,-22.176,-4.408,inter_set_rest,2,3.0,73120.0,286938.0,147064.0,271351.0,158920.0
2026-04-14 17:09:20.756586,100023,1609504054468619,1654438508,0.714432,-0.080032,0.013664,9.555,24.99,-23.9925,-17.608002,-22.176,-4.408,inter_set_rest,2,3.0,73120.0,286938.0,147064.0,271351.0,158920.0
2026-04-14 17:09:20.759165,100024,1609504054483216,1654453394,0.70272,0.06832,0.046848,15.70625,17.85,-16.65125,-17.384,-21.720001,-4.68,inter_set_rest,2,3.0,73120.0,286938.0,147064.0,271351.0,158920.0
2026-04-14 17:09:20.761589,100025,1609504054492179,1654462071,0.70272,0.06832,0.046848,6.13375,11.13,-11.3575,-17.384,-21.720001,-4.68,inter_set_rest,2,3.0,73120.0,286938.0,147064.0,271351.0,158920.0
2026-04-14 17:09:20.764011,100026,1609504054506667,1654476986,0.825696,-0.011712,0.144448,-10.94625,5.495,-5.10125,-17.288,-21.896002,-4.336,inter_set_rest,2,3.0,73120.0,286938.0,147064.0,271351.0,158920.0
2026-04-14 17:09:20.769152,100027,1609504054515589,1654485693,0.825696,-0.011712,0.144448,-18.06875,-2.35375,-0.46375,-17.288,-21.896002,-4.336,inter_set_rest,2,3.0,73120.0,286938.0,147064.0,271351.0,158920.0
2026-04-14 17:09:20.782151,100028,1609504054530094,1654498502,0.909632,0.013664,0.240096,-11.305,-11.15625,5.18,-17.312,-21.76,-1.312,inter_set_rest,2,3.0,73120.0,286938.0,147064.0,271351.0,158920.0
2026-04-14 17:09:20.792202,100029,1609504054539314,1654509320,0.86864,-0.035136,0.083936,-1.19875,-16.5375,9.45875,-18.184,-21.216002,-3.088,inter_set_rest,2,3.0,73120.0,286938.0,147064.0,271351.0,158920.0
2026-04-14 17:09:20.800972,100030,1609504054548247,1654518020,0.86864,-0.035136,0.083936,-2.05625,-16.23125,14.00875,-18.184,-21.216002,-3.088,inter_set_rest,2,3.0,73120.0,286938.0,147064.0,271351.0,158920.0
2026-04-14 17:09:20.827769,100041,1609504054562803,1654533001,0.864736,0.0976,0.085888,-7.39375,-12.46875,18.7075,-16.896,-22.192001,-5.032,inter_set_rest,2,3.0,71830.0,285728.0,145695.0,271220.0,157175.0
2026-04-14 17:09:20.830306,100042,1609504054571825,1654541765,0.864736,0.0976,0.085888,-7.04375,-7.9975,17.89375,-16.896,-22.192001,-5.032,inter_set_rest,2,3.0,71830.0,285728.0,145695.0,271220.0,157175.0
2026-04-14 17:09:20.843124,100043,1609504054586343,1654556647,0.9272,0.081984,0.30256,-7.2975,-5.075,14.4725,-17.048,-21.592001,-5.232,inter_set_rest,2,3.0,71830.0,285728.0,145695.0,271220.0,157175.0
2026-04-14 17:09:20.849676,100044,1609504054595289,1654565302,0.9272,0.081984,0.30256,-11.375,-3.40375,12.03125,-17.048,-21.592001,-5.232,inter_set_rest,2,3.0,71830.0,285728.0,145695.0,271220.0,157175.0
2026-04-14 17:09:20.856756,100045,1609504054604192,1654573971,0.96624,-0.037088,0.201056,-15.00625,-2.94,11.94375,-17.320002,-21.792002,-5.472,inter_set_rest,2,3.0,71830.0,285728.0,145695.0,271220.0,157175.0
2026-04-14 17:09:20.870981,100046,1609504054618674,1654588881,0.942816,0.037088,0.255712,-13.23875,-3.84125,13.57125,-17.328001,-21.672,-4.656,inter_set_rest,2,3.0,71830.0,285728.0,145695.0,271220.0,157175.0
2026-04-14 17:09:20.903510,100047,1609504054627583,1654597577,0.942816,0.037088,0.255712,-12.136251,-5.10125,16.45875,-17.328001,-21.672,-4.656,inter_set_rest,2,3.0,71830.0,285728.0,145695.0,271220.0,157175.0
2026-04-14 17:09:20.928301,100048,1609504054642119,1654612446,0.886208,0.017568,0.189344,-14.49,-6.9825,18.92625,-17.888,-21.512001,-3.808,inter_set_rest,2,3.0,71830.0,285728.0,145695.0,271220.0,157175.0
2026-04-14 17:09:20.978475,100059,1609504054651055,1654621138,0.886208,0.017568,0.189344,-15.365,-9.30125,20.37,-17.888,-21.512001,-3.808,inter_set_rest,2,3.0,74196.0,295071.0,148557.0,279185.0,160849.0
2026-04-14 17:09:20.980998,100060,1609504054666059,1654636177,0.802272,0.134688,0.255712,-13.22125,-11.97,21.20125,-18.648,-21.2,-3.808,inter_set_rest,2,3.0,74196.0,295071.0,148557.0,279185.0,160849.0
2026-04-14 17:09:20.983478,100061,1609504054674973,1654644848,0.802272,0.134688,0.255712,-11.52375,-14.4375,20.27375,-18.648,-21.2,-3.808,inter_set_rest,2,3.0,74196.0,295071.0,148557.0,279185.0,160849.0
2026-04-14 17:09:20.988466,100062,1609504054683930,1654653556,0.929152,0.081984,0.277184,-12.6875,-14.91,18.27875,-18.592001,-21.032001,-3.528,inter_set_rest,2,3.0,74196.0,295071.0,148557.0,279185.0,160849.0
2026-04-14 17:09:20.990595,100063,1609504054698399,1654668437,0.909632,-0.027328,0.201056,-15.75875,-14.11375,16.00375,-18.464,-21.128,-4.656,inter_set_rest,2,3.0,74196.0,295071.0,148557.0,279185.0,160849.0
2026-04-14 17:09:20.993063,100064,1609504054707286,1654677103,0.909632,-0.027328,0.201056,-16.58125,-13.685,15.1375,-18.464,-21.128,-4.656,inter_set_rest,2,3.0,74196.0,295071.0,148557.0,279185.0,160849.0
2026-04-14 17:09:20.995961,100065,1609504054721848,1654692103,0.913536,0.015616,0.163968,-12.2325,-13.65,15.23375,-18.84,-20.76,-3.136,inter_set_rest,2,3.0,74196.0,295071.0,148557.0,279185.0,160849.0
2026-04-14 17:09:20.998470,100066,1609504054730816,1654700820,0.913536,0.015616,0.163968,-7.42,-14.245,16.275,-18.84,-20.76,-3.136,inter_set_rest,2,3.0,74196.0,295071.0,148557.0,279185.0,160849.0
2026-04-14 17:09:21.003680,100067,1609504054745342,1654713726,0.98576,0.005856,0.238144,-6.06375,-14.74375,17.465,-19.488,-20.504002,-2.824,inter_set_rest,2,3.0,74196.0,295071.0,148557.0,279185.0,160849.0
2026-04-14 17:09:21.028309,100078,1609504054755127,1654724865,0.98576,0.005856,0.238144,-7.6825,-15.30375,18.4625,-19.488,-20.504002,-2.824,inter_set_rest,2,3.0,75622.0,299978.0,150634.0,283882.0,163153.0
2026-04-14 17:09:21.030924,100079,1609504054764179,1654733568,0.886208,0.040992,0.222528,-8.96875,-15.4525,17.78,-19.888,-20.504002,-3.328,inter_set_rest,2,3.0,75622.0,299978.0,150634.0,283882.0,163153.0
2026-04-14 17:09:21.033433,100080,1609504054778684,1654748705,0.899872,0.044896,0.267424,-6.4575,-15.86375,16.17,-19.504002,-20.696001,-2.752,inter_set_rest,2,3.0,75622.0,299978.0,150634.0,283882.0,163153.0
2026-04-14 17:09:21.039695,100081,1609504054787595,1654757391,0.899872,0.044896,0.267424,-3.71875,-16.00375,14.096251,-19.504002,-20.696001,-2.752,inter_set_rest,2,3.0,75622.0,299978.0,150634.0,283882.0,163153.0
2026-04-14 17:09:21.050978,100082,1609504054796513,1654766050,0.899872,0.044896,0.267424,-3.9025,-15.61,11.71625,-19.504002,-20.696001,-2.752,inter_set_rest,2,3.0,75622.0,299978.0,150634.0,283882.0,163153.0
2026-04-14 17:09:21.064723,100083,1609504054810998,1654780918,0.931104,-0.052704,0.103456,-4.55875,-15.75,9.44125,-18.792002,-20.912,-4.968,inter_set_rest,2,3.0,75622.0,299978.0,150634.0,283882.0,163153.0
2026-04-14 17:09:21.072208,100084,1609504054819919,1654789643,0.958432,-0.015616,0.325984,-4.06875,-15.3125,7.70875,-18.568,-20.6,-3.856,inter_set_rest,2,3.0,75622.0,299978.0,150634.0,283882.0,163153.0
2026-04-14 17:09:21.087195,100085,1609504054834387,1654804463,0.958432,-0.015616,0.325984,-3.5,-14.21,5.94125,-18.568,-20.6,-3.856,inter_set_rest,2,3.0,75622.0,299978.0,150634.0,283882.0,163153.0
2026-04-14 17:09:21.097412,100086,1609504054843391,1654813164,0.882304,-0.033184,0.132736,-3.1325,-13.658751,4.71625,-19.44,-20.408,-4.352,inter_set_rest,2,3.0,75622.0,299978.0,150634.0,283882.0,163153.0
2026-04-14 17:09:21.127945,100097,1609504054857960,1654828166,0.882304,-0.033184,0.132736,-2.9575,-14.07,4.48,-19.44,-20.408,-4.352,inter_set_rest,2,3.0,74107.0,295662.0,149240.0,281353.0,161306.0
2026-04-14 17:09:21.130908,100098,1609504054866911,1654836928,0.901824,-0.089792,0.01952,-3.36,-15.44375,4.8825,-19.272001,-20.76,-4.712,inter_set_rest,2,3.0,74107.0,295662.0,149240.0,281353.0,161306.0
2026-04-14 17:09:21.133402,100099,1609504054875836,1654845615,0.901824,-0.089792,0.01952,-3.92,-16.75625,5.8275,-19.272001,-20.76,-4.712,inter_set_rest,2,3.0,74107.0,295662.0,149240.0,281353.0,161306.0
2026-04-14 17:09:21.143451,100100,1609504054890322,1654860498,0.835456,-0.01952,0.07808,-3.4825,-17.64,6.36125,-18.960001,-20.648,-5.504,inter_set_rest,2,3.0,74107.0,295662.0,149240.0,281353.0,161306.0
2026-04-14 17:09:21.153448,100101,1609504054899255,1654869176,0.925248,-0.027328,0.240096,-3.7625,-18.10375,5.95,-18.768002,-20.776001,-4.8,inter_set_rest,2,3.0,74107.0,295662.0,149240.0,281353.0,161306.0
2026-04-14 17:09:21.165945,100102,1609504054913760,1654884078,0.925248,-0.027328,0.240096,-5.27625,-17.6925,5.10125,-18.768002,-20.776001,-4.8,inter_set_rest,2,3.0,74107.0,295662.0,149240.0,281353.0,161306.0
2026-04-14 17:09:21.174604,100103,1609504054922715,1654892764,0.841312,-0.052704,0.07808,-6.74625,-17.0625,4.1125,-19.136002,-20.6,-5.8,inter_set_rest,2,3.0,74107.0,295662.0,149240.0,281353.0,161306.0
2026-04-14 17:09:21.191365,100104,1609504054937200,1654905582,0.841312,-0.052704,0.07808,-6.5625,-17.3425,3.82375,-19.136002,-20.6,-5.8,inter_set_rest,2,3.0,74107.0,295662.0,149240.0,281353.0,161306.0
2026-04-14 17:09:21.199140,100105,1609504054946396,1654916315,0.866688,-0.040992,0.203008,-5.95,-17.6225,4.025,-19.656,-20.352001,-4.816001,inter_set_rest,2,3.0,74107.0,295662.0,149240.0,281353.0,161306.0
2026-04-14 17:09:21.230955,100116,1609504054955439,1654925303,0.866688,-0.040992,0.203008,-4.71625,-17.61375,4.52375,-19.656,-20.352001,-4.816001,inter_set_rest,2,3.0,69791.0,292273.0,142891.0,278266.0,154544.0
2026-04-14 17:09:21.233024,100117,1609504054969992,1654940239,0.895968,-0.052704,0.095648,-5.565,-17.29,4.85625,-18.808,-20.712002,-5.608,inter_set_rest,2,3.0,69791.0,292273.0,142891.0,278266.0,154544.0
2026-04-14 17:09:21.235499,100118,1609504054978939,1654948924,0.895968,-0.052704,-0.013664,-9.2575,-16.66,4.97875,-18.808,-20.712002,-5.608,inter_set_rest,2,3.0,69791.0,292273.0,142891.0,278266.0,154544.0
2026-04-14 17:09:21.286816,100119,1609504054993466,1654963793,0.872544,-0.062464,-0.001952,-10.8675,-15.70625,4.8825,-19.176,-21.008001,-7.032001,inter_set_rest,2,3.0,69791.0,292273.0,142891.0,278266.0,154544.0
2026-04-14 17:09:21.296502,100120,1609504055002443,1654972495,0.9272,-0.10736,-0.05856,-10.0275,-14.5075,3.03625,-18.848001,-20.808,-5.864,inter_set_rest,2,3.0,69791.0,292273.0,142891.0,278266.0,154544.0
2026-04-14 17:09:21.300434,100121,1609504055016929,1654985322,0.9272,-0.10736,-0.05856,-9.45875,-13.9125,2.205,-18.848001,-20.808,-5.864,inter_set_rest,2,3.0,69791.0,292273.0,142891.0,278266.0,154544.0
2026-04-14 17:09:21.302676,100122,1609504055026113,1654996078,0.96624,-0.0976,0.089792,-8.645,-13.83375,2.59875,-19.712002,-20.6,-4.72,inter_set_rest,2,3.0,69791.0,292273.0,142891.0,278266.0,154544.0
2026-04-14 17:09:21.305146,100123,1609504055035022,1655004737,0.96624,-0.0976,0.089792,-8.26875,-14.035,1.54,-19.712002,-20.6,-4.72,inter_set_rest,2,3.0,69791.0,292273.0,142891.0,278266.0,154544.0
2026-04-14 17:09:21.307679,100124,1609504055049540,1655019612,0.886208,-0.074176,-0.025376,-7.4025,-13.9825,1.2425,-19.928001,-20.368,-5.416,inter_set_rest,2,3.0,69791.0,292273.0,142891.0,278266.0,154544.0
2026-04-14 17:09:21.334744,100135,1609504055058645,1655028596,0.886208,-0.074176,-0.025376,-7.8925,-13.3175,0.805,-19.928001,-20.368,-5.416,inter_set_rest,2,3.0,67233.0,291499.0,138873.0,276826.0,150552.0
2026-04-14 17:09:21.337250,100136,1609504055073171,1655043473,0.894016,-0.076128,-0.044896,-8.07625,-11.97875,-0.16625,-19.832,-20.648,-6.288,inter_set_rest,2,3.0,67233.0,291499.0,138873.0,276826.0,150552.0
2026-04-14 17:09:21.364686,100137,1609504055082205,1655052223,0.89792,-0.064416,0.044896,-6.51,-10.78875,-1.37375,-19.032001,-21.064001,-6.328,inter_set_rest,2,3.0,67233.0,291499.0,138873.0,276826.0,150552.0
2026-04-14 17:09:21.369715,100138,1609504055091239,1655060957,0.89792,-0.064416,0.044896,-3.3075,-10.22875,-2.79125,-19.032001,-21.064001,-6.328,inter_set_rest,2,3.0,67233.0,291499.0,138873.0,276826.0,150552.0
2026-04-14 17:09:21.372239,100139,1609504055105730,1655075819,0.905728,-0.052704,0.115168,-0.91,-10.56125,-4.06,-19.480001,-20.712002,-6.12,inter_set_rest,2,3.0,67233.0,291499.0,138873.0,276826.0,150552.0
2026-04-14 17:09:21.374719,100140,1609504055114676,1655084514,0.905728,-0.052704,0.115168,-0.88375,-10.815,-4.41875,-19.480001,-20.712002,-6.12,inter_set_rest,2,3.0,67233.0,291499.0,138873.0,276826.0,150552.0
2026-04-14 17:09:21.381757,100141,1609504055129169,1655099363,0.954528,-0.052704,0.160064,-3.2025,-10.85,-3.78,-19.12,-20.608002,-6.152,inter_set_rest,2,3.0,67233.0,291499.0,138873.0,276826.0,150552.0
2026-04-14 17:09:21.390502,100142,1609504055138082,1655108029,0.954528,-0.052704,0.160064,-5.67,-10.167501,-3.33375,-19.12,-20.608002,-6.152,inter_set_rest,2,3.0,67233.0,291499.0,138873.0,276826.0,150552.0
2026-04-14 17:09:21.430892,100153,1609504055152567,1655122866,0.899872,-0.056608,0.035136,-8.82,-9.37125,-3.56125,-19.032001,-20.872002,-6.288,inter_set_rest,2,3.0,67177.0,289007.0,139109.0,275027.0,150650.0
2026-04-14 17:09:21.433450,100154,1609504055161537,1655131588,0.870592,-0.074176,-0.076128,-10.78875,-8.6275,-4.08625,-20.432001,-20.464,-4.448,inter_set_rest,2,3.0,67177.0,289007.0,139109.0,275027.0,150650.0
2026-04-14 17:09:21.435939,100155,1609504055170501,1655140351,0.870592,-0.074176,-0.076128,-9.93125,-7.74375,-3.85,-20.432001,-20.464,-4.448,inter_set_rest,2,3.0,67177.0,289007.0,139109.0,275027.0,150650.0
2026-04-14 17:09:21.438473,100156,1609504055185079,1655155302,0.890112,-0.064416,-0.111264,-7.56875,-7.53375,-3.80625,-19.752,-20.424002,-4.92,inter_set_rest,2,3.0,67177.0,289007.0,139109.0,275027.0,150650.0
2026-04-14 17:09:21.446845,100157,1609504055194065,1655163988,0.890112,-0.064416,-0.111264,-6.4925,-7.595,-3.91125,-19.752,-20.424002,-4.92,inter_set_rest,2,3.0,67177.0,289007.0,139109.0,275027.0,150650.0
2026-04-14 17:09:21.463467,100158,1609504055208572,1655178862,0.981856,-0.046848,0.0976,-8.015,-7.84,-4.6725,-19.048,-20.880001,-6.056,inter_set_rest,2,3.0,67177.0,289007.0,139109.0,275027.0,150650.0
2026-04-14 17:09:21.474074,100159,1609504055217507,1655187569,0.981856,-0.046848,0.0976,-11.20875,-6.79875,-5.25875,-19.048,-20.880001,-6.056,inter_set_rest,2,3.0,67177.0,289007.0,139109.0,275027.0,150650.0
2026-04-14 17:09:21.484897,100160,1609504055231985,1655200412,0.905728,-0.07808,-0.072224,-13.64125,-4.62875,-5.45125,-19.44,-20.808,-5.08,inter_set_rest,2,3.0,67177.0,289007.0,139109.0,275027.0,150650.0
2026-04-14 17:09:21.495946,100161,1609504055241221,1655211157,0.950624,-0.081984,0.091744,-14.41125,-2.9925,-5.6525,-19.44,-20.808,-6.048,inter_set_rest,2,3.0,67177.0,289007.0,139109.0,275027.0,150650.0
2026-04-14 17:09:21.502885,100162,1609504055250127,1655219840,0.950624,-0.081984,0.091744,-13.5975,-2.8175,-5.9325,-20.256,-21.096,-6.048,inter_set_rest,2,3.0,67177.0,289007.0,139109.0,275027.0,150650.0
2026-04-14 17:09:21.530925,100173,1609504055264687,1655234879,0.90768,-0.070272,-0.08784,-11.4975,-2.835,-5.8625,-19.768002,-21.400002,-6.256001,inter_set_rest,2,3.0,66874.0,286150.0,138869.0,272821.0,150118.0
2026-04-14 17:09:21.533161,100174,1609504055273699,1655243626,0.90768,-0.070272,-0.08784,-10.325,-3.07125,-5.3025,-19.768002,-21.400002,-6.256001,inter_set_rest,2,3.0,66874.0,286150.0,138869.0,272821.0,150118.0
2026-04-14 17:09:21.540586,100175,1609504055288192,1655258526,0.9272,-0.054656,0.035136,-10.57875,-3.4125,-4.76,-19.136002,-21.024,-6.424,inter_set_rest,2,3.0,66874.0,286150.0,138869.0,272821.0,150118.0
2026-04-14 17:09:21.550544,100176,1609504055297139,1655267198,0.9272,-0.054656,0.035136,-12.27625,-3.82375,-4.69875,-19.136002,-21.024,-6.424,inter_set_rest,2,3.0,66874.0,286150.0,138869.0,272821.0,150118.0
2026-04-14 17:09:21.559217,100177,1609504055306049,1655275858,0.864736,-0.037088,-0.021472,-14.11375,-3.87625,-4.76,-18.784,-20.84,-5.104,inter_set_rest,2,3.0,66874.0,286150.0,138869.0,272821.0,150118.0
2026-04-14 17:09:21.573454,100178,1609504055320543,1655290828,0.864736,-0.037088,-0.021472,-15.33875,-3.6225,-4.64625,-18.784,-20.84,-5.104,inter_set_rest,2,3.0,66874.0,286150.0,138869.0,272821.0,150118.0
2026-04-14 17:09:21.583339,100179,1609504055329470,1655299504,0.864736,-0.066368,-0.105408,-14.13125,-3.99,-5.08375,-19.344002,-20.496,-2.872,inter_set_rest,2,3.0,66874.0,286150.0,138869.0,272821.0,150118.0
2026-04-14 17:09:21.595501,100180,1609504055343956,1655312329,0.876448,-0.035136,0.111264,-11.87375,-4.40125,-5.1625,-19.904001,-21.432001,-5.832,inter_set_rest,2,3.0,66874.0,286150.0,138869.0,272821.0,150118.0
2026-04-14 17:09:21.605852,100181,1609504055353227,1655323087,0.876448,-0.035136,0.111264,-10.64,-4.43625,-4.64625,-19.904001,-21.432001,-5.832,inter_set_rest,2,3.0,66874.0,286150.0,138869.0,272821.0,150118.0
2026-04-14 17:09:21.693010,100192,1609504055367724,1655338028,0.929152,-0.064416,-0.03904,-10.115,-5.13625,-4.0075,-18.816,-21.080002,-5.768,inter_set_rest,2,3.0,66793.0,283762.0,138916.0,270988.0,149981.0
2026-04-14 17:09:21.696025,100193,1609504055376611,1655346720,0.929152,-0.064416,-0.03904,-10.64,-6.195,-3.22875,-18.816,-21.080002,-5.768,inter_set_rest,2,3.0,66793.0,283762.0,138916.0,270988.0,149981.0
2026-04-14 17:09:21.698436,100194,1609504055385521,1655355387,0.905728,-0.05856,-0.042944,-12.0925,-6.545,-2.31875,-18.880001,-21.000002,-5.864,inter_set_rest,2,3.0,66793.0,283762.0,138916.0,270988.0,149981.0
2026-04-14 17:09:21.700963,100195,1609504055399993,1655370312,0.905728,-0.05856,-0.042944,-14.0,-7.49,-1.77625,-18.880001,-21.000002,-5.864,inter_set_rest,2,3.0,66793.0,283762.0,138916.0,270988.0,149981.0
2026-04-14 17:09:21.703503,100196,1609504055408887,1655378966,0.962336,-0.070272,0.105408,-14.56,-8.2775,-1.715,-18.864,-20.952002,-4.792,inter_set_rest,2,3.0,66793.0,283762.0,138916.0,270988.0,149981.0
2026-04-14 17:09:21.705474,100197,1609504055423378,1655391781,0.911584,-0.042944,0.015616,-13.2825,-8.95125,-1.44375,-19.616001,-20.688002,-4.784,inter_set_rest,2,3.0,66793.0,283762.0,138916.0,270988.0,149981.0
2026-04-14 17:09:21.707977,100198,1609504055432572,1655402530,0.911584,-0.042944,0.015616,-10.6925,-9.5725,-1.21625,-19.616001,-20.688002,-4.784,inter_set_rest,2,3.0,66793.0,283762.0,138916.0,270988.0,149981.0
2026-04-14 17:09:21.710591,100199,1609504055447093,1655417431,0.899872,-0.01952,0.02928,-7.93625,-9.91375,-1.21625,-19.776001,-20.968,-4.912,inter_set_rest,2,3.0,66793.0,283762.0,138916.0,270988.0,149981.0
2026-04-14 17:09:21.738490,100210,1609504055456371,1655426632,0.899872,-0.01952,0.02928,-7.63875,-9.94,-1.295,-19.776001,-20.968,-4.912,inter_set_rest,2,3.0,66029.0,280801.0,137814.0,268740.0,148660.0
2026-04-14 17:09:21.740591,100211,1609504055465403,1655435377,0.925248,-0.023424,0.085888,-9.30125,-9.948751,-0.88375,-19.352001,-20.544,-4.96,inter_set_rest,2,3.0,66029.0,280801.0,137814.0,268740.0,148660.0
2026-04-14 17:09:21.743527,100212,1609504055480105,1655450318,0.925248,-0.023424,0.085888,-11.05125,-10.5,-0.62125,-19.352001,-20.544,-4.96,inter_set_rest,2,3.0,66029.0,280801.0,137814.0,268740.0,148660.0
2026-04-14 17:09:21.746089,100213,1609504055489044,1655459016,0.90768,-0.037088,-0.037088,-10.6225,-10.5525,-0.06125,-19.936,-20.888,-4.528,inter_set_rest,2,3.0,66029.0,280801.0,137814.0,268740.0,148660.0
2026-04-14 17:09:21.755285,100214,1609504055503530,1655471883,0.960384,-0.062464,0.007808,-9.03875,-9.9575,-0.4375,-18.728,-20.912,-6.368001,inter_set_rest,2,3.0,66029.0,280801.0,137814.0,268740.0,148660.0
2026-04-14 17:09:21.765325,100215,1609504055512719,1655482636,0.960384,-0.062464,0.007808,-7.455,-9.72125,-0.41125,-18.728,-20.912,-6.368001,inter_set_rest,2,3.0,66029.0,280801.0,137814.0,268740.0,148660.0
2026-04-14 17:09:21.775954,100216,1609504055521605,1655491326,0.960384,-0.062464,0.007808,-6.60625,-10.26375,-0.04375,-18.728,-20.912,-6.368001,inter_set_rest,2,3.0,66029.0,280801.0,137814.0,268740.0,148660.0
2026-04-14 17:09:21.789728,100217,1609504055536098,1655506187,0.895968,-0.007808,0.072224,-4.7075,-11.13875,0.175,-19.752,-20.960001,-6.128,inter_set_rest,2,3.0,66029.0,280801.0,137814.0,268740.0,148660.0
2026-04-14 17:09:21.796856,100218,1609504055545073,1655514914,0.874496,-0.00976,-0.001952,-4.10375,-10.96375,0.11375,-19.504002,-20.888,-6.912,inter_set_rest,2,3.0,66029.0,280801.0,137814.0,268740.0,148660.0
2026-04-14 17:09:21.836024,100230,1609504055560133,1655529827,0.874496,-0.00976,-0.001952,-4.3225,-10.22875,-0.35875,-19.504002,-20.888,-6.912,inter_set_rest,2,3.0,65381.0,281157.0,136721.0,268537.0,147637.0
2026-04-14 17:09:21.838485,100231,1609504055569103,1655538616,0.952576,-0.06832,-0.001952,-2.63375,-9.86125,-0.60375,-20.424002,-20.776001,-5.296001,inter_set_rest,2,3.0,65381.0,281157.0,136721.0,268537.0,147637.0
2026-04-14 17:09:21.840602,100232,1609504055578049,1655547331,0.952576,-0.06832,-0.001952,-0.70875,-10.08,-0.5775,-20.424002,-20.776001,-5.296001,inter_set_rest,2,3.0,65381.0,281157.0,136721.0,268537.0,147637.0
2026-04-14 17:09:21.849008,100233,1609504055592536,1655562219,0.919392,-0.01952,0.103456,1.085,-10.33375,-0.105,-20.128,-20.768002,-5.024,inter_set_rest,2,3.0,65381.0,281157.0,136721.0,268537.0,147637.0
2026-04-14 17:09:21.857767,100234,1609504055601448,1655570919,0.919392,-0.01952,0.103456,1.2775,-11.17375,0.42875,-20.128,-20.768002,-5.024,inter_set_rest,2,3.0,65381.0,281157.0,136721.0,268537.0,147637.0
2026-04-14 17:09:21.875543,100235,1609504055615977,1655585825,0.950624,-0.044896,0.06832,0.5075,-11.75125,1.84625,-19.04,-21.216002,-5.208,inter_set_rest,2,3.0,65381.0,281157.0,136721.0,268537.0,147637.0
2026-04-14 17:09:21.878114,100236,1609504055624940,1655594512,0.88816,-0.01952,0.02928,0.805,-12.17125,2.86125,-19.072,-20.92,-5.0,inter_set_rest,2,3.0,65381.0,281157.0,136721.0,268537.0,147637.0
2026-04-14 17:09:21.891885,100237,1609504055639420,1655609378,0.88816,-0.01952,0.02928,1.37375,-12.80125,3.66625,-19.072,-20.92,-5.0,inter_set_rest,2,3.0,65381.0,281157.0,136721.0,268537.0,147637.0
2026-04-14 17:09:21.900633,100238,1609504055648327,1655618052,0.954528,-0.037088,0.121024,1.25125,-12.81,4.24375,-19.768002,-20.872002,-6.248,inter_set_rest,2,3.0,65381.0,281157.0,136721.0,268537.0,147637.0
2026-04-14 17:09:21.934396,100249,1609504055657299,1655626734,0.954528,-0.037088,0.121024,1.25125,-11.99625,4.725,-19.768002,-20.872002,-6.248,inter_set_rest,2,3.0,65633.0,282586.0,137036.0,269444.0,148133.0
2026-04-14 17:09:21.936883,100250,1609504055671846,1655641686,0.909632,-0.066368,-0.109312,1.2775,-11.2525,4.83875,-20.064001,-20.496,-5.496,inter_set_rest,2,3.0,65633.0,282586.0,137036.0,269444.0,148133.0
2026-04-14 17:09:21.939479,100251,1609504055680809,1655650377,0.909632,-0.066368,-0.109312,2.84375,-11.235,5.0925,-20.064001,-20.496,-5.496,inter_set_rest,2,3.0,65633.0,282586.0,137036.0,269444.0,148133.0
2026-04-14 17:09:21.948150,100252,1609504055695325,1655665289,0.8784,-0.050752,-0.1464,3.07125,-11.50625,5.74875,-19.848001,-20.400002,-4.92,inter_set_rest,2,3.0,65633.0,282586.0,137036.0,269444.0,148133.0
2026-04-14 17:09:21.958027,100253,1609504055704255,1655673966,0.913536,-0.06832,-0.162016,1.995,-11.45375,6.53625,-19.848001,-20.960001,-5.536,inter_set_rest,2,3.0,65633.0,282586.0,137036.0,269444.0,148133.0
2026-04-14 17:09:21.970646,100254,1609504055718834,1655688910,0.913536,-0.06832,-0.162016,0.00875,-11.64625,6.50125,-19.312,-20.960001,-5.536,inter_set_rest,2,3.0,65633.0,282586.0,137036.0,269444.0,148133.0
2026-04-14 17:09:22.008178,100255,1609504055727734,1655697584,0.929152,-0.027328,0.044896,-1.8025,-10.78,6.22125,-20.448002,-20.552,-6.736001,inter_set_rest,2,3.0,65633.0,282586.0,137036.0,269444.0,148133.0
2026-04-14 17:09:22.010658,100256,1609504055736666,1655706279,0.929152,-0.027328,0.044896,-2.98375,-9.84375,5.915,-20.448002,-20.552,-6.736001,inter_set_rest,2,3.0,65633.0,282586.0,137036.0,269444.0,148133.0
2026-04-14 17:09:22.013200,100257,1609504055751150,1655721155,0.931104,-0.08784,-0.15616,-3.70125,-7.77875,4.90875,-19.456001,-20.864,-7.304,inter_set_rest,2,3.0,65633.0,282586.0,137036.0,269444.0,148133.0
2026-04-14 17:09:22.084298,100268,1609504055760489,1655730251,0.931104,-0.08784,-0.15616,-4.34,-6.13375,3.80625,-19.456001,-20.864,-7.304,inter_set_rest,2,3.0,65240.0,286658.0,136035.0,272140.0,147489.0
2026-04-14 17:09:22.086755,100269,1609504055775075,1655745157,0.9272,-0.070272,0.035136,-3.22875,-5.565,3.15875,-19.952002,-20.696001,-6.632,inter_set_rest,2,3.0,65240.0,286658.0,136035.0,272140.0,147489.0
2026-04-14 17:09:22.089407,100270,1609504055784021,1655753843,0.9272,-0.070272,0.035136,-1.995,-5.03125,2.91375,-19.952002,-20.696001,-6.632,inter_set_rest,2,3.0,65240.0,286658.0,136035.0,272140.0,147489.0
2026-04-14 17:09:22.091877,100271,1609504055792993,1655762561,0.962336,-0.06832,0.044896,-0.60375,-5.18875,2.9575,-19.336,-20.752,-6.920001,inter_set_rest,2,3.0,65240.0,286658.0,136035.0,272140.0,147489.0
2026-04-14 17:09:22.094448,100272,1609504055807597,1655777418,0.872544,-0.03904,0.027328,-0.77,-5.32875,2.26625,-19.536001,-20.456001,-5.904,inter_set_rest,2,3.0,65240.0,286658.0,136035.0,272140.0,147489.0
2026-04-14 17:09:22.096858,100273,1609504055816610,1655786183,0.872544,-0.03904,0.027328,-1.5225,-5.0925,2.26625,-19.536001,-20.456001,-5.904,inter_set_rest,2,3.0,65240.0,286658.0,136035.0,272140.0,147489.0
2026-04-14 17:09:22.099447,100274,1609504055831174,1655801134,0.925248,-0.085888,0.005856,-1.855,-5.7575,1.74125,-19.824001,-20.528002,-5.984,inter_set_rest,2,3.0,65240.0,286658.0,136035.0,272140.0,147489.0
2026-04-14 17:09:22.101888,100275,1609504055840084,1655809842,0.925248,-0.085888,0.005856,-0.86625,-6.3875,1.23375,-19.824001,-20.528002,-5.984,inter_set_rest,2,3.0,65240.0,286658.0,136035.0,272140.0,147489.0
2026-04-14 17:09:22.111684,100276,1609504055854657,1655824739,0.894016,-0.070272,-0.01952,-0.39375,-7.00875,1.02375,-20.048,-20.68,-6.72,inter_set_rest,2,3.0,65240.0,286658.0,136035.0,272140.0,147489.0
2026-04-14 17:09:22.142468,100287,1609504055863667,1655833444,0.894016,-0.070272,-0.01952,-0.93625,-7.7875,0.8925,-20.048,-20.68,-6.72,inter_set_rest,2,3.0,65909.0,287355.0,136985.0,272378.0,148605.0
2026-04-14 17:09:22.142915,100288,1609504055872638,1655842206,0.83936,-0.072224,-0.089792,-1.505,-8.6975,1.295,-19.616001,-21.048,-7.248,inter_set_rest,2,3.0,65909.0,287355.0,136985.0,272378.0,148605.0
2026-04-14 17:09:22.144244,100289,1609504055887180,1655857144,0.90768,-0.111264,-0.083936,-2.52875,-8.96875,2.21375,-20.096,-20.944,-6.832,inter_set_rest,2,3.0,65909.0,287355.0,136985.0,272378.0,148605.0
2026-04-14 17:09:22.153405,100290,1609504055896222,1655865832,0.90768,-0.111264,-0.083936,-3.5175,-9.415,2.33625,-20.096,-20.944,-6.832,inter_set_rest,2,3.0,65909.0,287355.0,136985.0,272378.0,148605.0
2026-04-14 17:09:22.164327,100291,1609504055910723,1655880696,0.938912,-0.109312,-0.066368,-3.21125,-9.9575,3.00125,-19.76,-20.888,-7.312,inter_set_rest,2,3.0,65909.0,287355.0,136985.0,272378.0,148605.0
2026-04-14 17:09:22.171811,100292,1609504055919637,1655889430,0.938912,-0.109312,-0.066368,-2.4675,-9.68625,3.7275,-19.76,-20.888,-7.312,inter_set_rest,2,3.0,65909.0,287355.0,136985.0,272378.0,148605.0
2026-04-14 17:09:22.182195,100293,1609504055928554,1655898127,0.940864,-0.119072,-0.115168,-2.7475,-8.7675,3.64875,-20.712002,-20.768002,-6.912,inter_set_rest,2,3.0,65909.0,287355.0,136985.0,272378.0,148605.0
2026-04-14 17:09:22.195913,100294,1609504055943016,1655913010,0.940864,-0.119072,-0.115168,-3.9725,-7.74375,3.26375,-20.712002,-20.768002,-6.912,inter_set_rest,2,3.0,65909.0,287355.0,136985.0,272378.0,148605.0
2026-04-14 17:09:22.206005,100295,1609504055951914,1655921678,0.944768,-0.119072,-0.035136,-5.6525,-6.965,3.42125,-20.168001,-20.736,-7.232,inter_set_rest,2,3.0,65909.0,287355.0,136985.0,272378.0,148605.0
2026-04-14 17:09:22.240275,100306,1609504055966442,1655936641,0.960384,-0.144448,-0.13664,-7.74375,-6.23875,3.8675,-19.976002,-20.328001,-6.488,inter_set_rest,2,3.0,65813.0,286852.0,137006.0,272334.0,148494.0
2026-04-14 17:09:22.240722,100307,1609504055975381,1655945349,0.960384,-0.144448,-0.13664,-8.35625,-6.36125,4.0775,-19.976002,-20.328001,-6.488,inter_set_rest,2,3.0,65813.0,286852.0,137006.0,272334.0,148494.0
2026-04-14 17:09:22.242727,100308,1609504055989925,1655958274,0.96624,-0.140544,-0.08784,-8.35625,-6.2825,3.8675,-20.416,-20.432001,-6.08,inter_set_rest,2,3.0,65813.0,286852.0,137006.0,272334.0,148494.0
2026-04-14 17:09:22.251701,100309,1609504055999115,1655969018,0.96624,-0.140544,-0.08784,-9.31875,-6.0725,3.61375,-20.416,-20.432001,-6.08,inter_set_rest,2,3.0,65813.0,286852.0,137006.0,272334.0,148494.0
2026-04-14 17:09:22.260409,100310,1609504056008018,1655977690,0.948672,-0.122976,0.021472,-10.10625,-5.285,3.07125,-19.84,-20.320002,-5.904,inter_set_rest,2,3.0,65813.0,286852.0,137006.0,272334.0,148494.0
2026-04-14 17:09:22.275551,100311,1609504056022491,1655992567,0.948672,-0.122976,0.021472,-9.84375,-5.38125,2.7475,-19.84,-20.320002,-5.904,inter_set_rest,2,3.0,65813.0,286852.0,137006.0,272334.0,148494.0
2026-04-14 17:09:22.283105,100312,1609504056031399,1656001287,0.913536,-0.140544,-0.158112,-9.3975,-5.01375,2.3275,-20.560001,-20.408,-6.856,inter_set_rest,2,3.0,65813.0,286852.0,137006.0,272334.0,148494.0
2026-04-14 17:09:22.297962,100313,1609504056045873,1656016167,0.913536,-0.093696,-0.062464,-9.835,-4.52375,1.75875,-20.560001,-20.408,-6.856,inter_set_rest,2,3.0,65813.0,286852.0,137006.0,272334.0,148494.0
2026-04-14 17:09:22.306733,100314,1609504056054826,1656024854,0.86864,-0.093696,-0.062464,-10.15,-4.26125,1.995,-20.224,-21.088001,-6.024,inter_set_rest,2,3.0,65813.0,286852.0,137006.0,272334.0,148494.0
2026-04-14 17:09:22.338034,100325,1609504056069403,1656038082,0.925248,-0.113216,0.011712,-10.745,-4.1125,1.58375,-20.096,-20.6,-6.88,inter_set_rest,2,3.0,64168.0,284582.0,134385.0,269969.0,145714.0
2026-04-14 17:09:22.340359,100326,1609504056078660,1656048864,0.925248,-0.113216,0.011712,-10.33375,-4.17375,1.44375,-20.096,-20.6,-6.88,inter_set_rest,2,3.0,64168.0,284582.0,134385.0,269969.0,145714.0
2026-04-14 17:09:22.343012,100327,1609504056087721,1656057602,0.938912,-0.119072,-0.021472,-9.4325,-4.0775,1.51375,-20.048,-21.000002,-8.08,inter_set_rest,2,3.0,64168.0,284582.0,134385.0,269969.0,145714.0
2026-04-14 17:09:22.371877,100328,1609504056102215,1656072492,0.938912,-0.119072,-0.021472,-8.365,-4.10375,1.015,-20.048,-21.000002,-8.08,inter_set_rest,2,3.0,64168.0,284582.0,134385.0,269969.0,145714.0
2026-04-14 17:09:22.396784,100329,1609504056111119,1656081178,0.876448,-0.113216,-0.080032,-7.8925,-4.43625,0.945,-20.384,-20.52,-5.84,inter_set_rest,2,3.0,64168.0,284582.0,134385.0,269969.0,145714.0
2026-04-14 17:09:22.404464,100330,1609504056125576,1656093985,0.876448,-0.113216,-0.080032,-8.5575,-4.6025,0.875,-20.384,-20.52,-5.84,inter_set_rest,2,3.0,64168.0,284582.0,134385.0,269969.0,145714.0
2026-04-14 17:09:22.406812,100331,1609504056134787,1656104763,0.874496,-0.103456,-0.12688,-8.3825,-5.04875,0.9975,-21.664001,-19.904001,-2.552,inter_set_rest,2,3.0,64168.0,284582.0,134385.0,269969.0,145714.0
2026-04-14 17:09:22.409383,100332,1609504056143708,1656113447,0.874496,-0.103456,-0.12688,-7.9625,-4.83,0.21,-21.664001,-19.904001,-2.552,inter_set_rest,2,3.0,64168.0,284582.0,134385.0,269969.0,145714.0
2026-04-14 17:09:22.439391,100343,1609504056158166,1656128326,0.899872,-0.119072,-0.17568,-7.70875,-4.4975,-0.5075,-21.112001,-20.616001,-5.792,inter_set_rest,2,3.0,62633.0,281151.0,132108.0,266983.0,143163.0
2026-04-14 17:09:22.441866,100344,1609504056167264,1656137059,0.950624,-0.111264,0.03904,-7.2975,-3.71,-1.28625,-21.112001,-20.464,-7.792,inter_set_rest,2,3.0,62633.0,281151.0,132108.0,266983.0,143163.0
2026-04-14 17:09:22.444408,100345,1609504056181755,1656151970,0.950624,-0.111264,0.03904,-6.34375,-2.94875,-2.555,-21.016,-20.464,-7.792,inter_set_rest,2,3.0,62633.0,281151.0,132108.0,266983.0,143163.0
2026-04-14 17:09:22.446880,100346,1609504056190780,1656160657,0.991616,-0.140544,-0.042944,-4.97,-2.5025,-3.3075,-20.888,-20.368,-5.816001,inter_set_rest,2,3.0,62633.0,281151.0,132108.0,266983.0,143163.0
2026-04-14 17:09:22.458100,100347,1609504056205324,1656175655,0.991616,-0.140544,-0.042944,-4.13875,-2.31,-3.9025,-20.888,-20.368,-5.816001,inter_set_rest,2,3.0,62633.0,281151.0,132108.0,266983.0,143163.0
2026-04-14 17:09:22.468182,100348,1609504056214250,1656184354,0.976,-0.134688,-0.08784,-3.8675,-2.4325,-4.0775,-20.44,-20.096,-5.736,inter_set_rest,2,3.0,62633.0,281151.0,132108.0,266983.0,143163.0
2026-04-14 17:09:22.475664,100349,1609504056223171,1656193042,0.976,-0.134688,-0.08784,-3.92875,-1.7675,-4.305,-20.44,-20.096,-5.736,inter_set_rest,2,3.0,62633.0,281151.0,132108.0,266983.0,143163.0
2026-04-14 17:09:22.491917,100350,1609504056237649,1656207909,0.93696,-0.142496,-0.181536,-3.815,-1.28625,-4.73375,-19.904001,-21.016,-6.888001,inter_set_rest,2,3.0,62633.0,281151.0,132108.0,266983.0,143163.0
2026-04-14 17:09:22.498504,100351,1609504056246585,1656216661,0.93696,-0.142496,-0.181536,-3.745,-0.93625,-5.06625,-19.904001,-21.016,-6.888001,inter_set_rest,2,3.0,62633.0,281151.0,132108.0,266983.0,143163.0
2026-04-14 17:09:22.538168,100362,1609504056261458,1656231572,0.870592,-0.089792,-0.06832,-2.065,-0.49875,-5.60875,-19.776001,-20.6,-7.04,inter_set_rest,2,3.0,62476.0,279390.0,131919.0,265550.0,142822.0
2026-04-14 17:09:22.540581,100363,1609504056270482,1656240317,0.894016,-0.124928,-0.206912,-1.35625,-0.06125,-6.46625,-20.872002,-20.720001,-5.848,inter_set_rest,2,3.0,62476.0,279390.0,131919.0,265550.0,142822.0
2026-04-14 17:09:22.543171,100364,1609504056279425,1656249089,0.894016,-0.124928,-0.206912,0.6475,-0.035,-6.8775,-20.872002,-20.720001,-5.848,inter_set_rest,2,3.0,62476.0,279390.0,131919.0,265550.0,142822.0
2026-04-14 17:09:22.546850,100365,1609504056294022,1656264027,0.894016,-0.115168,-0.197152,0.44625,0.07875,-6.72875,-20.696001,-20.264002,-5.192,inter_set_rest,2,3.0,62476.0,279390.0,131919.0,265550.0,142822.0
2026-04-14 17:09:22.555657,100366,1609504056302962,1656272711,0.894016,-0.115168,-0.197152,0.11375,0.13125,-6.23875,-20.696001,-20.264002,-5.192,inter_set_rest,2,3.0,62476.0,279390.0,131919.0,265550.0,142822.0
2026-04-14 17:09:22.570689,100367,1609504056317473,1656287715,0.866688,-0.111264,-0.222528,0.09625,0.39375,-6.09875,-20.768002,-20.432001,-5.976,inter_set_rest,2,3.0,62476.0,279390.0,131919.0,265550.0,142822.0
2026-04-14 17:09:22.578191,100368,1609504056326404,1656296395,0.866688,-0.111264,-0.222528,0.39375,0.63875,-5.71375,-20.768002,-20.432001,-5.976,inter_set_rest,2,3.0,62476.0,279390.0,131919.0,265550.0,142822.0
2026-04-14 17:09:22.593264,100369,1609504056340892,1656309234,0.841312,-0.085888,-0.15616,0.6475,0.63875,-5.39,-20.424002,-20.944,-3.936,inter_set_rest,2,3.0,62476.0,279390.0,131919.0,265550.0,142822.0
2026-04-14 17:09:22.604247,100370,1609504056350044,1656319983,0.944768,-0.122976,-0.124928,1.33,-0.105,-5.3375,-20.872002,-20.768002,-6.24,inter_set_rest,2,3.0,62476.0,279390.0,131919.0,265550.0,142822.0
2026-04-14 17:09:22.611842,100371,1609504056358944,1656328692,0.944768,-0.122976,-0.124928,1.35625,-0.06125,-4.55,-20.872002,-20.768002,-6.24,inter_set_rest,2,3.0,62476.0,279390.0,131919.0,265550.0,142822.0
2026-04-14 17:09:22.666844,100382,1609504056373524,1656343621,0.93696,-0.091744,-0.011712,0.9275,0.245,-4.2175,-19.944,-20.616001,-7.04,inter_set_rest,2,3.0,62562.0,278421.0,132141.0,265068.0,142897.0
2026-04-14 17:09:22.669339,100383,1609504056382422,1656352342,0.93696,-0.091744,-0.011712,-0.175,0.1925,-3.50875,-19.944,-20.616001,-7.04,inter_set_rest,2,3.0,62562.0,278421.0,132141.0,265068.0,142897.0
2026-04-14 17:09:22.671809,100384,1609504056396913,1656367254,0.890112,-0.103456,-0.144448,-0.9275,0.77875,-3.21125,-19.536001,-20.880001,-6.104,inter_set_rest,2,3.0,62562.0,278421.0,132141.0,265068.0,142897.0
2026-04-14 17:09:22.674267,100385,1609504056405842,1656375954,0.890112,-0.103456,-0.144448,-0.1925,0.48125,-2.94,-19.536001,-20.880001,-6.104,inter_set_rest,2,3.0,62562.0,278421.0,132141.0,265068.0,142897.0
2026-04-14 17:09:22.676798,100386,1609504056420399,1656388798,0.872544,-0.091744,-0.206912,0.7,0.2975,-3.2025,-20.696001,-20.456001,-6.000001,inter_set_rest,2,3.0,62562.0,278421.0,132141.0,265068.0,142897.0
2026-04-14 17:09:22.683068,100387,1609504056429667,1656399539,0.90768,-0.074176,-0.056608,1.33875,-0.30625,-2.89625,-20.640001,-20.456001,-5.472,inter_set_rest,2,3.0,62562.0,278421.0,132141.0,265068.0,142897.0
2026-04-14 17:09:22.690533,100388,1609504056438614,1656408238,0.90768,-0.074176,-0.056608,1.05875,-0.7175,-2.975,-20.640001,-20.456001,-5.472,inter_set_rest,2,3.0,62562.0,278421.0,132141.0,265068.0,142897.0
2026-04-14 17:09:22.707821,100389,1609504056453092,1656423122,0.899872,-0.060512,0.0,0.13125,-0.56875,-3.255,-20.048,-21.032001,-7.12,inter_set_rest,2,3.0,62562.0,278421.0,132141.0,265068.0,142897.0
2026-04-14 17:09:22.786010,100400,1609504056462527,1656432157,0.899872,-0.060512,0.0,-0.34125,-0.385,-3.5,-20.048,-21.032001,-7.12,inter_set_rest,2,3.0,62896.0,279392.0,132629.0,265848.0,143457.0
