pc_time,serial_num,sensor_ts,host_ts,ax,ay,az,gx,gy,gz,mx,my,mz,phase,rpe,weight_kg,ppg_a,ppg_b,ppg_c,ppg_d,ppg_e
2026-04-14 17:10:17.710888,110729,1609504111456794,1711426764,0.456768,0.128832,-0.173728,-17.605,58.607502,-40.915,-16.856,-20.056002,-12.848001,concentric,2,3.0,38729.0,247257.0,85096.0,240771.0,94798.0
2026-04-14 17:10:17.752602,110740,1609504111471376,1711441691,0.542656,-0.259616,-0.577792,-23.065,50.86375,-40.39875,-17.272001,-20.648,-12.808001,concentric,2,3.0,52157.0,279554.0,107035.0,263962.0,119709.0
2026-04-14 17:10:17.752743,110741,1609504111480364,1711450452,0.564128,-0.1464,-0.45872,-14.595,40.53875,-32.3925,-17.392,-20.720001,-11.568001,concentric,2,3.0,52157.0,279554.0,107035.0,263962.0,119709.0
2026-04-14 17:10:17.752795,110742,1609504111494909,1711463291,0.564128,-0.1464,-0.45872,1.4525,29.09375,-25.8125,-17.392,-20.720001,-11.568001,concentric,2,3.0,52157.0,279554.0,107035.0,263962.0,119709.0
2026-04-14 17:10:17.758378,110743,1609504111504162,1711474043,0.49776,0.085888,-0.07808,13.7025,22.35625,-20.85125,-16.736,-21.032001,-12.8,concentric,2,3.0,52157.0,279554.0,107035.0,263962.0,119709.0
2026-04-14 17:10:17.768543,110744,1609504111513105,1711482727,0.49776,0.085888,-0.07808,16.21375,18.61125,-14.175,-16.736,-21.032001,-12.8,concentric,2,3.0,52157.0,279554.0,107035.0,263962.0,119709.0
2026-04-14 17:10:17.780997,110745,1609504111527580,1711497638,0.593408,-0.003904,-0.17568,9.1,15.4875,-19.53,-16.256,-21.264002,-12.448001,concentric,2,3.0,52157.0,279554.0,107035.0,263962.0,119709.0
2026-04-14 17:10:17.789552,110746,1609504111536516,1711506364,0.593408,-0.003904,-0.17568,9.6775,12.792501,-22.32125,-16.256,-21.264002,-12.448001,concentric,2,3.0,52157.0,279554.0,107035.0,263962.0,119709.0
2026-04-14 17:10:17.805892,110747,1609504111551031,1711521262,0.612928,-0.040992,-0.355264,14.5075,8.3475,-18.85625,-16.872002,-21.064001,-11.960001,concentric,2,3.0,52157.0,279554.0,107035.0,263962.0,119709.0
2026-04-14 17:10:17.815940,110748,1609504111559938,1711529928,0.796416,-0.103456,-0.31232,15.4875,2.59875,-15.82,-17.864,-20.728,-11.016001,concentric,2,3.0,52157.0,279554.0,107035.0,263962.0,119709.0
2026-04-14 17:10:17.916082,110759,1609504111568943,1711539023,0.796416,-0.103456,-0.31232,9.31,-1.6275,-8.30375,-17.864,-20.728,-11.016001,concentric,2,3.0,59089.0,285437.0,117436.0,268566.0,131268.0
2026-04-14 17:10:17.918583,110760,1609504111583565,1711551932,0.792512,-0.080032,-0.25376,-0.95375,-2.66,1.505,-18.2,-21.048,-11.848001,concentric,2,3.0,59089.0,285437.0,117436.0,268566.0,131268.0
2026-04-14 17:10:17.923308,110761,1609504111592764,1711562686,0.792512,-0.080032,-0.25376,-9.09125,-3.91125,6.76375,-18.2,-21.048,-11.848001,concentric,2,3.0,59089.0,285437.0,117436.0,268566.0,131268.0
2026-04-14 17:10:17.926051,110762,1609504111607251,1711577548,0.884256,-0.10736,-0.324032,-2.66875,-4.1825,7.315,-17.456001,-21.344002,-12.392,concentric,2,3.0,59089.0,285437.0,117436.0,268566.0,131268.0
2026-04-14 17:10:17.928587,110763,1609504111616154,1711586213,0.884256,-0.10736,-0.324032,16.40625,-5.73125,5.59125,-17.456001,-21.344002,-12.392,concentric,2,3.0,59089.0,285437.0,117436.0,268566.0,131268.0
2026-04-14 17:10:17.931077,110764,1609504111630696,1711599071,1.011136,-0.062464,-0.160064,25.73375,-8.085,5.71375,-17.896,-20.856,-12.352,concentric,2,3.0,59089.0,285437.0,117436.0,268566.0,131268.0
2026-04-14 17:10:17.933560,110765,1609504111639843,1711609822,0.935008,0.031232,-0.251808,22.53125,-8.5225,8.6625,-17.896,-21.04,-12.632001,concentric,2,3.0,59089.0,285437.0,117436.0,268566.0,131268.0
2026-04-14 17:10:17.936071,110766,1609504111648738,1711618487,0.935008,0.031232,-0.251808,7.0525,-4.61125,9.3275,-17.592001,-21.04,-12.632001,concentric,2,3.0,59089.0,285437.0,117436.0,268566.0,131268.0
2026-04-14 17:10:17.963494,110777,1609504111663210,1711633463,1.013088,-0.093696,-0.0976,-8.46125,1.015,8.2075,-17.448,-21.192001,-13.464001,concentric,2,3.0,61828.0,292122.0,121525.0,275084.0,135608.0
2026-04-14 17:10:17.966280,110778,1609504111672354,1711642246,1.013088,-0.093696,-0.0976,-14.39375,5.20625,5.6,-17.448,-21.192001,-13.464001,concentric,2,3.0,61828.0,292122.0,121525.0,275084.0,135608.0
2026-04-14 17:10:17.968788,110779,1609504111686909,1711657157,0.913536,-0.062464,-0.130784,-8.2425,5.8975,2.31875,-17.024,-21.480001,-13.416,concentric,2,3.0,61828.0,292122.0,121525.0,275084.0,135608.0
2026-04-14 17:10:17.971286,110780,1609504111695897,1711665901,0.913536,-0.062464,-0.130784,3.7275,4.235,0.48125,-17.024,-21.480001,-13.416,concentric,2,3.0,61828.0,292122.0,121525.0,275084.0,135608.0
2026-04-14 17:10:17.973406,110781,1609504111704918,1711674618,0.974048,-0.099552,-0.220576,8.9075,2.26625,1.68875,-16.504002,-21.352001,-13.144001,concentric,2,3.0,61828.0,292122.0,121525.0,275084.0,135608.0
2026-04-14 17:10:17.975814,110782,1609504111719418,1711689613,0.974048,-0.099552,-0.220576,6.265,0.28,3.92875,-16.504002,-21.352001,-13.144001,concentric,2,3.0,61828.0,292122.0,121525.0,275084.0,135608.0
2026-04-14 17:10:17.982603,110783,1609504111728355,1711698331,0.856928,-0.044896,-0.099552,2.47625,0.35875,6.67625,-16.864,-21.408,-12.080001,concentric,2,3.0,61828.0,292122.0,121525.0,275084.0,135608.0
2026-04-14 17:10:17.995130,110784,1609504111742795,1711711170,0.815936,0.023424,-0.152256,-1.5925,3.03625,9.3625,-17.92,-21.080002,-12.448001,concentric,2,3.0,61828.0,292122.0,121525.0,275084.0,135608.0
2026-04-14 17:10:18.006240,110785,1609504111752032,1711721925,0.815936,0.023424,-0.152256,-4.48,6.97375,8.015,-17.92,-21.080002,-12.448001,concentric,2,3.0,61828.0,292122.0,121525.0,275084.0,135608.0
2026-04-14 17:10:18.046694,110796,1609504111766625,1711736880,0.806176,-0.054656,-0.158112,-5.78375,10.167501,3.7975,-17.376001,-21.320002,-13.008,concentric,2,3.0,65653.0,293978.0,126940.0,276794.0,141551.0
2026-04-14 17:10:18.047452,110797,1609504111775716,1711745647,0.806176,-0.054656,-0.158112,-3.49125,10.7275,1.3825,-17.376001,-21.320002,-13.008,concentric,2,3.0,65653.0,293978.0,126940.0,276794.0,141551.0
2026-04-14 17:10:18.049583,110798,1609504111784667,1711754396,0.843264,-0.00976,-0.099552,2.40625,8.88125,0.35,-19.048,-21.224,-12.352,concentric,2,3.0,65653.0,293978.0,126940.0,276794.0,141551.0
2026-04-14 17:10:18.054890,110799,1609504111799186,1711769291,0.843264,-0.00976,-0.099552,4.795,5.6525,-0.07875,-19.048,-21.224,-12.352,concentric,2,3.0,65653.0,293978.0,126940.0,276794.0,141551.0
2026-04-14 17:10:18.062539,110800,1609504111808101,1711777965,0.919392,-0.095648,-0.070272,1.79375,1.96875,1.51375,-18.44,-21.080002,-13.328001,concentric,2,3.0,65653.0,293978.0,126940.0,276794.0,141551.0
2026-04-14 17:10:18.077130,110801,1609504111822567,1711792860,0.892064,-0.12688,-0.208864,-2.5375,-1.14625,3.6575,-17.296001,-21.592001,-11.616,concentric,2,3.0,65653.0,293978.0,126940.0,276794.0,141551.0
2026-04-14 17:10:18.085674,110802,1609504111831455,1711801561,0.892064,-0.12688,-0.208864,-4.05125,-3.24625,6.01125,-17.296001,-21.592001,-11.616,concentric,2,3.0,65653.0,293978.0,126940.0,276794.0,141551.0
2026-04-14 17:10:18.098282,110803,1609504111845948,1711814410,0.981856,-0.054656,-0.044896,-2.86125,-3.43875,7.37625,-18.216002,-21.2,-11.936001,concentric,2,3.0,65653.0,293978.0,126940.0,276794.0,141551.0
2026-04-14 17:10:18.109880,110804,1609504111855267,1711825151,0.981856,-0.054656,-0.044896,-2.14375,-3.2375,6.83375,-18.216002,-21.2,-11.936001,concentric,2,3.0,65653.0,293978.0,126940.0,276794.0,141551.0
2026-04-14 17:10:18.145849,110815,1609504111864297,1711834348,0.970144,-0.130784,-0.13664,-4.34875,-1.09375,4.97875,-18.328001,-20.888,-13.320001,concentric,2,3.0,67171.0,291935.0,129535.0,275142.0,144217.0
2026-04-14 17:10:18.154095,110816,1609504111878891,1711847326,0.970144,-0.130784,-0.13664,-6.335,1.18125,3.36,-18.328001,-20.888,-13.320001,concentric,2,3.0,67171.0,291935.0,129535.0,275142.0,144217.0
2026-04-14 17:10:18.154196,110817,1609504111888166,1711858138,0.921344,-0.119072,-0.304512,-4.68125,2.28375,1.61875,-18.848001,-21.032001,-12.184001,concentric,2,3.0,67171.0,291935.0,129535.0,275142.0,144217.0
2026-04-14 17:10:18.157243,110818,1609504111902740,1711873015,0.948672,-0.093696,-0.011712,-5.81,2.24875,0.16625,-18.688002,-21.432001,-12.104001,concentric,2,3.0,67171.0,291935.0,129535.0,275142.0,144217.0
2026-04-14 17:10:18.166212,110819,1609504111911664,1711881739,0.948672,-0.093696,-0.011712,-9.16125,2.86125,0.27125,-18.688002,-21.432001,-12.104001,concentric,2,3.0,67171.0,291935.0,129535.0,275142.0,144217.0
2026-04-14 17:10:18.176221,110820,1609504111920602,1711890446,0.948672,-0.093696,-0.011712,-11.095,3.2375,-0.72625,-18.688002,-21.432001,-12.104001,concentric,2,3.0,67171.0,291935.0,129535.0,275142.0,144217.0
2026-04-14 17:10:18.188251,110821,1609504111935126,1711905358,0.940864,-0.128832,-0.13664,-12.04875,3.815,-1.3825,-17.552,-21.168001,-11.960001,concentric,2,3.0,67171.0,291935.0,129535.0,275142.0,144217.0
2026-04-14 17:10:18.198337,110822,1609504111944074,1711914071,0.91744,-0.148352,-0.183488,-13.22125,3.5875,-0.875,-19.264002,-20.936,-10.936001,concentric,2,3.0,67171.0,291935.0,129535.0,275142.0,144217.0
2026-04-14 17:10:18.244457,110823,1609504111958590,1711926936,0.91744,-0.148352,-0.183488,-12.03125,2.21375,-0.42,-19.264002,-20.936,-10.936001,concentric,2,3.0,67171.0,291935.0,129535.0,275142.0,144217.0
2026-04-14 17:10:18.296353,110834,1609504111967779,1711937761,0.866688,-0.072224,-0.162016,-9.45,0.37625,0.1925,-17.544,-21.296001,-12.808001,concentric,2,3.0,59455.0,285977.0,119421.0,270703.0,133364.0
2026-04-14 17:10:18.298776,110835,1609504111976783,1711946531,0.866688,-0.072224,-0.162016,-7.62125,-1.46125,0.98,-17.544,-21.296001,-12.808001,concentric,2,3.0,59455.0,285977.0,119421.0,270703.0,133364.0
2026-04-14 17:10:18.323500,110836,1609504111991269,1711961395,0.813984,-0.066368,-0.21472,-9.835,-2.6075,1.89875,-18.624,-21.408,-11.928,concentric,2,3.0,59455.0,285977.0,119421.0,270703.0,133364.0
2026-04-14 17:10:18.339160,110837,1609504112000191,1711970142,0.813984,-0.066368,-0.21472,-11.795,-2.1175,2.91375,-18.624,-21.408,-11.928,concentric,2,3.0,59455.0,285977.0,119421.0,270703.0,133364.0
2026-04-14 17:10:18.339271,110838,1609504112014604,1711982958,0.88816,-0.044896,-0.027328,-13.5625,-1.225,2.52,-18.464,-21.312,-13.128,concentric,2,3.0,59455.0,285977.0,119421.0,270703.0,133364.0
2026-04-14 17:10:18.340619,110839,1609504112023761,1711993678,0.919392,-0.130784,-0.08784,-15.02375,-0.34125,1.8725,-18.560001,-21.056002,-11.400001,concentric,2,3.0,59455.0,285977.0,119421.0,270703.0,133364.0
2026-04-14 17:10:18.343759,110840,1609504112038382,1712008656,0.919392,-0.130784,-0.08784,-14.20125,0.18375,1.49625,-18.560001,-21.056002,-11.400001,concentric,2,3.0,59455.0,285977.0,119421.0,270703.0,133364.0
2026-04-14 17:10:18.345757,110841,1609504112047310,1712017370,0.817888,-0.080032,-0.242048,-11.4975,-0.455,1.54,-18.728,-21.032001,-11.584001,concentric,2,3.0,59455.0,285977.0,119421.0,270703.0,133364.0
2026-04-14 17:10:18.348736,110842,1609504112056251,1712026055,0.817888,-0.080032,-0.242048,-8.05,-2.625,2.2925,-18.728,-21.032001,-11.584001,concentric,2,3.0,59455.0,285977.0,119421.0,270703.0,133364.0
2026-04-14 17:10:18.375955,110853,1609504112070873,1712040931,0.817888,-0.06832,-0.308416,-6.78125,-4.76875,2.5375,-18.624,-21.144001,-12.448001,concentric,2,3.0,53787.0,279778.0,111712.0,265930.0,124986.0
2026-04-14 17:10:18.378856,110854,1609504112079847,1712049583,0.817888,-0.06832,-0.308416,-7.63,-6.81625,3.45625,-18.624,-21.144001,-12.448001,concentric,2,3.0,53787.0,279778.0,111712.0,265930.0,124986.0
2026-04-14 17:10:18.381371,110855,1609504112094473,1712064486,0.798368,-0.080032,-0.091744,-8.8025,-8.5925,5.0575,-17.832,-21.512001,-12.824,concentric,2,3.0,53787.0,279778.0,111712.0,265930.0,124986.0
2026-04-14 17:10:18.383879,110856,1609504112103404,1712073226,0.837408,-0.121024,-0.070272,-9.87875,-10.43,5.67,-18.224,-21.240002,-12.384001,concentric,2,3.0,53787.0,279778.0,111712.0,265930.0,124986.0
2026-04-14 17:10:18.385934,110857,1609504112112439,1712081916,0.837408,-0.121024,-0.070272,-8.81125,-11.34875,4.9525,-18.224,-21.240002,-12.384001,concentric,2,3.0,53787.0,279778.0,111712.0,265930.0,124986.0
2026-04-14 17:10:18.388851,110858,1609504112127093,1712096836,0.81008,-0.144448,-0.355264,-6.04625,-13.48375,5.59125,-17.848001,-20.912,-12.56,concentric,2,3.0,53787.0,279778.0,111712.0,265930.0,124986.0
2026-04-14 17:10:18.391187,110859,1609504112136164,1712105579,0.81008,-0.144448,-0.355264,-3.815,-16.52875,6.79,-17.848001,-20.912,-12.56,concentric,2,3.0,53787.0,279778.0,111712.0,265930.0,124986.0
2026-04-14 17:10:18.405138,110860,1609504112150689,1712120480,0.80032,-0.07808,-0.103456,-3.01,-17.78,8.7675,-18.168001,-21.232,-12.632001,concentric,2,3.0,53787.0,279778.0,111712.0,265930.0,124986.0
2026-04-14 17:10:18.415120,110861,1609504112159624,1712129149,0.80032,-0.07808,-0.103456,-3.54375,-18.655,10.29875,-18.168001,-21.232,-12.632001,concentric,2,3.0,53787.0,279778.0,111712.0,265930.0,124986.0
2026-04-14 17:10:18.448728,110872,1609504112174250,1712144391,0.755424,-0.103456,-0.26352,-4.76,-19.36375,8.61875,-18.632,-20.672,-12.656,concentric,2,3.0,42683.0,256601.0,93944.0,249052.0,105033.0
2026-04-14 17:10:18.450824,110873,1609504112183334,1712153124,0.655872,-0.152256,-0.191296,-6.06375,-20.65,6.86875,-18.088001,-20.960001,-12.848001,concentric,2,3.0,42683.0,256601.0,93944.0,249052.0,105033.0
2026-04-14 17:10:18.453481,110874,1609504112192249,1712161825,0.655872,-0.152256,-0.191296,-4.1475,-22.89875,7.53375,-18.088001,-20.960001,-12.848001,concentric,2,3.0,42683.0,256601.0,93944.0,249052.0,105033.0
2026-04-14 17:10:18.461294,110875,1609504112206785,1712176720,0.677344,-0.167872,-0.3416,2.38875,-26.3725,8.42625,-18.096,-20.608002,-13.408001,concentric,2,3.0,42683.0,256601.0,93944.0,249052.0,105033.0
2026-04-14 17:10:18.470825,110876,1609504112215734,1712185396,0.677344,-0.167872,-0.3416,11.025,-31.66625,9.4675,-18.096,-20.608002,-13.408001,concentric,2,3.0,42683.0,256601.0,93944.0,249052.0,105033.0
2026-04-14 17:10:18.483858,110877,1609504112230208,1712200325,0.730048,-0.122976,-0.335744,16.07375,-38.96375,10.54375,-17.880001,-20.400002,-12.896001,concentric,2,3.0,42683.0,256601.0,93944.0,249052.0,105033.0
2026-04-14 17:10:18.493901,110878,1609504112239119,1712209001,0.730048,-0.122976,-0.335744,11.78625,-44.607502,12.73125,-17.880001,-20.400002,-12.896001,concentric,2,3.0,42683.0,256601.0,93944.0,249052.0,105033.0
2026-04-14 17:10:18.510145,110879,1609504112253641,1712223894,0.733952,-0.06832,0.05856,3.75375,-46.36625,18.20875,-18.784,-19.904001,-12.872001,concentric,2,3.0,42683.0,256601.0,93944.0,249052.0,105033.0
2026-04-14 17:10:18.519587,110880,1609504112262540,1712232552,0.733952,-0.06832,0.05856,-0.72625,-47.94125,21.00875,-18.784,-19.904001,-12.872001,concentric,2,3.0,42683.0,256601.0,93944.0,249052.0,105033.0
2026-04-14 17:10:18.548563,110891,1609504112271730,1712241343,0.60512,-0.121024,0.003904,-2.1875,-51.33625,16.2225,-18.6,-19.832,-15.040001,concentric,2,3.0,33621.0,207436.0,77520.0,208510.0,86605.0
2026-04-14 17:10:18.551220,110892,1609504112286293,1712256272,0.679296,-0.210816,-0.374784,1.65375,-56.14,13.74625,-18.808,-19.256,-13.440001,concentric,2,3.0,33621.0,207436.0,77520.0,208510.0,86605.0
2026-04-14 17:10:18.553753,110893,1609504112295240,1712264970,0.679296,-0.210816,-0.374784,4.375,-62.02,16.79125,-18.808,-19.256,-13.440001,concentric,2,3.0,33621.0,207436.0,77520.0,208510.0,86605.0
2026-04-14 17:10:18.565161,110894,1609504112309740,1712279904,0.778848,-0.103456,-0.052704,0.04375,-66.56125,23.345,-18.728,-18.92,-13.264001,concentric,2,3.0,33621.0,207436.0,77520.0,208510.0,86605.0
2026-04-14 17:10:18.573544,110895,1609504112318682,1712288643,0.778848,-0.103456,-0.052704,-1.37375,-65.5725,30.7475,-18.728,-18.92,-13.264001,concentric,2,3.0,33621.0,207436.0,77520.0,208510.0,86605.0
2026-04-14 17:10:18.598882,110896,1609504112327716,1712297353,0.657824,0.001952,0.021472,2.56375,-58.625,28.56,-17.752,-18.608002,-14.144001,concentric,2,3.0,33621.0,207436.0,77520.0,208510.0,86605.0
2026-04-14 17:10:18.623521,110897,1609504112342167,1712312231,0.657824,0.001952,0.021472,3.00125,-52.15875,14.5775,-17.752,-18.608002,-14.144001,concentric,2,3.0,33621.0,207436.0,77520.0,208510.0,86605.0
2026-04-14 17:10:18.633860,110898,1609504112351081,1712320901,0.642208,-0.226432,-0.396256,-2.7825,-52.15875,1.53125,-19.008001,-18.376001,-13.256001,concentric,2,3.0,33621.0,207436.0,77520.0,208510.0,86605.0
2026-04-14 17:10:18.636301,110899,1609504112365541,1712335754,0.769088,-0.179584,-0.290848,-15.9425,-57.3475,2.3275,-18.872002,-18.552,-15.456,concentric,2,3.0,33621.0,207436.0,77520.0,208510.0,86605.0
2026-04-14 17:10:18.666389,110910,1609504112374577,1712344466,0.769088,-0.179584,-0.290848,-17.52625,-60.095,15.1025,-18.872002,-18.552,-15.456,concentric,2,3.0,29567.0,185737.0,69637.0,187543.0,78424.0
2026-04-14 17:10:18.668851,110911,1609504112389120,1712359411,0.778848,-0.220576,-0.372832,-15.68875,-62.3525,18.73375,-17.624,-18.208,-15.152,concentric,2,3.0,29567.0,185737.0,69637.0,187543.0,78424.0
2026-04-14 17:10:18.671349,110912,1609504112398056,1712368105,0.778848,-0.220576,-0.372832,-21.18375,-63.525,15.846251,-17.624,-18.208,-15.152,concentric,2,3.0,29567.0,185737.0,69637.0,187543.0,78424.0
2026-04-14 17:10:18.673520,110913,1609504112407035,1712376799,0.80032,-0.32208,-0.251808,-13.95625,-55.46625,16.345,-17.624,-17.792002,-15.232,concentric,2,3.0,29567.0,185737.0,69637.0,187543.0,78424.0
2026-04-14 17:10:18.678878,110914,1609504112421518,1712391668,0.80032,-0.32208,-0.251808,-5.97625,-48.8775,12.85375,-17.624,-17.792002,-15.232,concentric,2,3.0,29567.0,185737.0,69637.0,187543.0,78424.0
2026-04-14 17:10:18.683874,110915,1609504112430465,1712400369,0.622688,-0.105408,-0.396256,-2.24,-54.3025,14.27125,-17.592001,-17.632,-15.392001,concentric,2,3.0,29567.0,185737.0,69637.0,187543.0,78424.0
2026-04-14 17:10:18.697645,110916,1609504112444938,1712413282,0.730048,-0.171776,-0.396256,-2.2225,-55.825,15.75,-17.592001,-17.312,-18.016,concentric,2,3.0,29567.0,185737.0,69637.0,187543.0,78424.0
2026-04-14 17:10:18.708457,110917,1609504112454122,1712424028,0.730048,-0.171776,-0.396256,-15.65375,-65.73875,18.43625,-17.344002,-17.312,-18.016,concentric,2,3.0,29567.0,185737.0,69637.0,187543.0,78424.0
2026-04-14 17:10:18.746325,110928,1609504112468638,1712438969,0.782752,-0.16592,-0.40992,-25.025,-64.32125,23.30125,-16.768002,-17.240002,-17.056002,concentric,2,3.0,45475.0,198780.0,98072.0,197170.0,111382.0
2026-04-14 17:10:18.748643,110929,1609504112478114,1712447717,0.782752,-0.16592,-0.40992,-36.82,-62.36125,17.54375,-16.768002,-17.240002,-17.056002,concentric,2,3.0,45475.0,198780.0,98072.0,197170.0,111382.0
2026-04-14 17:10:18.750903,110930,1609504112487153,1712456527,0.854976,-0.286944,-0.417728,-20.8075,-57.58375,29.11125,-16.112001,-16.784,-17.104,concentric,2,3.0,45475.0,198780.0,98072.0,197170.0,111382.0
2026-04-14 17:10:18.766085,110931,1609504112501673,1712471418,0.854976,-0.286944,-0.417728,-8.575,-41.5625,35.97125,-16.112001,-16.784,-17.104,concentric,2,3.0,45475.0,198780.0,98072.0,197170.0,111382.0
2026-04-14 17:10:18.768307,110932,1609504112510570,1712480163,0.72224,-0.26352,-0.335744,3.7275,-33.635,14.1575,-16.072,-16.272001,-17.384,concentric,2,3.0,45475.0,198780.0,98072.0,197170.0,111382.0
2026-04-14 17:10:18.778900,110933,1609504112525066,1712495142,0.56608,-0.042944,-0.65392,27.755001,-30.94875,-2.45,-16.072,-16.272001,-17.384,concentric,2,3.0,45475.0,198780.0,98072.0,197170.0,111382.0
2026-04-14 17:10:18.789748,110934,1609504112534340,1712503866,0.57584,-0.042944,-0.65392,43.68875,-33.31125,-10.85,-15.936001,-15.840001,-17.712,concentric,2,3.0,45475.0,198780.0,98072.0,197170.0,111382.0
2026-04-14 17:10:18.800862,110935,1609504112543260,1712512567,0.57584,-0.042944,-0.65392,25.87375,-40.88,-12.85375,-15.936001,-15.840001,-17.712,concentric,2,3.0,45475.0,198780.0,98072.0,197170.0,111382.0
2026-04-14 17:10:18.812603,110936,1609504112557783,1712527462,0.743712,-0.021472,-0.511424,-4.2175,-35.857502,3.17625,-16.6,-15.296001,-18.312,concentric,2,3.0,45475.0,198780.0,98072.0,197170.0,111382.0
2026-04-14 17:10:18.820029,110937,1609504112566727,1712536184,0.763232,-0.210816,-0.144448,-18.47125,-23.5725,16.765,-17.240002,-14.920001,-17.008001,concentric,2,3.0,45475.0,198780.0,98072.0,197170.0,111382.0
2026-04-14 17:10:18.851017,110949,1609504112581374,1712551148,0.763232,-0.210816,-0.144448,-14.91875,-17.91125,7.41125,-17.240002,-14.920001,-17.008001,concentric,2,3.0,56704.0,194587.0,115935.0,191347.0,130015.0
2026-04-14 17:10:18.853472,110950,1609504112590373,1712559859,0.671488,-0.244,-0.3904,-0.7875,-14.245,-2.21375,-15.312,-14.320001,-17.864,concentric,2,3.0,56704.0,194587.0,115935.0,191347.0,130015.0
2026-04-14 17:10:18.856033,110951,1609504112599439,1712568598,0.671488,-0.244,-0.3904,9.31875,-14.105001,-0.72625,-15.312,-14.320001,-17.864,concentric,2,3.0,56704.0,194587.0,115935.0,191347.0,130015.0
2026-04-14 17:10:18.867628,110952,1609504112613912,1712583482,0.667584,-0.0488,-0.398208,10.3425,-19.32875,2.75625,-14.984001,-13.832001,-17.848001,concentric,2,3.0,56704.0,194587.0,115935.0,191347.0,130015.0
2026-04-14 17:10:18.879797,110953,1609504112622853,1712592162,0.667584,-0.0488,-0.398208,2.275,-22.54,6.27375,-14.984001,-13.832001,-17.848001,concentric,2,3.0,56704.0,194587.0,115935.0,191347.0,130015.0
2026-04-14 17:10:18.893411,110954,1609504112637314,1712607081,0.730048,0.040992,-0.402112,-14.56875,-20.79,16.40625,-15.272,-13.224001,-16.84,concentric,2,3.0,56704.0,194587.0,115935.0,191347.0,130015.0
2026-04-14 17:10:18.901315,110955,1609504112646232,1712615778,0.730048,-0.093696,-0.521184,-35.56875,-10.3075,14.665,-15.880001,-13.568001,-17.032001,concentric,2,3.0,56704.0,194587.0,115935.0,191347.0,130015.0
2026-04-14 17:10:18.916348,110956,1609504112660729,1712630739,0.730048,-0.093696,-0.521184,-52.52625,-10.24625,4.095,-15.880001,-13.568001,-17.032001,concentric,2,3.0,56704.0,194587.0,115935.0,191347.0,130015.0
2026-04-14 17:10:19.020983,110967,1609504112669631,1712639406,0.601216,-0.320128,-0.513376,-55.43125,-8.33,10.80625,-15.528001,-13.216001,-17.720001,eccentric,2,3.0,56555.0,190314.0,115202.0,186506.0,129377.0
2026-04-14 17:10:19.025860,110968,1609504112678938,1712648127,0.601216,-0.320128,-0.513376,-43.60125,-7.77,17.955,-15.528001,-13.216001,-17.720001,eccentric,2,3.0,56555.0,190314.0,115202.0,186506.0,129377.0
2026-04-14 17:10:19.028280,110969,1609504112693536,1712663047,0.774944,-0.052704,-0.603168,-36.54,-6.3875,12.2325,-15.664001,-12.592001,-16.792002,eccentric,2,3.0,56555.0,190314.0,115202.0,186506.0,129377.0
2026-04-14 17:10:19.041190,110970,1609504112702435,1712671710,0.774944,-0.052704,-0.603168,-37.8,-10.167501,-1.225,-15.664001,-12.592001,-16.792002,eccentric,2,3.0,56555.0,190314.0,115202.0,186506.0,129377.0
2026-04-14 17:10:19.041502,110971,1609504112716898,1712686564,0.9272,-0.017568,-0.589504,-34.86875,-8.58375,3.395,-15.840001,-11.928,-16.112001,eccentric,2,3.0,56555.0,190314.0,115202.0,186506.0,129377.0
2026-04-14 17:10:19.041687,110972,1609504112725828,1712695300,0.9272,-0.017568,-0.480192,-41.67625,0.63875,7.945,-15.840001,-11.928,-16.112001,eccentric,2,3.0,56555.0,190314.0,115202.0,186506.0,129377.0
2026-04-14 17:10:19.041879,110973,1609504112740269,1712710186,0.856928,-0.121024,-0.47824,-49.175,6.1075,-0.07,-16.264,-11.72,-14.936001,eccentric,2,3.0,56555.0,190314.0,115202.0,186506.0,129377.0
2026-04-14 17:10:19.042052,110974,1609504112749230,1712718894,0.821792,-0.216672,-0.552416,-47.5125,15.98625,-3.955,-16.488,-11.656,-15.240001,eccentric,2,3.0,56555.0,190314.0,115202.0,186506.0,129377.0
2026-04-14 17:10:19.043466,110975,1609504112758218,1712727565,0.821792,-0.216672,-0.552416,-33.74875,21.35,-7.88375,-16.488,-11.656,-15.240001,eccentric,2,3.0,56555.0,190314.0,115202.0,186506.0,129377.0
2026-04-14 17:10:19.071100,110986,1609504112772929,1712742505,0.841312,-0.062464,-0.689056,-12.74,23.31,-9.0825,-16.864,-11.144,-16.320002,eccentric,2,3.0,44719.0,183178.0,97641.0,181078.0,111401.0
2026-04-14 17:10:19.075977,110987,1609504112781936,1712751208,0.841312,-0.062464,-0.689056,-1.77625,24.78,-7.16625,-16.864,-11.144,-16.320002,eccentric,2,3.0,44719.0,183178.0,97641.0,181078.0,111401.0
2026-04-14 17:10:19.076515,110988,1609504112796440,1712766177,1.061888,0.040992,-0.528992,-1.68875,25.13,-6.55375,-16.232,-11.112,-15.776001,eccentric,2,3.0,44719.0,183178.0,97641.0,181078.0,111401.0
2026-04-14 17:10:19.082699,110989,1609504112805401,1712774923,1.061888,0.040992,-0.528992,-6.90375,30.03875,-10.03625,-16.232,-11.112,-15.776001,eccentric,2,3.0,44719.0,183178.0,97641.0,181078.0,111401.0
2026-04-14 17:10:19.084287,110990,1609504112814333,1712783624,1.09312,-0.101504,-0.642208,-23.4675,35.1575,-20.3,-16.52,-10.536,-16.184,eccentric,2,3.0,44719.0,183178.0,97641.0,181078.0,111401.0
2026-04-14 17:10:19.085756,110991,1609504112828848,1712798524,1.001376,-0.121024,-0.5856,-34.30875,46.05125,-22.65375,-16.68,-10.88,-14.616001,eccentric,2,3.0,44719.0,183178.0,97641.0,181078.0,111401.0
2026-04-14 17:10:19.090752,110992,1609504112837850,1712807207,1.001376,-0.121024,-0.5856,-36.39125,56.35875,-29.40875,-16.68,-10.88,-14.616001,eccentric,2,3.0,44719.0,183178.0,97641.0,181078.0,111401.0
2026-04-14 17:10:19.105832,110993,1609504112852313,1712822119,1.0248,0.0488,-0.755424,-31.5,53.89125,-36.155,-16.632,-10.416,-16.016,eccentric,2,3.0,44719.0,183178.0,97641.0,181078.0,111401.0
2026-04-14 17:10:19.117047,110994,1609504112861234,1712830804,1.0248,0.0488,-0.755424,-17.3775,54.32,-34.3175,-16.632,-10.416,-16.016,eccentric,2,3.0,44719.0,183178.0,97641.0,181078.0,111401.0
2026-04-14 17:10:19.148380,111005,1609504112875847,1712846049,1.184864,0.02928,-0.626592,-3.2025,52.59625,-36.5575,-16.584002,-10.816001,-15.728001,eccentric,2,3.0,41216.0,182132.0,91860.0,181033.0,104506.0
2026-04-14 17:10:19.151022,111006,1609504112884817,1712854782,1.184864,0.02928,-0.626592,-13.965,62.2825,-52.5,-16.584002,-10.816001,-15.728001,eccentric,2,3.0,41216.0,182132.0,91860.0,181033.0,104506.0
2026-04-14 17:10:19.153575,111007,1609504112893755,1712863520,1.157536,-0.199104,-0.681248,-26.145,64.8725,-56.9275,-16.576,-10.496,-15.688001,eccentric,2,3.0,41216.0,182132.0,91860.0,181033.0,104506.0
2026-04-14 17:10:19.163493,111008,1609504112908268,1712878391,1.022848,-0.007808,-0.519232,-21.5075,66.91125,-37.9225,-16.952002,-10.952001,-13.480001,eccentric,2,3.0,41216.0,182132.0,91860.0,181033.0,104506.0
2026-04-14 17:10:19.173973,111009,1609504112917201,1712887149,1.022848,-0.007808,-0.519232,-15.49625,67.3575,-35.105,-16.952002,-10.952001,-13.480001,eccentric,2,3.0,41216.0,182132.0,91860.0,181033.0,104506.0
2026-04-14 17:10:19.188381,111010,1609504112931710,1712902047,1.20048,0.0,-0.589504,-4.4625,60.0075,-37.02125,-16.984001,-10.736,-15.080001,eccentric,2,3.0,41216.0,182132.0,91860.0,181033.0,104506.0
2026-04-14 17:10:19.194682,111011,1609504112940631,1712910721,1.20048,0.0,-0.589504,-2.205,51.40625,-36.63625,-16.984001,-10.736,-15.080001,eccentric,2,3.0,41216.0,182132.0,91860.0,181033.0,104506.0
2026-04-14 17:10:19.209646,111012,1609504112955118,1712923532,1.309792,-0.025376,-0.597312,-7.95375,48.29125,-39.87375,-18.264,-10.352,-14.64,eccentric,2,3.0,41216.0,182132.0,91860.0,181033.0,104506.0
2026-04-14 17:10:19.218545,111013,1609504112964339,1712934244,1.309792,-0.025376,-0.597312,-7.23625,46.15625,-44.065,-18.264,-10.352,-14.64,eccentric,2,3.0,41216.0,182132.0,91860.0,181033.0,104506.0
2026-04-14 17:10:19.252367,111024,1609504112973915,1712942967,1.159488,-0.056608,-0.681248,-0.67375,44.135,-45.28125,-16.784,-10.824,-14.552001,eccentric,2,3.0,39280.0,184578.0,87008.0,183377.0,98720.0
2026-04-14 17:10:19.254793,111025,1609504112988436,1712957861,1.223904,-0.101504,-0.452864,0.9275,39.97,-49.0,-17.272001,-10.768001,-11.952001,eccentric,2,3.0,39280.0,184578.0,87008.0,183377.0,98720.0
2026-04-14 17:10:19.257350,111026,1609504112997395,1712966558,1.223904,-0.101504,-0.452864,2.9925,32.0075,-45.465,-17.272001,-10.768001,-11.952001,eccentric,2,3.0,39280.0,184578.0,87008.0,183377.0,98720.0
2026-04-14 17:10:19.270138,111027,1609504113011998,1712981449,1.15168,-0.050752,-0.66368,3.43,25.0425,-36.68875,-17.68,-11.000001,-13.456,eccentric,2,3.0,39280.0,184578.0,87008.0,183377.0,98720.0
2026-04-14 17:10:19.275401,111028,1609504113020897,1712990159,1.15168,-0.050752,-0.66368,9.89625,21.04375,-32.64625,-17.68,-11.000001,-13.456,eccentric,2,3.0,39280.0,184578.0,87008.0,183377.0,98720.0
2026-04-14 17:10:19.284646,111029,1609504113029833,1712998838,1.091168,-0.044896,-0.620736,17.2375,18.095,-32.0775,-17.336,-11.072001,-13.392,eccentric,2,3.0,39280.0,184578.0,87008.0,183377.0,98720.0
2026-04-14 17:10:19.299737,111030,1609504113044317,1713013688,1.091168,-0.044896,-0.620736,22.715,17.22875,-31.0625,-17.336,-11.072001,-13.392,eccentric,2,3.0,39280.0,184578.0,87008.0,183377.0,98720.0
2026-04-14 17:10:19.305986,111031,1609504113053247,1713022396,1.079456,-0.017568,-0.435296,23.82625,15.627501,-28.42,-17.480001,-10.872001,-14.360001,eccentric,2,3.0,39280.0,184578.0,87008.0,183377.0,98720.0
2026-04-14 17:10:19.343875,111032,1609504113067744,1713037264,1.079456,-0.017568,-0.435296,26.66125,14.525,-23.345,-17.480001,-10.872001,-14.360001,eccentric,2,3.0,39280.0,184578.0,87008.0,183377.0,98720.0
2026-04-14 17:10:19.386234,111043,1609504113076756,1713046021,1.026752,-0.062464,-0.41968,27.1075,11.85625,-19.11875,-16.664001,-10.784,-15.088,eccentric,2,3.0,40108.0,188850.0,88174.0,187847.0,99865.0
2026-04-14 17:10:19.388748,111044,1609504113091212,1713060912,0.99552,0.021472,-0.296704,25.4275,12.52125,-9.8525,-17.84,-10.68,-13.280001,eccentric,2,3.0,40108.0,188850.0,88174.0,187847.0,99865.0
2026-04-14 17:10:19.393835,111045,1609504113100175,1713069654,0.99552,0.021472,-0.296704,21.6825,14.735,-4.66375,-17.84,-10.68,-13.280001,eccentric,2,3.0,40108.0,188850.0,88174.0,187847.0,99865.0
2026-04-14 17:10:19.396326,111046,1609504113109107,1713078337,0.950624,-0.021472,-0.374784,19.46875,16.6075,-3.01875,-17.84,-10.144,-12.984,eccentric,2,3.0,40108.0,188850.0,88174.0,187847.0,99865.0
2026-04-14 17:10:19.398802,111047,1609504113123607,1713093242,0.950624,-0.021472,-0.374784,19.04,17.3425,2.47625,-17.616001,-10.144,-12.984,eccentric,2,3.0,40108.0,188850.0,88174.0,187847.0,99865.0
2026-04-14 17:10:19.401356,111048,1609504113132725,1713101924,1.001376,-0.01952,-0.269376,19.99375,17.745,6.83375,-18.656,-10.040001,-12.112,eccentric,2,3.0,40108.0,188850.0,88174.0,187847.0,99865.0
2026-04-14 17:10:19.403831,111049,1609504113147172,1713116861,1.001376,-0.01952,-0.269376,25.803751,17.7275,6.20375,-18.656,-10.040001,-12.112,eccentric,2,3.0,40108.0,188850.0,88174.0,187847.0,99865.0
2026-04-14 17:10:19.410132,111050,1609504113156098,1713125549,0.872544,0.128832,-0.357216,29.067501,16.065,6.2825,-18.6,-10.128,-12.200001,eccentric,2,3.0,40108.0,188850.0,88174.0,187847.0,99865.0
2026-04-14 17:10:19.426374,111051,1609504113170634,1713140439,0.938912,0.0,-0.140544,23.7475,15.81125,7.315,-17.44,-10.472,-13.76,eccentric,2,3.0,40108.0,188850.0,88174.0,187847.0,99865.0
2026-04-14 17:10:19.454435,111062,1609504113179650,1713149212,0.938912,0.0,-0.140544,12.285,14.4725,7.805,-17.44,-10.472,-13.76,eccentric,2,3.0,42005.0,196791.0,91319.0,195575.0,103267.0
2026-04-14 17:10:19.458779,111063,1609504113188631,1713157921,0.938912,0.0,-0.140544,4.2875,13.0725,12.9325,-17.44,-10.472,-13.76,eccentric,2,3.0,42005.0,196791.0,91319.0,195575.0,103267.0
2026-04-14 17:10:19.460874,111064,1609504113203131,1713172854,0.948672,-0.027328,-0.318176,4.45375,11.165,15.8375,-18.008001,-10.592001,-14.248001,eccentric,2,3.0,42005.0,196791.0,91319.0,195575.0,103267.0
2026-04-14 17:10:19.466239,111065,1609504113212053,1713181549,0.933056,0.085888,-0.36112,9.84375,10.45625,18.52375,-18.408,-9.912001,-13.024,eccentric,2,3.0,42005.0,196791.0,91319.0,195575.0,103267.0
2026-04-14 17:10:19.482526,111066,1609504113226531,1713196486,0.933056,0.085888,-0.36112,15.995,9.00375,19.0575,-18.408,-9.912001,-13.024,eccentric,2,3.0,42005.0,196791.0,91319.0,195575.0,103267.0
2026-04-14 17:10:19.489617,111067,1609504113235429,1713205154,0.997472,0.050752,-0.245952,15.25125,5.5825,17.115,-18.12,-10.184,-13.240001,eccentric,2,3.0,42005.0,196791.0,91319.0,195575.0,103267.0
2026-04-14 17:10:19.500115,111068,1609504113244403,1713213841,0.997472,0.050752,-0.245952,2.70375,2.91375,16.8875,-18.12,-10.184,-13.240001,eccentric,2,3.0,42005.0,196791.0,91319.0,195575.0,103267.0
2026-04-14 17:10:19.512613,111069,1609504113258859,1713228759,0.931104,-0.027328,-0.265472,-6.67625,0.28875,16.8875,-18.36,-10.280001,-13.984,eccentric,2,3.0,42005.0,196791.0,91319.0,195575.0,103267.0
2026-04-14 17:10:19.523497,111070,1609504113267774,1713237480,0.931104,-0.027328,-0.265472,-8.07625,-2.1,14.49875,-18.36,-10.280001,-13.984,eccentric,2,3.0,42005.0,196791.0,91319.0,195575.0,103267.0
2026-04-14 17:10:19.553584,111081,1609504113282699,1713252473,0.925248,-0.01952,-0.40992,-3.17625,-3.68375,16.555,-17.376001,-10.432,-13.488001,eccentric,2,3.0,41873.0,194511.0,91073.0,193341.0,102961.0
2026-04-14 17:10:19.555965,111082,1609504113291669,1713261168,0.933056,0.031232,-0.365024,3.045,-3.92875,17.1325,-17.376001,-10.440001,-14.096001,eccentric,2,3.0,41873.0,194511.0,91073.0,193341.0,102961.0
2026-04-14 17:10:19.561227,111083,1609504113306193,1713276074,0.933056,0.031232,-0.365024,6.67625,-6.6325,17.24625,-17.376001,-10.440001,-14.096001,eccentric,2,3.0,41873.0,194511.0,91073.0,193341.0,102961.0
2026-04-14 17:10:19.568366,111084,1609504113315141,1713284753,0.970144,-0.052704,-0.230336,1.63625,-6.65875,20.01125,-17.904001,-10.152,-13.288001,eccentric,2,3.0,41873.0,194511.0,91073.0,193341.0,102961.0
2026-04-14 17:10:19.578810,111085,1609504113324066,1713293424,0.970144,-0.052704,-0.230336,-4.33125,-8.14625,17.43875,-17.904001,-10.152,-13.288001,eccentric,2,3.0,41873.0,194511.0,91073.0,193341.0,102961.0
2026-04-14 17:10:19.608389,111086,1609504113338526,1713308278,0.964288,-0.06832,-0.27328,-7.42875,-8.925,16.63375,-17.720001,-10.616,-14.256001,eccentric,2,3.0,41873.0,194511.0,91073.0,193341.0,102961.0
2026-04-14 17:10:19.611401,111087,1609504113347439,1713317017,0.964288,-0.06832,-0.27328,-5.6,-10.6925,14.6475,-17.720001,-10.616,-14.256001,eccentric,2,3.0,41873.0,194511.0,91073.0,193341.0,102961.0
2026-04-14 17:10:19.617625,111088,1609504113361917,1713331899,0.970144,-0.17568,-0.376736,0.55125,-10.4475,15.09375,-17.480001,-10.904,-14.504001,eccentric,2,3.0,41873.0,194511.0,91073.0,193341.0,102961.0
2026-04-14 17:10:19.626003,111089,1609504113370874,1713340583,0.962336,-0.080032,-0.384544,7.1575,-10.42125,16.70375,-18.512001,-10.472,-12.408001,eccentric,2,3.0,41873.0,194511.0,91073.0,193341.0,102961.0
2026-04-14 17:10:19.653154,111100,1609504113385495,1713355559,0.962336,-0.080032,-0.384544,9.82625,-10.535,17.45625,-18.512001,-10.472,-12.408001,eccentric,2,3.0,42002.0,190181.0,91383.0,189682.0,103280.0
2026-04-14 17:10:19.655650,111101,1609504113394461,1713364265,1.046272,-0.046848,-0.2928,10.54375,-13.04625,19.32875,-17.896,-10.696,-13.984,eccentric,2,3.0,42002.0,190181.0,91383.0,189682.0,103280.0
2026-04-14 17:10:19.658800,111102,1609504113403424,1713372977,1.046272,-0.046848,-0.2928,6.7025,-15.0675,21.04375,-17.896,-10.696,-13.984,eccentric,2,3.0,42002.0,190181.0,91383.0,189682.0,103280.0
2026-04-14 17:10:19.673383,111103,1609504113417874,1713387864,1.114592,-0.021472,-0.275232,0.37625,-18.05125,20.4925,-18.248001,-10.552,-13.552001,eccentric,2,3.0,42002.0,190181.0,91383.0,189682.0,103280.0
2026-04-14 17:10:19.704263,111104,1609504113426774,1713396533,1.114592,-0.021472,-0.275232,-3.84125,-20.51,20.74625,-18.248001,-10.552,-13.552001,eccentric,2,3.0,42002.0,190181.0,91383.0,189682.0,103280.0
2026-04-14 17:10:19.728543,111105,1609504113441253,1713411412,1.108736,-0.158112,-0.466528,-5.32875,-24.6575,19.39875,-17.328001,-10.68,-14.296001,eccentric,2,3.0,42002.0,190181.0,91383.0,189682.0,103280.0
2026-04-14 17:10:19.732871,111106,1609504113450170,1713420137,1.108736,-0.158112,-0.466528,-3.01875,-28.7875,19.13625,-17.328001,-10.68,-14.296001,eccentric,2,3.0,42002.0,190181.0,91383.0,189682.0,103280.0
2026-04-14 17:10:19.733148,111107,1609504113464667,1713433013,1.134112,-0.08784,-0.238144,2.73,-32.445,18.97875,-18.544,-10.824,-13.496,eccentric,2,3.0,42002.0,190181.0,91383.0,189682.0,103280.0
2026-04-14 17:10:19.761296,111118,1609504113473818,1713443789,1.124352,-0.154208,-0.437248,7.55125,-33.43375,19.34625,-18.296001,-10.440001,-13.744,eccentric,2,3.0,40424.0,184834.0,88435.0,184220.0,100236.0
2026-04-14 17:10:19.763799,111119,1609504113483186,1713452579,1.124352,-0.154208,-0.437248,13.62375,-32.87375,20.20375,-18.296001,-10.440001,-13.744,eccentric,2,3.0,40424.0,184834.0,88435.0,184220.0,100236.0
2026-04-14 17:10:19.766327,111120,1609504113497865,1713467769,1.130208,-0.138592,-0.300608,18.1825,-31.61375,21.11375,-18.240002,-10.856001,-12.440001,eccentric,2,3.0,40424.0,184834.0,88435.0,184220.0,100236.0
2026-04-14 17:10:19.768890,111121,1609504113506796,1713476471,1.130208,-0.138592,-0.300608,20.9475,-30.66875,21.93625,-18.240002,-10.856001,-12.440001,eccentric,2,3.0,40424.0,184834.0,88435.0,184220.0,100236.0
2026-04-14 17:10:19.776397,111122,1609504113521298,1713491354,1.136064,-0.160064,-0.255712,22.82,-30.975,20.8075,-18.552,-10.488001,-13.296001,eccentric,2,3.0,40424.0,184834.0,88435.0,184220.0,100236.0
2026-04-14 17:10:19.786364,111123,1609504113530248,1713500095,1.136064,-0.160064,-0.255712,25.147501,-31.272501,21.21875,-18.552,-10.488001,-13.296001,eccentric,2,3.0,40424.0,184834.0,88435.0,184220.0,100236.0
2026-04-14 17:10:19.792123,111124,1609504113539248,1713508797,1.059936,-0.158112,-0.386496,24.22875,-29.155,26.880001,-18.232,-10.728001,-15.032001,eccentric,2,3.0,40424.0,184834.0,88435.0,184220.0,100236.0
2026-04-14 17:10:19.808430,111125,1609504113553793,1713523680,1.071648,-0.179584,-0.45872,19.13625,-27.13375,31.52625,-17.152,-10.88,-15.720001,eccentric,2,3.0,40424.0,184834.0,88435.0,184220.0,100236.0
2026-04-14 17:10:19.817366,111126,1609504113562729,1713532365,1.071648,-0.179584,-0.45872,11.96125,-23.26625,30.98375,-17.152,-10.88,-15.720001,eccentric,2,3.0,40424.0,184834.0,88435.0,184220.0,100236.0
2026-04-14 17:10:19.853642,111137,1609504113577286,1713545702,1.042368,-0.22448,-0.404064,8.4,-19.34625,28.0875,-17.176,-11.120001,-15.6,eccentric,2,3.0,40298.0,183987.0,88084.0,183439.0,99747.0
2026-04-14 17:10:19.855825,111138,1609504113586649,1713556580,1.042368,-0.22448,-0.404064,8.9775,-18.4975,22.2425,-17.176,-11.120001,-15.6,eccentric,2,3.0,40298.0,183987.0,88084.0,183439.0,99747.0
2026-04-14 17:10:19.858370,111139,1609504113595579,1713565317,0.991616,-0.169824,-0.530944,10.99875,-17.59625,22.925,-18.152,-10.976001,-14.656001,eccentric,2,3.0,40298.0,183987.0,88084.0,183439.0,99747.0
2026-04-14 17:10:19.866282,111140,1609504113610150,1713580227,0.991616,-0.169824,-0.530944,11.2,-16.98375,21.48125,-18.152,-10.976001,-14.656001,eccentric,2,3.0,40298.0,183987.0,88084.0,183439.0,99747.0
2026-04-14 17:10:19.873288,111141,1609504113619096,1713588923,1.020896,-0.18544,-0.327936,5.495,-15.95125,19.88,-18.152,-11.368001,-14.240001,eccentric,2,3.0,40298.0,183987.0,88084.0,183439.0,99747.0
2026-04-14 17:10:19.887626,111142,1609504113633650,1713603819,0.989664,-0.17568,-0.33184,4.4625,-13.475,19.985,-17.808,-11.480001,-15.280001,eccentric,2,3.0,40298.0,183987.0,88084.0,183439.0,99747.0
2026-04-14 17:10:19.897636,111143,1609504113642695,1713612521,0.989664,-0.17568,-0.33184,9.93125,-11.042501,16.9925,-17.808,-11.480001,-15.280001,eccentric,2,3.0,40298.0,183987.0,88084.0,183439.0,99747.0
2026-04-14 17:10:19.913821,111144,1609504113657173,1713627399,0.93696,-0.081984,-0.499712,14.455,-8.33,12.4425,-17.68,-11.896001,-16.256,eccentric,2,3.0,40298.0,183987.0,88084.0,183439.0,99747.0
2026-04-14 17:10:19.922759,111145,1609504113666095,1713636056,0.93696,-0.081984,-0.499712,15.190001,-6.5975,7.84875,-17.68,-11.896001,-16.256,eccentric,2,3.0,40298.0,183987.0,88084.0,183439.0,99747.0
2026-04-14 17:10:19.953830,111156,1609504113675117,1713644742,0.993568,-0.103456,-0.245952,8.9425,-3.115,0.70875,-17.392,-12.592001,-16.36,eccentric,2,3.0,39522.0,184564.0,86684.0,183780.0,98049.0
2026-04-14 17:10:19.955842,111157,1609504113690175,1713659688,0.993568,-0.103456,-0.245952,6.5275,-2.31875,-4.90875,-17.392,-12.592001,-16.36,eccentric,2,3.0,39522.0,184564.0,86684.0,183780.0,98049.0
2026-04-14 17:10:19.958870,111158,1609504113699143,1713668411,0.976,-0.128832,-0.269376,5.31125,0.21,-13.27375,-17.392,-12.744,-17.368,eccentric,2,3.0,39522.0,184564.0,86684.0,183780.0,98049.0
2026-04-14 17:10:19.968866,111159,1609504113713661,1713683307,0.880352,-0.183488,-0.421632,10.05375,-0.27125,-16.89625,-17.008001,-13.496,-17.256,eccentric,2,3.0,39522.0,184564.0,86684.0,183780.0,98049.0
2026-04-14 17:10:19.977632,111160,1609504113722658,1713692021,0.880352,-0.183488,-0.421632,13.78125,3.87625,-18.31375,-17.008001,-13.496,-17.256,eccentric,2,3.0,39522.0,184564.0,86684.0,183780.0,98049.0
2026-04-14 17:10:19.985140,111161,1609504113731635,1713700793,0.880352,-0.183488,-0.421632,13.20375,5.95,-22.645,-17.008001,-13.496,-17.256,eccentric,2,3.0,39522.0,184564.0,86684.0,183780.0,98049.0
2026-04-14 17:10:20.001461,111162,1609504113746117,1713715676,0.874496,-0.150304,-0.550464,14.2975,7.56,-22.28625,-17.92,-13.392,-16.776001,eccentric,2,3.0,39522.0,184564.0,86684.0,183780.0,98049.0
2026-04-14 17:10:20.009649,111163,1609504113755121,1713724368,1.056032,0.005856,-0.183488,4.83875,10.73625,-26.1625,-16.76,-14.328001,-16.432001,eccentric,2,3.0,39522.0,184564.0,86684.0,183780.0,98049.0
2026-04-14 17:10:20.024585,111164,1609504113769578,1713739245,1.056032,0.005856,-0.183488,0.81375,15.44375,-26.2675,-16.76,-14.328001,-16.432001,eccentric,2,3.0,39522.0,184564.0,86684.0,183780.0,98049.0
2026-04-14 17:10:20.100093,111175,1609504113779062,1713747955,0.851072,-0.187392,-0.162016,0.14875,22.3125,-33.7925,-16.872002,-15.024001,-16.616001,eccentric,2,3.0,43200.0,196409.0,93487.0,196113.0,105303.0
2026-04-14 17:10:20.102630,111176,1609504113788138,1713756699,0.851072,-0.187392,-0.162016,4.4625,24.31625,-46.095,-16.872002,-15.024001,-16.616001,eccentric,2,3.0,43200.0,196409.0,93487.0,196113.0,105303.0
2026-04-14 17:10:20.105075,111177,1609504113803198,1713771706,0.854976,-0.244,-0.27328,15.505,22.1025,-47.9325,-17.776001,-15.368001,-15.736001,eccentric,2,3.0,43200.0,196409.0,93487.0,196113.0,105303.0
2026-04-14 17:10:20.109113,111178,1609504113812580,1713782435,0.854976,-0.244,-0.27328,18.1825,23.6075,-42.6125,-17.776001,-15.368001,-15.736001,eccentric,2,3.0,43200.0,196409.0,93487.0,196113.0,105303.0
2026-04-14 17:10:20.109525,111179,1609504113827058,1713797391,0.854976,-0.15616,-0.23424,19.215,26.5475,-41.326252,-17.288,-16.0,-12.536,eccentric,2,3.0,43200.0,196409.0,93487.0,196113.0,105303.0
2026-04-14 17:10:20.112138,111180,1609504113835970,1713806078,0.700768,-0.042944,-0.2928,13.6325,33.80125,-42.46375,-17.560001,-16.048,-15.920001,eccentric,2,3.0,43200.0,196409.0,93487.0,196113.0,105303.0
2026-04-14 17:10:20.114563,111181,1609504113844887,1713814809,0.700768,-0.042944,-0.2928,19.60875,40.62625,-39.61125,-17.560001,-16.048,-15.920001,eccentric,2,3.0,43200.0,196409.0,93487.0,196113.0,105303.0
2026-04-14 17:10:20.119049,111182,1609504113859382,1713829721,0.71248,-0.128832,-0.33184,19.41625,43.54,-44.30125,-17.416,-17.224,-16.472,eccentric,2,3.0,43200.0,196409.0,93487.0,196113.0,105303.0
2026-04-14 17:10:20.123163,111183,1609504113868290,1713838451,0.71248,-0.128832,-0.33184,13.0725,44.4675,-46.62,-17.416,-17.224,-16.472,eccentric,2,3.0,43200.0,196409.0,93487.0,196113.0,105303.0
2026-04-14 17:10:20.153857,111194,1609504113882853,1713851527,0.745664,-0.257664,-0.1952,2.38875,43.58375,-46.2,-16.08,-17.944,-16.304,eccentric,2,3.0,51867.0,232933.0,108832.0,229148.0,121315.0
2026-04-14 17:10:20.155874,111195,1609504113892223,1713862386,0.745664,-0.257664,-0.1952,-1.32125,45.01,-40.6875,-16.08,-17.944,-16.304,eccentric,2,3.0,51867.0,232933.0,108832.0,229148.0,121315.0
2026-04-14 17:10:20.158358,111196,1609504113901188,1713871096,0.696864,-0.247904,-0.226432,3.5875,44.84375,-36.0675,-17.248001,-17.968,-15.928,eccentric,2,3.0,51867.0,232933.0,108832.0,229148.0,121315.0
2026-04-14 17:10:20.171347,111197,1609504113915723,1713885988,0.650016,-0.142496,-0.365024,-3.64,46.8125,-41.2825,-16.632,-18.432001,-15.112,eccentric,2,3.0,51867.0,232933.0,108832.0,229148.0,121315.0
2026-04-14 17:10:20.180134,111198,1609504113924651,1713894660,0.650016,-0.142496,-0.365024,-0.63875,51.42375,-33.27625,-16.632,-18.432001,-15.112,eccentric,2,3.0,51867.0,232933.0,108832.0,229148.0,121315.0
