pc_time,serial_num,sensor_ts,host_ts,ax,ay,az,gx,gy,gz,mx,my,mz,phase,rpe,weight_kg,ppg_a,ppg_b,ppg_c,ppg_d,ppg_e
2026-04-14 17:10:36.463578,114259,1609504130207679,1730177815,0.767136,-0.216672,-0.07808,0.28,38.5,-38.49125,-20.816002,-14.648001,-13.576,concentric,2,3.0,34355.0,161887.0,82422.0,163408.0,94920.0
2026-04-14 17:10:36.471030,114260,1609504130216615,1730186504,0.767136,-0.216672,-0.3904,5.53875,44.6425,-41.93,-20.816002,-14.648001,-13.576,concentric,2,3.0,34355.0,161887.0,82422.0,163408.0,94920.0
2026-04-14 17:10:36.481007,114261,1609504130225582,1730195185,0.753472,-0.296704,-0.384544,9.8,45.36875,-54.416252,-20.800001,-15.176001,-13.544001,concentric,2,3.0,34355.0,161887.0,82422.0,163408.0,94920.0
2026-04-14 17:10:36.498607,114262,1609504130240091,1730210121,0.788608,-0.148352,-0.031232,6.32625,44.9925,-47.64375,-21.232,-15.576001,-12.320001,concentric,2,3.0,34355.0,161887.0,82422.0,163408.0,94920.0
2026-04-14 17:10:36.503610,114263,1609504130249009,1730218810,0.788608,-0.148352,-0.031232,3.255,44.345,-41.16875,-21.232,-15.576001,-12.320001,concentric,2,3.0,34355.0,161887.0,82422.0,163408.0,94920.0
2026-04-14 17:10:36.519913,114264,1609504130263465,1730233672,0.64416,-0.199104,-0.046848,1.05,48.67625,-47.57375,-20.720001,-15.712001,-12.736001,concentric,2,3.0,34355.0,161887.0,82422.0,163408.0,94920.0
2026-04-14 17:10:36.547282,114275,1609504130272393,1730242395,0.64416,-0.199104,-0.046848,4.06,52.36,-54.80125,-20.720001,-15.712001,-12.736001,concentric,2,3.0,38911.0,172600.0,89710.0,174115.0,101434.0
2026-04-14 17:10:36.550099,114276,1609504130286913,1730255291,0.67344,-0.11712,-0.2928,6.13375,55.8775,-50.4,-21.848001,-16.464,-11.672001,concentric,2,3.0,38911.0,172600.0,89710.0,174115.0,101434.0
2026-04-14 17:10:36.552498,114277,1609504130296192,1730266066,0.67344,-0.11712,-0.2928,9.765,55.125,-45.03625,-21.848001,-16.464,-11.672001,concentric,2,3.0,38911.0,172600.0,89710.0,174115.0,101434.0
2026-04-14 17:10:36.558510,114278,1609504130305126,1730274766,0.6832,-0.148352,-0.325984,9.765,53.3925,-52.1325,-20.736,-17.056002,-13.184001,concentric,2,3.0,38911.0,172600.0,89710.0,174115.0,101434.0
2026-04-14 17:10:36.575210,114279,1609504130319652,1730289659,0.745664,-0.179584,-0.26352,2.38875,50.26,-62.072502,-19.968,-17.720001,-11.416,concentric,2,3.0,38911.0,172600.0,89710.0,174115.0,101434.0
2026-04-14 17:10:36.619387,114280,1609504130328590,1730298347,0.745664,-0.179584,-0.26352,2.275,45.61375,-59.255,-19.968,-17.720001,-11.416,concentric,2,3.0,38911.0,172600.0,89710.0,174115.0,101434.0
2026-04-14 17:10:36.624033,114281,1609504130343059,1730313198,0.618784,-0.30256,-0.072224,0.20125,44.63375,-55.09875,-20.472,-17.76,-11.104,concentric,2,3.0,38911.0,172600.0,89710.0,174115.0,101434.0
2026-04-14 17:10:36.624478,114282,1609504130351994,1730321911,0.618784,-0.30256,-0.072224,-0.86625,44.135,-52.07125,-20.472,-17.76,-11.104,concentric,2,3.0,38911.0,172600.0,89710.0,174115.0,101434.0
2026-04-14 17:10:36.668545,114293,1609504130366933,1730337248,0.59536,-0.158112,-0.251808,12.7575,43.715,-47.005,-20.608002,-18.12,-11.080001,concentric,2,3.0,59790.0,243783.0,126897.0,240674.0,140396.0
2026-04-14 17:10:36.671199,114294,1609504130375975,1730345993,0.59536,-0.158112,-0.251808,26.80125,42.28875,-46.445,-20.608002,-18.12,-11.080001,concentric,2,3.0,59790.0,243783.0,126897.0,240674.0,140396.0
2026-04-14 17:10:36.673817,114295,1609504130384912,1730354709,0.825696,-0.17568,-0.275232,30.1,42.9275,-48.545002,-20.144001,-18.368,-10.344001,concentric,2,3.0,59790.0,243783.0,126897.0,240674.0,140396.0
2026-04-14 17:10:36.676507,114296,1609504130399487,1730369626,0.69296,-0.074176,0.212768,18.75125,44.61625,-46.8125,-20.44,-18.496,-12.456,concentric,2,3.0,59790.0,243783.0,126897.0,240674.0,140396.0
2026-04-14 17:10:36.678990,114297,1609504130408453,1730378330,0.69296,-0.074176,0.212768,0.25375,46.4625,-38.7275,-20.44,-18.496,-12.456,concentric,2,3.0,59790.0,243783.0,126897.0,240674.0,140396.0
2026-04-14 17:10:36.681515,114298,1609504130422990,1730393239,0.591456,-0.169824,-0.033184,-12.0225,50.4525,-32.31375,-20.160002,-19.192001,-9.080001,concentric,2,3.0,59790.0,243783.0,126897.0,240674.0,140396.0
2026-04-14 17:10:36.687728,114299,1609504130431931,1730401933,0.591456,-0.169824,-0.033184,-10.70125,54.416252,-32.27875,-20.160002,-19.192001,-9.080001,concentric,2,3.0,59790.0,243783.0,126897.0,240674.0,140396.0
2026-04-14 17:10:36.700252,114300,1609504130440897,1730410606,0.622688,-0.119072,0.013664,-1.75875,54.04875,-33.38125,-20.088001,-19.36,-10.048,concentric,2,3.0,59790.0,243783.0,126897.0,240674.0,140396.0
2026-04-14 17:10:36.711460,114301,1609504130455399,1730425528,0.622688,-0.119072,0.013664,12.495,50.3825,-35.7175,-20.088001,-19.36,-10.048,concentric,2,3.0,59790.0,243783.0,126897.0,240674.0,140396.0
2026-04-14 17:10:36.719821,114302,1609504130464294,1730434200,0.755424,-0.160064,-0.324032,20.772501,44.70375,-36.63625,-19.856,-20.0,-10.848001,concentric,2,3.0,59790.0,243783.0,126897.0,240674.0,140396.0
2026-04-14 17:10:36.747155,114313,1609504130478884,1730449176,0.628544,-0.027328,0.203008,15.88125,42.56,-32.27,-19.856,-20.0,-9.936001,concentric,2,3.0,73366.0,292345.0,146970.0,277015.0,161155.0
2026-04-14 17:10:36.750154,114314,1609504130487828,1730457999,0.628544,-0.027328,0.203008,-2.77375,39.96125,-25.17375,-18.648,-20.168001,-9.936001,concentric,2,3.0,73366.0,292345.0,146970.0,277015.0,161155.0
2026-04-14 17:10:36.755941,114315,1609504130502332,1730470840,0.708576,-0.08784,-0.025376,-14.72625,40.80125,-22.085001,-18.864,-20.304,-10.408001,concentric,2,3.0,73366.0,292345.0,146970.0,277015.0,161155.0
2026-04-14 17:10:36.767226,114316,1609504130511655,1730481586,0.708576,-0.08784,-0.025376,-4.06,43.67125,-19.36375,-18.864,-20.304,-10.408001,concentric,2,3.0,73366.0,292345.0,146970.0,277015.0,161155.0
2026-04-14 17:10:36.777258,114317,1609504130520572,1730490286,0.671488,-0.189344,-0.173728,14.44625,41.99125,-25.68125,-19.232,-20.424002,-8.984,concentric,2,3.0,73366.0,292345.0,146970.0,277015.0,161155.0
2026-04-14 17:10:36.789542,114318,1609504130535081,1730505216,0.671488,-0.189344,-0.173728,35.41125,34.9475,-23.66,-19.232,-20.424002,-8.984,concentric,2,3.0,73366.0,292345.0,146970.0,277015.0,161155.0
2026-04-14 17:10:36.799573,114319,1609504130544009,1730513885,0.743712,0.07808,0.070272,45.73625,25.05125,-18.76,-19.016,-20.392,-10.712001,concentric,2,3.0,73366.0,292345.0,146970.0,277015.0,161155.0
2026-04-14 17:10:36.813270,114320,1609504130558482,1730528765,0.743712,0.07808,0.070272,34.67625,16.94,-12.76625,-19.016,-20.392,-10.712001,concentric,2,3.0,73366.0,292345.0,146970.0,277015.0,161155.0
2026-04-14 17:10:36.845676,114331,1609504130567424,1730537369,0.700768,-0.00976,0.072224,10.3075,11.2875,-6.93,-19.616001,-20.12,-8.368,concentric,2,3.0,100698.0,307396.0,184376.0,289352.0,200008.0
2026-04-14 17:10:36.848265,114332,1609504130576963,1730546215,0.700768,-0.00976,0.072224,-2.4325,6.02875,-2.54625,-19.616001,-20.12,-8.368,concentric,2,3.0,100698.0,307396.0,184376.0,289352.0,200008.0
2026-04-14 17:10:36.850721,114333,1609504130591617,1730561143,0.708576,-0.06832,-0.027328,2.30125,-0.525,-2.26625,-18.832,-20.272001,-10.792001,concentric,2,3.0,100698.0,307396.0,184376.0,289352.0,200008.0
2026-04-14 17:10:36.855743,114334,1609504130600607,1730569838,0.823744,-0.083936,0.003904,9.7475,-6.51,-0.88375,-18.832,-20.320002,-10.824,concentric,2,3.0,100698.0,307396.0,184376.0,289352.0,200008.0
2026-04-14 17:10:36.899444,114335,1609504130615094,1730584741,0.823744,-0.083936,0.003904,13.335,-11.3925,0.7525,-18.832,-20.320002,-10.824,concentric,2,3.0,100698.0,307396.0,184376.0,289352.0,200008.0
2026-04-14 17:10:36.902577,114336,1609504130623997,1730593425,0.833504,-0.021472,-0.013664,12.573751,-13.86875,3.6225,-18.688002,-19.784,-9.872001,concentric,2,3.0,100698.0,307396.0,184376.0,289352.0,200008.0
2026-04-14 17:10:36.904910,114337,1609504130632893,1730602089,0.833504,-0.021472,-0.013664,8.49625,-12.81875,4.235,-18.688002,-19.784,-9.872001,concentric,2,3.0,100698.0,307396.0,184376.0,289352.0,200008.0
2026-04-14 17:10:36.906955,114338,1609504130647343,1730616969,0.933056,-0.070272,0.105408,1.19,-8.86375,2.5725,-19.152,-20.2,-10.960001,concentric,2,3.0,100698.0,307396.0,184376.0,289352.0,200008.0
2026-04-14 17:10:36.909409,114339,1609504130656294,1730625721,0.933056,-0.070272,0.105408,-4.17375,-4.48875,3.08,-19.152,-20.2,-10.960001,concentric,2,3.0,100698.0,307396.0,184376.0,289352.0,200008.0
2026-04-14 17:10:36.946931,114350,1609504130670867,1730641130,1.038464,-0.109312,0.056608,-0.5775,-1.32125,1.2425,-20.448002,-19.976002,-9.896001,concentric,2,3.0,105646.0,311654.0,190805.0,293358.0,206331.0
2026-04-14 17:10:36.949386,114351,1609504130679855,1730649907,1.038464,-0.122976,0.103456,2.77375,0.0,-1.12,-20.448002,-19.976002,-9.896001,concentric,2,3.0,105646.0,311654.0,190805.0,293358.0,206331.0
2026-04-14 17:10:36.974482,114352,1609504130694355,1730662794,1.052128,-0.122976,0.103456,1.56625,0.1575,-2.96625,-19.816002,-19.872002,-10.104,concentric,2,3.0,105646.0,311654.0,190805.0,293358.0,206331.0
2026-04-14 17:10:36.999506,114353,1609504130703679,1730673559,1.01504,-0.070272,0.158112,-0.00875,0.0175,-4.34875,-19.608002,-19.832,-10.136001,concentric,2,3.0,105646.0,311654.0,190805.0,293358.0,206331.0
2026-04-14 17:10:37.002029,114354,1609504130712604,1730682280,1.01504,-0.070272,0.158112,-0.8575,0.48125,-6.08125,-19.608002,-19.832,-10.136001,concentric,2,3.0,105646.0,311654.0,190805.0,293358.0,206331.0
2026-04-14 17:10:37.004747,114355,1609504130727051,1730697179,0.876448,-0.083936,-0.060512,-2.0475,1.25125,-7.69125,-19.624,-19.640001,-11.080001,concentric,2,3.0,105646.0,311654.0,190805.0,293358.0,206331.0
2026-04-14 17:10:37.006982,114356,1609504130735954,1730705857,0.876448,-0.083936,-0.060512,-1.68875,1.70625,-9.073751,-19.624,-19.640001,-11.080001,concentric,2,3.0,105646.0,311654.0,190805.0,293358.0,206331.0
2026-04-14 17:10:37.009491,114357,1609504130750460,1730720772,0.935008,-0.052704,0.15616,-0.2975,1.68,-10.10625,-19.800001,-20.0,-10.096001,concentric,2,3.0,105646.0,311654.0,190805.0,293358.0,206331.0
2026-04-14 17:10:37.014458,114358,1609504130759402,1730729466,0.935008,-0.052704,0.15616,0.8575,0.67375,-10.40375,-19.800001,-20.0,-10.096001,concentric,2,3.0,105646.0,311654.0,190805.0,293358.0,206331.0
2026-04-14 17:10:37.049474,114369,1609504130774093,1730744435,0.884256,-0.06832,-0.035136,-3.3075,-0.58625,-9.59875,-18.984001,-20.400002,-10.936001,concentric,2,3.0,100165.0,308190.0,183888.0,290368.0,199418.0
2026-04-14 17:10:37.051960,114370,1609504130783171,1730753167,0.854976,-0.07808,-0.072224,-9.87875,-1.67125,-7.7525,-18.784,-20.632002,-10.688001,concentric,2,3.0,100165.0,308190.0,183888.0,290368.0,199418.0
2026-04-14 17:10:37.054403,114371,1609504130792095,1730761843,0.854976,-0.07808,-0.072224,-13.37,-3.605,-6.545,-18.784,-20.632002,-10.688001,concentric,2,3.0,100165.0,308190.0,183888.0,290368.0,199418.0
2026-04-14 17:10:37.061932,114372,1609504130806618,1730776738,0.8296,-0.005856,0.11712,-14.323751,-5.15375,-5.10125,-18.232,-20.136002,-11.048,concentric,2,3.0,100165.0,308190.0,183888.0,290368.0,199418.0
2026-04-14 17:10:37.069482,114373,1609504130815522,1730785453,0.8296,-0.005856,0.11712,-14.46375,-6.60625,-4.01625,-18.232,-20.136002,-11.048,concentric,2,3.0,100165.0,308190.0,183888.0,290368.0,199418.0
2026-04-14 17:10:37.087036,114374,1609504130830035,1730800334,0.843264,-0.027328,-0.101504,-14.06125,-7.49875,-3.40375,-18.896002,-19.848001,-9.664001,concentric,2,3.0,100165.0,308190.0,183888.0,290368.0,199418.0
2026-04-14 17:10:37.093186,114375,1609504130838959,1730809101,0.843264,-0.027328,-0.101504,-12.87125,-8.295,-3.82375,-18.896002,-19.848001,-9.664001,concentric,2,3.0,100165.0,308190.0,183888.0,290368.0,199418.0
2026-04-14 17:10:37.103299,114376,1609504130847881,1730817766,0.876448,0.011712,0.05856,-13.5975,-8.58375,-3.6225,-19.144001,-19.872002,-10.944,concentric,2,3.0,100165.0,308190.0,183888.0,290368.0,199418.0
2026-04-14 17:10:37.119450,114377,1609504130862455,1730832785,1.009184,-0.095648,0.103456,-17.24625,-8.18125,-3.29875,-18.264,-19.904001,-9.496,concentric,2,3.0,100165.0,308190.0,183888.0,290368.0,199418.0
2026-04-14 17:10:37.152051,114388,1609504130871724,1730841522,1.009184,-0.095648,0.103456,-20.825,-7.06125,-2.38875,-18.264,-19.904001,-9.496,concentric,2,3.0,97931.0,305701.0,181273.0,288497.0,196868.0
2026-04-14 17:10:37.154581,114389,1609504130886334,1730856399,0.894016,-0.00976,-0.042944,-19.53,-6.25625,-1.58375,-18.416,-20.408,-10.752001,concentric,2,3.0,97931.0,305701.0,181273.0,288497.0,196868.0
2026-04-14 17:10:37.157032,114390,1609504130895333,1730865131,0.894016,-0.00976,-0.042944,-16.2225,-6.30875,-1.75875,-18.416,-20.408,-10.752001,concentric,2,3.0,97931.0,305701.0,181273.0,288497.0,196868.0
2026-04-14 17:10:37.164655,114391,1609504130909815,1730880063,0.954528,0.013664,0.10736,-14.245,-6.51875,-2.31875,-18.672,-20.12,-10.176001,concentric,2,3.0,97931.0,305701.0,181273.0,288497.0,196868.0
2026-04-14 17:10:37.175787,114392,1609504130918758,1730888806,0.954528,0.013664,0.10736,-15.2075,-6.4925,-3.1675,-18.672,-20.12,-10.176001,concentric,2,3.0,97931.0,305701.0,181273.0,288497.0,196868.0
2026-04-14 17:10:37.182122,114393,1609504130927672,1730897486,0.929152,-0.033184,-0.021472,-17.07125,-5.43375,-4.2525,-18.792002,-20.208,-9.488001,concentric,2,3.0,97931.0,305701.0,181273.0,288497.0,196868.0
2026-04-14 17:10:37.196049,114394,1609504130942161,1730912413,0.98576,-0.033184,0.140544,-17.255,-4.27,-4.795,-19.168001,-20.240002,-10.792001,concentric,2,3.0,97931.0,305701.0,181273.0,288497.0,196868.0
2026-04-14 17:10:37.206031,114395,1609504130951150,1730921155,0.98576,-0.033184,0.140544,-16.3275,-2.68625,-4.76,-19.168001,-20.240002,-10.792001,concentric,2,3.0,97931.0,305701.0,181273.0,288497.0,196868.0
2026-04-14 17:10:37.218421,114396,1609504130965606,1730933980,0.909632,-0.031232,-0.066368,-13.71125,-1.23375,-4.43625,-18.064001,-20.352001,-10.104,concentric,2,3.0,97931.0,305701.0,181273.0,288497.0,196868.0
2026-04-14 17:10:37.250805,114407,1609504130974998,1730944814,0.909632,-0.031232,-0.066368,-11.6025,0.13125,-4.06875,-18.064001,-20.352001,-10.104,concentric,2,3.0,93544.0,300852.0,175790.0,284311.0,191359.0
2026-04-14 17:10:37.253275,114408,1609504130984106,1730953618,0.901824,-0.027328,-0.111264,-10.50875,1.11125,-4.24375,-18.584002,-20.568,-10.392,concentric,2,3.0,93544.0,300852.0,175790.0,284311.0,191359.0
2026-04-14 17:10:37.255797,114409,1609504130998588,1730968510,0.901824,-0.027328,-0.111264,-10.19375,0.8575,-3.9025,-18.584002,-20.568,-10.392,concentric,2,3.0,93544.0,300852.0,175790.0,284311.0,191359.0
2026-04-14 17:10:37.262083,114410,1609504131007519,1730977203,0.886208,-0.054656,-0.132736,-10.52625,-0.07,-3.15875,-18.424002,-20.800001,-10.296001,concentric,2,3.0,93544.0,300852.0,175790.0,284311.0,191359.0
2026-04-14 17:10:37.278401,114411,1609504131021991,1730992099,0.886208,-0.01952,0.062464,-10.84125,-1.68,-1.75,-18.424002,-20.800001,-10.296001,concentric,2,3.0,93544.0,300852.0,175790.0,284311.0,191359.0
2026-04-14 17:10:37.285842,114412,1609504131030907,1731000773,0.929152,-0.01952,0.062464,-8.68875,-4.01625,-0.98,-18.936,-20.232,-9.0,concentric,2,3.0,93544.0,300852.0,175790.0,284311.0,191359.0
2026-04-14 17:10:37.300906,114413,1609504131045484,1731015697,0.870592,-0.01952,-0.07808,-5.145,-6.20375,-1.37375,-18.36,-20.544,-10.432,concentric,2,3.0,93544.0,300852.0,175790.0,284311.0,191359.0
2026-04-14 17:10:37.308345,114414,1609504131054438,1731024439,0.870592,-0.01952,-0.07808,-3.465,-8.40875,-1.1725,-18.36,-20.544,-10.432,concentric,2,3.0,93544.0,300852.0,175790.0,284311.0,191359.0
2026-04-14 17:10:37.343423,114415,1609504131063366,1731033109,0.958432,-0.056608,0.042944,-3.9725,-9.730001,-0.14875,-18.488,-20.568,-10.480001,concentric,2,3.0,93544.0,300852.0,175790.0,284311.0,191359.0
2026-04-14 17:10:37.390870,114426,1609504131077890,1731048055,0.958432,-0.056608,0.042944,-5.0575,-9.40625,0.595,-18.488,-20.568,-10.480001,concentric,2,3.0,86730.0,294057.0,167038.0,278722.0,182466.0
2026-04-14 17:10:37.393386,114427,1609504131086773,1731056727,0.94672,-0.050752,0.011712,-4.34,-8.8725,0.6125,-18.264,-20.744001,-10.320001,concentric,2,3.0,86730.0,294057.0,167038.0,278722.0,182466.0
2026-04-14 17:10:37.395729,114428,1609504131101255,1731069612,0.94672,-0.050752,0.011712,-2.19625,-8.30375,1.3125,-18.264,-20.744001,-10.320001,concentric,2,3.0,86730.0,294057.0,167038.0,278722.0,182466.0
2026-04-14 17:10:37.398400,114429,1609504131110439,1731080368,0.89792,-0.060512,-0.12688,-1.58375,-7.735,0.8925,-18.744001,-20.488,-8.344001,concentric,2,3.0,86730.0,294057.0,167038.0,278722.0,182466.0
2026-04-14 17:10:37.400867,114430,1609504131124955,1731093309,0.925248,-0.035136,0.089792,-0.4725,-7.805,0.945,-18.928001,-20.016,-9.184,concentric,2,3.0,86730.0,294057.0,167038.0,278722.0,182466.0
2026-04-14 17:10:37.403375,114431,1609504131134129,1731104061,0.925248,-0.035136,0.089792,0.07875,-8.4,1.40875,-18.928001,-20.016,-9.184,concentric,2,3.0,86730.0,294057.0,167038.0,278722.0,182466.0
2026-04-14 17:10:37.405872,114432,1609504131143123,1731112776,0.862784,-0.0488,-0.109312,0.175,-8.82875,1.04125,-18.928001,-19.736,-9.448001,concentric,2,3.0,86730.0,294057.0,167038.0,278722.0,182466.0
2026-04-14 17:10:37.412150,114433,1609504131157664,1731127676,0.862784,-0.0488,-0.109312,-0.25375,-8.435,1.54875,-19.304,-19.736,-9.448001,concentric,2,3.0,86730.0,294057.0,167038.0,278722.0,182466.0
2026-04-14 17:10:37.420925,114434,1609504131166622,1731136372,0.833504,-0.044896,-0.093696,0.21,-8.84625,2.02125,-18.640001,-20.016,-10.504001,concentric,2,3.0,86730.0,294057.0,167038.0,278722.0,182466.0
2026-04-14 17:10:37.454733,114445,1609504131181305,1731151345,0.833504,-0.044896,-0.093696,0.7175,-8.89875,1.95125,-18.640001,-20.016,-10.504001,concentric,2,3.0,81259.0,289547.0,159730.0,275096.0,175037.0
2026-04-14 17:10:37.457227,114446,1609504131190348,1731160159,0.88816,-0.062464,0.042944,1.11125,-10.14125,2.51125,-18.328001,-20.36,-11.224001,concentric,2,3.0,81259.0,289547.0,159730.0,275096.0,175037.0
2026-04-14 17:10:37.460934,114447,1609504131199346,1731168880,0.88816,-0.062464,0.042944,2.03,-11.36625,3.01,-18.328001,-20.36,-11.224001,concentric,2,3.0,81259.0,289547.0,159730.0,275096.0,175037.0
2026-04-14 17:10:37.468362,114448,1609504131213836,1731183742,0.841312,-0.035136,0.07808,5.24125,-12.55625,3.52625,-18.504002,-19.816002,-10.960001,concentric,2,3.0,81259.0,289547.0,159730.0,275096.0,175037.0
2026-04-14 17:10:37.478823,114449,1609504131222890,1731192439,0.841312,-0.035136,0.07808,7.6125,-15.0325,3.71875,-18.504002,-19.816002,-10.960001,concentric,2,3.0,81259.0,289547.0,159730.0,275096.0,175037.0
2026-04-14 17:10:37.490995,114450,1609504131237373,1731207348,0.860832,-0.06832,-0.091744,8.65375,-16.0825,3.7275,-19.072,-19.384,-11.040001,concentric,2,3.0,81259.0,289547.0,159730.0,275096.0,175037.0
2026-04-14 17:10:37.526495,114451,1609504131246320,1731216015,0.813984,-0.02928,0.093696,6.44,-17.07125,5.2325,-19.632002,-19.472,-9.88,concentric,2,3.0,81259.0,289547.0,159730.0,275096.0,175037.0
2026-04-14 17:10:37.528984,114452,1609504131260798,1731230871,0.813984,-0.02928,0.093696,3.325,-18.31375,6.1775,-19.632002,-19.472,-9.88,concentric,2,3.0,81259.0,289547.0,159730.0,275096.0,175037.0
2026-04-14 17:10:37.531455,114453,1609504131269706,1731239560,0.831552,-0.10736,-0.031232,1.40875,-19.7925,6.23,-19.448002,-19.344002,-10.168,concentric,2,3.0,81259.0,289547.0,159730.0,275096.0,175037.0
2026-04-14 17:10:37.563310,114464,1609504131278630,1731248288,0.831552,-0.10736,-0.031232,1.60125,-22.12,7.3325,-19.448002,-19.344002,-10.168,concentric,2,3.0,67774.0,274494.0,140468.0,262978.0,155126.0
2026-04-14 17:10:37.563780,114465,1609504131293224,1731263201,0.796416,-0.140544,-0.138592,4.33125,-25.9875,8.5575,-19.264002,-19.208,-10.56,concentric,2,3.0,67774.0,274494.0,140468.0,262978.0,155126.0
2026-04-14 17:10:37.565924,114466,1609504131302206,1731271936,0.796416,-0.140544,-0.138592,7.41125,-29.61875,10.40375,-19.264002,-19.208,-10.56,concentric,2,3.0,67774.0,274494.0,140468.0,262978.0,155126.0
2026-04-14 17:10:37.571395,114467,1609504131316697,1731286861,0.769088,-0.111264,-0.191296,6.7725,-32.15625,14.761251,-19.320002,-19.2,-12.488001,concentric,2,3.0,67774.0,274494.0,140468.0,262978.0,155126.0
2026-04-14 17:10:37.582628,114468,1609504131325618,1731295531,0.75152,-0.07808,-0.158112,2.44125,-33.66125,18.725,-19.536001,-19.128,-10.816001,concentric,2,3.0,67774.0,274494.0,140468.0,262978.0,155126.0
2026-04-14 17:10:37.596346,114469,1609504131340079,1731310404,0.75152,-0.07808,-0.158112,-1.18125,-35.32375,18.40125,-19.536001,-19.128,-10.816001,concentric,2,3.0,67774.0,274494.0,140468.0,262978.0,155126.0
2026-04-14 17:10:37.603594,114470,1609504131349016,1731319115,0.755424,-0.124928,-0.11712,-3.15,-36.4875,16.98375,-18.832,-19.04,-11.512,concentric,2,3.0,67774.0,274494.0,140468.0,262978.0,155126.0
2026-04-14 17:10:37.613702,114471,1609504131357924,1731327797,0.755424,-0.124928,-0.11712,-3.5175,-39.165,16.975,-18.832,-19.04,-11.512,concentric,2,3.0,67774.0,274494.0,140468.0,262978.0,155126.0
2026-04-14 17:10:37.650973,114482,1609504131372742,1731343084,0.70272,-0.144448,-0.220576,-1.28625,-41.895,19.005,-18.776001,-18.464,-12.472,concentric,2,3.0,54406.0,235148.0,119163.0,230842.0,132777.0
2026-04-14 17:10:37.654547,114483,1609504131381807,1731351884,0.70272,-0.144448,-0.220576,-0.2975,-45.22,21.65625,-18.776001,-18.464,-12.472,concentric,2,3.0,54406.0,235148.0,119163.0,230842.0,132777.0
2026-04-14 17:10:37.661388,114484,1609504131396428,1731364799,0.776896,-0.134688,-0.249856,-2.63375,-47.0575,24.68375,-18.648,-18.352001,-12.496,concentric,2,3.0,54406.0,235148.0,119163.0,230842.0,132777.0
2026-04-14 17:10:37.663835,114485,1609504131405631,1731375568,0.804224,-0.109312,-0.02928,-8.2775,-48.6675,24.82375,-18.824001,-17.984001,-12.504001,concentric,2,3.0,54406.0,235148.0,119163.0,230842.0,132777.0
2026-04-14 17:10:37.669684,114486,1609504131414548,1731384286,0.804224,-0.109312,-0.02928,-14.42875,-48.44875,23.89625,-18.824001,-17.984001,-12.504001,concentric,2,3.0,54406.0,235148.0,119163.0,230842.0,132777.0
2026-04-14 17:10:37.685220,114487,1609504131429064,1731399150,0.732,-0.113216,0.011712,-15.09375,-48.0025,25.0075,-19.328001,-17.6,-12.200001,concentric,2,3.0,54406.0,235148.0,119163.0,230842.0,132777.0
2026-04-14 17:10:37.709642,114488,1609504131437968,1731407818,0.732,-0.113216,0.011712,-10.8675,-47.6175,23.9575,-19.328001,-17.6,-12.200001,concentric,2,3.0,54406.0,235148.0,119163.0,230842.0,132777.0
2026-04-14 17:10:37.735131,114489,1609504131452447,1731422685,0.710528,-0.111264,-0.177632,-5.13625,-48.3,24.36875,-20.384,-17.112001,-12.016001,concentric,2,3.0,54406.0,235148.0,119163.0,230842.0,132777.0
2026-04-14 17:10:37.747336,114490,1609504131461382,1731431366,0.710528,-0.111264,-0.177632,-2.73,-49.51625,27.16,-20.384,-17.112001,-12.016001,concentric,2,3.0,54406.0,235148.0,119163.0,230842.0,132777.0
2026-04-14 17:10:37.780203,114501,1609504131476514,1731446288,0.689056,-0.101504,-0.199104,-6.6675,-50.015,29.02375,-19.712002,-16.984001,-12.072001,concentric,2,3.0,41829.0,186226.0,96178.0,187016.0,108076.0
2026-04-14 17:10:37.782750,114502,1609504131485445,1731454993,0.732,-0.183488,-0.32208,-11.2875,-48.65,29.7675,-19.712002,-16.472,-12.208,concentric,2,3.0,41829.0,186226.0,96178.0,187016.0,108076.0
2026-04-14 17:10:37.785236,114503,1609504131494365,1731463658,0.732,-0.183488,-0.32208,-15.74125,-47.95875,28.455,-19.736,-16.472,-12.208,concentric,2,3.0,41829.0,186226.0,96178.0,187016.0,108076.0
2026-04-14 17:10:37.787214,114504,1609504131508921,1731478616,0.733952,-0.076128,0.003904,-11.7425,-47.0575,29.2425,-19.560001,-16.416,-12.768001,concentric,2,3.0,41829.0,186226.0,96178.0,187016.0,108076.0
2026-04-14 17:10:37.789764,114505,1609504131517821,1731487340,0.733952,-0.076128,0.003904,0.58625,-46.3925,30.96625,-19.560001,-16.416,-12.768001,concentric,2,3.0,41829.0,186226.0,96178.0,187016.0,108076.0
2026-04-14 17:10:37.792749,114506,1609504131532316,1731502237,0.679296,-0.033184,-0.284992,10.59625,-46.69875,29.61,-19.424002,-16.104,-13.016001,concentric,2,3.0,41829.0,186226.0,96178.0,187016.0,108076.0
2026-04-14 17:10:37.797778,114507,1609504131541313,1731510949,0.679296,-0.033184,-0.284992,10.61375,-48.58,27.0025,-19.424002,-16.104,-13.016001,concentric,2,3.0,41829.0,186226.0,96178.0,187016.0,108076.0
2026-04-14 17:10:37.805280,114508,1609504131550236,1731519668,0.74176,-0.138592,-0.121024,-3.40375,-48.8075,25.24375,-19.344002,-16.256,-14.296001,concentric,2,3.0,41829.0,186226.0,96178.0,187016.0,108076.0
2026-04-14 17:10:37.820253,114509,1609504131564743,1731534583,0.74176,-0.138592,-0.121024,-25.235,-47.06625,28.3675,-19.344002,-16.256,-14.296001,concentric,2,3.0,41829.0,186226.0,96178.0,187016.0,108076.0
2026-04-14 17:10:37.850911,114520,1609504131573904,1731543354,0.843264,-0.191296,-0.183488,-32.26125,-42.49875,29.19875,-19.112001,-15.704,-13.68,concentric,2,3.0,35348.0,170637.0,82862.0,171163.0,94718.0
2026-04-14 17:10:37.853375,114521,1609504131588523,1731558293,0.759328,-0.109312,-0.23424,-28.647501,-41.982502,21.6825,-19.696001,-15.000001,-12.984,concentric,2,3.0,35348.0,170637.0,82862.0,171163.0,94718.0
2026-04-14 17:10:37.855887,114522,1609504131597447,1731566975,0.759328,-0.109312,-0.23424,-20.36125,-38.00125,19.94125,-19.696001,-15.000001,-12.984,concentric,2,3.0,35348.0,170637.0,82862.0,171163.0,94718.0
2026-04-14 17:10:37.860932,114523,1609504131606343,1731575644,0.66368,-0.189344,-0.134688,-9.975,-34.3875,18.22625,-20.048,-14.408001,-11.984,concentric,2,3.0,35348.0,170637.0,82862.0,171163.0,94718.0
2026-04-14 17:10:37.875882,114524,1609504131620838,1731590537,0.66368,-0.189344,-0.134688,-1.42625,-37.56375,20.405,-20.048,-14.408001,-11.984,concentric,2,3.0,35348.0,170637.0,82862.0,171163.0,94718.0
2026-04-14 17:10:37.883441,114525,1609504131629794,1731599256,0.792512,-0.197152,-0.417728,3.24625,-40.5475,25.0075,-19.856,-14.824,-14.536,concentric,2,3.0,35348.0,170637.0,82862.0,171163.0,94718.0
2026-04-14 17:10:37.900225,114526,1609504131644313,1731614162,0.792512,-0.197152,-0.417728,-8.0675,-41.81625,23.38875,-19.856,-14.824,-14.536,concentric,2,3.0,35348.0,170637.0,82862.0,171163.0,94718.0
2026-04-14 17:10:37.907740,114527,1609504131653269,1731622857,0.884256,-0.12688,-0.21472,-24.3775,-42.315,21.53375,-18.912,-14.6,-14.688001,concentric,2,3.0,35348.0,170637.0,82862.0,171163.0,94718.0
2026-04-14 17:10:37.924032,114528,1609504131667750,1731637727,0.757376,-0.142496,-0.119072,-33.7225,-38.94625,34.9125,-19.392,-14.176001,-14.936001,concentric,2,3.0,35348.0,170637.0,82862.0,171163.0,94718.0
2026-04-14 17:10:37.952080,114539,1609504131677174,1731646894,0.757376,-0.142496,-0.119072,-27.615,-28.735,37.695,-19.392,-14.176001,-14.936001,concentric,2,3.0,35131.0,167914.0,82693.0,167776.0,94303.0
2026-04-14 17:10:37.954681,114540,1609504131686134,1731655659,0.757376,-0.376736,-0.345504,-21.175,-17.19375,21.00875,-19.392,-14.176001,-14.936001,concentric,2,3.0,35131.0,167914.0,82693.0,167776.0,94303.0
2026-04-14 17:10:37.957146,114541,1609504131700669,1731670603,0.74176,-0.386496,-0.345504,-7.72625,-16.8875,12.29375,-19.288,-13.616,-16.376001,concentric,2,3.0,35131.0,167914.0,82693.0,167776.0,94303.0
2026-04-14 17:10:37.964826,114542,1609504131709590,1731679291,0.733952,-0.203008,-0.45872,3.94625,-17.98125,21.0875,-19.344002,-13.352,-14.080001,concentric,2,3.0,35131.0,167914.0,82693.0,167776.0,94303.0
2026-04-14 17:10:37.983834,114543,1609504131724070,1731694220,0.733952,-0.203008,-0.45872,9.26625,-19.005,29.995,-19.344002,-13.352,-14.080001,concentric,2,3.0,35131.0,167914.0,82693.0,167776.0,94303.0
2026-04-14 17:10:37.988858,114544,1609504131733001,1731702890,0.90768,-0.111264,-0.394304,-4.78625,-18.08625,28.035,-20.176,-13.080001,-14.792001,concentric,2,3.0,35131.0,167914.0,82693.0,167776.0,94303.0
2026-04-14 17:10:38.002770,114545,1609504131747490,1731717813,0.925248,-0.3416,-0.31232,-21.2275,-13.5625,25.655,-20.128,-12.76,-15.216001,concentric,2,3.0,35131.0,167914.0,82693.0,167776.0,94303.0
2026-04-14 17:10:38.012747,114546,1609504131756416,1731726495,0.925248,-0.3416,-0.31232,-22.4875,0.1575,25.935,-20.128,-12.76,-15.216001,concentric,2,3.0,35131.0,167914.0,82693.0,167776.0,94303.0
2026-04-14 17:10:38.021544,114547,1609504131765350,1731735207,0.925248,-0.3416,-0.31232,-13.43125,8.8725,24.73625,-20.128,-12.76,-15.216001,concentric,2,3.0,35131.0,167914.0,82693.0,167776.0,94303.0
2026-04-14 17:10:38.081470,114558,1609504131780025,1731750258,0.75152,-0.460672,-0.366976,2.6075,9.58125,20.23875,-19.672,-12.240001,-14.648001,concentric,2,3.0,32858.0,162608.0,79017.0,162539.0,90258.0
2026-04-14 17:10:38.083955,114559,1609504131789004,1731758939,0.911584,-0.22448,-0.318176,23.24,4.97875,22.02375,-20.152,-11.816001,-15.536001,concentric,2,3.0,32858.0,162608.0,79017.0,162539.0,90258.0
2026-04-14 17:10:38.086526,114560,1609504131803527,1731773841,0.911584,-0.22448,-0.318176,35.525,0.5425,26.2675,-20.152,-11.816001,-15.536001,concentric,2,3.0,32858.0,162608.0,79017.0,162539.0,90258.0
2026-04-14 17:10:38.111595,114561,1609504131812467,1731782516,0.977952,-0.105408,-0.37088,27.72,1.58375,25.76875,-20.304,-11.336,-15.216001,concentric,2,3.0,32858.0,162608.0,79017.0,162539.0,90258.0
2026-04-14 17:10:38.114013,114562,1609504131821383,1731791200,0.977952,-0.105408,-0.37088,12.845,6.37,20.8075,-20.304,-11.336,-15.216001,concentric,2,3.0,32858.0,162608.0,79017.0,162539.0,90258.0
2026-04-14 17:10:38.116131,114563,1609504131835874,1731806075,0.94672,-0.265472,-0.212768,-0.8575,13.448751,16.415,-20.376001,-10.704,-15.200001,concentric,2,3.0,32858.0,162608.0,79017.0,162539.0,90258.0
2026-04-14 17:10:38.120032,114564,1609504131844884,1731814760,0.94672,-0.265472,-0.212768,-6.39625,18.20875,11.042501,-20.376001,-10.704,-15.200001,concentric,2,3.0,32858.0,162608.0,79017.0,162539.0,90258.0
2026-04-14 17:10:38.120966,114565,1609504131859353,1731829620,0.84912,-0.415776,-0.187392,3.89375,17.87625,8.82,-20.344002,-10.656,-15.136001,concentric,2,3.0,32858.0,162608.0,79017.0,162539.0,90258.0
2026-04-14 17:10:38.124604,114566,1609504131868271,1731838349,0.952576,-0.228384,-0.232288,21.1925,13.92125,10.15875,-20.416,-9.816001,-15.368001,concentric,2,3.0,32858.0,162608.0,79017.0,162539.0,90258.0
2026-04-14 17:10:38.178873,114577,1609504131882818,1731851243,0.952576,-0.228384,-0.232288,29.11125,12.18,13.06375,-20.416,-9.816001,-15.368001,concentric,2,3.0,32676.0,162530.0,78297.0,163208.0,89744.0
2026-04-14 17:10:38.181532,114578,1609504131892154,1731861997,1.05408,-0.163968,-0.35136,24.29875,12.53,13.36125,-20.400002,-9.400001,-14.616001,concentric,2,3.0,32676.0,162530.0,78297.0,163208.0,89744.0
2026-04-14 17:10:38.194004,114579,1609504131901057,1731870680,1.05408,-0.163968,-0.35136,5.7575,14.07875,4.8125,-20.400002,-9.400001,-14.616001,concentric,2,3.0,32676.0,162530.0,78297.0,163208.0,89744.0
2026-04-14 17:10:38.194350,114580,1609504131915520,1731885600,0.991616,-0.35136,-0.345504,-8.295,20.83375,0.2275,-20.944,-9.456,-14.088,concentric,2,3.0,32676.0,162530.0,78297.0,163208.0,89744.0
2026-04-14 17:10:38.194458,114581,1609504131924510,1731894330,0.991616,-0.35136,-0.345504,-15.82,22.44375,-3.5875,-20.944,-9.456,-14.088,concentric,2,3.0,32676.0,162530.0,78297.0,163208.0,89744.0
2026-04-14 17:10:38.194712,114582,1609504131938990,1731909289,0.884256,-0.462624,-0.183488,-12.1275,21.20125,-2.7475,-21.496,-9.0,-13.784,concentric,2,3.0,32676.0,162530.0,78297.0,163208.0,89744.0
2026-04-14 17:10:38.203571,114583,1609504131947920,1731918012,0.884256,-0.210816,-0.394304,2.21375,18.29625,-0.51625,-21.496,-9.0,-13.784,concentric,2,3.0,32676.0,162530.0,78297.0,163208.0,89744.0
2026-04-14 17:10:38.214689,114584,1609504131962383,1731930875,0.94672,-0.210816,-0.394304,10.9025,16.8525,1.26875,-21.144001,-8.984,-17.08,concentric,2,3.0,32676.0,162530.0,78297.0,163208.0,89744.0
2026-04-14 17:10:38.225932,114585,1609504131971679,1731941618,1.04432,-0.257664,-0.238144,9.16125,20.58875,3.35125,-20.888,-8.368,-14.864,concentric,2,3.0,32676.0,162530.0,78297.0,163208.0,89744.0
2026-04-14 17:10:38.258568,114597,1609504131980768,1731950601,1.04432,-0.257664,-0.238144,0.25375,25.2525,2.1525,-20.888,-8.368,-14.864,concentric,2,3.0,32819.0,162643.0,78356.0,163612.0,89644.0
2026-04-14 17:10:38.261156,114598,1609504131995339,1731965525,0.991616,-0.37088,-0.35136,-12.565,28.69125,-3.59625,-22.024,-8.152,-14.192,concentric,2,3.0,32819.0,162643.0,78356.0,163612.0,89644.0
2026-04-14 17:10:38.263622,114599,1609504132004397,1731974267,0.991616,-0.37088,-0.35136,-18.0775,29.84625,-9.73875,-22.024,-8.152,-14.192,concentric,2,3.0,32819.0,162643.0,78356.0,163612.0,89644.0
2026-04-14 17:10:38.277449,114600,1609504132018876,1731989201,1.020896,-0.421632,-0.359168,-13.9475,30.91375,-12.005,-23.056002,-7.776001,-11.992001,concentric,2,3.0,32819.0,162643.0,78356.0,163612.0,89644.0
2026-04-14 17:10:38.283668,114601,1609504132027782,1731997864,1.020896,-0.421632,-0.359168,-4.8825,32.27875,-11.13,-23.056002,-7.776001,-11.992001,concentric,2,3.0,32819.0,162643.0,78356.0,163612.0,89644.0
2026-04-14 17:10:38.292433,114602,1609504132036704,1732006584,1.032608,-0.402112,-0.378688,5.03125,34.23,-8.51375,-21.584002,-8.320001,-14.648001,concentric,2,3.0,32819.0,162643.0,78356.0,163612.0,89644.0
2026-04-14 17:10:38.307227,114603,1609504132051239,1732021507,1.05408,-0.265472,-0.425536,10.4825,37.415,-7.1225,-21.480001,-7.824,-14.112,concentric,2,3.0,32819.0,162643.0,78356.0,163612.0,89644.0
2026-04-14 17:10:38.318609,114604,1609504132060153,1732030208,1.05408,-0.265472,-0.425536,9.61625,42.385,-8.18125,-21.480001,-7.824,-14.112,concentric,2,3.0,32819.0,162643.0,78356.0,163612.0,89644.0
2026-04-14 17:10:38.329800,114605,1609504132074647,1732043055,1.06384,-0.374784,-0.286944,4.48875,44.388752,-11.4975,-21.976002,-7.816001,-13.808001,concentric,2,3.0,32819.0,162643.0,78356.0,163612.0,89644.0
2026-04-14 17:10:38.359037,114616,1609504132083926,1732053897,1.06384,-0.374784,-0.286944,-3.78875,44.51125,-14.8225,-21.976002,-7.816001,-13.808001,eccentric,2,3.0,32626.0,161898.0,77894.0,163088.0,88939.0
2026-04-14 17:10:38.361076,114617,1609504132098477,1732066823,1.04432,-0.41968,-0.269376,-4.22625,43.32125,-14.735,-21.84,-7.896,-12.928,eccentric,2,3.0,32626.0,161898.0,77894.0,163088.0,88939.0
2026-04-14 17:10:38.362006,114618,1609504132107667,1732077588,1.04432,-0.41968,-0.269376,4.06,41.46625,-15.56625,-21.84,-7.896,-12.928,eccentric,2,3.0,32626.0,161898.0,77894.0,163088.0,88939.0
2026-04-14 17:10:38.372277,114619,1609504132116609,1732086276,1.087264,-0.314272,-0.134688,12.38125,41.2475,-16.24,-22.768002,-7.392,-11.456,eccentric,2,3.0,32626.0,161898.0,77894.0,163088.0,88939.0
2026-04-14 17:10:38.386104,114620,1609504132131077,1732101204,1.14192,-0.281088,-0.154208,15.3125,42.1225,-14.56875,-22.248001,-7.656,-13.192,eccentric,2,3.0,32626.0,161898.0,77894.0,163088.0,88939.0
2026-04-14 17:10:38.396000,114621,1609504132139997,1732109890,1.14192,-0.281088,-0.154208,15.37375,40.48625,-13.90375,-22.248001,-7.656,-13.192,eccentric,2,3.0,32626.0,161898.0,77894.0,163088.0,88939.0
2026-04-14 17:10:38.408383,114622,1609504132154555,1732124827,1.108736,-0.349408,-0.111264,11.62875,39.19125,-14.91875,-22.376001,-7.776001,-13.336,eccentric,2,3.0,32626.0,161898.0,77894.0,163088.0,88939.0
2026-04-14 17:10:38.418582,114623,1609504132163476,1732133541,1.108736,-0.349408,-0.111264,4.9525,39.357502,-16.31,-22.376001,-7.776001,-13.336,eccentric,2,3.0,32626.0,161898.0,77894.0,163088.0,88939.0
2026-04-14 17:10:38.444717,114624,1609504132172362,1732142217,0.950624,-0.3416,-0.203008,1.7325,38.45625,-17.66625,-22.368002,-7.664001,-13.200001,eccentric,2,3.0,32626.0,161898.0,77894.0,163088.0,88939.0
2026-04-14 17:10:38.517418,114635,1609504132186952,1732157142,0.950624,-0.3416,-0.203008,4.0425,35.88375,-16.35375,-22.368002,-7.664001,-13.200001,eccentric,2,3.0,33152.0,160110.0,78835.0,161450.0,89656.0
2026-04-14 17:10:38.519947,114636,1609504132195925,1732165890,1.013088,-0.279136,-0.074176,7.18375,32.3225,-15.61875,-23.176,-7.008,-11.008,eccentric,2,3.0,33152.0,160110.0,78835.0,161450.0,89656.0
2026-04-14 17:10:38.522385,114637,1609504132210359,1732178720,0.96624,-0.345504,-0.347456,6.79,27.5625,-13.8425,-23.976002,-6.992,-10.960001,eccentric,2,3.0,33152.0,160110.0,78835.0,161450.0,89656.0
2026-04-14 17:10:38.524886,114638,1609504132219499,1732189461,0.96624,-0.345504,-0.347456,2.2925,24.3425,-11.06,-23.976002,-6.992,-10.960001,eccentric,2,3.0,33152.0,160110.0,78835.0,161450.0,89656.0
2026-04-14 17:10:38.527435,114639,1609504132233968,1732202315,0.921344,-0.277184,-0.11712,0.28,21.3325,-10.43,-24.168001,-7.344,-11.344001,eccentric,2,3.0,33152.0,160110.0,78835.0,161450.0,89656.0
2026-04-14 17:10:38.529970,114640,1609504132243119,1732213033,0.921344,-0.277184,-0.11712,3.395,16.9575,-10.325,-24.168001,-7.344,-11.344001,eccentric,2,3.0,33152.0,160110.0,78835.0,161450.0,89656.0
2026-04-14 17:10:38.532405,114641,1609504132252110,1732221751,0.895968,-0.300608,-0.255712,6.18625,14.34125,-11.05125,-23.808,-7.392,-11.6,eccentric,2,3.0,33152.0,160110.0,78835.0,161450.0,89656.0
2026-04-14 17:10:38.534940,114642,1609504132266721,1732236647,0.895968,-0.300608,-0.255712,10.535,10.57875,-9.205,-23.808,-7.392,-11.6,eccentric,2,3.0,33152.0,160110.0,78835.0,161450.0,89656.0
2026-04-14 17:10:38.537364,114643,1609504132275706,1732245365,0.99552,-0.318176,-0.142496,10.8675,8.5225,-7.72625,-23.248001,-7.400001,-11.688001,eccentric,2,3.0,33152.0,160110.0,78835.0,161450.0,89656.0
2026-04-14 17:10:38.567511,114654,1609504132290270,1732260293,0.987712,-0.240096,-0.013664,14.67375,5.6875,-8.54875,-23.248001,-7.400001,-11.384001,eccentric,2,3.0,37648.0,170301.0,87259.0,171928.0,97965.0
2026-04-14 17:10:38.569957,114655,1609504132299210,1732268978,0.987712,-0.240096,-0.013664,22.8375,3.5175,-8.16375,-23.36,-7.224001,-11.384001,eccentric,2,3.0,37648.0,170301.0,87259.0,171928.0,97965.0
2026-04-14 17:10:38.572439,114656,1609504132313723,1732283974,0.895968,-0.144448,-0.177632,26.90625,2.135,-10.1325,-23.2,-7.36,-11.52,eccentric,2,3.0,37648.0,170301.0,87259.0,171928.0,97965.0
2026-04-14 17:10:38.579012,114657,1609504132322661,1732292719,0.895968,-0.144448,-0.177632,25.94375,0.5775,-12.145,-23.2,-7.36,-11.52,eccentric,2,3.0,37648.0,170301.0,87259.0,171928.0,97965.0
2026-04-14 17:10:38.586789,114658,1609504132331665,1732301402,0.968192,-0.18544,0.013664,19.48625,-0.21875,-11.80375,-23.080002,-7.32,-10.136001,eccentric,2,3.0,37648.0,170301.0,87259.0,171928.0,97965.0
2026-04-14 17:10:38.600968,114659,1609504132346174,1732316274,0.968192,-0.18544,0.013664,8.70625,-0.90125,-10.87625,-23.080002,-7.32,-10.136001,eccentric,2,3.0,37648.0,170301.0,87259.0,171928.0,97965.0
2026-04-14 17:10:38.610098,114660,1609504132355104,1732324979,1.028704,-0.335744,-0.044896,-1.09375,-0.48125,-10.386251,-22.512001,-7.424,-12.688001,eccentric,2,3.0,37648.0,170301.0,87259.0,171928.0,97965.0
2026-04-14 17:10:38.625231,114661,1609504132369578,1732339859,1.028704,-0.335744,-0.044896,1.365,-2.3625,-5.775,-22.512001,-7.424,-12.688001,eccentric,2,3.0,37648.0,170301.0,87259.0,171928.0,97965.0
2026-04-14 17:10:38.656080,114672,1609504132378538,1732348905,1.013088,-0.216672,0.011712,8.54,-3.5,-4.97,-22.272001,-7.656,-12.632001,eccentric,2,3.0,39881.0,175914.0,91020.0,177869.0,101869.0
2026-04-14 17:10:38.658948,114673,1609504132387561,1732357623,1.013088,-0.216672,0.011712,9.73875,-5.04,-4.6725,-22.272001,-7.656,-12.632001,eccentric,2,3.0,39881.0,175914.0,91020.0,177869.0,101869.0
2026-04-14 17:10:38.661539,114674,1609504132402196,1732372488,0.962336,-0.236192,-0.255712,4.64625,-6.5975,-1.1725,-23.624,-6.76,-10.896001,eccentric,2,3.0,39881.0,175914.0,91020.0,177869.0,101869.0
2026-04-14 17:10:38.666434,114675,1609504132411119,1732381172,0.886208,-0.271328,-0.138592,0.69125,-8.09375,-1.35625,-23.624,-6.76,-12.224001,eccentric,2,3.0,39881.0,175914.0,91020.0,177869.0,101869.0
2026-04-14 17:10:38.679001,114676,1609504132425633,1732394002,0.886208,-0.271328,-0.138592,-1.82,-9.5025,-0.3325,-24.232,-7.024,-12.224001,eccentric,2,3.0,39881.0,175914.0,91020.0,177869.0,101869.0
2026-04-14 17:10:38.693481,114677,1609504132434865,1732404742,1.003328,-0.304512,0.00976,-0.56875,-10.745,3.0625,-23.952002,-7.304,-11.944,eccentric,2,3.0,39881.0,175914.0,91020.0,177869.0,101869.0
2026-04-14 17:10:38.705791,114678,1609504132449394,1732419599,1.003328,-0.304512,0.00976,3.0275,-11.71625,4.40125,-23.952002,-7.304,-11.944,eccentric,2,3.0,39881.0,175914.0,91020.0,177869.0,101869.0
2026-04-14 17:10:38.712631,114679,1609504132458319,1732428281,0.925248,-0.300608,-0.242048,4.75125,-12.075,6.01125,-22.504002,-7.568,-13.024,eccentric,2,3.0,39881.0,175914.0,91020.0,177869.0,101869.0
2026-04-14 17:10:38.721382,114680,1609504132467242,1732436958,0.925248,-0.300608,-0.242048,2.5025,-12.425,7.5775,-22.504002,-7.568,-13.024,eccentric,2,3.0,39881.0,175914.0,91020.0,177869.0,101869.0
2026-04-14 17:10:38.756073,114691,1609504132482290,1732451888,0.950624,-0.244,-0.121024,-5.5825,-12.46875,8.68,-22.568,-7.16,-13.096001,eccentric,2,3.0,38750.0,173712.0,89070.0,175387.0,100042.0
2026-04-14 17:10:38.759038,114692,1609504132491240,1732460713,0.950624,-0.290848,-0.072224,-14.6825,-12.425,9.61625,-22.568,-7.16,-13.096001,eccentric,2,3.0,38750.0,173712.0,89070.0,175387.0,100042.0
2026-04-14 17:10:38.761431,114693,1609504132505745,1732475618,0.935008,-0.290848,-0.072224,-20.405,-13.04625,10.08,-23.400002,-6.920001,-13.144001,eccentric,2,3.0,38750.0,173712.0,89070.0,175387.0,100042.0
2026-04-14 17:10:38.770271,114694,1609504132514696,1732484314,0.88816,-0.343552,-0.142496,-18.06875,-14.23625,11.261251,-23.160002,-7.552001,-13.328001,eccentric,2,3.0,38750.0,173712.0,89070.0,175387.0,100042.0
2026-04-14 17:10:38.807189,114695,1609504132523650,1732492982,0.88816,-0.343552,-0.142496,-11.1825,-14.88375,11.66375,-23.160002,-7.552001,-13.328001,eccentric,2,3.0,38750.0,173712.0,89070.0,175387.0,100042.0
2026-04-14 17:10:38.832763,114696,1609504132538159,1732507921,1.036512,-0.298656,-0.199104,-2.38875,-16.21375,12.74,-23.064001,-7.336,-12.208,eccentric,2,3.0,38750.0,173712.0,89070.0,175387.0,100042.0
2026-04-14 17:10:38.858209,114697,1609504132547126,1732516616,1.036512,-0.298656,-0.199104,1.96,-17.33375,15.11125,-23.064001,-7.336,-12.208,eccentric,2,3.0,38750.0,173712.0,89070.0,175387.0,100042.0
2026-04-14 17:10:38.865306,114698,1609504132561614,1732531477,1.108736,-0.271328,-0.203008,-2.93125,-18.10375,14.2625,-22.864,-6.872,-12.752001,eccentric,2,3.0,38750.0,173712.0,89070.0,175387.0,100042.0
2026-04-14 17:10:38.867811,114699,1609504132570516,1732540174,1.108736,-0.271328,-0.203008,-6.85125,-21.2975,13.125,-22.864,-6.872,-12.752001,eccentric,2,3.0,38750.0,173712.0,89070.0,175387.0,100042.0
2026-04-14 17:10:38.895226,114710,1609504132585133,1732555140,1.089216,-0.267424,-0.32208,-6.53625,-26.2675,11.62,-23.392,-6.88,-10.024,eccentric,2,3.0,36894.0,169118.0,85869.0,170584.0,96851.0
2026-04-14 17:10:38.897776,114711,1609504132594048,1732563801,0.977952,-0.306464,-0.22448,-7.34125,-30.94875,8.4,-23.664001,-7.000001,-11.272,eccentric,2,3.0,36894.0,169118.0,85869.0,170584.0,96851.0
2026-04-14 17:10:38.900272,114712,1609504132602971,1732572470,0.977952,-0.306464,-0.22448,-0.4725,-35.70875,9.21375,-23.664001,-7.000001,-11.272,eccentric,2,3.0,36894.0,169118.0,85869.0,170584.0,96851.0
2026-04-14 17:10:38.902633,114713,1609504132617437,1732587342,1.052128,-0.35136,-0.44896,3.22875,-38.96375,8.54,-24.088001,-6.928001,-12.912001,eccentric,2,3.0,36894.0,169118.0,85869.0,170584.0,96851.0
2026-04-14 17:10:38.905264,114714,1609504132626467,1732596053,1.052128,-0.35136,-0.44896,8.05875,-41.86875,7.7175,-24.088001,-6.928001,-12.912001,eccentric,2,3.0,36894.0,169118.0,85869.0,170584.0,96851.0
2026-04-14 17:10:38.907333,114715,1609504132641095,1732611033,1.116544,-0.343552,-0.242048,10.14125,-44.7825,6.72875,-23.624,-7.464,-13.472001,eccentric,2,3.0,36894.0,169118.0,85869.0,170584.0,96851.0
2026-04-14 17:10:38.909931,114716,1609504132650006,1732619709,1.116544,-0.343552,-0.242048,9.82625,-45.75375,6.79875,-23.624,-7.464,-13.472001,eccentric,2,3.0,36894.0,169118.0,85869.0,170584.0,96851.0
2026-04-14 17:10:38.921120,114717,1609504132664540,1732634627,1.08336,-0.406016,-0.36112,11.4275,-45.50875,8.51375,-22.792002,-7.208,-13.624001,eccentric,2,3.0,36894.0,169118.0,85869.0,170584.0,96851.0
2026-04-14 17:10:38.928672,114718,1609504132673493,1732643295,1.124352,-0.503616,-0.169824,14.20125,-43.82875,10.14125,-22.104002,-8.144,-14.616001,eccentric,2,3.0,36894.0,169118.0,85869.0,170584.0,96851.0
2026-04-14 17:10:38.960822,114729,1609504132682868,1732652042,1.124352,-0.503616,-0.169824,13.95625,-43.8025,14.1575,-22.104002,-8.144,-14.616001,eccentric,2,3.0,35977.0,167950.0,83912.0,169740.0,95389.0
2026-04-14 17:10:38.965271,114730,1609504132697397,1732667010,1.036512,-0.47824,-0.288896,12.97625,-44.21375,24.82375,-22.328001,-7.344,-14.320001,eccentric,2,3.0,35977.0,167950.0,83912.0,169740.0,95389.0
2026-04-14 17:10:38.967609,114731,1609504132706322,1732675684,1.036512,-0.47824,-0.288896,16.98375,-40.36375,27.3875,-22.328001,-7.344,-14.320001,eccentric,2,3.0,35977.0,167950.0,83912.0,169740.0,95389.0
2026-04-14 17:10:38.974758,114732,1609504132720852,1732690686,1.10288,-0.398208,-0.17568,18.27875,-39.71625,19.48625,-22.736002,-7.12,-14.256001,eccentric,2,3.0,35977.0,167950.0,83912.0,169740.0,95389.0
2026-04-14 17:10:38.985168,114733,1609504132729777,1732699370,1.10288,-0.398208,-0.17568,10.7275,-37.05625,25.515,-22.736002,-7.12,-14.256001,eccentric,2,3.0,35977.0,167950.0,83912.0,169740.0,95389.0
2026-04-14 17:10:38.993771,114734,1609504132738681,1732708092,1.0248,-0.394304,-0.255712,-0.77875,-33.24125,25.0075,-21.696001,-7.592001,-15.248001,eccentric,2,3.0,35977.0,167950.0,83912.0,169740.0,95389.0
2026-04-14 17:10:39.008550,114735,1609504132753157,1732722994,1.0248,-0.495808,-0.333792,-14.58625,-29.286251,21.44625,-21.696001,-7.592001,-14.72,eccentric,2,3.0,35977.0,167950.0,83912.0,169740.0,95389.0
2026-04-14 17:10:39.017633,114736,1609504132762077,1732731668,1.018944,-0.495808,-0.333792,-21.7175,-26.06625,22.3475,-21.296001,-7.848001,-14.72,eccentric,2,3.0,35977.0,167950.0,83912.0,169740.0,95389.0
2026-04-14 17:10:39.031532,114737,1609504132776555,1732746613,1.050176,-0.488,-0.15616,-22.39125,-23.73875,23.6075,-21.632002,-7.888001,-15.696001,eccentric,2,3.0,35977.0,167950.0,83912.0,169740.0,95389.0
2026-04-14 17:10:39.059688,114748,1609504132785603,1732755320,1.050176,-0.488,-0.15616,-18.64625,-22.70625,24.0975,-21.632002,-7.888001,-15.696001,eccentric,2,3.0,36850.0,170154.0,85305.0,171931.0,96941.0
2026-04-14 17:10:39.060994,114749,1609504132800250,1732770259,0.972096,-0.404064,-0.35136,-11.71625,-22.61875,25.1125,-22.76,-7.880001,-13.360001,eccentric,2,3.0,36850.0,170154.0,85305.0,171931.0,96941.0
2026-04-14 17:10:39.068920,114750,1609504132809214,1732778972,0.972096,-0.404064,-0.35136,-8.33875,-21.35,24.465,-22.76,-7.880001,-13.360001,eccentric,2,3.0,36850.0,170154.0,85305.0,171931.0,96941.0
2026-04-14 17:10:39.073457,114751,1609504132818142,1732787699,1.030656,-0.325984,-0.21472,-9.1175,-17.6575,23.2575,-23.272001,-8.056001,-14.416,eccentric,2,3.0,36850.0,170154.0,85305.0,171931.0,96941.0
2026-04-14 17:10:39.087621,114752,1609504132832611,1732802564,1.030656,-0.325984,-0.21472,-13.6325,-14.23625,20.16875,-23.272001,-8.056001,-14.416,eccentric,2,3.0,36850.0,170154.0,85305.0,171931.0,96941.0
2026-04-14 17:10:39.097730,114753,1609504132841600,1732811253,1.016992,-0.329888,-0.247904,-20.50125,-12.20625,17.17625,-21.472,-8.488001,-15.816001,eccentric,2,3.0,36850.0,170154.0,85305.0,171931.0,96941.0
2026-04-14 17:10:39.111533,114754,1609504132856108,1732826233,1.011136,-0.267424,-0.203008,-26.69625,-10.885,14.35875,-21.464,-9.296001,-15.632001,eccentric,2,3.0,36850.0,170154.0,85305.0,171931.0,96941.0
2026-04-14 17:10:39.121504,114755,1609504132865107,1732834914,1.011136,-0.267424,-0.203008,-33.013752,-9.7475,7.53375,-21.464,-9.296001,-15.632001,eccentric,2,3.0,36850.0,170154.0,85305.0,171931.0,96941.0
2026-04-14 17:10:39.203927,114766,1609504132879610,1732849753,0.864736,-0.363072,-0.247904,-39.6375,-8.12875,0.51625,-22.128,-9.344001,-14.368001,eccentric,2,3.0,33523.0,163059.0,79733.0,164503.0,91047.0
2026-04-14 17:10:39.218989,114767,1609504132888559,1732858489,0.864736,-0.363072,-0.247904,-36.925,-9.33625,-5.08375,-22.128,-9.344001,-14.368001,eccentric,2,3.0,33523.0,163059.0,79733.0,164503.0,91047.0
2026-04-14 17:10:39.221477,114768,1609504132897594,1732867239,0.892064,-0.347456,-0.447008,-26.60875,-11.29625,-8.21625,-22.368002,-9.952001,-14.496,eccentric,2,3.0,33523.0,163059.0,79733.0,164503.0,91047.0
2026-04-14 17:10:39.223450,114769,1609504132912084,1732882124,0.892064,-0.347456,-0.447008,-18.3925,-12.41625,-13.3,-22.368002,-9.952001,-14.496,eccentric,2,3.0,33523.0,163059.0,79733.0,164503.0,91047.0
2026-04-14 17:10:39.226560,114770,1609504132920985,1732890778,0.884256,-0.2928,-0.406016,-19.04,-11.6375,-18.45375,-21.976002,-10.168,-15.304001,eccentric,2,3.0,33523.0,163059.0,79733.0,164503.0,91047.0
2026-04-14 17:10:39.229060,114771,1609504132935459,1732905700,0.9272,-0.384544,-0.316224,-20.3,-10.43,-21.805,-21.048,-11.112,-15.296001,eccentric,2,3.0,33523.0,163059.0,79733.0,164503.0,91047.0
2026-04-14 17:10:39.234048,114772,1609504132944371,1732914399,0.9272,-0.384544,-0.316224,-23.6075,-9.03875,-24.64,-21.048,-11.112,-15.296001,eccentric,2,3.0,33523.0,163059.0,79733.0,164503.0,91047.0
2026-04-14 17:10:39.236615,114773,1609504132958856,1732927231,0.856928,-0.396256,-0.384544,-17.68375,-7.79625,-24.57875,-20.656,-11.408001,-15.568001,eccentric,2,3.0,33523.0,163059.0,79733.0,164503.0,91047.0
2026-04-14 17:10:39.238890,114774,1609504132968044,1732938003,0.856928,-0.396256,-0.384544,-12.27625,-7.4025,-26.4425,-20.656,-11.408001,-15.568001,eccentric,2,3.0,33523.0,163059.0,79733.0,164503.0,91047.0
2026-04-14 17:10:39.243544,114775,1609504132977011,1732946751,0.913536,-0.411872,-0.206912,-4.83,-7.735,-26.43375,-20.880001,-11.736001,-15.576001,eccentric,2,3.0,33523.0,163059.0,79733.0,164503.0,91047.0
2026-04-14 17:10:39.268883,114786,1609504132991555,1732961695,0.913536,-0.411872,-0.206912,1.00625,-8.4525,-26.06625,-20.880001,-11.736001,-15.576001,eccentric,2,3.0,33543.0,163307.0,79927.0,164917.0,91099.0
2026-04-14 17:10:39.271368,114787,1609504133000607,1732970431,0.83936,-0.372832,-0.394304,6.18625,-8.715,-25.7075,-21.016,-11.944,-15.456,eccentric,2,3.0,33543.0,163307.0,79927.0,164917.0,91099.0
2026-04-14 17:10:39.273409,114788,1609504133015167,1732985302,0.837408,-0.269376,-0.130784,7.37625,-6.57125,-25.31375,-20.488,-13.000001,-16.272001,eccentric,2,3.0,33543.0,163307.0,79927.0,164917.0,91099.0
2026-04-14 17:10:39.280119,114789,1609504133024131,1732994049,0.837408,-0.269376,-0.130784,5.04875,-2.96625,-25.54125,-20.488,-13.000001,-16.272001,eccentric,2,3.0,33543.0,163307.0,79927.0,164917.0,91099.0
2026-04-14 17:10:39.287570,114790,1609504133033156,1733002775,0.837408,-0.269376,-0.130784,1.39125,1.26875,-24.64,-20.488,-13.000001,-16.272001,eccentric,2,3.0,33543.0,163307.0,79927.0,164917.0,91099.0
2026-04-14 17:10:39.302736,114791,1609504133047645,1733017652,0.774944,-0.238144,-0.314272,-3.70125,5.5825,-22.14625,-20.336,-12.912001,-14.976001,eccentric,2,3.0,33543.0,163307.0,79927.0,164917.0,91099.0
2026-04-14 17:10:39.314021,114792,1609504133056582,1733026328,0.749568,-0.20496,-0.22448,-5.73125,8.54,-23.80875,-21.096,-13.136001,-16.056002,eccentric,2,3.0,33543.0,163307.0,79927.0,164917.0,91099.0
2026-04-14 17:10:39.326513,114793,1609504133071069,1733041231,0.749568,-0.20496,-0.22448,-6.405,11.78625,-36.18125,-21.096,-13.136001,-16.056002,eccentric,2,3.0,33543.0,163307.0,79927.0,164917.0,91099.0
2026-04-14 17:10:39.335267,114794,1609504133079977,1733049930,0.798368,-0.232288,-0.148352,-3.955,11.585,-52.85875,-20.176,-13.904,-15.336,eccentric,2,3.0,33543.0,163307.0,79927.0,164917.0,91099.0
2026-04-14 17:10:39.367690,114805,1609504133094524,1733064859,0.798368,-0.232288,-0.148352,-0.95375,10.80625,-51.37125,-20.176,-13.904,-15.336,eccentric,2,3.0,32750.0,161219.0,78598.0,162915.0,89627.0
2026-04-14 17:10:39.370209,114806,1609504133103476,1733073543,0.827648,-0.325984,-0.093696,3.40375,12.74875,-48.7725,-20.688002,-14.344001,-14.096001,eccentric,2,3.0,32750.0,161219.0,78598.0,162915.0,89627.0
2026-04-14 17:10:39.372239,114807,1609504133112436,1733082209,0.827648,-0.325984,-0.093696,10.89375,14.63875,-46.3225,-20.688002,-14.344001,-14.096001,eccentric,2,3.0,32750.0,161219.0,78598.0,162915.0,89627.0
2026-04-14 17:10:39.381523,114808,1609504133127026,1733097126,0.755424,-0.193248,-0.257664,13.3,18.41,-45.01,-20.28,-14.584001,-15.736001,eccentric,2,3.0,32750.0,161219.0,78598.0,162915.0,89627.0
2026-04-14 17:10:39.391099,114809,1609504133136032,1733105797,0.755424,-0.177632,-0.085888,14.93625,20.51875,-41.04625,-19.768002,-15.080001,-17.392,eccentric,2,3.0,32750.0,161219.0,78598.0,162915.0,89627.0
2026-04-14 17:10:39.407381,114810,1609504133150524,1733120701,0.755424,-0.177632,-0.085888,11.73375,26.425,-47.20625,-19.768002,-15.080001,-17.392,eccentric,2,3.0,32750.0,161219.0,78598.0,162915.0,89627.0
2026-04-14 17:10:39.415256,114811,1609504133159452,1733129373,0.765184,-0.308416,-0.20496,11.78625,28.735,-53.6025,-19.608002,-15.608001,-15.200001,eccentric,2,3.0,32750.0,161219.0,78598.0,162915.0,89627.0
2026-04-14 17:10:39.450874,114812,1609504133173958,1733144244,0.765184,-0.308416,-0.20496,15.54,30.30125,-46.99625,-19.608002,-15.608001,-15.200001,eccentric,2,3.0,32750.0,161219.0,78598.0,162915.0,89627.0
2026-04-14 17:10:39.480278,114823,1609504133183100,1733153471,0.755424,-0.17568,-0.181536,18.69875,30.9575,-41.65875,-19.560001,-15.936001,-14.312,eccentric,2,3.0,35596.0,164658.0,82903.0,166239.0,93692.0
2026-04-14 17:10:39.482772,114824,1609504133192094,1733162143,0.755424,-0.17568,-0.181536,18.52375,31.43875,-37.10875,-19.560001,-15.936001,-14.312,eccentric,2,3.0,35596.0,164658.0,82903.0,166239.0,93692.0
2026-04-14 17:10:39.484902,114825,1609504133206581,1733174998,0.74176,-0.0976,-0.41968,17.5525,33.08375,-35.4375,-21.016,-15.736001,-13.424001,eccentric,2,3.0,35596.0,164658.0,82903.0,166239.0,93692.0
2026-04-14 17:10:39.487767,114826,1609504133215844,1733185789,0.74176,-0.17568,-0.169824,14.13125,33.22375,-40.92375,-21.016,-15.736001,-13.424001,eccentric,2,3.0,35596.0,164658.0,82903.0,166239.0,93692.0
2026-04-14 17:10:39.489763,114827,1609504133230445,1733200732,0.687104,-0.187392,-0.169824,11.935,31.52625,-46.12125,-20.632002,-16.248001,-15.408001,eccentric,2,3.0,35596.0,164658.0,82903.0,166239.0,93692.0
2026-04-14 17:10:39.495286,114828,1609504133239470,1733209417,0.757376,-0.208864,0.027328,17.64,29.5575,-43.085,-19.328001,-16.936,-15.240001,eccentric,2,3.0,35596.0,164658.0,82903.0,166239.0,93692.0
2026-04-14 17:10:39.505311,114829,1609504133248416,1733218088,0.757376,-0.208864,0.027328,17.4125,29.05875,-40.53875,-19.328001,-16.936,-15.240001,eccentric,2,3.0,35596.0,164658.0,82903.0,166239.0,93692.0
2026-04-14 17:10:39.517780,114830,1609504133262899,1733233011,0.854976,-0.288896,-0.38064,16.0475,30.3275,-37.23125,-18.856,-17.112001,-15.376,eccentric,2,3.0,35596.0,164658.0,82903.0,166239.0,93692.0
2026-04-14 17:10:39.550985,114831,1609504133271821,1733241705,0.854976,-0.288896,-0.38064,6.06375,34.3175,-40.4075,-18.856,-17.112001,-15.376,eccentric,2,3.0,35596.0,164658.0,82903.0,166239.0,93692.0
