pc_time,serial_num,sensor_ts,host_ts,ax,ay,az,gx,gy,gz,mx,my,mz,phase,rpe,weight_kg,ppg_a,ppg_b,ppg_c,ppg_d,ppg_e
2026-04-14 17:10:35.188798,114010,1609504128857242,1728827175,0.636352,-0.288896,-0.417728,-5.1625,-25.935,29.58375,-20.184,-13.200001,-15.272,eccentric,2,3.0,31169.0,157159.0,76531.0,157784.0,89363.0
2026-04-14 17:10:35.190993,114011,1609504128871755,1728840179,0.640256,-0.181536,-0.304512,6.2475,-20.16875,27.615,-21.424002,-12.632001,-14.216001,eccentric,2,3.0,31169.0,157159.0,76531.0,157784.0,89363.0
2026-04-14 17:10:35.193918,114012,1609504128881028,1728850931,0.640256,-0.181536,-0.304512,8.155,-22.53125,28.411251,-21.424002,-12.632001,-14.216001,eccentric,2,3.0,31169.0,157159.0,76531.0,157784.0,89363.0
2026-04-14 17:10:35.206272,114013,1609504128889978,1728859630,0.854976,-0.26352,-0.257664,2.9575,-25.78625,29.89,-21.544,-12.400001,-17.488,eccentric,2,3.0,31169.0,157159.0,76531.0,157784.0,89363.0
2026-04-14 17:10:35.209177,114014,1609504128904446,1728874481,0.854976,-0.26352,-0.257664,-7.13125,-29.11125,33.775,-21.544,-12.400001,-17.488,eccentric,2,3.0,31169.0,157159.0,76531.0,157784.0,89363.0
2026-04-14 17:10:35.209351,114015,1609504128913378,1728883180,0.788608,-0.290848,-0.31232,-18.22625,-22.855,33.565,-20.536001,-12.088,-15.688001,eccentric,2,3.0,31169.0,157159.0,76531.0,157784.0,89363.0
2026-04-14 17:10:35.209478,114016,1609504128928199,1728898053,0.788608,-0.290848,-0.31232,-15.89,-16.178751,32.445,-20.536001,-12.088,-15.688001,eccentric,2,3.0,31169.0,157159.0,76531.0,157784.0,89363.0
2026-04-14 17:10:35.209593,114017,1609504128937260,1728906796,0.646112,-0.281088,-0.290848,-3.185,-9.24,30.79125,-21.016,-11.096001,-17.768002,eccentric,2,3.0,31169.0,157159.0,76531.0,157784.0,89363.0
2026-04-14 17:10:35.209723,114018,1609504128946216,1728915481,0.646112,-0.281088,-0.290848,5.0575,-2.905,23.275,-21.016,-11.096001,-17.768002,eccentric,2,3.0,31169.0,157159.0,76531.0,157784.0,89363.0
2026-04-14 17:10:35.237281,114029,1609504128961301,1728930441,0.788608,-0.286944,-0.437248,10.4825,-4.4275,20.25625,-21.240002,-10.768001,-15.840001,eccentric,2,3.0,31147.0,155541.0,76560.0,156375.0,89334.0
2026-04-14 17:10:35.239550,114030,1609504128970360,1728939168,0.899872,-0.199104,-0.335744,7.04375,-8.49625,24.24625,-21.064001,-10.360001,-15.6,eccentric,2,3.0,31147.0,155541.0,76560.0,156375.0,89334.0
2026-04-14 17:10:35.242140,114031,1609504128985361,1728954087,0.899872,-0.199104,-0.335744,-6.69375,-8.16375,22.75,-21.064001,-10.360001,-15.6,eccentric,2,3.0,31147.0,155541.0,76560.0,156375.0,89334.0
2026-04-14 17:10:35.249851,114032,1609504128994738,1728964854,0.940864,-0.353312,-0.320128,-15.47,-0.97125,21.18375,-21.392,-10.024,-15.608001,eccentric,2,3.0,31147.0,155541.0,76560.0,156375.0,89334.0
2026-04-14 17:10:35.257357,114033,1609504129003716,1728973556,0.940864,-0.353312,-0.320128,-16.695,3.1325,22.81125,-21.392,-10.024,-15.608001,eccentric,2,3.0,31147.0,155541.0,76560.0,156375.0,89334.0
2026-04-14 17:10:35.273489,114034,1609504129018203,1728988534,0.886208,-0.443104,-0.187392,-10.89375,13.43125,20.34375,-21.552002,-9.448001,-15.632001,eccentric,2,3.0,31147.0,155541.0,76560.0,156375.0,89334.0
2026-04-14 17:10:35.282421,114035,1609504129027121,1728997221,0.886208,-0.443104,-0.187392,10.7975,15.04125,13.79875,-21.552002,-9.448001,-15.632001,eccentric,2,3.0,31147.0,155541.0,76560.0,156375.0,89334.0
2026-04-14 17:10:35.294913,114036,1609504129041587,1729010076,0.93696,-0.437248,-0.365024,29.155,13.3175,7.56875,-20.768002,-9.168,-15.432001,eccentric,2,3.0,31147.0,155541.0,76560.0,156375.0,89334.0
2026-04-14 17:10:35.308653,114037,1609504129050941,1729020824,1.0248,-0.271328,-0.499712,44.79125,10.87625,10.8325,-20.992,-8.864,-17.848001,eccentric,2,3.0,31147.0,155541.0,76560.0,156375.0,89334.0
2026-04-14 17:10:35.337204,114048,1609504129059875,1729029558,1.0248,-0.271328,-0.499712,41.5975,14.3325,10.29875,-20.992,-8.864,-17.848001,eccentric,2,3.0,31848.0,158019.0,77522.0,159135.0,90136.0
2026-04-14 17:10:35.339623,114049,1609504129074427,1729044478,1.13216,-0.347456,-0.339648,29.522501,17.75375,-0.6125,-22.424002,-8.008,-15.048,eccentric,2,3.0,31848.0,158019.0,77522.0,159135.0,90136.0
2026-04-14 17:10:35.342263,114050,1609504129083391,1729053276,1.13216,-0.347456,-0.339648,23.14375,26.34625,-4.445,-22.424002,-8.008,-15.048,eccentric,2,3.0,31848.0,158019.0,77522.0,159135.0,90136.0
2026-04-14 17:10:35.354804,114051,1609504129097889,1729068158,0.979904,-0.581696,-0.181536,16.66,32.445,-9.12625,-21.936,-8.168,-15.416,eccentric,2,3.0,31848.0,158019.0,77522.0,159135.0,90136.0
2026-04-14 17:10:35.362355,114052,1609504129106794,1729076830,0.979904,-0.581696,-0.181536,23.09125,34.0725,-9.93125,-21.936,-8.168,-15.416,eccentric,2,3.0,31848.0,158019.0,77522.0,159135.0,90136.0
2026-04-14 17:10:35.374945,114053,1609504129121255,1729089660,0.96624,-0.495808,-0.298656,37.44125,32.2,-7.5425,-21.224,-7.736001,-16.504002,eccentric,2,3.0,31848.0,158019.0,77522.0,159135.0,90136.0
2026-04-14 17:10:35.384916,114054,1609504129130476,1729100923,1.126304,-0.245952,-0.296704,46.4975,31.395,-6.18625,-21.224,-7.2,-15.416,eccentric,2,3.0,31848.0,158019.0,77522.0,159135.0,90136.0
2026-04-14 17:10:35.396187,114055,1609504129139423,1729109593,1.126304,-0.245952,-0.296704,41.09,32.89125,-8.5225,-21.400002,-7.2,-15.416,eccentric,2,3.0,31848.0,158019.0,77522.0,159135.0,90136.0
2026-04-14 17:10:35.407637,114056,1609504129153928,1729122409,1.067744,-0.396256,-0.197152,23.24875,37.35375,-8.4,-22.12,-6.248,-15.072001,eccentric,2,3.0,31848.0,158019.0,77522.0,159135.0,90136.0
2026-04-14 17:10:35.439017,114067,1609504129163741,1729133215,1.067744,-0.396256,-0.197152,8.91625,40.92375,-10.03625,-22.12,-6.248,-15.072001,eccentric,2,3.0,32189.0,159291.0,77820.0,160648.0,90230.0
2026-04-14 17:10:35.441170,114068,1609504129172729,1729142000,1.001376,-0.542656,-0.206912,3.84125,43.015,-17.535,-22.728,-6.528,-15.104001,eccentric,2,3.0,32189.0,159291.0,77820.0,160648.0,90230.0
2026-04-14 17:10:35.443886,114069,1609504129187249,1729157370,1.001376,-0.542656,-0.206912,11.305,43.3125,-23.26625,-22.728,-6.528,-15.104001,eccentric,2,3.0,32189.0,159291.0,77820.0,160648.0,90230.0
2026-04-14 17:10:35.453982,114070,1609504129196199,1729166073,1.075552,-0.45872,-0.08784,22.49625,40.32,-24.57,-22.68,-6.272,-14.784,eccentric,2,3.0,32189.0,159291.0,77820.0,160648.0,90230.0
2026-04-14 17:10:35.466059,114071,1609504129210679,1729180943,1.075552,-0.372832,-0.427488,29.91625,37.94875,-21.58625,-22.68,-6.272,-14.784,eccentric,2,3.0,32189.0,159291.0,77820.0,160648.0,90230.0
2026-04-14 17:10:35.475925,114072,1609504129219587,1729189631,1.067744,-0.372832,-0.427488,28.866251,37.59,-20.5975,-22.352001,-6.632,-16.152,eccentric,2,3.0,32189.0,159291.0,77820.0,160648.0,90230.0
2026-04-14 17:10:35.524894,114073,1609504129234089,1729202480,1.134112,-0.384544,-0.177632,21.84,37.47625,-23.79125,-22.224,-6.096,-14.568001,eccentric,2,3.0,32189.0,159291.0,77820.0,160648.0,90230.0
2026-04-14 17:10:35.527382,114074,1609504129243319,1729213234,1.134112,-0.384544,-0.177632,12.0925,37.345,-26.215,-22.224,-6.096,-14.568001,eccentric,2,3.0,32189.0,159291.0,77820.0,160648.0,90230.0
2026-04-14 17:10:35.529875,114075,1609504129252235,1729221902,1.011136,-0.550464,-0.308416,5.53875,37.77375,-26.97625,-22.288,-6.672,-16.024,eccentric,2,3.0,32189.0,159291.0,77820.0,160648.0,90230.0
2026-04-14 17:10:35.562416,114086,1609504129266790,1729236832,1.011136,-0.550464,-0.308416,4.96125,37.555,-31.64875,-22.288,-6.672,-16.024,eccentric,2,3.0,34648.0,162421.0,81917.0,164211.0,94045.0
2026-04-14 17:10:35.564913,114087,1609504129275757,1729245577,0.99552,-0.441152,-0.16592,10.54375,35.6125,-34.107502,-22.68,-6.384,-15.136001,eccentric,2,3.0,34648.0,162421.0,81917.0,164211.0,94045.0
2026-04-14 17:10:35.567300,114088,1609504129290282,1729260495,0.99552,-0.441152,-0.16592,20.41375,33.11875,-30.26625,-22.68,-6.384,-15.136001,eccentric,2,3.0,34648.0,162421.0,81917.0,164211.0,94045.0
2026-04-14 17:10:35.569663,114089,1609504129299198,1729269155,1.085312,-0.355264,-0.130784,24.465,33.74875,-28.91,-22.376001,-6.632,-15.432001,eccentric,2,3.0,34648.0,162421.0,81917.0,164211.0,94045.0
2026-04-14 17:10:35.572462,114090,1609504129313697,1729282041,1.003328,-0.372832,-0.27328,17.26375,35.81375,-32.48,-22.352001,-6.808,-14.928,eccentric,2,3.0,34648.0,162421.0,81917.0,164211.0,94045.0
2026-04-14 17:10:35.577441,114091,1609504129322873,1729292853,1.003328,-0.372832,-0.27328,8.68,35.70875,-33.71375,-22.352001,-6.808,-14.928,eccentric,2,3.0,34648.0,162421.0,81917.0,164211.0,94045.0
2026-04-14 17:10:35.604802,114092,1609504129331812,1729301566,1.011136,-0.368928,-0.083936,3.28125,33.53,-33.9325,-22.352001,-6.816001,-13.608001,eccentric,2,3.0,34648.0,162421.0,81917.0,164211.0,94045.0
2026-04-14 17:10:35.607264,114093,1609504129346287,1729316454,1.011136,-0.368928,-0.083936,6.09,30.73,-32.4625,-22.336,-6.816001,-13.608001,eccentric,2,3.0,34648.0,162421.0,81917.0,164211.0,94045.0
2026-04-14 17:10:35.609836,114094,1609504129355225,1729325149,1.046272,-0.374784,-0.025376,5.985,29.435,-33.57375,-22.984001,-6.448,-13.144001,eccentric,2,3.0,34648.0,162421.0,81917.0,164211.0,94045.0
2026-04-14 17:10:35.639776,114105,1609504129370118,1729340106,1.046272,-0.374784,-0.025376,8.56625,25.68125,-29.303751,-22.984001,-6.448,-13.144001,eccentric,2,3.0,41490.0,183883.0,94350.0,185803.0,106431.0
2026-04-14 17:10:35.642425,114106,1609504129379082,1729348806,0.968192,-0.355264,-0.12688,1.56625,25.445,-26.285,-23.272001,-6.76,-13.056001,eccentric,2,3.0,41490.0,183883.0,94350.0,185803.0,106431.0
2026-04-14 17:10:35.644910,114107,1609504129388003,1729357540,0.968192,-0.355264,-0.12688,2.1525,23.2575,-23.616251,-23.272001,-6.76,-13.056001,eccentric,2,3.0,41490.0,183883.0,94350.0,185803.0,106431.0
2026-04-14 17:10:35.657135,114108,1609504129402479,1729372457,1.040416,-0.347456,-0.081984,2.31875,21.14,-23.397501,-23.584002,-6.456,-13.400001,eccentric,2,3.0,41490.0,183883.0,94350.0,185803.0,106431.0
2026-04-14 17:10:35.666025,114109,1609504129411378,1729381150,1.040416,-0.347456,-0.081984,5.5825,17.59625,-20.9475,-23.584002,-6.456,-13.400001,eccentric,2,3.0,41490.0,183883.0,94350.0,185803.0,106431.0
2026-04-14 17:10:35.682288,114110,1609504129425837,1729396042,0.950624,-0.249856,-0.230336,2.89625,13.99125,-19.241251,-22.584002,-7.264,-14.056001,eccentric,2,3.0,41490.0,183883.0,94350.0,185803.0,106431.0
2026-04-14 17:10:35.690758,114111,1609504129434759,1729404694,0.929152,-0.286944,-0.275232,-4.17375,10.68375,-17.885,-22.168001,-6.624001,-13.136001,eccentric,2,3.0,41490.0,183883.0,94350.0,185803.0,106431.0
2026-04-14 17:10:35.702569,114112,1609504129449261,1729417601,0.929152,-0.286944,-0.275232,-12.04875,8.47875,-16.82625,-22.168001,-6.624001,-13.136001,eccentric,2,3.0,41490.0,183883.0,94350.0,185803.0,106431.0
2026-04-14 17:10:35.713934,114113,1609504129458413,1729428359,1.040416,-0.318176,-0.105408,-16.0825,6.055,-15.2775,-22.168001,-7.16,-14.416,eccentric,2,3.0,41490.0,183883.0,94350.0,185803.0,106431.0
2026-04-14 17:10:35.741080,114124,1609504129467386,1729437091,1.040416,-0.318176,-0.105408,-15.627501,4.05125,-12.425,-22.168001,-7.16,-14.416,eccentric,2,3.0,45975.0,191531.0,102780.0,193153.0,116532.0
2026-04-14 17:10:35.745871,114125,1609504129481988,1729452167,1.020896,-0.284992,-0.158112,-12.565,2.345,-10.4125,-22.552002,-7.16,-13.976001,eccentric,2,3.0,45975.0,191531.0,102780.0,193153.0,116532.0
2026-04-14 17:10:35.748400,114126,1609504129490899,1729460859,1.020896,-0.284992,-0.158112,-8.995,0.16625,-8.5575,-22.552002,-7.16,-13.976001,eccentric,2,3.0,45975.0,191531.0,102780.0,193153.0,116532.0
2026-04-14 17:10:35.761468,114127,1609504129505525,1729475729,0.989664,-0.277184,-0.199104,-6.86875,-0.7875,-7.37625,-22.424002,-7.56,-14.632001,eccentric,2,3.0,45975.0,191531.0,102780.0,193153.0,116532.0
2026-04-14 17:10:35.770206,114128,1609504129514475,1729484441,0.977952,-0.236192,-0.257664,-6.16,-1.855,-6.475,-22.128,-7.776001,-13.456,eccentric,2,3.0,45975.0,191531.0,102780.0,193153.0,116532.0
2026-04-14 17:10:35.778513,114129,1609504129523478,1729493223,0.977952,-0.236192,-0.257664,-6.29125,-2.8,-5.7925,-22.128,-7.776001,-13.456,eccentric,2,3.0,45975.0,191531.0,102780.0,193153.0,116532.0
2026-04-14 17:10:35.792594,114130,1609504129537946,1729508091,0.890112,-0.23424,-0.142496,-9.35375,-2.6775,-4.61125,-22.328001,-7.456,-12.912001,eccentric,2,3.0,45975.0,191531.0,102780.0,193153.0,116532.0
2026-04-14 17:10:35.802596,114131,1609504129546913,1729516773,0.890112,-0.23424,-0.142496,-10.3425,-3.33375,-4.375,-22.328001,-7.456,-12.912001,eccentric,2,3.0,45975.0,191531.0,102780.0,193153.0,116532.0
2026-04-14 17:10:35.839832,114142,1609504129561332,1729531658,0.911584,-0.257664,-0.081984,-8.645,-3.78875,-3.26375,-22.704,-7.528,-13.736001,eccentric,2,3.0,44181.0,184144.0,99840.0,186030.0,113817.0
2026-04-14 17:10:35.842320,114143,1609504129570279,1729540435,0.911584,-0.257664,-0.081984,-4.7775,-4.6025,-1.32125,-22.704,-7.528,-13.736001,eccentric,2,3.0,44181.0,184144.0,99840.0,186030.0,113817.0
2026-04-14 17:10:35.844895,114144,1609504129584796,1729553389,0.894016,-0.21472,-0.218624,-3.6225,-4.94375,0.4725,-23.04,-7.592001,-14.128,eccentric,2,3.0,44181.0,184144.0,99840.0,186030.0,113817.0
2026-04-14 17:10:35.876592,114145,1609504129594295,1729564134,0.989664,-0.288896,-0.037088,-6.02875,-4.97,3.185,-22.480001,-7.84,-13.592001,eccentric,2,3.0,44181.0,184144.0,99840.0,186030.0,113817.0
2026-04-14 17:10:35.876983,114146,1609504129603236,1729572822,0.989664,-0.288896,-0.037088,-9.26625,-5.29375,6.09875,-22.480001,-7.84,-13.592001,eccentric,2,3.0,44181.0,184144.0,99840.0,186030.0,113817.0
2026-04-14 17:10:35.878471,114147,1609504129617691,1729587727,1.007232,-0.238144,0.00976,-11.0075,-5.66125,7.56875,-23.088001,-7.544,-12.352,eccentric,2,3.0,44181.0,184144.0,99840.0,186030.0,113817.0
2026-04-14 17:10:35.904226,114148,1609504129626665,1729596484,1.007232,-0.238144,0.00976,-13.545,-5.55625,8.4875,-23.088001,-7.544,-12.352,eccentric,2,3.0,44181.0,184144.0,99840.0,186030.0,113817.0
2026-04-14 17:10:35.908873,114149,1609504129641140,1729611359,0.940864,-0.296704,-0.085888,-15.4525,-5.8275,9.75625,-23.376001,-7.248,-11.672001,eccentric,2,3.0,44181.0,184144.0,99840.0,186030.0,113817.0
2026-04-14 17:10:35.911424,114150,1609504129650073,1729620045,0.940864,-0.296704,-0.085888,-14.525,-6.2825,10.75375,-23.376001,-7.248,-11.672001,eccentric,2,3.0,44181.0,184144.0,99840.0,186030.0,113817.0
2026-04-14 17:10:35.940945,114161,1609504129664926,1729633434,0.960384,-0.343552,-0.27328,-12.03125,-7.95375,13.7725,-23.784,-7.128,-11.944,eccentric,2,3.0,41748.0,177148.0,95697.0,178758.0,109520.0
2026-04-14 17:10:35.944019,114162,1609504129674404,1729644263,1.067744,-0.298656,-0.0976,-11.55875,-9.205,16.51125,-23.904001,-6.984,-13.272,eccentric,2,3.0,41748.0,177148.0,95697.0,178758.0,109520.0
2026-04-14 17:10:35.946508,114163,1609504129683333,1729652971,1.067744,-0.298656,-0.0976,-15.198751,-10.07125,17.7975,-23.904001,-6.984,-13.272,eccentric,2,3.0,41748.0,177148.0,95697.0,178758.0,109520.0
2026-04-14 17:10:35.954018,114164,1609504129697928,1729667855,1.071648,-0.415776,-0.265472,-19.6175,-10.85875,18.9,-23.216002,-7.656,-13.048,eccentric,2,3.0,41748.0,177148.0,95697.0,178758.0,109520.0
2026-04-14 17:10:35.962342,114165,1609504129706988,1729676603,1.071648,-0.415776,-0.265472,-23.89625,-11.261251,15.575,-23.216002,-7.656,-13.048,eccentric,2,3.0,41748.0,177148.0,95697.0,178758.0,109520.0
2026-04-14 17:10:35.972389,114166,1609504129715993,1729685380,1.003328,-0.32208,-0.261568,-25.82125,-11.9,17.40375,-22.68,-7.856,-15.936001,eccentric,2,3.0,41748.0,177148.0,95697.0,178758.0,109520.0
2026-04-14 17:10:35.986343,114167,1609504129730506,1729700268,1.003328,-0.32208,-0.261568,-23.4675,-11.97875,16.84375,-22.68,-7.856,-15.936001,eccentric,2,3.0,41748.0,177148.0,95697.0,178758.0,109520.0
2026-04-14 17:10:35.993855,114168,1609504129739466,1729708939,1.020896,-0.423584,-0.247904,-19.31125,-12.24125,14.4725,-22.648,-7.416,-13.056001,eccentric,2,3.0,41748.0,177148.0,95697.0,178758.0,109520.0
2026-04-14 17:10:36.009821,114169,1609504129753925,1729723820,1.020896,-0.329888,-0.138592,-12.04,-13.825,18.4275,-22.648,-7.416,-13.056001,eccentric,2,3.0,41748.0,177148.0,95697.0,178758.0,109520.0
2026-04-14 17:10:36.044794,114180,1609504129762893,1729732513,1.050176,-0.33184,-0.138592,-7.105,-16.45875,17.2025,-22.312,-7.56,-13.960001,eccentric,2,3.0,39059.0,169309.0,90952.0,170710.0,104487.0
2026-04-14 17:10:36.047493,114181,1609504129777922,1729747438,1.022848,-0.316224,-0.20496,-7.60375,-18.3225,16.178751,-23.104002,-7.608,-12.768001,eccentric,2,3.0,39059.0,169309.0,90952.0,170710.0,104487.0
2026-04-14 17:10:36.050216,114182,1609504129786902,1729756146,1.022848,-0.316224,-0.20496,-10.78,-20.0025,15.3125,-23.104002,-7.608,-12.768001,eccentric,2,3.0,39059.0,169309.0,90952.0,170710.0,104487.0
2026-04-14 17:10:36.052705,114183,1609504129795968,1729764829,1.1224,-0.406016,-0.294752,-16.45,-21.105,13.9475,-23.192001,-7.664001,-11.84,eccentric,2,3.0,39059.0,169309.0,90952.0,170710.0,104487.0
2026-04-14 17:10:36.066502,114184,1609504129810451,1729779709,1.1224,-0.406016,-0.294752,-21.84,-24.5525,16.45875,-23.192001,-7.664001,-11.84,eccentric,2,3.0,39059.0,169309.0,90952.0,170710.0,104487.0
2026-04-14 17:10:36.072511,114185,1609504129819413,1729788410,0.979904,-0.337696,-0.281088,-20.76375,-25.5675,20.30875,-21.880001,-8.352,-13.616,eccentric,2,3.0,39059.0,169309.0,90952.0,170710.0,104487.0
2026-04-14 17:10:36.089084,114186,1609504129833887,1729803401,0.979904,-0.337696,-0.281088,-18.48,-24.63125,15.785,-21.880001,-8.352,-13.616,eccentric,2,3.0,39059.0,169309.0,90952.0,170710.0,104487.0
2026-04-14 17:10:36.097654,114187,1609504129842787,1729812076,0.962336,-0.355264,-0.31232,-14.37625,-25.0775,7.83125,-22.088001,-8.416,-13.928,eccentric,2,3.0,39059.0,169309.0,90952.0,170710.0,104487.0
2026-04-14 17:10:36.107380,114188,1609504129851651,1729820785,0.962336,-0.355264,-0.31232,-10.22,-24.7275,11.83875,-22.088001,-8.416,-13.928,eccentric,2,3.0,39059.0,169309.0,90952.0,170710.0,104487.0
2026-04-14 17:10:36.146377,114199,1609504129866188,1729835875,1.03456,-0.327936,-0.144448,-9.49375,-25.50625,9.12625,-22.880001,-8.408,-13.728001,eccentric,2,3.0,36704.0,163514.0,86598.0,164934.0,99828.0
2026-04-14 17:10:36.148864,114200,1609504129875216,1729844622,1.001376,-0.314272,-0.36112,-12.11875,-23.6775,8.6975,-20.832,-8.888001,-13.912001,eccentric,2,3.0,36704.0,163514.0,86598.0,164934.0,99828.0
2026-04-14 17:10:36.150986,114201,1609504129889772,1729859526,1.001376,-0.314272,-0.36112,-21.23625,-21.3325,1.89875,-22.016,-8.888001,-13.912001,eccentric,2,3.0,36704.0,163514.0,86598.0,164934.0,99828.0
2026-04-14 17:10:36.153857,114202,1609504129898740,1729868272,1.05408,-0.402112,-0.277184,-30.30125,-22.645,2.415,-22.016,-9.128,-13.944,eccentric,2,3.0,36704.0,163514.0,86598.0,164934.0,99828.0
2026-04-14 17:10:36.168876,114203,1609504129913238,1729883126,1.05408,-0.402112,-0.277184,-30.42375,-22.1375,8.1375,-22.016,-9.128,-13.944,eccentric,2,3.0,36704.0,163514.0,86598.0,164934.0,99828.0
2026-04-14 17:10:36.176377,114204,1609504129922214,1729891805,0.99552,-0.30256,-0.11712,-25.4275,-21.98,4.515,-21.912,-9.376,-13.984,eccentric,2,3.0,36704.0,163514.0,86598.0,164934.0,99828.0
2026-04-14 17:10:36.186336,114205,1609504129931139,1729900493,0.99552,-0.30256,-0.11712,-23.40625,-21.81375,-1.14625,-21.912,-9.376,-13.984,eccentric,2,3.0,36704.0,163514.0,86598.0,164934.0,99828.0
2026-04-14 17:10:36.202623,114206,1609504129945707,1729915376,0.981856,-0.343552,-0.372832,-24.40375,-21.95375,-1.58375,-21.960001,-9.352,-13.312,eccentric,2,3.0,36704.0,163514.0,86598.0,164934.0,99828.0
2026-04-14 17:10:36.209001,114207,1609504129954609,1729924071,0.981856,-0.343552,-0.372832,-23.0475,-22.14625,-0.41125,-21.960001,-9.352,-13.312,eccentric,2,3.0,36704.0,163514.0,86598.0,164934.0,99828.0
2026-04-14 17:10:36.317799,114218,1609504129969244,1729939154,0.981856,-0.265472,-0.26352,-23.02125,-20.335001,-2.205,-22.528002,-9.792001,-13.744,eccentric,2,3.0,36098.0,163551.0,85674.0,165074.0,98598.0
2026-04-14 17:10:36.320284,114219,1609504129978191,1729947824,0.958432,-0.329888,-0.222528,-25.64625,-20.36125,-7.595,-22.320002,-10.344001,-14.216001,eccentric,2,3.0,36098.0,163551.0,85674.0,165074.0,98598.0
2026-04-14 17:10:36.322382,114220,1609504129992688,1729962686,0.958432,-0.329888,-0.222528,-21.91875,-20.30875,-4.7075,-22.320002,-10.344001,-14.216001,eccentric,2,3.0,36098.0,163551.0,85674.0,165074.0,98598.0
2026-04-14 17:10:36.324635,114221,1609504130001599,1729971350,0.999424,-0.357216,-0.140544,-16.89625,-19.59125,-6.3,-21.608002,-10.872001,-14.152,eccentric,2,3.0,36098.0,163551.0,85674.0,165074.0,98598.0
2026-04-14 17:10:36.327429,114222,1609504130010518,1729980037,0.999424,-0.357216,-0.140544,-9.72125,-18.52375,-7.28,-21.608002,-10.872001,-14.152,eccentric,2,3.0,36098.0,163551.0,85674.0,165074.0,98598.0
2026-04-14 17:10:36.329905,114223,1609504130025016,1729994990,0.935008,-0.333792,-0.3416,-0.8225,-18.4975,-6.55375,-21.464,-10.8,-14.696001,eccentric,2,3.0,36098.0,163551.0,85674.0,165074.0,98598.0
2026-04-14 17:10:36.332442,114224,1609504130033917,1730003675,0.935008,-0.333792,-0.3416,3.56125,-16.8875,-5.06625,-21.464,-10.8,-14.696001,eccentric,2,3.0,36098.0,163551.0,85674.0,165074.0,98598.0
2026-04-14 17:10:36.334783,114225,1609504130048497,1730018562,0.94672,-0.304512,-0.103456,5.52125,-13.08125,-3.61375,-20.896002,-11.328,-14.648001,eccentric,2,3.0,36098.0,163551.0,85674.0,165074.0,98598.0
2026-04-14 17:10:36.337395,114226,1609504130057542,1730027284,0.921344,-0.281088,-0.140544,8.70625,-9.3275,-4.165,-21.248001,-11.440001,-14.552001,eccentric,2,3.0,36098.0,163551.0,85674.0,165074.0,98598.0
2026-04-14 17:10:36.364746,114237,1609504130072086,1730042178,0.921344,-0.281088,-0.140544,8.05875,-6.15125,-4.585,-21.248001,-11.440001,-14.552001,eccentric,2,3.0,36592.0,165349.0,86271.0,167142.0,99286.0
2026-04-14 17:10:36.367299,114238,1609504130081255,1730050934,0.894016,-0.26352,-0.10736,4.1825,-2.94,-6.16875,-21.048,-11.944,-14.504001,eccentric,2,3.0,36592.0,165349.0,86271.0,167142.0,99286.0
2026-04-14 17:10:36.369849,114239,1609504130090168,1730059611,0.894016,-0.26352,-0.10736,-1.02375,1.26,-7.79625,-21.048,-11.944,-14.504001,eccentric,2,3.0,36592.0,165349.0,86271.0,167142.0,99286.0
2026-04-14 17:10:36.372365,114240,1609504130104663,1730074531,0.845216,-0.177632,-0.203008,-8.3475,8.74125,-9.96625,-21.128,-12.368001,-14.496,eccentric,2,3.0,36592.0,165349.0,86271.0,167142.0,99286.0
2026-04-14 17:10:36.374808,114241,1609504130113669,1730083214,0.845216,-0.177632,-0.203008,-14.7175,16.94875,-17.42125,-21.128,-12.368001,-14.496,eccentric,2,3.0,36592.0,165349.0,86271.0,167142.0,99286.0
2026-04-14 17:10:36.382164,114242,1609504130128201,1730098187,0.845216,-0.220576,-0.179584,-15.82,20.475,-19.25,-21.184002,-12.56,-13.584001,eccentric,2,3.0,36592.0,165349.0,86271.0,167142.0,99286.0
2026-04-14 17:10:36.392392,114243,1609504130137144,1730106875,0.909632,-0.329888,-0.132736,-15.627501,24.6575,-25.26125,-21.480001,-12.72,-12.808001,eccentric,2,3.0,36592.0,165349.0,86271.0,167142.0,99286.0
2026-04-14 17:10:36.401133,114244,1609504130146083,1730115557,0.909632,-0.329888,-0.132736,-15.3125,25.24375,-33.52125,-21.480001,-12.72,-12.808001,eccentric,2,3.0,36592.0,165349.0,86271.0,167142.0,99286.0
2026-04-14 17:10:36.416039,114245,1609504130160586,1730130439,0.75152,-0.259616,-0.435296,-13.74625,24.89375,-27.04625,-21.024,-13.584001,-13.856001,eccentric,2,3.0,36592.0,165349.0,86271.0,167142.0,99286.0
2026-04-14 17:10:36.445529,114256,1609504130169682,1730139234,0.75152,-0.259616,-0.435296,-5.13625,27.67625,-28.07,-21.024,-13.584001,-13.856001,eccentric,2,3.0,34355.0,161887.0,82422.0,163408.0,94920.0
2026-04-14 17:10:36.445865,114257,1609504130184179,1730154159,0.84912,-0.216672,-0.140544,-2.205,31.96375,-39.75125,-21.312,-14.232,-14.504001,eccentric,2,3.0,34355.0,161887.0,82422.0,163408.0,94920.0
2026-04-14 17:10:36.448227,114258,1609504130193133,1730162872,0.84912,-0.216672,-0.140544,-1.5575,35.44625,-42.21875,-21.312,-14.232,-14.504001,eccentric,2,3.0,34355.0,161887.0,82422.0,163408.0,94920.0
2026-04-14 17:10:36.463578,114259,1609504130207679,1730177815,0.767136,-0.216672,-0.07808,0.28,38.5,-38.49125,-20.816002,-14.648001,-13.576,concentric,2,3.0,34355.0,161887.0,82422.0,163408.0,94920.0
2026-04-14 17:10:36.471030,114260,1609504130216615,1730186504,0.767136,-0.216672,-0.3904,5.53875,44.6425,-41.93,-20.816002,-14.648001,-13.576,concentric,2,3.0,34355.0,161887.0,82422.0,163408.0,94920.0
2026-04-14 17:10:36.481007,114261,1609504130225582,1730195185,0.753472,-0.296704,-0.384544,9.8,45.36875,-54.416252,-20.800001,-15.176001,-13.544001,concentric,2,3.0,34355.0,161887.0,82422.0,163408.0,94920.0
2026-04-14 17:10:36.498607,114262,1609504130240091,1730210121,0.788608,-0.148352,-0.031232,6.32625,44.9925,-47.64375,-21.232,-15.576001,-12.320001,concentric,2,3.0,34355.0,161887.0,82422.0,163408.0,94920.0
2026-04-14 17:10:36.503610,114263,1609504130249009,1730218810,0.788608,-0.148352,-0.031232,3.255,44.345,-41.16875,-21.232,-15.576001,-12.320001,concentric,2,3.0,34355.0,161887.0,82422.0,163408.0,94920.0
2026-04-14 17:10:36.519913,114264,1609504130263465,1730233672,0.64416,-0.199104,-0.046848,1.05,48.67625,-47.57375,-20.720001,-15.712001,-12.736001,concentric,2,3.0,34355.0,161887.0,82422.0,163408.0,94920.0
2026-04-14 17:10:36.547282,114275,1609504130272393,1730242395,0.64416,-0.199104,-0.046848,4.06,52.36,-54.80125,-20.720001,-15.712001,-12.736001,concentric,2,3.0,38911.0,172600.0,89710.0,174115.0,101434.0
2026-04-14 17:10:36.550099,114276,1609504130286913,1730255291,0.67344,-0.11712,-0.2928,6.13375,55.8775,-50.4,-21.848001,-16.464,-11.672001,concentric,2,3.0,38911.0,172600.0,89710.0,174115.0,101434.0
2026-04-14 17:10:36.552498,114277,1609504130296192,1730266066,0.67344,-0.11712,-0.2928,9.765,55.125,-45.03625,-21.848001,-16.464,-11.672001,concentric,2,3.0,38911.0,172600.0,89710.0,174115.0,101434.0
2026-04-14 17:10:36.558510,114278,1609504130305126,1730274766,0.6832,-0.148352,-0.325984,9.765,53.3925,-52.1325,-20.736,-17.056002,-13.184001,concentric,2,3.0,38911.0,172600.0,89710.0,174115.0,101434.0
2026-04-14 17:10:36.575210,114279,1609504130319652,1730289659,0.745664,-0.179584,-0.26352,2.38875,50.26,-62.072502,-19.968,-17.720001,-11.416,concentric,2,3.0,38911.0,172600.0,89710.0,174115.0,101434.0
2026-04-14 17:10:36.619387,114280,1609504130328590,1730298347,0.745664,-0.179584,-0.26352,2.275,45.61375,-59.255,-19.968,-17.720001,-11.416,concentric,2,3.0,38911.0,172600.0,89710.0,174115.0,101434.0
2026-04-14 17:10:36.624033,114281,1609504130343059,1730313198,0.618784,-0.30256,-0.072224,0.20125,44.63375,-55.09875,-20.472,-17.76,-11.104,concentric,2,3.0,38911.0,172600.0,89710.0,174115.0,101434.0
2026-04-14 17:10:36.624478,114282,1609504130351994,1730321911,0.618784,-0.30256,-0.072224,-0.86625,44.135,-52.07125,-20.472,-17.76,-11.104,concentric,2,3.0,38911.0,172600.0,89710.0,174115.0,101434.0
2026-04-14 17:10:36.668545,114293,1609504130366933,1730337248,0.59536,-0.158112,-0.251808,12.7575,43.715,-47.005,-20.608002,-18.12,-11.080001,concentric,2,3.0,59790.0,243783.0,126897.0,240674.0,140396.0
2026-04-14 17:10:36.671199,114294,1609504130375975,1730345993,0.59536,-0.158112,-0.251808,26.80125,42.28875,-46.445,-20.608002,-18.12,-11.080001,concentric,2,3.0,59790.0,243783.0,126897.0,240674.0,140396.0
2026-04-14 17:10:36.673817,114295,1609504130384912,1730354709,0.825696,-0.17568,-0.275232,30.1,42.9275,-48.545002,-20.144001,-18.368,-10.344001,concentric,2,3.0,59790.0,243783.0,126897.0,240674.0,140396.0
2026-04-14 17:10:36.676507,114296,1609504130399487,1730369626,0.69296,-0.074176,0.212768,18.75125,44.61625,-46.8125,-20.44,-18.496,-12.456,concentric,2,3.0,59790.0,243783.0,126897.0,240674.0,140396.0
2026-04-14 17:10:36.678990,114297,1609504130408453,1730378330,0.69296,-0.074176,0.212768,0.25375,46.4625,-38.7275,-20.44,-18.496,-12.456,concentric,2,3.0,59790.0,243783.0,126897.0,240674.0,140396.0
2026-04-14 17:10:36.681515,114298,1609504130422990,1730393239,0.591456,-0.169824,-0.033184,-12.0225,50.4525,-32.31375,-20.160002,-19.192001,-9.080001,concentric,2,3.0,59790.0,243783.0,126897.0,240674.0,140396.0
2026-04-14 17:10:36.687728,114299,1609504130431931,1730401933,0.591456,-0.169824,-0.033184,-10.70125,54.416252,-32.27875,-20.160002,-19.192001,-9.080001,concentric,2,3.0,59790.0,243783.0,126897.0,240674.0,140396.0
2026-04-14 17:10:36.700252,114300,1609504130440897,1730410606,0.622688,-0.119072,0.013664,-1.75875,54.04875,-33.38125,-20.088001,-19.36,-10.048,concentric,2,3.0,59790.0,243783.0,126897.0,240674.0,140396.0
2026-04-14 17:10:36.711460,114301,1609504130455399,1730425528,0.622688,-0.119072,0.013664,12.495,50.3825,-35.7175,-20.088001,-19.36,-10.048,concentric,2,3.0,59790.0,243783.0,126897.0,240674.0,140396.0
2026-04-14 17:10:36.719821,114302,1609504130464294,1730434200,0.755424,-0.160064,-0.324032,20.772501,44.70375,-36.63625,-19.856,-20.0,-10.848001,concentric,2,3.0,59790.0,243783.0,126897.0,240674.0,140396.0
2026-04-14 17:10:36.747155,114313,1609504130478884,1730449176,0.628544,-0.027328,0.203008,15.88125,42.56,-32.27,-19.856,-20.0,-9.936001,concentric,2,3.0,73366.0,292345.0,146970.0,277015.0,161155.0
2026-04-14 17:10:36.750154,114314,1609504130487828,1730457999,0.628544,-0.027328,0.203008,-2.77375,39.96125,-25.17375,-18.648,-20.168001,-9.936001,concentric,2,3.0,73366.0,292345.0,146970.0,277015.0,161155.0
2026-04-14 17:10:36.755941,114315,1609504130502332,1730470840,0.708576,-0.08784,-0.025376,-14.72625,40.80125,-22.085001,-18.864,-20.304,-10.408001,concentric,2,3.0,73366.0,292345.0,146970.0,277015.0,161155.0
2026-04-14 17:10:36.767226,114316,1609504130511655,1730481586,0.708576,-0.08784,-0.025376,-4.06,43.67125,-19.36375,-18.864,-20.304,-10.408001,concentric,2,3.0,73366.0,292345.0,146970.0,277015.0,161155.0
2026-04-14 17:10:36.777258,114317,1609504130520572,1730490286,0.671488,-0.189344,-0.173728,14.44625,41.99125,-25.68125,-19.232,-20.424002,-8.984,concentric,2,3.0,73366.0,292345.0,146970.0,277015.0,161155.0
2026-04-14 17:10:36.789542,114318,1609504130535081,1730505216,0.671488,-0.189344,-0.173728,35.41125,34.9475,-23.66,-19.232,-20.424002,-8.984,concentric,2,3.0,73366.0,292345.0,146970.0,277015.0,161155.0
2026-04-14 17:10:36.799573,114319,1609504130544009,1730513885,0.743712,0.07808,0.070272,45.73625,25.05125,-18.76,-19.016,-20.392,-10.712001,concentric,2,3.0,73366.0,292345.0,146970.0,277015.0,161155.0
2026-04-14 17:10:36.813270,114320,1609504130558482,1730528765,0.743712,0.07808,0.070272,34.67625,16.94,-12.76625,-19.016,-20.392,-10.712001,concentric,2,3.0,73366.0,292345.0,146970.0,277015.0,161155.0
2026-04-14 17:10:36.845676,114331,1609504130567424,1730537369,0.700768,-0.00976,0.072224,10.3075,11.2875,-6.93,-19.616001,-20.12,-8.368,concentric,2,3.0,100698.0,307396.0,184376.0,289352.0,200008.0
2026-04-14 17:10:36.848265,114332,1609504130576963,1730546215,0.700768,-0.00976,0.072224,-2.4325,6.02875,-2.54625,-19.616001,-20.12,-8.368,concentric,2,3.0,100698.0,307396.0,184376.0,289352.0,200008.0
2026-04-14 17:10:36.850721,114333,1609504130591617,1730561143,0.708576,-0.06832,-0.027328,2.30125,-0.525,-2.26625,-18.832,-20.272001,-10.792001,concentric,2,3.0,100698.0,307396.0,184376.0,289352.0,200008.0
2026-04-14 17:10:36.855743,114334,1609504130600607,1730569838,0.823744,-0.083936,0.003904,9.7475,-6.51,-0.88375,-18.832,-20.320002,-10.824,concentric,2,3.0,100698.0,307396.0,184376.0,289352.0,200008.0
2026-04-14 17:10:36.899444,114335,1609504130615094,1730584741,0.823744,-0.083936,0.003904,13.335,-11.3925,0.7525,-18.832,-20.320002,-10.824,concentric,2,3.0,100698.0,307396.0,184376.0,289352.0,200008.0
2026-04-14 17:10:36.902577,114336,1609504130623997,1730593425,0.833504,-0.021472,-0.013664,12.573751,-13.86875,3.6225,-18.688002,-19.784,-9.872001,concentric,2,3.0,100698.0,307396.0,184376.0,289352.0,200008.0
2026-04-14 17:10:36.904910,114337,1609504130632893,1730602089,0.833504,-0.021472,-0.013664,8.49625,-12.81875,4.235,-18.688002,-19.784,-9.872001,concentric,2,3.0,100698.0,307396.0,184376.0,289352.0,200008.0
2026-04-14 17:10:36.906955,114338,1609504130647343,1730616969,0.933056,-0.070272,0.105408,1.19,-8.86375,2.5725,-19.152,-20.2,-10.960001,concentric,2,3.0,100698.0,307396.0,184376.0,289352.0,200008.0
2026-04-14 17:10:36.909409,114339,1609504130656294,1730625721,0.933056,-0.070272,0.105408,-4.17375,-4.48875,3.08,-19.152,-20.2,-10.960001,concentric,2,3.0,100698.0,307396.0,184376.0,289352.0,200008.0
2026-04-14 17:10:36.946931,114350,1609504130670867,1730641130,1.038464,-0.109312,0.056608,-0.5775,-1.32125,1.2425,-20.448002,-19.976002,-9.896001,concentric,2,3.0,105646.0,311654.0,190805.0,293358.0,206331.0
2026-04-14 17:10:36.949386,114351,1609504130679855,1730649907,1.038464,-0.122976,0.103456,2.77375,0.0,-1.12,-20.448002,-19.976002,-9.896001,concentric,2,3.0,105646.0,311654.0,190805.0,293358.0,206331.0
2026-04-14 17:10:36.974482,114352,1609504130694355,1730662794,1.052128,-0.122976,0.103456,1.56625,0.1575,-2.96625,-19.816002,-19.872002,-10.104,concentric,2,3.0,105646.0,311654.0,190805.0,293358.0,206331.0
2026-04-14 17:10:36.999506,114353,1609504130703679,1730673559,1.01504,-0.070272,0.158112,-0.00875,0.0175,-4.34875,-19.608002,-19.832,-10.136001,concentric,2,3.0,105646.0,311654.0,190805.0,293358.0,206331.0
2026-04-14 17:10:37.002029,114354,1609504130712604,1730682280,1.01504,-0.070272,0.158112,-0.8575,0.48125,-6.08125,-19.608002,-19.832,-10.136001,concentric,2,3.0,105646.0,311654.0,190805.0,293358.0,206331.0
2026-04-14 17:10:37.004747,114355,1609504130727051,1730697179,0.876448,-0.083936,-0.060512,-2.0475,1.25125,-7.69125,-19.624,-19.640001,-11.080001,concentric,2,3.0,105646.0,311654.0,190805.0,293358.0,206331.0
2026-04-14 17:10:37.006982,114356,1609504130735954,1730705857,0.876448,-0.083936,-0.060512,-1.68875,1.70625,-9.073751,-19.624,-19.640001,-11.080001,concentric,2,3.0,105646.0,311654.0,190805.0,293358.0,206331.0
2026-04-14 17:10:37.009491,114357,1609504130750460,1730720772,0.935008,-0.052704,0.15616,-0.2975,1.68,-10.10625,-19.800001,-20.0,-10.096001,concentric,2,3.0,105646.0,311654.0,190805.0,293358.0,206331.0
2026-04-14 17:10:37.014458,114358,1609504130759402,1730729466,0.935008,-0.052704,0.15616,0.8575,0.67375,-10.40375,-19.800001,-20.0,-10.096001,concentric,2,3.0,105646.0,311654.0,190805.0,293358.0,206331.0
2026-04-14 17:10:37.049474,114369,1609504130774093,1730744435,0.884256,-0.06832,-0.035136,-3.3075,-0.58625,-9.59875,-18.984001,-20.400002,-10.936001,concentric,2,3.0,100165.0,308190.0,183888.0,290368.0,199418.0
2026-04-14 17:10:37.051960,114370,1609504130783171,1730753167,0.854976,-0.07808,-0.072224,-9.87875,-1.67125,-7.7525,-18.784,-20.632002,-10.688001,concentric,2,3.0,100165.0,308190.0,183888.0,290368.0,199418.0
2026-04-14 17:10:37.054403,114371,1609504130792095,1730761843,0.854976,-0.07808,-0.072224,-13.37,-3.605,-6.545,-18.784,-20.632002,-10.688001,concentric,2,3.0,100165.0,308190.0,183888.0,290368.0,199418.0
2026-04-14 17:10:37.061932,114372,1609504130806618,1730776738,0.8296,-0.005856,0.11712,-14.323751,-5.15375,-5.10125,-18.232,-20.136002,-11.048,concentric,2,3.0,100165.0,308190.0,183888.0,290368.0,199418.0
2026-04-14 17:10:37.069482,114373,1609504130815522,1730785453,0.8296,-0.005856,0.11712,-14.46375,-6.60625,-4.01625,-18.232,-20.136002,-11.048,concentric,2,3.0,100165.0,308190.0,183888.0,290368.0,199418.0
2026-04-14 17:10:37.087036,114374,1609504130830035,1730800334,0.843264,-0.027328,-0.101504,-14.06125,-7.49875,-3.40375,-18.896002,-19.848001,-9.664001,concentric,2,3.0,100165.0,308190.0,183888.0,290368.0,199418.0
2026-04-14 17:10:37.093186,114375,1609504130838959,1730809101,0.843264,-0.027328,-0.101504,-12.87125,-8.295,-3.82375,-18.896002,-19.848001,-9.664001,concentric,2,3.0,100165.0,308190.0,183888.0,290368.0,199418.0
2026-04-14 17:10:37.103299,114376,1609504130847881,1730817766,0.876448,0.011712,0.05856,-13.5975,-8.58375,-3.6225,-19.144001,-19.872002,-10.944,concentric,2,3.0,100165.0,308190.0,183888.0,290368.0,199418.0
2026-04-14 17:10:37.119450,114377,1609504130862455,1730832785,1.009184,-0.095648,0.103456,-17.24625,-8.18125,-3.29875,-18.264,-19.904001,-9.496,concentric,2,3.0,100165.0,308190.0,183888.0,290368.0,199418.0
2026-04-14 17:10:37.152051,114388,1609504130871724,1730841522,1.009184,-0.095648,0.103456,-20.825,-7.06125,-2.38875,-18.264,-19.904001,-9.496,concentric,2,3.0,97931.0,305701.0,181273.0,288497.0,196868.0
2026-04-14 17:10:37.154581,114389,1609504130886334,1730856399,0.894016,-0.00976,-0.042944,-19.53,-6.25625,-1.58375,-18.416,-20.408,-10.752001,concentric,2,3.0,97931.0,305701.0,181273.0,288497.0,196868.0
2026-04-14 17:10:37.157032,114390,1609504130895333,1730865131,0.894016,-0.00976,-0.042944,-16.2225,-6.30875,-1.75875,-18.416,-20.408,-10.752001,concentric,2,3.0,97931.0,305701.0,181273.0,288497.0,196868.0
2026-04-14 17:10:37.164655,114391,1609504130909815,1730880063,0.954528,0.013664,0.10736,-14.245,-6.51875,-2.31875,-18.672,-20.12,-10.176001,concentric,2,3.0,97931.0,305701.0,181273.0,288497.0,196868.0
2026-04-14 17:10:37.175787,114392,1609504130918758,1730888806,0.954528,0.013664,0.10736,-15.2075,-6.4925,-3.1675,-18.672,-20.12,-10.176001,concentric,2,3.0,97931.0,305701.0,181273.0,288497.0,196868.0
2026-04-14 17:10:37.182122,114393,1609504130927672,1730897486,0.929152,-0.033184,-0.021472,-17.07125,-5.43375,-4.2525,-18.792002,-20.208,-9.488001,concentric,2,3.0,97931.0,305701.0,181273.0,288497.0,196868.0
2026-04-14 17:10:37.196049,114394,1609504130942161,1730912413,0.98576,-0.033184,0.140544,-17.255,-4.27,-4.795,-19.168001,-20.240002,-10.792001,concentric,2,3.0,97931.0,305701.0,181273.0,288497.0,196868.0
2026-04-14 17:10:37.206031,114395,1609504130951150,1730921155,0.98576,-0.033184,0.140544,-16.3275,-2.68625,-4.76,-19.168001,-20.240002,-10.792001,concentric,2,3.0,97931.0,305701.0,181273.0,288497.0,196868.0
2026-04-14 17:10:37.218421,114396,1609504130965606,1730933980,0.909632,-0.031232,-0.066368,-13.71125,-1.23375,-4.43625,-18.064001,-20.352001,-10.104,concentric,2,3.0,97931.0,305701.0,181273.0,288497.0,196868.0
2026-04-14 17:10:37.250805,114407,1609504130974998,1730944814,0.909632,-0.031232,-0.066368,-11.6025,0.13125,-4.06875,-18.064001,-20.352001,-10.104,concentric,2,3.0,93544.0,300852.0,175790.0,284311.0,191359.0
2026-04-14 17:10:37.253275,114408,1609504130984106,1730953618,0.901824,-0.027328,-0.111264,-10.50875,1.11125,-4.24375,-18.584002,-20.568,-10.392,concentric,2,3.0,93544.0,300852.0,175790.0,284311.0,191359.0
2026-04-14 17:10:37.255797,114409,1609504130998588,1730968510,0.901824,-0.027328,-0.111264,-10.19375,0.8575,-3.9025,-18.584002,-20.568,-10.392,concentric,2,3.0,93544.0,300852.0,175790.0,284311.0,191359.0
2026-04-14 17:10:37.262083,114410,1609504131007519,1730977203,0.886208,-0.054656,-0.132736,-10.52625,-0.07,-3.15875,-18.424002,-20.800001,-10.296001,concentric,2,3.0,93544.0,300852.0,175790.0,284311.0,191359.0
2026-04-14 17:10:37.278401,114411,1609504131021991,1730992099,0.886208,-0.01952,0.062464,-10.84125,-1.68,-1.75,-18.424002,-20.800001,-10.296001,concentric,2,3.0,93544.0,300852.0,175790.0,284311.0,191359.0
2026-04-14 17:10:37.285842,114412,1609504131030907,1731000773,0.929152,-0.01952,0.062464,-8.68875,-4.01625,-0.98,-18.936,-20.232,-9.0,concentric,2,3.0,93544.0,300852.0,175790.0,284311.0,191359.0
2026-04-14 17:10:37.300906,114413,1609504131045484,1731015697,0.870592,-0.01952,-0.07808,-5.145,-6.20375,-1.37375,-18.36,-20.544,-10.432,concentric,2,3.0,93544.0,300852.0,175790.0,284311.0,191359.0
2026-04-14 17:10:37.308345,114414,1609504131054438,1731024439,0.870592,-0.01952,-0.07808,-3.465,-8.40875,-1.1725,-18.36,-20.544,-10.432,concentric,2,3.0,93544.0,300852.0,175790.0,284311.0,191359.0
2026-04-14 17:10:37.343423,114415,1609504131063366,1731033109,0.958432,-0.056608,0.042944,-3.9725,-9.730001,-0.14875,-18.488,-20.568,-10.480001,concentric,2,3.0,93544.0,300852.0,175790.0,284311.0,191359.0
2026-04-14 17:10:37.390870,114426,1609504131077890,1731048055,0.958432,-0.056608,0.042944,-5.0575,-9.40625,0.595,-18.488,-20.568,-10.480001,concentric,2,3.0,86730.0,294057.0,167038.0,278722.0,182466.0
2026-04-14 17:10:37.393386,114427,1609504131086773,1731056727,0.94672,-0.050752,0.011712,-4.34,-8.8725,0.6125,-18.264,-20.744001,-10.320001,concentric,2,3.0,86730.0,294057.0,167038.0,278722.0,182466.0
2026-04-14 17:10:37.395729,114428,1609504131101255,1731069612,0.94672,-0.050752,0.011712,-2.19625,-8.30375,1.3125,-18.264,-20.744001,-10.320001,concentric,2,3.0,86730.0,294057.0,167038.0,278722.0,182466.0
2026-04-14 17:10:37.398400,114429,1609504131110439,1731080368,0.89792,-0.060512,-0.12688,-1.58375,-7.735,0.8925,-18.744001,-20.488,-8.344001,concentric,2,3.0,86730.0,294057.0,167038.0,278722.0,182466.0
2026-04-14 17:10:37.400867,114430,1609504131124955,1731093309,0.925248,-0.035136,0.089792,-0.4725,-7.805,0.945,-18.928001,-20.016,-9.184,concentric,2,3.0,86730.0,294057.0,167038.0,278722.0,182466.0
2026-04-14 17:10:37.403375,114431,1609504131134129,1731104061,0.925248,-0.035136,0.089792,0.07875,-8.4,1.40875,-18.928001,-20.016,-9.184,concentric,2,3.0,86730.0,294057.0,167038.0,278722.0,182466.0
2026-04-14 17:10:37.405872,114432,1609504131143123,1731112776,0.862784,-0.0488,-0.109312,0.175,-8.82875,1.04125,-18.928001,-19.736,-9.448001,concentric,2,3.0,86730.0,294057.0,167038.0,278722.0,182466.0
2026-04-14 17:10:37.412150,114433,1609504131157664,1731127676,0.862784,-0.0488,-0.109312,-0.25375,-8.435,1.54875,-19.304,-19.736,-9.448001,concentric,2,3.0,86730.0,294057.0,167038.0,278722.0,182466.0
2026-04-14 17:10:37.420925,114434,1609504131166622,1731136372,0.833504,-0.044896,-0.093696,0.21,-8.84625,2.02125,-18.640001,-20.016,-10.504001,concentric,2,3.0,86730.0,294057.0,167038.0,278722.0,182466.0
2026-04-14 17:10:37.454733,114445,1609504131181305,1731151345,0.833504,-0.044896,-0.093696,0.7175,-8.89875,1.95125,-18.640001,-20.016,-10.504001,concentric,2,3.0,81259.0,289547.0,159730.0,275096.0,175037.0
2026-04-14 17:10:37.457227,114446,1609504131190348,1731160159,0.88816,-0.062464,0.042944,1.11125,-10.14125,2.51125,-18.328001,-20.36,-11.224001,concentric,2,3.0,81259.0,289547.0,159730.0,275096.0,175037.0
2026-04-14 17:10:37.460934,114447,1609504131199346,1731168880,0.88816,-0.062464,0.042944,2.03,-11.36625,3.01,-18.328001,-20.36,-11.224001,concentric,2,3.0,81259.0,289547.0,159730.0,275096.0,175037.0
2026-04-14 17:10:37.468362,114448,1609504131213836,1731183742,0.841312,-0.035136,0.07808,5.24125,-12.55625,3.52625,-18.504002,-19.816002,-10.960001,concentric,2,3.0,81259.0,289547.0,159730.0,275096.0,175037.0
2026-04-14 17:10:37.478823,114449,1609504131222890,1731192439,0.841312,-0.035136,0.07808,7.6125,-15.0325,3.71875,-18.504002,-19.816002,-10.960001,concentric,2,3.0,81259.0,289547.0,159730.0,275096.0,175037.0
2026-04-14 17:10:37.490995,114450,1609504131237373,1731207348,0.860832,-0.06832,-0.091744,8.65375,-16.0825,3.7275,-19.072,-19.384,-11.040001,concentric,2,3.0,81259.0,289547.0,159730.0,275096.0,175037.0
2026-04-14 17:10:37.526495,114451,1609504131246320,1731216015,0.813984,-0.02928,0.093696,6.44,-17.07125,5.2325,-19.632002,-19.472,-9.88,concentric,2,3.0,81259.0,289547.0,159730.0,275096.0,175037.0
2026-04-14 17:10:37.528984,114452,1609504131260798,1731230871,0.813984,-0.02928,0.093696,3.325,-18.31375,6.1775,-19.632002,-19.472,-9.88,concentric,2,3.0,81259.0,289547.0,159730.0,275096.0,175037.0
2026-04-14 17:10:37.531455,114453,1609504131269706,1731239560,0.831552,-0.10736,-0.031232,1.40875,-19.7925,6.23,-19.448002,-19.344002,-10.168,concentric,2,3.0,81259.0,289547.0,159730.0,275096.0,175037.0
2026-04-14 17:10:37.563310,114464,1609504131278630,1731248288,0.831552,-0.10736,-0.031232,1.60125,-22.12,7.3325,-19.448002,-19.344002,-10.168,concentric,2,3.0,67774.0,274494.0,140468.0,262978.0,155126.0
2026-04-14 17:10:37.563780,114465,1609504131293224,1731263201,0.796416,-0.140544,-0.138592,4.33125,-25.9875,8.5575,-19.264002,-19.208,-10.56,concentric,2,3.0,67774.0,274494.0,140468.0,262978.0,155126.0
2026-04-14 17:10:37.565924,114466,1609504131302206,1731271936,0.796416,-0.140544,-0.138592,7.41125,-29.61875,10.40375,-19.264002,-19.208,-10.56,concentric,2,3.0,67774.0,274494.0,140468.0,262978.0,155126.0
2026-04-14 17:10:37.571395,114467,1609504131316697,1731286861,0.769088,-0.111264,-0.191296,6.7725,-32.15625,14.761251,-19.320002,-19.2,-12.488001,concentric,2,3.0,67774.0,274494.0,140468.0,262978.0,155126.0
2026-04-14 17:10:37.582628,114468,1609504131325618,1731295531,0.75152,-0.07808,-0.158112,2.44125,-33.66125,18.725,-19.536001,-19.128,-10.816001,concentric,2,3.0,67774.0,274494.0,140468.0,262978.0,155126.0
2026-04-14 17:10:37.596346,114469,1609504131340079,1731310404,0.75152,-0.07808,-0.158112,-1.18125,-35.32375,18.40125,-19.536001,-19.128,-10.816001,concentric,2,3.0,67774.0,274494.0,140468.0,262978.0,155126.0
2026-04-14 17:10:37.603594,114470,1609504131349016,1731319115,0.755424,-0.124928,-0.11712,-3.15,-36.4875,16.98375,-18.832,-19.04,-11.512,concentric,2,3.0,67774.0,274494.0,140468.0,262978.0,155126.0
2026-04-14 17:10:37.613702,114471,1609504131357924,1731327797,0.755424,-0.124928,-0.11712,-3.5175,-39.165,16.975,-18.832,-19.04,-11.512,concentric,2,3.0,67774.0,274494.0,140468.0,262978.0,155126.0
2026-04-14 17:10:37.650973,114482,1609504131372742,1731343084,0.70272,-0.144448,-0.220576,-1.28625,-41.895,19.005,-18.776001,-18.464,-12.472,concentric,2,3.0,54406.0,235148.0,119163.0,230842.0,132777.0
2026-04-14 17:10:37.654547,114483,1609504131381807,1731351884,0.70272,-0.144448,-0.220576,-0.2975,-45.22,21.65625,-18.776001,-18.464,-12.472,concentric,2,3.0,54406.0,235148.0,119163.0,230842.0,132777.0
2026-04-14 17:10:37.661388,114484,1609504131396428,1731364799,0.776896,-0.134688,-0.249856,-2.63375,-47.0575,24.68375,-18.648,-18.352001,-12.496,concentric,2,3.0,54406.0,235148.0,119163.0,230842.0,132777.0
2026-04-14 17:10:37.663835,114485,1609504131405631,1731375568,0.804224,-0.109312,-0.02928,-8.2775,-48.6675,24.82375,-18.824001,-17.984001,-12.504001,concentric,2,3.0,54406.0,235148.0,119163.0,230842.0,132777.0
2026-04-14 17:10:37.669684,114486,1609504131414548,1731384286,0.804224,-0.109312,-0.02928,-14.42875,-48.44875,23.89625,-18.824001,-17.984001,-12.504001,concentric,2,3.0,54406.0,235148.0,119163.0,230842.0,132777.0
2026-04-14 17:10:37.685220,114487,1609504131429064,1731399150,0.732,-0.113216,0.011712,-15.09375,-48.0025,25.0075,-19.328001,-17.6,-12.200001,concentric,2,3.0,54406.0,235148.0,119163.0,230842.0,132777.0
2026-04-14 17:10:37.709642,114488,1609504131437968,1731407818,0.732,-0.113216,0.011712,-10.8675,-47.6175,23.9575,-19.328001,-17.6,-12.200001,concentric,2,3.0,54406.0,235148.0,119163.0,230842.0,132777.0
2026-04-14 17:10:37.735131,114489,1609504131452447,1731422685,0.710528,-0.111264,-0.177632,-5.13625,-48.3,24.36875,-20.384,-17.112001,-12.016001,concentric,2,3.0,54406.0,235148.0,119163.0,230842.0,132777.0
2026-04-14 17:10:37.747336,114490,1609504131461382,1731431366,0.710528,-0.111264,-0.177632,-2.73,-49.51625,27.16,-20.384,-17.112001,-12.016001,concentric,2,3.0,54406.0,235148.0,119163.0,230842.0,132777.0
2026-04-14 17:10:37.780203,114501,1609504131476514,1731446288,0.689056,-0.101504,-0.199104,-6.6675,-50.015,29.02375,-19.712002,-16.984001,-12.072001,concentric,2,3.0,41829.0,186226.0,96178.0,187016.0,108076.0
2026-04-14 17:10:37.782750,114502,1609504131485445,1731454993,0.732,-0.183488,-0.32208,-11.2875,-48.65,29.7675,-19.712002,-16.472,-12.208,concentric,2,3.0,41829.0,186226.0,96178.0,187016.0,108076.0
2026-04-14 17:10:37.785236,114503,1609504131494365,1731463658,0.732,-0.183488,-0.32208,-15.74125,-47.95875,28.455,-19.736,-16.472,-12.208,concentric,2,3.0,41829.0,186226.0,96178.0,187016.0,108076.0
2026-04-14 17:10:37.787214,114504,1609504131508921,1731478616,0.733952,-0.076128,0.003904,-11.7425,-47.0575,29.2425,-19.560001,-16.416,-12.768001,concentric,2,3.0,41829.0,186226.0,96178.0,187016.0,108076.0
2026-04-14 17:10:37.789764,114505,1609504131517821,1731487340,0.733952,-0.076128,0.003904,0.58625,-46.3925,30.96625,-19.560001,-16.416,-12.768001,concentric,2,3.0,41829.0,186226.0,96178.0,187016.0,108076.0
2026-04-14 17:10:37.792749,114506,1609504131532316,1731502237,0.679296,-0.033184,-0.284992,10.59625,-46.69875,29.61,-19.424002,-16.104,-13.016001,concentric,2,3.0,41829.0,186226.0,96178.0,187016.0,108076.0
2026-04-14 17:10:37.797778,114507,1609504131541313,1731510949,0.679296,-0.033184,-0.284992,10.61375,-48.58,27.0025,-19.424002,-16.104,-13.016001,concentric,2,3.0,41829.0,186226.0,96178.0,187016.0,108076.0
2026-04-14 17:10:37.805280,114508,1609504131550236,1731519668,0.74176,-0.138592,-0.121024,-3.40375,-48.8075,25.24375,-19.344002,-16.256,-14.296001,concentric,2,3.0,41829.0,186226.0,96178.0,187016.0,108076.0
2026-04-14 17:10:37.820253,114509,1609504131564743,1731534583,0.74176,-0.138592,-0.121024,-25.235,-47.06625,28.3675,-19.344002,-16.256,-14.296001,concentric,2,3.0,41829.0,186226.0,96178.0,187016.0,108076.0
2026-04-14 17:10:37.850911,114520,1609504131573904,1731543354,0.843264,-0.191296,-0.183488,-32.26125,-42.49875,29.19875,-19.112001,-15.704,-13.68,concentric,2,3.0,35348.0,170637.0,82862.0,171163.0,94718.0
2026-04-14 17:10:37.853375,114521,1609504131588523,1731558293,0.759328,-0.109312,-0.23424,-28.647501,-41.982502,21.6825,-19.696001,-15.000001,-12.984,concentric,2,3.0,35348.0,170637.0,82862.0,171163.0,94718.0
2026-04-14 17:10:37.855887,114522,1609504131597447,1731566975,0.759328,-0.109312,-0.23424,-20.36125,-38.00125,19.94125,-19.696001,-15.000001,-12.984,concentric,2,3.0,35348.0,170637.0,82862.0,171163.0,94718.0
2026-04-14 17:10:37.860932,114523,1609504131606343,1731575644,0.66368,-0.189344,-0.134688,-9.975,-34.3875,18.22625,-20.048,-14.408001,-11.984,concentric,2,3.0,35348.0,170637.0,82862.0,171163.0,94718.0
2026-04-14 17:10:37.875882,114524,1609504131620838,1731590537,0.66368,-0.189344,-0.134688,-1.42625,-37.56375,20.405,-20.048,-14.408001,-11.984,concentric,2,3.0,35348.0,170637.0,82862.0,171163.0,94718.0
2026-04-14 17:10:37.883441,114525,1609504131629794,1731599256,0.792512,-0.197152,-0.417728,3.24625,-40.5475,25.0075,-19.856,-14.824,-14.536,concentric,2,3.0,35348.0,170637.0,82862.0,171163.0,94718.0
2026-04-14 17:10:37.900225,114526,1609504131644313,1731614162,0.792512,-0.197152,-0.417728,-8.0675,-41.81625,23.38875,-19.856,-14.824,-14.536,concentric,2,3.0,35348.0,170637.0,82862.0,171163.0,94718.0
2026-04-14 17:10:37.907740,114527,1609504131653269,1731622857,0.884256,-0.12688,-0.21472,-24.3775,-42.315,21.53375,-18.912,-14.6,-14.688001,concentric,2,3.0,35348.0,170637.0,82862.0,171163.0,94718.0
2026-04-14 17:10:37.924032,114528,1609504131667750,1731637727,0.757376,-0.142496,-0.119072,-33.7225,-38.94625,34.9125,-19.392,-14.176001,-14.936001,concentric,2,3.0,35348.0,170637.0,82862.0,171163.0,94718.0
2026-04-14 17:10:37.952080,114539,1609504131677174,1731646894,0.757376,-0.142496,-0.119072,-27.615,-28.735,37.695,-19.392,-14.176001,-14.936001,concentric,2,3.0,35131.0,167914.0,82693.0,167776.0,94303.0
2026-04-14 17:10:37.954681,114540,1609504131686134,1731655659,0.757376,-0.376736,-0.345504,-21.175,-17.19375,21.00875,-19.392,-14.176001,-14.936001,concentric,2,3.0,35131.0,167914.0,82693.0,167776.0,94303.0
2026-04-14 17:10:37.957146,114541,1609504131700669,1731670603,0.74176,-0.386496,-0.345504,-7.72625,-16.8875,12.29375,-19.288,-13.616,-16.376001,concentric,2,3.0,35131.0,167914.0,82693.0,167776.0,94303.0
2026-04-14 17:10:37.964826,114542,1609504131709590,1731679291,0.733952,-0.203008,-0.45872,3.94625,-17.98125,21.0875,-19.344002,-13.352,-14.080001,concentric,2,3.0,35131.0,167914.0,82693.0,167776.0,94303.0
2026-04-14 17:10:37.983834,114543,1609504131724070,1731694220,0.733952,-0.203008,-0.45872,9.26625,-19.005,29.995,-19.344002,-13.352,-14.080001,concentric,2,3.0,35131.0,167914.0,82693.0,167776.0,94303.0
2026-04-14 17:10:37.988858,114544,1609504131733001,1731702890,0.90768,-0.111264,-0.394304,-4.78625,-18.08625,28.035,-20.176,-13.080001,-14.792001,concentric,2,3.0,35131.0,167914.0,82693.0,167776.0,94303.0
2026-04-14 17:10:38.002770,114545,1609504131747490,1731717813,0.925248,-0.3416,-0.31232,-21.2275,-13.5625,25.655,-20.128,-12.76,-15.216001,concentric,2,3.0,35131.0,167914.0,82693.0,167776.0,94303.0
2026-04-14 17:10:38.012747,114546,1609504131756416,1731726495,0.925248,-0.3416,-0.31232,-22.4875,0.1575,25.935,-20.128,-12.76,-15.216001,concentric,2,3.0,35131.0,167914.0,82693.0,167776.0,94303.0
2026-04-14 17:10:38.021544,114547,1609504131765350,1731735207,0.925248,-0.3416,-0.31232,-13.43125,8.8725,24.73625,-20.128,-12.76,-15.216001,concentric,2,3.0,35131.0,167914.0,82693.0,167776.0,94303.0
2026-04-14 17:10:38.081470,114558,1609504131780025,1731750258,0.75152,-0.460672,-0.366976,2.6075,9.58125,20.23875,-19.672,-12.240001,-14.648001,concentric,2,3.0,32858.0,162608.0,79017.0,162539.0,90258.0
2026-04-14 17:10:38.083955,114559,1609504131789004,1731758939,0.911584,-0.22448,-0.318176,23.24,4.97875,22.02375,-20.152,-11.816001,-15.536001,concentric,2,3.0,32858.0,162608.0,79017.0,162539.0,90258.0
2026-04-14 17:10:38.086526,114560,1609504131803527,1731773841,0.911584,-0.22448,-0.318176,35.525,0.5425,26.2675,-20.152,-11.816001,-15.536001,concentric,2,3.0,32858.0,162608.0,79017.0,162539.0,90258.0
2026-04-14 17:10:38.111595,114561,1609504131812467,1731782516,0.977952,-0.105408,-0.37088,27.72,1.58375,25.76875,-20.304,-11.336,-15.216001,concentric,2,3.0,32858.0,162608.0,79017.0,162539.0,90258.0
2026-04-14 17:10:38.114013,114562,1609504131821383,1731791200,0.977952,-0.105408,-0.37088,12.845,6.37,20.8075,-20.304,-11.336,-15.216001,concentric,2,3.0,32858.0,162608.0,79017.0,162539.0,90258.0
2026-04-14 17:10:38.116131,114563,1609504131835874,1731806075,0.94672,-0.265472,-0.212768,-0.8575,13.448751,16.415,-20.376001,-10.704,-15.200001,concentric,2,3.0,32858.0,162608.0,79017.0,162539.0,90258.0
2026-04-14 17:10:38.120032,114564,1609504131844884,1731814760,0.94672,-0.265472,-0.212768,-6.39625,18.20875,11.042501,-20.376001,-10.704,-15.200001,concentric,2,3.0,32858.0,162608.0,79017.0,162539.0,90258.0
2026-04-14 17:10:38.120966,114565,1609504131859353,1731829620,0.84912,-0.415776,-0.187392,3.89375,17.87625,8.82,-20.344002,-10.656,-15.136001,concentric,2,3.0,32858.0,162608.0,79017.0,162539.0,90258.0
2026-04-14 17:10:38.124604,114566,1609504131868271,1731838349,0.952576,-0.228384,-0.232288,21.1925,13.92125,10.15875,-20.416,-9.816001,-15.368001,concentric,2,3.0,32858.0,162608.0,79017.0,162539.0,90258.0
2026-04-14 17:10:38.178873,114577,1609504131882818,1731851243,0.952576,-0.228384,-0.232288,29.11125,12.18,13.06375,-20.416,-9.816001,-15.368001,concentric,2,3.0,32676.0,162530.0,78297.0,163208.0,89744.0
2026-04-14 17:10:38.181532,114578,1609504131892154,1731861997,1.05408,-0.163968,-0.35136,24.29875,12.53,13.36125,-20.400002,-9.400001,-14.616001,concentric,2,3.0,32676.0,162530.0,78297.0,163208.0,89744.0
2026-04-14 17:10:38.194004,114579,1609504131901057,1731870680,1.05408,-0.163968,-0.35136,5.7575,14.07875,4.8125,-20.400002,-9.400001,-14.616001,concentric,2,3.0,32676.0,162530.0,78297.0,163208.0,89744.0
2026-04-14 17:10:38.194350,114580,1609504131915520,1731885600,0.991616,-0.35136,-0.345504,-8.295,20.83375,0.2275,-20.944,-9.456,-14.088,concentric,2,3.0,32676.0,162530.0,78297.0,163208.0,89744.0
2026-04-14 17:10:38.194458,114581,1609504131924510,1731894330,0.991616,-0.35136,-0.345504,-15.82,22.44375,-3.5875,-20.944,-9.456,-14.088,concentric,2,3.0,32676.0,162530.0,78297.0,163208.0,89744.0
2026-04-14 17:10:38.194712,114582,1609504131938990,1731909289,0.884256,-0.462624,-0.183488,-12.1275,21.20125,-2.7475,-21.496,-9.0,-13.784,concentric,2,3.0,32676.0,162530.0,78297.0,163208.0,89744.0
2026-04-14 17:10:38.203571,114583,1609504131947920,1731918012,0.884256,-0.210816,-0.394304,2.21375,18.29625,-0.51625,-21.496,-9.0,-13.784,concentric,2,3.0,32676.0,162530.0,78297.0,163208.0,89744.0
2026-04-14 17:10:38.214689,114584,1609504131962383,1731930875,0.94672,-0.210816,-0.394304,10.9025,16.8525,1.26875,-21.144001,-8.984,-17.08,concentric,2,3.0,32676.0,162530.0,78297.0,163208.0,89744.0
2026-04-14 17:10:38.225932,114585,1609504131971679,1731941618,1.04432,-0.257664,-0.238144,9.16125,20.58875,3.35125,-20.888,-8.368,-14.864,concentric,2,3.0,32676.0,162530.0,78297.0,163208.0,89744.0
2026-04-14 17:10:38.258568,114597,1609504131980768,1731950601,1.04432,-0.257664,-0.238144,0.25375,25.2525,2.1525,-20.888,-8.368,-14.864,concentric,2,3.0,32819.0,162643.0,78356.0,163612.0,89644.0
2026-04-14 17:10:38.261156,114598,1609504131995339,1731965525,0.991616,-0.37088,-0.35136,-12.565,28.69125,-3.59625,-22.024,-8.152,-14.192,concentric,2,3.0,32819.0,162643.0,78356.0,163612.0,89644.0
2026-04-14 17:10:38.263622,114599,1609504132004397,1731974267,0.991616,-0.37088,-0.35136,-18.0775,29.84625,-9.73875,-22.024,-8.152,-14.192,concentric,2,3.0,32819.0,162643.0,78356.0,163612.0,89644.0
2026-04-14 17:10:38.277449,114600,1609504132018876,1731989201,1.020896,-0.421632,-0.359168,-13.9475,30.91375,-12.005,-23.056002,-7.776001,-11.992001,concentric,2,3.0,32819.0,162643.0,78356.0,163612.0,89644.0
2026-04-14 17:10:38.283668,114601,1609504132027782,1731997864,1.020896,-0.421632,-0.359168,-4.8825,32.27875,-11.13,-23.056002,-7.776001,-11.992001,concentric,2,3.0,32819.0,162643.0,78356.0,163612.0,89644.0
2026-04-14 17:10:38.292433,114602,1609504132036704,1732006584,1.032608,-0.402112,-0.378688,5.03125,34.23,-8.51375,-21.584002,-8.320001,-14.648001,concentric,2,3.0,32819.0,162643.0,78356.0,163612.0,89644.0
2026-04-14 17:10:38.307227,114603,1609504132051239,1732021507,1.05408,-0.265472,-0.425536,10.4825,37.415,-7.1225,-21.480001,-7.824,-14.112,concentric,2,3.0,32819.0,162643.0,78356.0,163612.0,89644.0
2026-04-14 17:10:38.318609,114604,1609504132060153,1732030208,1.05408,-0.265472,-0.425536,9.61625,42.385,-8.18125,-21.480001,-7.824,-14.112,concentric,2,3.0,32819.0,162643.0,78356.0,163612.0,89644.0
2026-04-14 17:10:38.329800,114605,1609504132074647,1732043055,1.06384,-0.374784,-0.286944,4.48875,44.388752,-11.4975,-21.976002,-7.816001,-13.808001,concentric,2,3.0,32819.0,162643.0,78356.0,163612.0,89644.0
