pc_time,serial_num,sensor_ts,host_ts,ax,ay,az,gx,gy,gz,mx,my,mz,phase,rpe,weight_kg,ppg_a,ppg_b,ppg_c,ppg_d,ppg_e
2026-04-14 18:14:09.816044,831099,1609507943426516,5543396303,0.931104,0.07808,0.232288,-124.32,-32.69,-50.4875,-8.096001,7.264,29.584002,none,4,3.0,94594.0,315329.0,173060.0,307494.0,183730.0
2026-04-14 18:14:09.838287,831100,1609507943435490,5543405005,0.931104,0.07808,0.232288,-125.37,-35.420002,-52.71875,-8.096001,7.264,29.584002,none,4,3.0,94594.0,315329.0,173060.0,307494.0,183730.0
2026-04-14 18:14:09.846128,831101,1609507943450019,5543419915,0.954528,-0.003904,0.257664,-124.425,-36.56625,-51.4325,-8.464001,8.792001,27.880001,none,4,3.0,94594.0,315329.0,173060.0,307494.0,183730.0
2026-04-14 18:14:09.851625,831102,1609507943458956,5543428661,0.954528,-0.003904,0.501664,-124.60875,-34.51875,-46.8125,-8.464001,8.792001,27.880001,none,4,3.0,94594.0,315329.0,173060.0,307494.0,183730.0
2026-04-14 18:14:09.878677,831113,1609507943473929,5543443696,0.960384,0.066368,0.501664,-125.88625,-29.575,-41.16875,-8.264,9.952001,28.640001,none,4,3.0,118623.0,332190.0,202190.0,321926.0,213330.0
2026-04-14 18:14:09.881333,831114,1609507943482972,5543452382,0.983808,0.054656,0.232288,-122.36875,-25.7075,-39.66375,-9.480001,11.792001,27.216002,none,4,3.0,118623.0,332190.0,202190.0,321926.0,213330.0
2026-04-14 18:14:09.883832,831115,1609507943492001,5543461128,0.983808,0.054656,0.232288,-123.655,-24.66625,-41.39625,-9.480001,11.792001,27.216002,none,4,3.0,118623.0,332190.0,202190.0,321926.0,213330.0
2026-04-14 18:14:09.886330,831116,1609507943506515,5543476153,0.921344,0.081984,0.374784,-125.93,-25.7075,-44.30125,-9.480001,12.984,26.504002,none,4,3.0,118623.0,332190.0,202190.0,321926.0,213330.0
2026-04-14 18:14:09.892546,831117,1609507943515545,5543484863,0.921344,0.081984,0.374784,-125.37875,-25.48,-50.26,-9.480001,12.984,26.504002,none,4,3.0,118623.0,332190.0,202190.0,321926.0,213330.0
2026-04-14 18:14:09.906155,831118,1609507943530048,5543499792,0.88816,0.011712,0.525088,-127.426254,-24.675,-54.232502,-9.432,13.992001,25.04,none,4,3.0,118623.0,332190.0,202190.0,321926.0,213330.0
2026-04-14 18:14:09.914840,831119,1609507943539033,5543508597,0.88816,0.011712,0.525088,-129.49126,-24.85875,-54.18875,-9.432,13.992001,25.04,none,4,3.0,118623.0,332190.0,202190.0,321926.0,213330.0
2026-04-14 18:14:09.922264,831120,1609507943547971,5543517336,0.921344,-0.044896,0.568032,-124.6875,-24.0975,-52.605,-9.84,14.992001,22.432001,none,4,3.0,118623.0,332190.0,202190.0,321926.0,213330.0
2026-04-14 18:14:09.938551,831121,1609507943562468,5543532248,0.90768,-0.017568,0.486048,-120.715004,-21.875,-51.415,-10.616,16.52,24.208002,none,4,3.0,118623.0,332190.0,202190.0,321926.0,213330.0
2026-04-14 18:14:09.969759,831132,1609507943571875,5543541231,0.90768,-0.017568,0.486048,-119.41125,-19.59125,-49.16625,-10.616,16.52,24.208002,none,4,3.0,122475.0,336549.0,207118.0,326171.0,217621.0
2026-04-14 18:14:09.974412,831133,1609507943586473,5543556245,0.864736,-0.007808,0.421632,-116.5675,-18.83875,-48.16,-10.552,17.088001,23.304,none,4,3.0,122475.0,336549.0,207118.0,326171.0,217621.0
2026-04-14 18:14:09.974827,831134,1609507943595605,5543564950,0.864736,-0.007808,0.421632,-111.0375,-19.0925,-50.39125,-10.552,17.088001,23.304,none,4,3.0,122475.0,336549.0,207118.0,326171.0,217621.0
2026-04-14 18:14:09.981144,831135,1609507943604653,5543573650,0.7808,0.001952,0.324032,-105.39375,-18.61125,-53.66375,-11.056001,18.008001,22.512001,none,4,3.0,122475.0,336549.0,207118.0,326171.0,217621.0
2026-04-14 18:14:09.993618,831136,1609507943619192,5543588606,0.7808,0.001952,0.324032,-103.11875,-18.27,-55.291252,-11.056001,18.008001,22.512001,none,4,3.0,122475.0,336549.0,207118.0,326171.0,217621.0
2026-04-14 18:14:10.003557,831137,1609507943628224,5543597307,0.827648,-0.062464,0.310368,-101.05375,-17.54375,-54.29375,-11.192,18.792002,22.128,none,4,3.0,122475.0,336549.0,207118.0,326171.0,217621.0
2026-04-14 18:14:10.037380,831138,1609507943642718,5543612204,0.813984,0.02928,0.435296,-97.13375,-16.51125,-53.12125,-11.672001,19.816002,22.088001,none,4,3.0,122475.0,336549.0,207118.0,326171.0,217621.0
2026-04-14 18:14:10.039575,831139,1609507943651614,5543620899,0.813984,0.02928,0.435296,-93.03,-14.06125,-51.75625,-11.672001,19.816002,22.088001,none,4,3.0,122475.0,336549.0,207118.0,326171.0,217621.0
2026-04-14 18:14:10.043422,831140,1609507943666068,5543635806,0.716384,0.064416,0.2928,-90.86,-11.9525,-51.89625,-13.096001,20.504002,20.504002,none,4,3.0,122475.0,336549.0,207118.0,326171.0,217621.0
2026-04-14 18:14:10.071069,831151,1609507943675139,5543644601,0.716384,0.064416,0.2928,-88.85625,-10.28125,-53.64625,-13.096001,20.504002,20.504002,none,4,3.0,117536.0,333822.0,200935.0,323451.0,211302.0
2026-04-14 18:14:10.073890,831152,1609507943684128,5543653355,0.74176,0.017568,0.271328,-84.81375,-8.68875,-55.895,-13.440001,20.584002,20.152,none,4,3.0,117536.0,333822.0,200935.0,323451.0,211302.0
2026-04-14 18:14:10.078071,831153,1609507943698704,5543668530,0.74176,0.017568,0.271328,-82.11875,-6.7025,-57.015,-13.440001,20.584002,20.152,none,4,3.0,117536.0,333822.0,200935.0,323451.0,211302.0
2026-04-14 18:14:10.082250,831154,1609507943707731,5543677239,0.71248,0.02928,0.296704,-83.2475,-4.26125,-54.888752,-12.792001,21.344002,19.952002,none,4,3.0,117536.0,333822.0,200935.0,323451.0,211302.0
2026-04-14 18:14:10.098620,831155,1609507943722258,5543692165,0.806176,0.052704,0.357216,-84.98875,-0.2975,-51.388752,-13.280001,22.048,19.52,none,4,3.0,117536.0,333822.0,200935.0,323451.0,211302.0
2026-04-14 18:14:10.107441,831156,1609507943731255,5543700880,0.806176,0.052704,0.357216,-85.54875,3.49125,-49.805,-13.280001,22.048,19.52,none,4,3.0,117536.0,333822.0,200935.0,323451.0,211302.0
2026-04-14 18:14:10.117727,831157,1609507943740322,5543709593,0.806176,0.052704,0.357216,-86.28375,6.58,-49.385,-13.280001,22.048,19.52,none,4,3.0,117536.0,333822.0,200935.0,323451.0,211302.0
2026-04-14 18:14:10.130155,831158,1609507943754840,5543724534,0.769088,0.091744,0.386496,-84.9975,9.485,-51.42375,-14.280001,22.696001,19.128,none,4,3.0,117536.0,333822.0,200935.0,323451.0,211302.0
2026-04-14 18:14:10.140383,831159,1609507943763775,5543733222,0.77104,0.066368,0.415776,-82.78375,11.31375,-54.04875,-15.312,23.008001,18.84,none,4,3.0,117536.0,333822.0,200935.0,323451.0,211302.0
2026-04-14 18:14:10.219195,831170,1609507943778311,5543748687,0.77104,0.066368,0.415776,-81.17375,13.0375,-54.46,-15.312,23.008001,18.84,none,4,3.0,107455.0,326456.0,188325.0,316569.0,199257.0
2026-04-14 18:14:10.221275,831171,1609507943787349,5543757465,0.806176,0.031232,0.415776,-81.62,14.77,-51.73875,-13.592001,23.296001,17.264,none,4,3.0,107455.0,326456.0,188325.0,316569.0,199257.0
2026-04-14 18:14:10.223791,831172,1609507943802117,5543772399,0.788608,0.06832,0.445056,-82.48625,16.7125,-47.20625,-13.936001,23.28,17.384,none,4,3.0,107455.0,326456.0,188325.0,316569.0,199257.0
2026-04-14 18:14:10.226225,831173,1609507943811052,5543781098,0.788608,0.06832,0.445056,-79.89625,20.055,-43.75,-13.936001,23.28,17.384,none,4,3.0,107455.0,326456.0,188325.0,316569.0,199257.0
2026-04-14 18:14:10.229847,831174,1609507943819999,5543789810,0.788608,0.06832,0.445056,-74.94375,22.79375,-44.065,-13.936001,23.28,17.384,none,4,3.0,107455.0,326456.0,188325.0,316569.0,199257.0
2026-04-14 18:14:10.231332,831175,1609507943834492,5543804715,0.732,0.11712,0.345504,-71.28625,25.4975,-47.20625,-14.320001,24.224,18.184,none,4,3.0,107455.0,326456.0,188325.0,316569.0,199257.0
2026-04-14 18:14:10.233677,831176,1609507943843489,5543813426,0.798368,0.062464,0.304512,-69.48375,27.1425,-51.72125,-15.264001,24.608002,15.720001,none,4,3.0,107455.0,326456.0,188325.0,316569.0,199257.0
2026-04-14 18:14:10.236952,831177,1609507943858088,5543828501,0.798368,0.062464,0.304512,-70.1575,28.7875,-54.5825,-15.264001,24.608002,15.720001,none,4,3.0,107455.0,326456.0,188325.0,316569.0,199257.0
2026-04-14 18:14:10.242488,831178,1609507943867103,5543837210,0.856928,0.052704,0.44896,-72.54625,30.10875,-55.335,-15.608001,25.032001,16.52,none,4,3.0,107455.0,326456.0,188325.0,316569.0,199257.0
2026-04-14 18:14:10.271003,831189,1609507943876314,5543846042,0.856928,0.052704,0.44896,-74.36625,30.835001,-55.965,-15.608001,25.032001,16.52,none,4,3.0,114050.0,333051.0,196604.0,323069.0,207375.0
2026-04-14 18:14:10.274105,831190,1609507943891052,5543861042,0.75152,0.109312,0.427488,-74.20875,32.2525,-57.05875,-15.816001,25.12,16.008001,none,4,3.0,114050.0,333051.0,196604.0,323069.0,207375.0
2026-04-14 18:14:10.276308,831191,1609507943900212,5543869742,0.75152,0.109312,0.427488,-73.36875,33.60875,-58.19625,-15.816001,25.12,16.008001,none,4,3.0,114050.0,333051.0,196604.0,323069.0,207375.0
2026-04-14 18:14:10.291294,831192,1609507943914727,5543884640,0.8296,0.01952,0.445056,-71.04125,32.357502,-58.52875,-15.688001,25.112001,16.512001,none,4,3.0,114050.0,333051.0,196604.0,323069.0,207375.0
2026-04-14 18:14:10.298748,831193,1609507943923696,5543893410,0.823744,0.054656,0.38064,-67.4275,29.46125,-54.87125,-17.192001,25.752,14.440001,none,4,3.0,114050.0,333051.0,196604.0,323069.0,207375.0
2026-04-14 18:14:10.310406,831194,1609507943932660,5543902142,0.823744,0.054656,0.38064,-59.85,25.1825,-51.7125,-17.192001,25.752,14.440001,none,4,3.0,114050.0,333051.0,196604.0,323069.0,207375.0
2026-04-14 18:14:10.323775,831195,1609507943947158,5543917102,0.743712,0.095648,0.296704,-52.59625,20.7025,-50.1375,-15.672001,25.240002,13.72,none,4,3.0,114050.0,333051.0,196604.0,323069.0,207375.0
2026-04-14 18:14:10.332743,831196,1609507943956173,5543925824,0.743712,0.095648,0.296704,-49.11375,15.02375,-47.18875,-15.672001,25.240002,13.72,none,4,3.0,114050.0,333051.0,196604.0,323069.0,207375.0
2026-04-14 18:14:10.372801,831207,1609507943970668,5543941294,0.767136,0.105408,0.40016,-46.24375,8.085,-42.86625,-16.008001,25.240002,13.664001,none,4,3.0,118904.0,331880.0,203392.0,322440.0,214093.0
2026-04-14 18:14:10.375311,831208,1609507943979701,5543949994,0.767136,0.105408,0.40016,-43.3125,1.2775,-38.482502,-16.008001,25.240002,13.664001,none,4,3.0,118904.0,331880.0,203392.0,322440.0,214093.0
2026-04-14 18:14:10.377394,831209,1609507943994283,5543963105,0.854976,0.056608,0.454816,-44.7475,-4.94375,-32.85625,-16.28,25.480001,13.320001,none,4,3.0,118904.0,331880.0,203392.0,322440.0,214093.0
2026-04-14 18:14:10.380596,831210,1609507944003745,5543973899,0.786656,0.017568,0.314272,-47.6525,-8.7675,-26.5125,-16.328001,25.760002,13.952001,none,4,3.0,118904.0,331880.0,203392.0,322440.0,214093.0
2026-04-14 18:14:10.389992,831211,1609507944012715,5543982594,0.786656,0.017568,0.314272,-47.285,-9.33625,-22.0325,-16.328001,25.760002,13.952001,none,4,3.0,118904.0,331880.0,203392.0,322440.0,214093.0
2026-04-14 18:14:10.406248,831212,1609507944027337,5543997478,0.788608,0.007808,0.26352,-42.00875,-7.21875,-19.1975,-16.912,25.904001,13.272,none,4,3.0,118904.0,331880.0,203392.0,322440.0,214093.0
2026-04-14 18:14:10.412949,831213,1609507944036275,5544006230,0.788608,0.007808,0.26352,-33.22375,-3.9375,-16.065,-16.912,25.904001,13.272,none,4,3.0,118904.0,331880.0,203392.0,322440.0,214093.0
2026-04-14 18:14:10.430735,831214,1609507944050823,5544021178,0.837408,0.01952,0.466528,-24.7625,-0.21,-11.05125,-17.216002,26.152,13.192,none,4,3.0,118904.0,331880.0,203392.0,322440.0,214093.0
2026-04-14 18:14:10.436367,831215,1609507944059745,5544029866,0.837408,0.01952,0.466528,-20.88625,3.22,-4.7075,-17.216002,26.152,13.192,none,4,3.0,118904.0,331880.0,203392.0,322440.0,214093.0
2026-04-14 18:14:10.446652,831216,1609507944068817,5544038582,0.853024,-0.07808,0.32208,-22.44375,7.0,3.1675,-16.248001,26.080002,12.248,none,4,3.0,118904.0,331880.0,203392.0,322440.0,214093.0
2026-04-14 18:14:10.473459,831227,1609507944083438,5544053630,0.853024,0.007808,0.404064,-22.95125,12.005,11.2,-16.248001,26.080002,12.248,none,4,3.0,127176.0,336193.0,213776.0,326466.0,224213.0
2026-04-14 18:14:10.475977,831228,1609507944092378,5544062353,0.755424,0.007808,0.404064,-19.55625,17.26375,15.68,-16.144001,26.008001,12.152,none,4,3.0,127176.0,336193.0,213776.0,326466.0,224213.0
2026-04-14 18:14:10.483546,831229,1609507944106931,5544077277,0.802272,0.013664,0.427488,-14.51625,21.49,17.9375,-15.824,26.168001,12.536,none,4,3.0,127176.0,336193.0,213776.0,326466.0,224213.0
2026-04-14 18:14:10.490947,831230,1609507944115909,5544085987,0.802272,0.013664,0.427488,-9.730001,25.22625,18.165,-15.824,26.168001,12.536,none,4,3.0,127176.0,336193.0,213776.0,326466.0,224213.0
2026-04-14 18:14:10.506102,831231,1609507944130435,5544098831,0.743712,-0.023424,0.3416,-7.90125,28.51625,17.54375,-15.256001,26.776001,12.528001,none,4,3.0,127176.0,336193.0,213776.0,326466.0,224213.0
2026-04-14 18:14:10.517490,831232,1609507944139770,5544109585,0.743712,-0.023424,0.3416,-10.50875,30.695,18.41,-15.256001,26.776001,12.528001,none,4,3.0,127176.0,336193.0,213776.0,326466.0,224213.0
2026-04-14 18:14:10.550030,831233,1609507944148689,5544118269,0.827648,-0.06832,0.491904,-12.775,31.9725,20.5975,-15.384001,26.792002,11.960001,none,4,3.0,127176.0,336193.0,213776.0,326466.0,224213.0
2026-04-14 18:14:10.575005,831234,1609507944163410,5544133179,0.827648,-0.06832,0.491904,-11.10375,30.52875,22.44375,-15.384001,26.792002,11.960001,none,4,3.0,127176.0,336193.0,213776.0,326466.0,224213.0
2026-04-14 18:14:10.592603,831235,1609507944172362,5544141872,0.755424,-0.027328,0.427488,-6.11625,27.1775,23.72125,-15.040001,27.208002,13.024,none,4,3.0,127176.0,336193.0,213776.0,326466.0,224213.0
2026-04-14 18:14:10.619784,831246,1609507944186925,5544156832,0.831552,-0.044896,0.501664,-1.6275,21.00875,23.33625,-14.864,27.248001,13.144001,none,4,3.0,115723.0,334905.0,200467.0,326329.0,210966.0
2026-04-14 18:14:10.622142,831247,1609507944195860,5544165517,0.831552,-0.044896,0.501664,0.7525,16.3275,22.95125,-14.864,27.248001,13.144001,none,4,3.0,115723.0,334905.0,200467.0,326329.0,210966.0
2026-04-14 18:14:10.624614,831248,1609507944204807,5544174183,0.759328,-0.066368,0.452864,1.84625,14.175,22.9775,-14.776001,27.36,13.144001,none,4,3.0,115723.0,334905.0,200467.0,326329.0,210966.0
2026-04-14 18:14:10.627066,831249,1609507944219338,5544189144,0.759328,-0.066368,0.452864,0.35,13.36125,24.29875,-14.776001,27.36,13.144001,none,4,3.0,115723.0,334905.0,200467.0,326329.0,210966.0
2026-04-14 18:14:10.629660,831250,1609507944228446,5544197883,0.774944,-0.074176,0.456768,0.105,15.68,24.0625,-13.992001,27.296001,12.84,none,4,3.0,115723.0,334905.0,200467.0,326329.0,210966.0
2026-04-14 18:14:10.632097,831251,1609507944243092,5544212863,0.774944,-0.074176,0.456768,1.88125,18.61125,21.48125,-13.992001,27.296001,12.84,none,4,3.0,115723.0,334905.0,200467.0,326329.0,210966.0
2026-04-14 18:14:10.634553,831252,1609507944252170,5544221564,0.70272,-0.033184,0.398208,4.62875,19.41625,19.59125,-13.816001,27.264002,13.328001,none,4,3.0,115723.0,334905.0,200467.0,326329.0,210966.0
2026-04-14 18:14:10.637096,831253,1609507944261155,5544230301,0.70272,-0.033184,0.398208,9.17,19.04875,17.5525,-13.816001,27.264002,13.328001,none,4,3.0,115723.0,334905.0,200467.0,326329.0,210966.0
2026-04-14 18:14:10.698804,831264,1609507944276088,5544245375,0.732,-0.06832,0.3904,13.7375,18.1125,16.1525,-12.864,26.464,12.64,none,4,3.0,118659.0,335914.0,204708.0,328011.0,215237.0
2026-04-14 18:14:10.701278,831265,1609507944285108,5544254285,0.689056,-0.035136,0.530944,16.47625,17.99,16.94,-13.320001,27.128002,13.6,none,4,3.0,118659.0,335914.0,204708.0,328011.0,215237.0
2026-04-14 18:14:10.703659,831266,1609507944299591,5544269224,0.689056,-0.035136,0.530944,17.03625,19.1975,19.7575,-13.320001,27.128002,13.6,none,4,3.0,118659.0,335914.0,204708.0,328011.0,215237.0
2026-04-14 18:14:10.706211,831267,1609507944308693,5544278008,0.778848,0.003904,0.628544,19.53875,19.8275,20.9825,-13.160001,27.544,15.064001,none,4,3.0,118659.0,335914.0,204708.0,328011.0,215237.0
2026-04-14 18:14:10.708861,831268,1609507944317635,5544286746,0.778848,0.003904,0.628544,23.17,19.4425,20.32625,-13.160001,27.544,15.064001,none,4,3.0,118659.0,335914.0,204708.0,328011.0,215237.0
2026-04-14 18:14:10.711294,831269,1609507944332336,5544301780,0.679296,0.003904,0.464576,26.5825,16.695,20.15125,-13.328001,27.28,15.856001,none,4,3.0,118659.0,335914.0,204708.0,328011.0,215237.0
2026-04-14 18:14:10.716331,831270,1609507944341443,5544310514,0.679296,0.003904,0.464576,30.24,11.85625,19.897501,-13.328001,27.28,15.856001,none,4,3.0,118659.0,335914.0,204708.0,328011.0,215237.0
2026-04-14 18:14:10.731720,831271,1609507944355936,5544325453,0.815936,-0.007808,0.569984,31.745,8.46125,18.9525,-11.552001,26.624,13.792001,none,4,3.0,118659.0,335914.0,204708.0,328011.0,215237.0
2026-04-14 18:14:10.741348,831272,1609507944364864,5544334136,0.815936,-0.007808,0.452864,31.885,8.5925,16.87875,-11.552001,26.624,13.792001,none,4,3.0,118659.0,335914.0,204708.0,328011.0,215237.0
2026-04-14 18:14:10.775034,831283,1609507944379527,5544349122,0.735904,0.037088,0.452864,29.067501,8.5575,15.33,-11.528001,26.728,13.352,none,4,3.0,136873.0,343838.0,226629.0,334547.0,236607.0
2026-04-14 18:14:10.777848,831284,1609507944388718,5544357913,0.753472,0.08784,0.687104,30.3625,6.86,13.72875,-11.128,25.864,14.992001,none,4,3.0,136873.0,343838.0,226629.0,334547.0,236607.0
2026-04-14 18:14:10.780222,831285,1609507944397710,5544366620,0.753472,0.08784,0.687104,35.420002,4.1475,11.06,-11.128,25.864,14.992001,none,4,3.0,136873.0,343838.0,226629.0,334547.0,236607.0
2026-04-14 18:14:10.787537,831286,1609507944412299,5544381598,0.749568,0.031232,0.357216,38.82375,1.1725,8.74125,-11.184001,26.688002,15.464001,none,4,3.0,136873.0,343838.0,226629.0,334547.0,236607.0
2026-04-14 18:14:10.797473,831287,1609507944421216,5544390423,0.749568,0.031232,0.357216,40.69625,-2.2225,9.0125,-11.184001,26.688002,15.464001,none,4,3.0,136873.0,343838.0,226629.0,334547.0,236607.0
2026-04-14 18:14:10.811360,831288,1609507944435698,5544405347,0.782752,0.015616,0.3904,39.2875,-5.45125,10.52625,-11.744,26.080002,14.480001,none,4,3.0,136873.0,343838.0,226629.0,334547.0,236607.0
2026-04-14 18:14:10.821112,831289,1609507944444649,5544414049,0.782752,0.015616,0.3904,37.54625,-7.7,11.9875,-11.744,26.080002,14.480001,none,4,3.0,136873.0,343838.0,226629.0,334547.0,236607.0
2026-04-14 18:14:10.828920,831290,1609507944453651,5544422705,0.778848,0.08784,0.42944,40.705,-7.8225,11.75125,-11.080001,25.536001,15.344001,none,4,3.0,136873.0,343838.0,226629.0,334547.0,236607.0
2026-04-14 18:14:10.843630,831291,1609507944468148,5544437652,0.759328,0.122976,0.5856,44.05625,-7.58625,9.6425,-11.424001,25.44,15.704,none,4,3.0,136873.0,343838.0,226629.0,334547.0,236607.0
2026-04-14 18:14:10.878970,831302,1609507944477118,5544446465,0.759328,0.122976,0.5856,44.1,-8.68,7.945,-11.424001,25.44,15.704,none,4,3.0,141585.0,344115.0,231887.0,334053.0,241574.0
2026-04-14 18:14:10.881609,831303,1609507944491716,5544461428,0.812032,0.003904,0.554368,40.2675,-11.06,8.68875,-10.896001,25.224,16.2,none,4,3.0,141585.0,344115.0,231887.0,334053.0,241574.0
2026-04-14 18:14:10.884090,831304,1609507944500771,5544470167,0.812032,0.003904,0.554368,40.04,-13.7025,11.20875,-10.896001,25.224,16.2,none,4,3.0,141585.0,344115.0,231887.0,334053.0,241574.0
2026-04-14 18:14:10.891641,831305,1609507944515351,5544485088,0.85888,0.072224,0.552416,42.175,-14.0525,13.20375,-11.144,24.880001,16.072,none,4,3.0,141585.0,344115.0,231887.0,334053.0,241574.0
2026-04-14 18:14:10.916673,831306,1609507944524341,5544493777,0.85888,0.072224,0.552416,41.48375,-12.17125,14.34125,-11.144,24.880001,16.072,none,4,3.0,141585.0,344115.0,231887.0,334053.0,241574.0
2026-04-14 18:14:10.941455,831307,1609507944533362,5544502503,0.7808,0.121024,0.484096,36.89875,-9.205,13.877501,-11.032001,24.576,18.480001,none,4,3.0,141585.0,344115.0,231887.0,334053.0,241574.0
2026-04-14 18:14:10.966550,831308,1609507944547927,5544517405,0.856928,0.046848,0.382592,35.98,-5.845,12.99375,-11.096001,24.152,15.072001,none,4,3.0,141585.0,344115.0,231887.0,334053.0,241574.0
2026-04-14 18:14:10.969434,831309,1609507944556856,5544526088,0.856928,0.046848,0.382592,39.17375,-4.73375,10.1325,-11.096001,24.152,15.072001,none,4,3.0,141585.0,344115.0,231887.0,334053.0,241574.0
2026-04-14 18:14:10.971050,831310,1609507944571349,5544541049,0.825696,0.00976,0.353312,37.388752,-5.59125,9.12625,-10.944,23.608002,17.04,none,4,3.0,141585.0,344115.0,231887.0,334053.0,241574.0
2026-04-14 18:14:10.998636,831321,1609507944580412,5544549768,0.825696,0.00976,0.353312,32.82125,-5.74,9.5375,-10.944,23.608002,17.04,none,4,3.0,136985.0,342530.0,226160.0,332558.0,236095.0
2026-04-14 18:14:11.001064,831322,1609507944589416,5544558546,0.835456,0.044896,0.447008,26.29375,-5.1275,10.43,-11.000001,23.880001,18.28,none,4,3.0,136985.0,342530.0,226160.0,332558.0,236095.0
2026-04-14 18:14:11.003353,831323,1609507944604103,5544573488,0.835456,0.044896,0.447008,18.62,-3.57,11.76,-11.000001,23.880001,18.28,none,4,3.0,136985.0,342530.0,226160.0,332558.0,236095.0
2026-04-14 18:14:11.006059,831324,1609507944613090,5544582215,0.802272,0.080032,0.415776,12.005,-2.37125,11.935,-11.8,24.008001,18.528002,none,4,3.0,136985.0,342530.0,226160.0,332558.0,236095.0
2026-04-14 18:14:11.008447,831325,1609507944627583,5544597124,0.81008,0.031232,0.437248,11.7425,-1.18125,9.8175,-11.68,23.856,17.960001,none,4,3.0,136985.0,342530.0,226160.0,332558.0,236095.0
2026-04-14 18:14:11.011109,831326,1609507944636537,5544605880,0.81008,0.031232,0.437248,12.95,-0.88375,6.64125,-11.68,23.856,17.960001,none,4,3.0,136985.0,342530.0,226160.0,332558.0,236095.0
2026-04-14 18:14:11.027262,831327,1609507944651076,5544620787,0.890112,-0.046848,0.4392,9.73875,-0.32375,5.775,-10.6,23.880001,17.528002,none,4,3.0,136985.0,342530.0,226160.0,332558.0,236095.0
2026-04-14 18:14:11.037340,831328,1609507944660015,5544629479,0.890112,-0.046848,0.4392,4.57625,1.0325,7.1925,-10.6,23.880001,17.528002,none,4,3.0,136985.0,342530.0,226160.0,332558.0,236095.0
2026-04-14 18:14:11.044875,831329,1609507944668940,5544638155,0.835456,0.02928,0.474336,1.58375,1.91625,8.2425,-10.448001,24.000002,17.320002,none,4,3.0,136985.0,342530.0,226160.0,332558.0,236095.0
2026-04-14 18:14:11.077253,831340,1609507944683699,5544653207,0.835456,0.02928,0.474336,3.17625,3.68375,7.595,-10.448001,24.000002,17.320002,none,4,3.0,130961.0,340054.0,218933.0,330359.0,229182.0
2026-04-14 18:14:11.079799,831341,1609507944692727,5544661911,0.774944,0.054656,0.435296,7.4725,5.39875,5.43375,-10.72,23.568,17.744001,none,4,3.0,130961.0,340054.0,218933.0,330359.0,229182.0
2026-04-14 18:14:11.086269,831342,1609507944707351,5544676791,0.774944,-0.023424,0.296704,11.7775,6.1775,2.625,-10.72,23.568,17.744001,none,4,3.0,130961.0,340054.0,218933.0,330359.0,229182.0
2026-04-14 18:14:11.093684,831343,1609507944716290,5544685698,0.784704,-0.025376,0.296704,13.8075,5.20625,0.58625,-10.272,23.872002,17.720001,none,4,3.0,130961.0,340054.0,218933.0,330359.0,229182.0
2026-04-14 18:14:11.099770,831344,1609507944725348,5544694478,0.784704,-0.025376,0.296704,13.3525,3.6225,0.56,-10.272,23.872002,17.720001,none,4,3.0,130961.0,340054.0,218933.0,330359.0,229182.0
2026-04-14 18:14:11.117537,831345,1609507944739870,5544709439,0.833504,0.011712,0.554368,11.92625,2.94,0.9975,-10.488001,23.68,16.728,none,4,3.0,130961.0,340054.0,218933.0,330359.0,229182.0
2026-04-14 18:14:11.125790,831346,1609507944748805,5544718131,0.853024,0.042944,0.33184,11.15625,2.73875,2.09125,-11.176001,23.824001,18.688002,none,4,3.0,130961.0,340054.0,218933.0,330359.0,229182.0
2026-04-14 18:14:11.139719,831347,1609507944763319,5544733096,0.853024,0.042944,0.33184,9.6425,3.38625,0.88375,-11.176001,23.824001,18.688002,none,4,3.0,130961.0,340054.0,218933.0,330359.0,229182.0
2026-04-14 18:14:11.147114,831348,1609507944772275,5544741808,0.870592,0.001952,0.37088,7.1575,2.24875,-1.19,-10.616,23.240002,18.704,none,4,3.0,130961.0,340054.0,218933.0,330359.0,229182.0
2026-04-14 18:14:11.180033,831359,1609507944786874,5544756812,0.870592,0.001952,0.37088,5.92375,-0.35875,-2.07375,-10.616,23.240002,18.704,none,4,3.0,134972.0,341586.0,223965.0,331530.0,234194.0
2026-04-14 18:14:11.182410,831360,1609507944795829,5544765518,0.813984,0.001952,0.281088,3.9725,-2.35375,-2.28375,-11.048,23.928001,19.880001,none,4,3.0,134972.0,341586.0,223965.0,331530.0,234194.0
2026-04-14 18:14:11.185100,831361,1609507944804890,5544774281,0.813984,0.001952,0.281088,1.225,-3.7275,-1.58375,-11.048,23.928001,19.880001,none,4,3.0,134972.0,341586.0,223965.0,331530.0,234194.0
2026-04-14 18:14:11.196357,831362,1609507944819393,5544789178,0.808128,0.03904,0.294752,-2.16125,-4.8125,-0.67375,-11.184001,23.688002,19.264002,none,4,3.0,134972.0,341586.0,223965.0,331530.0,234194.0
2026-04-14 18:14:11.203943,831363,1609507944828396,5544797923,0.7808,0.03904,0.288896,-1.14625,-4.73375,-0.84,-11.184001,23.688002,16.424002,none,4,3.0,134972.0,341586.0,223965.0,331530.0,234194.0
2026-04-14 18:14:11.219008,831364,1609507944842891,5544812834,0.7808,0.03904,0.288896,-0.76125,-4.655,-1.89,-10.128,23.416,16.424002,none,4,3.0,134972.0,341586.0,223965.0,331530.0,234194.0
2026-04-14 18:14:11.227159,831365,1609507944851859,5544821526,0.81008,0.050752,0.474336,-3.3075,-4.80375,-2.1175,-10.216001,23.328001,18.232,none,4,3.0,134972.0,341586.0,223965.0,331530.0,234194.0
2026-04-14 18:14:11.243579,831366,1609507944866371,5544836437,0.81008,0.050752,0.474336,-2.9225,-4.80375,-1.79375,-10.216001,23.328001,18.232,none,4,3.0,134972.0,341586.0,223965.0,331530.0,234194.0
2026-04-14 18:14:11.251674,831367,1609507944875320,5544845142,0.784704,0.083936,0.441152,-3.4475,-5.73125,-2.2575,-10.456,23.704,17.336,none,4,3.0,134972.0,341586.0,223965.0,331530.0,234194.0
2026-04-14 18:14:11.352453,831378,1609507944884447,5544853891,0.784704,0.083936,0.441152,-4.06875,-6.34375,-2.4325,-10.456,23.704,17.336,none,4,3.0,136353.0,342509.0,225351.0,331974.0,235472.0
2026-04-14 18:14:11.355062,831379,1609507944898954,5544868830,0.89792,0.060512,0.505568,-3.745,-6.99125,-3.66625,-10.696,23.424002,18.104,none,4,3.0,136353.0,342509.0,225351.0,331974.0,235472.0
2026-04-14 18:14:11.357419,831380,1609507944907871,5544877542,0.89792,0.060512,0.505568,-2.63375,-7.875,-4.55875,-10.696,23.424002,18.104,none,4,3.0,136353.0,342509.0,225351.0,331974.0,235472.0
2026-04-14 18:14:11.360206,831381,1609507944922578,5544892541,0.81008,0.06832,0.460672,-2.205,-8.47,-5.7225,-12.248,23.880001,20.352001,none,4,3.0,136353.0,342509.0,225351.0,331974.0,235472.0
2026-04-14 18:14:11.362849,831382,1609507944931492,5544901235,0.784704,0.046848,0.316224,-2.84375,-6.86875,-6.93875,-12.336,23.984001,19.152,none,4,3.0,136353.0,342509.0,225351.0,331974.0,235472.0
2026-04-14 18:14:11.365413,831383,1609507944940586,5544909926,0.784704,0.046848,0.316224,-4.99625,-5.76625,-7.8925,-12.336,23.984001,19.152,none,4,3.0,136353.0,342509.0,225351.0,331974.0,235472.0
2026-04-14 18:14:11.367911,831384,1609507944955118,5544924840,0.804224,0.054656,0.376736,-8.46125,-4.99625,-8.925,-11.480001,23.44,18.800001,none,4,3.0,136353.0,342509.0,225351.0,331974.0,235472.0
2026-04-14 18:14:11.369810,831385,1609507944964074,5544933598,0.804224,0.054656,0.376736,-11.38375,-5.59125,-9.073751,-11.480001,23.44,18.800001,none,4,3.0,136353.0,342509.0,225351.0,331974.0,235472.0
2026-04-14 18:14:11.400373,831396,1609507944978792,5544949245,0.856928,0.00976,0.36112,-11.90875,-7.14,-9.0125,-12.040001,23.792002,18.896002,none,4,3.0,133405.0,341366.0,221608.0,330811.0,231870.0
2026-04-14 18:14:11.402524,831397,1609507944987769,5544957998,0.856928,0.00976,0.36112,-10.99875,-7.9975,-9.16125,-12.040001,23.792002,18.896002,none,4,3.0,133405.0,341366.0,221608.0,330811.0,231870.0
2026-04-14 18:14:11.407151,831398,1609507945002434,5544970925,0.851072,0.0488,0.501664,-10.3425,-8.0325,-9.66875,-12.200001,24.072,19.208,none,4,3.0,133405.0,341366.0,221608.0,330811.0,231870.0
2026-04-14 18:14:11.407542,831399,1609507945011809,5544981727,0.86864,0.02928,0.435296,-12.0225,-7.98,-9.40625,-12.184001,23.928001,17.616001,none,4,3.0,133405.0,341366.0,221608.0,330811.0,231870.0
2026-04-14 18:14:11.409823,831400,1609507945020915,5544990489,0.86864,0.02928,0.435296,-13.62375,-8.68875,-10.045,-12.184001,23.928001,17.616001,none,4,3.0,133405.0,341366.0,221608.0,330811.0,231870.0
2026-04-14 18:14:11.413725,831401,1609507945035580,5545005445,0.798368,0.081984,0.462624,-12.145,-9.0825,-11.05125,-11.68,23.720001,17.448,none,4,3.0,133405.0,341366.0,221608.0,330811.0,231870.0
2026-04-14 18:14:11.420070,831402,1609507945044573,5545014186,0.798368,0.081984,0.462624,-10.4125,-9.695,-11.69,-11.68,23.720001,17.448,none,4,3.0,133405.0,341366.0,221608.0,330811.0,231870.0
2026-04-14 18:14:11.430347,831403,1609507945053525,5545022907,0.8296,0.066368,0.454816,-11.33125,-9.3975,-12.20625,-11.480001,23.864,17.072,none,4,3.0,133405.0,341366.0,221608.0,330811.0,231870.0
2026-04-14 18:14:11.444104,831404,1609507945068012,5545037781,0.8296,0.066368,0.454816,-12.8275,-8.51375,-12.0225,-11.480001,23.864,17.072,none,4,3.0,133405.0,341366.0,221608.0,330811.0,231870.0
2026-04-14 18:14:11.454106,831405,1609507945076933,5545046486,0.84912,0.035136,0.343552,-14.1925,-8.12875,-11.94375,-11.848001,24.552002,18.2,none,4,3.0,133405.0,341366.0,221608.0,330811.0,231870.0
2026-04-14 18:14:11.481704,831416,1609507945091608,5545061567,0.8784,0.033184,0.40016,-14.16625,-9.0475,-12.1625,-13.488001,24.68,19.728,none,4,3.0,132030.0,339923.0,219723.0,329119.0,230089.0
2026-04-14 18:14:11.483771,831417,1609507945100640,5545070325,0.8784,0.033184,0.40016,-13.74625,-9.695,-12.25,-13.488001,24.68,19.728,none,4,3.0,132030.0,339923.0,219723.0,329119.0,230089.0
2026-04-14 18:14:11.493809,831418,1609507945115352,5545085284,0.88816,0.03904,0.376736,-13.72,-10.3775,-12.20625,-13.632001,24.560001,18.36,none,4,3.0,132030.0,339923.0,219723.0,329119.0,230089.0
2026-04-14 18:14:11.500545,831419,1609507945124285,5545094005,0.88816,0.03904,0.376736,-12.845,-11.1475,-12.15375,-13.632001,24.560001,18.36,none,4,3.0,132030.0,339923.0,219723.0,329119.0,230089.0
2026-04-14 18:14:11.512914,831420,1609507945133306,5545102692,0.782752,0.095648,0.357216,-12.74875,-11.261251,-12.31125,-12.320001,24.160002,16.640001,none,4,3.0,132030.0,339923.0,219723.0,329119.0,230089.0
2026-04-14 18:14:11.523736,831421,1609507945147799,5545117569,0.782752,0.095648,0.357216,-15.86375,-11.94375,-12.67,-12.320001,24.160002,16.640001,none,4,3.0,132030.0,339923.0,219723.0,329119.0,230089.0
2026-04-14 18:14:11.535359,831422,1609507945156764,5545126275,0.864736,0.091744,0.431392,-17.710001,-12.73125,-12.39875,-12.552001,24.472002,16.648,none,4,3.0,132030.0,339923.0,219723.0,329119.0,230089.0
2026-04-14 18:14:11.546621,831423,1609507945171396,5545141204,0.905728,0.027328,0.402112,-18.38375,-13.615,-12.08375,-12.864,24.344002,14.296001,none,4,3.0,132030.0,339923.0,219723.0,329119.0,230089.0
2026-04-14 18:14:11.579217,831434,1609507945180902,5545150285,0.905728,0.027328,0.402112,-18.10375,-15.6625,-12.08375,-12.864,24.344002,14.296001,none,4,3.0,129749.0,338171.0,216321.0,326545.0,226854.0
2026-04-14 18:14:11.581712,831435,1609507945189994,5545159062,0.905728,0.027328,0.402112,-15.1375,-15.855001,-11.41875,-12.864,24.344002,14.296001,none,4,3.0,129749.0,338171.0,216321.0,326545.0,226854.0
2026-04-14 18:14:11.584201,831436,1609507945204622,5545174022,0.874496,0.066368,0.318176,-13.23875,-15.47,-10.4825,-13.944,24.624,17.240002,none,4,3.0,129749.0,338171.0,216321.0,326545.0,226854.0
2026-04-14 18:14:11.591529,831437,1609507945213725,5545182706,0.880352,0.066368,0.281088,-15.56625,-13.92125,-10.71875,-13.544001,24.496,16.288,none,4,3.0,129749.0,338171.0,216321.0,326545.0,226854.0
2026-04-14 18:14:11.604213,831438,1609507945228237,5545197632,0.880352,0.066368,0.281088,-21.27125,-12.27625,-10.22875,-13.544001,24.496,16.288,none,4,3.0,129749.0,338171.0,216321.0,326545.0,226854.0
2026-04-14 18:14:11.612427,831439,1609507945237171,5545206300,0.8784,0.07808,0.4392,-26.32,-12.0575,-9.96625,-13.296001,24.312,16.048,none,4,3.0,129749.0,338171.0,216321.0,326545.0,226854.0
2026-04-14 18:14:11.621034,831440,1609507945246130,5545214992,0.8784,0.07808,0.4392,-26.74875,-12.0225,-9.3625,-13.296001,24.312,16.048,none,4,3.0,129749.0,338171.0,216321.0,326545.0,226854.0
2026-04-14 18:14:11.654135,831441,1609507945260633,5545229897,0.862784,0.03904,0.193248,-24.36,-11.13,-9.2575,-13.568001,24.480001,16.784,none,4,3.0,129749.0,338171.0,216321.0,326545.0,226854.0
2026-04-14 18:14:11.656051,831442,1609507945269583,5545238661,0.862784,0.03904,0.193248,-24.08,-10.3775,-9.45,-13.568001,24.480001,16.784,none,4,3.0,129749.0,338171.0,216321.0,326545.0,226854.0
2026-04-14 18:14:11.726302,831453,1609507945284248,5545253634,0.905728,0.081984,0.470432,-27.1075,-9.12625,-8.2775,-13.424001,24.944,16.664001,none,4,3.0,121834.0,333289.0,206308.0,321027.0,217101.0
2026-04-14 18:14:11.729197,831454,1609507945293240,5545262420,0.88816,0.06832,0.4392,-31.3775,-7.9275,-7.93625,-13.752001,25.160002,15.464001,none,4,3.0,121834.0,333289.0,206308.0,321027.0,217101.0
2026-04-14 18:14:11.731710,831455,1609507945307745,5545277301,0.88816,0.06832,0.4392,-34.5625,-7.3675,-7.945,-13.752001,25.160002,15.464001,none,4,3.0,121834.0,333289.0,206308.0,321027.0,217101.0
2026-04-14 18:14:11.734220,831456,1609507945316658,5545285937,0.84912,0.01952,0.160064,-34.06375,-7.48125,-8.0675,-13.976001,25.416,14.880001,none,4,3.0,121834.0,333289.0,206308.0,321027.0,217101.0
2026-04-14 18:14:11.736700,831457,1609507945325552,5545294661,0.84912,0.01952,0.160064,-30.380001,-8.89,-9.073751,-13.976001,25.416,14.880001,none,4,3.0,121834.0,333289.0,206308.0,321027.0,217101.0
2026-04-14 18:14:11.738621,831458,1609507945340051,5545309560,0.894016,0.03904,0.3904,-29.23375,-10.64,-8.7675,-13.736001,25.416,14.6,none,4,3.0,121834.0,333289.0,206308.0,321027.0,217101.0
2026-04-14 18:14:11.741673,831459,1609507945348998,5545318308,0.894016,0.03904,0.3904,-29.61875,-9.87,-8.05,-13.736001,25.416,14.6,none,4,3.0,121834.0,333289.0,206308.0,321027.0,217101.0
2026-04-14 18:14:11.744155,831460,1609507945363600,5545333314,0.813984,0.046848,0.22448,-31.66625,-8.7325,-8.198751,-13.968,25.336,15.456,none,4,3.0,121834.0,333289.0,206308.0,321027.0,217101.0
2026-04-14 18:14:11.747874,831461,1609507945372569,5545342023,0.895968,0.040992,0.314272,-34.107502,-7.7875,-8.88125,-14.808001,26.072,15.288001,none,4,3.0,121834.0,333289.0,206308.0,321027.0,217101.0
2026-04-14 18:14:11.780205,831472,1609507945387395,5545356997,0.895968,0.040992,0.314272,-35.49875,-7.06125,-9.02125,-14.808001,26.072,15.288001,none,4,3.0,107884.0,323380.0,189156.0,310998.0,199991.0
2026-04-14 18:14:11.783211,831473,1609507945396541,5545365806,0.831552,0.017568,0.26352,-36.47,-7.88375,-8.9425,-14.952001,26.344002,13.424001,none,4,3.0,107884.0,323380.0,189156.0,310998.0,199991.0
2026-04-14 18:14:11.784737,831474,1609507945405563,5545374647,0.831552,0.017568,0.26352,-36.98625,-8.4,-8.61,-14.952001,26.344002,13.424001,none,4,3.0,107884.0,323380.0,189156.0,310998.0,199991.0
2026-04-14 18:14:11.796162,831475,1609507945420103,5545389551,0.823744,0.02928,0.337696,-36.5225,-8.68,-6.43125,-14.464001,25.760002,13.368001,none,4,3.0,107884.0,323380.0,189156.0,310998.0,199991.0
2026-04-14 18:14:11.807363,831476,1609507945429030,5545398254,0.823744,0.02928,0.337696,-35.6475,-8.68875,-5.39875,-14.464001,25.760002,13.368001,none,4,3.0,107884.0,323380.0,189156.0,310998.0,199991.0
2026-04-14 18:14:11.820370,831477,1609507945443529,5545413148,0.823744,0.052704,0.226432,-36.47875,-8.00625,-5.495,-14.288001,26.616001,13.624001,none,4,3.0,107884.0,323380.0,189156.0,310998.0,199991.0
2026-04-14 18:14:11.827437,831478,1609507945452518,5545422012,0.851072,0.03904,0.218624,-37.38,-7.6825,-5.775,-14.288001,26.808,12.808001,none,4,3.0,107884.0,323380.0,189156.0,310998.0,199991.0
2026-04-14 18:14:11.838013,831479,1609507945461509,5545430706,0.851072,0.03904,0.218624,-36.33,-8.417501,-7.90125,-14.312,26.808,12.808001,none,4,3.0,107884.0,323380.0,189156.0,310998.0,199991.0
2026-04-14 18:14:11.853891,831480,1609507945476062,5545445602,0.860832,0.011712,0.267424,-33.25,-9.21375,-10.6575,-15.360001,26.992,12.912001,none,4,3.0,107884.0,323380.0,189156.0,310998.0,199991.0
2026-04-14 18:14:11.882103,831491,1609507945485171,5545454365,0.860832,0.011712,0.267424,-30.31875,-9.94,-12.0925,-15.360001,26.992,12.912001,none,4,3.0,103595.0,320090.0,183847.0,307587.0,194864.0
2026-04-14 18:14:11.884058,831492,1609507945499699,5545469442,0.860832,-0.007808,0.288896,-28.23625,-9.14375,-12.90625,-16.376001,27.368002,13.528001,none,4,3.0,103595.0,320090.0,183847.0,307587.0,194864.0
2026-04-14 18:14:11.886358,831493,1609507945508640,5545478168,0.860832,-0.007808,0.288896,-27.405,-7.4375,-13.448751,-16.376001,27.368002,13.528001,none,4,3.0,103595.0,320090.0,183847.0,307587.0,194864.0
2026-04-14 18:14:11.892846,831494,1609507945517598,5545486877,0.954528,-0.0488,0.435296,-29.33875,-4.78625,-12.2325,-15.536001,27.288002,13.248001,none,4,3.0,103595.0,320090.0,183847.0,307587.0,194864.0
2026-04-14 18:14:11.909189,831495,1609507945532037,5545501794,0.954528,-0.0488,0.435296,-29.88125,-2.70375,-9.86125,-15.536001,27.288002,13.248001,none,4,3.0,103595.0,320090.0,183847.0,307587.0,194864.0
2026-04-14 18:14:11.917959,831496,1609507945540973,5545510510,0.884256,-0.02928,0.427488,-27.30875,-1.54,-6.88625,-14.76,27.304,15.648001,none,4,3.0,103595.0,320090.0,183847.0,307587.0,194864.0
2026-04-14 18:14:11.951289,831497,1609507945555495,5545525500,0.90768,-0.013664,0.466528,-22.61,-1.1375,-4.20875,-15.280001,27.416,12.744,none,4,3.0,103595.0,320090.0,183847.0,307587.0,194864.0
2026-04-14 18:14:11.953684,831498,1609507945564436,5545534195,0.90768,-0.013664,0.466528,-18.99625,-1.0675,-3.1325,-15.280001,27.416,12.744,none,4,3.0,103595.0,320090.0,183847.0,307587.0,194864.0
2026-04-14 18:14:11.956713,831499,1609507945578949,5545549104,0.769088,0.033184,0.368928,-17.61375,-1.42625,-2.51125,-15.400001,27.400002,11.8,none,4,3.0,103595.0,320090.0,183847.0,307587.0,194864.0
2026-04-14 18:14:11.984059,831510,1609507945587950,5545557863,0.769088,0.033184,0.368928,-19.41625,-1.855,-2.1875,-15.400001,27.400002,11.8,none,4,3.0,97003.0,316536.0,175635.0,304155.0,186472.0
2026-04-14 18:14:11.986566,831511,1609507945597005,5545566703,0.786656,-0.001952,0.240096,-21.7,-1.4175,-1.95125,-15.592001,27.344002,11.76,none,4,3.0,97003.0,316536.0,175635.0,304155.0,186472.0
2026-04-14 18:14:11.988598,831512,1609507945611591,5545581663,0.786656,-0.001952,0.240096,-21.63,-1.6625,-2.30125,-15.592001,27.344002,11.76,none,4,3.0,97003.0,316536.0,175635.0,304155.0,186472.0
2026-04-14 18:14:12.019164,831513,1609507945620563,5545590374,0.77104,0.054656,0.443104,-20.95625,-2.23125,-3.63125,-14.696001,27.328001,11.312,none,4,3.0,97003.0,316536.0,175635.0,304155.0,186472.0
2026-04-14 18:14:12.043722,831514,1609507945635066,5545605282,0.784704,0.023424,0.244,-20.39625,-3.05375,-5.17125,-14.888001,27.712002,11.312,none,4,3.0,97003.0,316536.0,175635.0,304155.0,186472.0
2026-04-14 18:14:12.048756,831515,1609507945644011,5545613958,0.784704,0.023424,0.244,-20.27375,-4.40125,-7.04375,-14.888001,27.712002,11.312,none,4,3.0,97003.0,316536.0,175635.0,304155.0,186472.0
2026-04-14 18:14:12.051121,831516,1609507945658644,5545628930,0.765184,0.056608,0.466528,-20.195,-6.0725,-9.58125,-14.584001,27.880001,11.040001,none,4,3.0,97003.0,316536.0,175635.0,304155.0,186472.0
2026-04-14 18:14:12.053773,831517,1609507945667568,5545637614,0.765184,0.056608,0.466528,-20.34375,-7.0175,-10.99,-14.584001,27.880001,11.040001,none,4,3.0,97003.0,316536.0,175635.0,304155.0,186472.0
2026-04-14 18:14:12.056713,831518,1609507945676522,5545646292,0.776896,0.060512,0.435296,-19.53875,-6.81625,-12.48625,-15.120001,27.712002,10.584001,none,4,3.0,97003.0,316536.0,175635.0,304155.0,186472.0
2026-04-14 18:14:12.083573,831529,1609507945691605,5545661337,0.776896,0.060512,0.435296,-18.87375,-5.92375,-12.88,-15.120001,27.712002,10.584001,none,4,3.0,96162.0,315540.0,174595.0,303212.0,185582.0
2026-04-14 18:14:12.086565,831530,1609507945700587,5545670073,0.847168,0.033184,0.450912,-21.455,-6.65,-13.1775,-15.040001,27.960001,12.6,none,4,3.0,96162.0,315540.0,174595.0,303212.0,185582.0
2026-04-14 18:14:12.091232,831531,1609507945715169,5545685004,0.833504,0.031232,0.505568,-23.16125,-7.3675,-13.055,-15.304001,27.736002,10.856001,none,4,3.0,96162.0,315540.0,174595.0,303212.0,185582.0
2026-04-14 18:14:12.100520,831532,1609507945724158,5545693735,0.833504,0.031232,0.505568,-23.33625,-8.1725,-13.6325,-15.304001,27.736002,10.856001,none,4,3.0,96162.0,315540.0,174595.0,303212.0,185582.0
2026-04-14 18:14:12.110442,831533,1609507945733168,5545702430,0.833504,0.031232,0.505568,-23.75625,-8.6975,-13.29125,-15.304001,27.736002,10.856001,none,4,3.0,96162.0,315540.0,174595.0,303212.0,185582.0
2026-04-14 18:14:12.123800,831534,1609507945747634,5545717380,0.837408,0.015616,0.445056,-24.928751,-9.98375,-12.8625,-15.696001,27.984001,8.344001,none,4,3.0,96162.0,315540.0,174595.0,303212.0,185582.0
2026-04-14 18:14:12.131689,831535,1609507945756774,5545726101,0.782752,0.035136,0.31232,-26.635,-9.905,-11.76875,-16.256,28.352001,11.104,none,4,3.0,96162.0,315540.0,174595.0,303212.0,185582.0
2026-04-14 18:14:12.146679,831536,1609507945771301,5545741031,0.782752,0.035136,0.31232,-26.32,-9.6775,-9.835,-16.256,28.352001,11.104,none,4,3.0,96162.0,315540.0,174595.0,303212.0,185582.0
2026-04-14 18:14:12.157638,831537,1609507945780256,5545749734,0.79056,0.046848,0.3416,-25.655,-10.395,-10.24625,-16.264,27.976002,9.912001,none,4,3.0,96162.0,315540.0,174595.0,303212.0,185582.0
2026-04-14 18:14:12.184971,831548,1609507945789253,5545758470,0.79056,0.046848,0.3416,-25.5675,-10.9725,-10.94625,-16.264,27.976002,9.912001,none,4,3.0,102162.0,318284.0,181636.0,305554.0,192801.0
2026-04-14 18:14:12.187483,831549,1609507945803785,5545773427,0.890112,0.033184,0.530944,-25.27,-10.59625,-10.605001,-15.776001,28.056002,9.616,none,4,3.0,102162.0,318284.0,181636.0,305554.0,192801.0
2026-04-14 18:14:12.190410,831550,1609507945812791,5545782182,0.890112,0.033184,0.530944,-25.1125,-11.20875,-10.5875,-15.776001,28.056002,9.616,none,4,3.0,102162.0,318284.0,181636.0,305554.0,192801.0
2026-04-14 18:14:12.205148,831551,1609507945827324,5545797093,0.81984,0.03904,0.32208,-25.99625,-11.6025,-10.3425,-15.936001,27.976002,8.248,none,4,3.0,102162.0,318284.0,181636.0,305554.0,192801.0
2026-04-14 18:14:12.212976,831552,1609507945836281,5545805786,0.83936,0.042944,0.382592,-27.32625,-11.41,-9.47625,-16.088001,28.168001,7.888001,none,4,3.0,102162.0,318284.0,181636.0,305554.0,192801.0
2026-04-14 18:14:12.227942,831553,1609507945850808,5545820781,0.83936,0.042944,0.382592,-27.06375,-11.82125,-9.3975,-16.088001,28.168001,7.888001,none,4,3.0,102162.0,318284.0,181636.0,305554.0,192801.0
2026-04-14 18:14:12.237933,831554,1609507945859726,5545829478,0.866688,0.003904,0.33184,-26.6525,-12.41625,-9.1525,-16.928001,28.344002,8.624001,none,4,3.0,102162.0,318284.0,181636.0,305554.0,192801.0
2026-04-14 18:14:12.246701,831555,1609507945868700,5545838241,0.866688,0.003904,0.33184,-25.66375,-12.18875,-8.89,-16.928001,28.344002,8.624001,none,4,3.0,102162.0,318284.0,181636.0,305554.0,192801.0
2026-04-14 18:14:12.284202,831566,1609507945883624,5545853201,0.837408,0.037088,0.456768,-25.375,-11.82125,-9.02125,-16.400002,28.456001,8.568001,none,4,3.0,99394.0,317184.0,177909.0,304329.0,188902.0
2026-04-14 18:14:12.286712,831567,1609507945892695,5545862217,0.837408,0.037088,0.456768,-26.11875,-11.725,-8.715,-16.400002,28.456001,8.568001,none,4,3.0,99394.0,317184.0,177909.0,304329.0,188902.0
2026-04-14 18:14:12.288620,831568,1609507945907254,5545877147,0.833504,-0.027328,0.267424,-25.9875,-11.90875,-7.7525,-17.2,28.920002,9.408,none,4,3.0,99394.0,317184.0,177909.0,304329.0,188902.0
2026-04-14 18:14:12.292912,831569,1609507945916336,5545885922,0.85888,-0.017568,0.279136,-24.71875,-12.2325,-6.335,-17.352001,29.008001,6.752,none,4,3.0,99394.0,317184.0,177909.0,304329.0,188902.0
2026-04-14 18:14:12.301753,831570,1609507945925392,5545894684,0.85888,-0.017568,0.279136,-22.51375,-12.1625,-5.7225,-17.352001,29.008001,6.752,none,4,3.0,99394.0,317184.0,177909.0,304329.0,188902.0
2026-04-14 18:14:12.315501,831571,1609507945939923,5545909627,0.767136,0.001952,0.275232,-22.75875,-12.22375,-6.335,-17.248001,29.208002,8.64,none,4,3.0,99394.0,317184.0,177909.0,304329.0,188902.0
2026-04-14 18:14:12.324250,831572,1609507945948874,5545918321,0.767136,0.001952,0.275232,-23.40625,-12.425,-6.405,-17.248001,29.208002,8.64,none,4,3.0,99394.0,317184.0,177909.0,304329.0,188902.0
2026-04-14 18:14:12.341276,831573,1609507945963373,5545933199,0.8296,0.005856,0.4392,-22.70625,-11.3575,-6.44,-17.328001,28.536001,7.264,none,4,3.0,99394.0,317184.0,177909.0,304329.0,188902.0
2026-04-14 18:14:12.348611,831574,1609507945972297,5545941886,0.8296,0.005856,0.4392,-20.7025,-11.48875,-7.035,-17.328001,28.536001,7.264,none,4,3.0,99394.0,317184.0,177909.0,304329.0,188902.0
2026-04-14 18:14:12.431349,831585,1609507945987648,5545956855,0.817888,0.013664,0.423584,-19.1975,-12.50375,-7.30625,-16.784,28.832,7.288001,none,4,3.0,90476.0,312763.0,167192.0,300329.0,178008.0
2026-04-14 18:14:12.435397,831586,1609507945996673,5545965614,0.763232,0.031232,0.343552,-19.0925,-13.335,-7.83125,-16.752,28.760002,6.096,none,4,3.0,90476.0,312763.0,167192.0,300329.0,178008.0
2026-04-14 18:14:12.441946,831587,1609507946005684,5545974321,0.763232,0.031232,0.343552,-17.87625,-13.25625,-9.05625,-16.752,28.760002,6.096,none,4,3.0,90476.0,312763.0,167192.0,300329.0,178008.0
2026-04-14 18:14:12.443517,831588,1609507946020548,5545989261,0.76128,0.031232,0.394304,-17.535,-12.985,-10.15,-17.008001,28.832,7.08,none,4,3.0,90476.0,312763.0,167192.0,300329.0,178008.0
2026-04-14 18:14:12.446686,831589,1609507946029794,5545999990,0.76128,0.031232,0.394304,-17.255,-12.90625,-11.13,-17.008001,28.832,7.08,none,4,3.0,90476.0,312763.0,167192.0,300329.0,178008.0
2026-04-14 18:14:12.448750,831590,1609507946038712,5546008717,0.860832,0.01952,0.435296,-15.39125,-12.97625,-12.0225,-17.424002,28.792002,6.704001,none,4,3.0,90476.0,312763.0,167192.0,300329.0,178008.0
2026-04-14 18:14:12.451252,831591,1609507946053392,5546023697,0.860832,0.01952,0.435296,-12.92375,-13.658751,-12.94125,-17.424002,28.792002,6.704001,none,4,3.0,90476.0,312763.0,167192.0,300329.0,178008.0
2026-04-14 18:14:12.453786,831592,1609507946062396,5546032444,0.837408,0.03904,0.431392,-12.85375,-14.9975,-12.94125,-17.096,28.784002,6.4,none,4,3.0,90476.0,312763.0,167192.0,300329.0,178008.0
2026-04-14 18:14:12.456255,831593,1609507946076908,5546045333,0.788608,0.05856,0.407968,-15.16375,-16.49375,-12.355001,-17.504002,28.736002,8.224,none,4,3.0,90476.0,312763.0,167192.0,300329.0,178008.0
2026-04-14 18:14:12.483913,831604,1609507946086802,5546056167,0.788608,0.05856,0.407968,-17.5175,-16.26625,-11.8125,-17.504002,28.736002,8.224,none,4,3.0,83165.0,308614.0,158161.0,296733.0,168852.0
2026-04-14 18:14:12.486356,831605,1609507946096084,5546065039,0.788608,0.05856,0.407968,-17.57,-15.995,-12.08375,-17.504002,28.736002,8.224,none,4,3.0,83165.0,308614.0,158161.0,296733.0,168852.0
2026-04-14 18:14:12.488858,831606,1609507946110729,5546079938,0.85888,0.0488,0.433344,-15.89875,-15.16375,-13.6325,-17.744001,28.648,5.024,none,4,3.0,83165.0,308614.0,158161.0,296733.0,168852.0
2026-04-14 18:14:12.496265,831607,1609507946119659,5546088669,0.853024,0.003904,0.242048,-12.915,-15.46125,-14.5775,-18.240002,28.824001,7.208,none,4,3.0,83165.0,308614.0,158161.0,296733.0,168852.0
2026-04-14 18:14:12.511199,831608,1609507946134146,5546103610,0.853024,0.003904,0.242048,-11.36625,-16.59,-14.323751,-18.240002,28.824001,7.208,none,4,3.0,83165.0,308614.0,158161.0,296733.0,168852.0
2026-04-14 18:14:12.518875,831609,1609507946143070,5546112291,0.923296,0.027328,0.44896,-11.83,-16.555,-12.73125,-19.304,28.944002,5.856,none,4,3.0,83165.0,308614.0,158161.0,296733.0,168852.0
2026-04-14 18:14:12.529073,831610,1609507946152055,5546121005,0.923296,0.027328,0.44896,-13.5975,-14.77,-11.698751,-19.304,28.944002,5.856,none,4,3.0,83165.0,308614.0,158161.0,296733.0,168852.0
2026-04-14 18:14:12.541038,831611,1609507946166541,5546135972,0.851072,0.044896,0.423584,-18.1125,-12.495,-10.84125,-18.480001,28.544,5.464,none,4,3.0,83165.0,308614.0,158161.0,296733.0,168852.0
2026-04-14 18:14:12.549997,831612,1609507946175490,5546144702,0.851072,0.044896,0.423584,-22.75875,-9.975,-10.50875,-18.480001,28.544,5.464,none,4,3.0,83165.0,308614.0,158161.0,296733.0,168852.0
2026-04-14 18:14:12.610143,831623,1609507946190210,5546159775,0.815936,0.005856,0.314272,-23.02125,-7.5075,-10.78,-18.224,28.880001,3.632,none,4,3.0,74874.0,302972.0,147430.0,291541.0,157900.0
2026-04-14 18:14:12.612670,831624,1609507946199314,5546168554,0.864736,-0.033184,0.203008,-21.48125,-6.51,-10.61375,-18.512001,28.792002,4.944,none,4,3.0,74874.0,302972.0,147430.0,291541.0,157900.0
2026-04-14 18:14:12.617968,831625,1609507946208344,5546177296,0.864736,-0.033184,0.203008,-18.865,-5.7575,-9.2225,-18.512001,28.792002,4.944,none,4,3.0,74874.0,302972.0,147430.0,291541.0,157900.0
2026-04-14 18:14:12.622813,831626,1609507946222807,5546192210,0.903776,-0.011712,0.398208,-17.68375,-4.7775,-8.72375,-18.592001,28.808,5.144,none,4,3.0,74874.0,302972.0,147430.0,291541.0,157900.0
2026-04-14 18:14:12.623376,831627,1609507946231741,5546201096,0.903776,-0.011712,0.398208,-18.29625,-3.61375,-8.19,-18.592001,28.808,5.144,none,4,3.0,74874.0,302972.0,147430.0,291541.0,157900.0
2026-04-14 18:14:12.624842,831628,1609507946246312,5546216039,0.835456,0.023424,0.388448,-18.99625,-2.625,-8.6975,-18.368,28.600002,4.84,none,4,3.0,74874.0,302972.0,147430.0,291541.0,157900.0
2026-04-14 18:14:12.633405,831629,1609507946255282,5546224866,0.835456,0.023424,0.388448,-18.9875,-1.8725,-9.511251,-18.368,28.600002,4.84,none,4,3.0,74874.0,302972.0,147430.0,291541.0,157900.0
2026-04-14 18:14:12.645306,831630,1609507946269941,5546239816,0.903776,-0.02928,0.265472,-18.06875,-2.065,-10.26375,-18.616001,28.656002,4.728,none,4,3.0,74874.0,302972.0,147430.0,291541.0,157900.0
2026-04-14 18:14:12.654956,831631,1609507946278868,5546248509,0.870592,0.013664,0.41968,-18.13875,-2.93125,-10.08875,-18.76,29.04,3.8,none,4,3.0,74874.0,302972.0,147430.0,291541.0,157900.0
2026-04-14 18:14:12.686735,831642,1609507946287922,5546257240,0.870592,0.013664,0.41968,-19.3375,-4.22625,-9.485,-18.76,29.04,3.8,none,4,3.0,69040.0,298253.0,139569.0,287244.0,149993.0
2026-04-14 18:14:12.689209,831643,1609507946302471,5546272276,0.851072,-0.046848,0.230336,-20.30875,-4.54125,-9.0125,-19.92,28.888,5.352,none,4,3.0,69040.0,298253.0,139569.0,287244.0,149993.0
2026-04-14 18:14:12.691732,831644,1609507946311412,5546280994,0.851072,-0.046848,0.230336,-22.2075,-4.13875,-7.81375,-19.92,28.888,5.352,none,4,3.0,69040.0,298253.0,139569.0,287244.0,149993.0
2026-04-14 18:14:12.702921,831645,1609507946325954,5546295925,0.915488,-0.042944,0.284992,-22.8025,-3.98125,-6.9475,-19.648,29.016,4.8,none,4,3.0,69040.0,298253.0,139569.0,287244.0,149993.0
2026-04-14 18:14:12.711715,831646,1609507946334896,5546304671,0.915488,-0.042944,0.284992,-20.991251,-4.095,-6.5975,-19.648,29.016,4.8,none,4,3.0,69040.0,298253.0,139569.0,287244.0,149993.0
2026-04-14 18:14:12.726142,831647,1609507946349484,5546319622,0.841312,0.0,0.345504,-15.636251,-4.865,-6.7025,-18.960001,28.560001,4.032,none,4,3.0,69040.0,298253.0,139569.0,287244.0,149993.0
2026-04-14 18:14:12.754046,831648,1609507946358412,5546328321,0.8296,0.023424,0.28304,-12.88,-5.635,-5.31125,-18.960001,28.560001,2.296,none,4,3.0,69040.0,298253.0,139569.0,287244.0,149993.0
2026-04-14 18:14:12.779208,831649,1609507946367338,5546337004,0.8296,0.023424,0.28304,-13.85125,-5.285,-3.5,-19.336,28.600002,2.296,none,4,3.0,69040.0,298253.0,139569.0,287244.0,149993.0
2026-04-14 18:14:12.781728,831650,1609507946381892,5546351885,0.876448,-0.031232,0.261568,-15.68875,-4.15625,-2.17875,-19.088001,28.744001,3.616,none,4,3.0,69040.0,298253.0,139569.0,287244.0,149993.0
2026-04-14 18:14:12.810411,831661,1609507946390945,5546360949,0.876448,-0.031232,0.261568,-15.00625,-2.93125,-1.44375,-19.088001,28.744001,3.616,none,4,3.0,65354.0,294754.0,134410.0,284153.0,144848.0
2026-04-14 18:14:12.811057,831662,1609507946405544,5546375828,0.835456,0.025376,0.372832,-10.24625,-1.715,-2.6425,-19.312,28.920002,3.208,none,4,3.0,65354.0,294754.0,134410.0,284153.0,144848.0
2026-04-14 18:14:12.816280,831663,1609507946414615,5546384564,0.835456,0.025376,0.372832,-3.2725,-2.17875,-3.29,-19.312,28.920002,3.208,none,4,3.0,65354.0,294754.0,134410.0,284153.0,144848.0
2026-04-14 18:14:12.816375,831664,1609507946423695,5546393327,0.851072,-0.003904,0.210816,-0.7875,-3.38625,-3.99875,-19.208,28.808,4.128,none,4,3.0,65354.0,294754.0,134410.0,284153.0,144848.0
2026-04-14 18:14:12.818858,831665,1609507946438239,5546408289,0.851072,-0.003904,0.210816,-3.54375,-3.77125,-3.92,-19.208,28.808,4.128,none,4,3.0,65354.0,294754.0,134410.0,284153.0,144848.0
2026-04-14 18:14:12.823919,831666,1609507946447281,5546416985,0.919392,-0.001952,0.46848,-7.77,-4.59375,-4.0425,-19.136002,28.992,3.784,none,4,3.0,65354.0,294754.0,134410.0,284153.0,144848.0
2026-04-14 18:14:12.838740,831667,1609507946461825,5546431920,0.823744,0.00976,0.245952,-11.8825,-5.74,-3.92,-19.008001,28.976002,3.312,none,4,3.0,65354.0,294754.0,134410.0,284153.0,144848.0
2026-04-14 18:14:12.846567,831668,1609507946470756,5546440672,0.823744,0.00976,0.245952,-15.015,-6.88625,-3.98125,-19.008001,28.976002,3.312,none,4,3.0,65354.0,294754.0,134410.0,284153.0,144848.0
2026-04-14 18:14:12.886204,831679,1609507946485251,5546455524,0.86864,-0.007808,0.158112,-16.8175,-7.77875,-4.9525,-19.44,28.664001,3.848,none,4,3.0,67525.0,296873.0,137346.0,286027.0,147869.0
2026-04-14 18:14:12.888898,831680,1609507946494230,5546464310,0.86864,-0.007808,0.158112,-16.14375,-9.5375,-5.80125,-19.44,28.664001,3.848,none,4,3.0,67525.0,296873.0,137346.0,286027.0,147869.0
2026-04-14 18:14:12.891626,831681,1609507946503207,5546473050,0.911584,0.025376,0.411872,-17.82375,-11.27875,-6.685,-20.072,29.048002,4.04,none,4,3.0,67525.0,296873.0,137346.0,286027.0,147869.0
2026-04-14 18:14:12.896734,831682,1609507946517721,5546487981,0.911584,0.025376,0.411872,-20.50125,-10.885,-7.1225,-20.072,29.048002,4.04,none,4,3.0,67525.0,296873.0,137346.0,286027.0,147869.0
2026-04-14 18:14:12.904262,831683,1609507946526718,5546496738,0.872544,-0.00976,0.460672,-21.16625,-9.80875,-6.265,-20.384,29.144001,4.352,none,4,3.0,67525.0,296873.0,137346.0,286027.0,147869.0
2026-04-14 18:14:12.914836,831684,1609507946541232,5546509651,0.843264,-0.064416,0.21472,-20.09875,-8.6975,-4.585,-19.696001,28.928001,2.224,none,4,3.0,67525.0,296873.0,137346.0,286027.0,147869.0
2026-04-14 18:14:12.926236,831685,1609507946550482,5546520410,0.843264,-0.064416,0.21472,-16.7475,-6.58875,-2.33625,-19.696001,28.928001,2.224,none,4,3.0,67525.0,296873.0,137346.0,286027.0,147869.0
2026-04-14 18:14:12.937311,831686,1609507946559647,5546529099,0.843264,0.02928,0.35136,-9.38,-4.59375,1.96,-19.696001,28.928001,3.912,none,4,3.0,67525.0,296873.0,137346.0,286027.0,147869.0
2026-04-14 18:14:12.951021,831687,1609507946574135,5546543972,0.784704,0.021472,0.35136,-0.595,-3.57,5.85375,-19.224,29.528002,3.912,none,4,3.0,67525.0,296873.0,137346.0,286027.0,147869.0
2026-04-14 18:14:12.959077,831688,1609507946583082,5546552692,0.808128,0.035136,0.201056,4.15625,-2.24,7.02625,-19.448002,29.328001,3.792,none,4,3.0,67525.0,296873.0,137346.0,286027.0,147869.0
2026-04-14 18:14:12.989141,831699,1609507946597948,5546567701,0.808128,0.035136,0.201056,4.13,-0.62125,5.8275,-19.448002,29.328001,3.792,none,4,3.0,66154.0,294378.0,135804.0,284238.0,146291.0
2026-04-14 18:14:12.991703,831700,1609507946606923,5546576429,0.80032,-0.015616,0.187392,2.42375,0.385,4.03375,-20.472,29.808,3.848,none,4,3.0,66154.0,294378.0,135804.0,284238.0,146291.0
2026-04-14 18:14:12.993836,831701,1609507946615862,5546585177,0.80032,-0.015616,0.187392,3.38625,0.98,2.89625,-20.472,29.808,3.848,none,4,3.0,66154.0,294378.0,135804.0,284238.0,146291.0
2026-04-14 18:14:13.007046,831702,1609507946630491,5546600164,0.870592,-0.0488,0.353312,8.12875,0.37625,1.9775,-20.768002,29.448002,3.88,none,4,3.0,66154.0,294378.0,135804.0,284238.0,146291.0
2026-04-14 18:14:13.016635,831703,1609507946639432,5546608953,0.870592,-0.0488,0.353312,10.77125,-0.11375,2.47625,-20.768002,29.448002,3.88,none,4,3.0,66154.0,294378.0,135804.0,284238.0,146291.0
2026-04-14 18:14:13.032839,831704,1609507946653922,5546623847,0.903776,-0.042944,0.23424,9.1175,-0.83125,4.69875,-18.848001,29.240002,1.792,none,4,3.0,66154.0,294378.0,135804.0,284238.0,146291.0
2026-04-14 18:14:13.038780,831705,1609507946662928,5546632579,0.921344,-0.03904,0.359168,5.0925,-0.39375,6.74625,-18.944,29.384,2.68,none,4,3.0,66154.0,294378.0,135804.0,284238.0,146291.0
2026-04-14 18:14:13.055012,831706,1609507946677424,5546647496,0.921344,-0.03904,0.359168,-1.19,0.2975,8.49625,-18.944,29.384,2.68,none,4,3.0,66154.0,294378.0,135804.0,284238.0,146291.0
2026-04-14 18:14:13.091628,831717,1609507946686502,5546656184,0.88816,-0.076128,0.298656,-6.67625,1.82,12.43375,-18.528002,29.128002,3.208,none,4,3.0,69462.0,298174.0,140043.0,287374.0,150591.0
2026-04-14 18:14:13.092386,831718,1609507946695625,5546664890,0.88816,-0.076128,0.298656,-8.1725,3.42125,15.7325,-18.528002,29.128002,3.208,none,4,3.0,69462.0,298174.0,140043.0,287374.0,150591.0
2026-04-14 18:14:13.094875,831719,1609507946710189,5546679735,0.901824,-0.105408,0.208864,-2.94,4.935,18.34,-19.256,29.656002,4.08,none,4,3.0,69462.0,298174.0,140043.0,287374.0,150591.0
2026-04-14 18:14:13.119790,831720,1609507946719231,5546688586,0.901824,-0.105408,0.208864,3.5525,6.8775,20.9475,-19.256,29.656002,4.08,none,4,3.0,69462.0,298174.0,140043.0,287374.0,150591.0
2026-04-14 18:14:13.145406,831721,1609507946733724,5546703525,0.845216,-0.02928,0.366976,8.21625,9.54625,22.65375,-19.0,30.136002,3.04,none,4,3.0,69462.0,298174.0,140043.0,287374.0,150591.0
2026-04-14 18:14:13.147927,831722,1609507946742630,5546712210,0.835456,-0.017568,0.378688,10.6225,11.6375,23.51125,-18.512001,29.936,4.296,none,4,3.0,69462.0,298174.0,140043.0,287374.0,150591.0
2026-04-14 18:14:13.155025,831723,1609507946751755,5546720888,0.835456,-0.017568,0.378688,12.04,12.32,23.77375,-18.512001,29.936,4.296,none,4,3.0,69462.0,298174.0,140043.0,287374.0,150591.0
2026-04-14 18:14:13.157940,831724,1609507946766261,5546735812,0.833504,-0.056608,0.208864,14.1925,12.425,23.205,-18.592001,30.008001,5.536,none,4,3.0,69462.0,298174.0,140043.0,287374.0,150591.0
2026-04-14 18:14:13.160341,831725,1609507946775198,5546744551,0.833504,-0.056608,0.208864,16.58125,11.96125,22.575,-18.592001,30.008001,5.536,none,4,3.0,69462.0,298174.0,140043.0,287374.0,150591.0
2026-04-14 18:14:13.192320,831736,1609507946790458,5546759559,0.890112,-0.056608,0.417728,17.3425,11.15625,22.16375,-18.656,30.400002,5.816001,none,4,3.0,70453.0,300303.0,141613.0,289583.0,152184.0
2026-04-14 18:14:13.195284,831737,1609507946799507,5546768291,0.890112,-0.056608,0.417728,17.5875,11.1125,20.85125,-18.656,30.400002,5.816001,none,4,3.0,70453.0,300303.0,141613.0,289583.0,152184.0
2026-04-14 18:14:13.197638,831738,1609507946808981,5546779052,0.894016,-0.027328,0.433344,18.52375,11.15625,18.47125,-18.536001,30.480001,7.648,none,4,3.0,70453.0,300303.0,141613.0,289583.0,152184.0
2026-04-14 18:14:13.200295,831739,1609507946823514,5546792017,0.919392,-0.085888,0.36112,17.815,10.52625,16.135,-18.168001,30.344002,5.232,none,4,3.0,70453.0,300303.0,141613.0,289583.0,152184.0
2026-04-14 18:14:13.231664,831740,1609507946832945,5546802782,0.919392,-0.085888,0.36112,16.2575,9.415,14.04375,-18.168001,30.344002,5.232,none,4,3.0,70453.0,300303.0,141613.0,289583.0,152184.0
2026-04-14 18:14:13.234171,831741,1609507946847429,5546817686,0.938912,-0.085888,0.378688,14.0175,7.67375,12.66125,-16.584002,29.864002,4.192,none,4,3.0,70453.0,300303.0,141613.0,289583.0,152184.0
2026-04-14 18:14:13.236695,831742,1609507946856368,5546826403,0.938912,-0.085888,0.378688,13.43125,6.36125,11.85625,-16.584002,29.864002,4.192,none,4,3.0,70453.0,300303.0,141613.0,289583.0,152184.0
2026-04-14 18:14:13.241710,831743,1609507946865336,5546835102,0.919392,-0.07808,0.33184,14.93625,5.5825,11.3925,-16.2,30.096,5.24,none,4,3.0,70453.0,300303.0,141613.0,289583.0,152184.0
2026-04-14 18:14:13.257966,831744,1609507946879847,5546849978,0.919392,-0.07808,0.33184,14.27125,5.45125,11.19125,-16.2,30.096,5.24,none,4,3.0,70453.0,300303.0,141613.0,289583.0,152184.0
2026-04-14 18:14:13.291360,831755,1609507946889361,5546858764,0.870592,-0.052704,0.347456,9.87875,5.845,12.215,-16.176,30.168001,2.264,none,4,3.0,72802.0,302854.0,144547.0,291666.0,155103.0
2026-04-14 18:14:13.294109,831756,1609507946904130,5546873792,0.817888,-0.085888,0.255712,6.43125,5.7225,12.9325,-16.592001,30.128002,5.544,none,4,3.0,72802.0,302854.0,144547.0,291666.0,155103.0
2026-04-14 18:14:13.296481,831757,1609507946913073,5546882512,0.817888,-0.085888,0.255712,7.09625,5.48625,14.07875,-16.592001,30.128002,5.544,none,4,3.0,72802.0,302854.0,144547.0,291666.0,155103.0
2026-04-14 18:14:13.299105,831758,1609507946922111,5546891212,0.786656,-0.03904,0.36112,9.6775,5.8975,16.03875,-16.592001,30.128002,3.72,none,4,3.0,72802.0,302854.0,144547.0,291666.0,155103.0
2026-04-14 18:14:13.311722,831759,1609507946936617,5546906080,0.782752,-0.03904,0.36112,12.71375,5.915,17.9025,-16.424002,30.296001,3.72,none,4,3.0,72802.0,302854.0,144547.0,291666.0,155103.0
2026-04-14 18:14:13.321253,831760,1609507946945549,5546914775,0.7808,-0.00976,0.374784,15.715,5.55625,18.935,-16.184,30.880001,6.248,none,4,3.0,72802.0,302854.0,144547.0,291666.0,155103.0
2026-04-14 18:14:13.336672,831761,1609507946960047,5546929796,0.7808,-0.00976,0.374784,15.9775,6.1075,19.0575,-16.184,30.880001,6.248,none,4,3.0,72802.0,302854.0,144547.0,291666.0,155103.0
2026-04-14 18:14:13.343729,831762,1609507946969116,5546938497,0.802272,-0.052704,0.18544,16.275,7.02625,18.87375,-15.576001,30.464,6.928001,none,4,3.0,72802.0,302854.0,144547.0,291666.0,155103.0
2026-04-14 18:14:13.354084,831763,1609507946978071,5546947184,0.802272,-0.052704,0.18544,18.3575,7.48125,17.885,-15.576001,30.464,6.928001,none,4,3.0,72802.0,302854.0,144547.0,291666.0,155103.0
2026-04-14 18:14:13.395360,831775,1609507946993188,5546962194,0.86864,-0.08784,0.269376,21.48125,7.30625,16.17,-15.888001,30.568,5.44,none,4,3.0,72194.0,302163.0,143886.0,291202.0,154414.0
2026-04-14 18:14:13.397882,831776,1609507947002355,5546970999,0.86864,-0.08784,0.232288,22.60125,7.525,15.09375,-15.888001,30.568,5.44,none,4,3.0,72194.0,302163.0,143886.0,291202.0,154414.0
2026-04-14 18:14:13.400029,831777,1609507947017219,5546985937,0.808128,-0.08784,0.232288,21.2275,7.49875,14.37625,-14.952001,30.192001,5.672,none,4,3.0,72194.0,302163.0,143886.0,291202.0,154414.0
2026-04-14 18:14:13.405061,831778,1609507947026597,5546996719,0.94672,-0.128832,0.355264,18.15625,7.65625,14.02625,-14.768001,30.208002,5.864,none,4,3.0,72194.0,302163.0,143886.0,291202.0,154414.0
2026-04-14 18:14:13.412953,831779,1609507947035535,5547005473,0.94672,-0.128832,0.355264,14.11375,8.09375,14.11375,-14.768001,30.208002,5.864,none,4,3.0,72194.0,302163.0,143886.0,291202.0,154414.0
2026-04-14 18:14:13.426719,831780,1609507947050110,5547020458,1.00528,-0.16592,0.415776,9.0475,8.09375,13.74625,-14.400001,30.448002,7.312,none,4,3.0,72194.0,302163.0,143886.0,291202.0,154414.0
2026-04-14 18:14:13.436700,831781,1609507947059041,5547029146,1.00528,-0.16592,0.415776,8.89,8.3125,12.9325,-14.400001,30.448002,7.312,none,4,3.0,72194.0,302163.0,143886.0,291202.0,154414.0
2026-04-14 18:14:13.452955,831782,1609507947073717,5547044057,0.876448,-0.122976,0.333792,12.32,8.225,11.7775,-14.480001,30.568,7.304,none,4,3.0,72194.0,302163.0,143886.0,291202.0,154414.0
2026-04-14 18:14:13.460455,831783,1609507947082661,5547052736,0.876448,-0.122976,0.417728,16.9575,8.95125,11.375,-14.480001,30.568,7.304,none,4,3.0,72194.0,302163.0,143886.0,291202.0,154414.0
2026-04-14 18:14:13.537880,831794,1609507947092034,5547061484,0.913536,-0.062464,0.417728,21.6125,10.167501,12.34625,-14.840001,30.760002,6.752,none,4,3.0,73480.0,303525.0,145475.0,292177.0,155939.0
2026-04-14 18:14:13.540452,831795,1609507947106592,5547076452,0.890112,-0.099552,0.423584,19.705,10.8325,11.76875,-14.552001,30.688002,7.656,none,4,3.0,73480.0,303525.0,145475.0,292177.0,155939.0
2026-04-14 18:14:13.542470,831796,1609507947115525,5547085152,0.890112,-0.099552,0.423584,15.855001,12.3375,12.7575,-14.552001,30.688002,7.656,none,4,3.0,73480.0,303525.0,145475.0,292177.0,155939.0
2026-04-14 18:14:13.545443,831797,1609507947130132,5547100136,0.817888,-0.0976,0.38064,17.24625,13.69375,13.64125,-14.272,30.544,7.576,none,4,3.0,73480.0,303525.0,145475.0,292177.0,155939.0
2026-04-14 18:14:13.547963,831798,1609507947139083,5547108846,0.817888,-0.0976,0.38064,21.875,13.7375,14.00875,-14.272,30.544,7.576,none,4,3.0,73480.0,303525.0,145475.0,292177.0,155939.0
2026-04-14 18:14:13.550457,831799,1609507947148134,5547117515,0.7808,-0.066368,0.333792,24.3425,12.50375,15.14625,-14.496,30.840002,9.0,none,4,3.0,73480.0,303525.0,145475.0,292177.0,155939.0
2026-04-14 18:14:13.552963,831800,1609507947162691,5547132467,0.7808,-0.066368,0.333792,24.7975,11.095,15.82,-14.496,30.840002,9.0,none,4,3.0,73480.0,303525.0,145475.0,292177.0,155939.0
2026-04-14 18:14:13.555014,831801,1609507947171802,5547141200,0.757376,-0.076128,0.267424,23.75625,8.74125,15.89875,-14.840001,30.824001,8.912001,none,4,3.0,73480.0,303525.0,145475.0,292177.0,155939.0
2026-04-14 18:14:13.562490,831802,1609507947186387,5547156094,0.79056,-0.06832,0.345504,21.70875,7.25375,15.88125,-14.528001,30.688002,8.832001,none,4,3.0,73480.0,303525.0,145475.0,292177.0,155939.0
2026-04-14 18:14:13.592812,831813,1609507947195444,5547164942,0.79056,-0.06832,0.345504,19.8275,5.8625,15.1025,-14.528001,30.688002,8.832001,none,4,3.0,70860.0,300852.0,142384.0,290112.0,152820.0
2026-04-14 18:14:13.595372,831814,1609507947204555,5547173676,0.753472,-0.095648,0.17568,18.5675,4.52375,13.37875,-14.256001,30.448002,11.208,none,4,3.0,70860.0,300852.0,142384.0,290112.0,152820.0
2026-04-14 18:14:13.597897,831815,1609507947219091,5547188698,0.753472,-0.095648,0.17568,18.8825,1.9775,12.01375,-14.256001,30.448002,11.208,none,4,3.0,70860.0,300852.0,142384.0,290112.0,152820.0
2026-04-14 18:14:13.605281,831816,1609507947228032,5547197453,0.772992,-0.091744,0.17568,20.8775,-0.23625,10.68375,-13.336,30.240002,8.96,none,4,3.0,70860.0,300852.0,142384.0,290112.0,152820.0
2026-04-14 18:14:13.619227,831817,1609507947242708,5547212478,0.772992,-0.091744,0.17568,22.855,-2.02125,9.44125,-13.336,30.240002,8.96,none,4,3.0,70860.0,300852.0,142384.0,290112.0,152820.0
2026-04-14 18:14:13.627963,831818,1609507947251850,5547221173,0.765184,-0.072224,0.279136,23.12625,-3.28125,8.81125,-12.696001,30.024002,9.848001,none,4,3.0,70860.0,300852.0,142384.0,290112.0,152820.0
2026-04-14 18:14:13.641712,831819,1609507947266352,5547236151,0.892064,-0.103456,0.372832,22.32125,-3.6925,9.065,-13.344001,30.272001,8.944,none,4,3.0,70860.0,300852.0,142384.0,290112.0,152820.0
2026-04-14 18:14:13.654664,831820,1609507947275284,5547244859,0.892064,-0.103456,0.372832,22.28625,-3.50875,9.54625,-13.344001,30.272001,8.944,none,4,3.0,70860.0,300852.0,142384.0,290112.0,152820.0
2026-04-14 18:14:13.661982,831821,1609507947284230,5547253552,0.892064,-0.095648,0.144448,23.38875,-3.8675,10.43875,-13.344001,30.272001,8.944,none,4,3.0,70860.0,300852.0,142384.0,290112.0,152820.0
2026-04-14 18:14:13.692902,831832,1609507947298767,5547268613,0.821792,-0.095648,0.144448,24.710001,-4.2525,11.5325,-12.888001,29.920002,10.320001,none,4,3.0,71296.0,300974.0,142802.0,289965.0,153261.0
2026-04-14 18:14:13.694931,831833,1609507947307773,5547277381,0.84912,-0.099552,0.162016,26.897501,-4.66375,12.3025,-12.64,29.944002,8.936001,none,4,3.0,71296.0,300974.0,142802.0,289965.0,153261.0
2026-04-14 18:14:13.700160,831834,1609507947322315,5547292291,0.84912,-0.099552,0.162016,27.90375,-4.66375,13.20375,-12.64,29.944002,8.936001,none,4,3.0,71296.0,300974.0,142802.0,289965.0,153261.0
2026-04-14 18:14:13.707911,831835,1609507947331358,5547301003,0.872544,-0.072224,0.314272,27.3875,-3.99,13.5275,-12.320001,29.832,9.544001,none,4,3.0,71296.0,300974.0,142802.0,289965.0,153261.0
2026-04-14 18:14:13.716687,831836,1609507947340424,5547309698,0.872544,-0.072224,0.314272,24.52625,-2.75625,13.37875,-12.320001,29.832,9.544001,none,4,3.0,71296.0,300974.0,142802.0,289965.0,153261.0
2026-04-14 18:14:13.730438,831837,1609507947354932,5547324628,0.968192,-0.144448,0.339648,21.23625,-2.87,13.58,-12.200001,29.968002,10.440001,none,4,3.0,71296.0,300974.0,142802.0,289965.0,153261.0
2026-04-14 18:14:13.741727,831838,1609507947363888,5547333338,0.968192,-0.144448,0.339648,20.93,-3.70125,13.9475,-12.200001,29.968002,10.440001,none,4,3.0,71296.0,300974.0,142802.0,289965.0,153261.0
2026-04-14 18:14:13.756409,831839,1609507947378419,5547348254,0.880352,-0.15616,0.138592,22.79375,-4.66375,13.86,-12.592001,29.568,10.464001,none,4,3.0,71296.0,300974.0,142802.0,289965.0,153261.0
2026-04-14 18:14:13.765099,831840,1609507947387355,5547356952,0.853024,-0.142496,0.22448,27.25625,-6.755,12.95875,-11.68,29.320002,9.792001,none,4,3.0,71296.0,300974.0,142802.0,289965.0,153261.0
2026-04-14 18:14:13.797660,831851,1609507947401989,5547371967,0.853024,-0.142496,0.22448,27.27375,-10.5175,12.39875,-11.68,29.320002,9.792001,none,4,3.0,70788.0,301527.0,141966.0,290127.0,152361.0
2026-04-14 18:14:13.800233,831852,1609507947410946,5547380741,0.86864,-0.163968,0.12688,25.1825,-12.31125,13.48375,-11.768001,29.216002,9.928,none,4,3.0,70788.0,301527.0,141966.0,290127.0,152361.0
2026-04-14 18:14:13.802682,831853,1609507947419891,5547389462,0.86864,-0.163968,0.12688,22.19,-12.7575,13.95625,-11.768001,29.216002,9.928,none,4,3.0,70788.0,301527.0,141966.0,290127.0,152361.0
2026-04-14 18:14:13.810262,831854,1609507947434449,5547404426,0.882304,-0.160064,0.152256,19.57375,-12.74,13.86875,-11.664001,29.656002,10.52,none,4,3.0,70788.0,301527.0,141966.0,290127.0,152361.0
2026-04-14 18:14:13.820257,831855,1609507947443455,5547413235,0.882304,-0.160064,0.152256,18.366251,-11.66375,13.48375,-11.664001,29.656002,10.52,none,4,3.0,70788.0,301527.0,141966.0,290127.0,152361.0
2026-04-14 18:14:13.852536,831856,1609507947457927,5547428150,0.8784,-0.162016,0.310368,19.01375,-10.85875,12.81,-12.016001,29.824001,12.264001,none,4,3.0,70788.0,301527.0,141966.0,290127.0,152361.0
2026-04-14 18:14:13.877651,831857,1609507947466830,5547436812,0.847168,-0.191296,0.226432,20.125,-9.42375,11.4275,-11.944,29.296001,13.320001,none,4,3.0,70788.0,301527.0,141966.0,290127.0,152361.0
2026-04-14 18:14:13.902676,831858,1609507947481373,5547451710,0.847168,-0.191296,0.226432,20.51875,-7.84,11.06875,-11.944,29.296001,13.320001,none,4,3.0,70788.0,301527.0,141966.0,290127.0,152361.0
2026-04-14 18:14:13.938911,831869,1609507947490321,5547460894,0.84912,-0.160064,0.398208,20.15125,-7.0175,11.22625,-12.152,29.52,11.752001,none,4,3.0,72097.0,303168.0,143907.0,291714.0,154468.0
2026-04-14 18:14:13.942249,831870,1609507947499417,5547469638,0.84912,-0.160064,0.398208,17.50875,-6.44,11.20875,-12.152,29.52,11.752001,none,4,3.0,72097.0,303168.0,143907.0,291714.0,154468.0
2026-04-14 18:14:13.942334,831871,1609507947513966,5547482522,0.835456,-0.1952,0.187392,15.14625,-5.5475,11.62,-11.952001,29.704,11.688001,none,4,3.0,72097.0,303168.0,143907.0,291714.0,154468.0
2026-04-14 18:14:13.944905,831872,1609507947523358,5547493272,0.835456,-0.1952,0.187392,13.825,-4.89125,11.92625,-11.952001,29.704,11.688001,none,4,3.0,72097.0,303168.0,143907.0,291714.0,154468.0
2026-04-14 18:14:13.947491,831873,1609507947537845,5547508164,0.884256,-0.173728,0.277184,14.4725,-5.10125,11.90875,-11.920001,29.824001,12.960001,none,4,3.0,72097.0,303168.0,143907.0,291714.0,154468.0
2026-04-14 18:14:13.950107,831874,1609507947546785,5547516863,0.806176,-0.113216,0.187392,17.07125,-5.9325,10.64,-12.416,29.752,13.792001,none,4,3.0,72097.0,303168.0,143907.0,291714.0,154468.0
2026-04-14 18:14:13.952539,831875,1609507947555779,5547525737,0.806176,-0.113216,0.187392,18.935,-6.88625,8.6975,-12.416,29.752,13.792001,none,4,3.0,72097.0,303168.0,143907.0,291714.0,154468.0
2026-04-14 18:14:13.954956,831876,1609507947570573,5547540671,0.88816,-0.113216,0.31232,19.29375,-6.99125,6.9475,-12.424001,29.576002,12.232,none,4,3.0,72097.0,303168.0,143907.0,291714.0,154468.0
2026-04-14 18:14:13.957511,831877,1609507947579723,5547549578,0.88816,-0.113216,0.31232,19.39875,-5.85375,5.6875,-12.424001,29.576002,12.232,none,4,3.0,72097.0,303168.0,143907.0,291714.0,154468.0
2026-04-14 18:14:13.997982,831888,1609507947595054,5547564495,0.919392,-0.140544,0.38064,18.795,-4.64625,5.53875,-11.76,29.032001,12.64,none,4,3.0,77787.0,307018.0,151009.0,294950.0,161547.0
2026-04-14 18:14:14.000328,831889,1609507947604176,5547573312,0.919392,-0.140544,0.38064,18.83,-4.62875,6.88625,-11.76,29.032001,12.64,none,4,3.0,77787.0,307018.0,151009.0,294950.0,161547.0
2026-04-14 18:14:14.002979,831890,1609507947613183,5547582063,0.919392,-0.134688,0.406016,17.2025,-4.48,8.46125,-11.704,29.344002,12.712001,none,4,3.0,77787.0,307018.0,151009.0,294950.0,161547.0
2026-04-14 18:14:14.005157,831891,1609507947627686,5547596990,0.817888,-0.130784,0.158112,13.7025,-3.0975,10.6225,-11.296001,28.944002,13.752001,none,4,3.0,77787.0,307018.0,151009.0,294950.0,161547.0
2026-04-14 18:14:14.012962,831892,1609507947636592,5547605713,0.817888,-0.130784,0.158112,9.625,-2.3625,11.935,-11.296001,28.944002,13.752001,none,4,3.0,77787.0,307018.0,151009.0,294950.0,161547.0
2026-04-14 18:14:14.028832,831893,1609507947651092,5547620608,0.81008,-0.144448,0.242048,6.97375,-1.7325,12.845,-11.568001,28.792002,12.112,none,4,3.0,77787.0,307018.0,151009.0,294950.0,161547.0
2026-04-14 18:14:14.035494,831894,1609507947660174,5547629341,0.81008,-0.144448,0.242048,6.01125,-1.58375,13.3525,-11.568001,28.792002,12.112,none,4,3.0,77787.0,307018.0,151009.0,294950.0,161547.0
2026-04-14 18:14:14.044101,831895,1609507947669104,5547638026,0.796416,-0.144448,0.271328,6.4575,-0.63,13.335,-10.456,28.712002,11.952001,none,4,3.0,77787.0,307018.0,151009.0,294950.0,161547.0
2026-04-14 18:14:14.060773,831896,1609507947683626,5547652898,0.796416,-0.144448,0.271328,8.23375,0.53375,12.565,-10.456,28.712002,11.952001,none,4,3.0,77787.0,307018.0,151009.0,294950.0,161547.0
2026-04-14 18:14:14.097987,831907,1609507947692647,5547662042,0.8784,-0.206912,0.320128,10.4475,0.58625,12.005,-10.096001,28.864002,12.112,none,4,3.0,77026.0,306858.0,150070.0,294814.0,160575.0
2026-04-14 18:14:14.100486,831908,1609507947707237,5547677009,0.80032,-0.197152,0.154208,11.59375,0.35875,10.885,-10.096001,28.864002,11.064,none,4,3.0,77026.0,306858.0,150070.0,294814.0,160575.0
2026-04-14 18:14:14.102963,831909,1609507947716165,5547685707,0.804224,-0.197152,0.154208,12.6875,-0.35,11.55,-9.88,28.688002,11.064,none,4,3.0,77026.0,306858.0,150070.0,294814.0,160575.0
2026-04-14 18:14:14.105157,831910,1609507947725207,5547694430,0.804224,-0.197152,0.154208,14.60375,-1.12,12.60875,-9.88,28.688002,11.064,none,4,3.0,77026.0,306858.0,150070.0,294814.0,160575.0
2026-04-14 18:14:14.115495,831911,1609507947739771,5547709320,0.806176,-0.187392,0.173728,16.91375,-2.2925,12.38125,-10.192,28.928001,12.72,none,4,3.0,77026.0,306858.0,150070.0,294814.0,160575.0
2026-04-14 18:14:14.123804,831912,1609507947748686,5547717995,0.806176,-0.189344,0.191296,17.78875,-3.115,11.87375,-9.76,28.728,13.368001,none,4,3.0,77026.0,306858.0,150070.0,294814.0,160575.0
2026-04-14 18:14:14.140299,831913,1609507947763180,5547732932,0.806176,-0.189344,0.191296,16.68625,-2.80875,11.87375,-9.76,28.728,13.368001,none,4,3.0,77026.0,306858.0,150070.0,294814.0,160575.0
2026-04-14 18:14:14.149082,831914,1609507947772125,5547741621,0.786656,-0.193248,0.230336,13.877501,-2.1875,12.18875,-9.928,28.44,12.416,none,4,3.0,77026.0,306858.0,150070.0,294814.0,160575.0
2026-04-14 18:14:14.164160,831915,1609507947786640,5547756607,0.786656,-0.193248,0.230336,11.83,-2.135,12.8275,-9.928,28.44,12.416,none,4,3.0,77026.0,306858.0,150070.0,294814.0,160575.0
2026-04-14 18:14:14.192960,831926,1609507947796121,5547765328,0.812032,-0.216672,0.138592,13.27375,-1.60125,13.0725,-9.592,28.336,11.272,none,4,3.0,76815.0,306040.0,149784.0,293956.0,160400.0
2026-04-14 18:14:14.195453,831927,1609507947805305,5547774092,0.812032,-0.216672,0.138592,15.435,-1.505,12.17125,-9.592,28.336,11.272,none,4,3.0,76815.0,306040.0,149784.0,293956.0,160400.0
2026-04-14 18:14:14.197927,831928,1609507947820266,5547789018,0.899872,-0.212768,0.308416,18.87375,-1.6275,10.57875,-9.536,28.256,13.792001,none,4,3.0,76815.0,306040.0,149784.0,293956.0,160400.0
2026-04-14 18:14:14.226152,831929,1609507947829670,5547799778,0.882304,-0.193248,0.423584,21.6125,-2.30125,8.3475,-10.008,28.352001,14.088,none,4,3.0,76815.0,306040.0,149784.0,293956.0,160400.0
2026-04-14 18:14:14.228634,831930,1609507947838587,5547808518,0.882304,-0.193248,0.423584,22.65375,-2.17875,6.265,-10.008,28.352001,14.088,none,4,3.0,76815.0,306040.0,149784.0,293956.0,160400.0
2026-04-14 18:14:14.231564,831931,1609507947853164,5547823410,0.763232,-0.162016,0.279136,22.2075,-1.74125,4.1125,-9.952001,28.016,13.456,none,4,3.0,76815.0,306040.0,149784.0,293956.0,160400.0
2026-04-14 18:14:14.256261,831932,1609507947862310,5547832109,0.763232,-0.162016,0.279136,22.18125,-1.47,1.12,-9.952001,28.016,13.456,none,4,3.0,76815.0,306040.0,149784.0,293956.0,160400.0
2026-04-14 18:14:14.264068,831933,1609507947876778,5547847008,0.767136,-0.158112,0.206912,23.94875,-1.37375,-2.3975,-9.696,27.944002,13.400001,none,4,3.0,76815.0,306040.0,149784.0,293956.0,160400.0
2026-04-14 18:14:14.266172,831934,1609507947885868,5547855756,0.767136,-0.158112,0.206912,25.8125,-1.33875,-5.88875,-9.696,27.944002,13.400001,none,4,3.0,76815.0,306040.0,149784.0,293956.0,160400.0
2026-04-14 18:14:14.293843,831945,1609507947894909,5547864497,0.851072,-0.154208,0.427488,26.34625,-2.52,-9.42375,-9.544001,27.488,13.648001,none,4,3.0,78164.0,306012.0,151550.0,294014.0,162225.0
2026-04-14 18:14:14.296655,831946,1609507947909503,5547879384,0.884256,-0.197152,0.290848,24.98125,-4.8475,-12.92375,-9.696,27.888,14.808001,none,4,3.0,78164.0,306012.0,151550.0,294014.0,162225.0
2026-04-14 18:14:14.298810,831947,1609507947918445,5547888084,0.884256,-0.197152,0.290848,23.135,-5.76625,-16.10875,-9.696,27.888,14.808001,none,4,3.0,78164.0,306012.0,151550.0,294014.0,162225.0
2026-04-14 18:14:14.310110,831948,1609507947932989,5547903005,0.835456,-0.13664,0.402112,20.685,-7.0875,-18.19125,-10.016001,27.36,14.160001,none,4,3.0,78164.0,306012.0,151550.0,294014.0,162225.0
2026-04-14 18:14:14.317334,831949,1609507947941947,5547911792,0.835456,-0.13664,0.402112,17.7625,-8.3125,-19.88875,-10.016001,27.36,14.160001,none,4,3.0,78164.0,306012.0,151550.0,294014.0,162225.0
2026-04-14 18:14:14.334126,831950,1609507947956539,5547926688,0.802272,-0.158112,0.163968,17.71875,-8.25125,-20.553751,-11.856001,27.560001,15.544001,none,4,3.0,78164.0,306012.0,151550.0,294014.0,162225.0
2026-04-14 18:14:14.341309,831951,1609507947965577,5547935459,0.802272,-0.158112,0.163968,16.98375,-8.7325,-22.40875,-11.856001,27.560001,15.544001,none,4,3.0,78164.0,306012.0,151550.0,294014.0,162225.0
2026-04-14 18:14:14.351294,831952,1609507947974678,5547944151,0.886208,-0.144448,0.378688,17.01,-8.2075,-22.3125,-10.168,26.824001,14.904,none,4,3.0,78164.0,306012.0,151550.0,294014.0,162225.0
2026-04-14 18:14:14.365444,831953,1609507947989180,5547959075,0.823744,-0.15616,0.181536,18.8825,-7.105,-22.8025,-10.168,26.824001,13.824,none,4,3.0,78164.0,306012.0,151550.0,294014.0,162225.0
2026-04-14 18:14:14.398313,831964,1609507947998669,5547967962,0.823744,-0.15616,0.181536,20.30875,-6.3525,-23.44125,-10.6,26.680002,13.824,none,4,3.0,74819.0,303145.0,146975.0,291156.0,157607.0
2026-04-14 18:14:14.400437,831965,1609507948013315,5547982931,0.833504,-0.148352,0.261568,20.30875,-4.89125,-22.1725,-11.552001,27.032001,16.112001,none,4,3.0,74819.0,303145.0,146975.0,291156.0,157607.0
2026-04-14 18:14:14.404191,831966,1609507948022317,5547991684,0.833504,-0.148352,0.261568,18.9875,-2.49375,-19.39,-11.552001,27.032001,16.112001,none,4,3.0,74819.0,303145.0,146975.0,291156.0,157607.0
2026-04-14 18:14:14.407389,831967,1609507948031340,5548000422,0.892064,-0.134688,0.255712,17.272501,-0.27125,-17.40375,-12.120001,26.584002,14.816001,none,4,3.0,74819.0,303145.0,146975.0,291156.0,157607.0
2026-04-14 18:14:14.424100,831968,1609507948046014,5548015351,0.892064,-0.134688,0.255712,18.61125,2.1175,-16.24875,-12.120001,26.584002,14.816001,none,4,3.0,74819.0,303145.0,146975.0,291156.0,157607.0
2026-04-14 18:14:14.433705,831969,1609507948054952,5548024045,0.802272,-0.072224,0.265472,21.37625,3.61375,-17.66625,-11.088,26.144001,15.52,none,4,3.0,74819.0,303145.0,146975.0,291156.0,157607.0
2026-04-14 18:14:14.444980,831970,1609507948069468,5548039014,0.802272,-0.144448,0.30256,21.56,4.41,-20.5625,-11.088,26.144001,17.568,none,4,3.0,74819.0,303145.0,146975.0,291156.0,157607.0
2026-04-14 18:14:14.455424,831971,1609507948078390,5548047715,0.886208,-0.144448,0.30256,21.4725,4.06,-22.4875,-11.008,26.024002,16.960001,none,4,3.0,74819.0,303145.0,146975.0,291156.0,157607.0
2026-04-14 18:14:14.462922,831972,1609507948087326,5548056435,0.886208,-0.144448,0.30256,19.3725,2.415,-23.79125,-11.008,26.024002,16.960001,none,4,3.0,74819.0,303145.0,146975.0,291156.0,157607.0
2026-04-14 18:14:14.523536,831983,1609507948101920,5548071447,0.905728,-0.150304,0.38064,17.01875,1.42625,-23.275,-11.504001,25.792002,16.304,none,4,3.0,78229.0,305160.0,151471.0,293130.0,162342.0
2026-04-14 18:14:14.526125,831984,1609507948110913,5548080217,0.89792,-0.115168,0.244,16.00375,1.2075,-23.28375,-11.496,25.640001,14.352,none,4,3.0,78229.0,305160.0,151471.0,293130.0,162342.0
2026-04-14 18:14:14.528930,831985,1609507948125434,5548095157,0.89792,-0.115168,0.244,15.30375,1.46125,-23.72125,-11.496,25.640001,14.352,none,4,3.0,78229.0,305160.0,151471.0,293130.0,162342.0
2026-04-14 18:14:14.530951,831986,1609507948134381,5548103848,0.864736,-0.10736,0.158112,13.0375,1.6625,-24.395,-11.72,25.000002,16.240002,none,4,3.0,78229.0,305160.0,151471.0,293130.0,162342.0
2026-04-14 18:14:14.532342,831987,1609507948148843,5548118718,0.864736,-0.10736,0.158112,11.54125,1.75875,-25.48,-11.72,25.000002,16.240002,none,4,3.0,78229.0,305160.0,151471.0,293130.0,162342.0
2026-04-14 18:14:14.535195,831988,1609507948157796,5548127419,0.817888,-0.101504,0.181536,10.42125,1.58375,-25.90875,-11.888001,25.216002,16.368,none,4,3.0,78229.0,305160.0,151471.0,293130.0,162342.0
2026-04-14 18:14:14.542510,831989,1609507948166905,5548136120,0.817888,-0.101504,0.181536,9.75625,1.33,-25.34875,-11.888001,25.216002,16.368,none,4,3.0,78229.0,305160.0,151471.0,293130.0,162342.0
2026-04-14 18:14:14.558891,831990,1609507948181426,5548151009,0.894016,-0.0976,0.366976,11.64625,2.21375,-23.485,-12.192,25.008001,16.448,none,4,3.0,78229.0,305160.0,151471.0,293130.0,162342.0
2026-04-14 18:14:14.565452,831991,1609507948190378,5548159721,0.778848,-0.033184,0.152256,13.83375,3.31625,-22.0675,-12.192,25.008001,17.320002,none,4,3.0,78229.0,305160.0,151471.0,293130.0,162342.0
2026-04-14 18:14:14.642718,832002,1609507948205443,5548174718,0.778848,-0.033184,0.152256,14.39375,4.655,-20.772501,-12.968,25.184002,17.320002,none,4,3.0,78385.0,303474.0,151524.0,291445.0,162391.0
2026-04-14 18:14:14.645469,832003,1609507948214479,5548183442,0.808128,-0.035136,0.251808,13.9825,4.97875,-18.795,-12.608001,25.008001,17.808,none,4,3.0,78385.0,303474.0,151524.0,291445.0,162391.0
2026-04-14 18:14:14.647502,832004,1609507948223561,5548192144,0.808128,-0.035136,0.251808,11.38375,4.66375,-17.710001,-12.608001,25.008001,17.808,none,4,3.0,78385.0,303474.0,151524.0,291445.0,162391.0
2026-04-14 18:14:14.650078,832005,1609507948238535,5548207039,0.913536,-0.0488,0.42944,8.6275,4.05125,-15.49625,-13.424001,24.944,17.576,none,4,3.0,78385.0,303474.0,151524.0,291445.0,162391.0
2026-04-14 18:14:14.652850,832006,1609507948247854,5548217811,0.913536,-0.0488,0.42944,5.53,4.1125,-13.65,-13.424001,24.944,17.576,none,4,3.0,78385.0,303474.0,151524.0,291445.0,162391.0
2026-04-14 18:14:14.655160,832007,1609507948262410,5548232771,0.845216,-0.023424,0.179584,1.70625,5.0225,-12.71375,-13.400001,24.784,17.768002,none,4,3.0,78385.0,303474.0,151524.0,291445.0,162391.0
2026-04-14 18:14:14.657779,832008,1609507948271345,5548241461,0.948672,-0.085888,0.296704,-2.555,6.13375,-12.25875,-13.656001,24.896002,17.464,none,4,3.0,78385.0,303474.0,151524.0,291445.0,162391.0
2026-04-14 18:14:14.660079,832009,1609507948280278,5548250197,0.948672,-0.085888,0.296704,-5.845,6.23,-11.025,-13.656001,24.896002,17.464,none,4,3.0,78385.0,303474.0,151524.0,291445.0,162391.0
2026-04-14 18:14:14.668739,832010,1609507948294796,5548263209,0.919392,-0.046848,0.382592,-6.4225,4.4975,-8.51375,-13.512001,25.304,18.720001,none,4,3.0,78385.0,303474.0,151524.0,291445.0,162391.0
2026-04-14 18:14:14.697315,832021,1609507948304160,5548274059,0.919392,-0.046848,0.382592,-5.9325,3.22875,-6.3875,-13.512001,25.304,18.720001,none,4,3.0,78330.0,302734.0,151446.0,290905.0,162271.0
2026-04-14 18:14:14.700064,832022,1609507948318827,5548289017,0.886208,0.013664,0.413824,-6.1775,2.24,-5.6,-14.168,25.376001,19.024,none,4,3.0,78330.0,302734.0,151446.0,290905.0,162271.0
2026-04-14 18:14:14.705065,832023,1609507948327772,5548297718,0.886208,0.013664,0.413824,-9.45875,2.68625,-6.2125,-14.168,25.376001,19.024,none,4,3.0,78330.0,302734.0,151446.0,290905.0,162271.0
2026-04-14 18:14:14.712923,832024,1609507948336887,5548306443,0.870592,-0.052704,0.343552,-14.91875,3.675,-6.71125,-14.328001,24.568,17.688002,none,4,3.0,78330.0,302734.0,151446.0,290905.0,162271.0
2026-04-14 18:14:14.728222,832025,1609507948351403,5548321376,0.854976,-0.0976,0.247904,-16.79125,5.03125,-7.37625,-14.328001,24.568,17.744001,none,4,3.0,78330.0,302734.0,151446.0,290905.0,162271.0
2026-04-14 18:14:14.736190,832026,1609507948360318,5548330109,0.847168,-0.0976,0.247904,-16.24,6.0375,-6.85125,-12.032001,24.928001,17.744001,none,4,3.0,78330.0,302734.0,151446.0,290905.0,162271.0
2026-04-14 18:14:14.750312,832027,1609507948374859,5548345083,0.862784,-0.080032,0.210816,-15.33,6.69375,-5.74875,-11.832001,24.968,16.864,none,4,3.0,78330.0,302734.0,151446.0,290905.0,162271.0
2026-04-14 18:14:14.761218,832028,1609507948383790,5548353780,0.862784,-0.080032,0.210816,-14.69125,7.77875,-4.61125,-11.832001,24.968,16.864,none,4,3.0,78330.0,302734.0,151446.0,290905.0,162271.0
2026-04-14 18:14:14.797327,832039,1609507948398728,5548368730,0.894016,-0.056608,0.277184,-14.77875,9.2225,-4.71625,-12.368001,25.192001,17.736,none,4,3.0,75914.0,301805.0,148660.0,290225.0,159433.0
2026-04-14 18:14:14.799881,832040,1609507948407903,5548377506,0.894016,-0.056608,0.277184,-16.12625,10.61375,-5.0925,-12.368001,25.192001,17.736,none,4,3.0,75914.0,301805.0,148660.0,290225.0,159433.0
2026-04-14 18:14:14.802227,832041,1609507948416885,5548386271,0.806176,-0.064416,0.218624,-18.71625,12.29375,-5.31125,-13.232,25.624,17.712,none,4,3.0,75914.0,301805.0,148660.0,290225.0,159433.0
2026-04-14 18:14:14.807886,832042,1609507948431416,5548401196,0.806176,-0.064416,0.343552,-19.29375,14.13125,-4.5325,-13.232,25.624,17.712,none,4,3.0,75914.0,301805.0,148660.0,290225.0,159433.0
2026-04-14 18:14:14.817812,832043,1609507948440343,5548409873,0.812032,-0.0488,0.347456,-19.7925,15.75875,-4.06875,-11.904,25.320002,16.504002,none,4,3.0,75914.0,301805.0,148660.0,290225.0,159433.0
2026-04-14 18:14:14.830404,832044,1609507948455035,5548424856,0.892064,-0.099552,0.304512,-21.32375,16.94875,-3.56125,-11.608001,25.912,16.288,none,4,3.0,75914.0,301805.0,148660.0,290225.0,159433.0
2026-04-14 18:14:14.841391,832045,1609507948464016,5548433560,0.892064,-0.099552,0.304512,-22.9075,17.54375,-2.61625,-11.608001,25.912,16.288,none,4,3.0,75914.0,301805.0,148660.0,290225.0,159433.0
2026-04-14 18:14:14.848826,832046,1609507948473074,5548442245,0.854976,-0.02928,0.411872,-24.50875,17.36,-2.49375,-12.472,26.472002,15.024001,none,4,3.0,75914.0,301805.0,148660.0,290225.0,159433.0
2026-04-14 18:14:14.864239,832047,1609507948487585,5548457157,0.854976,-0.02928,0.411872,-27.43125,17.00125,-2.2925,-12.472,26.472002,15.024001,none,4,3.0,75914.0,301805.0,148660.0,290225.0,159433.0
2026-04-14 18:14:14.874933,832048,1609507948496531,5548465915,0.944768,-0.080032,0.386496,-29.5925,14.98875,-1.65375,-12.240001,26.528002,17.0,none,4,3.0,75914.0,301805.0,148660.0,290225.0,159433.0
2026-04-14 18:14:14.899180,832059,1609507948511075,5548480881,0.944768,-0.080032,0.386496,-30.03875,12.62625,-1.61,-12.240001,26.528002,17.0,none,4,3.0,84561.0,306079.0,159786.0,294197.0,170856.0
2026-04-14 18:14:14.901700,832060,1609507948520027,5548489613,0.909632,-0.05856,0.42944,-29.225,11.05125,-1.00625,-13.192,26.584002,17.144001,none,4,3.0,84561.0,306079.0,159786.0,294197.0,170856.0
2026-04-14 18:14:14.905146,832061,1609507948528952,5548498377,0.909632,-0.05856,0.42944,-27.8775,10.8325,-1.54875,-13.192,26.584002,17.144001,none,4,3.0,84561.0,306079.0,159786.0,294197.0,170856.0
2026-04-14 18:14:14.918685,832062,1609507948543551,5548513424,0.845216,-0.02928,0.189344,-27.0025,11.48875,-3.47375,-11.888001,27.256,16.728,none,4,3.0,84561.0,306079.0,159786.0,294197.0,170856.0
2026-04-14 18:14:14.929216,832063,1609507948552511,5548522128,0.845216,-0.091744,0.269376,-29.56625,10.4125,-5.38125,-11.888001,27.256,16.728,none,4,3.0,84561.0,306079.0,159786.0,294197.0,170856.0
2026-04-14 18:14:14.959244,832064,1609507948567046,5548537156,0.866688,-0.089792,0.269376,-31.85875,8.65375,-5.6525,-11.208,26.872002,15.512001,none,4,3.0,84561.0,306079.0,159786.0,294197.0,170856.0
2026-04-14 18:14:14.981123,832065,1609507948576016,5548545865,0.942816,-0.103456,0.447008,-29.60125,7.315,-4.99625,-10.896001,27.168001,16.312,none,4,3.0,84561.0,306079.0,159786.0,294197.0,170856.0
2026-04-14 18:14:14.984147,832066,1609507948590499,5548560784,0.942816,-0.103456,0.447008,-25.78625,6.965,-4.2175,-10.896001,27.168001,16.312,none,4,3.0,84561.0,306079.0,159786.0,294197.0,170856.0
2026-04-14 18:14:15.011688,832077,1609507948599743,5548569538,0.817888,-0.052704,0.30256,-26.04875,7.1925,-2.835,-11.920001,27.304,15.456,none,4,3.0,83916.0,306455.0,158723.0,294369.0,169686.0
2026-04-14 18:14:15.014213,832078,1609507948608756,5548578180,0.817888,-0.052704,0.30256,-29.44375,7.20125,-1.42625,-11.920001,27.304,15.456,none,4,3.0,83916.0,306455.0,158723.0,294369.0,169686.0
2026-04-14 18:14:15.016735,832079,1609507948623415,5548593140,0.7808,-0.035136,0.337696,-32.69875,7.525,0.2625,-11.160001,27.448002,14.688001,none,4,3.0,83916.0,306455.0,158723.0,294369.0,169686.0
2026-04-14 18:14:15.019235,832080,1609507948632467,5548601852,0.7808,-0.035136,0.337696,-32.4275,7.63,1.00625,-11.160001,27.448002,14.688001,none,4,3.0,83916.0,306455.0,158723.0,294369.0,169686.0
2026-04-14 18:14:15.025469,832081,1609507948646988,5548616758,0.856928,-0.060512,0.318176,-29.435,5.74875,0.53375,-10.744,27.616001,14.120001,none,4,3.0,83916.0,306455.0,158723.0,294369.0,169686.0
2026-04-14 18:14:15.031736,832082,1609507948656027,5548625493,0.8296,0.011712,0.41968,-28.28875,3.5525,0.77,-10.624001,28.024002,15.136001,none,4,3.0,83916.0,306455.0,158723.0,294369.0,169686.0
2026-04-14 18:14:15.040487,832083,1609507948665119,5548634203,0.8296,0.011712,0.41968,-28.665,2.1525,0.21875,-10.624001,28.024002,15.136001,none,4,3.0,83916.0,306455.0,158723.0,294369.0,169686.0
2026-04-14 18:14:15.055134,832084,1609507948679617,5548649078,0.827648,-0.031232,0.244,-29.16375,1.19875,-2.5375,-10.936001,28.384,15.224001,none,4,3.0,83916.0,306455.0,158723.0,294369.0,169686.0
2026-04-14 18:14:15.066820,832085,1609507948688561,5548657755,0.827648,-0.031232,0.244,-31.52625,0.18375,-4.99625,-10.936001,28.384,15.224001,none,4,3.0,83916.0,306455.0,158723.0,294369.0,169686.0
2026-04-14 18:14:15.098635,832096,1609507948703189,5548672826,0.776896,-0.025376,0.36112,-33.94125,-0.9275,-5.03125,-11.632001,28.768002,13.992001,none,4,3.0,80232.0,304413.0,153929.0,292377.0,164762.0
2026-04-14 18:14:15.101114,832097,1609507948712179,5548681533,0.776896,-0.025376,0.36112,-31.84125,-1.5925,-5.1625,-11.632001,28.768002,13.992001,none,4,3.0,80232.0,304413.0,153929.0,292377.0,164762.0
2026-04-14 18:14:15.103672,832098,1609507948721130,5548690308,0.788608,-0.054656,0.2928,-29.1025,-2.87875,-5.18,-10.76,28.536001,16.312,none,4,3.0,80232.0,304413.0,153929.0,292377.0,164762.0
2026-04-14 18:14:15.118083,832099,1609507948735662,5548705255,0.79056,-0.0488,0.25376,-26.635,-4.0775,-3.19375,-10.528001,28.424002,11.72,none,4,3.0,80232.0,304413.0,153929.0,292377.0,164762.0
2026-04-14 18:14:15.121646,832100,1609507948744657,5548713965,0.79056,-0.0488,0.25376,-26.1975,-5.2675,-1.21625,-10.528001,28.424002,11.72,none,4,3.0,80232.0,304413.0,153929.0,292377.0,164762.0
2026-04-14 18:14:15.158906,832101,1609507948759162,5548728892,0.833504,-0.037088,0.460672,-28.04375,-5.775,1.26875,-10.416,28.824001,13.504001,none,4,3.0,80232.0,304413.0,153929.0,292377.0,164762.0
2026-04-14 18:14:15.161514,832102,1609507948768138,5548737586,0.833504,-0.037088,0.460672,-30.73875,-5.41625,3.3425,-10.416,28.824001,13.504001,none,4,3.0,80232.0,304413.0,153929.0,292377.0,164762.0
2026-04-14 18:14:15.166713,832103,1609507948782616,5548752499,0.747616,-0.050752,0.320128,-32.8475,-4.97,5.59125,-10.8,29.664001,13.944,none,4,3.0,80232.0,304413.0,153929.0,292377.0,164762.0
2026-04-14 18:14:15.167427,832104,1609507948791557,5548761206,0.747616,-0.050752,0.320128,-32.24375,-4.22625,6.9475,-10.8,29.664001,13.944,none,4,3.0,80232.0,304413.0,153929.0,292377.0,164762.0
2026-04-14 18:14:15.201328,832115,1609507948800851,5548769959,0.708576,0.001952,0.376736,-27.6325,-3.85875,6.60625,-11.136001,29.816002,13.76,none,4,3.0,73341.0,298642.0,145104.0,287169.0,155854.0
2026-04-14 18:14:15.203893,832116,1609507948815474,5548785190,0.698816,-0.005856,0.279136,-22.1725,-5.18,5.0925,-11.128,30.056002,14.544001,none,4,3.0,73341.0,298642.0,145104.0,287169.0,155854.0
2026-04-14 18:14:15.206300,832117,1609507948824460,5548793998,0.698816,-0.005856,0.279136,-21.56,-7.84875,4.06875,-11.128,30.056002,14.544001,none,4,3.0,73341.0,298642.0,145104.0,287169.0,155854.0
2026-04-14 18:14:15.218856,832118,1609507948839137,5548808905,0.714432,0.027328,0.437248,-23.09125,-10.22,4.41,-10.984,29.768002,13.240001,none,4,3.0,73341.0,298642.0,145104.0,287169.0,155854.0
2026-04-14 18:14:15.225224,832119,1609507948848080,5548817608,0.714432,0.027328,0.437248,-25.85625,-12.355001,2.68625,-10.984,29.768002,13.240001,none,4,3.0,73341.0,298642.0,145104.0,287169.0,155854.0
2026-04-14 18:14:15.231384,832120,1609507948857043,5548826320,0.749568,-0.017568,0.441152,-30.161251,-13.2125,0.5075,-10.344001,30.04,12.056001,none,4,3.0,73341.0,298642.0,145104.0,287169.0,155854.0
2026-04-14 18:14:15.247683,832121,1609507948871478,5548841262,0.749568,-0.017568,0.441152,-34.475,-13.1775,-1.26875,-10.344001,30.04,12.056001,none,4,3.0,73341.0,298642.0,145104.0,287169.0,155854.0
2026-04-14 18:14:15.256417,832122,1609507948880482,5548849946,0.718336,-0.025376,0.443104,-36.1375,-12.0575,-3.99,-11.224001,30.552002,12.168,none,4,3.0,73341.0,298642.0,145104.0,287169.0,155854.0
2026-04-14 18:14:15.271098,832123,1609507948894990,5548864871,0.812032,-0.072224,0.343552,-34.06375,-11.6375,-7.63,-11.224001,30.552002,12.216001,none,4,3.0,73341.0,298642.0,145104.0,287169.0,155854.0
2026-04-14 18:14:15.300956,832134,1609507948904145,5548873705,0.823744,-0.072224,0.343552,-30.6775,-11.97,-11.36625,-11.232,30.392002,12.216001,none,4,7.0,77405.0,301389.0,150369.0,289625.0,161410.0
2026-04-14 18:14:15.326177,832135,1609507948918950,5548888766,0.86864,-0.037088,0.513376,-27.9475,-12.845,-13.92125,-10.68,30.472002,10.896001,none,4,7.0,77405.0,301389.0,150369.0,289625.0,161410.0
2026-04-14 18:14:15.350036,832136,1609507948927980,5548897459,0.86864,-0.037088,0.513376,-26.9675,-12.2675,-17.38625,-10.68,30.472002,10.896001,none,4,7.0,77405.0,301389.0,150369.0,289625.0,161410.0
2026-04-14 18:14:15.372325,832137,1609507948937037,5548906160,0.831552,-0.021472,0.51728,-26.6525,-10.7625,-21.5425,-10.960001,30.744001,11.816001,none,4,7.0,77405.0,301389.0,150369.0,289625.0,161410.0
2026-04-14 18:14:15.372501,832138,1609507948951515,5548921069,0.831552,-0.021472,0.51728,-26.3375,-9.415,-24.885,-10.960001,30.744001,11.816001,none,4,7.0,77405.0,301389.0,150369.0,289625.0,161410.0
2026-04-14 18:14:15.372568,832139,1609507948960448,5548929792,0.843264,-0.066368,0.349408,-25.89125,-6.7375,-26.985,-11.408001,30.728,11.672001,none,4,7.0,77405.0,301389.0,150369.0,289625.0,161410.0
2026-04-14 18:14:15.372622,832140,1609507948974959,5548944688,0.843264,-0.066368,0.349408,-23.47625,-3.2025,-28.245,-11.408001,30.728,11.672001,none,4,7.0,77405.0,301389.0,150369.0,289625.0,161410.0
2026-04-14 18:14:15.372675,832141,1609507948983967,5548953367,0.90768,-0.050752,0.503616,-21.3325,-0.37625,-28.23625,-12.504001,30.808,11.088,none,4,7.0,77405.0,301389.0,150369.0,289625.0,161410.0
2026-04-14 18:14:15.374405,832142,1609507948992977,5548962118,0.90768,-0.050752,0.503616,-20.8775,1.14625,-26.18875,-12.504001,30.808,11.088,none,4,7.0,77405.0,301389.0,150369.0,289625.0,161410.0
2026-04-14 18:14:15.400209,832153,1609507949007599,5548977171,0.929152,-0.035136,0.5368,-20.88625,2.415,-23.52875,-12.416,30.888002,11.568001,none,4,7.0,79369.0,302665.0,152715.0,290689.0,163801.0
2026-04-14 18:14:15.402487,832154,1609507949016610,5548985889,0.880352,-0.017568,0.404064,-20.79875,4.515,-21.20125,-12.920001,31.232002,11.544001,none,4,7.0,79369.0,302665.0,152715.0,290689.0,163801.0
2026-04-14 18:14:15.407605,832155,1609507949031157,5549000925,0.880352,-0.017568,0.404064,-21.81375,6.43125,-18.87375,-12.920001,31.232002,11.544001,none,4,7.0,79369.0,302665.0,152715.0,290689.0,163801.0
2026-04-14 18:14:15.416665,832156,1609507949040095,5549009618,0.874496,-0.040992,0.509472,-22.02375,7.76125,-15.855001,-11.728001,31.008001,10.696,none,4,7.0,79369.0,302665.0,152715.0,290689.0,163801.0
2026-04-14 18:14:15.431730,832157,1609507949054618,5549024483,0.874496,-0.040992,0.509472,-21.315,9.47625,-13.60625,-11.728001,31.008001,10.696,none,4,7.0,79369.0,302665.0,152715.0,290689.0,163801.0
2026-04-14 18:14:15.440172,832158,1609507949063558,5549033199,0.892064,-0.074176,0.40992,-19.52125,10.22,-10.6575,-12.008,30.808,9.456,none,4,7.0,79369.0,302665.0,152715.0,290689.0,163801.0
2026-04-14 18:14:15.452482,832159,1609507949072506,5549041932,0.892064,-0.074176,0.40992,-17.5875,10.50875,-8.365,-12.008,30.808,9.456,none,4,7.0,79369.0,302665.0,152715.0,290689.0,163801.0
2026-04-14 18:14:15.463103,832160,1609507949087027,5549056911,0.89792,-0.085888,0.447008,-16.2925,10.43,-6.27375,-12.512001,30.752,9.776,none,4,7.0,79369.0,302665.0,152715.0,290689.0,163801.0
2026-04-14 18:14:15.471218,832161,1609507949095969,5549065607,0.89792,-0.085888,0.456768,-15.365,10.9725,-3.5,-12.512001,30.752,9.776,none,4,7.0,79369.0,302665.0,152715.0,290689.0,163801.0
2026-04-14 18:14:15.500477,832172,1609507949110772,5549080602,0.860832,-0.085888,0.456768,-13.2825,11.5675,-1.39125,-11.744,30.960001,8.808001,none,4,7.0,75960.0,299975.0,148373.0,288230.0,159261.0
2026-04-14 18:14:15.502921,832173,1609507949119864,5549089436,0.825696,-0.085888,0.499712,-11.62,11.6025,-0.02625,-12.416,31.440002,10.808001,none,4,7.0,75960.0,299975.0,148373.0,288230.0,159261.0
2026-04-14 18:14:15.505121,832174,1609507949128808,5549098138,0.825696,-0.085888,0.499712,-9.485,11.83875,1.19,-12.416,31.440002,10.808001,none,4,7.0,75960.0,299975.0,148373.0,288230.0,159261.0
2026-04-14 18:14:15.520143,832175,1609507949143329,5549113016,0.83936,-0.101504,0.503616,-6.78125,11.54125,1.46125,-12.440001,31.528002,10.152,none,4,7.0,75960.0,299975.0,148373.0,288230.0,159261.0
2026-04-14 18:14:15.527637,832176,1609507949152305,5549121724,0.83936,-0.101504,0.503616,-3.185,12.136251,0.84875,-12.440001,31.528002,10.152,none,4,7.0,75960.0,299975.0,148373.0,288230.0,159261.0
2026-04-14 18:14:15.542955,832177,1609507949166849,5549136653,0.843264,-0.140544,0.411872,0.35875,11.87375,0.42,-12.296001,31.560001,10.624001,none,4,7.0,75960.0,299975.0,148373.0,288230.0,159261.0
2026-04-14 18:14:15.553534,832178,1609507949175829,5549145359,0.843264,-0.140544,0.411872,2.17,11.10375,0.4025,-12.296001,31.560001,10.624001,none,4,7.0,75960.0,299975.0,148373.0,288230.0,159261.0
2026-04-14 18:14:15.568790,832179,1609507949190327,5549160266,0.886208,-0.160064,0.407968,5.53875,11.5675,1.225,-11.528001,31.248001,9.856001,none,4,7.0,75960.0,299975.0,148373.0,288230.0,159261.0
2026-04-14 18:14:15.575154,832180,1609507949199276,5549169040,0.772992,-0.091744,0.298656,9.5375,11.64625,0.37625,-11.176001,31.096,10.128,none,4,7.0,75960.0,299975.0,148373.0,288230.0,159261.0
2026-04-14 18:14:15.602616,832191,1609507949208301,5549177783,0.772992,-0.091744,0.298656,12.46875,11.62875,-1.09375,-11.176001,31.096,10.128,none,4,7.0,74612.0,299606.0,146727.0,287948.0,157628.0
2026-04-14 18:14:15.605153,832192,1609507949222961,5549192783,0.7808,-0.103456,0.31232,14.2975,11.795,-2.66875,-11.048,31.000002,10.64,none,4,7.0,74612.0,299606.0,146727.0,287948.0,157628.0
2026-04-14 18:14:15.607510,832193,1609507949231892,5549201682,0.7808,-0.103456,0.31232,17.47375,11.82125,-4.4975,-11.048,31.000002,10.64,none,4,7.0,74612.0,299606.0,146727.0,287948.0,157628.0
2026-04-14 18:14:15.623861,832194,1609507949246415,5549216605,0.755424,-0.08784,0.402112,20.48375,11.445,-5.60875,-10.992001,30.720001,10.984,none,4,7.0,74612.0,299606.0,146727.0,287948.0,157628.0
2026-04-14 18:14:15.632132,832195,1609507949255383,5549225461,0.755424,-0.08784,0.402112,23.1175,11.13,-4.96125,-10.992001,30.720001,10.984,none,4,7.0,74612.0,299606.0,146727.0,287948.0,157628.0
2026-04-14 18:14:15.647367,832196,1609507949270036,5549240329,0.812032,-0.105408,0.343552,25.795,9.8525,-4.2875,-11.936001,30.528002,11.056001,none,4,7.0,74612.0,299606.0,146727.0,287948.0,157628.0
2026-04-14 18:14:15.654956,832197,1609507949278978,5549249067,0.833504,-0.06832,0.4392,28.07,9.16125,-3.47375,-10.84,30.176,9.488001,none,4,7.0,74612.0,299606.0,146727.0,287948.0,157628.0
2026-04-14 18:14:15.663832,832198,1609507949288011,5549257769,0.833504,-0.06832,0.4392,29.05,8.715,-2.3975,-10.84,30.176,9.488001,none,4,7.0,74612.0,299606.0,146727.0,287948.0,157628.0
2026-04-14 18:14:15.807546,832209,1609507949302885,5549273219,0.804224,-0.06832,0.374784,28.51625,7.9625,-1.6275,-10.696,30.096,11.848001,none,4,7.0,80160.0,302169.0,153898.0,290305.0,165000.0
2026-04-14 18:14:15.810493,832210,1609507949311808,5549282037,0.804224,-0.06832,0.374784,29.5925,7.6125,-0.74375,-10.696,30.096,11.848001,none,4,7.0,80160.0,302169.0,153898.0,290305.0,165000.0
2026-04-14 18:14:15.812975,832211,1609507949326388,5549294922,0.804224,-0.027328,0.4392,32.4275,7.21,-0.105,-10.536,30.024002,13.088,none,4,7.0,80160.0,302169.0,153898.0,290305.0,165000.0
2026-04-14 18:14:15.815477,832212,1609507949335860,5549305747,0.804224,-0.027328,0.4392,34.81625,6.02875,0.2275,-10.536,30.024002,13.088,none,4,7.0,80160.0,302169.0,153898.0,290305.0,165000.0
2026-04-14 18:14:15.817939,832213,1609507949344814,5549314439,0.837408,-0.062464,0.437248,36.26,4.13875,1.33875,-11.552001,30.032001,13.920001,none,4,7.0,80160.0,302169.0,153898.0,290305.0,165000.0
2026-04-14 18:14:15.820548,832214,1609507949359473,5549329379,0.85888,-0.011712,0.515328,37.826252,1.84625,3.14125,-11.392,30.112001,15.312,none,4,7.0,80160.0,302169.0,153898.0,290305.0,165000.0
2026-04-14 18:14:15.823013,832215,1609507949368512,5549338074,0.85888,-0.011712,0.515328,39.55,0.7,4.935,-11.392,30.112001,15.312,none,4,7.0,80160.0,302169.0,153898.0,290305.0,165000.0
2026-04-14 18:14:15.826934,832216,1609507949383046,5549352975,0.853024,-0.003904,0.450912,42.39375,0.28875,6.685,-11.248,29.472002,14.528001,none,4,7.0,80160.0,302169.0,153898.0,290305.0,165000.0
2026-04-14 18:14:15.827452,832217,1609507949391988,5549361652,0.853024,-0.003904,0.450912,43.6975,0.30625,8.155,-11.248,29.472002,14.528001,none,4,7.0,80160.0,302169.0,153898.0,290305.0,165000.0
2026-04-14 18:14:15.830436,832218,1609507949401084,5549370346,0.864736,-0.001952,0.484096,42.84,1.085,9.66,-11.312,28.904001,15.432001,none,4,7.0,80160.0,302169.0,153898.0,290305.0,165000.0
2026-04-14 18:14:15.857589,832229,1609507949415582,5549385284,0.864736,-0.001952,0.484096,42.6125,1.4,11.2875,-11.312,28.904001,15.432001,none,4,7.0,84929.0,304675.0,159624.0,292586.0,170783.0
2026-04-14 18:14:15.860393,832230,1609507949424518,5549393963,0.833504,0.013664,0.489952,44.7825,1.14625,13.02875,-11.456,29.008001,16.800001,none,4,7.0,84929.0,304675.0,159624.0,292586.0,170783.0
2026-04-14 18:14:15.865441,832231,1609507949439102,5549408914,0.833504,0.046848,0.569984,47.4075,0.42875,14.83125,-11.632001,29.368002,17.296001,none,4,7.0,84929.0,304675.0,159624.0,292586.0,170783.0
2026-04-14 18:14:15.867896,832232,1609507949448053,5549417653,0.833504,0.046848,0.569984,47.3025,-0.175,17.26375,-11.632001,29.368002,17.296001,none,4,7.0,84929.0,304675.0,159624.0,292586.0,170783.0
2026-04-14 18:14:15.870255,832233,1609507949457308,5549426388,0.833504,0.046848,0.569984,45.15,-0.1225,19.5825,-11.632001,29.368002,17.296001,none,4,7.0,84929.0,304675.0,159624.0,292586.0,170783.0
2026-04-14 18:14:15.872959,832234,1609507949472059,5549441302,0.862784,0.005856,0.466528,42.857502,0.27125,22.4875,-10.92,27.976002,15.336,none,4,7.0,84929.0,304675.0,159624.0,292586.0,170783.0
2026-04-14 18:14:15.875508,832235,1609507949481134,5549450059,0.796416,0.05856,0.57584,40.73125,0.8225,24.325,-10.312,28.080002,17.208,none,4,7.0,84929.0,304675.0,159624.0,292586.0,170783.0
2026-04-14 18:14:15.878005,832236,1609507949495649,5549465004,0.796416,0.05856,0.57584,40.32,1.02375,25.725,-10.312,28.080002,17.208,none,4,7.0,84929.0,304675.0,159624.0,292586.0,170783.0
2026-04-14 18:14:15.905151,832247,1609507949504950,5549474280,0.843264,0.013664,0.374784,41.34375,0.28,26.425,-10.208,28.000002,17.128,none,4,7.0,85884.0,305183.0,160829.0,293134.0,172068.0
2026-04-14 18:14:15.910481,832248,1609507949514001,5549483111,0.843264,0.013664,0.374784,41.8425,-0.58625,26.4425,-10.208,28.000002,17.128,none,4,7.0,85884.0,305183.0,160829.0,293134.0,172068.0
2026-04-14 18:14:15.912935,832249,1609507949528595,5549498032,0.884256,0.001952,0.532896,41.125,-2.0475,27.991251,-9.8,27.776001,17.728,none,4,7.0,85884.0,305183.0,160829.0,293134.0,172068.0
2026-04-14 18:14:15.915387,832250,1609507949537559,5549506731,0.884256,0.001952,0.532896,41.79,-2.07375,29.81125,-9.8,27.776001,17.728,none,4,7.0,85884.0,305183.0,160829.0,293134.0,172068.0
2026-04-14 18:14:15.928734,832251,1609507949552213,5549521682,0.772992,0.031232,0.33184,42.39375,-1.81125,30.765,-9.424001,27.12,17.128,none,4,7.0,85884.0,305183.0,160829.0,293134.0,172068.0
2026-04-14 18:14:15.936681,832252,1609507949561149,5549530430,0.823744,0.031232,0.593408,40.0925,-1.07625,31.692501,-8.912001,27.136002,18.352001,none,4,7.0,85884.0,305183.0,160829.0,293134.0,172068.0
2026-04-14 18:14:15.951694,832253,1609507949575603,5549545361,0.823744,0.031232,0.593408,37.3625,-0.37625,31.92,-8.912001,27.136002,18.352001,none,4,7.0,85884.0,305183.0,160829.0,293134.0,172068.0
2026-04-14 18:14:15.962982,832254,1609507949584530,5549554036,0.739808,0.003904,0.325984,36.575,0.2275,31.692501,-8.232,26.304,17.992,none,4,7.0,85884.0,305183.0,160829.0,293134.0,172068.0
2026-04-14 18:14:15.969231,832255,1609507949593548,5549562982,0.739808,0.003904,0.325984,38.4475,0.5075,31.64,-8.232,26.304,17.992,none,4,7.0,85884.0,305183.0,160829.0,293134.0,172068.0
2026-04-14 18:14:16.004326,832266,1609507949608449,5549577932,0.79056,0.015616,0.460672,40.8975,0.25375,32.05125,-8.448,26.808,20.128,none,4,7.0,81849.0,303566.0,155650.0,291571.0,166785.0
2026-04-14 18:14:16.006723,832267,1609507949617387,5549586830,0.79056,0.015616,0.460672,41.6675,0.4725,32.87375,-8.448,26.808,20.128,none,4,7.0,81849.0,303566.0,155650.0,291571.0,166785.0
2026-04-14 18:14:16.009232,832268,1609507949632068,5549601772,0.737856,0.044896,0.489952,39.27,0.5075,33.87125,-8.864,26.656002,20.44,none,4,7.0,81849.0,303566.0,155650.0,291571.0,166785.0
2026-04-14 18:14:16.016288,832269,1609507949641160,5549610476,0.716384,0.040992,0.40992,34.7725,0.42875,34.2475,-7.984,26.12,18.92,none,4,7.0,81849.0,303566.0,155650.0,291571.0,166785.0
2026-04-14 18:14:16.025530,832270,1609507949650228,5549619221,0.716384,0.040992,0.40992,30.94,0.07,34.7375,-7.984,26.12,18.92,none,4,7.0,81849.0,303566.0,155650.0,291571.0,166785.0
2026-04-14 18:14:16.061318,832271,1609507949664734,5549634109,0.733952,0.025376,0.376736,28.77875,-0.30625,35.5775,-6.424,25.512001,19.0,none,4,7.0,81849.0,303566.0,155650.0,291571.0,166785.0
2026-04-14 18:14:16.086710,832272,1609507949673663,5549642773,0.733952,0.025376,0.376736,27.195,-0.98875,35.69125,-6.424,25.512001,19.0,none,4,7.0,81849.0,303566.0,155650.0,291571.0,166785.0
2026-04-14 18:14:16.088798,832273,1609507949688151,5549657696,0.856928,-0.025376,0.515328,26.635,-2.5375,34.99125,-7.216001,25.960001,20.240002,none,4,7.0,81849.0,303566.0,155650.0,291571.0,166785.0
2026-04-14 18:14:16.092300,832274,1609507949697120,5549666406,0.856928,-0.025376,0.515328,26.88875,-3.01,34.25625,-7.216001,25.960001,20.240002,none,4,7.0,81849.0,303566.0,155650.0,291571.0,166785.0
2026-04-14 18:14:16.118606,832285,1609507949711732,5549681611,0.776896,0.037088,0.519232,27.8075,-3.26375,32.5675,-7.136,25.672,20.640001,none,4,7.0,82272.0,304044.0,156257.0,292050.0,167473.0
2026-04-14 18:14:16.122343,832286,1609507949720818,5549690343,0.835456,-0.025376,0.55632,26.06625,-3.9725,30.09125,-7.136,24.736002,18.824001,none,4,7.0,82272.0,304044.0,156257.0,292050.0,167473.0
2026-04-14 18:14:16.124781,832287,1609507949729863,5549699037,0.835456,-0.025376,0.55632,22.60125,-5.145,28.35875,-6.76,24.736002,18.824001,none,4,7.0,82272.0,304044.0,156257.0,292050.0,167473.0
2026-04-14 18:14:16.127595,832288,1609507949744428,5549714074,0.837408,-0.056608,0.528992,20.8425,-6.1075,27.09,-6.424,24.704,19.608002,none,4,7.0,82272.0,304044.0,156257.0,292050.0,167473.0
2026-04-14 18:14:16.130116,832289,1609507949753370,5549722790,0.837408,-0.056608,0.528992,21.0525,-6.7375,25.90875,-6.424,24.704,19.608002,none,4,7.0,82272.0,304044.0,156257.0,292050.0,167473.0
2026-04-14 18:14:16.145128,832290,1609507949767920,5549737701,0.796416,-0.066368,0.345504,21.06125,-6.51875,24.10625,-5.432,24.696001,19.768002,none,4,7.0,82272.0,304044.0,156257.0,292050.0,167473.0
2026-04-14 18:14:16.153701,832291,1609507949776861,5549746410,0.796416,-0.066368,0.345504,18.655,-6.405,22.5575,-5.432,24.696001,19.768002,none,4,7.0,82272.0,304044.0,156257.0,292050.0,167473.0
2026-04-14 18:14:16.161379,832292,1609507949785813,5549755126,0.823744,-0.050752,0.607072,15.6975,-6.5975,21.4725,-5.392,24.728,19.824001,none,4,7.0,82272.0,304044.0,156257.0,292050.0,167473.0
2026-04-14 18:14:16.176264,832293,1609507949800318,5549770129,0.823744,-0.050752,0.607072,13.79,-6.895,19.9675,-5.392,24.728,19.824001,none,4,7.0,82272.0,304044.0,156257.0,292050.0,167473.0
2026-04-14 18:14:16.209817,832304,1609507949809518,5549778967,0.75152,-0.0488,0.349408,12.635,-6.55375,18.515,-5.296001,24.304,20.52,none,4,7.0,82025.0,304325.0,156038.0,292267.0,167238.0
2026-04-14 18:14:16.214912,832305,1609507949824112,5549793922,0.833504,-0.066368,0.56608,11.34875,-6.335,16.975,-4.992,24.480001,20.008001,none,4,7.0,82025.0,304325.0,156038.0,292267.0,167238.0
2026-04-14 18:14:16.215158,832306,1609507949833172,5549802641,0.833504,-0.066368,0.56608,11.59375,-6.4925,15.2075,-4.992,24.480001,20.008001,none,4,7.0,82025.0,304325.0,156038.0,292267.0,167238.0
2026-04-14 18:14:16.219196,832307,1609507949842146,5549811341,0.81008,-0.089792,0.44896,12.48625,-6.23,13.5975,-5.368,24.208002,20.552,none,4,7.0,82025.0,304325.0,156038.0,292267.0,167238.0
2026-04-14 18:14:16.232454,832308,1609507949856656,5549826242,0.81008,-0.089792,0.44896,12.94125,-5.81875,12.06625,-5.368,24.208002,20.552,none,4,7.0,82025.0,304325.0,156038.0,292267.0,167238.0
2026-04-14 18:14:16.242809,832309,1609507949865555,5549834915,0.77104,-0.070272,0.501664,10.8325,-5.39,10.815,-5.032,24.384,20.248001,none,4,7.0,82025.0,304325.0,156038.0,292267.0,167238.0
2026-04-14 18:14:16.255141,832310,1609507949880132,5549849860,0.77104,-0.070272,0.501664,6.0725,-5.705,10.675,-5.032,24.384,20.248001,none,4,7.0,82025.0,304325.0,156038.0,292267.0,167238.0
2026-04-14 18:14:16.265199,832311,1609507949889127,5549858589,0.772992,-0.109312,0.30256,3.77125,-6.16,10.4475,-4.896,24.328001,21.584002,none,4,7.0,82025.0,304325.0,156038.0,292267.0,167238.0
2026-04-14 18:14:16.281372,832312,1609507949903672,5549873485,0.77104,-0.06832,0.441152,4.515,-6.125,9.5725,-5.520001,24.12,22.112001,none,4,7.0,82025.0,304325.0,156038.0,292267.0,167238.0
2026-04-14 18:14:16.311169,832323,1609507949912636,5549882300,0.77104,-0.06832,0.441152,6.2825,-5.85375,7.49875,-5.520001,24.12,22.112001,none,4,7.0,85005.0,307080.0,159788.0,294856.0,171053.0
2026-04-14 18:14:16.313835,832324,1609507949921640,5549891023,0.77104,-0.099552,0.495808,8.3125,-5.43375,5.31125,-5.520001,24.12,22.112001,none,4,7.0,85005.0,307080.0,159788.0,294856.0,171053.0
2026-04-14 18:14:16.316365,832325,1609507949936091,5549905879,0.835456,-0.103456,0.495808,9.47625,-5.25875,3.01,-6.016,24.496,23.696001,none,4,7.0,85005.0,307080.0,159788.0,294856.0,171053.0
2026-04-14 18:14:16.321080,832326,1609507949945040,5549914577,0.870592,-0.154208,0.3904,9.59875,-5.36375,2.03,-6.192,24.032001,21.528002,none,4,7.0,85005.0,307080.0,159788.0,294856.0,171053.0
2026-04-14 18:14:16.336753,832327,1609507949959629,5549929491,0.870592,-0.154208,0.3904,9.94,-4.83,2.98375,-6.192,24.032001,21.528002,none,4,7.0,85005.0,307080.0,159788.0,294856.0,171053.0
2026-04-14 18:14:16.346218,832328,1609507949968610,5549938206,0.856928,-0.109312,0.482144,10.7275,-4.4275,5.31125,-4.984,23.816002,20.84,none,4,7.0,85005.0,307080.0,159788.0,294856.0,171053.0
2026-04-14 18:14:16.359183,832329,1609507949983145,5549953161,0.890112,-0.111264,0.452864,11.165,-4.1125,7.63875,-4.968,23.344002,20.76,none,4,7.0,85005.0,307080.0,159788.0,294856.0,171053.0
2026-04-14 18:14:16.367969,832330,1609507949992100,5549961851,0.890112,-0.111264,0.452864,12.32,-2.91375,9.45875,-4.968,23.344002,20.76,none,4,7.0,85005.0,307080.0,159788.0,294856.0,171053.0
2026-04-14 18:14:16.377983,832331,1609507950001021,5549970584,0.890112,-0.111264,0.452864,13.2125,-2.58125,9.63375,-4.968,23.344002,20.76,none,4,7.0,85005.0,307080.0,159788.0,294856.0,171053.0
2026-04-14 18:14:16.443784,832342,1609507950015714,5549985572,0.76128,-0.081984,0.267424,14.02625,-2.93125,9.65125,-4.976,23.144001,22.192001,none,4,7.0,87775.0,309285.0,163252.0,296906.0,174469.0
2026-04-14 18:14:16.469217,832343,1609507950024729,5549994326,0.749568,-0.074176,0.281088,15.54875,-3.73625,9.49375,-4.624,23.456001,21.248001,none,4,7.0,87775.0,309285.0,163252.0,296906.0,174469.0
2026-04-14 18:14:16.500007,832344,1609507950039255,5550009240,0.749568,-0.074176,0.281088,16.5025,-4.9525,9.38,-4.624,23.456001,21.248001,none,4,7.0,87775.0,309285.0,163252.0,296906.0,174469.0
2026-04-14 18:14:16.516125,832345,1609507950048368,5550017949,0.794464,-0.050752,0.505568,16.8,-5.60875,8.81125,-5.08,23.104002,21.296001,none,4,7.0,87775.0,309285.0,163252.0,296906.0,174469.0
2026-04-14 18:14:16.518836,832346,1609507950057293,5550026668,0.794464,-0.050752,0.505568,15.408751,-6.3,8.5225,-5.08,23.104002,21.296001,none,4,7.0,87775.0,309285.0,163252.0,296906.0,174469.0
2026-04-14 18:14:16.521152,832347,1609507950071812,5550041571,0.72224,-0.017568,0.402112,15.715,-6.64125,7.91,-5.92,23.12,22.304,none,4,7.0,87775.0,309285.0,163252.0,296906.0,174469.0
2026-04-14 18:14:16.523851,832348,1609507950080804,5550050435,0.72224,-0.017568,0.402112,17.28125,-6.405,5.6525,-5.92,23.12,22.304,none,4,7.0,87775.0,309285.0,163252.0,296906.0,174469.0
2026-04-14 18:14:16.526265,832349,1609507950095329,5550065347,0.769088,-0.044896,0.384544,18.64625,-7.13125,3.955,-6.088,22.872002,22.664001,none,4,7.0,87775.0,309285.0,163252.0,296906.0,174469.0
2026-04-14 18:14:16.528804,832350,1609507950104277,5550074096,0.8296,-0.080032,0.435296,20.15125,-8.33875,2.1875,-5.944,22.584002,21.128,none,4,7.0,87775.0,309285.0,163252.0,296906.0,174469.0
2026-04-14 18:14:16.556400,832361,1609507950118996,5550089011,0.8296,-0.080032,0.435296,19.9325,-9.35375,0.76125,-5.944,22.584002,21.128,none,4,7.0,87250.0,310097.0,162685.0,297776.0,173837.0
2026-04-14 18:14:16.558930,832362,1609507950127988,5550097716,0.730048,-0.035136,0.378688,18.0075,-9.82625,0.8575,-5.424,22.04,21.632002,none,4,7.0,87250.0,310097.0,162685.0,297776.0,173837.0
2026-04-14 18:14:16.561150,832363,1609507950136934,5550106354,0.730048,-0.035136,0.378688,15.1025,-9.75625,1.40875,-5.424,22.04,21.632002,none,4,7.0,87250.0,310097.0,162685.0,297776.0,173837.0
2026-04-14 18:14:16.563756,832364,1609507950151465,5550121323,0.837408,-0.054656,0.521184,11.99625,-9.52875,0.9975,-5.336,22.048,21.728,none,4,7.0,87250.0,310097.0,162685.0,297776.0,173837.0
2026-04-14 18:14:16.566349,832365,1609507950160467,5550130143,0.837408,-0.054656,0.521184,8.98625,-9.345,1.09375,-5.336,22.048,21.728,none,4,7.0,87250.0,310097.0,162685.0,297776.0,173837.0
2026-04-14 18:14:16.568923,832366,1609507950175080,5550145073,0.821792,-0.060512,0.509472,8.14625,-9.87875,1.2775,-5.472,22.296001,21.648,none,4,7.0,87250.0,310097.0,162685.0,297776.0,173837.0
2026-04-14 18:14:16.571298,832367,1609507950184185,5550153762,0.853024,-0.08784,0.374784,9.17,-10.36,0.9975,-5.432,21.712002,22.792002,none,4,7.0,87250.0,310097.0,162685.0,297776.0,173837.0
2026-04-14 18:14:16.573951,832368,1609507950193194,5550162496,0.853024,-0.08784,0.374784,12.43375,-10.7975,0.16625,-5.432,21.712002,22.792002,none,4,7.0,87250.0,310097.0,162685.0,297776.0,173837.0
2026-04-14 18:14:16.606377,832379,1609507950207784,5550177463,0.782752,-0.052704,0.355264,12.95,-12.0925,-0.6475,-5.968,21.832,21.632002,none,4,7.0,90763.0,312661.0,166884.0,300088.0,178145.0
2026-04-14 18:14:16.613940,832380,1609507950216843,5550186273,0.782752,-0.052704,0.355264,12.573751,-13.02875,-0.72625,-5.968,21.832,21.632002,none,4,7.0,90763.0,312661.0,166884.0,300088.0,178145.0
2026-04-14 18:14:16.616416,832381,1609507950231400,5550201336,0.813984,-0.066368,0.290848,12.18875,-12.8625,-1.68,-5.824,21.76,22.304,none,4,7.0,90763.0,312661.0,166884.0,300088.0,178145.0
2026-04-14 18:14:16.618874,832382,1609507950240391,5550210083,0.813984,-0.066368,0.290848,10.7275,-12.74,-2.3975,-5.824,21.76,22.304,none,4,7.0,90763.0,312661.0,166884.0,300088.0,178145.0
2026-04-14 18:14:16.632662,832383,1609507950254951,5550224972,0.794464,-0.062464,0.310368,8.79375,-12.25,-2.66875,-5.968,21.864,22.032001,none,4,7.0,90763.0,312661.0,166884.0,300088.0,178145.0
2026-04-14 18:14:16.641417,832384,1609507950263919,5550233653,0.794464,-0.050752,0.411872,7.455,-12.11,-2.8,-5.968,21.864,22.032001,none,4,7.0,90763.0,312661.0,166884.0,300088.0,178145.0
2026-04-14 18:14:16.647651,832385,1609507950272882,5550242443,0.853024,-0.050752,0.411872,7.48125,-10.92,-3.8325,-7.128,22.04,21.52,none,4,7.0,90763.0,312661.0,166884.0,300088.0,178145.0
2026-04-14 18:14:16.663948,832386,1609507950287445,5550257367,0.804224,-0.066368,0.306464,6.71125,-10.08,-5.53,-6.912,21.68,23.216002,none,4,7.0,90763.0,312661.0,166884.0,300088.0,178145.0
2026-04-14 18:14:16.674155,832387,1609507950296376,5550266069,0.804224,-0.066368,0.306464,5.635,-10.0625,-6.3,-6.912,21.68,23.216002,none,4,7.0,90763.0,312661.0,166884.0,300088.0,178145.0
2026-04-14 18:14:16.707669,832398,1609507950311555,5550281028,0.765184,-0.02928,0.2928,5.985,-9.073751,-7.39375,-6.976,21.136002,22.552002,none,4,7.0,93371.0,314740.0,170186.0,302072.0,181542.0
2026-04-14 18:14:16.715879,832399,1609507950320619,5550289851,0.765184,-0.02928,0.2928,6.23,-7.7525,-9.31875,-6.976,21.136002,22.552002,none,4,7.0,93371.0,314740.0,170186.0,302072.0,181542.0
2026-04-14 18:14:16.717593,832400,1609507950329729,5550298599,0.835456,-0.052704,0.372832,5.1275,-7.14875,-9.82625,-6.472,20.92,21.968,none,4,7.0,93371.0,314740.0,170186.0,302072.0,181542.0
2026-04-14 18:14:16.720503,832401,1609507950344341,5550313488,0.835456,0.00976,0.281088,3.8675,-6.64125,-10.33375,-6.472,20.92,21.968,none,4,7.0,93371.0,314740.0,170186.0,302072.0,181542.0
2026-04-14 18:14:16.727673,832402,1609507950353273,5550322224,0.735904,0.003904,0.281088,3.26375,-5.8975,-11.515,-6.904,21.176,21.672,none,4,7.0,93371.0,314740.0,170186.0,302072.0,181542.0
