pc_time,serial_num,sensor_ts,host_ts,ax,ay,az,gx,gy,gz,mx,my,mz,phase,rpe,weight_kg,ppg_a,ppg_b,ppg_c,ppg_d,ppg_e
2026-04-14 18:15:04.900136,841457,1609507998524314,5598492699,0.944768,0.025376,0.669536,-13.46625,-3.84125,4.2875,-12.264001,26.872002,15.952001,concentric,4,7.0,185130.0,377623.0,290380.0,366539.0,294336.0
2026-04-14 18:15:04.913190,841458,1609507998533546,5598503457,0.944768,0.025376,0.669536,-10.08,-6.23875,5.95875,-12.264001,26.872002,15.952001,concentric,4,7.0,185130.0,377623.0,290380.0,366539.0,294336.0
2026-04-14 18:15:04.939005,841459,1609507998542494,5598512212,0.944768,0.025376,0.669536,-8.1375,-9.12625,8.77625,-12.264001,26.872002,15.952001,concentric,4,7.0,185130.0,377623.0,290380.0,366539.0,294336.0
2026-04-14 18:15:04.964237,841460,1609507998557002,5598527123,0.831552,0.046848,0.562176,-9.6425,-9.6775,11.655,-12.744,26.888,13.536,concentric,4,7.0,185130.0,377623.0,290380.0,366539.0,294336.0
2026-04-14 18:15:04.984444,841461,1609507998565995,5598535815,0.8296,0.103456,0.716384,-11.0075,-7.21875,12.4425,-12.544001,26.832,15.984001,concentric,4,7.0,185130.0,377623.0,290380.0,366539.0,294336.0
2026-04-14 18:15:05.011745,841472,1609507998580694,5598549175,0.8296,0.103456,0.716384,-12.136251,-2.94,12.32875,-12.544001,26.832,15.984001,concentric,4,7.0,179509.0,376081.0,283570.0,365318.0,288819.0
2026-04-14 18:15:05.014161,841473,1609507998590025,5598559987,0.821792,-0.015616,0.583648,-14.5075,0.83125,11.31375,-12.336,26.840002,16.168001,concentric,4,7.0,179509.0,376081.0,283570.0,365318.0,288819.0
2026-04-14 18:15:05.016733,841474,1609507998598936,5598568712,0.821792,-0.015616,0.583648,-15.60125,1.33875,12.0575,-12.336,26.840002,16.168001,concentric,4,7.0,179509.0,376081.0,283570.0,365318.0,288819.0
2026-04-14 18:15:05.019243,841475,1609507998613448,5598583638,0.847168,-0.03904,0.55632,-11.2525,-1.4525,13.62375,-11.864,27.352001,16.6,concentric,4,7.0,179509.0,376081.0,283570.0,365318.0,288819.0
2026-04-14 18:15:05.021702,841476,1609507998622558,5598592388,0.847168,-0.03904,0.55632,-6.58875,-5.97625,15.00625,-11.864,27.352001,16.6,concentric,4,7.0,179509.0,376081.0,283570.0,365318.0,288819.0
2026-04-14 18:15:05.024069,841477,1609507998637186,5598607422,0.759328,-0.02928,0.443104,-6.93,-9.4325,17.43,-12.704,27.36,18.272001,concentric,4,7.0,179509.0,376081.0,283570.0,365318.0,288819.0
2026-04-14 18:15:05.026723,841478,1609507998646140,5598616132,0.718336,0.017568,0.505568,-8.30375,-9.75625,18.54125,-12.384001,26.944002,15.176001,concentric,4,7.0,179509.0,376081.0,283570.0,365318.0,288819.0
2026-04-14 18:15:05.039280,841479,1609507998660674,5598631110,0.718336,0.017568,0.505568,-8.09375,-7.83125,17.928751,-12.384001,26.944002,15.176001,concentric,4,7.0,179509.0,376081.0,283570.0,365318.0,288819.0
2026-04-14 18:15:05.073619,841480,1609507998669598,5598639789,0.774944,-0.031232,0.548512,-7.48125,-4.50625,16.415,-11.064,27.136002,14.248001,concentric,4,7.0,179509.0,376081.0,283570.0,365318.0,288819.0
2026-04-14 18:15:05.109273,841491,1609507998678922,5598648539,0.774944,-0.031232,0.548512,-9.28375,-2.40625,15.0675,-11.064,27.136002,14.248001,concentric,4,7.0,169892.0,373599.0,272104.0,363413.0,279043.0
2026-04-14 18:15:05.111815,841492,1609507998693437,5598663479,0.778848,-0.040992,0.54656,-9.59875,-2.4325,15.417501,-11.136001,27.072,15.480001,concentric,4,7.0,169892.0,373599.0,272104.0,363413.0,279043.0
2026-04-14 18:15:05.114240,841493,1609507998702406,5598672243,0.778848,-0.040992,0.54656,-6.25625,-5.43375,14.49875,-11.136001,27.072,15.480001,concentric,4,7.0,169892.0,373599.0,272104.0,363413.0,279043.0
2026-04-14 18:15:05.116787,841494,1609507998716954,5598687174,0.689056,-0.033184,0.402112,-3.9025,-8.8725,14.2625,-11.568001,27.288002,16.496,concentric,4,7.0,169892.0,373599.0,272104.0,363413.0,279043.0
2026-04-14 18:15:05.119320,841495,1609507998725993,5598695895,0.724192,-0.015616,0.597312,-3.675,-11.05125,14.63875,-11.264001,27.608002,14.976001,concentric,4,7.0,169892.0,373599.0,272104.0,363413.0,279043.0
2026-04-14 18:15:05.121783,841496,1609507998735044,5598704608,0.724192,-0.015616,0.597312,-3.84125,-10.22,14.665,-11.264001,27.608002,14.976001,concentric,4,7.0,169892.0,373599.0,272104.0,363413.0,279043.0
2026-04-14 18:15:05.128011,841497,1609507998749533,5598719583,0.749568,0.003904,0.548512,-2.79125,-8.72375,13.92125,-10.480001,27.024002,13.704,concentric,4,7.0,169892.0,373599.0,272104.0,363413.0,279043.0
2026-04-14 18:15:05.136535,841498,1609507998758546,5598728349,0.749568,0.003904,0.548512,-2.7125,-8.18125,12.425,-10.480001,27.024002,13.704,concentric,4,7.0,169892.0,373599.0,272104.0,363413.0,279043.0
2026-04-14 18:15:05.151739,841499,1609507998773208,5598743258,0.657824,0.03904,0.530944,-4.4625,-9.09125,11.12125,-9.992001,27.2,13.696001,concentric,4,7.0,169892.0,373599.0,272104.0,363413.0,279043.0
2026-04-14 18:15:05.183847,841510,1609507998782310,5598752333,0.657824,0.03904,0.530944,-5.85375,-8.86375,10.63125,-9.992001,27.2,13.696001,concentric,4,7.0,165712.0,373471.0,267514.0,363630.0,275064.0
2026-04-14 18:15:05.186654,841511,1609507998791277,5598761060,0.642208,0.015616,0.515328,-9.17,-7.25375,9.7825,-10.016001,27.632002,13.672001,concentric,4,7.0,165712.0,373471.0,267514.0,363630.0,275064.0
2026-04-14 18:15:05.189135,841512,1609507998805922,5598776009,0.659776,-0.089792,0.386496,-13.6325,-6.23875,9.6425,-9.816001,27.312002,12.936001,concentric,4,7.0,165712.0,373471.0,267514.0,363630.0,275064.0
2026-04-14 18:15:05.193156,841513,1609507998815068,5598784740,0.659776,-0.089792,0.386496,-14.56,-5.62625,11.025,-9.816001,27.312002,12.936001,concentric,4,7.0,165712.0,373471.0,267514.0,363630.0,275064.0
2026-04-14 18:15:05.209478,841514,1609507998829568,5598799637,0.646112,-0.07808,0.308416,-9.9225,-5.04,12.29375,-10.320001,27.44,13.152,concentric,4,7.0,165712.0,373471.0,267514.0,363630.0,275064.0
2026-04-14 18:15:05.215270,841515,1609507998838518,5598808345,0.646112,-0.07808,0.308416,-4.10375,-3.42125,12.4775,-10.320001,27.44,13.152,concentric,4,7.0,165712.0,373471.0,267514.0,363630.0,275064.0
2026-04-14 18:15:05.231652,841516,1609507998853086,5598823253,0.60512,-0.066368,0.279136,-1.1375,-3.2025,13.1075,-9.928,27.944002,14.624001,concentric,4,7.0,165712.0,373471.0,267514.0,363630.0,275064.0
2026-04-14 18:15:05.240809,841517,1609507998862183,5598831964,0.60512,-0.066368,0.279136,-0.42875,-4.8475,14.81375,-9.928,27.944002,14.624001,concentric,4,7.0,165712.0,373471.0,267514.0,363630.0,275064.0
2026-04-14 18:15:05.249238,841518,1609507998871113,5598840636,0.626592,-0.035136,0.505568,-0.7,-6.02875,14.980001,-9.088,27.584002,13.432001,concentric,4,7.0,165712.0,373471.0,267514.0,363630.0,275064.0
2026-04-14 18:15:05.281433,841529,1609507998885788,5598855656,0.616832,-0.025376,0.5368,-0.1225,-4.69,14.3325,-8.72,27.488,14.888001,concentric,4,7.0,152815.0,368742.0,252135.0,359689.0,261036.0
2026-04-14 18:15:05.306969,841530,1609507998894793,5598864429,0.616832,-0.025376,0.5368,-1.32125,-3.00125,12.8275,-8.72,27.488,14.888001,concentric,4,7.0,152815.0,368742.0,252135.0,359689.0,261036.0
2026-04-14 18:15:05.329308,841531,1609507998909381,5598879424,0.599264,-0.040992,0.515328,-3.78875,-1.365,11.12125,-9.312,27.968,14.392001,concentric,4,7.0,152815.0,368742.0,252135.0,359689.0,261036.0
2026-04-14 18:15:05.331793,841532,1609507998918309,5598888279,0.599264,-0.040992,0.515328,-2.16125,-0.805,10.61375,-9.312,27.968,14.392001,concentric,4,7.0,152815.0,368742.0,252135.0,359689.0,261036.0
2026-04-14 18:15:05.334492,841533,1609507998927369,5598896956,0.577792,-0.101504,0.255712,0.48125,-1.54,10.0625,-9.568001,27.992,14.184001,concentric,4,7.0,152815.0,368742.0,252135.0,359689.0,261036.0
2026-04-14 18:15:05.337175,841534,1609507998941866,5598911920,0.577792,-0.101504,0.255712,0.72625,-2.135,10.98125,-9.568001,27.992,14.184001,concentric,4,7.0,152815.0,368742.0,252135.0,359689.0,261036.0
2026-04-14 18:15:05.339609,841535,1609507998950828,5598920614,0.538752,-0.109312,0.244,-0.84,-2.8175,13.37875,-9.296001,27.464,14.432001,concentric,4,7.0,152815.0,368742.0,252135.0,359689.0,261036.0
2026-04-14 18:15:05.344255,841536,1609507998965360,5598935514,0.538752,-0.109312,0.353312,-2.14375,-3.71,15.35625,-9.296001,27.464,14.432001,concentric,4,7.0,152815.0,368742.0,252135.0,359689.0,261036.0
2026-04-14 18:15:05.352058,841537,1609507998974289,5598944372,0.489952,0.005856,0.349408,-0.245,-4.375,15.408751,-8.936001,27.688002,13.072001,concentric,4,7.0,152815.0,368742.0,252135.0,359689.0,261036.0
2026-04-14 18:15:05.381479,841548,1609507998988938,5598957502,0.5856,-0.040992,0.3904,3.43,-4.935,14.14,-8.928,28.128002,15.616001,concentric,4,7.0,143418.0,361724.0,241204.0,353604.0,250914.0
2026-04-14 18:15:05.384394,841549,1609507998998450,5598968300,0.5856,-0.040992,0.3904,4.1125,-6.08125,13.011251,-8.928,28.128002,15.616001,concentric,4,7.0,143418.0,361724.0,241204.0,353604.0,250914.0
2026-04-14 18:15:05.386932,841550,1609507999007512,5598977046,0.528992,-0.060512,0.454816,1.8375,-7.60375,13.92125,-9.416,28.28,14.264001,concentric,4,7.0,143418.0,361724.0,241204.0,353604.0,250914.0
2026-04-14 18:15:05.399505,841551,1609507999022027,5598992002,0.528992,-0.060512,0.454816,-1.77625,-8.89875,15.61,-9.416,28.28,14.264001,concentric,4,7.0,143418.0,361724.0,241204.0,353604.0,250914.0
2026-04-14 18:15:05.409603,841552,1609507999030973,5599000689,0.54656,-0.054656,0.345504,-2.625,-10.167501,16.765,-8.072001,27.624,13.112,concentric,4,7.0,143418.0,361724.0,241204.0,353604.0,250914.0
2026-04-14 18:15:05.424590,841553,1609507999045487,5599015580,0.54656,-0.054656,0.345504,-1.8025,-10.3425,16.79125,-8.072001,27.624,13.112,concentric,4,7.0,143418.0,361724.0,241204.0,353604.0,250914.0
2026-04-14 18:15:05.431585,841554,1609507999054419,5599024314,0.480192,0.011712,0.398208,-1.42625,-10.42125,17.01,-7.6,27.768002,12.072001,concentric,4,7.0,143418.0,361724.0,241204.0,353604.0,250914.0
2026-04-14 18:15:05.442077,841555,1609507999063415,5599033075,0.480192,0.011712,0.398208,-0.7175,-9.975,17.675,-7.6,27.768002,12.072001,concentric,4,7.0,143418.0,361724.0,241204.0,353604.0,250914.0
2026-04-14 18:15:05.480679,841566,1609507999077899,5599047918,0.581696,-0.027328,0.4392,-1.02375,-10.185,16.73,-7.400001,27.744001,13.552001,concentric,4,7.0,137931.0,358192.0,234513.0,350316.0,244477.0
2026-04-14 18:15:05.487702,841567,1609507999087067,5599056656,0.569984,-0.074176,0.288896,-2.33625,-11.2875,15.855001,-7.808001,28.112001,14.856001,concentric,4,7.0,137931.0,358192.0,234513.0,350316.0,244477.0
2026-04-14 18:15:05.490693,841568,1609507999101623,5599071646,0.569984,-0.074176,0.288896,-4.38375,-12.0925,15.56625,-7.808001,28.112001,14.856001,concentric,4,7.0,137931.0,358192.0,234513.0,350316.0,244477.0
2026-04-14 18:15:05.492790,841569,1609507999110556,5599080398,0.607072,-0.050752,0.466528,-5.27625,-12.24125,15.11125,-8.440001,28.064001,14.096001,concentric,4,7.0,137931.0,358192.0,234513.0,350316.0,244477.0
2026-04-14 18:15:05.503966,841570,1609507999125184,5599095341,0.607072,-0.050752,0.466528,-5.74,-13.3175,14.14875,-8.440001,28.064001,14.096001,concentric,4,7.0,137931.0,358192.0,234513.0,350316.0,244477.0
2026-04-14 18:15:05.512046,841571,1609507999134154,5599104048,0.538752,-0.027328,0.327936,-6.0375,-13.65,13.13375,-7.440001,28.216002,12.440001,concentric,4,7.0,137931.0,358192.0,234513.0,350316.0,244477.0
2026-04-14 18:15:05.530892,841572,1609507999143252,5599112826,0.538752,-0.027328,0.327936,-7.16625,-13.2825,12.53,-7.440001,28.216002,12.440001,concentric,4,7.0,137931.0,358192.0,234513.0,350316.0,244477.0
2026-04-14 18:15:05.537150,841573,1609507999157958,5599127714,0.60512,-0.062464,0.37088,-9.87,-13.15125,11.1825,-6.960001,27.896002,12.68,concentric,4,7.0,137931.0,358192.0,234513.0,350316.0,244477.0
2026-04-14 18:15:05.547366,841574,1609507999166911,5599136436,0.60512,-0.109312,0.425536,-12.95,-13.09875,10.395,-6.960001,27.896002,12.68,concentric,4,7.0,137931.0,358192.0,234513.0,350316.0,244477.0
2026-04-14 18:15:05.583544,841585,1609507999181928,5599151373,0.651968,-0.099552,0.425536,-14.58625,-12.53875,9.77375,-6.968,28.112001,10.944,concentric,4,7.0,135806.0,360406.0,231534.0,351635.0,241448.0
2026-04-14 18:15:05.583864,841586,1609507999191004,5599160178,0.675392,-0.074176,0.480192,-14.63,-11.45375,8.51375,-8.496,28.824001,14.880001,concentric,4,7.0,135806.0,360406.0,231534.0,351635.0,241448.0
2026-04-14 18:15:05.585247,841587,1609507999199958,5599168945,0.675392,-0.074176,0.480192,-14.7,-9.948751,7.2975,-8.496,28.824001,14.880001,concentric,4,7.0,135806.0,360406.0,231534.0,351635.0,241448.0
2026-04-14 18:15:05.595468,841588,1609507999214481,5599183872,0.669536,-0.0976,0.452864,-13.32625,-9.03875,6.44875,-8.552,28.544,13.504001,concentric,4,7.0,135806.0,360406.0,231534.0,351635.0,241448.0
2026-04-14 18:15:05.601754,841589,1609507999223454,5599192565,0.669536,-0.0976,0.452864,-11.83875,-9.6775,5.18,-8.552,28.544,13.504001,concentric,4,7.0,135806.0,360406.0,231534.0,351635.0,241448.0
2026-04-14 18:15:05.614283,841590,1609507999237955,5599207500,0.743712,-0.144448,0.482144,-11.7075,-10.535,5.005,-6.984,28.464,12.216001,concentric,4,7.0,135806.0,360406.0,231534.0,351635.0,241448.0
2026-04-14 18:15:05.624272,841591,1609507999246952,5599216268,0.743712,-0.144448,0.482144,-11.10375,-10.395,5.39875,-6.984,28.464,12.216001,concentric,4,7.0,135806.0,360406.0,231534.0,351635.0,241448.0
2026-04-14 18:15:05.633003,841592,1609507999255952,5599224989,0.687104,-0.142496,0.357216,-12.24125,-8.72375,5.0925,-6.944,28.032001,13.928,concentric,4,7.0,135806.0,360406.0,231534.0,351635.0,241448.0
2026-04-14 18:15:05.650924,841593,1609507999270438,5599239889,0.7808,-0.163968,0.493856,-13.7025,-5.97625,5.39875,-7.08,28.752,12.776001,concentric,4,7.0,135806.0,360406.0,231534.0,351635.0,241448.0
2026-04-14 18:15:05.751645,841604,1609507999279366,5599248727,0.7808,-0.163968,0.493856,-12.92375,-4.2,5.80125,-7.08,28.752,12.776001,concentric,4,7.0,138415.0,363297.0,234500.0,353732.0,244374.0
2026-04-14 18:15:05.752844,841605,1609507999293908,5599263628,0.75152,-0.158112,0.376736,-9.0475,-3.38625,5.74875,-7.696001,28.944002,13.320001,concentric,4,7.0,138415.0,363297.0,234500.0,353732.0,244374.0
2026-04-14 18:15:05.755247,841606,1609507999302877,5599272315,0.75152,-0.158112,0.376736,-7.00875,-4.095,5.1275,-7.696001,28.944002,13.320001,concentric,4,7.0,138415.0,363297.0,234500.0,353732.0,244374.0
2026-04-14 18:15:05.757917,841607,1609507999317419,5599287222,0.815936,-0.154208,0.542656,-8.58375,-3.9025,5.145,-7.696001,29.024002,11.76,concentric,4,7.0,138415.0,363297.0,234500.0,353732.0,244374.0
2026-04-14 18:15:05.760420,841608,1609507999326354,5599295921,0.815936,-0.154208,0.542656,-10.9375,-2.42375,4.305,-7.696001,29.024002,11.76,concentric,4,7.0,138415.0,363297.0,234500.0,353732.0,244374.0
2026-04-14 18:15:05.762859,841609,1609507999335341,5599304741,0.745664,-0.160064,0.488,-11.3925,-1.085,3.54375,-6.656,28.848001,10.968,concentric,4,7.0,138415.0,363297.0,234500.0,353732.0,244374.0
2026-04-14 18:15:05.765430,841610,1609507999349845,5599319783,0.732,-0.183488,0.386496,-9.02125,-0.49,3.31625,-6.656,28.672,11.824,concentric,4,7.0,138415.0,363297.0,234500.0,353732.0,244374.0
2026-04-14 18:15:05.767941,841611,1609507999358908,5599328679,0.732,-0.183488,0.386496,-6.64125,-1.14625,3.01875,-6.656,28.672,11.824,concentric,4,7.0,138415.0,363297.0,234500.0,353732.0,244374.0
2026-04-14 18:15:05.770459,841612,1609507999373452,5599343759,0.823744,-0.187392,0.583648,-7.2275,-1.33875,4.20875,-6.592001,28.744001,11.952001,concentric,4,7.0,138415.0,363297.0,234500.0,353732.0,244374.0
2026-04-14 18:15:05.797931,841623,1609507999382772,5599352592,0.823744,-0.187392,0.583648,-8.23375,-1.16375,4.9,-6.592001,28.744001,11.952001,concentric,4,7.0,139629.0,364530.0,235914.0,354533.0,245633.0
2026-04-14 18:15:05.800399,841624,1609507999391792,5599361318,0.767136,-0.191296,0.411872,-6.72875,-0.95375,4.76875,-6.504,29.056002,11.752001,concentric,4,7.0,139629.0,364530.0,235914.0,354533.0,245633.0
2026-04-14 18:15:05.807715,841625,1609507999406536,5599376284,0.767136,-0.191296,0.411872,-2.9925,-0.44625,3.87625,-6.504,29.056002,11.752001,concentric,4,7.0,139629.0,364530.0,235914.0,354533.0,245633.0
2026-04-14 18:15:05.810422,841626,1609507999415574,5599385085,0.776896,-0.154208,0.562176,-0.525,-1.26,2.54625,-6.528,28.400002,11.496,concentric,4,7.0,139629.0,364530.0,235914.0,354533.0,245633.0
2026-04-14 18:15:05.812917,841627,1609507999430101,5599400137,0.813984,-0.189344,0.548512,-1.26875,-1.1375,1.33,-6.488,28.648,9.008,concentric,4,7.0,139629.0,364530.0,235914.0,354533.0,245633.0
2026-04-14 18:15:05.816572,841628,1609507999439028,5599408841,0.813984,-0.189344,0.548512,-2.94,-0.1225,0.8225,-6.488,28.648,9.008,concentric,4,7.0,139629.0,364530.0,235914.0,354533.0,245633.0
2026-04-14 18:15:05.826615,841629,1609507999447990,5599417523,0.813984,-0.189344,0.548512,-3.325,1.365,1.015,-6.488,28.648,9.008,concentric,4,7.0,139629.0,364530.0,235914.0,354533.0,245633.0
2026-04-14 18:15:05.839085,841630,1609507999462485,5599432509,0.821792,-0.197152,0.581696,-2.275,1.68,0.4375,-6.296001,28.424002,13.056001,concentric,4,7.0,139629.0,364530.0,235914.0,354533.0,245633.0
2026-04-14 18:15:05.849175,841631,1609507999471425,5599441257,0.772992,-0.197152,0.349408,-1.04125,1.60125,-0.00875,-7.376,29.12,12.912001,concentric,4,7.0,139629.0,364530.0,235914.0,354533.0,245633.0
2026-04-14 18:15:05.883005,841642,1609507999486117,5599456346,0.772992,-0.197152,0.349408,0.67375,2.05625,-0.3675,-7.376,29.12,12.912001,concentric,4,7.0,139412.0,364562.0,235613.0,354578.0,245262.0
2026-04-14 18:15:05.885517,841643,1609507999495150,5599465100,0.726144,-0.17568,0.42944,0.25375,1.1025,-1.26875,-7.136,29.216002,12.864,concentric,4,7.0,139412.0,364562.0,235613.0,354578.0,245262.0
2026-04-14 18:15:05.887828,841644,1609507999509852,5599480094,0.823744,-0.187392,0.521184,-0.455,0.4375,-1.46125,-7.352,29.032001,12.424001,concentric,4,7.0,139412.0,364562.0,235613.0,354578.0,245262.0
2026-04-14 18:15:05.896768,841645,1609507999518875,5599488804,0.823744,-0.187392,0.521184,-0.48125,0.245,-2.1,-7.352,29.032001,12.424001,concentric,4,7.0,139412.0,364562.0,235613.0,354578.0,245262.0
2026-04-14 18:15:05.905368,841646,1609507999527861,5599497488,0.823744,-0.187392,0.521184,-1.04125,0.30625,-3.36,-7.352,29.032001,12.424001,concentric,4,7.0,139412.0,364562.0,235613.0,354578.0,245262.0
2026-04-14 18:15:05.919610,841647,1609507999542332,5599512555,0.767136,-0.216672,0.337696,-2.0475,-0.1925,-3.3425,-6.432,28.768002,10.328,concentric,4,7.0,139412.0,364562.0,235613.0,354578.0,245262.0
2026-04-14 18:15:05.929879,841648,1609507999551263,5599521272,0.815936,-0.21472,0.511424,-0.98875,-0.51625,-3.64875,-6.528,28.736002,11.944,concentric,4,7.0,139412.0,364562.0,235613.0,354578.0,245262.0
2026-04-14 18:15:05.941914,841649,1609507999565750,5599534124,0.815936,-0.21472,0.511424,0.55125,-0.735,-3.94625,-6.528,28.736002,11.944,concentric,4,7.0,139412.0,364562.0,235613.0,354578.0,245262.0
2026-04-14 18:15:05.953268,841650,1609507999575214,5599544915,0.71248,-0.134688,0.40016,1.75875,-1.40875,-4.45375,-7.376,29.096,11.888001,concentric,4,7.0,139412.0,364562.0,235613.0,354578.0,245262.0
2026-04-14 18:15:05.982952,841661,1609507999584354,5599553682,0.71248,-0.134688,0.40016,3.82375,-1.05875,-5.6175,-7.376,29.096,11.888001,concentric,4,7.0,142449.0,365596.0,239312.0,355399.0,248705.0
2026-04-14 18:15:05.985800,841662,1609507999599080,5599568688,0.704672,-0.148352,0.437248,2.52875,0.07,-7.9275,-8.136001,29.736002,13.136001,concentric,4,7.0,142449.0,365596.0,239312.0,355399.0,248705.0
2026-04-14 18:15:05.987826,841663,1609507999608183,5599577454,0.704672,-0.148352,0.437248,-0.44625,0.9975,-8.96875,-8.136001,29.736002,13.136001,concentric,4,7.0,142449.0,365596.0,239312.0,355399.0,248705.0
2026-04-14 18:15:06.000835,841664,1609507999622662,5599592364,0.798368,-0.183488,0.503616,-0.93625,0.91875,-9.1175,-7.688,29.000002,13.416,concentric,4,7.0,142449.0,365596.0,239312.0,355399.0,248705.0
2026-04-14 18:15:06.009124,841665,1609507999631601,5599601066,0.675392,-0.134688,0.456768,-1.015,0.23625,-10.71875,-7.712,28.840002,12.976001,concentric,4,7.0,142449.0,365596.0,239312.0,355399.0,248705.0
2026-04-14 18:15:06.018467,841666,1609507999640548,5599609753,0.675392,-0.134688,0.456768,-3.2025,-0.53375,-11.7425,-7.712,28.840002,12.976001,concentric,4,7.0,142449.0,365596.0,239312.0,355399.0,248705.0
2026-04-14 18:15:06.044986,841667,1609507999655121,5599624717,0.669536,-0.154208,0.49776,-6.895,-0.175,-11.8825,-7.024,28.952002,12.736001,concentric,4,7.0,142449.0,365596.0,239312.0,355399.0,248705.0
2026-04-14 18:15:06.047067,841668,1609507999664062,5599633422,0.669536,-0.154208,0.49776,-5.425,1.47,-12.04875,-7.024,28.952002,12.736001,concentric,4,7.0,142449.0,365596.0,239312.0,355399.0,248705.0
2026-04-14 18:15:06.074616,841669,1609507999678528,5599648306,0.706624,-0.203008,0.339648,-1.12,2.56375,-13.1425,-7.824,29.136002,12.984,concentric,4,7.0,142449.0,365596.0,239312.0,355399.0,248705.0
2026-04-14 18:15:06.107575,841680,1609507999687591,5599657385,0.706624,-0.203008,0.339648,2.4675,3.64,-13.15125,-7.824,29.136002,12.984,concentric,4,7.0,141977.0,365448.0,238834.0,355477.0,248259.0
2026-04-14 18:15:06.109120,841681,1609507999702066,5599672374,0.650016,-0.13664,0.425536,4.27,4.47125,-13.09875,-7.856,29.152002,12.824,concentric,4,7.0,141977.0,365448.0,238834.0,355477.0,248259.0
2026-04-14 18:15:06.111538,841682,1609507999710956,5599681128,0.716384,-0.189344,0.398208,1.70625,4.2875,-13.53625,-7.856,28.872002,12.616,concentric,4,7.0,141977.0,365448.0,238834.0,355477.0,248259.0
2026-04-14 18:15:06.117025,841683,1609507999720046,5599689821,0.716384,-0.189344,0.398208,-0.525,4.82125,-13.30875,-7.896,28.872002,12.616,concentric,4,7.0,141977.0,365448.0,238834.0,355477.0,248259.0
2026-04-14 18:15:06.117121,841684,1609507999734728,5599704839,0.62464,-0.130784,0.47824,-0.95375,5.705,-13.886251,-8.08,28.856,13.6,concentric,4,7.0,141977.0,365448.0,238834.0,355477.0,248259.0
2026-04-14 18:15:06.125836,841685,1609507999743677,5599713581,0.62464,-0.130784,0.47824,0.735,6.60625,-14.95375,-8.08,28.856,13.6,concentric,4,7.0,141977.0,365448.0,238834.0,355477.0,248259.0
2026-04-14 18:15:06.137194,841686,1609507999758416,5599728516,0.661728,-0.18544,0.474336,4.795,7.84,-15.5225,-7.2,28.408,11.992001,concentric,4,7.0,141977.0,365448.0,238834.0,355477.0,248259.0
2026-04-14 18:15:06.144573,841687,1609507999767352,5599737246,0.661728,-0.18544,0.474336,8.70625,8.19,-15.155,-7.2,28.408,11.992001,concentric,4,7.0,141977.0,365448.0,238834.0,355477.0,248259.0
2026-04-14 18:15:06.153919,841688,1609507999776297,5599745951,0.603168,-0.179584,0.261568,13.09875,7.1575,-14.35,-7.584001,28.320002,12.544001,concentric,4,7.0,141977.0,365448.0,238834.0,355477.0,248259.0
2026-04-14 18:15:06.185909,841699,1609507999790904,5599760915,0.603168,-0.179584,0.30256,17.64875,5.83625,-14.4375,-7.584001,28.320002,12.544001,concentric,4,7.0,151986.0,370729.0,251087.0,360385.0,259933.0
2026-04-14 18:15:06.187834,841700,1609507999799917,5599769729,0.5856,-0.111264,0.30256,18.7425,4.82125,-15.33,-7.208,27.808,11.328,concentric,4,7.0,151986.0,370729.0,251087.0,360385.0,259933.0
2026-04-14 18:15:06.192089,841701,1609507999814457,5599784724,0.579744,-0.101504,0.298656,19.20625,5.06625,-16.30125,-7.736001,27.776001,12.992001,concentric,4,7.0,151986.0,370729.0,251087.0,360385.0,259933.0
2026-04-14 18:15:06.202120,841702,1609507999823399,5599793439,0.579744,-0.101504,0.298656,21.0875,6.25625,-17.70125,-7.736001,27.776001,12.992001,concentric,4,7.0,151986.0,370729.0,251087.0,360385.0,259933.0
2026-04-14 18:15:06.217774,841703,1609507999838000,5599808315,0.591456,-0.10736,0.290848,22.46125,7.48125,-18.9175,-8.744,28.000002,14.208001,concentric,4,7.0,151986.0,370729.0,251087.0,360385.0,259933.0
2026-04-14 18:15:06.224405,841704,1609507999847104,5599817041,0.591456,-0.10736,0.290848,22.015,9.49375,-20.1075,-8.744,28.000002,14.208001,concentric,4,7.0,151986.0,370729.0,251087.0,360385.0,259933.0
2026-04-14 18:15:06.233188,841705,1609507999856050,5599825751,0.607072,-0.085888,0.445056,19.59125,12.04875,-18.803751,-8.016001,27.424002,13.608001,concentric,4,7.0,151986.0,370729.0,251087.0,360385.0,259933.0
2026-04-14 18:15:06.249851,841706,1609507999870534,5599840638,0.607072,-0.085888,0.445056,17.3775,13.23875,-18.0425,-8.016001,27.424002,13.608001,concentric,4,7.0,151986.0,370729.0,251087.0,360385.0,259933.0
2026-04-14 18:15:06.257887,841707,1609507999879527,5599849323,0.638304,-0.056608,0.515328,17.2025,12.425,-18.82125,-8.0,27.384,14.704,concentric,4,7.0,151986.0,370729.0,251087.0,360385.0,259933.0
2026-04-14 18:15:06.285793,841718,1609507999894190,5599864292,0.593408,0.017568,0.525088,17.01,10.91125,-20.055,-9.320001,27.52,15.200001,concentric,4,7.0,155918.0,372931.0,255090.0,362339.0,263400.0
2026-04-14 18:15:06.287727,841719,1609507999903154,5599872992,0.593408,0.017568,0.525088,17.6925,9.8525,-20.48375,-9.320001,27.52,15.200001,concentric,4,7.0,155918.0,372931.0,255090.0,362339.0,263400.0
2026-04-14 18:15:06.290861,841720,1609507999912114,5599881916,0.54656,-0.080032,0.28304,16.56375,10.3775,-20.553751,-9.320001,27.52,15.328001,concentric,4,7.0,155918.0,372931.0,255090.0,362339.0,263400.0
2026-04-14 18:15:06.304383,841721,1609507999926706,5599896855,0.552416,-0.080032,0.28304,12.3025,10.823751,-18.6025,-9.360001,27.272001,15.328001,concentric,4,7.0,155918.0,372931.0,255090.0,362339.0,263400.0
2026-04-14 18:15:06.314430,841722,1609507999935826,5599905721,0.675392,-0.124928,0.337696,7.4725,9.7825,-16.51125,-8.776,27.304,15.160001,concentric,4,7.0,155918.0,372931.0,255090.0,362339.0,263400.0
2026-04-14 18:15:06.357105,841723,1609507999950348,5599920619,0.675392,-0.124928,0.337696,5.41625,6.44,-15.60125,-8.776,27.304,15.160001,concentric,4,7.0,155918.0,372931.0,255090.0,362339.0,263400.0
2026-04-14 18:15:06.359595,841724,1609507999959304,5599929333,0.54656,0.005856,0.359168,6.20375,2.80875,-15.6625,-9.344001,27.408,13.352,concentric,4,7.0,155918.0,372931.0,255090.0,362339.0,263400.0
2026-04-14 18:15:06.362077,841725,1609507999973792,5599942196,0.60512,0.00976,0.544608,9.26625,1.855,-15.95125,-8.632,26.504002,14.072001,concentric,4,7.0,155918.0,372931.0,255090.0,362339.0,263400.0
2026-04-14 18:15:06.431940,841736,1609507999983080,5599953108,0.60512,0.00976,0.544608,9.77375,4.22625,-17.255,-8.632,26.504002,14.072001,concentric,4,7.0,154879.0,370792.0,253843.0,360491.0,262437.0
2026-04-14 18:15:06.434382,841737,1609507999992120,5599961840,0.60512,0.00976,0.544608,3.91125,8.26,-17.43875,-8.632,26.504002,14.072001,concentric,4,7.0,154879.0,370792.0,253843.0,360491.0,262437.0
2026-04-14 18:15:06.441623,841738,1609508000006632,5599976840,0.646112,-0.105408,0.464576,-1.1375,11.8825,-14.02625,-8.68,26.6,13.744,concentric,4,7.0,154879.0,370792.0,253843.0,360491.0,262437.0
2026-04-14 18:15:06.444460,841739,1609508000015583,5599985547,0.640256,-0.103456,0.46848,-0.79625,11.36625,-10.22,-9.04,26.920002,14.72,concentric,4,7.0,154879.0,370792.0,253843.0,360491.0,262437.0
2026-04-14 18:15:06.446868,841740,1609508000030138,5600000477,0.640256,-0.103456,0.46848,2.75625,8.4875,-7.245,-9.04,26.920002,14.72,concentric,4,7.0,154879.0,370792.0,253843.0,360491.0,262437.0
2026-04-14 18:15:06.449397,841741,1609508000039060,5600009184,0.612928,0.011712,0.499712,6.25625,7.04375,-5.27625,-9.024,26.936,15.704,concentric,4,7.0,154879.0,370792.0,253843.0,360491.0,262437.0
2026-04-14 18:15:06.451995,841742,1609508000047997,5600017863,0.612928,0.011712,0.499712,8.636251,7.945,-5.5825,-9.024,26.936,15.704,concentric,4,7.0,154879.0,370792.0,253843.0,360491.0,262437.0
2026-04-14 18:15:06.454090,841743,1609508000062537,5600032768,0.638304,0.001952,0.486048,6.195,10.3075,-7.48125,-10.024,27.008001,16.048,concentric,4,7.0,154879.0,370792.0,253843.0,360491.0,262437.0
2026-04-14 18:15:06.457012,841744,1609508000071534,5600041478,0.638304,0.001952,0.486048,-0.7175,12.495,-6.53625,-10.024,27.008001,16.048,concentric,4,7.0,154879.0,370792.0,253843.0,360491.0,262437.0
2026-04-14 18:15:06.489109,841755,1609508000086456,5600056485,0.704672,-0.103456,0.222528,-1.93375,12.52125,-3.2025,-9.608001,27.28,15.544001,concentric,4,7.0,163856.0,372264.0,264898.0,361700.0,272672.0
2026-04-14 18:15:06.490144,841756,1609508000095485,5600065213,0.610976,-0.072224,0.357216,6.8075,9.16125,1.02375,-8.56,26.656002,14.736001,concentric,4,7.0,163856.0,372264.0,264898.0,361700.0,272672.0
2026-04-14 18:15:06.492766,841757,1609508000104425,5600073961,0.610976,-0.072224,0.357216,9.1,6.4925,3.57,-8.56,26.656002,14.736001,concentric,4,7.0,163856.0,372264.0,264898.0,361700.0,272672.0
2026-04-14 18:15:06.498257,841758,1609508000119041,5600088870,0.579744,0.03904,0.441152,5.52125,8.5575,3.885,-8.368,26.624,15.240001,concentric,4,7.0,163856.0,372264.0,264898.0,361700.0,272672.0
2026-04-14 18:15:06.505770,841759,1609508000128123,5600097583,0.579744,0.03904,0.441152,2.3275,13.48375,1.6275,-8.368,26.624,15.240001,concentric,4,7.0,163856.0,372264.0,264898.0,361700.0,272672.0
2026-04-14 18:15:06.521750,841760,1609508000142630,5600112639,0.56608,0.060512,0.378688,-0.76125,18.59375,-0.86625,-8.192,26.768002,14.664001,concentric,4,7.0,163856.0,372264.0,264898.0,361700.0,272672.0
2026-04-14 18:15:06.530815,841761,1609508000151571,5600121329,0.56608,0.060512,0.378688,-1.6625,19.9325,-2.59875,-8.192,26.768002,14.664001,concentric,4,7.0,163856.0,372264.0,264898.0,361700.0,272672.0
2026-04-14 18:15:06.544622,841762,1609508000166123,5600136279,0.632448,-0.076128,0.40992,-2.73875,15.25125,-1.09375,-9.264001,26.640001,15.936001,concentric,4,7.0,163856.0,372264.0,264898.0,361700.0,272672.0
2026-04-14 18:15:06.553416,841763,1609508000175088,5600144968,0.708576,-0.07808,0.49776,-3.42125,9.35375,2.5025,-8.952001,27.152,16.136002,concentric,4,7.0,163856.0,372264.0,264898.0,361700.0,272672.0
2026-04-14 18:15:06.563028,841764,1609508000184035,5600153676,0.708576,-0.07808,0.49776,-4.62875,7.77,4.0775,-8.952001,27.152,16.136002,concentric,4,7.0,163856.0,372264.0,264898.0,361700.0,272672.0
2026-04-14 18:15:06.590098,841775,1609508000198662,5600168660,0.737856,0.052704,0.558272,-3.185,10.03625,2.66,-8.016001,26.752,15.368001,concentric,4,7.0,171558.0,373984.0,274053.0,363172.0,280374.0
2026-04-14 18:15:06.592741,841776,1609508000207648,5600177377,0.737856,0.052704,0.558272,-1.155,12.6,-0.8925,-8.016001,26.752,15.368001,concentric,4,7.0,171558.0,373984.0,274053.0,363172.0,280374.0
2026-04-14 18:15:06.600308,841777,1609508000222177,5600192280,0.70272,0.007808,0.45872,2.00375,14.46375,-4.50625,-8.160001,27.12,16.248001,concentric,4,7.0,171558.0,373984.0,274053.0,363172.0,280374.0
2026-04-14 18:15:06.611984,841778,1609508000231200,5600200985,0.70272,0.007808,0.45872,7.09625,11.87375,-7.315,-8.160001,27.12,16.248001,concentric,4,7.0,171558.0,373984.0,274053.0,363172.0,280374.0
2026-04-14 18:15:06.623365,841779,1609508000245741,5600215932,0.798368,-0.072224,0.511424,10.167501,10.36875,-8.61,-8.72,27.352001,16.16,concentric,4,7.0,171558.0,373984.0,274053.0,363172.0,280374.0
2026-04-14 18:15:06.634647,841780,1609508000254671,5600224631,0.812032,-0.021472,0.577792,7.39375,11.2,-9.0825,-8.72,27.056002,15.768001,concentric,4,7.0,171558.0,373984.0,274053.0,363172.0,280374.0
2026-04-14 18:15:06.642092,841781,1609508000263603,5600233332,0.812032,-0.021472,0.577792,1.085,11.45375,-9.8875,-8.784,27.056002,15.768001,concentric,4,7.0,171558.0,373984.0,274053.0,363172.0,280374.0
2026-04-14 18:15:06.656665,841782,1609508000278118,5600248208,0.823744,-0.011712,0.404064,-0.525,10.29,-11.8825,-8.544001,26.872002,15.808001,eccentric,4,7.0,171558.0,373984.0,274053.0,363172.0,280374.0
2026-04-14 18:15:06.687718,841793,1609508000287629,5600257256,0.823744,-0.011712,0.404064,3.82375,4.1475,-12.495,-8.544001,26.872002,15.808001,eccentric,4,7.0,173855.0,375733.0,276603.0,364672.0,282498.0
2026-04-14 18:15:06.701533,841794,1609508000302270,5600272211,0.862784,-0.031232,0.737856,11.0075,-3.22,-10.24625,-8.272,26.632002,16.208,eccentric,4,7.0,173855.0,375733.0,276603.0,364672.0,282498.0
2026-04-14 18:15:06.701688,841795,1609508000311214,5600280938,0.862784,-0.031232,0.737856,11.7075,-5.1975,-8.54875,-8.272,26.632002,16.208,eccentric,4,7.0,173855.0,375733.0,276603.0,364672.0,282498.0
2026-04-14 18:15:06.701746,841796,1609508000320202,5600289688,0.876448,0.015616,0.69296,6.79875,-0.0875,-8.1725,-8.56,27.000002,15.856001,eccentric,4,7.0,173855.0,375733.0,276603.0,364672.0,282498.0
2026-04-14 18:15:06.713160,841797,1609508000334685,5600304567,0.876448,0.03904,0.67344,4.9,6.85125,-10.0625,-8.56,27.000002,15.856001,eccentric,4,7.0,173855.0,375733.0,276603.0,364672.0,282498.0
2026-04-14 18:15:06.721487,841798,1609508000343622,5600313476,0.913536,0.03904,0.67344,6.86,10.5,-13.8075,-9.408,26.632002,14.416,eccentric,4,7.0,173855.0,375733.0,276603.0,364672.0,282498.0
2026-04-14 18:15:06.736336,841799,1609508000358152,5600328440,0.802272,-0.007808,0.587552,12.4775,9.47625,-17.07125,-8.536,26.504002,16.0,eccentric,4,7.0,173855.0,375733.0,276603.0,364672.0,282498.0
2026-04-14 18:15:06.743846,841800,1609508000367143,5600337259,0.802272,-0.007808,0.587552,14.91875,0.35,-15.49625,-8.536,26.504002,16.0,eccentric,4,7.0,173855.0,375733.0,276603.0,364672.0,282498.0
2026-04-14 18:15:06.778313,841801,1609508000381638,5600350145,0.813984,0.00976,0.591456,10.5525,-3.605,-12.11,-8.952001,26.736002,16.152,eccentric,4,7.0,173855.0,375733.0,276603.0,364672.0,282498.0
2026-04-14 18:15:06.823374,841812,1609508000391152,5600360925,0.813984,0.00976,0.591456,5.27625,-1.05,-8.96875,-8.952001,26.736002,16.152,eccentric,4,7.0,167020.0,374003.0,267607.0,363212.0,274417.0
2026-04-14 18:15:06.825889,841813,1609508000400111,5600369642,0.812032,0.085888,0.81984,1.51375,2.8875,-7.735,-9.904,26.536001,17.632,eccentric,4,7.0,167020.0,374003.0,267607.0,363212.0,274417.0
2026-04-14 18:15:06.827868,841814,1609508000414606,5600384556,0.812032,0.085888,0.81984,1.67125,6.83375,-8.19,-9.904,26.536001,17.632,eccentric,4,7.0,167020.0,374003.0,267607.0,363212.0,274417.0
2026-04-14 18:15:06.830273,841815,1609508000423527,5600393242,0.817888,0.0488,0.519232,5.41625,6.7025,-9.730001,-9.712001,26.736002,16.152,eccentric,4,7.0,167020.0,374003.0,267607.0,363212.0,274417.0
2026-04-14 18:15:06.833342,841816,1609508000438281,5600408223,0.817888,0.121024,0.632448,11.480001,2.40625,-11.1825,-9.632001,26.680002,16.688002,eccentric,4,7.0,167020.0,374003.0,267607.0,363212.0,274417.0
2026-04-14 18:15:06.835889,841817,1609508000447251,5600417008,0.817888,0.121024,0.632448,12.90625,0.9275,-12.915,-9.632001,26.680002,16.688002,eccentric,4,7.0,167020.0,374003.0,267607.0,363212.0,274417.0
2026-04-14 18:15:06.837997,841818,1609508000456201,5600425733,0.874496,0.044896,0.774944,5.24125,2.17875,-12.66125,-9.04,26.264002,15.488001,eccentric,4,7.0,167020.0,374003.0,267607.0,363212.0,274417.0
2026-04-14 18:15:06.849640,841819,1609508000470737,5600440639,0.874496,0.044896,0.774944,-3.815,4.0425,-11.41,-9.04,26.264002,15.488001,eccentric,4,7.0,167020.0,374003.0,267607.0,363212.0,274417.0
2026-04-14 18:15:06.857133,841820,1609508000479754,5600449362,0.913536,0.027328,0.691008,-5.34625,5.11875,-11.62875,-9.376,26.12,16.936,eccentric,4,7.0,167020.0,374003.0,267607.0,363212.0,274417.0
2026-04-14 18:15:06.889070,841831,1609508000494425,5600464534,0.913536,0.027328,0.691008,1.1725,2.415,-10.99875,-9.376,26.12,16.936,eccentric,4,7.0,166078.0,373014.0,266861.0,362681.0,274192.0
2026-04-14 18:15:06.891990,841832,1609508000503382,5600473291,0.894016,0.070272,0.890112,10.2025,-1.65375,-10.66625,-10.168,26.640001,19.0,eccentric,4,7.0,166078.0,373014.0,266861.0,362681.0,274192.0
2026-04-14 18:15:06.894472,841833,1609508000512412,5600482073,0.894016,0.070272,0.890112,8.96,-2.345,-8.61875,-10.168,26.640001,19.0,eccentric,4,7.0,166078.0,373014.0,266861.0,362681.0,274192.0
2026-04-14 18:15:06.905288,841834,1609508000526919,5600497029,0.954528,0.093696,0.870592,4.06,1.12875,-8.015,-10.768001,26.448002,19.216002,eccentric,4,7.0,166078.0,373014.0,266861.0,362681.0,274192.0
2026-04-14 18:15:06.914601,841835,1609508000535847,5600505722,0.954528,0.093696,0.831552,-4.1475,4.34,-7.0175,-10.768001,26.448002,19.216002,eccentric,4,7.0,166078.0,373014.0,266861.0,362681.0,274192.0
2026-04-14 18:15:06.929310,841836,1609508000550343,5600520649,0.923296,0.052704,0.831552,-5.81875,6.39625,-7.16625,-9.6,25.968,16.344,eccentric,4,7.0,166078.0,373014.0,266861.0,362681.0,274192.0
2026-04-14 18:15:06.936841,841837,1609508000559269,5600529337,0.96624,0.0488,0.745664,-0.175,6.46625,-8.4,-9.488001,25.960001,17.112001,eccentric,4,7.0,166078.0,373014.0,266861.0,362681.0,274192.0
2026-04-14 18:15:06.952980,841838,1609508000573922,5600544252,0.96624,0.0488,0.745664,5.565,2.9225,-8.19,-9.488001,25.960001,17.112001,eccentric,4,7.0,166078.0,373014.0,266861.0,362681.0,274192.0
2026-04-14 18:15:06.963011,841839,1609508000583263,5600552957,1.040416,0.011712,0.827648,3.92875,-1.75875,-4.305,-9.472,25.960001,16.960001,eccentric,4,7.0,166078.0,373014.0,266861.0,362681.0,274192.0
2026-04-14 18:15:07.015502,841850,1609508000592426,5600561896,1.040416,0.011712,0.827648,-1.855,-2.24875,1.085,-9.472,25.960001,16.960001,eccentric,4,7.0,177199.0,375970.0,280463.0,365224.0,285716.0
2026-04-14 18:15:07.017981,841851,1609508000607038,5600576865,0.98576,0.076128,0.804224,-8.3825,1.70625,2.12625,-9.552,26.560001,18.104,eccentric,4,7.0,177199.0,375970.0,280463.0,365224.0,285716.0
2026-04-14 18:15:07.020563,841852,1609508000615979,5600585553,0.98576,0.076128,0.804224,-12.6525,5.7225,2.73875,-9.552,26.560001,18.104,eccentric,4,7.0,177199.0,375970.0,280463.0,365224.0,285716.0
2026-04-14 18:15:07.022908,841853,1609508000630687,5600600663,1.030656,0.01952,0.774944,-12.11,4.7075,1.7325,-10.144,26.704,18.728,eccentric,4,7.0,177199.0,375970.0,280463.0,365224.0,285716.0
2026-04-14 18:15:07.025510,841854,1609508000639650,5600609380,1.052128,0.03904,0.835456,-4.8475,-0.6125,-0.245,-10.336,26.568,17.888,eccentric,4,7.0,177199.0,375970.0,280463.0,365224.0,285716.0
2026-04-14 18:15:07.027940,841855,1609508000648733,5600618331,1.052128,0.03904,0.835456,0.98875,-8.26,-2.00375,-10.336,26.568,17.888,eccentric,4,7.0,177199.0,375970.0,280463.0,365224.0,285716.0
2026-04-14 18:15:07.041746,841856,1609508000663376,5600633256,1.003328,0.076128,0.694912,1.5925,-10.3775,-3.40375,-10.384001,26.2,17.832,eccentric,4,7.0,177199.0,375970.0,280463.0,365224.0,285716.0
2026-04-14 18:15:07.051815,841857,1609508000672318,5600641938,1.003328,0.076128,0.694912,-2.345,-7.735,-5.78375,-10.384001,26.2,17.832,eccentric,4,7.0,177199.0,375970.0,280463.0,365224.0,285716.0
2026-04-14 18:15:07.090379,841868,1609508000686824,5600657164,1.013088,-0.001952,0.950624,-6.55375,-5.06625,-7.42875,-9.664001,26.136002,17.344002,eccentric,4,7.0,174597.0,376391.0,277071.0,365571.0,282742.0
2026-04-14 18:15:07.092858,841869,1609508000695846,5600665886,1.013088,-0.001952,0.950624,-7.07875,-4.1825,-7.95375,-9.664001,26.136002,17.344002,eccentric,4,7.0,174597.0,376391.0,277071.0,365571.0,282742.0
2026-04-14 18:15:07.095498,841870,1609508000704825,5600674812,1.097024,-0.025376,0.81984,-1.42625,-4.71625,-8.14625,-11.440001,26.504002,18.712002,eccentric,4,7.0,174597.0,376391.0,277071.0,365571.0,282742.0
2026-04-14 18:15:07.097999,841871,1609508000719638,5600689722,1.128256,0.013664,0.864736,2.6075,-6.51875,-6.92125,-11.160001,26.776001,19.048,eccentric,4,7.0,174597.0,376391.0,277071.0,365571.0,282742.0
2026-04-14 18:15:07.105433,841872,1609508000728709,5600698551,1.128256,0.013664,0.864736,2.28375,-4.97,-5.78375,-11.160001,26.776001,19.048,eccentric,4,7.0,174597.0,376391.0,277071.0,365571.0,282742.0
2026-04-14 18:15:07.144264,841873,1609508000743248,5600713465,1.040416,0.060512,0.954528,-1.35625,-1.015,-6.72,-9.64,26.128002,16.808,eccentric,4,7.0,174597.0,376391.0,277071.0,365571.0,282742.0
2026-04-14 18:15:07.169263,841874,1609508000752266,5600722143,1.040416,0.060512,0.954528,-4.08625,3.89375,-8.12,-9.64,26.128002,16.808,eccentric,4,7.0,174597.0,376391.0,277071.0,365571.0,282742.0
2026-04-14 18:15:07.177075,841875,1609508000761337,5600730840,1.075552,-0.033184,0.86864,-4.68125,7.35,-9.72125,-9.976001,26.056002,16.976002,eccentric,4,7.0,174597.0,376391.0,277071.0,365571.0,282742.0
2026-04-14 18:15:07.179591,841876,1609508000775898,5600745721,1.075552,-0.033184,0.86864,-3.1325,6.5625,-10.29875,-9.976001,26.056002,16.976002,eccentric,4,7.0,174597.0,376391.0,277071.0,365571.0,282742.0
2026-04-14 18:15:07.181574,841877,1609508000784831,5600754454,1.138016,-0.056608,0.83936,3.5,-0.0175,-6.90375,-9.904,25.992,17.448,eccentric,4,7.0,174597.0,376391.0,277071.0,365571.0,282742.0
2026-04-14 18:15:07.209607,841888,1609508000799770,5600769472,1.067744,0.046848,0.772992,7.7,-5.4425,-2.70375,-10.328,26.560001,18.984001,eccentric,4,7.0,181596.0,378127.0,285859.0,366874.0,290218.0
2026-04-14 18:15:07.211626,841889,1609508000808828,5600778170,1.067744,0.046848,0.772992,4.26125,-1.715,1.8025,-10.328,26.560001,18.984001,eccentric,4,7.0,181596.0,378127.0,285859.0,366874.0,290218.0
2026-04-14 18:15:07.214268,841890,1609508000817832,5600786937,1.067744,-0.031232,0.732,-4.01625,8.015,5.22375,-10.328,26.560001,18.984001,eccentric,4,7.0,181596.0,378127.0,285859.0,366874.0,290218.0
2026-04-14 18:15:07.217102,841891,1609508000832388,5600801882,0.929152,-0.027328,0.732,-8.49625,17.2025,7.9275,-9.984,26.44,17.648,eccentric,4,7.0,181596.0,378127.0,285859.0,366874.0,290218.0
2026-04-14 18:15:07.219591,841892,1609508000841411,5600810595,0.976,0.007808,0.706624,-6.5625,22.4875,9.80875,-9.944,26.792002,17.792002,eccentric,4,7.0,181596.0,378127.0,285859.0,366874.0,290218.0
2026-04-14 18:15:07.235825,841893,1609508000855901,5600825479,0.976,0.007808,0.706624,-2.35375,23.00375,10.7975,-9.944,26.792002,17.792002,eccentric,4,7.0,181596.0,378127.0,285859.0,366874.0,290218.0
2026-04-14 18:15:07.242098,841894,1609508000864862,5600834203,0.915488,-0.007808,0.743712,-1.61,18.8125,12.97625,-8.752001,26.12,16.664001,eccentric,4,7.0,181596.0,378127.0,285859.0,366874.0,290218.0
2026-04-14 18:15:07.258468,841895,1609508000879453,5600849115,0.847168,0.025376,0.724192,-4.10375,15.1725,15.75,-8.488001,26.752,17.904001,eccentric,4,7.0,181596.0,378127.0,285859.0,366874.0,290218.0
