pc_time,serial_num,sensor_ts,host_ts,ax,ay,az,gx,gy,gz,mx,my,mz,phase,rpe,weight_kg,ppg_a,ppg_b,ppg_c,ppg_d,ppg_e
2026-04-14 18:14:49.072692,838474,1609507982673225,5582642692,0.759328,0.113216,0.620736,-5.53,-11.15625,17.2375,-11.904,23.504002,17.960001,concentric,4,7.0,193534.0,363501.0,296753.0,349385.0,296997.0
2026-04-14 18:14:49.105050,838485,1609507982688250,5582657593,0.696864,0.130784,0.462624,-5.18,-10.98125,17.19375,-11.616,23.664001,17.592001,concentric,4,7.0,192894.0,364194.0,296002.0,349950.0,296960.0
2026-04-14 18:14:49.107723,838486,1609507982697246,5582666354,0.696864,0.130784,0.462624,-3.43,-10.64,17.15,-11.616,23.664001,17.592001,concentric,4,7.0,192894.0,364194.0,296002.0,349950.0,296960.0
2026-04-14 18:14:49.110263,838487,1609507982706240,5582675092,0.813984,0.044896,0.499712,-1.8025,-10.2725,17.21125,-11.688001,23.664001,17.92,concentric,4,7.0,192894.0,364194.0,296002.0,349950.0,296960.0
2026-04-14 18:14:49.135347,838488,1609507982720851,5582689996,0.718336,0.076128,0.343552,-2.24,-10.73625,17.99875,-11.200001,23.656002,17.304,concentric,4,7.0,192894.0,364194.0,296002.0,349950.0,296960.0
2026-04-14 18:14:49.160422,838489,1609507982729764,5582698740,0.718336,0.076128,0.343552,-2.7475,-10.4825,17.815,-11.200001,23.656002,17.304,concentric,4,7.0,192894.0,364194.0,296002.0,349950.0,296960.0
2026-04-14 18:14:49.162909,838490,1609507982744449,5582713734,0.714432,0.113216,0.593408,-4.61125,-9.49375,17.272501,-11.352,23.656002,17.696001,concentric,4,7.0,192894.0,364194.0,296002.0,349950.0,296960.0
2026-04-14 18:14:49.165333,838491,1609507982753373,5582722482,0.714432,0.113216,0.593408,-7.28,-8.40875,16.9575,-11.352,23.656002,17.696001,concentric,4,7.0,192894.0,364194.0,296002.0,349950.0,296960.0
2026-04-14 18:14:49.167909,838492,1609507982762277,5582731163,0.749568,0.027328,0.388448,-8.68,-7.49875,16.9225,-11.200001,23.784,17.288,concentric,4,7.0,192894.0,364194.0,296002.0,349950.0,296960.0
2026-04-14 18:14:49.170363,838493,1609507982776826,5582746108,0.749568,0.027328,0.388448,-8.42625,-7.93625,17.29,-11.200001,23.784,17.288,concentric,4,7.0,192894.0,364194.0,296002.0,349950.0,296960.0
2026-04-14 18:14:49.172757,838494,1609507982785760,5582754867,0.704672,0.091744,0.5368,-7.7,-9.3275,18.06875,-11.096001,24.144001,17.536001,concentric,4,7.0,192894.0,364194.0,296002.0,349950.0,296960.0
2026-04-14 18:14:49.200091,838505,1609507982800625,5582769797,0.710528,0.035136,0.38064,-6.195,-9.19625,17.4475,-10.864,24.176,18.112001,concentric,4,7.0,190549.0,364201.0,293345.0,349992.0,295337.0
2026-04-14 18:14:49.202373,838506,1609507982809719,5582778543,0.710528,0.035136,0.38064,-8.40875,-8.417501,16.42375,-10.864,24.176,18.112001,concentric,4,7.0,190549.0,364201.0,293345.0,349992.0,295337.0
2026-04-14 18:14:49.205249,838507,1609507982819185,5582789365,0.710528,0.035136,0.286944,-12.94125,-7.42,15.408751,-10.864,24.176,18.112001,concentric,4,7.0,190549.0,364201.0,293345.0,349992.0,295337.0
2026-04-14 18:14:49.211510,838508,1609507982833681,5582802300,0.60512,0.046848,0.28304,-15.05,-6.74625,14.1225,-11.544001,24.664001,20.048,concentric,4,7.0,190549.0,364201.0,293345.0,349992.0,295337.0
2026-04-14 18:14:49.222832,838509,1609507982842885,5582813053,0.626592,0.005856,0.247904,-16.24,-5.83625,13.5625,-10.72,24.376001,16.776001,concentric,4,7.0,190549.0,364201.0,293345.0,349992.0,295337.0
2026-04-14 18:14:49.233986,838510,1609507982857492,5582825947,0.626592,0.005856,0.247904,-13.965,-4.795,14.1925,-10.72,24.376001,16.776001,concentric,4,7.0,190549.0,364201.0,293345.0,349992.0,295337.0
2026-04-14 18:14:49.244204,838511,1609507982866774,5582836828,0.6344,0.054656,0.462624,-11.76875,-4.89125,15.33875,-10.232,24.408,16.752,concentric,4,7.0,190549.0,364201.0,293345.0,349992.0,295337.0
2026-04-14 18:14:49.252876,838512,1609507982875715,5582845537,0.6344,0.054656,0.462624,-14.16625,-5.43375,16.26625,-10.232,24.408,16.752,concentric,4,7.0,190549.0,364201.0,293345.0,349992.0,295337.0
2026-04-14 18:14:49.288837,838523,1609507982890347,5582860437,0.607072,0.044896,0.452864,-20.29125,-5.87125,17.12375,-10.128,24.6,17.28,concentric,4,7.0,188862.0,365190.0,291442.0,350734.0,294173.0
2026-04-14 18:14:49.291279,838524,1609507982899466,5582869269,0.607072,0.044896,0.452864,-26.62625,-6.02,16.2925,-10.128,24.6,17.28,concentric,4,7.0,188862.0,365190.0,291442.0,350734.0,294173.0
2026-04-14 18:14:49.294012,838525,1609507982914020,5582884183,0.540704,-0.007808,0.218624,-27.2475,-5.425,14.63,-9.8,24.608002,15.888001,concentric,4,7.0,188862.0,365190.0,291442.0,350734.0,294173.0
2026-04-14 18:14:49.300280,838526,1609507982922982,5582892865,0.525088,-0.025376,0.259616,-23.24,-4.4975,12.53,-9.88,24.864,16.024,concentric,4,7.0,188862.0,365190.0,291442.0,350734.0,294173.0
2026-04-14 18:14:49.307820,838527,1609507982931929,5582901594,0.525088,-0.025376,0.259616,-18.41,-2.10875,11.29625,-9.88,24.864,16.024,concentric,4,7.0,188862.0,365190.0,291442.0,350734.0,294173.0
2026-04-14 18:14:49.324229,838528,1609507982946431,5582916507,0.499712,-0.033184,0.230336,-17.3425,-0.84,11.1125,-9.448001,25.168001,15.712001,concentric,4,7.0,188862.0,365190.0,291442.0,350734.0,294173.0
2026-04-14 18:14:49.334067,838529,1609507982955414,5582925223,0.499712,-0.033184,0.230336,-19.06625,0.09625,9.68625,-9.448001,25.168001,15.712001,concentric,4,7.0,188862.0,365190.0,291442.0,350734.0,294173.0
2026-04-14 18:14:49.347918,838530,1609507982969961,5582940145,0.54656,-0.035136,0.152256,-19.3025,-0.21,7.945,-9.512,25.256,15.776001,concentric,4,7.0,188862.0,365190.0,291442.0,350734.0,294173.0
2026-04-14 18:14:49.356666,838531,1609507982978949,5582948897,0.54656,-0.035136,0.152256,-16.75625,-2.05625,7.37625,-9.512,25.256,15.776001,concentric,4,7.0,188862.0,365190.0,291442.0,350734.0,294173.0
2026-04-14 18:14:49.390263,838542,1609507982993597,5582963882,0.521184,-0.064416,0.169824,-12.5125,-4.2175,7.5075,-9.336,25.944002,15.816001,concentric,4,7.0,180461.0,365371.0,281679.0,350701.0,286629.0
2026-04-14 18:14:49.392778,838543,1609507983002568,5582972593,0.491904,-0.015616,0.210816,-8.47875,-5.50375,7.6475,-10.160001,26.128002,17.464,concentric,4,7.0,180461.0,365371.0,281679.0,350701.0,286629.0
2026-04-14 18:14:49.395289,838544,1609507983011663,5582981341,0.491904,-0.015616,0.210816,-4.34875,-5.95,6.13375,-10.160001,26.128002,17.464,concentric,4,7.0,180461.0,365371.0,281679.0,350701.0,286629.0
2026-04-14 18:14:49.403982,838545,1609507983026284,5582996287,0.52704,-0.013664,0.220576,-5.145,-4.83,3.36,-10.336,25.616001,15.424001,concentric,4,7.0,180461.0,365371.0,281679.0,350701.0,286629.0
2026-04-14 18:14:49.412651,838546,1609507983035223,5583004987,0.52704,-0.013664,0.220576,-9.6075,-3.57,2.84375,-10.336,25.616001,15.424001,concentric,4,7.0,180461.0,365371.0,281679.0,350701.0,286629.0
2026-04-14 18:14:49.429128,838547,1609507983049731,5583019859,0.632448,-0.093696,0.230336,-9.84375,-3.255,2.5375,-9.160001,25.736002,15.344001,concentric,4,7.0,180461.0,365371.0,281679.0,350701.0,286629.0
2026-04-14 18:14:49.435404,838548,1609507983058816,5583028595,0.632448,-0.093696,0.230336,-7.28875,-4.5325,2.3625,-9.160001,25.736002,15.344001,concentric,4,7.0,180461.0,365371.0,281679.0,350701.0,286629.0
2026-04-14 18:14:49.444061,838549,1609507983067884,5583037283,0.569984,-0.056608,0.226432,-3.4125,-5.7575,2.17875,-8.704,25.664001,15.304001,concentric,4,7.0,180461.0,365371.0,281679.0,350701.0,286629.0
2026-04-14 18:14:49.458990,838550,1609507983082404,5583052193,0.62464,0.0488,0.49776,-1.0325,-7.07875,0.55125,-9.200001,26.2,16.448,concentric,4,7.0,180461.0,365371.0,281679.0,350701.0,286629.0
2026-04-14 18:14:49.542681,838561,1609507983091454,5583060964,0.62464,0.0488,0.49776,-2.765,-6.9125,-1.5925,-9.200001,26.2,16.448,concentric,4,7.0,179824.0,365350.0,281429.0,350780.0,286622.0
2026-04-14 18:14:49.545696,838562,1609507983106417,5583076086,0.616832,-0.046848,0.236192,-8.16375,-6.195,-1.89875,-9.296001,25.920002,15.368001,concentric,4,7.0,179824.0,365350.0,281429.0,350780.0,286622.0
2026-04-14 18:14:49.548204,838563,1609507983115340,5583084775,0.616832,-0.046848,0.236192,-11.29625,-5.1625,-2.44125,-9.296001,25.920002,15.368001,concentric,4,7.0,179824.0,365350.0,281429.0,350780.0,286622.0
2026-04-14 18:14:49.550711,838564,1609507983124258,5583093438,0.681248,-0.066368,0.271328,-8.636251,-5.66125,-2.17,-9.160001,25.480001,15.192,concentric,4,7.0,179824.0,365350.0,281429.0,350780.0,286622.0
2026-04-14 18:14:49.556147,838565,1609507983138785,5583108421,0.681248,-0.066368,0.271328,-6.44,-7.5775,-2.31875,-9.160001,25.480001,15.192,concentric,4,7.0,179824.0,365350.0,281429.0,350780.0,286622.0
2026-04-14 18:14:49.556593,838566,1609507983147710,5583117109,0.657824,-0.02928,0.255712,-6.545,-8.89,-2.59,-9.472,26.016,15.200001,concentric,4,7.0,179824.0,365350.0,281429.0,350780.0,286622.0
2026-04-14 18:14:49.557628,838567,1609507983162231,5583132027,0.714432,-0.042944,0.320128,-7.5425,-9.3975,-2.8525,-9.472,25.824001,17.592001,concentric,4,7.0,179824.0,365350.0,281429.0,350780.0,286622.0
2026-04-14 18:14:49.561560,838568,1609507983171169,5583140715,0.714432,-0.042944,0.320128,-7.56875,-10.21125,-2.31875,-9.448001,25.824001,17.592001,concentric,4,7.0,179824.0,365350.0,281429.0,350780.0,286622.0
2026-04-14 18:14:49.562722,838569,1609507983185728,5583155652,0.724192,0.00976,0.476288,-7.7,-9.96625,-2.1,-9.864,26.224,16.064001,concentric,4,7.0,179824.0,365350.0,281429.0,350780.0,286622.0
2026-04-14 18:14:49.591923,838580,1609507983194852,5583164388,0.724192,0.00976,0.476288,-7.84,-8.225,-1.61875,-9.864,26.224,16.064001,concentric,4,7.0,181654.0,365878.0,283755.0,351374.0,288527.0
2026-04-14 18:14:49.594433,838581,1609507983203923,5583173156,0.696864,-0.001952,0.51728,-11.19125,-6.1425,-1.74125,-10.176001,26.6,13.728001,concentric,4,7.0,181654.0,365878.0,283755.0,351374.0,288527.0
2026-04-14 18:14:49.596968,838582,1609507983218477,5583188104,0.696864,-0.001952,0.51728,-15.61875,-3.7275,-1.3125,-10.176001,26.6,13.728001,concentric,4,7.0,181654.0,365878.0,283755.0,351374.0,288527.0
2026-04-14 18:14:49.606995,838583,1609507983227418,5583196828,0.772992,-0.05856,0.452864,-17.24625,-2.1175,-0.48125,-9.592,26.032001,14.784,concentric,4,7.0,181654.0,365878.0,283755.0,351374.0,288527.0
2026-04-14 18:14:49.619126,838584,1609507983242016,5583211760,0.772992,-0.05856,0.513376,-14.761251,-2.23125,0.23625,-9.592,26.032001,14.784,concentric,4,7.0,181654.0,365878.0,283755.0,351374.0,288527.0
2026-04-14 18:14:49.631950,838585,1609507983250974,5583220444,0.776896,-0.021472,0.513376,-11.45375,-2.80875,1.4175,-9.080001,26.408,16.304,concentric,4,7.0,181654.0,365878.0,283755.0,351374.0,288527.0
2026-04-14 18:14:49.637769,838586,1609507983259924,5583229154,0.776896,-0.021472,0.513376,-10.56125,-3.255,2.12625,-9.080001,26.408,16.304,concentric,4,7.0,181654.0,365878.0,283755.0,351374.0,288527.0
2026-04-14 18:14:49.651986,838587,1609507983274403,5583244040,0.685152,-0.003904,0.427488,-12.62625,-1.82875,3.64,-9.400001,26.376001,14.864,concentric,4,7.0,181654.0,365878.0,283755.0,351374.0,288527.0
2026-04-14 18:14:49.663367,838588,1609507983283374,5583252736,0.69296,-0.035136,0.259616,-14.6125,-0.6825,3.96375,-9.312,26.400002,14.888001,concentric,4,7.0,181654.0,365878.0,283755.0,351374.0,288527.0
2026-04-14 18:14:49.718267,838599,1609507983298122,5583268117,0.69296,-0.035136,0.259616,-15.30375,0.25375,4.7075,-9.312,26.400002,14.888001,concentric,4,7.0,183999.0,365623.0,286525.0,351152.0,290651.0
2026-04-14 18:14:49.720685,838600,1609507983307122,5583276876,0.74176,-0.033184,0.259616,-14.28875,-0.2625,4.97875,-10.984,27.016,15.944001,concentric,4,7.0,183999.0,365623.0,286525.0,351152.0,290651.0
2026-04-14 18:14:49.722726,838601,1609507983321647,5583291814,0.74176,-0.033184,0.259616,-11.445,-1.7675,4.78625,-10.984,27.016,15.944001,concentric,4,7.0,183999.0,365623.0,286525.0,351152.0,290651.0
2026-04-14 18:14:49.725751,838602,1609507983330757,5583300564,0.737856,-0.052704,0.288896,-8.9075,-3.36875,4.48875,-10.688001,27.072,15.456,concentric,4,7.0,183999.0,365623.0,286525.0,351152.0,290651.0
2026-04-14 18:14:49.728259,838603,1609507983339785,5583309277,0.737856,-0.052704,0.288896,-9.14375,-3.8325,4.515,-10.688001,27.072,15.456,concentric,4,7.0,183999.0,365623.0,286525.0,351152.0,290651.0
2026-04-14 18:14:49.731599,838604,1609507983354284,5583324180,0.796416,-0.070272,0.349408,-10.57,-3.77125,4.235,-9.84,26.976002,15.240001,concentric,4,7.0,183999.0,365623.0,286525.0,351152.0,290651.0
2026-04-14 18:14:49.741368,838605,1609507983363220,5583332903,0.796416,-0.013664,0.441152,-12.10125,-4.1125,3.675,-9.84,26.976002,15.240001,concentric,4,7.0,183999.0,365623.0,286525.0,351152.0,290651.0
2026-04-14 18:14:49.756393,838606,1609507983377711,5583347774,0.72224,-0.013664,0.441152,-12.17125,-4.59375,3.49125,-8.936001,27.144001,15.992001,concentric,4,7.0,183999.0,365623.0,286525.0,351152.0,290651.0
2026-04-14 18:14:49.763063,838607,1609507983386726,5583356586,0.841312,-0.07808,0.509472,-10.15875,-4.3575,3.5525,-9.816001,27.424002,14.368001,concentric,4,7.0,183999.0,365623.0,286525.0,351152.0,290651.0
2026-04-14 18:14:49.794091,838618,1609507983395807,5583365386,0.841312,-0.07808,0.509472,-7.9275,-4.08625,3.92875,-9.816001,27.424002,14.368001,concentric,4,7.0,183345.0,365970.0,285577.0,351470.0,289679.0
2026-04-14 18:14:49.796905,838619,1609507983410443,5583380399,0.739808,-0.035136,0.382592,-6.02,-3.07125,4.06875,-10.0,27.36,14.912001,concentric,4,7.0,183345.0,365970.0,285577.0,351470.0,289679.0
2026-04-14 18:14:49.799407,838620,1609507983419372,5583389093,0.739808,-0.035136,0.382592,-7.21,-2.1875,3.68375,-10.0,27.36,14.912001,concentric,4,7.0,183345.0,365970.0,285577.0,351470.0,289679.0
2026-04-14 18:14:49.811928,838621,1609507983433889,5583403986,0.778848,-0.044896,0.495808,-10.68375,-0.84875,3.1325,-10.184,27.336,15.168001,concentric,4,7.0,183345.0,365970.0,285577.0,351470.0,289679.0
2026-04-14 18:14:49.820892,838622,1609507983442840,5583412672,0.778848,-0.044896,0.495808,-12.67875,-0.55125,2.555,-10.184,27.336,15.168001,concentric,4,7.0,183345.0,365970.0,285577.0,351470.0,289679.0
2026-04-14 18:14:49.834510,838623,1609507983457358,5583427649,0.757376,-0.060512,0.425536,-8.715,-0.56,2.1175,-8.656,27.2,14.792001,concentric,4,7.0,183345.0,365970.0,285577.0,351470.0,289679.0
2026-04-14 18:14:49.842749,838624,1609507983466310,5583436341,0.845216,-0.070272,0.573888,-2.59,-0.91875,0.98875,-10.576,27.744001,16.176,concentric,4,7.0,183345.0,365970.0,285577.0,351470.0,289679.0
2026-04-14 18:14:49.875944,838625,1609507983475256,5583445046,0.845216,-0.070272,0.573888,-2.31875,-0.79625,0.735,-10.576,27.744001,16.176,concentric,4,7.0,183345.0,365970.0,285577.0,351470.0,289679.0
2026-04-14 18:14:49.878198,838626,1609507983489753,5583459916,0.77104,-0.081984,0.349408,-3.07125,-0.27125,-0.0175,-8.832001,27.112001,14.128,concentric,4,7.0,183345.0,365970.0,285577.0,351470.0,289679.0
2026-04-14 18:14:49.925623,838637,1609507983498774,5583468672,0.77104,-0.081984,0.349408,-3.22,0.385,-1.21625,-8.832001,27.112001,14.128,concentric,4,7.0,183244.0,366417.0,285386.0,351834.0,289607.0
2026-04-14 18:14:49.928239,838638,1609507983513331,5583483645,0.802272,-0.080032,0.52704,-4.24375,0.7525,-2.0125,-8.816,27.016,13.872001,concentric,4,7.0,183244.0,366417.0,285386.0,351834.0,289607.0
2026-04-14 18:14:49.930718,838639,1609507983522263,5583492350,0.802272,-0.080032,0.52704,-3.63125,0.42875,-3.29875,-8.816,27.016,13.872001,concentric,4,7.0,183244.0,366417.0,285386.0,351834.0,289607.0
2026-04-14 18:14:49.933203,838640,1609507983536809,5583505177,0.831552,-0.062464,0.523136,-0.02625,0.735,-4.1125,-9.096001,27.12,14.480001,concentric,4,7.0,183244.0,366417.0,285386.0,351834.0,289607.0
2026-04-14 18:14:49.935686,838641,1609507983546065,5583516026,0.833504,-0.122976,0.3416,2.14375,0.76125,-5.9325,-8.96,26.864002,12.928,concentric,4,7.0,183244.0,366417.0,285386.0,351834.0,289607.0
2026-04-14 18:14:49.941304,838642,1609507983555015,5583524738,0.833504,-0.122976,0.3416,0.805,1.0325,-7.13125,-8.96,26.864002,12.928,concentric,4,7.0,183244.0,366417.0,285386.0,351834.0,289607.0
2026-04-14 18:14:49.947647,838643,1609507983569653,5583539670,0.753472,-0.06832,0.343552,0.6125,1.0675,-7.875,-9.784,27.216002,15.000001,concentric,4,7.0,183244.0,366417.0,285386.0,351834.0,289607.0
2026-04-14 18:14:49.958075,838644,1609507983578666,5583548390,0.753472,-0.06832,0.343552,1.8375,0.76125,-9.03,-9.784,27.216002,15.000001,concentric,4,7.0,183244.0,366417.0,285386.0,351834.0,289607.0
2026-04-14 18:14:49.993219,838655,1609507983593227,5583563466,0.812032,-0.083936,0.493856,0.77875,0.60375,-9.1525,-9.696,27.312002,15.040001,concentric,4,7.0,184727.0,366510.0,287344.0,351973.0,291263.0
2026-04-14 18:14:49.995728,838656,1609507983602466,5583572218,0.812032,-0.083936,0.493856,1.575,-0.105,-9.0125,-9.696,27.312002,15.040001,concentric,4,7.0,184727.0,366510.0,287344.0,351973.0,291263.0
2026-04-14 18:14:49.997790,838657,1609507983611468,5583581033,0.835456,-0.054656,0.437248,4.41875,-0.30625,-9.72125,-10.240001,27.552002,15.256001,concentric,4,7.0,184727.0,366510.0,287344.0,351973.0,291263.0
2026-04-14 18:14:50.003241,838658,1609507983625994,5583596043,0.778848,-0.07808,0.329888,6.23875,0.21,-11.61125,-10.224001,26.896002,14.992001,concentric,4,7.0,184727.0,366510.0,287344.0,351973.0,291263.0
2026-04-14 18:14:50.013274,838659,1609507983634939,5583604729,0.778848,-0.07808,0.329888,3.85,0.1225,-12.8275,-10.224001,26.896002,14.992001,concentric,4,7.0,184727.0,366510.0,287344.0,351973.0,291263.0
2026-04-14 18:14:50.026584,838660,1609507983649423,5583619567,0.792512,-0.046848,0.540704,1.8725,-0.27125,-13.16875,-9.824,26.640001,15.56,concentric,4,7.0,184727.0,366510.0,287344.0,351973.0,291263.0
2026-04-14 18:14:50.036535,838661,1609507983658360,5583628268,0.792512,-0.046848,0.540704,2.65125,-0.3675,-12.92375,-9.824,26.640001,15.56,concentric,4,7.0,184727.0,366510.0,287344.0,351973.0,291263.0
2026-04-14 18:14:50.044492,838662,1609507983667298,5583636958,0.860832,-0.085888,0.466528,1.995,-0.13125,-11.7775,-9.496,26.960001,13.744,concentric,4,7.0,184727.0,366510.0,287344.0,351973.0,291263.0
2026-04-14 18:14:50.061437,838663,1609507983681922,5583651880,0.860832,-0.085888,0.466528,0.6825,0.0175,-10.71875,-9.496,26.960001,13.744,concentric,4,7.0,184727.0,366510.0,287344.0,351973.0,291263.0
2026-04-14 18:14:50.069416,838664,1609507983691060,5583660598,0.804224,-0.044896,0.327936,0.91875,0.0175,-10.395,-9.552,26.552002,13.912001,concentric,4,7.0,184727.0,366510.0,287344.0,351973.0,291263.0
2026-04-14 18:14:50.095755,838675,1609507983705683,5583675542,0.772992,-0.025376,0.499712,1.5575,0.34125,-10.43,-9.552,26.552002,13.016001,concentric,4,7.0,186945.0,366343.0,290063.0,351855.0,293455.0
2026-04-14 18:14:50.098265,838676,1609507983714645,5583684267,0.778848,-0.025376,0.499712,-0.0875,1.54,-11.06,-10.688001,26.784,13.016001,concentric,4,7.0,186945.0,366343.0,290063.0,351855.0,293455.0
2026-04-14 18:14:50.106424,838677,1609507983729151,5583699176,0.845216,-0.062464,0.501664,-1.7325,1.63625,-11.34875,-10.712001,26.664001,15.280001,concentric,4,7.0,186945.0,366343.0,290063.0,351855.0,293455.0
2026-04-14 18:14:50.115768,838678,1609507983738181,5583707874,0.845216,-0.062464,0.501664,-2.07375,2.45,-11.06,-10.712001,26.664001,15.280001,concentric,4,7.0,186945.0,366343.0,290063.0,351855.0,293455.0
2026-04-14 18:14:50.125230,838679,1609507983747124,5583716557,0.833504,-0.0488,0.46848,-2.8,2.905,-10.99875,-10.120001,27.264002,15.064001,concentric,4,7.0,186945.0,366343.0,290063.0,351855.0,293455.0
2026-04-14 18:14:50.137441,838680,1609507983761629,5583731502,0.833504,-0.0488,0.46848,-5.25875,3.465,-10.78875,-10.120001,27.264002,15.064001,concentric,4,7.0,186945.0,366343.0,290063.0,351855.0,293455.0
2026-04-14 18:14:50.148040,838681,1609507983770626,5583740229,0.821792,-0.05856,0.396256,-6.41375,2.9925,-10.465,-10.672001,26.552002,14.304001,concentric,4,7.0,186945.0,366343.0,290063.0,351855.0,293455.0
2026-04-14 18:14:50.164405,838682,1609507983785118,5583755144,0.821792,-0.05856,0.396256,-5.18,2.6775,-11.3575,-10.672001,26.552002,14.304001,concentric,4,7.0,186945.0,366343.0,290063.0,351855.0,293455.0
2026-04-14 18:14:50.195614,838693,1609507983794233,5583763861,0.774944,-0.027328,0.542656,-4.5325,3.14125,-12.43375,-10.168,26.664001,14.112,concentric,4,7.0,185095.0,366946.0,287656.0,352428.0,291432.0
2026-04-14 18:14:50.198070,838694,1609507983803252,5583772641,0.774944,-0.027328,0.542656,-5.08375,2.98375,-12.915,-10.168,26.664001,14.112,concentric,4,7.0,185095.0,366946.0,287656.0,352428.0,291432.0
2026-04-14 18:14:50.200726,838695,1609507983817785,5583787597,0.792512,-0.091744,0.366976,-6.3,2.765,-12.88,-10.096001,26.712002,14.048,concentric,4,7.0,185095.0,366946.0,287656.0,352428.0,291432.0
2026-04-14 18:14:50.204288,838696,1609507983826753,5583796318,0.671488,-0.033184,0.335744,-7.44625,2.52875,-12.215,-10.008,26.288002,17.904001,concentric,4,7.0,185095.0,366946.0,287656.0,352428.0,291432.0
2026-04-14 18:14:50.240277,838697,1609507983841266,5583811253,0.671488,-0.033184,0.335744,-6.09875,2.31875,-11.24375,-10.008,26.288002,17.904001,concentric,4,7.0,185095.0,366946.0,287656.0,352428.0,291432.0
2026-04-14 18:14:50.242699,838698,1609507983850186,5583819953,0.667584,-0.056608,0.265472,-3.82375,1.84625,-11.24375,-10.696,27.104002,13.752001,concentric,4,7.0,185095.0,366946.0,287656.0,352428.0,291432.0
2026-04-14 18:14:50.245569,838699,1609507983864684,5583834883,0.667584,-0.056608,0.265472,-4.97875,2.47625,-11.06875,-10.696,27.104002,13.752001,concentric,4,7.0,185095.0,366946.0,287656.0,352428.0,291432.0
2026-04-14 18:14:50.269336,838700,1609507983873667,5583843630,0.765184,-0.08784,0.460672,-6.615,2.65125,-10.70125,-10.096001,26.44,15.040001,concentric,4,7.0,185095.0,366946.0,287656.0,352428.0,291432.0
2026-04-14 18:14:50.271403,838701,1609507983882717,5583852347,0.765184,-0.08784,0.460672,-5.5475,2.205,-10.98125,-10.096001,26.44,15.040001,concentric,4,7.0,185095.0,366946.0,287656.0,352428.0,291432.0
2026-04-14 18:14:50.299559,838712,1609507983897707,5583867400,0.714432,-0.056608,0.407968,-4.27875,1.4525,-11.2,-10.944,27.232,15.048,concentric,4,7.0,181664.0,366993.0,283418.0,352468.0,288055.0
2026-04-14 18:14:50.302025,838713,1609507983906708,5583876260,0.714432,-0.025376,0.472384,-2.905,0.5075,-12.78375,-10.944,27.232,15.048,concentric,4,7.0,181664.0,366993.0,283418.0,352468.0,288055.0
2026-04-14 18:14:50.304271,838714,1609507983921290,5583891206,0.69296,-0.027328,0.472384,-2.84375,-0.315,-14.6125,-11.504001,26.888,16.096,concentric,4,7.0,181664.0,366993.0,283418.0,352468.0,288055.0
2026-04-14 18:14:50.306494,838715,1609507983930260,5583899969,0.681248,-0.089792,0.279136,-3.84125,1.0675,-16.40625,-11.744,26.6,15.320001,concentric,4,7.0,181664.0,366993.0,283418.0,352468.0,288055.0
2026-04-14 18:14:50.315720,838716,1609507983939203,5583908718,0.681248,-0.089792,0.279136,-4.1825,2.695,-17.5525,-11.744,26.6,15.320001,concentric,4,7.0,181664.0,366993.0,283418.0,352468.0,288055.0
2026-04-14 18:14:50.352534,838717,1609507983953712,5583923600,0.62464,-0.080032,0.21472,-0.8575,3.87625,-17.64875,-11.496,26.824001,13.960001,concentric,4,7.0,181664.0,366993.0,283418.0,352468.0,288055.0
2026-04-14 18:14:50.354083,838718,1609507983962650,5583932277,0.62464,-0.080032,0.21472,3.29,4.62875,-17.57875,-11.496,26.824001,13.960001,concentric,4,7.0,181664.0,366993.0,283418.0,352468.0,288055.0
2026-04-14 18:14:50.356464,838719,1609507983977127,5583947254,0.677344,-0.060512,0.279136,4.06875,4.9,-17.6925,-10.84,26.248001,14.336,concentric,4,7.0,181664.0,366993.0,283418.0,352468.0,288055.0
2026-04-14 18:14:50.369512,838720,1609507983986080,5583955953,0.677344,-0.060512,0.279136,3.4825,6.16,-18.62,-10.84,26.248001,14.336,concentric,4,7.0,181664.0,366993.0,283418.0,352468.0,288055.0
2026-04-14 18:14:50.397039,838731,1609507984000671,5583970919,0.671488,-0.027328,0.355264,2.695,7.88375,-20.67625,-10.424001,26.536001,14.320001,concentric,4,7.0,184393.0,366276.0,286612.0,351853.0,290515.0
2026-04-14 18:14:50.399557,838732,1609507984009771,5583979713,0.60512,-0.0488,0.279136,2.35375,9.93125,-22.82875,-10.864,26.240002,15.216001,concentric,4,7.0,184393.0,366276.0,286612.0,351853.0,290515.0
2026-04-14 18:14:50.401988,838733,1609507984018814,5583988426,0.60512,-0.0488,0.279136,3.49125,11.68125,-23.1525,-10.864,26.240002,15.216001,concentric,4,7.0,184393.0,366276.0,286612.0,351853.0,290515.0
2026-04-14 18:14:50.413310,838734,1609507984033430,5584003319,0.681248,-0.0488,0.450912,6.1075,11.38375,-21.805,-11.368001,25.936,14.704,concentric,4,7.0,184393.0,366276.0,286612.0,351853.0,290515.0
2026-04-14 18:14:50.419510,838735,1609507984042541,5584012060,0.681248,-0.0488,0.450912,9.58125,10.9375,-20.71125,-11.368001,25.936,14.704,concentric,4,7.0,184393.0,366276.0,286612.0,351853.0,290515.0
2026-04-14 18:14:50.435581,838736,1609507984057022,5584026973,0.593408,0.064416,0.368928,11.480001,10.21125,-20.37875,-10.888001,25.512001,14.472001,concentric,4,7.0,184393.0,366276.0,286612.0,351853.0,290515.0
2026-04-14 18:14:50.443856,838737,1609507984065945,5584035669,0.593408,0.064416,0.368928,10.47375,9.82625,-21.09625,-10.888001,25.512001,14.472001,concentric,4,7.0,184393.0,366276.0,286612.0,351853.0,290515.0
2026-04-14 18:14:50.453850,838738,1609507984074890,5584044377,0.60512,-0.01952,0.259616,7.2625,10.2725,-21.4725,-11.464001,25.672,15.672001,concentric,4,7.0,184393.0,366276.0,286612.0,351853.0,290515.0
2026-04-14 18:14:50.468237,838739,1609507984089462,5584059454,0.65392,0.021472,0.515328,7.0,10.98125,-21.455,-11.608001,24.984001,14.920001,concentric,4,7.0,184393.0,366276.0,286612.0,351853.0,290515.0
2026-04-14 18:14:50.499538,838750,1609507984099042,5584068335,0.65392,0.021472,0.515328,10.22,10.9375,-21.41125,-11.608001,24.984001,14.920001,concentric,4,7.0,187243.0,364332.0,289997.0,350171.0,293028.0
2026-04-14 18:14:50.502009,838751,1609507984113748,5584083350,0.597312,0.042944,0.31232,13.37875,11.38375,-21.77875,-11.832001,25.688002,16.248001,concentric,4,7.0,187243.0,364332.0,289997.0,350171.0,293028.0
2026-04-14 18:14:50.506024,838752,1609507984122904,5584092061,0.597312,0.042944,0.31232,12.635,11.2875,-20.755,-11.832001,25.688002,16.248001,concentric,4,7.0,187243.0,364332.0,289997.0,350171.0,293028.0
2026-04-14 18:14:50.511987,838753,1609507984131929,5584100794,0.591456,0.01952,0.284992,12.2325,9.65125,-19.18875,-12.72,25.656002,16.424002,concentric,4,7.0,187243.0,364332.0,289997.0,350171.0,293028.0
2026-04-14 18:14:50.523179,838754,1609507984146457,5584115787,0.591456,0.01952,0.284992,11.20875,7.2975,-17.9725,-12.72,25.656002,16.424002,concentric,4,7.0,187243.0,364332.0,289997.0,350171.0,293028.0
2026-04-14 18:14:50.533180,838755,1609507984155408,5584124517,0.642208,0.113216,0.513376,10.9725,5.285,-17.99,-12.088,25.2,15.400001,concentric,4,7.0,187243.0,364332.0,289997.0,350171.0,293028.0
2026-04-14 18:14:50.549162,838756,1609507984169994,5584139414,0.651968,-0.013664,0.199104,8.93375,5.17125,-19.2325,-12.256001,25.056002,15.6,concentric,4,7.0,187243.0,364332.0,289997.0,350171.0,293028.0
2026-04-14 18:14:50.555834,838757,1609507984178914,5584148051,0.651968,-0.013664,0.199104,4.06,4.82125,-19.20625,-12.256001,25.056002,15.6,concentric,4,7.0,187243.0,364332.0,289997.0,350171.0,293028.0
2026-04-14 18:14:50.571482,838758,1609507984193438,5584162935,0.728096,-0.0488,0.324032,3.605,3.07125,-17.26375,-12.232,24.52,16.52,concentric,4,7.0,187243.0,364332.0,289997.0,350171.0,293028.0
2026-04-14 18:14:50.661626,838769,1609507984202471,5584171685,0.728096,-0.0488,0.324032,9.87,1.47875,-14.761251,-12.232,24.52,16.52,concentric,4,7.0,189796.0,361353.0,292918.0,347425.0,294784.0
2026-04-14 18:14:50.664234,838770,1609507984211423,5584180417,0.700768,0.05856,0.376736,15.47,0.67375,-12.92375,-13.856001,25.36,18.160002,concentric,4,7.0,189796.0,361353.0,292918.0,347425.0,294784.0
2026-04-14 18:14:50.666702,838771,1609507984226018,5584195382,0.700768,0.05856,0.376736,16.24875,1.295,-13.265,-13.856001,25.36,18.160002,concentric,4,7.0,189796.0,361353.0,292918.0,347425.0,294784.0
2026-04-14 18:14:50.669261,838772,1609507984234942,5584204064,0.628544,0.109312,0.394304,12.136251,2.765,-14.8925,-14.392001,25.008001,17.784,concentric,4,7.0,189796.0,361353.0,292918.0,347425.0,294784.0
2026-04-14 18:14:50.671634,838773,1609507984249402,5584218952,0.685152,0.025376,0.40016,7.595,4.76,-16.23125,-14.392001,24.672,17.344002,concentric,4,7.0,189796.0,361353.0,292918.0,347425.0,294784.0
2026-04-14 18:14:50.674220,838774,1609507984258275,5584227626,0.685152,0.025376,0.40016,6.72875,6.8075,-16.7475,-13.8,24.672,17.344002,concentric,4,7.0,189796.0,361353.0,292918.0,347425.0,294784.0
2026-04-14 18:14:50.676697,838775,1609507984267194,5584236375,0.685152,0.025376,0.40016,6.72875,8.77625,-15.9775,-13.8,24.672,17.344002,concentric,4,7.0,189796.0,361353.0,292918.0,347425.0,294784.0
2026-04-14 18:14:50.679264,838776,1609507984281758,5584251323,0.626592,0.060512,0.374784,8.3475,10.5525,-14.3325,-13.592001,24.672,17.68,concentric,4,7.0,189796.0,361353.0,292918.0,347425.0,294784.0
2026-04-14 18:14:50.681710,838777,1609507984290753,5584260060,0.71248,0.044896,0.27328,8.0675,10.92875,-11.2875,-13.416,24.264002,14.776001,concentric,4,7.0,189796.0,361353.0,292918.0,347425.0,294784.0
2026-04-14 18:14:50.716639,838788,1609507984305745,5584275472,0.71248,0.044896,0.27328,6.9475,10.63125,-7.7525,-13.416,24.264002,14.776001,concentric,4,7.0,188169.0,358924.0,290796.0,345290.0,292846.0
2026-04-14 18:14:50.717800,838789,1609507984314752,5584284222,0.651968,0.111264,0.466528,8.49625,7.04375,-4.865,-13.768001,24.304,16.792002,concentric,4,7.0,188169.0,358924.0,290796.0,345290.0,292846.0
2026-04-14 18:14:50.719751,838790,1609507984329276,5584299149,0.651968,0.111264,0.622688,9.58125,2.86125,-3.75375,-13.768001,24.304,16.792002,concentric,4,7.0,188169.0,358924.0,290796.0,345290.0,292846.0
2026-04-14 18:14:50.719885,838791,1609507984338333,5584307840,0.700768,0.1952,0.610976,10.15875,2.02125,-4.795,-13.448001,24.240002,18.464,concentric,4,7.0,188169.0,358924.0,290796.0,345290.0,292846.0
2026-04-14 18:14:50.724066,838792,1609507984347272,5584316510,0.700768,0.1952,0.610976,4.6375,3.89375,-6.92125,-13.448001,24.240002,18.464,concentric,4,7.0,188169.0,358924.0,290796.0,345290.0,292846.0
2026-04-14 18:14:50.739109,838793,1609507984361775,5584331421,0.708576,0.052704,0.320128,1.09375,5.7575,-8.30375,-12.872001,24.144001,16.792002,concentric,4,7.0,188169.0,358924.0,290796.0,345290.0,292846.0
2026-04-14 18:14:50.747883,838794,1609507984370736,5584340190,0.769088,0.103456,0.538752,3.5,5.1625,-8.225,-12.920001,24.104002,16.296001,concentric,4,7.0,188169.0,358924.0,290796.0,345290.0,292846.0
2026-04-14 18:14:50.762907,838795,1609507984385235,5584355063,0.769088,0.103456,0.538752,7.0875,3.5875,-7.27125,-12.920001,24.104002,16.296001,concentric,4,7.0,188169.0,358924.0,290796.0,345290.0,292846.0
2026-04-14 18:14:50.770391,838796,1609507984394209,5584363800,0.689056,0.124928,0.337696,8.09375,3.01,-6.7725,-13.552001,24.12,18.032001,concentric,4,7.0,188169.0,358924.0,290796.0,345290.0,292846.0
2026-04-14 18:14:50.803768,838807,1609507984403267,5584372562,0.689056,0.124928,0.337696,4.59375,3.75375,-7.14,-13.552001,24.12,18.032001,concentric,4,7.0,185436.0,358677.0,287157.0,345074.0,289603.0
2026-04-14 18:14:50.805644,838808,1609507984417800,5584387553,0.6832,0.122976,0.347456,0.18375,4.7075,-7.35875,-14.952001,24.592001,18.296001,concentric,4,7.0,185436.0,358677.0,287157.0,345074.0,289603.0
2026-04-14 18:14:50.807687,838809,1609507984426765,5584396247,0.6832,0.122976,0.347456,-0.34125,6.02,-8.9075,-14.952001,24.592001,18.296001,concentric,4,7.0,185436.0,358677.0,287157.0,345074.0,289603.0
2026-04-14 18:14:50.819179,838810,1609507984441254,5584411146,0.749568,0.183488,0.564128,-2.14375,6.41375,-10.57875,-14.536,24.072,18.44,concentric,4,7.0,185436.0,358677.0,287157.0,345074.0,289603.0
2026-04-14 18:14:50.827626,838811,1609507984450285,5584419840,0.749568,0.183488,0.363072,-2.8,6.44875,-11.10375,-14.536,24.072,18.44,concentric,4,7.0,185436.0,358677.0,287157.0,345074.0,289603.0
2026-04-14 18:14:50.842954,838812,1609507984464955,5584434769,0.753472,0.103456,0.363072,-2.61625,6.475,-11.08625,-12.936001,23.960001,16.0,concentric,4,7.0,185436.0,358677.0,287157.0,345074.0,289603.0
2026-04-14 18:14:50.850373,838813,1609507984474154,5584443498,0.747616,0.197152,0.659776,-0.9625,6.88625,-11.8125,-13.080001,23.992,17.28,concentric,4,7.0,185436.0,358677.0,287157.0,345074.0,289603.0
2026-04-14 18:14:50.859168,838814,1609507984483162,5584452213,0.747616,0.197152,0.659776,-1.58375,8.47,-14.6475,-13.080001,23.992,17.28,concentric,4,7.0,185436.0,358677.0,287157.0,345074.0,289603.0
2026-04-14 18:14:50.901801,838825,1609507984497845,5584467158,0.763232,0.173728,0.609024,-1.58375,11.2175,-18.90875,-13.400001,23.968,17.68,concentric,4,7.0,185355.0,358019.0,286801.0,344383.0,288967.0
2026-04-14 18:14:50.904031,838826,1609507984506869,5584476066,0.763232,0.173728,0.609024,-2.33625,12.39875,-21.27125,-13.400001,23.968,17.68,concentric,4,7.0,185355.0,358019.0,286801.0,344383.0,288967.0
2026-04-14 18:14:50.905200,838827,1609507984521413,5584491019,0.851072,0.10736,0.5368,-1.7675,10.94625,-21.25375,-14.096001,23.544,17.720001,concentric,4,7.0,185355.0,358019.0,286801.0,344383.0,288967.0
2026-04-14 18:14:50.908102,838828,1609507984530429,5584499775,0.851072,0.10736,0.5368,-0.91,8.8375,-19.29375,-14.096001,23.544,17.720001,concentric,4,7.0,185355.0,358019.0,286801.0,344383.0,288967.0
2026-04-14 18:14:50.916801,838829,1609507984539381,5584508479,0.75152,0.17568,0.464576,-0.9975,7.525,-17.3775,-13.056001,23.752,17.216002,concentric,4,7.0,185355.0,358019.0,286801.0,344383.0,288967.0
2026-04-14 18:14:50.931886,838830,1609507984554072,5584523436,0.83936,0.167872,0.521184,-1.18125,8.4525,-18.89125,-13.872001,23.632002,18.592001,concentric,4,7.0,185355.0,358019.0,286801.0,344383.0,288967.0
2026-04-14 18:14:50.939166,838831,1609507984562992,5584532144,0.83936,0.167872,0.521184,-0.79625,9.24875,-21.62125,-13.872001,23.632002,18.592001,concentric,4,7.0,185355.0,358019.0,286801.0,344383.0,288967.0
2026-04-14 18:14:50.974476,838832,1609507984577504,5584547047,0.880352,0.212768,0.69296,4.34875,7.7875,-23.555,-14.488001,23.392,18.208,concentric,4,7.0,185355.0,358019.0,286801.0,344383.0,288967.0
2026-04-14 18:14:50.999203,838833,1609507984586401,5584555723,0.880352,0.212768,0.69296,12.45125,6.545,-22.07625,-14.488001,23.392,18.208,concentric,4,7.0,185355.0,358019.0,286801.0,344383.0,288967.0
2026-04-14 18:14:51.055344,838844,1609507984601709,5584571041,0.853024,0.208864,0.6832,3.10625,6.5275,-17.75375,-16.088001,23.528002,19.144001,eccentric,4,7.0,193610.0,356614.0,297341.0,343378.0,296365.0
2026-04-14 18:14:51.062071,838845,1609507984610647,5584579779,0.853024,0.208864,0.6832,-10.0625,5.29375,-16.03875,-16.088001,23.528002,19.144001,eccentric,4,7.0,193610.0,356614.0,297341.0,343378.0,296365.0
2026-04-14 18:14:51.062151,838846,1609507984619565,5584588467,0.833504,0.296704,0.669536,-13.7725,5.53875,-16.1,-14.832001,24.144001,18.176,eccentric,4,7.0,193610.0,356614.0,297341.0,343378.0,296365.0
2026-04-14 18:14:51.062200,838847,1609507984634089,5584603479,0.84912,0.158112,0.46848,-14.51625,5.88875,-16.70375,-14.952001,23.728,18.656,eccentric,4,7.0,193610.0,356614.0,297341.0,343378.0,296365.0
2026-04-14 18:14:51.065755,838848,1609507984643022,5584612169,0.84912,0.158112,0.46848,-8.46125,5.80125,-15.60125,-14.952001,23.728,18.656,eccentric,4,7.0,193610.0,356614.0,297341.0,343378.0,296365.0
2026-04-14 18:14:51.066604,838849,1609507984657554,5584627101,0.815936,0.242048,0.554368,0.30625,4.01625,-14.2975,-15.104001,23.976002,18.672,eccentric,4,7.0,193610.0,356614.0,297341.0,343378.0,296365.0
2026-04-14 18:14:51.068894,838850,1609507984666476,5584635814,0.815936,0.242048,0.554368,-0.25375,3.325,-13.9125,-15.104001,23.976002,18.672,eccentric,4,7.0,193610.0,356614.0,297341.0,343378.0,296365.0
2026-04-14 18:14:51.071482,838851,1609507984675548,5584644555,0.89792,0.20496,0.513376,-3.57875,3.29875,-11.865,-15.152,23.68,17.944,eccentric,4,7.0,193610.0,356614.0,297341.0,343378.0,296365.0
2026-04-14 18:14:51.074375,838852,1609507984690024,5584659520,0.89792,0.20496,0.513376,-7.70875,2.66,-10.7625,-15.152,23.68,17.944,eccentric,4,7.0,193610.0,356614.0,297341.0,343378.0,296365.0
2026-04-14 18:14:51.101832,838863,1609507984698978,5584668232,0.91744,0.197152,0.47824,-10.5,3.4475,-9.695,-14.552001,23.568,17.616001,eccentric,4,7.0,200232.0,356608.0,305767.0,343665.0,301532.0
2026-04-14 18:14:51.104065,838864,1609507984713762,5584683159,0.880352,0.269376,0.708576,-9.49375,2.47625,-8.89,-14.456,23.224,17.536001,eccentric,4,7.0,200232.0,356608.0,305767.0,343665.0,301532.0
2026-04-14 18:14:51.108947,838865,1609507984722773,5584691865,0.880352,0.269376,0.708576,-7.76125,1.9425,-8.4525,-14.456,23.224,17.536001,eccentric,4,7.0,200232.0,356608.0,305767.0,343665.0,301532.0
2026-04-14 18:14:51.111811,838866,1609507984731766,5584700597,0.880352,0.269376,0.708576,-5.9675,2.38875,-8.7675,-14.456,23.224,17.536001,eccentric,4,7.0,200232.0,356608.0,305767.0,343665.0,301532.0
2026-04-14 18:14:51.122665,838867,1609507984746746,5584715578,0.894016,0.16592,0.52704,-4.725,2.33625,-7.28,-14.6,23.552002,18.688002,eccentric,4,7.0,200232.0,356608.0,305767.0,343665.0,301532.0
2026-04-14 18:14:51.133169,838868,1609507984755772,5584724292,0.919392,0.197152,0.484096,-0.84,1.98625,-5.01375,-15.920001,23.968,19.864,eccentric,4,7.0,200232.0,356608.0,305767.0,343665.0,301532.0
2026-04-14 18:14:51.146910,838869,1609507984770676,5584739187,0.919392,0.197152,0.484096,-0.175,1.96,-3.66625,-15.920001,23.968,19.864,eccentric,4,7.0,200232.0,356608.0,305767.0,343665.0,301532.0
2026-04-14 18:14:51.158237,838870,1609507984780027,5584749952,0.935008,0.21472,0.732,-2.6075,1.1025,-1.77625,-14.584001,23.528002,17.696001,eccentric,4,7.0,200232.0,356608.0,305767.0,343665.0,301532.0
2026-04-14 18:14:51.165730,838871,1609507984789002,5584758695,0.935008,0.21472,0.732,-1.47875,0.37625,-0.86625,-14.584001,23.528002,17.696001,eccentric,4,7.0,200232.0,356608.0,305767.0,343665.0,301532.0
2026-04-14 18:14:51.200601,838882,1609507984803698,5584774062,0.948672,0.242048,0.583648,0.1925,0.91875,-2.5025,-14.616001,23.736002,17.904001,eccentric,4,7.0,198250.0,356567.0,302981.0,343583.0,298952.0
2026-04-14 18:14:51.202619,838883,1609507984812731,5584782823,0.948672,0.242048,0.733952,-2.7475,0.9975,-2.38,-14.616001,23.736002,17.904001,eccentric,4,7.0,198250.0,356567.0,302981.0,343583.0,298952.0
2026-04-14 18:14:51.205194,838884,1609507984827319,5584795686,1.016992,0.138592,0.733952,-6.965,0.90125,-2.63375,-15.472001,23.904001,18.552,eccentric,4,7.0,198250.0,356567.0,302981.0,343583.0,298952.0
2026-04-14 18:14:51.219134,838885,1609507984836575,5584806497,0.977952,0.210816,0.720288,-4.375,-0.25375,-1.67125,-15.128,23.584002,18.84,eccentric,4,7.0,198250.0,356567.0,302981.0,343583.0,298952.0
2026-04-14 18:14:51.221545,838886,1609507984845539,5584815246,0.977952,0.210816,0.720288,1.8375,-2.065,0.21,-15.128,23.584002,18.84,eccentric,4,7.0,198250.0,356567.0,302981.0,343583.0,298952.0
2026-04-14 18:14:51.237797,838887,1609507984860060,5584830173,1.040416,0.226432,0.767136,4.305,-2.4325,0.11375,-15.488001,23.52,18.456001,eccentric,4,7.0,198250.0,356567.0,302981.0,343583.0,298952.0
2026-04-14 18:14:51.248223,838888,1609507984869004,5584838875,1.040416,0.226432,0.767136,1.4,-2.17875,-2.02125,-15.488001,23.52,18.456001,eccentric,4,7.0,198250.0,356567.0,302981.0,343583.0,298952.0
2026-04-14 18:14:51.261988,838889,1609507984883583,5584853744,1.046272,0.183488,0.710528,-1.96,-3.10625,-3.7975,-14.728001,23.376001,17.784,eccentric,4,7.0,198250.0,356567.0,302981.0,343583.0,298952.0
2026-04-14 18:14:51.269121,838890,1609507984892538,5584862522,1.046272,0.183488,0.710528,-0.2625,-3.64,-4.59375,-14.728001,23.376001,17.784,eccentric,4,7.0,198250.0,356567.0,302981.0,343583.0,298952.0
2026-04-14 18:14:51.300636,838901,1609507984902051,5584871254,0.983808,0.220576,0.554368,1.23375,-2.93125,-4.54125,-14.64,23.664001,17.720001,eccentric,4,7.0,193374.0,356830.0,296526.0,343646.0,293961.0
2026-04-14 18:14:51.303247,838902,1609507984916674,5584886248,1.069696,0.193248,0.726144,0.2275,-1.09375,-3.815,-14.320001,23.28,17.608002,eccentric,4,7.0,193374.0,356830.0,296526.0,343646.0,293961.0
2026-04-14 18:14:51.305186,838903,1609507984925686,5584894982,1.069696,0.193248,0.726144,2.17,-0.00875,-3.325,-14.320001,23.28,17.608002,eccentric,4,7.0,193374.0,356830.0,296526.0,343646.0,293961.0
2026-04-14 18:14:51.340722,838904,1609507984940155,5584909921,0.968192,0.27328,0.57584,3.185,0.665,-4.8825,-14.824,23.36,17.864,eccentric,4,7.0,193374.0,356830.0,296526.0,343646.0,293961.0
2026-04-14 18:14:51.365262,838905,1609507984949062,5584918640,0.968192,0.27328,0.57584,1.8375,0.175,-6.79,-14.824,23.36,17.864,eccentric,4,7.0,193374.0,356830.0,296526.0,343646.0,293961.0
2026-04-14 18:14:51.372697,838906,1609507984957982,5584927380,1.057984,0.232288,0.784704,-1.00625,-1.645,-9.14375,-14.848001,23.288002,17.784,eccentric,4,7.0,193374.0,356830.0,296526.0,343646.0,293961.0
2026-04-14 18:14:51.372789,838907,1609507984972592,5584942281,1.057984,0.232288,0.784704,-5.9325,-2.9575,-10.167501,-14.848001,23.288002,17.784,eccentric,4,7.0,193374.0,356830.0,296526.0,343646.0,293961.0
2026-04-14 18:14:51.375034,838908,1609507984981500,5584950966,1.020896,0.191296,0.60512,-6.72875,-3.2375,-9.59,-14.920001,23.384,17.880001,eccentric,4,7.0,193374.0,356830.0,296526.0,343646.0,293961.0
2026-04-14 18:14:51.378035,838909,1609507984996078,5584965846,0.983808,0.208864,0.597312,-3.40375,-2.09125,-8.4,-14.912001,23.344002,18.568,eccentric,4,7.0,193374.0,356830.0,296526.0,343646.0,293961.0
2026-04-14 18:14:51.405179,838920,1609507985005163,5584974636,0.983808,0.208864,0.597312,-2.54625,-0.84,-7.1575,-14.912001,23.344002,18.568,eccentric,4,7.0,193387.0,356961.0,296673.0,343821.0,294104.0
2026-04-14 18:14:51.407798,838921,1609507985019683,5584989555,1.009184,0.232288,0.64416,0.98,-1.26875,-6.65,-15.248001,23.344002,18.592001,eccentric,4,7.0,193387.0,356961.0,296673.0,343821.0,294104.0
2026-04-14 18:14:51.410715,838922,1609507985028634,5584998254,1.009184,0.232288,0.64416,4.865,-2.72125,-7.44625,-15.248001,23.344002,18.592001,eccentric,4,7.0,193387.0,356961.0,296673.0,343821.0,294104.0
2026-04-14 18:14:51.415745,838923,1609507985037576,5585006986,1.057984,0.169824,0.691008,5.94125,-4.27,-8.8025,-15.904,23.352001,18.52,eccentric,4,7.0,193387.0,356961.0,296673.0,343821.0,294104.0
2026-04-14 18:14:51.431729,838924,1609507985052111,5585021866,1.057984,0.169824,0.691008,0.7875,-5.90625,-7.98875,-15.904,23.352001,18.52,eccentric,4,7.0,193387.0,356961.0,296673.0,343821.0,294104.0
2026-04-14 18:14:51.437810,838925,1609507985061048,5585030611,1.009184,0.191296,0.577792,-2.485,-6.405,-4.725,-14.880001,22.888,17.616001,eccentric,4,7.0,193387.0,356961.0,296673.0,343821.0,294104.0
2026-04-14 18:14:51.454094,838926,1609507985075549,5585045534,0.952576,0.247904,0.544608,-2.2225,-6.3875,-2.09125,-15.096001,22.920002,17.584002,eccentric,4,7.0,193387.0,356961.0,296673.0,343821.0,294104.0
2026-04-14 18:14:51.461889,838927,1609507985084475,5585054226,0.952576,0.247904,0.544608,-3.7275,-5.10125,-0.4375,-15.096001,22.920002,17.584002,eccentric,4,7.0,193387.0,356961.0,296673.0,343821.0,294104.0
2026-04-14 18:14:51.501956,838938,1609507985098978,5585069551,0.98576,0.20496,0.70272,-1.2775,-3.61375,-0.41125,-15.216001,23.016,17.752,eccentric,4,7.0,195307.0,357364.0,299278.0,344332.0,296519.0
2026-04-14 18:14:51.504185,838939,1609507985108232,5585078242,0.98576,0.20496,0.70272,1.75875,-3.92875,-1.33,-15.216001,23.016,17.752,eccentric,4,7.0,195307.0,357364.0,299278.0,344332.0,296519.0
2026-04-14 18:14:51.507015,838940,1609507985117411,5585087051,0.940864,0.22448,0.745664,3.78,-5.6525,-0.455,-15.288001,23.112001,17.528002,eccentric,4,7.0,195307.0,357364.0,299278.0,344332.0,296519.0
2026-04-14 18:14:51.509336,838941,1609507985131944,5585102075,0.940864,0.22448,0.745664,2.94,-6.65,0.98875,-15.288001,23.112001,17.528002,eccentric,4,7.0,195307.0,357364.0,299278.0,344332.0,296519.0
2026-04-14 18:14:51.517713,838942,1609507985140913,5585110776,0.874496,0.226432,0.534848,0.63,-5.775,4.2175,-15.568001,22.928001,17.848001,eccentric,4,7.0,195307.0,357364.0,299278.0,344332.0,296519.0
2026-04-14 18:14:51.536783,838943,1609507985155513,5585125685,0.952576,0.228384,0.708576,-3.00125,-3.115,6.4925,-15.568001,22.928001,15.800001,eccentric,4,7.0,195307.0,357364.0,299278.0,344332.0,296519.0
2026-04-14 18:14:51.541330,838944,1609507985164627,5585134449,0.964288,0.228384,0.708576,-6.3875,-0.14875,7.4025,-14.816001,23.304,15.400001,eccentric,4,7.0,195307.0,357364.0,299278.0,344332.0,296519.0
2026-04-14 18:14:51.551799,838945,1609507985173633,5585143159,0.964288,0.228384,0.708576,-9.03,0.5075,7.27125,-14.816001,23.304,15.400001,eccentric,4,7.0,195307.0,357364.0,299278.0,344332.0,296519.0
2026-04-14 18:14:51.565605,838946,1609507985188134,5585158042,0.911584,0.189344,0.488,-7.0875,-1.9425,7.3325,-14.912001,23.248001,17.52,eccentric,4,7.0,195307.0,357364.0,299278.0,344332.0,296519.0
2026-04-14 18:14:51.575716,838947,1609507985197111,5585166747,0.847168,0.191296,0.45872,-4.66375,-4.8825,6.755,-15.56,23.584002,18.768002,eccentric,4,7.0,195307.0,357364.0,299278.0,344332.0,296519.0
2026-04-14 18:14:51.603273,838958,1609507985211650,5585181742,0.847168,0.191296,0.45872,-6.44,-6.685,6.9475,-15.56,23.584002,18.768002,eccentric,4,7.0,195011.0,357637.0,298834.0,344499.0,296558.0
2026-04-14 18:14:51.605740,838959,1609507985220605,5585190436,0.856928,0.17568,0.49776,-8.417501,-6.72,8.74125,-15.408001,23.896002,18.128,eccentric,4,7.0,195011.0,357637.0,298834.0,344499.0,296558.0
2026-04-14 18:14:51.630345,838960,1609507985229548,5585199104,0.856928,0.17568,0.49776,-8.11125,-4.8475,10.4125,-15.408001,23.896002,18.128,eccentric,4,7.0,195011.0,357637.0,298834.0,344499.0,296558.0
2026-04-14 18:14:51.640891,838961,1609507985244036,5585214019,0.903776,0.199104,0.661728,-10.22,-2.1,11.47125,-14.592001,23.720001,17.272001,eccentric,4,7.0,195011.0,357637.0,298834.0,344499.0,296558.0
2026-04-14 18:14:51.642750,838962,1609507985252971,5585222733,0.903776,0.199104,0.661728,-12.425,-0.32375,11.261251,-14.592001,23.720001,17.272001,eccentric,4,7.0,195011.0,357637.0,298834.0,344499.0,296558.0
2026-04-14 18:14:51.645308,838963,1609507985267569,5585237650,0.788608,0.23424,0.55632,-13.2475,-0.2275,10.07125,-14.224001,23.584002,17.016,eccentric,4,7.0,195011.0,357637.0,298834.0,344499.0,296558.0
2026-04-14 18:14:51.654133,838964,1609507985276615,5585246349,0.831552,0.150304,0.454816,-12.573751,-1.00625,8.33875,-14.224001,23.872002,18.240002,eccentric,4,7.0,195011.0,357637.0,298834.0,344499.0,296558.0
2026-04-14 18:14:51.668932,838965,1609507985291094,5585261273,0.831552,0.150304,0.454816,-12.95,-2.94,7.455,-14.224001,23.872002,18.240002,eccentric,4,7.0,195011.0,357637.0,298834.0,344499.0,296558.0
2026-04-14 18:14:51.678929,838966,1609507985300016,5585270054,0.847168,0.160064,0.5856,-12.9325,-4.3925,8.54,-14.6,24.208002,17.808,eccentric,4,7.0,195011.0,357637.0,298834.0,344499.0,296558.0
2026-04-14 18:14:51.765477,838977,1609507985309024,5585278813,0.847168,0.160064,0.5856,-11.025,-3.82375,11.03375,-14.6,24.208002,17.808,eccentric,4,7.0,194021.0,357809.0,297560.0,344615.0,295916.0
2026-04-14 18:14:51.767791,838978,1609507985323744,5585293925,0.862784,0.12688,0.454816,-11.3225,-2.5725,13.16,-13.856001,23.816002,18.936,eccentric,4,7.0,194021.0,357809.0,297560.0,344615.0,295916.0
2026-04-14 18:14:51.770661,838979,1609507985332701,5585302614,0.862784,0.12688,0.454816,-11.59375,-3.42125,14.875,-13.856001,23.816002,18.936,eccentric,4,7.0,194021.0,357809.0,297560.0,344615.0,295916.0
2026-04-14 18:14:51.773135,838980,1609507985347225,5585317502,0.806176,0.212768,0.593408,-8.82,-5.6175,15.54,-13.728001,24.096,16.696001,eccentric,4,7.0,194021.0,357809.0,297560.0,344615.0,295916.0
2026-04-14 18:14:51.775545,838981,1609507985356264,5585326222,0.806176,0.212768,0.593408,-9.0475,-7.25375,15.33,-13.728001,24.096,16.696001,eccentric,4,7.0,194021.0,357809.0,297560.0,344615.0,295916.0
2026-04-14 18:14:51.778143,838982,1609507985370768,5585341122,0.763232,0.152256,0.413824,-10.14125,-8.4875,15.39125,-13.576,24.560001,15.928,eccentric,4,7.0,194021.0,357809.0,297560.0,344615.0,295916.0
2026-04-14 18:14:51.780636,838983,1609507985379680,5585349919,0.77104,0.18544,0.607072,-9.135,-8.56625,15.7325,-13.456,24.272001,17.344002,eccentric,4,7.0,194021.0,357809.0,297560.0,344615.0,295916.0
2026-04-14 18:14:51.783181,838984,1609507985388682,5585358692,0.77104,0.18544,0.607072,-9.730001,-7.65625,16.45875,-13.456,24.272001,17.344002,eccentric,4,7.0,194021.0,357809.0,297560.0,344615.0,295916.0
2026-04-14 18:14:51.810281,838995,1609507985403361,5585373929,0.823744,0.115168,0.5368,-9.485,-6.545,17.07125,-13.552001,24.928001,17.424002,eccentric,4,7.0,193665.0,358981.0,297232.0,345719.0,296289.0
2026-04-14 18:14:51.812692,838996,1609507985412530,5585382679,0.823744,0.115168,0.5368,-9.45,-6.06375,17.64,-13.552001,24.928001,17.424002,eccentric,4,7.0,193665.0,358981.0,297232.0,345719.0,296289.0
2026-04-14 18:14:51.815432,838997,1609507985427245,5585395608,0.81008,0.111264,0.489952,-9.03875,-6.8075,18.1125,-13.784,25.000002,17.128,eccentric,4,7.0,193665.0,358981.0,297232.0,345719.0,296289.0
2026-04-14 18:14:51.818202,838998,1609507985436576,5585406444,0.81008,0.111264,0.489952,-9.17,-7.21,19.7225,-13.784,25.000002,17.128,eccentric,4,7.0,193665.0,358981.0,297232.0,345719.0,296289.0
2026-04-14 18:14:51.823260,838999,1609507985445632,5585415148,0.735904,0.080032,0.35136,-10.0975,-6.825,20.86875,-13.552001,24.832,16.496,eccentric,4,7.0,193665.0,358981.0,297232.0,345719.0,296289.0
2026-04-14 18:14:51.839345,839000,1609507985460129,5585430200,0.788608,0.132736,0.62464,-9.94,-5.3025,21.98,-12.448001,24.864,15.872001,eccentric,4,7.0,193665.0,358981.0,297232.0,345719.0,296289.0
2026-04-14 18:14:51.849306,839001,1609507985469104,5585438891,0.788608,0.132736,0.62464,-8.37375,-3.17625,22.6275,-12.448001,24.864,15.872001,eccentric,4,7.0,193665.0,358981.0,297232.0,345719.0,296289.0
2026-04-14 18:14:51.860752,839002,1609507985483724,5585453834,0.728096,0.093696,0.386496,-9.10875,-1.30375,22.5925,-12.224001,24.800001,15.944001,eccentric,4,7.0,193665.0,358981.0,297232.0,345719.0,296289.0
