pc_time,serial_num,sensor_ts,host_ts,ax,ay,az,gx,gy,gz,mx,my,mz,phase,rpe,weight_kg,ppg_a,ppg_b,ppg_c,ppg_d,ppg_e
2026-04-07 17:48:46.257781,219464,1196630426,1196632122,-1.077504,0.050752,-0.091744,3.57,2.89625,-6.6325,43.184002,9.392,31.960001,none,4,3.0,22860.0,323790.0,291037.0,341521.0,300612.0
2026-04-07 17:48:46.260228,219465,1196639441,1196640846,-1.077504,0.050752,-0.091744,2.86125,3.31625,-6.30875,43.184002,9.392,31.960001,none,4,3.0,22860.0,323790.0,291037.0,341521.0,300612.0
2026-04-07 17:48:46.267365,219466,1196648410,1196649548,-1.077504,0.050752,-0.091744,2.8,3.56125,-5.57375,43.184002,9.392,31.960001,none,4,3.0,22860.0,323790.0,291037.0,341521.0,300612.0
2026-04-07 17:48:46.269258,219467,1196657357,1196658336,-1.077504,0.052704,-0.091744,2.3275,3.78875,-5.10125,43.664,9.152,31.048002,none,4,3.0,22860.0,323790.0,291037.0,341521.0,300612.0
2026-04-07 17:48:46.275240,219468,1196671844,1196673272,-1.081408,0.052704,-0.093696,2.03875,3.71,-5.22375,43.496002,9.792001,31.328001,none,4,3.0,22860.0,323790.0,291037.0,341521.0,300612.0
2026-04-07 17:48:46.334988,219469,1196680825,1196681984,-1.081408,0.052704,-0.093696,2.59,3.815,-5.18875,43.496002,9.792001,31.328001,none,4,3.0,22860.0,323790.0,291037.0,341521.0,300612.0
2026-04-07 17:48:46.339472,219470,1196689743,1196690668,-1.079456,0.0488,-0.091744,3.05375,4.095,-5.08375,43.888,9.776,34.048,none,4,3.0,22860.0,323790.0,291037.0,341521.0,300612.0
2026-04-07 17:48:46.341138,219471,1196704330,1196705610,-1.079456,0.0488,-0.091744,3.605,4.27,-5.0225,43.888,9.776,34.048,none,4,3.0,22860.0,323790.0,291037.0,341521.0,300612.0
2026-04-07 17:48:46.342870,219472,1196713283,1196714356,-1.08336,0.056608,-0.099552,4.36625,4.0775,-4.865,43.016003,9.92,31.744001,none,4,3.0,22860.0,323790.0,291037.0,341521.0,300612.0
2026-04-07 17:48:46.347155,219473,1196722218,1196723031,-1.08336,0.056608,-0.099552,4.76,3.75375,-5.18,43.016003,9.92,31.744001,none,4,3.0,22860.0,323790.0,291037.0,341521.0,300612.0
2026-04-07 17:48:46.374415,219484,1196731756,1196733868,-1.079456,0.05856,-0.083936,4.90875,4.33125,-4.94375,43.368004,9.76,31.592001,none,4,3.0,22835.0,323646.0,290911.0,341385.0,300510.0
2026-04-07 17:48:46.376133,219485,1196746327,1196746846,-1.079456,0.05856,-0.083936,4.22625,3.8325,-5.06625,43.368004,9.76,31.592001,none,4,3.0,22835.0,323646.0,290911.0,341385.0,300510.0
2026-04-07 17:48:46.377818,219486,1196756023,1196757665,-1.085312,0.0488,-0.083936,3.78,3.8325,-4.8825,43.04,8.912001,33.496002,none,4,3.0,22835.0,323646.0,290911.0,341385.0,300510.0
2026-04-07 17:48:46.381896,219487,1196764986,1196766400,-1.085312,0.0488,-0.083936,3.45625,4.0425,-5.285,43.04,8.912001,33.496002,none,4,3.0,22835.0,323646.0,290911.0,341385.0,300510.0
2026-04-07 17:48:46.383453,219488,1196773941,1196775155,-1.075552,0.040992,-0.0976,3.78875,4.43625,-4.59375,42.88,8.84,33.216003,none,4,3.0,22835.0,323646.0,290911.0,341385.0,300510.0
2026-04-07 17:48:46.413770,219489,1196788496,1196790180,-1.075552,0.040992,-0.0976,4.445,4.48,-4.5325,42.88,8.84,33.216003,none,4,3.0,22835.0,323646.0,290911.0,341385.0,300510.0
2026-04-07 17:48:46.416099,219490,1196797400,1196798857,-1.075552,0.044896,-0.08784,5.43375,4.4275,-4.2,43.096,8.984,32.192,none,4,3.0,22835.0,323646.0,290911.0,341385.0,300510.0
2026-04-07 17:48:46.420603,219491,1196806309,1196807549,-1.075552,0.044896,-0.08784,5.85375,4.08625,-3.885,43.096,8.984,32.192,none,4,3.0,22835.0,323646.0,290911.0,341385.0,300510.0
2026-04-07 17:48:46.424525,219492,1196820788,1196822535,-1.069696,0.044896,-0.095648,6.2125,4.2525,-3.61375,43.368004,9.496,31.792002,none,4,3.0,22835.0,323646.0,290911.0,341385.0,300510.0
2026-04-07 17:48:46.482365,219502,1196829828,1196831283,-1.069696,0.0488,-0.091744,5.73125,4.27875,-3.31625,43.368004,9.496,32.912003,none,4,3.0,22869.0,323804.0,291039.0,341485.0,300570.0
2026-04-07 17:48:46.483923,219503,1196838793,1196839998,-1.067744,0.0488,-0.091744,5.7575,4.34,-3.17625,43.624,9.216001,32.912003,none,4,3.0,22869.0,323804.0,291039.0,341485.0,300570.0
2026-04-07 17:48:46.488062,219504,1196853270,1196855012,-1.065792,0.05856,-0.085888,6.09875,4.43625,-3.1325,43.304,8.976001,32.112003,none,4,3.0,22869.0,323804.0,291039.0,341485.0,300570.0
2026-04-07 17:48:46.491899,219505,1196862237,1196863761,-1.065792,0.05856,-0.085888,6.02,4.90875,-3.4475,43.304,8.976001,32.112003,none,4,3.0,22869.0,323804.0,291039.0,341485.0,300570.0
2026-04-07 17:48:46.493554,219506,1196871167,1196872477,-1.056032,0.0488,-0.093696,5.80125,4.38375,-3.2025,43.592003,9.448001,32.096,none,4,3.0,22869.0,323804.0,291039.0,341485.0,300570.0
2026-04-07 17:48:46.496012,219507,1196880087,1196881175,-1.056032,0.0488,-0.093696,5.215,4.2525,-3.2725,43.592003,9.448001,32.096,none,4,3.0,22869.0,323804.0,291039.0,341485.0,300570.0
2026-04-07 17:48:46.503312,219508,1196894635,1196896091,-1.057984,0.03904,-0.093696,5.11,4.13875,-3.54375,42.864002,9.192,31.904001,none,4,3.0,22869.0,323804.0,291039.0,341485.0,300570.0
2026-04-07 17:48:46.509967,219509,1196903553,1196904760,-1.057984,0.03904,-0.093696,6.16875,4.33125,-3.71,42.864002,9.192,31.904001,none,4,3.0,22869.0,323804.0,291039.0,341485.0,300570.0
2026-04-07 17:48:46.515546,219510,1196912461,1196913474,-1.057984,0.046848,-0.095648,6.5275,4.38375,-3.42125,43.568,9.208,31.304,none,4,3.0,22869.0,323804.0,291039.0,341485.0,300570.0
2026-04-07 17:48:46.544164,219511,1196926933,1196928379,-1.057984,0.046848,-0.095648,6.97375,4.7425,-3.29875,43.568,9.208,31.304,none,4,3.0,22869.0,323804.0,291039.0,341485.0,300570.0
2026-04-07 17:48:46.571146,219521,1196935885,1196937125,-1.061888,0.05856,-0.081984,6.81625,4.9525,-3.05375,43.072002,9.224,31.544,none,4,3.0,22822.0,323432.0,290733.0,341129.0,300273.0
2026-04-07 17:48:46.572695,219522,1196944790,1196945877,-1.061888,0.05856,-0.081984,6.60625,4.31375,-2.8875,43.072002,9.224,31.544,none,4,3.0,22822.0,323432.0,290733.0,341129.0,300273.0
2026-04-07 17:48:46.576920,219523,1196959381,1196960777,-1.056032,0.050752,-0.07808,5.92375,4.29625,-3.2375,43.56,9.112,33.208,none,4,3.0,22822.0,323432.0,290733.0,341129.0,300273.0
2026-04-07 17:48:46.578581,219524,1196968308,1196969496,-1.056032,0.050752,-0.07808,4.82125,4.3225,-3.24625,43.56,9.112,33.208,none,4,3.0,22822.0,323432.0,290733.0,341129.0,300273.0
2026-04-07 17:48:46.580157,219525,1196977226,1196978221,-1.0736,0.037088,-0.0976,4.34875,4.06,-3.5525,43.208,9.168,34.872,none,4,3.0,22822.0,323432.0,290733.0,341129.0,300273.0
2026-04-07 17:48:46.655809,219526,1196991702,1196993115,-1.061888,0.03904,-0.101504,4.6375,4.41875,-3.255,43.008003,8.928,32.016003,none,4,3.0,22822.0,323432.0,290733.0,341129.0,300273.0
2026-04-07 17:48:46.658533,219527,1197000607,1197001742,-1.061888,0.03904,-0.101504,5.53875,4.34,-3.26375,43.008003,8.928,32.016003,none,4,3.0,22822.0,323432.0,290733.0,341129.0,300273.0
2026-04-07 17:48:46.665959,219528,1197009519,1197010436,-1.061888,0.03904,-0.101504,6.53625,4.31375,-3.66625,43.008003,8.928,32.016003,none,4,3.0,22822.0,323432.0,290733.0,341129.0,300273.0
2026-04-07 17:48:46.667559,219529,1197018445,1197019143,-1.0736,0.050752,-0.093696,7.0525,4.305,-3.24625,43.328003,9.080001,31.392002,none,4,3.0,22822.0,323432.0,290733.0,341129.0,300273.0
2026-04-07 17:48:46.693974,219540,1197033407,1197034226,-1.077504,0.046848,-0.081984,6.475,3.815,-2.8,44.336002,9.408,32.208,none,4,3.0,22807.0,323402.0,290708.0,341154.0,300290.0
2026-04-07 17:48:46.698138,219541,1197042349,1197042990,-1.077504,0.046848,-0.081984,5.80125,3.36875,-3.05375,44.336002,9.408,32.208,none,4,3.0,22807.0,323402.0,290708.0,341154.0,300290.0
2026-04-07 17:48:46.699867,219542,1197051623,1197053771,-1.0736,0.044896,-0.076128,4.38375,3.4475,-3.28125,43.632004,9.176001,31.008001,none,4,3.0,22807.0,323402.0,290708.0,341154.0,300290.0
2026-04-07 17:48:46.702367,219543,1197066102,1197066593,-1.0736,0.044896,-0.076128,3.5875,3.31625,-3.045,43.632004,9.176001,31.008001,none,4,3.0,22807.0,323402.0,290708.0,341154.0,300290.0
2026-04-07 17:48:46.703820,219544,1197075527,1197077421,-1.06384,0.03904,-0.081984,2.80875,3.7275,-3.15875,42.936,8.728001,34.664,none,4,3.0,22807.0,323402.0,290708.0,341154.0,300290.0
2026-04-07 17:48:46.708225,219545,1197084692,1197086229,-1.06384,0.03904,-0.081984,2.38,3.57875,-3.05375,42.936,8.728001,34.664,none,4,3.0,22807.0,323402.0,290708.0,341154.0,300290.0
2026-04-07 17:48:46.709883,219546,1197093713,1197094972,-1.069696,0.02928,-0.0976,1.365,3.71875,-3.07125,43.136,8.592,34.936,none,4,3.0,22807.0,323402.0,290708.0,341154.0,300290.0
2026-04-07 17:48:46.712207,219547,1197108204,1197109950,-1.069696,0.02928,-0.0976,1.575,3.9375,-2.9575,43.136,8.592,34.936,none,4,3.0,22807.0,323402.0,290708.0,341154.0,300290.0
2026-04-07 17:48:46.742662,219548,1197117142,1197118690,-1.069696,0.037088,-0.091744,2.28375,4.305,-2.8525,43.04,8.312,33.72,none,4,3.0,22807.0,323402.0,290708.0,341154.0,300290.0
2026-04-07 17:48:46.744852,219549,1197126144,1197127396,-1.069696,0.037088,-0.091744,2.8525,3.7625,-3.05375,43.04,8.312,33.72,none,4,3.0,22807.0,323402.0,290708.0,341154.0,300290.0
2026-04-07 17:48:46.770082,219559,1197140741,1197142392,-1.071648,0.044896,-0.080032,3.6925,2.9575,-3.89375,43.760002,9.568001,31.464,none,4,3.0,23148.0,326051.0,292825.0,343207.0,301930.0
2026-04-07 17:48:46.772600,219560,1197149647,1197151086,-1.071648,0.044896,-0.080032,4.0075,3.22,-4.76,43.760002,9.568001,31.464,none,4,3.0,23148.0,326051.0,292825.0,343207.0,301930.0
2026-04-07 17:48:46.775172,219561,1197158714,1197159796,-1.085312,0.052704,-0.080032,3.395,2.8875,-5.215,43.536003,8.84,31.504002,none,4,3.0,23148.0,326051.0,292825.0,343207.0,301930.0
2026-04-07 17:48:46.777706,219562,1197167731,1197168538,-1.085312,0.052704,-0.080032,2.66,2.89625,-5.5475,43.536003,8.84,31.504002,none,4,3.0,23148.0,326051.0,292825.0,343207.0,301930.0
2026-04-07 17:48:46.783903,219563,1197182271,1197183458,-1.089216,0.056608,-0.076128,2.82625,2.56375,-6.3,43.728,9.008,31.640001,none,4,3.0,23148.0,326051.0,292825.0,343207.0,301930.0
2026-04-07 17:48:46.815303,219564,1197191250,1197192162,-1.089216,0.040992,-0.08784,2.485,2.10875,-7.07875,43.728,9.008,31.640001,none,4,3.0,23148.0,326051.0,292825.0,343207.0,301930.0
2026-04-07 17:48:46.818878,219565,1197200183,1197200880,-1.100928,0.03904,-0.08784,1.4525,2.415,-7.49875,43.992,8.568001,30.864002,none,4,3.0,23148.0,326051.0,292825.0,343207.0,301930.0
2026-04-07 17:48:46.821543,219566,1197215038,1197215753,-1.104832,0.013664,-0.095648,0.46375,2.1525,-7.3325,43.512,8.96,32.264,none,4,3.0,23148.0,326051.0,292825.0,343207.0,301930.0
2026-04-07 17:48:46.827712,219567,1197224465,1197226551,-1.104832,0.013664,-0.095648,0.14875,1.91625,-7.14875,43.512,8.96,32.264,none,4,3.0,23148.0,326051.0,292825.0,343207.0,301930.0
2026-04-07 17:48:46.867708,219577,1197233914,1197235365,-1.114592,0.005856,-0.095648,-0.315,2.51125,-7.18375,43.624,8.696,33.344,none,4,3.0,23230.0,326793.0,293401.0,343792.0,302375.0
2026-04-07 17:48:46.870249,219578,1197243003,1197244104,-1.114592,0.005856,-0.095648,-0.1925,2.695,-6.475,43.624,8.696,33.344,none,4,3.0,23230.0,326793.0,293401.0,343792.0,302375.0
2026-04-07 17:48:46.872651,219579,1197257570,1197259022,-1.104832,0.017568,-0.08784,-0.28,2.68625,-5.775,43.440002,8.88,33.456,none,4,3.0,23230.0,326793.0,293401.0,343792.0,302375.0
2026-04-07 17:48:46.875224,219580,1197266514,1197267733,-1.104832,0.017568,-0.08784,-1.4525,3.1325,-5.285,43.440002,8.88,33.456,none,4,3.0,23230.0,326793.0,293401.0,343792.0,302375.0
2026-04-07 17:48:46.877730,219581,1197275456,1197276427,-1.114592,0.007808,-0.083936,-3.54375,2.7475,-4.97,43.320004,9.080001,33.152,none,4,3.0,23230.0,326793.0,293401.0,343792.0,302375.0
2026-04-07 17:48:46.932893,219582,1197289963,1197291326,-1.114592,0.007808,-0.083936,-5.20625,2.5375,-4.87375,43.320004,9.080001,33.152,none,4,3.0,23230.0,326793.0,293401.0,343792.0,302375.0
2026-04-07 17:48:46.936442,219583,1197298886,1197300036,-1.108736,0.013664,-0.083936,-6.01125,2.7475,-5.06625,43.728,8.72,31.712002,none,4,3.0,23230.0,326793.0,293401.0,343792.0,302375.0
2026-04-07 17:48:46.938843,219584,1197307786,1197308730,-1.108736,0.013664,-0.083936,-6.27375,3.0275,-5.10125,43.728,8.72,31.712002,none,4,3.0,23230.0,326793.0,293401.0,343792.0,302375.0
2026-04-07 17:48:46.941460,219585,1197322295,1197323686,-1.097024,0.00976,-0.093696,-4.96125,2.765,-5.64375,43.608,8.92,31.688002,none,4,3.0,23230.0,326793.0,293401.0,343792.0,302375.0
2026-04-07 17:48:46.968880,219596,1197331529,1197332343,-1.097024,0.00976,-0.093696,-4.15625,2.35375,-6.125,43.608,8.92,31.688002,none,4,3.0,23648.0,329960.0,295953.0,346227.0,304381.0
2026-04-07 17:48:46.971366,219597,1197340581,1197341075,-1.087264,0.00976,-0.0976,-3.78,2.09125,-6.34375,44.128002,8.688001,30.240002,none,4,3.0,23648.0,329960.0,295953.0,346227.0,304381.0
2026-04-07 17:48:46.974001,219598,1197349991,1197351945,-1.087264,0.00976,-0.0976,-3.91125,2.03,-6.9475,44.128002,8.688001,30.240002,none,4,3.0,23648.0,329960.0,295953.0,346227.0,304381.0
2026-04-07 17:48:46.976466,219599,1197364659,1197366943,-1.085312,-0.003904,-0.093696,-4.05125,1.89,-7.69125,43.960003,8.944,33.800003,none,4,3.0,23648.0,329960.0,295953.0,346227.0,304381.0
2026-04-07 17:48:46.978885,219600,1197373638,1197375675,-1.095072,-0.013664,-0.085888,-4.45375,1.51375,-7.7875,43.672,9.232,32.368,none,4,3.0,23648.0,329960.0,295953.0,346227.0,304381.0
2026-04-07 17:48:47.009352,219601,1197382590,1197384453,-1.095072,-0.013664,-0.085888,-4.41875,1.8725,-8.05875,43.672,9.232,32.368,none,4,3.0,23648.0,329960.0,295953.0,346227.0,304381.0
2026-04-07 17:48:47.012622,219602,1197391566,1197393189,-1.095072,-0.013664,-0.085888,-4.165,1.81125,-7.55125,43.672,9.232,32.368,none,4,3.0,23648.0,329960.0,295953.0,346227.0,304381.0
2026-04-07 17:48:47.015222,219603,1197406048,1197408084,-1.10288,-0.013664,-0.08784,-6.3525,2.415,-7.3325,43.904003,9.056001,31.824001,none,4,3.0,23648.0,329960.0,295953.0,346227.0,304381.0
2026-04-07 17:48:47.021423,219604,1197414934,1197416804,-1.126304,-0.044896,-0.109312,-9.625,2.6425,-7.00875,44.528004,10.096001,31.336002,none,4,3.0,23648.0,329960.0,295953.0,346227.0,304381.0
2026-04-07 17:48:47.027742,219605,1197423909,1197425502,-1.126304,-0.044896,-0.109312,-10.64,2.2575,-6.1075,44.528004,10.096001,31.336002,none,4,3.0,23648.0,329960.0,295953.0,346227.0,304381.0
2026-04-07 17:48:47.055169,219615,1197438536,1197440634,-1.124352,-0.052704,-0.121024,-9.8875,1.89875,-4.94375,43.480003,9.480001,32.808002,none,4,3.0,23528.0,329002.0,295140.0,345257.0,303539.0
2026-04-07 17:48:47.057637,219616,1197447486,1197449403,-1.124352,-0.052704,-0.121024,-6.60625,1.86375,-3.29,43.480003,9.480001,32.808002,none,4,3.0,23528.0,329002.0,295140.0,345257.0,303539.0
2026-04-07 17:48:47.061071,219617,1197456461,1197458112,-1.11264,-0.035136,-0.109312,-4.15625,2.00375,-3.85875,43.160004,8.88,32.872,none,4,3.0,23528.0,329002.0,295140.0,345257.0,303539.0
2026-04-07 17:48:47.090458,219618,1197470999,1197472991,-1.11264,-0.035136,-0.109312,-2.52875,2.555,-5.215,43.160004,8.88,32.872,none,4,3.0,23528.0,329002.0,295140.0,345257.0,303539.0
2026-04-07 17:48:47.093962,219619,1197479930,1197481706,-1.116544,0.01952,-0.08784,-1.0675,3.0275,-5.285,43.776,9.120001,31.816002,none,4,3.0,23528.0,329002.0,295140.0,345257.0,303539.0
2026-04-07 17:48:47.096443,219620,1197488874,1197490421,-1.116544,0.01952,-0.08784,-0.175,2.77375,-5.3375,43.776,9.120001,31.816002,none,4,3.0,23528.0,329002.0,295140.0,345257.0,303539.0
2026-04-07 17:48:47.126598,219621,1197503393,1197505337,-1.149728,0.0,-0.113216,-1.81125,2.91375,-6.72,44.024002,8.744,31.240002,none,4,3.0,23528.0,329002.0,295140.0,345257.0,303539.0
2026-04-07 17:48:47.130228,219622,1197512508,1197514035,-1.149728,0.0,-0.113216,-4.61125,2.02125,-6.51875,44.024002,8.744,31.240002,none,4,3.0,23528.0,329002.0,295140.0,345257.0,303539.0
2026-04-07 17:48:47.132679,219623,1197521483,1197522739,-1.110688,-0.02928,-0.113216,-6.195,1.645,-6.0025,43.368004,9.464001,31.168001,none,4,3.0,23528.0,329002.0,295140.0,345257.0,303539.0
2026-04-07 17:48:47.135961,219624,1197530405,1197531502,-1.110688,-0.02928,-0.113216,-5.2675,1.7325,-8.0675,43.368004,9.464001,31.168001,none,4,3.0,23528.0,329002.0,295140.0,345257.0,303539.0
2026-04-07 17:48:47.161079,219634,1197544965,1197546473,-1.095072,-0.03904,-0.101504,-3.14125,1.49625,-9.19625,43.2,9.288,31.008001,none,4,3.0,23064.0,324667.0,291390.0,340974.0,299819.0
2026-04-07 17:48:47.162559,219635,1197553893,1197555175,-1.104832,-0.005856,-0.109312,-0.63,1.5225,-9.05625,43.2,9.272,31.016,none,4,3.0,23064.0,324667.0,291390.0,340974.0,299819.0
2026-04-07 17:48:47.166770,219636,1197562895,1197563896,-1.104832,-0.005856,-0.109312,1.26,0.8575,-7.74375,43.2,9.272,31.016,none,4,3.0,23064.0,324667.0,291390.0,340974.0,299819.0
2026-04-07 17:48:47.195380,219637,1197577366,1197578801,-1.128256,0.005856,-0.113216,2.49375,0.55125,-7.0525,43.504,9.608001,31.192001,none,4,3.0,23064.0,324667.0,291390.0,340974.0,299819.0
2026-04-07 17:48:47.199943,219638,1197586293,1197587498,-1.128256,0.005856,-0.113216,1.5575,0.49,-6.39625,43.504,9.608001,31.192001,concentric,4,3.0,23064.0,324667.0,291390.0,340974.0,299819.0
2026-04-07 17:48:47.201479,219639,1197595194,1197596177,-1.15168,-0.011712,-0.093696,-0.2275,0.60375,-5.39875,43.744003,9.496,31.544,concentric,4,3.0,23064.0,324667.0,291390.0,340974.0,299819.0
2026-04-07 17:48:47.238859,219640,1197609713,1197611128,-1.15168,-0.011712,-0.093696,-2.24,1.21625,-5.17125,43.744003,9.496,31.544,concentric,4,3.0,23064.0,324667.0,291390.0,340974.0,299819.0
2026-04-07 17:48:47.243203,219641,1197618666,1197619832,-1.134112,-0.027328,-0.099552,-4.61125,0.035,-5.74875,43.496002,9.656,31.480001,concentric,4,3.0,23064.0,324667.0,291390.0,340974.0,299819.0
2026-04-07 17:48:47.244930,219642,1197627587,1197628506,-1.134112,-0.027328,-0.099552,-4.31375,0.175,-5.85375,43.496002,9.656,31.480001,concentric,4,3.0,23064.0,324667.0,291390.0,340974.0,299819.0
2026-04-07 17:48:47.272377,219653,1197636684,1197637637,-1.136064,-0.011712,-0.099552,-2.84375,0.7,-4.1125,43.584003,10.160001,31.400002,concentric,4,3.0,22474.0,318943.0,286414.0,335211.0,294875.0
2026-04-07 17:48:47.274099,219654,1197651219,1197652645,-1.136064,-0.011712,-0.099552,-1.67125,1.6625,-4.1125,43.584003,10.160001,31.400002,concentric,4,3.0,22474.0,318943.0,286414.0,335211.0,294875.0
2026-04-07 17:48:47.278277,219655,1197660159,1197661324,-1.124352,0.031232,-0.091744,-1.26,2.23125,-5.8275,42.2,9.504001,35.144,concentric,4,3.0,22474.0,318943.0,286414.0,335211.0,294875.0
2026-04-07 17:48:47.279792,219656,1197669135,1197670046,-1.124352,0.031232,-0.091744,-1.56625,3.05375,-7.44625,42.2,9.504001,35.144,concentric,4,3.0,22474.0,318943.0,286414.0,335211.0,294875.0
2026-04-07 17:48:47.310293,219657,1197683671,1197684984,-1.138016,0.060512,-0.066368,-1.9425,3.68375,-7.6825,42.920002,9.216001,33.392002,concentric,4,3.0,22474.0,318943.0,286414.0,335211.0,294875.0
2026-04-07 17:48:47.315283,219658,1197692600,1197693664,-1.138016,0.060512,-0.066368,-2.87,3.21125,-8.40875,42.920002,9.216001,33.392002,concentric,4,3.0,22474.0,318943.0,286414.0,335211.0,294875.0
2026-04-07 17:48:47.316271,219659,1197701526,1197702400,-1.139968,0.035136,-0.08784,-3.80625,2.135,-10.36875,43.272003,10.256001,29.712002,concentric,4,3.0,22474.0,318943.0,286414.0,335211.0,294875.0
2026-04-07 17:48:47.317667,219660,1197715978,1197717301,-1.124352,0.011712,-0.081984,-4.8125,1.925,-11.0075,43.272003,10.72,31.056002,concentric,4,3.0,22474.0,318943.0,286414.0,335211.0,294875.0
2026-04-07 17:48:47.348000,219661,1197724900,1197725997,-1.124352,0.011712,-0.081984,-6.37875,2.91375,-11.2525,43.272003,10.72,31.056002,concentric,4,3.0,22474.0,318943.0,286414.0,335211.0,294875.0
2026-04-07 17:48:47.377698,219671,1197733839,1197734670,-1.1712,-0.021472,-0.101504,-7.665,3.50875,-11.7425,43.272003,10.72,31.056002,concentric,4,3.0,22019.0,314373.0,282447.0,330648.0,291008.0
2026-04-07 17:48:47.382059,219672,1197748358,1197749609,-1.157536,-0.021472,-0.101504,-8.86375,3.71875,-10.745,43.160004,9.904,30.880001,concentric,4,3.0,22019.0,314373.0,282447.0,330648.0,291008.0
2026-04-07 17:48:47.383682,219673,1197757331,1197758396,-1.149728,-0.015616,-0.0976,-8.68875,3.57,-8.6275,42.384003,9.944,32.36,concentric,4,3.0,22019.0,314373.0,282447.0,330648.0,291008.0
2026-04-07 17:48:47.386205,219674,1197766297,1197767166,-1.149728,-0.015616,-0.0976,-8.295,3.4125,-7.28,42.384003,9.944,32.36,concentric,4,3.0,22019.0,314373.0,282447.0,330648.0,291008.0
2026-04-07 17:48:47.387691,219675,1197775222,1197775918,-1.163392,0.007808,-0.089792,-8.47,4.22625,-6.51875,43.064003,9.752001,31.160002,concentric,4,3.0,22019.0,314373.0,282447.0,330648.0,291008.0
2026-04-07 17:48:47.394741,219676,1197790161,1197790855,-1.163392,0.007808,-0.089792,-7.81375,4.27,-6.4925,43.064003,9.752001,31.160002,concentric,4,3.0,22019.0,314373.0,282447.0,330648.0,291008.0
2026-04-07 17:48:47.422861,219677,1197799467,1197801659,-1.157536,0.040992,-0.089792,-7.09625,3.6575,-5.81,42.624,10.144,32.416,concentric,4,3.0,22019.0,314373.0,282447.0,330648.0,291008.0
2026-04-07 17:48:47.427355,219678,1197808376,1197810346,-1.157536,0.040992,-0.089792,-6.1075,3.59625,-5.8625,42.624,10.144,32.416,concentric,4,3.0,22019.0,314373.0,282447.0,330648.0,291008.0
2026-04-07 17:48:47.428955,219679,1197823152,1197825276,-1.157536,0.062464,-0.08784,-5.04,4.305,-6.58,43.000004,10.608001,30.776001,concentric,4,3.0,22019.0,314373.0,282447.0,330648.0,291008.0
2026-04-07 17:48:47.458644,219689,1197832129,1197834499,-1.157536,0.062464,-0.08784,-5.2675,4.0775,-7.95375,43.000004,10.608001,30.776001,concentric,4,3.0,21648.0,310872.0,279451.0,327305.0,288287.0
2026-04-07 17:48:47.460319,219690,1197841067,1197843220,-1.1712,0.05856,-0.081984,-6.5625,4.24375,-9.0125,43.416,11.192,31.712002,concentric,4,3.0,21648.0,310872.0,279451.0,327305.0,288287.0
2026-04-07 17:48:47.464421,219691,1197850085,1197852390,-1.1712,0.05856,-0.081984,-7.70875,4.80375,-8.60125,43.416,11.192,31.712002,concentric,4,3.0,21648.0,310872.0,279451.0,327305.0,288287.0
2026-04-07 17:48:47.468147,219692,1197864548,1197865264,-1.177056,0.021472,-0.08784,-8.155,4.96125,-9.555,42.08,10.92,32.04,concentric,4,3.0,21648.0,310872.0,279451.0,327305.0,288287.0
2026-04-07 17:48:47.496638,219693,1197873931,1197876040,-1.177056,0.021472,-0.08784,-8.8375,4.235,-9.49375,42.08,10.92,32.04,concentric,4,3.0,21648.0,310872.0,279451.0,327305.0,288287.0
2026-04-07 17:48:47.500219,219694,1197882859,1197884722,-1.198528,0.013664,-0.109312,-8.26875,2.84375,-9.19625,42.936,11.416,30.904001,concentric,4,3.0,21648.0,310872.0,279451.0,327305.0,288287.0
2026-04-07 17:48:47.502785,219695,1197897336,1197897656,-1.192672,0.035136,-0.144448,-7.13125,1.26875,-7.34125,42.208,11.176001,30.552002,concentric,4,3.0,21648.0,310872.0,279451.0,327305.0,288287.0
2026-04-07 17:48:47.537871,219696,1197906576,1197908437,-1.192672,0.035136,-0.144448,-6.79875,0.51625,-7.84,42.208,11.176001,30.552002,concentric,4,3.0,21648.0,310872.0,279451.0,327305.0,288287.0
2026-04-07 17:48:47.541560,219697,1197915478,1197917138,-1.182912,0.042944,-0.083936,-7.76125,0.0,-6.64125,42.440002,11.072001,28.992,concentric,4,3.0,21648.0,310872.0,279451.0,327305.0,288287.0
2026-04-07 17:48:47.544728,219698,1197924400,1197925817,-1.182912,0.042944,-0.083936,-9.19625,0.5775,-5.25875,42.440002,11.072001,28.992,concentric,4,3.0,21648.0,310872.0,279451.0,327305.0,288287.0
2026-04-07 17:48:47.571511,219709,1197939002,1197941322,-1.204384,0.050752,-0.064416,-10.92875,0.77875,-5.71375,42.144,11.128,30.544,concentric,4,3.0,21184.0,306688.0,275970.0,323545.0,285593.0
2026-04-07 17:48:47.577698,219710,1197948005,1197950050,-1.204384,0.050752,-0.064416,-11.15625,-1.33875,-5.25875,42.144,11.128,30.544,concentric,4,3.0,21184.0,306688.0,275970.0,323545.0,285593.0
2026-04-07 17:48:47.580241,219711,1197956949,1197958811,-1.167296,0.08784,-0.08784,-9.31875,-2.14375,-4.97875,42.344,11.128,30.616001,concentric,4,3.0,21184.0,306688.0,275970.0,323545.0,285593.0
2026-04-07 17:48:47.582628,219712,1197971478,1197973751,-1.167296,0.08784,-0.08784,-7.88375,-1.33,-5.39,42.344,11.128,30.616001,concentric,4,3.0,21184.0,306688.0,275970.0,323545.0,285593.0
2026-04-07 17:48:47.585171,219713,1197980403,1197982489,-1.11264,0.0976,-0.023424,-8.54,0.105,-8.44375,42.536003,11.664001,30.688002,concentric,4,3.0,21184.0,306688.0,275970.0,323545.0,285593.0
2026-04-07 17:48:47.615277,219714,1197989326,1197991199,-1.11264,0.0976,-0.023424,-12.145,0.945,-12.03125,42.536003,11.664001,30.688002,concentric,4,3.0,21184.0,306688.0,275970.0,323545.0,285593.0
2026-04-07 17:48:47.618846,219715,1198003804,1198006092,-1.120448,0.105408,-0.060512,-15.14625,0.9275,-13.475,42.2,12.104001,29.784002,concentric,4,3.0,21184.0,306688.0,275970.0,323545.0,285593.0
2026-04-07 17:48:47.621356,219716,1198012712,1198014777,-1.120448,0.105408,-0.060512,-15.4,1.56625,-15.04125,42.2,12.104001,29.784002,concentric,4,3.0,21184.0,306688.0,275970.0,323545.0,285593.0
2026-04-07 17:48:47.626018,219717,1198021661,1198023463,-1.149728,0.074176,-0.076128,-15.88125,1.79375,-16.59875,42.144,12.096001,30.064001,concentric,4,3.0,21184.0,306688.0,275970.0,323545.0,285593.0
2026-04-07 17:48:47.633166,219718,1198030616,1198032195,-1.149728,0.074176,-0.076128,-14.88375,0.595,-17.1325,42.144,12.096001,30.064001,concentric,4,3.0,21184.0,306688.0,275970.0,323545.0,285593.0
2026-04-07 17:48:47.660139,219728,1198045230,1198047153,-1.134112,0.074176,-0.105408,-12.95,-0.2275,-17.28125,41.56,11.928,31.568,concentric,4,3.0,20876.0,303624.0,273252.0,320374.0,282834.0
2026-04-07 17:48:47.662625,219729,1198054213,1198055849,-1.134112,0.074176,-0.105408,-10.08875,-0.455,-18.22625,41.56,11.928,31.568,concentric,4,3.0,20876.0,303624.0,273252.0,320374.0,282834.0
2026-04-07 17:48:47.666340,219730,1198063216,1198064552,-1.118496,0.07808,-0.06832,-9.0125,-0.56875,-19.635,40.552002,12.080001,33.488003,concentric,4,3.0,20876.0,303624.0,273252.0,320374.0,282834.0
2026-04-07 17:48:47.696593,219731,1198077714,1198079464,-1.163392,0.091744,-0.064416,-9.91375,-0.28875,-20.51875,40.376003,11.440001,30.464,concentric,4,3.0,20876.0,303624.0,273252.0,320374.0,282834.0
2026-04-07 17:48:47.700198,219732,1198086654,1198088160,-1.163392,0.091744,-0.064416,-10.4475,-0.7,-20.825,40.376003,11.440001,30.464,concentric,4,3.0,20876.0,303624.0,273252.0,320374.0,282834.0
2026-04-07 17:48:47.703209,219733,1198095583,1198096845,-1.139968,0.083936,-0.070272,-10.167501,-1.575,-21.1925,40.376003,11.440001,31.552002,concentric,4,3.0,20876.0,303624.0,273252.0,320374.0,282834.0
2026-04-07 17:48:47.736621,219734,1198110059,1198111803,-1.139968,0.083936,-0.070272,-9.8875,-1.16375,-21.1925,40.592003,12.816001,31.552002,concentric,4,3.0,20876.0,303624.0,273252.0,320374.0,282834.0
2026-04-07 17:48:47.740260,219735,1198119052,1198120450,-1.179008,0.056608,-0.081984,-11.3925,-0.79625,-21.77,40.552002,12.632001,29.760002,concentric,4,3.0,20876.0,303624.0,273252.0,320374.0,282834.0
2026-04-07 17:48:47.742644,219736,1198127973,1198129140,-1.179008,0.056608,-0.081984,-11.0775,-0.34125,-22.91625,40.552002,12.632001,29.760002,concentric,4,3.0,20876.0,303624.0,273252.0,320374.0,282834.0
2026-04-07 17:48:47.767655,219746,1198142522,1198144567,-1.134112,0.056608,-0.074176,-9.17875,-0.175,-22.82,40.440002,13.296001,29.448002,concentric,4,3.0,20570.0,300736.0,270762.0,317504.0,280318.0
2026-04-07 17:48:47.770172,219747,1198151500,1198153325,-1.134112,0.056608,-0.074176,-7.3325,-1.1725,-22.68,40.440002,13.296001,29.448002,concentric,4,3.0,20570.0,300736.0,270762.0,317504.0,280318.0
2026-04-07 17:48:47.772642,219748,1198160451,1198162042,-1.110688,0.066368,-0.040992,-7.0875,-0.98875,-24.272501,40.736,14.016001,29.024002,concentric,4,3.0,20570.0,300736.0,270762.0,317504.0,280318.0
2026-04-07 17:48:47.775148,219749,1198169389,1198170732,-1.110688,0.066368,-0.040992,-8.40875,-1.8025,-25.0075,40.736,14.016001,29.024002,concentric,4,3.0,20570.0,300736.0,270762.0,317504.0,280318.0
2026-04-07 17:48:47.832978,219750,1198183964,1198185717,-1.098976,0.081984,-0.081984,-10.045,-1.4525,-25.9,39.960003,13.384001,29.664001,concentric,4,3.0,20570.0,300736.0,270762.0,317504.0,280318.0
2026-04-07 17:48:47.835194,219751,1198192929,1198194431,-1.098976,0.081984,-0.081984,-11.2175,-1.925,-26.7225,39.960003,13.384001,29.664001,concentric,4,3.0,20570.0,300736.0,270762.0,317504.0,280318.0
2026-04-07 17:48:47.838903,219752,1198201868,1198203124,-1.13216,0.070272,-0.081984,-10.50875,-2.59875,-26.80125,39.992,13.112,29.488,concentric,4,3.0,20570.0,300736.0,270762.0,317504.0,280318.0
2026-04-07 17:48:47.841449,219753,1198216340,1198218053,-1.1224,0.056608,-0.076128,-7.63,-3.42125,-27.83375,39.992,13.632001,28.576002,concentric,4,3.0,20570.0,300736.0,270762.0,317504.0,280318.0
2026-04-07 17:48:47.843934,219754,1198225250,1198226735,-1.1224,0.056608,-0.076128,-4.935,-4.59375,-28.74375,39.144,13.632001,28.576002,concentric,4,3.0,20570.0,300736.0,270762.0,317504.0,280318.0
2026-04-07 17:48:47.846370,219755,1198234202,1198235516,-1.1224,0.056608,-0.076128,-3.98125,-5.775,-30.31,39.144,13.632001,28.576002,concentric,4,3.0,20570.0,300736.0,270762.0,317504.0,280318.0
2026-04-07 17:48:47.877734,219766,1198248850,1198250553,-1.128256,0.056608,-0.089792,-1.32125,-6.545,-31.6575,38.456,13.496,29.160002,concentric,4,3.0,20208.0,297529.0,268137.0,314603.0,277653.0
2026-04-07 17:48:47.880178,219767,1198257806,1198259343,-1.091168,0.052704,-0.07808,2.89625,-6.90375,-32.9,38.224003,13.848001,30.936,concentric,4,3.0,20208.0,297529.0,268137.0,314603.0,277653.0
2026-04-07 17:48:47.882665,219768,1198266848,1198268052,-1.091168,0.052704,-0.07808,6.16,-6.7375,-34.4225,38.224003,13.848001,30.936,concentric,4,3.0,20208.0,297529.0,268137.0,314603.0,277653.0
2026-04-07 17:48:47.885207,219769,1198275853,1198276801,-1.091168,0.052704,-0.046848,4.095,-6.7725,-36.365,38.224003,13.848001,30.936,concentric,4,3.0,20208.0,297529.0,268137.0,314603.0,277653.0
2026-04-07 17:48:47.941544,219770,1198290363,1198291672,-1.098976,0.013664,-0.042944,0.84875,-6.685,-36.8375,37.84,14.76,28.616001,concentric,4,3.0,20208.0,297529.0,268137.0,314603.0,277653.0
2026-04-07 17:48:47.945268,219771,1198299430,1198300391,-1.04432,0.003904,-0.035136,-0.97125,-6.08125,-35.7525,38.344,14.64,29.608002,concentric,4,3.0,20208.0,297529.0,268137.0,314603.0,277653.0
2026-04-07 17:48:47.947667,219772,1198308408,1198309091,-1.04432,0.003904,-0.035136,-1.4,-5.18875,-34.2825,38.344,14.64,29.608002,concentric,4,3.0,20208.0,297529.0,268137.0,314603.0,277653.0
2026-04-07 17:48:47.950366,219773,1198323293,1198323965,-1.030656,-0.015616,-0.050752,0.35,-4.52375,-34.107502,37.152,14.728001,29.712002,concentric,4,3.0,20208.0,297529.0,268137.0,314603.0,277653.0
2026-04-07 17:48:47.953161,219774,1198332563,1198334795,-1.030656,-0.015616,-0.050752,4.06875,-4.48875,-32.64625,37.152,14.728001,29.712002,concentric,4,3.0,20208.0,297529.0,268137.0,314603.0,277653.0
2026-04-07 17:48:47.980296,219784,1198341661,1198343514,-1.009184,0.011712,-0.02928,7.14875,-3.675,-31.14125,36.872,14.912001,29.424002,concentric,4,3.0,20003.0,295831.0,266746.0,313186.0,276316.0
2026-04-07 17:48:47.984383,219785,1198350604,1198352231,-1.009184,0.011712,-0.02928,9.30125,-2.93125,-33.0925,36.872,14.912001,29.424002,concentric,4,3.0,20003.0,295831.0,266746.0,313186.0,276316.0
2026-04-07 17:48:47.988113,219786,1198365197,1198367167,-0.987712,0.021472,-0.064416,10.87625,-2.70375,-33.57375,36.192,14.792001,31.28,concentric,4,3.0,20003.0,295831.0,266746.0,313186.0,276316.0
2026-04-07 17:48:47.989851,219787,1198374202,1198375886,-0.987712,0.021472,-0.064416,12.792501,-2.42375,-34.107502,36.192,14.792001,31.28,concentric,4,3.0,20003.0,295831.0,266746.0,313186.0,276316.0
2026-04-07 17:48:47.994367,219788,1198383145,1198384607,-0.952576,-0.046848,-0.027328,11.795,-2.05625,-33.6875,36.312,14.832001,31.336002,concentric,4,3.0,20003.0,295831.0,266746.0,313186.0,276316.0
2026-04-07 17:48:48.023090,219789,1198397755,1198399508,-0.954528,-0.06832,0.015616,8.54,-1.84625,-32.22625,35.592003,15.496,31.336002,concentric,4,3.0,20003.0,295831.0,266746.0,313186.0,276316.0
2026-04-07 17:48:48.027422,219790,1198406748,1198408194,-0.954528,-0.06832,0.015616,6.2475,-1.435,-31.22,35.592003,15.496,31.336002,concentric,4,3.0,20003.0,295831.0,266746.0,313186.0,276316.0
2026-04-07 17:48:48.029598,219791,1198415680,1198416937,-0.954528,-0.06832,0.015616,6.6325,-0.74375,-29.8025,35.592003,15.496,31.336002,concentric,4,3.0,20003.0,295831.0,266746.0,313186.0,276316.0
2026-04-07 17:48:48.034342,219792,1198430208,1198431826,-0.989664,-0.00976,-0.013664,8.32125,-1.7325,-28.4025,35.656002,15.424001,30.104002,concentric,4,3.0,20003.0,295831.0,266746.0,313186.0,276316.0
2026-04-07 17:48:48.060290,219802,1198439468,1198440679,-0.9272,-0.02928,-0.076128,10.255,-3.4125,-27.90375,34.640003,15.496,32.728,concentric,4,3.0,19884.0,294868.0,266019.0,312502.0,275659.0
2026-04-07 17:48:48.064429,219803,1198448487,1198449406,-0.9272,-0.02928,-0.076128,10.50875,-4.0775,-27.125,34.640003,15.496,32.728,concentric,4,3.0,19884.0,294868.0,266019.0,312502.0,275659.0
2026-04-07 17:48:48.066109,219804,1198457416,1198458253,-0.880352,-0.07808,-0.042944,10.91125,-3.5525,-28.09625,36.688004,16.048,33.032,concentric,4,3.0,19884.0,294868.0,266019.0,312502.0,275659.0
2026-04-07 17:48:48.097560,219805,1198471944,1198473199,-0.880352,-0.07808,-0.042944,11.22625,-2.14375,-28.866251,35.312,16.048,33.032,concentric,4,3.0,19884.0,294868.0,266019.0,312502.0,275659.0
2026-04-07 17:48:48.099787,219806,1198480989,1198481950,-0.931104,-0.076128,-0.001952,11.445,-1.33,-30.0125,34.736,15.448001,30.472002,concentric,4,3.0,19884.0,294868.0,266019.0,312502.0,275659.0
2026-04-07 17:48:48.104900,219807,1198489912,1198490668,-0.931104,-0.076128,-0.001952,14.875,-0.65625,-30.73875,34.736,15.448001,30.472002,concentric,4,3.0,19884.0,294868.0,266019.0,312502.0,275659.0
2026-04-07 17:48:48.141381,219808,1198499249,1198501477,-0.872544,-0.08784,0.025376,18.50625,-0.07875,-30.4325,34.248,16.144001,30.896002,concentric,4,3.0,19884.0,294868.0,266019.0,312502.0,275659.0
2026-04-07 17:48:48.148324,219809,1198513760,1198514341,-0.872544,-0.08784,0.025376,19.18,-0.42,-30.56375,34.248,16.144001,30.896002,concentric,4,3.0,19884.0,294868.0,266019.0,312502.0,275659.0
2026-04-07 17:48:48.149909,219810,1198522942,1198525098,-0.817888,-0.124928,0.021472,14.4375,0.4375,-31.036251,34.120003,15.864,30.264002,concentric,4,3.0,19884.0,294868.0,266019.0,312502.0,275659.0
2026-04-07 17:48:48.151428,219811,1198531871,1198533819,-0.817888,-0.124928,0.021472,6.1425,1.18125,-29.70625,34.120003,15.864,30.264002,concentric,4,3.0,19884.0,294868.0,266019.0,312502.0,275659.0
2026-04-07 17:48:48.185321,219822,1198546704,1198548797,-0.825696,-0.154208,-0.025376,-0.07875,2.275,-28.98875,33.800003,15.912001,30.208002,concentric,4,3.0,19815.0,294382.0,265762.0,312596.0,275783.0
2026-04-07 17:48:48.188892,219823,1198555640,1198557540,-0.825696,-0.154208,-0.025376,0.7,3.6575,-27.125,33.800003,15.912001,30.208002,concentric,4,3.0,19815.0,294382.0,265762.0,312596.0,275783.0
2026-04-07 17:48:48.196417,219824,1198564558,1198566260,-0.79056,-0.132736,-0.015616,4.01625,4.27,-25.0075,33.024002,16.224,30.384,concentric,4,3.0,19815.0,294382.0,265762.0,312596.0,275783.0
2026-04-07 17:48:48.199867,219825,1198579168,1198581208,-0.782752,-0.105408,0.033184,10.66625,5.31125,-24.8675,33.744003,16.328001,32.016003,concentric,4,3.0,19815.0,294382.0,265762.0,312596.0,275783.0
2026-04-07 17:48:48.201377,219826,1198588119,1198589908,-0.782752,-0.105408,0.033184,18.1125,6.3,-24.43,33.744003,16.328001,32.016003,concentric,4,3.0,19815.0,294382.0,265762.0,312596.0,275783.0
2026-04-07 17:48:48.203923,219827,1198597054,1198598691,-0.782752,-0.105408,0.033184,18.9525,7.28875,-22.1725,33.744003,16.328001,32.016003,concentric,4,3.0,19815.0,294382.0,265762.0,312596.0,275783.0
2026-04-07 17:48:48.209109,219828,1198606012,1198607412,-0.745664,-0.162016,0.054656,10.68375,7.455,-20.46625,33.216003,16.232,31.984001,concentric,4,3.0,19815.0,294382.0,265762.0,312596.0,275783.0
2026-04-07 17:48:48.239063,219829,1198620495,1198622319,-0.763232,-0.171776,0.037088,1.1375,7.42,-17.5525,32.904003,16.776001,32.2,concentric,4,3.0,19815.0,294382.0,265762.0,312596.0,275783.0
2026-04-07 17:48:48.242652,219830,1198629422,1198631046,-0.763232,-0.171776,0.037088,-1.60125,9.03,-13.50125,32.904003,16.776001,32.2,concentric,4,3.0,19815.0,294382.0,265762.0,312596.0,275783.0
2026-04-07 17:48:48.267711,219840,1198638560,1198639673,-0.749568,-0.12688,-0.015616,0.60375,9.30125,-10.4125,32.904003,16.368,31.2,concentric,4,3.0,19640.0,293088.0,264880.0,312019.0,275495.0
2026-04-07 17:48:48.270135,219841,1198653157,1198654672,-0.749568,-0.12688,-0.015616,3.71,8.56625,-10.07125,32.904003,16.368,31.2,concentric,4,3.0,19640.0,293088.0,264880.0,312019.0,275495.0
2026-04-07 17:48:48.274574,219842,1198662104,1198663389,-0.831552,-0.06832,-0.02928,9.86125,8.32125,-9.6775,33.008003,16.744001,30.904001,concentric,4,3.0,19640.0,293088.0,264880.0,312019.0,275495.0
2026-04-07 17:48:48.275390,219843,1198671077,1198672111,-0.831552,-0.06832,-0.02928,16.24875,8.417501,-7.56,33.008003,16.744001,30.904001,concentric,4,3.0,19640.0,293088.0,264880.0,312019.0,275495.0
2026-04-07 17:48:48.305332,219844,1198685706,1198687065,-0.745664,-0.132736,0.025376,15.44375,6.13375,-4.89125,33.68,16.832,30.576002,concentric,4,3.0,19640.0,293088.0,264880.0,312019.0,275495.0
2026-04-07 17:48:48.308994,219845,1198694617,1198695753,-0.745664,-0.132736,0.025376,6.02875,5.50375,-2.1525,33.68,16.832,30.576002,concentric,4,3.0,19640.0,293088.0,264880.0,312019.0,275495.0
2026-04-07 17:48:48.311483,219846,1198703514,1198704462,-0.831552,-0.162016,-0.001952,-2.8875,6.39625,1.16375,33.416,16.872002,30.312002,concentric,4,3.0,19640.0,293088.0,264880.0,312019.0,275495.0
2026-04-07 17:48:48.315209,219847,1198712444,1198713210,-0.831552,-0.162016,-0.001952,-3.84125,7.56,2.5025,33.416,16.872002,30.312002,concentric,4,3.0,19640.0,293088.0,264880.0,312019.0,275495.0
2026-04-07 17:48:48.345414,219848,1198727333,1198728224,-0.815936,-0.113216,0.027328,2.05625,8.47875,4.2175,33.912003,16.376001,32.328003,concentric,4,3.0,19640.0,293088.0,264880.0,312019.0,275495.0
2026-04-07 17:48:48.348945,219849,1198736307,1198736940,-0.815936,-0.113216,0.027328,7.5075,10.43875,6.265,33.912003,16.376001,32.328003,concentric,4,3.0,19640.0,293088.0,264880.0,312019.0,275495.0
2026-04-07 17:48:48.373974,219859,1198745613,1198747744,-0.901824,-0.076128,-0.023424,10.955,11.0075,6.7025,33.600002,16.408,29.496002,concentric,4,3.0,19523.0,292091.0,264072.0,311229.0,274977.0
2026-04-07 17:48:48.376408,219860,1198760122,1198760624,-0.895968,-0.076128,-0.021472,12.46,11.2,9.84375,32.896,16.04,33.648003,concentric,4,3.0,19523.0,292091.0,264072.0,311229.0,274977.0
2026-04-07 17:48:48.378908,219861,1198769569,1198771503,-0.895968,-0.076128,-0.021472,8.435,10.4125,12.94125,32.896,16.04,33.648003,concentric,4,3.0,19523.0,292091.0,264072.0,311229.0,274977.0
2026-04-07 17:48:48.381403,219862,1198778513,1198780233,-0.895968,-0.124928,-0.011712,-0.28,8.5925,14.20125,32.896,16.04,31.600002,concentric,4,3.0,19523.0,292091.0,264072.0,311229.0,274977.0
2026-04-07 17:48:48.438686,219863,1198787518,1198788960,-0.94672,-0.124928,-0.011712,-7.81375,6.5975,15.79375,33.472,15.744,31.856,concentric,4,3.0,19523.0,292091.0,264072.0,311229.0,274977.0
2026-04-07 17:48:48.443195,219864,1198801982,1198803844,-1.038464,-0.040992,-0.062464,-7.91,4.64625,17.7625,34.088,15.928,30.912,concentric,4,3.0,19523.0,292091.0,264072.0,311229.0,274977.0
2026-04-07 17:48:48.444884,219865,1198810904,1198812551,-1.038464,-0.040992,-0.062464,-2.0825,2.86125,19.29375,34.088,15.928,30.912,concentric,4,3.0,19523.0,292091.0,264072.0,311229.0,274977.0
2026-04-07 17:48:48.447398,219866,1198819814,1198821238,-1.007232,-0.042944,-0.064416,2.66,1.05,19.145,35.536003,15.776001,31.744001,concentric,4,3.0,19523.0,292091.0,264072.0,311229.0,274977.0
2026-04-07 17:48:48.448923,219867,1198834281,1198836145,-1.007232,-0.042944,-0.064416,3.10625,-0.5425,19.355,35.536003,15.776001,31.744001,concentric,4,3.0,19523.0,292091.0,264072.0,311229.0,274977.0
2026-04-07 17:48:48.478621,219877,1198843399,1198844931,-1.057984,-0.080032,-0.00976,2.94875,-1.9075,19.97625,35.432003,15.280001,30.504002,eccentric,4,3.0,19520.0,291836.0,263837.0,310928.0,274739.0
2026-04-07 17:48:48.481143,219878,1198852396,1198853693,-1.057984,-0.080032,-0.00976,2.8875,-2.7825,20.67625,35.432003,15.280001,30.504002,eccentric,4,3.0,19520.0,291836.0,263837.0,310928.0,274739.0
2026-04-07 17:48:48.482647,219879,1198866970,1198868641,-1.061888,-0.074176,0.02928,1.60125,-4.20875,21.2975,35.312,15.192,32.472,eccentric,4,3.0,19520.0,291836.0,263837.0,310928.0,274739.0
2026-04-07 17:48:48.486919,219880,1198875870,1198877340,-1.061888,-0.074176,0.02928,0.5775,-5.36375,22.82875,35.312,15.192,32.472,eccentric,4,3.0,19520.0,291836.0,263837.0,310928.0,274739.0
2026-04-07 17:48:48.488569,219881,1198884790,1198886058,-1.046272,-0.091744,-0.011712,0.79625,-5.67875,24.12375,35.968002,15.224001,32.376003,eccentric,4,3.0,19520.0,291836.0,263837.0,310928.0,274739.0
2026-04-07 17:48:48.518837,219882,1198893785,1198894793,-1.046272,-0.091744,-0.011712,-1.4875,-5.50375,26.01375,35.968002,15.224001,32.376003,eccentric,4,3.0,19520.0,291836.0,263837.0,310928.0,274739.0
2026-04-07 17:48:48.523303,219883,1198908297,1198909704,-1.00528,-0.080032,0.02928,-3.57875,-4.7425,25.725,36.104,15.240001,30.760002,eccentric,4,3.0,19520.0,291836.0,263837.0,310928.0,274739.0
2026-04-07 17:48:48.525753,219884,1198917292,1198918381,-1.00528,-0.080032,0.02928,-1.98625,-1.93375,26.29375,36.104,15.240001,30.760002,eccentric,4,3.0,19520.0,291836.0,263837.0,310928.0,274739.0
2026-04-07 17:48:48.528869,219885,1198926199,1198927075,-1.059936,0.017568,0.011712,0.88375,0.30625,27.69375,36.672,14.784,30.232002,eccentric,4,3.0,19520.0,291836.0,263837.0,310928.0,274739.0
2026-04-07 17:48:48.601423,219896,1198941191,1198941992,-1.050176,-0.015616,0.013664,0.48125,1.05875,26.97625,37.312,14.848001,30.720001,eccentric,4,3.0,19623.0,292490.0,264277.0,311163.0,274743.0
2026-04-07 17:48:48.603880,219897,1198950651,1198952800,-1.050176,-0.015616,0.013664,-2.415,1.04125,27.06375,37.312,14.848001,30.720001,eccentric,4,3.0,19623.0,292490.0,264277.0,311163.0,274743.0
2026-04-07 17:48:48.606418,219898,1198959579,1198961532,-0.99552,-0.132736,0.021472,-6.9475,0.84,27.405,37.312,14.576001,30.304,eccentric,4,3.0,19623.0,292490.0,264277.0,311163.0,274743.0
2026-04-07 17:48:48.608973,219899,1198968656,1198970264,-0.99552,-0.132736,0.021472,-12.18,1.30375,26.565,37.320004,14.576001,30.304,eccentric,4,3.0,19623.0,292490.0,264277.0,311163.0,274743.0
2026-04-07 17:48:48.611444,219900,1198983213,1198985196,-0.954528,-0.124928,0.0,-14.2275,2.82625,25.8125,37.416,14.64,32.832,eccentric,4,3.0,19623.0,292490.0,264277.0,311163.0,274743.0
2026-04-07 17:48:48.613919,219901,1198992160,1198993911,-0.954528,-0.124928,0.0,-11.10375,5.2325,26.53,37.416,14.64,32.832,eccentric,4,3.0,19623.0,292490.0,264277.0,311163.0,274743.0
2026-04-07 17:48:48.616372,219902,1199001136,1199002633,-0.999424,0.005856,-0.033184,-3.6225,8.79375,26.94125,38.752003,13.856001,30.736002,eccentric,4,3.0,19623.0,292490.0,264277.0,311163.0,274743.0
2026-04-07 17:48:48.618917,219903,1199015641,1199017547,-0.999424,0.005856,-0.033184,4.655,12.67,26.1975,38.752003,13.856001,30.736002,eccentric,4,3.0,19623.0,292490.0,264277.0,311163.0,274743.0
2026-04-07 17:48:48.649039,219904,1199024609,1199026247,-0.981856,0.040992,0.003904,8.855001,15.86375,25.2525,38.920002,13.880001,29.784002,eccentric,4,3.0,19623.0,292490.0,264277.0,311163.0,274743.0
2026-04-07 17:48:48.652619,219905,1199033541,1199034936,-0.981856,0.040992,0.003904,7.7875,18.50625,24.29875,38.920002,13.880001,29.784002,eccentric,4,3.0,19623.0,292490.0,264277.0,311163.0,274743.0
2026-04-07 17:48:48.681381,219915,1199048084,1199049901,-0.972096,-0.052704,0.042944,0.09625,21.6825,23.40625,39.528004,13.608001,29.920002,eccentric,4,3.0,19890.0,295149.0,266471.0,313526.0,276677.0
2026-04-07 17:48:48.683955,219916,1199057074,1199058663,-0.972096,-0.052704,0.042944,-9.1175,22.365,22.32125,39.528004,13.608001,29.920002,eccentric,4,3.0,19890.0,295149.0,266471.0,313526.0,276677.0
2026-04-07 17:48:48.686440,219917,1199066184,1199067366,-1.057984,-0.046848,-0.052704,-13.448751,21.98875,20.5625,38.256,13.008,31.760002,eccentric,4,3.0,19890.0,295149.0,266471.0,313526.0,276677.0
2026-04-07 17:48:48.688865,219918,1199075132,1199076067,-1.057984,-0.046848,-0.052704,-9.4675,20.8775,18.9,38.256,13.008,31.760002,eccentric,4,3.0,19890.0,295149.0,266471.0,313526.0,276677.0
2026-04-07 17:48:48.692621,219919,1199089642,1199090989,-1.065792,0.056608,-0.10736,2.52875,19.46875,16.73,38.448,12.896001,31.352001,eccentric,4,3.0,19890.0,295149.0,266471.0,313526.0,276677.0
2026-04-07 17:48:48.736572,219920,1199098573,1199099663,-1.065792,0.056608,-0.10736,11.095,18.38375,14.875,38.448,12.896001,31.352001,eccentric,4,3.0,19890.0,295149.0,266471.0,313526.0,276677.0
2026-04-07 17:48:48.740228,219921,1199107499,1199108344,-1.04432,0.023424,-0.0976,10.10625,17.045,11.935,39.728,13.736001,29.872002,eccentric,4,3.0,19890.0,295149.0,266471.0,313526.0,276677.0
2026-04-07 17:48:48.742764,219922,1199121980,1199123244,-1.081408,-0.00976,-0.035136,4.375,15.56625,10.0625,39.496002,13.024,30.032001,eccentric,4,3.0,19890.0,295149.0,266471.0,313526.0,276677.0
2026-04-07 17:48:48.745221,219923,1199130882,1199131962,-1.081408,-0.00976,-0.035136,1.295,15.82,10.5525,39.496002,13.024,30.032001,eccentric,4,3.0,19890.0,295149.0,266471.0,313526.0,276677.0
2026-04-07 17:48:48.751420,219924,1199139820,1199140642,-1.081408,-0.00976,-0.062464,-0.74375,16.4675,10.3425,39.496002,13.024,30.032001,eccentric,4,3.0,19890.0,295149.0,266471.0,313526.0,276677.0
2026-04-07 17:48:48.776393,219934,1199154424,1199155625,-1.1224,-0.035136,-0.062464,-4.66375,16.77375,8.44375,40.072002,13.032001,29.864002,eccentric,4,3.0,20038.0,297011.0,268269.0,315765.0,278612.0
2026-04-07 17:48:48.780741,219935,1199163328,1199164387,-1.104832,-0.013664,-0.10736,-4.61125,15.96875,7.5425,40.72,12.912001,31.080002,eccentric,4,3.0,20038.0,297011.0,268269.0,315765.0,278612.0
2026-04-07 17:48:48.782334,219936,1199172354,1199173164,-1.104832,-0.013664,-0.10736,0.48125,15.198751,7.39375,40.72,12.912001,31.080002,eccentric,4,3.0,20038.0,297011.0,268269.0,315765.0,278612.0
2026-04-07 17:48:48.785919,219937,1199181941,1199183971,-1.116544,0.066368,-0.052704,6.08125,14.44625,5.85375,40.624,12.192,31.136002,eccentric,4,3.0,20038.0,297011.0,268269.0,315765.0,278612.0
2026-04-07 17:48:48.816228,219938,1199196485,1199196819,-1.116544,0.066368,-0.052704,9.87875,13.4575,3.29875,40.624,12.192,31.136002,eccentric,4,3.0,20038.0,297011.0,268269.0,315765.0,278612.0
2026-04-07 17:48:48.820733,219939,1199205720,1199207575,-1.145824,0.044896,-0.099552,10.52625,13.230001,2.03,40.776,12.352,29.52,eccentric,4,3.0,20038.0,297011.0,268269.0,315765.0,278612.0
2026-04-07 17:48:48.822644,219940,1199214653,1199216315,-1.145824,0.044896,-0.099552,7.18375,13.1075,0.42875,40.776,12.352,29.52,eccentric,4,3.0,20038.0,297011.0,268269.0,315765.0,278612.0
2026-04-07 17:48:48.852636,219941,1199229188,1199231244,-1.052128,-0.081984,-0.089792,0.55125,12.80125,-1.6625,40.688004,12.000001,30.864002,eccentric,4,3.0,20038.0,297011.0,268269.0,315765.0,278612.0
2026-04-07 17:48:48.854992,219942,1199238103,1199239948,-1.052128,-0.081984,-0.089792,-3.07125,13.195,-3.10625,40.688004,12.000001,30.864002,eccentric,4,3.0,20038.0,297011.0,268269.0,315765.0,278612.0
2026-04-07 17:48:48.892544,219953,1199247075,1199248778,-1.089216,-0.021472,-0.062464,-0.21875,14.0175,-4.7775,40.56,12.536,29.728,eccentric,4,3.0,20218.0,299193.0,270374.0,318310.0,280844.0
2026-04-07 17:48:48.894024,219954,1199255986,1199257527,-1.089216,-0.021472,-0.062464,8.30375,15.4875,-5.075,40.56,12.536,29.728,eccentric,4,3.0,20218.0,299193.0,270374.0,318310.0,280844.0
2026-04-07 17:48:48.898481,219955,1199270496,1199272463,-1.14192,0.089792,-0.01952,14.3325,16.6075,-4.73375,41.08,12.648001,29.168001,eccentric,4,3.0,20218.0,299193.0,270374.0,318310.0,280844.0
2026-04-07 17:48:48.900874,219956,1199279427,1199281210,-1.14192,0.089792,-0.01952,15.88125,16.84375,-4.6725,41.08,12.648001,29.168001,eccentric,4,3.0,20218.0,299193.0,270374.0,318310.0,280844.0
2026-04-07 17:48:48.905014,219957,1199288357,1199289932,-1.038464,0.021472,-0.062464,9.63375,16.77375,-4.41,40.832,12.488001,31.992,eccentric,4,3.0,20218.0,299193.0,270374.0,318310.0,280844.0
2026-04-07 17:48:48.906510,219958,1199302928,1199305003,-1.071648,-0.03904,-0.076128,-1.63625,17.33375,-5.94125,40.128002,11.960001,32.920002,eccentric,4,3.0,20218.0,299193.0,270374.0,318310.0,280844.0
2026-04-07 17:48:48.936915,219959,1199311993,1199313758,-1.071648,-0.03904,-0.076128,-6.895,17.7625,-8.32125,40.128002,11.960001,32.920002,eccentric,4,3.0,20218.0,299193.0,270374.0,318310.0,280844.0
2026-04-07 17:48:48.940213,219960,1199320924,1199322444,-1.071648,0.070272,-0.074176,-2.3975,18.6375,-10.3425,40.128002,11.960001,26.776001,eccentric,4,3.0,20218.0,299193.0,270374.0,318310.0,280844.0
2026-04-07 17:48:48.942676,219961,1199335416,1199337338,-1.09312,0.070272,-0.074176,4.69,18.94375,-12.01375,41.064003,13.064001,28.240002,eccentric,4,3.0,20218.0,299193.0,270374.0,318310.0,280844.0
2026-04-07 17:48:48.971402,219971,1199344417,1199346191,-1.118496,0.093696,-0.083936,13.125,18.8825,-14.21875,41.288002,12.480001,29.2,eccentric,4,3.0,20241.0,299742.0,271159.0,319414.0,281863.0
2026-04-07 17:48:48.973871,219972,1199353458,1199354913,-1.118496,0.093696,-0.083936,20.0375,16.87,-13.9475,41.288002,12.480001,29.2,eccentric,4,3.0,20241.0,299742.0,271159.0,319414.0,281863.0
2026-04-07 17:48:48.976390,219973,1199362400,1199363593,-1.1224,0.035136,-0.124928,17.15,14.13125,-13.055,40.816,12.432,32.832,eccentric,4,3.0,20241.0,299742.0,271159.0,319414.0,281863.0
2026-04-07 17:48:48.978857,219974,1199376947,1199378538,-1.1224,0.035136,-0.124928,11.82125,11.4275,-13.67625,40.816,12.432,32.832,eccentric,4,3.0,20241.0,299742.0,271159.0,319414.0,281863.0
2026-04-07 17:48:49.035425,219975,1199385951,1199387298,-1.081408,0.054656,-0.095648,10.00125,10.115,-12.3375,40.736,12.480001,30.856,eccentric,4,3.0,20241.0,299742.0,271159.0,319414.0,281863.0
2026-04-07 17:48:49.038945,219976,1199394850,1199395996,-1.081408,0.054656,-0.095648,10.2375,11.1125,-12.1625,40.736,12.480001,30.856,eccentric,4,3.0,20241.0,299742.0,271159.0,319414.0,281863.0
2026-04-07 17:48:49.041455,219977,1199409320,1199410898,-1.09312,-0.003904,-0.093696,7.35,11.305,-12.775,41.656002,12.616,29.016,eccentric,4,3.0,20241.0,299742.0,271159.0,319414.0,281863.0
2026-04-07 17:48:49.043956,219978,1199418234,1199419574,-1.09312,-0.003904,-0.093696,1.33,10.2375,-11.0775,41.656002,12.616,29.016,eccentric,4,3.0,20241.0,299742.0,271159.0,319414.0,281863.0
2026-04-07 17:48:49.046419,219979,1199427141,1199428250,-1.15168,0.00976,-0.111264,2.835,8.6275,-7.525,41.72,12.344001,29.328001,eccentric,4,3.0,20241.0,299742.0,271159.0,319414.0,281863.0
2026-04-07 17:48:49.071467,219989,1199441638,1199443153,-1.081408,0.044896,-0.134688,8.54875,7.11375,-1.995,41.72,12.344001,31.752,eccentric,4,3.0,20628.0,303661.0,274521.0,323278.0,285175.0
2026-04-07 17:48:49.074030,219990,1199450639,1199451982,-1.081408,0.044896,-0.134688,8.61,5.53875,1.9075,41.528004,12.352,31.752,eccentric,4,3.0,20628.0,303661.0,274521.0,323278.0,285175.0
2026-04-07 17:48:49.076444,219991,1199459589,1199460674,-1.081408,0.044896,-0.134688,6.5625,3.5875,1.54,41.528004,12.352,31.752,eccentric,4,3.0,20628.0,303661.0,274521.0,323278.0,285175.0
2026-04-07 17:48:49.078829,219992,1199474053,1199475607,-1.061888,0.083936,-0.12688,7.49875,2.05625,1.98625,41.640003,12.568001,30.176,eccentric,4,3.0,20628.0,303661.0,274521.0,323278.0,285175.0
2026-04-07 17:48:49.109106,219993,1199482996,1199484367,-1.11264,0.111264,-0.081984,8.015,1.30375,4.57625,41.536003,12.672001,29.648,eccentric,4,3.0,20628.0,303661.0,274521.0,323278.0,285175.0
2026-04-07 17:48:49.112603,219994,1199491950,1199493086,-1.11264,0.111264,-0.081984,8.3475,0.455,4.515,41.536003,12.672001,29.648,eccentric,4,3.0,20628.0,303661.0,274521.0,323278.0,285175.0
2026-04-07 17:48:49.115187,219995,1199500868,1199501780,-1.11264,0.111264,-0.081984,11.97,0.245,3.35125,41.536003,12.672001,29.648,eccentric,4,3.0,20628.0,303661.0,274521.0,323278.0,285175.0
2026-04-07 17:48:49.117640,219996,1199515326,1199516709,-1.110688,0.128832,-0.10736,13.95625,0.56,2.66875,41.656002,11.984,29.928001,eccentric,4,3.0,20628.0,303661.0,274521.0,323278.0,285175.0
2026-04-07 17:48:49.147970,219997,1199524250,1199525397,-1.124352,0.115168,-0.08784,12.87125,1.05875,0.3325,41.504,11.960001,31.608002,eccentric,4,3.0,20628.0,303661.0,274521.0,323278.0,285175.0
2026-04-07 17:48:49.151481,219998,1199533169,1199534106,-1.124352,0.115168,-0.08784,12.17125,1.1725,-1.2775,41.504,11.960001,31.608002,eccentric,4,3.0,20628.0,303661.0,274521.0,323278.0,285175.0
2026-04-07 17:48:49.178872,220009,1199547791,1199549069,-1.188768,0.080032,-0.115168,7.77,1.21625,-2.40625,42.224003,11.744,29.824001,eccentric,4,3.0,20982.0,306762.0,277093.0,326051.0,287735.0
2026-04-07 17:48:49.181367,220010,1199556699,1199557792,-1.188768,0.080032,-0.115168,0.90125,-1.46125,-2.37125,42.224003,11.744,29.824001,eccentric,4,3.0,20982.0,306762.0,277093.0,326051.0,287735.0
2026-04-07 17:48:49.183935,220011,1199565628,1199566522,-1.18096,0.023424,-0.152256,-2.98375,-5.1625,-0.95375,42.344,12.016001,29.840002,eccentric,4,3.0,20982.0,306762.0,277093.0,326051.0,287735.0
2026-04-07 17:48:49.186423,220012,1199580119,1199581487,-1.18096,0.023424,-0.152256,-0.81375,-6.62375,1.1375,42.344,12.016001,29.840002,eccentric,4,3.0,20982.0,306762.0,277093.0,326051.0,287735.0
2026-04-07 17:48:49.227652,220013,1199589081,1199590235,-1.167296,0.037088,-0.193248,4.55875,-7.56,3.08875,42.912003,11.992001,30.672,eccentric,4,3.0,20982.0,306762.0,277093.0,326051.0,287735.0
2026-04-07 17:48:49.232402,220014,1199597979,1199598987,-1.167296,0.037088,-0.193248,9.12625,-8.28625,5.08375,42.912003,11.992001,30.672,eccentric,4,3.0,20982.0,306762.0,277093.0,326051.0,287735.0
2026-04-07 17:48:49.234032,220015,1199612454,1199613891,-1.194624,0.046848,-0.160064,11.34875,-9.3275,6.23,42.472,11.512,29.880001,eccentric,4,3.0,20982.0,306762.0,277093.0,326051.0,287735.0
2026-04-07 17:48:49.236040,220016,1199621388,1199622595,-1.194624,0.046848,-0.160064,14.00875,-10.36875,8.32125,42.472,11.512,29.880001,eccentric,4,3.0,20982.0,306762.0,277093.0,326051.0,287735.0
2026-04-07 17:48:49.237564,220017,1199630267,1199631350,-1.188768,0.042944,-0.103456,15.82,-11.6725,9.93125,43.096,11.992001,29.344002,eccentric,4,3.0,20982.0,306762.0,277093.0,326051.0,287735.0
2026-04-07 17:48:49.243009,220018,1199639213,1199640106,-1.188768,0.042944,-0.103456,16.70375,-12.5475,11.0775,43.096,11.992001,29.344002,eccentric,4,3.0,20982.0,306762.0,277093.0,326051.0,287735.0
2026-04-07 17:48:49.267357,220028,1199653865,1199655071,-1.139968,0.062464,-0.056608,16.2925,-12.775,12.67875,43.088,11.032001,31.848001,eccentric,4,3.0,21630.0,312744.0,281993.0,331479.0,292634.0
2026-04-07 17:48:49.268980,220029,1199662761,1199663816,-1.118496,0.064416,-0.037088,15.42625,-11.3925,12.145,43.088,11.032001,30.336002,eccentric,4,3.0,21630.0,312744.0,281993.0,331479.0,292634.0
2026-04-07 17:48:49.275540,220030,1199671738,1199672535,-1.118496,0.064416,-0.037088,12.915,-9.66,11.5675,43.840004,11.032001,30.336002,eccentric,4,3.0,21630.0,312744.0,281993.0,331479.0,292634.0
2026-04-07 17:48:49.337695,220031,1199686194,1199687471,-1.124352,0.066368,-0.060512,8.5225,-7.805,11.94375,43.208,10.536,30.800001,eccentric,4,3.0,21630.0,312744.0,281993.0,331479.0,292634.0
2026-04-07 17:48:49.340184,220032,1199695087,1199696178,-1.124352,0.066368,-0.060512,3.75375,-6.3525,12.81875,43.208,10.536,30.800001,eccentric,4,3.0,21630.0,312744.0,281993.0,331479.0,292634.0
2026-04-07 17:48:49.342663,220033,1199704005,1199704859,-1.126304,0.052704,-0.101504,1.95125,-5.0225,12.4775,43.608,10.160001,31.784002,eccentric,4,3.0,21630.0,312744.0,281993.0,331479.0,292634.0
2026-04-07 17:48:49.345133,220034,1199718491,1199719839,-1.126304,0.052704,-0.101504,2.49375,-4.585,11.75125,43.608,10.160001,31.784002,eccentric,4,3.0,21630.0,312744.0,281993.0,331479.0,292634.0
2026-04-07 17:48:49.347654,220035,1199727380,1199728520,-1.104832,0.042944,-0.150304,2.49375,-5.32875,10.43875,44.048,9.992001,30.864002,eccentric,4,3.0,21630.0,312744.0,281993.0,331479.0,292634.0
2026-04-07 17:48:49.350106,220036,1199736296,1199737213,-1.104832,0.042944,-0.150304,4.2525,-6.6675,8.575,44.048,9.992001,30.864002,eccentric,4,3.0,21630.0,312744.0,281993.0,331479.0,292634.0
2026-04-07 17:48:49.375104,220046,1199750829,1199752185,-1.085312,0.042944,-0.15616,9.21375,-8.77625,7.28,43.432003,10.112,30.736002,eccentric,4,3.0,22133.0,317176.0,285620.0,335457.0,295711.0
2026-04-07 17:48:49.377621,220047,1199759786,1199760918,-1.085312,0.042944,-0.15616,16.9225,-9.70375,5.8625,43.432003,10.112,30.736002,eccentric,4,3.0,22133.0,317176.0,285620.0,335457.0,295711.0
2026-04-07 17:48:49.380175,220048,1199768726,1199769645,-1.052128,0.11712,-0.095648,23.59875,-9.415,4.0775,43.432003,9.968,30.784002,eccentric,4,3.0,22133.0,317176.0,285620.0,335457.0,295711.0
2026-04-07 17:48:49.382729,220049,1199777670,1199778365,-1.052128,0.11712,-0.095648,25.366251,-9.205,1.295,43.432003,9.968,30.784002,eccentric,4,3.0,22133.0,317176.0,285620.0,335457.0,295711.0
2026-04-07 17:48:49.416657,220050,1199792541,1199793278,-1.077504,0.13664,-0.017568,22.82875,-9.42375,-2.4325,43.864002,9.832001,31.664001,eccentric,4,3.0,22133.0,317176.0,285620.0,335457.0,295711.0
2026-04-07 17:48:49.420120,220051,1199801925,1199803982,-1.077504,0.13664,-0.017568,17.5525,-8.96875,-5.39875,43.864002,9.832001,31.664001,eccentric,4,3.0,22133.0,317176.0,285620.0,335457.0,295711.0
2026-04-07 17:48:49.422610,220052,1199810861,1199812678,-1.163392,0.062464,-0.001952,12.9325,-9.511251,-7.06125,43.824,10.192,32.552002,eccentric,4,3.0,22133.0,317176.0,285620.0,335457.0,295711.0
2026-04-07 17:48:49.428878,220053,1199825382,1199827580,-1.147776,-0.013664,-0.132736,9.9225,-10.85875,-8.42625,43.808002,9.856001,31.664001,eccentric,4,3.0,22133.0,317176.0,285620.0,335457.0,295711.0
2026-04-07 17:48:49.459075,220054,1199834325,1199836298,-1.147776,-0.013664,-0.132736,10.31625,-11.9875,-8.5575,43.808002,9.856001,31.664001,eccentric,4,3.0,22133.0,317176.0,285620.0,335457.0,295711.0
2026-04-07 17:48:49.490132,220065,1199843271,1199845316,-1.085312,0.01952,-0.160064,15.417501,-11.7075,-7.3675,43.808002,9.856001,31.664001,eccentric,4,3.0,22398.0,319578.0,287445.0,337246.0,296910.0
2026-04-07 17:48:49.492636,220066,1199857820,1199858182,-1.079456,0.01952,-0.160064,22.46125,-9.6775,-7.63,44.168003,9.704,31.936,eccentric,4,3.0,22398.0,319578.0,287445.0,337246.0,296910.0
2026-04-07 17:48:49.495210,220067,1199867043,1199869041,-1.114592,0.105408,-0.093696,26.005,-6.83375,-7.91,44.320004,9.200001,32.688,eccentric,4,3.0,22398.0,319578.0,287445.0,337246.0,296910.0
2026-04-07 17:48:49.497616,220068,1199876196,1199877801,-1.114592,0.105408,-0.093696,23.52,-3.6925,-5.845,44.320004,9.200001,32.688,eccentric,4,3.0,22398.0,319578.0,287445.0,337246.0,296910.0
2026-04-07 17:48:49.500154,220069,1199885177,1199886489,-1.179008,0.070272,-0.001952,16.1,-0.86625,-3.4475,44.4,9.400001,30.352001,eccentric,4,3.0,22398.0,319578.0,287445.0,337246.0,296910.0
2026-04-07 17:48:49.502735,220070,1199899717,1199901450,-1.179008,0.070272,-0.001952,7.27125,0.86625,-1.25125,44.4,9.400001,30.352001,eccentric,4,3.0,22398.0,319578.0,287445.0,337246.0,296910.0
2026-04-07 17:48:49.511468,220071,1199908725,1199910255,-1.223904,-0.007808,-0.007808,-0.315,1.23375,1.14625,44.456,9.088,32.472,eccentric,4,3.0,22398.0,319578.0,287445.0,337246.0,296910.0
2026-04-07 17:48:49.541526,220072,1199917659,1199918957,-1.223904,-0.007808,-0.007808,-4.48,1.2075,3.71875,44.456,9.088,32.472,eccentric,4,3.0,22398.0,319578.0,287445.0,337246.0,296910.0
2026-04-07 17:48:49.545255,220073,1199932177,1199933853,-1.198528,-0.05856,-0.052704,-4.31375,1.40875,7.49,44.176003,9.200001,32.256,eccentric,4,3.0,22398.0,319578.0,287445.0,337246.0,296910.0
2026-04-07 17:48:49.547678,220074,1199941121,1199942629,-1.198528,-0.05856,-0.052704,-3.70125,1.30375,11.45375,44.176003,9.200001,32.256,eccentric,4,3.0,22398.0,319578.0,287445.0,337246.0,296910.0
2026-04-07 17:48:49.573699,220084,1199950224,1199951407,-1.169248,-0.109312,-0.13664,-5.0575,1.07625,14.35875,44.776,8.808001,32.616,eccentric,4,3.0,22835.0,323083.0,290145.0,340033.0,299035.0
2026-04-07 17:48:49.575249,220085,1199959195,1199960161,-1.169248,-0.109312,-0.13664,-3.73625,1.77625,16.905,44.776,8.808001,32.616,eccentric,4,3.0,22835.0,323083.0,290145.0,340033.0,299035.0
2026-04-07 17:48:49.579748,220086,1199973718,1199975051,-1.155584,-0.0488,-0.13664,1.89,3.00125,19.95875,44.664,8.56,33.608,eccentric,4,3.0,22835.0,323083.0,290145.0,340033.0,299035.0
2026-04-07 17:48:49.586752,220087,1199982663,1199983835,-1.155584,-0.0488,-0.13664,7.62125,3.5,21.67375,44.664,8.56,33.608,eccentric,4,3.0,22835.0,323083.0,290145.0,340033.0,299035.0
2026-04-07 17:48:49.635034,220088,1199991651,1199992530,-1.192672,0.066368,-0.072224,11.0075,3.82375,21.69125,44.816,7.848001,33.800003,eccentric,4,3.0,22835.0,323083.0,290145.0,340033.0,299035.0
2026-04-07 17:48:49.639459,220089,1200006148,1200007430,-1.177056,0.080032,-0.027328,11.3575,3.7625,21.35,44.896004,7.784,31.216002,eccentric,4,3.0,22835.0,323083.0,290145.0,340033.0,299035.0
2026-04-07 17:48:49.641113,220090,1200015048,1200016161,-1.177056,0.080032,-0.027328,6.9475,3.05375,20.13375,44.896004,7.784,31.216002,eccentric,4,3.0,22835.0,323083.0,290145.0,340033.0,299035.0
2026-04-07 17:48:49.642701,220091,1200023989,1200024853,-1.177056,0.017568,-0.033184,0.49875,3.24625,17.38625,44.896004,7.784,31.216002,eccentric,4,3.0,22835.0,323083.0,290145.0,340033.0,299035.0
2026-04-07 17:48:49.646248,220092,1200038607,1200039809,-1.204384,0.017568,-0.033184,-1.42625,2.80875,14.385,45.104004,7.712,33.016003,eccentric,4,3.0,22835.0,323083.0,290145.0,340033.0,299035.0
2026-04-07 17:48:49.676364,220102,1200047983,1200048627,-1.153632,-0.025376,-0.07808,-1.645,0.97125,13.41375,45.288002,7.32,33.832,eccentric,4,3.0,23123.0,325504.0,292110.0,342062.0,300766.0
2026-04-07 17:48:49.678911,220103,1200057333,1200059450,-1.153632,-0.025376,-0.07808,-2.80875,0.1925,12.88875,45.288002,7.32,33.832,eccentric,4,3.0,23123.0,325504.0,292110.0,342062.0,300766.0
2026-04-07 17:48:49.681543,220104,1200066403,1200068181,-1.1224,-0.031232,-0.089792,-4.6025,-0.1575,11.75125,45.136,7.480001,34.296,eccentric,4,3.0,23123.0,325504.0,292110.0,342062.0,300766.0
2026-04-07 17:48:49.683886,220105,1200081098,1200083129,-1.1224,-0.031232,-0.089792,-6.755,-0.2275,10.8325,45.136,7.480001,34.296,eccentric,4,3.0,23123.0,325504.0,292110.0,342062.0,300766.0
2026-04-07 17:48:49.714434,220106,1200090082,1200091846,-1.11264,-0.003904,-0.062464,-7.25375,0.70875,10.42125,45.816,7.712,32.4,eccentric,4,3.0,23123.0,325504.0,292110.0,342062.0,300766.0
2026-04-07 17:48:49.717648,220107,1200099021,1200100559,-1.11264,-0.003904,-0.062464,-5.88,1.88125,9.8875,45.816,7.712,32.4,eccentric,4,3.0,23123.0,325504.0,292110.0,342062.0,300766.0
2026-04-07 17:48:49.720113,220108,1200107942,1200109260,-1.11264,0.060512,-0.005856,-4.6725,3.00125,8.40875,45.704002,7.24,32.528,eccentric,4,3.0,23123.0,325504.0,292110.0,342062.0,300766.0
2026-04-07 17:48:49.725217,220109,1200122477,1200124250,-1.11264,0.060512,-0.005856,-6.5975,4.85625,7.00875,45.704002,7.24,32.528,eccentric,4,3.0,23123.0,325504.0,292110.0,342062.0,300766.0
2026-04-07 17:48:49.755293,220110,1200131479,1200132986,-1.110688,0.083936,-0.003904,-11.6025,6.1775,4.41875,44.288002,6.592001,35.472,eccentric,4,3.0,23123.0,325504.0,292110.0,342062.0,300766.0
2026-04-07 17:48:49.758944,220111,1200140461,1200141672,-1.110688,0.083936,-0.003904,-19.18,5.985,1.9775,44.288002,6.592001,35.472,eccentric,4,3.0,23123.0,325504.0,292110.0,342062.0,300766.0
2026-04-07 17:48:49.794758,220122,1200155500,1200156741,-1.134112,0.00976,-0.081984,-26.285,5.53,0.53375,45.304,7.328001,32.192,eccentric,4,3.0,23478.0,328558.0,294708.0,344889.0,303193.0
2026-04-07 17:48:49.795126,220123,1200164482,1200165532,-1.134112,0.00976,-0.12688,-29.86375,4.34875,-0.65625,45.304,7.328001,32.192,eccentric,4,3.0,23478.0,328558.0,294708.0,344889.0,303193.0
2026-04-07 17:48:49.797579,220124,1200173527,1200174246,-1.087264,-0.066368,-0.12688,-27.685,2.96625,-1.995,45.840004,7.256001,34.832,eccentric,4,3.0,23478.0,328558.0,294708.0,344889.0,303193.0
2026-04-07 17:48:49.800126,220125,1200182896,1200185039,-1.087264,-0.066368,-0.12688,-20.62375,2.75625,-2.625,45.840004,7.256001,34.832,eccentric,4,3.0,23478.0,328558.0,294708.0,344889.0,303193.0
2026-04-07 17:48:49.802679,220126,1200197462,1200197898,-1.09312,-0.015616,-0.13664,-13.02875,3.92875,-3.36875,45.312,7.08,29.336,eccentric,4,3.0,23478.0,328558.0,294708.0,344889.0,303193.0
2026-04-07 17:48:49.832804,220127,1200206907,1200208682,-1.085312,0.03904,-0.083936,-9.948751,4.73375,-3.63125,46.312004,6.976,33.568,eccentric,4,3.0,23478.0,328558.0,294708.0,344889.0,303193.0
2026-04-07 17:48:49.836433,220128,1200215847,1200217371,-1.085312,0.03904,-0.083936,-10.49125,5.17125,-3.99,46.312004,6.976,33.568,eccentric,4,3.0,23478.0,328558.0,294708.0,344889.0,303193.0
2026-04-07 17:48:49.838869,220129,1200230347,1200232280,-1.108736,0.023424,-0.01952,-13.011251,5.01375,-5.355,46.376003,7.264,31.456001,eccentric,4,3.0,23478.0,328558.0,294708.0,344889.0,303193.0
2026-04-07 17:48:49.841416,220130,1200239281,1200241017,-1.108736,0.023424,-0.01952,-13.7375,6.3175,-7.16625,46.376003,7.264,31.456001,eccentric,4,3.0,23478.0,328558.0,294708.0,344889.0,303193.0
2026-04-07 17:48:49.876087,220140,1200248292,1200249732,-1.145824,-0.003904,-0.062464,-13.72,6.09875,-9.4325,45.552002,6.768,33.048,eccentric,4,3.0,23050.0,324557.0,291366.0,341107.0,299952.0
2026-04-07 17:48:49.879274,220141,1200257407,1200258541,-1.145824,-0.003904,-0.062464,-13.29125,5.43375,-10.52625,45.552002,6.768,33.048,eccentric,4,3.0,23050.0,324557.0,291366.0,341107.0,299952.0
2026-04-07 17:48:49.881445,220142,1200271970,1200273511,-1.098976,-0.031232,-0.101504,-12.18875,4.8475,-11.585,45.248,7.016,32.832,eccentric,4,3.0,23050.0,324557.0,291366.0,341107.0,299952.0
2026-04-07 17:48:49.883549,220143,1200280957,1200282220,-1.098976,-0.031232,-0.101504,-10.01875,5.355,-12.74,45.248,7.016,32.832,eccentric,4,3.0,23050.0,324557.0,291366.0,341107.0,299952.0
2026-04-07 17:48:49.890407,220144,1200289885,1200290969,-1.095072,-0.017568,-0.11712,-8.79375,6.195,-13.90375,45.528004,7.16,30.848001,eccentric,4,3.0,23050.0,324557.0,291366.0,341107.0,299952.0
2026-04-07 17:48:49.924153,220145,1200304400,1200305876,-1.095072,-0.017568,-0.11712,-6.9125,6.895,-15.4,45.528004,7.16,30.848001,eccentric,4,3.0,23050.0,324557.0,291366.0,341107.0,299952.0
2026-04-07 17:48:49.926451,220146,1200313308,1200314549,-1.134112,0.017568,-0.074176,-5.95,8.2075,-17.33375,45.448,7.472,29.488,eccentric,4,3.0,23050.0,324557.0,291366.0,341107.0,299952.0
2026-04-07 17:48:49.928457,220147,1200322193,1200323262,-1.134112,0.017568,-0.074176,-6.0025,8.44375,-18.31375,45.448,7.472,29.488,eccentric,4,3.0,23050.0,324557.0,291366.0,341107.0,299952.0
2026-04-07 17:48:49.959989,220148,1200336734,1200338269,-1.14192,0.021472,-0.0488,-6.5975,8.77625,-20.39625,45.712,7.744,31.096,eccentric,4,3.0,23050.0,324557.0,291366.0,341107.0,299952.0
2026-04-07 17:48:49.962485,220149,1200345651,1200346983,-1.110688,-0.003904,-0.062464,-6.27375,8.86375,-22.19,45.712,7.744,31.184002,eccentric,4,3.0,23050.0,324557.0,291366.0,341107.0,299952.0
2026-04-07 17:48:49.990113,220159,1200354626,1200355699,-1.114592,-0.003904,-0.062464,-6.335,8.9075,-24.605,46.120003,7.696001,31.184002,eccentric,4,3.0,22572.0,320284.0,287750.0,337012.0,296406.0
2026-04-07 17:48:49.993628,220160,1200369115,1200370656,-1.139968,0.011712,-0.052704,-7.39375,9.37125,-26.94125,44.448,7.704001,33.464,eccentric,4,3.0,22572.0,320284.0,287750.0,337012.0,296406.0
2026-04-07 17:48:49.995282,220161,1200378059,1200379380,-1.139968,0.011712,-0.052704,-7.63,9.19625,-28.56,44.448,7.704001,33.464,eccentric,4,3.0,22572.0,320284.0,287750.0,337012.0,296406.0
2026-04-07 17:48:49.998825,220162,1200386986,1200388114,-1.10288,-0.015616,-0.080032,-6.83375,8.67125,-28.83125,44.576,8.6,30.608002,eccentric,4,3.0,22572.0,320284.0,287750.0,337012.0,296406.0
2026-04-07 17:48:50.000961,220163,1200395916,1200396869,-1.10288,-0.015616,-0.080032,-7.09625,8.4875,-30.24875,44.576,8.6,30.608002,eccentric,4,3.0,22572.0,320284.0,287750.0,337012.0,296406.0
2026-04-07 17:48:50.033526,220164,1200410403,1200411795,-1.100928,0.011712,-0.101504,-5.9675,8.26,-31.5525,44.24,9.128,30.44,eccentric,4,3.0,22572.0,320284.0,287750.0,337012.0,296406.0
2026-04-07 17:48:50.034957,220165,1200419306,1200420464,-1.100928,0.011712,-0.101504,-3.73625,9.49375,-33.95,44.24,9.128,30.44,eccentric,4,3.0,22572.0,320284.0,287750.0,337012.0,296406.0
2026-04-07 17:48:50.037238,220166,1200428191,1200429166,-1.149728,0.025376,-0.101504,-2.7125,10.8325,-37.1,44.584003,9.408,30.600002,eccentric,4,3.0,22572.0,320284.0,287750.0,337012.0,296406.0
2026-04-07 17:48:50.067590,220167,1200442719,1200444072,-1.149728,0.025376,-0.101504,-2.9225,10.84125,-38.6575,44.584003,9.408,30.600002,eccentric,4,3.0,22572.0,320284.0,287750.0,337012.0,296406.0
2026-04-07 17:48:50.096121,220178,1200451756,1200452798,-1.136064,0.025376,-0.062464,-2.87,11.3575,-39.8825,44.208004,9.488001,30.592001,eccentric,4,3.0,22358.0,318056.0,285735.0,334620.0,294413.0
2026-04-07 17:48:50.097683,220179,1200460711,1200461533,-1.136064,0.025376,-0.062464,-4.1125,12.18875,-40.3025,44.208004,9.488001,30.592001,eccentric,4,3.0,22358.0,318056.0,285735.0,334620.0,294413.0
2026-04-07 17:48:50.104835,220180,1200475174,1200476522,-1.165344,-0.056608,-0.085888,-7.72625,12.95875,-40.6175,43.824,9.968,30.312002,eccentric,4,3.0,22358.0,318056.0,285735.0,334620.0,294413.0
2026-04-07 17:48:50.106296,220181,1200484163,1200485268,-1.165344,-0.056608,-0.085888,-11.0075,13.4225,-40.1975,43.824,9.968,30.312002,eccentric,4,3.0,22358.0,318056.0,285735.0,334620.0,294413.0
2026-04-07 17:48:50.107955,220182,1200493097,1200493988,-1.169248,-0.103456,-0.128832,-10.045,13.5275,-38.3075,44.304,10.232,29.776001,eccentric,4,3.0,22358.0,318056.0,285735.0,334620.0,294413.0
2026-04-07 17:48:50.112413,220183,1200507559,1200508981,-1.163392,-0.074176,-0.152256,-4.865,13.36125,-37.45,43.36,10.912001,30.528002,eccentric,4,3.0,22358.0,318056.0,285735.0,334620.0,294413.0
2026-04-07 17:48:50.141668,220184,1200516495,1200517730,-1.163392,-0.074176,-0.152256,0.9975,13.51,-37.02125,43.36,10.912001,30.528002,eccentric,4,3.0,22358.0,318056.0,285735.0,334620.0,294413.0
2026-04-07 17:48:50.145127,220185,1200525401,1200526483,-1.163392,-0.074176,-0.152256,6.58875,13.405,-36.2075,43.36,10.912001,30.528002,eccentric,4,3.0,22358.0,318056.0,285735.0,334620.0,294413.0
2026-04-07 17:48:50.147759,220186,1200534322,1200535193,-1.130208,-0.02928,-0.122976,11.1125,13.448751,-35.97125,43.048,10.632001,30.344002,eccentric,4,3.0,22358.0,318056.0,285735.0,334620.0,294413.0
2026-04-07 17:48:50.176360,220196,1200548868,1200550209,-1.153632,-0.042944,-0.080032,10.91125,13.877501,-35.6825,42.224003,10.656,31.840002,eccentric,4,3.0,21896.0,313792.0,282136.0,330682.0,291075.0
2026-04-07 17:48:50.178844,220197,1200557918,1200558997,-1.153632,-0.042944,-0.080032,7.4725,14.735,-35.30625,42.224003,10.656,31.840002,eccentric,4,3.0,21896.0,313792.0,282136.0,330682.0,291075.0
2026-04-07 17:48:50.181317,220198,1200566850,1200567755,-1.136064,-0.076128,-0.081984,4.1825,14.35875,-34.51,42.224003,11.128,32.480003,eccentric,4,3.0,21896.0,313792.0,282136.0,330682.0,291075.0
