pc_time,serial_num,sensor_ts,host_ts,ax,ay,az,gx,gy,gz,mx,my,mz,phase,rpe,weight_kg,ppg_a,ppg_b,ppg_c,ppg_d,ppg_e
2026-04-14 17:30:35.067851,339571,1609505328712589,2928682626,-1.27856,-0.011712,-0.1952,17.8325,0.88375,0.7525,26.344002,17.736,24.008001,eccentric,4,3.0,39773.0,236026.0,90412.0,232738.0,103957.0
2026-04-14 17:30:35.070293,339572,1609505328721580,2928691338,-1.225856,-0.06832,-0.23424,9.82625,-0.21,0.77875,25.728,17.504002,23.960001,eccentric,4,3.0,39773.0,236026.0,90412.0,232738.0,103957.0
2026-04-14 17:30:35.074972,339573,1609505328736105,2928706191,-1.194624,-0.12688,-0.163968,2.31875,-1.12875,0.4375,25.408,17.648,25.168001,eccentric,4,3.0,39773.0,236026.0,90412.0,232738.0,103957.0
2026-04-14 17:30:35.086948,339574,1609505328745013,2928714916,-1.194624,-0.12688,-0.163968,0.385,-1.225,-0.1225,25.408,17.648,25.168001,eccentric,4,3.0,39773.0,236026.0,90412.0,232738.0,103957.0
2026-04-14 17:30:35.087051,339575,1609505328759480,2928729793,-1.260992,-0.095648,-0.27328,3.96375,-0.79625,0.1575,26.288002,17.112001,22.712002,eccentric,4,3.0,39773.0,236026.0,90412.0,232738.0,103957.0
2026-04-14 17:30:35.087098,339576,1609505328768406,2928738460,-1.260992,-0.095648,-0.27328,8.32125,-0.18375,0.1925,26.288002,17.112001,22.712002,eccentric,4,3.0,39773.0,236026.0,90412.0,232738.0,103957.0
2026-04-14 17:30:35.087141,339577,1609505328777338,2928747135,-1.2688,-0.023424,-0.158112,10.7275,0.07875,1.19,26.2,16.896,22.84,eccentric,4,3.0,39773.0,236026.0,90412.0,232738.0,103957.0
2026-04-14 17:30:35.087886,339578,1609505328791902,2928762009,-1.2688,-0.023424,-0.158112,7.76125,-0.245,1.9075,26.2,16.896,22.84,eccentric,4,3.0,39773.0,236026.0,90412.0,232738.0,103957.0
2026-04-14 17:30:35.092763,339579,1609505328800848,2928770768,-1.20048,-0.06832,-0.054656,0.39375,-1.3125,2.3625,26.488,16.928001,22.664001,eccentric,4,3.0,39773.0,236026.0,90412.0,232738.0,103957.0
2026-04-14 17:30:35.124298,339590,1609505328815384,2928785723,-1.20048,-0.06832,-0.152256,-4.06,-1.9075,1.9425,26.488,16.928001,22.664001,eccentric,4,3.0,39959.0,236601.0,90459.0,233324.0,104104.0
2026-04-14 17:30:35.126639,339591,1609505328824369,2928794460,-1.167296,-0.130784,-0.152256,-2.16125,-1.70625,1.23375,26.208002,16.712,23.024,eccentric,4,3.0,39959.0,236601.0,90459.0,233324.0,104104.0
2026-04-14 17:30:35.129307,339592,1609505328833391,2928803160,-1.167296,-0.130784,-0.152256,3.2725,-1.77625,1.1725,26.208002,16.712,23.024,eccentric,4,3.0,39959.0,236601.0,90459.0,233324.0,104104.0
2026-04-14 17:30:35.140605,339593,1609505328847912,2928818111,-1.233664,-0.10736,-0.294752,10.78,-1.26875,0.9625,25.944002,16.392,22.800001,eccentric,4,3.0,39959.0,236601.0,90459.0,233324.0,104104.0
2026-04-14 17:30:35.149273,339594,1609505328856873,2928826792,-1.206336,-0.007808,-0.054656,18.71625,-1.39125,1.1025,27.080002,16.192001,22.088001,eccentric,4,3.0,39959.0,236601.0,90459.0,233324.0,104104.0
2026-04-14 17:30:35.164322,339595,1609505328871344,2928841647,-1.206336,-0.007808,-0.054656,19.915,-1.8375,0.4025,27.080002,16.192001,22.088001,eccentric,4,3.0,39959.0,236601.0,90459.0,233324.0,104104.0
2026-04-14 17:30:35.173037,339596,1609505328880254,2928850334,-1.18096,-0.040992,-0.074176,12.5475,-2.86125,-0.8575,26.760002,15.800001,22.816002,eccentric,4,3.0,39959.0,236601.0,90459.0,233324.0,104104.0
2026-04-14 17:30:35.186780,339597,1609505328894731,2928863155,-1.18096,-0.040992,-0.074176,5.1275,-4.01625,-0.9625,26.760002,15.800001,22.816002,eccentric,4,3.0,39959.0,236601.0,90459.0,233324.0,104104.0
2026-04-14 17:30:35.200292,339598,1609505328903940,2928873987,-1.223904,-0.121024,-0.259616,1.5575,-4.12125,-1.65375,25.984001,16.112001,22.824001,eccentric,4,3.0,39959.0,236601.0,90459.0,233324.0,104104.0
2026-04-14 17:30:35.225622,339609,1609505328913048,2928882743,-1.223904,-0.121024,-0.259616,2.5375,-4.1475,-2.345,25.984001,16.112001,22.824001,eccentric,4,3.0,40821.0,238458.0,91825.0,235303.0,105718.0
2026-04-14 17:30:35.228049,339610,1609505328927654,2928897613,-1.136064,-0.144448,-0.163968,6.11625,-2.82625,-1.295,26.320002,15.720001,21.904001,eccentric,4,3.0,40821.0,238458.0,91825.0,235303.0,105718.0
2026-04-14 17:30:35.230568,339611,1609505328936617,2928906360,-1.221952,-0.03904,-0.210816,10.4825,-1.6975,-0.09625,26.320002,15.720001,22.352001,eccentric,4,3.0,40821.0,238458.0,91825.0,235303.0,105718.0
2026-04-14 17:30:35.244437,339612,1609505328951175,2928921256,-1.221952,-0.03904,-0.210816,12.495,-1.505,0.4025,26.256,15.664001,22.352001,eccentric,4,3.0,40821.0,238458.0,91825.0,235303.0,105718.0
2026-04-14 17:30:35.254391,339613,1609505328960067,2928929922,-1.194624,-0.040992,-0.091744,9.38875,-1.9075,0.7175,26.400002,15.480001,21.464,eccentric,4,3.0,40821.0,238458.0,91825.0,235303.0,105718.0
2026-04-14 17:30:35.268193,339614,1609505328974579,2928944878,-1.194624,-0.040992,-0.091744,4.6375,-3.40375,0.62125,26.400002,15.480001,21.464,eccentric,4,3.0,40821.0,238458.0,91825.0,235303.0,105718.0
2026-04-14 17:30:35.275722,339615,1609505328983510,2928953579,-1.153632,-0.121024,-0.22448,2.6425,-4.89125,0.14875,26.248001,15.392001,20.536001,eccentric,4,3.0,40821.0,238458.0,91825.0,235303.0,105718.0
2026-04-14 17:30:35.288207,339616,1609505328992444,2928962249,-1.153632,-0.121024,-0.22448,7.48125,-5.145,0.11375,26.248001,15.392001,20.536001,eccentric,4,3.0,40821.0,238458.0,91825.0,235303.0,105718.0
2026-04-14 17:30:35.300964,339617,1609505329006923,2928977127,-1.108736,-0.066368,-0.080032,13.86,-5.32875,-1.35625,25.696001,15.152,22.384,eccentric,4,3.0,40821.0,238458.0,91825.0,235303.0,105718.0
2026-04-14 17:30:35.328397,339628,1609505329015912,2928985920,-1.108736,-0.066368,-0.080032,18.73375,-5.32,-2.38,25.696001,15.152,22.384,eccentric,4,3.0,43961.0,243798.0,97170.0,240613.0,111592.0
2026-04-14 17:30:35.330741,339629,1609505329030507,2929000878,-1.143872,-0.017568,-0.208864,17.8675,-5.915,-2.975,25.008001,14.888001,22.6,eccentric,4,3.0,43961.0,243798.0,97170.0,240613.0,111592.0
2026-04-14 17:30:35.333450,339630,1609505329039450,2929009555,-1.15168,-0.023424,0.001952,11.22625,-5.9325,-4.40125,25.056002,14.76,22.192001,eccentric,4,3.0,43961.0,243798.0,97170.0,240613.0,111592.0
2026-04-14 17:30:35.340962,339631,1609505329048380,2929018264,-1.15168,-0.023424,0.001952,3.71,-5.67875,-5.22375,25.056002,14.76,22.192001,eccentric,4,3.0,43961.0,243798.0,97170.0,240613.0,111592.0
2026-04-14 17:30:35.356002,339632,1609505329062848,2929033131,-1.159488,-0.074176,-0.08784,-0.5775,-5.48625,-5.36375,25.768002,14.264001,20.648,eccentric,4,3.0,43961.0,243798.0,97170.0,240613.0,111592.0
2026-04-14 17:30:35.364806,339633,1609505329071760,2929041798,-1.159488,-0.074176,-0.08784,-0.9625,-6.16,-5.64375,25.768002,14.264001,20.648,eccentric,4,3.0,43961.0,243798.0,97170.0,240613.0,111592.0
2026-04-14 17:30:35.402044,339634,1609505329086240,2929054635,-1.130208,-0.081984,-0.122976,3.4825,-5.04875,-5.005,25.248001,14.544001,21.28,eccentric,4,3.0,43961.0,243798.0,97170.0,240613.0,111592.0
2026-04-14 17:30:35.404660,339635,1609505329095498,2929065385,-1.130208,-0.081984,-0.122976,9.05625,-5.10125,-4.7775,25.248001,14.544001,21.28,eccentric,4,3.0,43961.0,243798.0,97170.0,240613.0,111592.0
2026-04-14 17:30:35.459373,339646,1609505329110301,2929080636,-1.126304,-0.03904,-0.13664,10.59625,-5.495,-4.2175,25.016,13.840001,20.048,eccentric,4,3.0,45001.0,244141.0,99089.0,241523.0,113607.0
2026-04-14 17:30:35.461892,339647,1609505329119464,2929089376,-1.081408,-0.0488,-0.13664,9.7825,-5.69625,-3.6925,25.256,13.832001,18.216002,eccentric,4,3.0,45001.0,244141.0,99089.0,241523.0,113607.0
2026-04-14 17:30:35.464473,339648,1609505329128499,2929098126,-1.081408,-0.0488,-0.13664,6.265,-6.79,-3.9375,25.256,13.832001,18.216002,eccentric,4,3.0,45001.0,244141.0,99089.0,241523.0,113607.0
2026-04-14 17:30:35.466959,339649,1609505329142964,2929112984,-1.065792,-0.074176,-0.015616,1.49625,-8.58375,-4.8125,24.648,13.936001,19.232,eccentric,4,3.0,45001.0,244141.0,99089.0,241523.0,113607.0
2026-04-14 17:30:35.469444,339650,1609505329151870,2929121742,-1.065792,-0.074176,-0.015616,-1.2075,-8.98625,-4.9,24.648,13.936001,19.232,eccentric,4,3.0,45001.0,244141.0,99089.0,241523.0,113607.0
2026-04-14 17:30:35.471946,339651,1609505329166353,2929136637,-1.087264,-0.105408,-0.203008,0.83125,-9.16125,-4.7775,24.672,13.184001,19.320002,eccentric,4,3.0,45001.0,244141.0,99089.0,241523.0,113607.0
2026-04-14 17:30:35.475886,339652,1609505329175329,2929145323,-1.087264,-0.105408,-0.203008,4.69875,-8.75,-5.34625,24.672,13.184001,19.320002,eccentric,4,3.0,45001.0,244141.0,99089.0,241523.0,113607.0
2026-04-14 17:30:35.478051,339653,1609505329184254,2929154014,-1.106784,-0.037088,-0.158112,7.76125,-8.1025,-5.38125,23.800001,12.928,19.432001,eccentric,4,3.0,45001.0,244141.0,99089.0,241523.0,113607.0
2026-04-14 17:30:35.490574,339654,1609505329198743,2929168932,-1.052128,-0.081984,-0.210816,5.53,-8.4875,-5.38125,22.792002,13.296001,19.448002,eccentric,4,3.0,45001.0,244141.0,99089.0,241523.0,113607.0
2026-04-14 17:30:35.503043,339655,1609505329207681,2929177672,-1.052128,-0.081984,-0.210816,2.79125,-8.6625,-4.92625,22.792002,13.296001,19.448002,eccentric,4,3.0,45001.0,244141.0,99089.0,241523.0,113607.0
2026-04-14 17:30:35.533161,339667,1609505329222263,2929190656,-1.13216,-0.060512,-0.191296,0.83125,-8.65375,-4.71625,21.888,12.384001,18.088001,eccentric,4,3.0,43299.0,239084.0,96168.0,236642.0,110483.0
2026-04-14 17:30:35.535474,339668,1609505329231571,2929201483,-1.13216,-0.060512,-0.191296,2.07375,-8.75875,-5.81875,21.888,12.384001,18.088001,eccentric,4,3.0,43299.0,239084.0,96168.0,236642.0,110483.0
2026-04-14 17:30:35.539459,339669,1609505329246068,2929216375,-1.050176,-0.052704,-0.001952,3.49125,-8.435,-5.3375,21.872002,12.400001,17.664001,eccentric,4,3.0,43299.0,239084.0,96168.0,236642.0,110483.0
2026-04-14 17:30:35.550569,339670,1609505329254997,2929225045,-1.050176,-0.052704,-0.001952,3.3425,-8.68875,-5.6875,21.872002,12.400001,17.664001,eccentric,4,3.0,43299.0,239084.0,96168.0,236642.0,110483.0
2026-04-14 17:30:35.556954,339671,1609505329263925,2929233773,-1.06384,-0.0488,0.011712,5.285,-8.28625,-5.38125,21.472,12.080001,18.008001,eccentric,4,3.0,43299.0,239084.0,96168.0,236642.0,110483.0
2026-04-14 17:30:35.570601,339672,1609505329278377,2929248674,-1.06384,-0.064416,-0.095648,6.32625,-8.23375,-4.3225,21.472,12.080001,18.008001,eccentric,4,3.0,43299.0,239084.0,96168.0,236642.0,110483.0
2026-04-14 17:30:35.580642,339673,1609505329287281,2929257338,-1.030656,-0.06832,-0.095648,4.97,-8.37375,-4.4275,20.544,12.312,18.896002,eccentric,4,3.0,43299.0,239084.0,96168.0,236642.0,110483.0
2026-04-14 17:30:35.615717,339674,1609505329301785,2929270198,-1.13216,-0.017568,-0.11712,3.35125,-8.3825,-4.6375,19.592001,12.104001,17.888,eccentric,4,3.0,43299.0,239084.0,96168.0,236642.0,110483.0
2026-04-14 17:30:35.642889,339685,1609505329311011,2929280950,-1.13216,-0.017568,-0.11712,2.4325,-8.35625,-5.18,19.592001,12.104001,17.888,eccentric,4,3.0,42527.0,236311.0,94947.0,234491.0,109133.0
2026-04-14 17:30:35.645474,339686,1609505329320495,2929289796,-1.106784,-0.060512,-0.052704,0.97125,-9.02125,-6.32625,18.352001,11.64,18.576,eccentric,4,3.0,42527.0,236311.0,94947.0,234491.0,109133.0
2026-04-14 17:30:35.648417,339687,1609505329335026,2929304809,-1.106784,-0.060512,-0.052704,-1.58375,-9.87875,-5.8975,18.352001,11.64,18.576,eccentric,4,3.0,42527.0,236311.0,94947.0,234491.0,109133.0
2026-04-14 17:30:35.650922,339688,1609505329343962,2929313529,-1.120448,-0.101504,-0.18544,-1.60125,-10.9025,-5.34625,17.328001,11.784,18.328001,eccentric,4,3.0,42527.0,236311.0,94947.0,234491.0,109133.0
2026-04-14 17:30:35.653014,339689,1609505329358447,2929328476,-1.120448,-0.101504,-0.18544,2.33625,-11.3925,-4.17375,17.328001,11.784,18.328001,eccentric,4,3.0,42527.0,236311.0,94947.0,234491.0,109133.0
2026-04-14 17:30:35.659298,339690,1609505329367403,2929337163,-1.071648,-0.046848,0.001952,7.1925,-10.33375,-3.43875,16.744001,11.464001,19.504002,eccentric,4,3.0,42527.0,236311.0,94947.0,234491.0,109133.0
2026-04-14 17:30:35.675717,339691,1609505329381894,2929352055,-1.057984,-0.025376,0.0,9.17,-10.28125,-3.35125,16.44,12.064,20.912,eccentric,4,3.0,42527.0,236311.0,94947.0,234491.0,109133.0
2026-04-14 17:30:35.683329,339692,1609505329390822,2929360745,-1.057984,-0.025376,0.0,7.385,-9.7125,-3.21125,16.44,12.064,20.912,eccentric,4,3.0,42527.0,236311.0,94947.0,234491.0,109133.0
2026-04-14 17:30:35.692834,339693,1609505329399783,2929369421,-1.042368,-0.11712,-0.148352,3.605,-9.511251,-3.68375,15.408001,12.416,22.064001,eccentric,4,3.0,42527.0,236311.0,94947.0,234491.0,109133.0
2026-04-14 17:30:35.732240,339704,1609505329414334,2929382735,-1.042368,-0.11712,-0.148352,1.02375,-9.03875,-3.75375,15.408001,12.416,22.064001,eccentric,4,3.0,41400.0,232143.0,92896.0,230992.0,106941.0
2026-04-14 17:30:35.734939,339705,1609505329423638,2929393646,-1.011136,-0.08784,0.021472,3.17625,-8.8025,-4.0775,14.56,12.592001,21.44,eccentric,4,3.0,41400.0,232143.0,92896.0,230992.0,106941.0
2026-04-14 17:30:35.737215,339706,1609505329438135,2929406509,-1.011136,-0.08784,0.021472,10.3775,-8.295,-4.2525,14.56,12.592001,21.44,eccentric,4,3.0,41400.0,232143.0,92896.0,230992.0,106941.0
2026-04-14 17:30:35.742267,339707,1609505329447440,2929417287,-1.046272,-0.015616,-0.040992,17.24625,-7.4725,-4.20875,15.280001,12.584001,22.296001,eccentric,4,3.0,41400.0,232143.0,92896.0,230992.0,106941.0
2026-04-14 17:30:35.766747,339708,1609505329456444,2929426001,-1.046272,-0.015616,-0.040992,19.25875,-6.99125,-4.78625,15.280001,12.584001,22.296001,eccentric,4,3.0,41400.0,232143.0,92896.0,230992.0,106941.0
2026-04-14 17:30:35.792168,339709,1609505329470938,2929440922,-1.011136,-0.033184,-0.119072,12.3025,-7.91,-6.6325,15.400001,13.168,23.496,eccentric,4,3.0,41400.0,232143.0,92896.0,230992.0,106941.0
2026-04-14 17:30:35.794197,339710,1609505329479860,2929449631,-1.011136,-0.119072,-0.158112,1.12875,-8.79375,-7.93625,15.400001,13.168,25.544,eccentric,4,3.0,41400.0,232143.0,92896.0,230992.0,106941.0
2026-04-14 17:30:35.797519,339711,1609505329494336,2929464504,-1.085312,-0.119072,-0.158112,-5.67875,-9.948751,-6.7375,15.528001,13.032001,25.256,eccentric,4,3.0,41400.0,232143.0,92896.0,230992.0,106941.0
2026-04-14 17:30:35.799673,339712,1609505329503250,2929473152,-1.057984,-0.128832,-0.138592,-3.8675,-10.7975,-5.62625,16.192001,13.688001,24.344002,eccentric,4,3.0,41400.0,232143.0,92896.0,230992.0,106941.0
2026-04-14 17:30:35.834744,339723,1609505329517855,2929488156,-1.057984,-0.128832,-0.138592,6.475,-10.0275,-4.6025,16.192001,13.688001,24.344002,eccentric,4,3.0,39188.0,225248.0,89066.0,225380.0,102706.0
2026-04-14 17:30:35.837254,339724,1609505329526827,2929496857,-1.061888,-0.025376,-0.150304,18.41875,-10.22,-3.045,16.36,13.52,25.480001,eccentric,4,3.0,39188.0,225248.0,89066.0,225380.0,102706.0
2026-04-14 17:30:35.839596,339725,1609505329535754,2929505584,-1.061888,-0.025376,-0.150304,21.44625,-10.745,-2.45875,16.36,13.52,25.480001,eccentric,4,3.0,39188.0,225248.0,89066.0,225380.0,102706.0
2026-04-14 17:30:35.844380,339726,1609505329550248,2929520548,-1.03456,-0.03904,-0.17568,14.11375,-11.76875,-2.72125,16.792002,13.848001,25.296001,eccentric,4,3.0,39188.0,225248.0,89066.0,225380.0,102706.0
2026-04-14 17:30:35.852276,339727,1609505329559235,2929529253,-1.03456,-0.03904,-0.17568,4.55,-13.3875,-3.3775,16.792002,13.848001,25.296001,eccentric,4,3.0,39188.0,225248.0,89066.0,225380.0,102706.0
2026-04-14 17:30:35.864352,339728,1609505329573719,2929542085,-0.958432,-0.10736,-0.003904,0.13125,-14.48125,-3.15875,17.168001,14.232,25.144001,eccentric,4,3.0,39188.0,225248.0,89066.0,225380.0,102706.0
2026-04-14 17:30:35.875912,339729,1609505329582900,2929552832,-0.983808,-0.089792,-0.140544,4.54125,-14.3325,-2.24,17.128,14.512001,25.976002,eccentric,4,3.0,39188.0,225248.0,89066.0,225380.0,102706.0
2026-04-14 17:30:35.884669,339730,1609505329591805,2929561497,-0.983808,-0.089792,-0.140544,11.3225,-14.0,-1.015,17.128,14.512001,25.976002,eccentric,4,3.0,39188.0,225248.0,89066.0,225380.0,102706.0
2026-04-14 17:30:35.900990,339731,1609505329606281,2929576372,-0.999424,-0.025376,-0.095648,12.81875,-13.055,-1.2075,17.816,14.632001,25.152,eccentric,4,3.0,39188.0,225248.0,89066.0,225380.0,102706.0
2026-04-14 17:30:35.931828,339742,1609505329615364,2929585124,-0.999424,-0.025376,-0.095648,7.455,-12.6,-1.46125,17.816,14.632001,25.152,eccentric,4,3.0,35252.0,214528.0,81705.0,215617.0,94243.0
2026-04-14 17:30:35.934731,339743,1609505329630065,2929600099,-1.003328,-0.064416,0.054656,-0.7875,-12.87125,-1.77625,17.048,14.664001,26.128002,eccentric,4,3.0,35252.0,214528.0,81705.0,215617.0,94243.0
2026-04-14 17:30:35.937243,339744,1609505329639008,2929608834,-1.003328,-0.064416,0.054656,-5.13625,-12.18,-1.6625,17.048,14.664001,26.128002,eccentric,4,3.0,35252.0,214528.0,81705.0,215617.0,94243.0
2026-04-14 17:30:35.948019,339745,1609505329653513,2929623726,-0.950624,-0.124928,0.044896,-0.65625,-12.41625,-1.32125,17.04,14.672001,26.416,eccentric,4,3.0,35252.0,214528.0,81705.0,215617.0,94243.0
2026-04-14 17:30:35.956613,339746,1609505329662415,2929632414,-0.93696,-0.017568,0.08784,11.90875,-11.2875,-1.16375,18.128,14.056001,24.936,eccentric,4,3.0,35252.0,214528.0,81705.0,215617.0,94243.0
2026-04-14 17:30:35.965834,339747,1609505329671472,2929641105,-0.93696,-0.017568,0.08784,23.73,-9.2225,-0.60375,18.128,14.056001,24.936,eccentric,4,3.0,35252.0,214528.0,81705.0,215617.0,94243.0
2026-04-14 17:30:35.977910,339748,1609505329685972,2929655998,-1.026752,0.056608,-0.062464,21.90125,-8.49625,-2.03875,18.08,14.168,24.832,eccentric,4,3.0,35252.0,214528.0,81705.0,215617.0,94243.0
2026-04-14 17:30:35.988492,339749,1609505329694894,2929664672,-1.026752,0.056608,-0.062464,7.385,-8.67125,-2.94,18.08,14.168,24.832,eccentric,4,3.0,35252.0,214528.0,81705.0,215617.0,94243.0
2026-04-14 17:30:36.004877,339750,1609505329709397,2929679569,-0.96624,-0.076128,-0.005856,-10.71,-9.12625,-2.59875,18.016,14.240001,24.384,eccentric,4,3.0,35252.0,214528.0,81705.0,215617.0,94243.0
2026-04-14 17:30:36.031833,339761,1609505329718441,2929688447,-0.96624,-0.076128,-0.005856,-22.88125,-10.07125,-1.645,18.016,14.240001,24.384,eccentric,4,3.0,32936.0,210361.0,76952.0,210813.0,88892.0
2026-04-14 17:30:36.037248,339762,1609505329727544,2929697228,-0.970144,-0.163968,-0.179584,-19.83625,-9.82625,-0.81375,16.68,14.880001,25.528002,eccentric,4,3.0,32936.0,210361.0,76952.0,210813.0,88892.0
2026-04-14 17:30:36.039856,339763,1609505329742055,2929712161,-0.929152,-0.02928,-0.17568,-5.3725,-9.3625,-0.105,17.296001,14.920001,28.160002,eccentric,4,3.0,32936.0,210361.0,76952.0,210813.0,88892.0
2026-04-14 17:30:36.046395,339764,1609505329751025,2929720852,-0.929152,-0.02928,-0.17568,5.6525,-11.305,0.3675,17.296001,14.920001,28.160002,eccentric,4,3.0,32936.0,210361.0,76952.0,210813.0,88892.0
2026-04-14 17:30:36.059231,339765,1609505329765515,2929735752,-0.911584,0.011712,0.015616,5.32,-11.85625,1.04125,17.992,14.544001,24.432001,eccentric,4,3.0,32936.0,210361.0,76952.0,210813.0,88892.0
2026-04-14 17:30:36.066892,339766,1609505329774430,2929744442,-0.911584,0.011712,0.015616,-2.3625,-11.2525,3.19375,17.992,14.544001,24.432001,eccentric,4,3.0,32936.0,210361.0,76952.0,210813.0,88892.0
2026-04-14 17:30:36.079246,339767,1609505329788878,2929757299,-0.93696,-0.111264,-0.0976,-16.66875,-12.11,4.7075,16.960001,15.160001,25.448002,eccentric,4,3.0,32936.0,210361.0,76952.0,210813.0,88892.0
2026-04-14 17:30:36.090858,339768,1609505329798072,2929768042,-0.93696,-0.111264,-0.0976,-27.991251,-11.795,5.18,16.960001,15.160001,25.448002,eccentric,4,3.0,32936.0,210361.0,76952.0,210813.0,88892.0
2026-04-14 17:30:36.099766,339769,1609505329806984,2929776700,-0.813984,-0.16592,-0.070272,-25.76,-12.4775,6.1425,17.192001,14.768001,24.576,eccentric,4,3.0,32936.0,210361.0,76952.0,210813.0,88892.0
2026-04-14 17:30:36.181000,339780,1609505329821579,2929791642,-0.813984,-0.16592,-0.070272,-13.5625,-13.886251,6.67625,17.192001,14.768001,24.576,eccentric,4,3.0,33898.0,214438.0,78464.0,213650.0,90594.0
2026-04-14 17:30:36.183350,339781,1609505329830536,2929800361,-0.808128,-0.062464,-0.005856,1.9775,-12.69625,7.74375,17.08,14.920001,26.552002,eccentric,4,3.0,33898.0,214438.0,78464.0,213650.0,90594.0
2026-04-14 17:30:36.185967,339782,1609505329845096,2929815262,-0.905728,0.06832,-0.054656,9.65125,-10.465,8.11125,16.960001,15.040001,25.576002,eccentric,4,3.0,33898.0,214438.0,78464.0,213650.0,90594.0
2026-04-14 17:30:36.188461,339783,1609505329853994,2929823942,-0.905728,0.06832,-0.054656,1.2075,-10.36875,6.755,16.960001,15.040001,25.576002,eccentric,4,3.0,33898.0,214438.0,78464.0,213650.0,90594.0
2026-04-14 17:30:36.190988,339784,1609505329868429,2929836773,-0.892064,-0.07808,0.03904,-17.4475,-12.5475,5.36375,16.912,15.376,25.232,eccentric,4,3.0,33898.0,214438.0,78464.0,213650.0,90594.0
2026-04-14 17:30:36.192949,339785,1609505329877594,2929847536,-0.892064,-0.07808,0.03904,-33.39875,-13.886251,4.80375,16.912,15.376,25.232,eccentric,4,3.0,33898.0,214438.0,78464.0,213650.0,90594.0
2026-04-14 17:30:36.195498,339786,1609505329886513,2929856215,-0.884256,-0.189344,0.013664,-34.39625,-15.18125,4.85625,16.584002,15.656001,25.904001,eccentric,4,3.0,33898.0,214438.0,78464.0,213650.0,90594.0
2026-04-14 17:30:36.198098,339787,1609505329901063,2929871157,-0.884256,-0.189344,0.013664,-20.8775,-15.39125,3.85,16.584002,15.656001,25.904001,eccentric,4,3.0,33898.0,214438.0,78464.0,213650.0,90594.0
2026-04-14 17:30:36.203486,339788,1609505329909992,2929879853,-0.8784,-0.089792,0.074176,-2.4325,-13.60625,1.995,16.056002,15.568001,26.872002,eccentric,4,3.0,33898.0,214438.0,78464.0,213650.0,90594.0
2026-04-14 17:30:36.260343,339799,1609505329924627,2929894851,-1.003328,0.056608,0.236192,9.6075,-10.70125,0.7175,16.08,15.592001,23.968,eccentric,4,3.0,33464.0,212391.0,77835.0,212345.0,89706.0
2026-04-14 17:30:36.262888,339800,1609505329933596,2929903567,-1.003328,0.056608,0.236192,5.48625,-8.575,-0.83125,16.08,15.592001,23.968,concentric,4,3.0,33464.0,212391.0,77835.0,212345.0,89706.0
2026-04-14 17:30:36.265354,339801,1609505329942630,2929912275,-1.003328,-0.074176,-0.07808,-10.07125,-9.24875,-4.22625,16.08,15.592001,23.968,concentric,4,3.0,33464.0,212391.0,77835.0,212345.0,89706.0
2026-04-14 17:30:36.268348,339802,1609505329957103,2929927147,-1.085312,-0.074176,-0.07808,-23.03875,-11.62,-7.67375,16.640001,15.968,24.752,concentric,4,3.0,33464.0,212391.0,77835.0,212345.0,89706.0
2026-04-14 17:30:36.270832,339803,1609505329966026,2929935830,-1.036512,-0.134688,0.197152,-25.22625,-14.21875,-9.94,16.504002,15.64,25.04,concentric,4,3.0,33464.0,212391.0,77835.0,212345.0,89706.0
2026-04-14 17:30:36.274579,339804,1609505329980473,2929950762,-1.036512,-0.134688,0.197152,-19.1625,-16.065,-9.66,16.504002,15.64,25.04,concentric,4,3.0,33464.0,212391.0,77835.0,212345.0,89706.0
2026-04-14 17:30:36.284610,339805,1609505329989380,2929959428,-1.050176,-0.0976,0.167872,-11.33125,-15.86375,-8.33875,16.312,16.04,24.928001,concentric,4,3.0,33464.0,212391.0,77835.0,212345.0,89706.0
2026-04-14 17:30:36.295958,339806,1609505330003968,2929972335,-1.098976,-0.05856,0.144448,-4.48875,-14.980001,-5.88875,16.704,15.664001,22.2,concentric,4,3.0,33464.0,212391.0,77835.0,212345.0,89706.0
2026-04-14 17:30:36.307264,339807,1609505330013169,2929983087,-1.098976,-0.05856,0.144448,-5.06625,-14.51625,-2.72125,16.704,15.664001,22.2,concentric,4,3.0,33464.0,212391.0,77835.0,212345.0,89706.0
2026-04-14 17:30:36.336762,339818,1609505330022151,2929991938,-1.098976,-0.05856,0.144448,-7.88375,-15.60125,0.4725,16.704,15.664001,22.2,concentric,4,3.0,32283.0,210368.0,75442.0,210407.0,86945.0
2026-04-14 17:30:36.336903,339819,1609505330036648,2930006939,-1.13216,-0.099552,-0.140544,-4.0775,-16.6775,2.65125,15.984001,15.856001,24.856,concentric,4,3.0,32283.0,210368.0,75442.0,210407.0,86945.0
2026-04-14 17:30:36.339135,339820,1609505330045632,2930015640,-1.040416,-0.00976,0.18544,5.01375,-17.99875,3.61375,15.608001,15.496,25.664001,concentric,4,3.0,32283.0,210368.0,75442.0,210407.0,86945.0
2026-04-14 17:30:36.351664,339821,1609505330060095,2930028469,-1.040416,-0.00976,0.18544,13.3875,-18.19125,3.255,15.608001,15.496,25.664001,concentric,4,3.0,32283.0,210368.0,75442.0,210407.0,86945.0
2026-04-14 17:30:36.363476,339822,1609505330069316,2930039251,-1.040416,0.023424,-0.035136,15.42625,-16.7475,3.5525,16.632,15.184001,24.456001,concentric,4,3.0,32283.0,210368.0,75442.0,210407.0,86945.0
2026-04-14 17:30:36.376696,339823,1609505330083796,2930054123,-1.118496,0.0,-0.093696,9.87875,-14.79625,3.31625,16.632,15.184001,25.472002,concentric,4,3.0,32283.0,210368.0,75442.0,210407.0,86945.0
2026-04-14 17:30:36.387230,339824,1609505330092730,2930062796,-1.118496,0.0,-0.093696,1.365,-12.7575,2.14375,15.952001,15.344001,25.472002,concentric,4,3.0,32283.0,210368.0,75442.0,210407.0,86945.0
2026-04-14 17:30:36.394341,339825,1609505330101662,2930071487,-1.118496,0.0,-0.093696,-5.635,-11.29625,1.89,15.952001,15.344001,25.472002,concentric,4,3.0,32283.0,210368.0,75442.0,210407.0,86945.0
2026-04-14 17:30:36.431811,339836,1609505330116248,2930086653,-1.110688,-0.066368,-0.023424,-7.09625,-11.2175,2.1875,15.56,15.456,23.232,concentric,4,3.0,31771.0,208801.0,74502.0,209158.0,85755.0
2026-04-14 17:30:36.434254,339837,1609505330125285,2930095365,-1.065792,-0.052704,0.064416,-0.86625,-9.9925,1.7675,14.248001,15.288001,26.760002,concentric,4,3.0,31771.0,208801.0,74502.0,209158.0,85755.0
2026-04-14 17:30:36.436772,339838,1609505330139792,2930108195,-1.065792,-0.052704,0.064416,7.4725,-7.6125,1.8025,14.248001,15.288001,26.760002,concentric,4,3.0,31771.0,208801.0,74502.0,209158.0,85755.0
2026-04-14 17:30:36.442119,339839,1609505330149108,2930118993,-1.003328,-0.021472,0.01952,12.18,-4.52375,1.89,15.296001,15.376,25.992,concentric,4,3.0,31771.0,208801.0,74502.0,209158.0,85755.0
2026-04-14 17:30:36.449592,339840,1609505330158027,2930127628,-1.003328,-0.021472,0.01952,9.5725,-2.0475,1.39125,15.296001,15.376,25.992,concentric,4,3.0,31771.0,208801.0,74502.0,209158.0,85755.0
2026-04-14 17:30:36.466035,339841,1609505330172494,2930142494,-1.098976,0.0,0.011712,1.89875,0.0,0.42,15.032001,15.408001,25.424002,concentric,4,3.0,31771.0,208801.0,74502.0,209158.0,85755.0
2026-04-14 17:30:36.474754,339842,1609505330181425,2930151183,-1.098976,0.0,0.011712,-7.1225,1.2775,-0.70875,15.032001,15.408001,25.424002,concentric,4,3.0,31771.0,208801.0,74502.0,209158.0,85755.0
2026-04-14 17:30:36.514442,339843,1609505330195861,2930166050,-1.079456,-0.113216,-0.11712,-12.90625,1.68875,-1.435,15.960001,15.232,24.568,concentric,4,3.0,31771.0,208801.0,74502.0,209158.0,85755.0
2026-04-14 17:30:36.518325,339844,1609505330204784,2930174742,-0.999424,-0.122976,0.121024,-12.18875,1.74125,-1.5925,15.960001,15.432001,25.176,concentric,4,3.0,31771.0,208801.0,74502.0,209158.0,85755.0
2026-04-14 17:30:36.557122,339855,1609505330219713,2930189745,-0.999424,-0.122976,0.121024,-5.78375,2.80875,-1.09375,15.480001,15.432001,25.176,concentric,4,3.0,32414.0,212890.0,75624.0,213274.0,87080.0
2026-04-14 17:30:36.559259,339856,1609505330228659,2930198424,-1.061888,-0.042944,0.017568,0.02625,4.73375,-0.2625,16.336,15.312,24.792002,concentric,4,3.0,32414.0,212890.0,75624.0,213274.0,87080.0
2026-04-14 17:30:36.564359,339857,1609505330237702,2930207124,-1.061888,-0.042944,0.017568,0.23625,5.08375,-0.84875,16.336,15.312,24.792002,concentric,4,3.0,32414.0,212890.0,75624.0,213274.0,87080.0
2026-04-14 17:30:36.567201,339858,1609505330252475,2930222077,-1.00528,-0.0488,0.181536,-7.105,4.7425,-1.09375,16.176,15.296001,24.368002,concentric,4,3.0,32414.0,212890.0,75624.0,213274.0,87080.0
2026-04-14 17:30:36.569726,339859,1609505330261426,2930230782,-1.00528,-0.0488,0.181536,-14.1925,5.39875,-2.415,16.176,15.296001,24.368002,concentric,4,3.0,32414.0,212890.0,75624.0,213274.0,87080.0
2026-04-14 17:30:36.571681,339860,1609505330275982,2930245718,-1.030656,-0.12688,-0.060512,-14.7175,6.3525,-3.85,16.52,15.552001,24.432001,concentric,4,3.0,32414.0,212890.0,75624.0,213274.0,87080.0
2026-04-14 17:30:36.578485,339861,1609505330284946,2930254419,-0.983808,-0.109312,0.101504,-12.81,6.5975,-4.5675,16.52,15.552001,26.480001,concentric,4,3.0,32414.0,212890.0,75624.0,213274.0,87080.0
2026-04-14 17:30:36.585624,339862,1609505330293955,2930263265,-0.979904,-0.109312,0.101504,-9.24,7.7525,-4.3575,16.296001,15.480001,24.816002,concentric,4,3.0,32414.0,212890.0,75624.0,213274.0,87080.0
2026-04-14 17:30:36.601046,339863,1609505330308411,2930278188,-0.999424,-0.083936,-0.00976,-5.38125,9.073751,-5.0225,16.128,15.56,24.080002,concentric,4,3.0,32414.0,212890.0,75624.0,213274.0,87080.0
2026-04-14 17:30:36.632874,339874,1609505330317361,2930286911,-0.999424,-0.083936,-0.00976,-4.10375,11.1825,-5.53,16.128,15.56,24.080002,concentric,4,3.0,34453.0,220292.0,79314.0,220961.0,91442.0
2026-04-14 17:30:36.635441,339875,1609505330331946,2930301922,-0.99552,-0.046848,0.113216,-5.635,12.15375,-6.2125,15.376,15.664001,25.888,concentric,4,3.0,34453.0,220292.0,79314.0,220961.0,91442.0
2026-04-14 17:30:36.637883,339876,1609505330340901,2930310594,-0.99552,-0.046848,0.113216,-5.0575,13.545,-6.0375,15.376,15.664001,25.888,concentric,4,3.0,34453.0,220292.0,79314.0,220961.0,91442.0
2026-04-14 17:30:36.649079,339877,1609505330355414,2930325514,-1.028704,-0.056608,0.0,-2.56375,13.65,-6.86,15.68,16.112001,25.584002,concentric,4,3.0,34453.0,220292.0,79314.0,220961.0,91442.0
2026-04-14 17:30:36.657757,339878,1609505330364460,2930334182,-1.028704,-0.056608,0.0,0.21875,13.3175,-7.41125,15.68,16.112001,25.584002,concentric,4,3.0,34453.0,220292.0,79314.0,220961.0,91442.0
2026-04-14 17:30:36.670881,339879,1609505330373453,2930342873,-1.003328,-0.076128,-0.074176,1.5225,12.69625,-6.8075,16.952002,15.696001,24.704,concentric,4,3.0,34453.0,220292.0,79314.0,220961.0,91442.0
2026-04-14 17:30:36.680488,339880,1609505330387952,2930357775,-0.960384,-0.085888,0.05856,0.20125,12.1275,-5.1275,16.392,15.672001,25.128,concentric,4,3.0,34453.0,220292.0,79314.0,220961.0,91442.0
2026-04-14 17:30:36.689702,339881,1609505330396880,2930366485,-0.960384,-0.085888,0.05856,-2.40625,13.23875,-3.3775,16.392,15.672001,25.128,concentric,4,3.0,34453.0,220292.0,79314.0,220961.0,91442.0
2026-04-14 17:30:36.705444,339882,1609505330411339,2930381358,-0.99552,-0.085888,-0.064416,-4.025,15.39125,-1.72375,16.608002,15.952001,23.928001,concentric,4,3.0,34453.0,220292.0,79314.0,220961.0,91442.0
2026-04-14 17:30:36.732925,339893,1609505330420822,2930390339,-0.99552,-0.085888,-0.064416,-3.325,16.94875,-0.77875,16.608002,15.952001,23.928001,concentric,4,3.0,35502.0,220584.0,81275.0,221731.0,93702.0
2026-04-14 17:30:36.735925,339894,1609505330429808,2930399048,-1.00528,-0.062464,-0.013664,-2.91375,17.59625,-0.4725,17.376001,15.568001,23.896002,concentric,4,3.0,35502.0,220584.0,81275.0,221731.0,93702.0
2026-04-14 17:30:36.738429,339895,1609505330444304,2930413942,-1.00528,-0.062464,-0.013664,-1.8375,17.43,-0.595,17.376001,15.568001,23.896002,concentric,4,3.0,35502.0,220584.0,81275.0,221731.0,93702.0
2026-04-14 17:30:36.747238,339896,1609505330453298,2930422660,-1.028704,-0.046848,-0.070272,1.225,16.625,-1.35625,17.92,15.272,25.424002,concentric,4,3.0,35502.0,220584.0,81275.0,221731.0,93702.0
2026-04-14 17:30:36.759297,339897,1609505330467799,2930437591,-1.009184,-0.007808,0.056608,3.1675,15.60125,-2.7825,17.872002,15.200001,23.712002,concentric,4,3.0,35502.0,220584.0,81275.0,221731.0,93702.0
2026-04-14 17:30:36.769370,339898,1609505330476739,2930446288,-1.009184,-0.007808,0.056608,2.1875,14.42875,-3.64,17.872002,15.200001,23.712002,concentric,4,3.0,35502.0,220584.0,81275.0,221731.0,93702.0
2026-04-14 17:30:36.784476,339899,1609505330491179,2930461159,-0.98576,-0.025376,0.152256,-0.62125,14.21,-3.92875,17.344002,15.648001,24.992,concentric,4,3.0,35502.0,220584.0,81275.0,221731.0,93702.0
2026-04-14 17:30:36.794365,339900,1609505330500104,2930469843,-0.98576,-0.025376,0.152256,-5.3725,14.18375,-4.095,17.344002,15.648001,24.992,concentric,4,3.0,35502.0,220584.0,81275.0,221731.0,93702.0
2026-04-14 17:30:36.801753,339901,1609505330509023,2930478499,-1.079456,-0.0488,-0.031232,-9.73875,14.79625,-4.1825,17.04,15.472001,23.728,concentric,4,3.0,35502.0,220584.0,81275.0,221731.0,93702.0
2026-04-14 17:30:36.834488,339912,1609505330523677,2930493497,-1.079456,-0.0488,-0.031232,-11.97875,14.8925,-4.375,17.04,15.472001,23.728,concentric,4,3.0,35350.0,219829.0,81089.0,221075.0,93402.0
2026-04-14 17:30:36.836740,339913,1609505330532721,2930502209,-1.032608,-0.093696,-0.140544,-9.94,15.18125,-5.10125,17.160002,15.752001,24.872002,concentric,4,3.0,35350.0,219829.0,81089.0,221075.0,93402.0
2026-04-14 17:30:36.841967,339914,1609505330547204,2930517105,-1.013088,-0.046848,0.05856,-5.32,16.00375,-4.9,17.856,15.712001,25.400002,concentric,4,3.0,35350.0,219829.0,81089.0,221075.0,93402.0
2026-04-14 17:30:36.886875,339915,1609505330556117,2930525817,-1.013088,-0.046848,0.05856,-2.31875,16.1,-4.66375,17.856,15.712001,25.400002,concentric,4,3.0,35350.0,219829.0,81089.0,221075.0,93402.0
2026-04-14 17:30:36.889304,339916,1609505330570715,2930540698,-1.028704,-0.023424,0.064416,-2.17,16.42375,-4.94375,17.952002,15.752001,24.904001,concentric,4,3.0,35350.0,219829.0,81089.0,221075.0,93402.0
2026-04-14 17:30:36.895700,339917,1609505330579594,2930549352,-1.028704,-0.023424,0.064416,-4.54125,16.56375,-5.38125,17.952002,15.752001,24.904001,concentric,4,3.0,35350.0,219829.0,81089.0,221075.0,93402.0
2026-04-14 17:30:36.916874,339918,1609505330588483,2930557995,-1.003328,-0.081984,-0.023424,-8.0325,17.50875,-5.66125,18.048,16.152,24.736002,concentric,4,3.0,35350.0,219829.0,81089.0,221075.0,93402.0
2026-04-14 17:30:36.939497,339919,1609505330602970,2930572921,-1.003328,-0.081984,-0.023424,-11.55875,18.34875,-5.5825,18.048,16.152,24.736002,concentric,4,3.0,35350.0,219829.0,81089.0,221075.0,93402.0
2026-04-14 17:30:36.942012,339920,1609505330611863,2930581599,-1.042368,-0.064416,0.076128,-11.73375,18.445,-5.08375,18.08,15.744,23.76,concentric,4,3.0,35350.0,219829.0,81089.0,221075.0,93402.0
2026-04-14 17:30:36.969517,339931,1609505330626379,2930596585,-1.042368,-0.064416,0.076128,-9.96625,17.80625,-4.54125,18.08,15.744,23.76,concentric,4,3.0,36369.0,223027.0,83054.0,224263.0,95499.0
2026-04-14 17:30:36.971936,339932,1609505330635402,2930605264,-0.981856,-0.081984,-0.06832,-6.95625,17.745,-4.1825,18.984001,15.6,24.104002,concentric,4,3.0,36369.0,223027.0,83054.0,224263.0,95499.0
2026-04-14 17:30:36.974448,339933,1609505330649868,2930620162,-0.977952,-0.0488,0.076128,-5.6875,18.165,-4.24375,18.76,15.752001,23.536001,concentric,4,3.0,36369.0,223027.0,83054.0,224263.0,95499.0
2026-04-14 17:30:36.980286,339934,1609505330658772,2930628901,-0.977952,-0.0488,0.076128,-6.8075,18.235,-3.92,18.76,15.752001,23.536001,concentric,4,3.0,36369.0,223027.0,83054.0,224263.0,95499.0
2026-04-14 17:30:36.980733,339935,1609505330667699,2930637632,-1.030656,-0.089792,-0.119072,-10.03625,18.6725,-3.64,18.76,16.032001,21.328001,concentric,4,3.0,36369.0,223027.0,83054.0,224263.0,95499.0
2026-04-14 17:30:36.981685,339936,1609505330682240,2930652549,-1.030656,-0.089792,-0.119072,-10.71,19.32875,-2.975,19.416,16.032001,21.328001,concentric,4,3.0,36369.0,223027.0,83054.0,224263.0,95499.0
2026-04-14 17:30:36.986301,339937,1609505330691207,2930661228,-1.042368,-0.062464,-0.072224,-8.68,19.06625,-2.98375,19.640001,15.976001,23.688002,concentric,4,3.0,36369.0,223027.0,83054.0,224263.0,95499.0
2026-04-14 17:30:36.999667,339938,1609505330705694,2930674049,-1.042368,-0.062464,-0.072224,-4.8825,18.54125,-3.0275,19.640001,15.976001,23.688002,concentric,4,3.0,36369.0,223027.0,83054.0,224263.0,95499.0
2026-04-14 17:30:37.007092,339939,1609505330714931,2930684850,-1.011136,-0.070272,0.011712,-2.555,16.89625,-2.1,18.648,15.64,21.472,concentric,4,3.0,36369.0,223027.0,83054.0,224263.0,95499.0
2026-04-14 17:30:37.036005,339950,1609505330724116,2930693947,-1.011136,-0.070272,0.011712,-2.37125,15.70625,-0.42,18.648,15.64,21.472,concentric,4,3.0,38317.0,227728.0,86774.0,228871.0,99647.0
2026-04-14 17:30:37.038504,339951,1609505330738671,2930708880,-1.05408,-0.046848,-0.083936,-3.56125,15.65375,0.34125,18.192001,15.912001,24.888,concentric,4,3.0,38317.0,227728.0,86774.0,228871.0,99647.0
2026-04-14 17:30:37.041011,339952,1609505330747586,2930717589,-1.05408,-0.031232,0.005856,-6.72875,15.54875,0.16625,18.192001,15.912001,24.888,concentric,4,3.0,38317.0,227728.0,86774.0,228871.0,99647.0
2026-04-14 17:30:37.053469,339953,1609505330762042,2930730407,-1.01504,-0.031232,0.005856,-9.8875,16.30125,0.07875,18.800001,16.008001,22.664001,concentric,4,3.0,38317.0,227728.0,86774.0,228871.0,99647.0
2026-04-14 17:30:37.064848,339954,1609505330771260,2930741192,-0.968192,-0.089792,-0.033184,-11.17375,16.09125,-0.4025,18.640001,15.952001,24.952002,concentric,4,3.0,38317.0,227728.0,86774.0,228871.0,99647.0
2026-04-14 17:30:37.081032,339955,1609505330785895,2930756059,-0.968192,-0.089792,-0.033184,-9.87,15.26875,-0.805,18.640001,15.952001,24.952002,concentric,4,3.0,38317.0,227728.0,86774.0,228871.0,99647.0
2026-04-14 17:30:37.088433,339956,1609505330794852,2930764764,-0.935008,-0.11712,-0.044896,-3.9725,14.175,-0.455,19.464,15.704,22.848001,concentric,4,3.0,38317.0,227728.0,86774.0,228871.0,99647.0
2026-04-14 17:30:37.100996,339957,1609505330803835,2930773481,-0.935008,-0.11712,-0.044896,3.43,13.2475,0.13125,19.464,15.704,22.848001,concentric,4,3.0,38317.0,227728.0,86774.0,228871.0,99647.0
2026-04-14 17:30:37.136456,339968,1609505330818323,2930788328,-0.968192,-0.0488,-0.040992,7.90125,13.3875,0.7175,18.008001,15.584001,24.000002,concentric,4,3.0,40603.0,232163.0,91180.0,232947.0,104577.0
2026-04-14 17:30:37.139116,339969,1609505330827377,2930797059,-0.968192,-0.0488,-0.040992,7.84875,13.0025,0.62125,18.008001,15.584001,24.000002,concentric,4,3.0,40603.0,232163.0,91180.0,232947.0,104577.0
2026-04-14 17:30:37.141437,339970,1609505330841943,2930811998,-1.046272,-0.011712,-0.13664,2.9225,13.04625,-0.23625,17.912,15.456,24.800001,concentric,4,3.0,40603.0,232163.0,91180.0,232947.0,104577.0
2026-04-14 17:30:37.143958,339971,1609505330850897,2930820705,-1.081408,-0.033184,-0.144448,-3.36875,13.4575,-2.135,17.792002,15.496,25.376001,concentric,4,3.0,40603.0,232163.0,91180.0,232947.0,104577.0
2026-04-14 17:30:37.151425,339972,1609505330859915,2930829472,-1.081408,-0.033184,-0.144448,-9.77375,12.15375,-3.885,17.792002,15.496,25.376001,concentric,4,3.0,40603.0,232163.0,91180.0,232947.0,104577.0
2026-04-14 17:30:37.167983,339973,1609505330874375,2930844348,-1.030656,-0.12688,-0.193248,-13.81625,10.255,-4.62,18.024,15.264001,24.968,concentric,4,3.0,40603.0,232163.0,91180.0,232947.0,104577.0
2026-04-14 17:30:37.175324,339974,1609505330883290,2930853072,-1.030656,-0.12688,-0.193248,-13.011251,9.52,-3.24625,18.024,15.264001,24.968,concentric,4,3.0,40603.0,232163.0,91180.0,232947.0,104577.0
2026-04-14 17:30:37.191438,339975,1609505330897771,2930867930,-0.98576,-0.101504,-0.06832,-7.32375,9.9925,-1.30375,16.880001,14.888001,23.512001,concentric,4,3.0,40603.0,232163.0,91180.0,232947.0,104577.0
2026-04-14 17:30:37.201493,339976,1609505330906678,2930876652,-0.98576,-0.101504,-0.06832,-3.885,10.885,-0.9275,16.880001,14.888001,23.512001,concentric,4,3.0,40603.0,232163.0,91180.0,232947.0,104577.0
2026-04-14 17:30:37.281799,339987,1609505330921421,2930891604,-1.089216,-0.007808,-0.013664,-2.31875,11.55875,-1.60125,17.408,14.776001,22.784,concentric,4,3.0,40673.0,233077.0,91336.0,232879.0,104779.0
2026-04-14 17:30:37.284361,339988,1609505330930374,2930900331,-1.11264,-0.023424,-0.203008,-0.23625,11.99625,-2.63375,15.928,14.536,23.568,concentric,4,3.0,40673.0,233077.0,91336.0,232879.0,104779.0
2026-04-14 17:30:37.286780,339989,1609505330939282,2930909037,-1.11264,-0.023424,-0.203008,-0.32375,11.17375,-3.96375,15.928,14.536,23.568,concentric,4,3.0,40673.0,233077.0,91336.0,232879.0,104779.0
2026-04-14 17:30:37.289377,339990,1609505330953757,2930923923,-1.009184,-0.025376,0.00976,-4.2875,9.485,-5.03125,15.68,14.592001,22.624,concentric,4,3.0,40673.0,233077.0,91336.0,232879.0,104779.0
2026-04-14 17:30:37.291927,339991,1609505330962687,2930932622,-1.009184,-0.025376,0.00976,-6.25625,7.4375,-5.76625,15.68,14.592001,22.624,concentric,4,3.0,40673.0,233077.0,91336.0,232879.0,104779.0
2026-04-14 17:30:37.294386,339992,1609505330977241,2930947509,-1.091168,-0.042944,-0.103456,-6.02875,6.0025,-5.46875,15.584001,14.752001,22.160002,concentric,4,3.0,40673.0,233077.0,91336.0,232879.0,104779.0
2026-04-14 17:30:37.296732,339993,1609505330986192,2930956262,-1.091168,-0.042944,-0.103456,-7.0,5.7225,-4.85625,15.584001,14.752001,22.160002,concentric,4,3.0,40673.0,233077.0,91336.0,232879.0,104779.0
2026-04-14 17:30:37.299490,339994,1609505331000791,2930969173,-1.050176,-0.015616,-0.050752,-6.545,6.41375,-4.8825,15.376,14.464001,21.328001,concentric,4,3.0,40673.0,233077.0,91336.0,232879.0,104779.0
2026-04-14 17:30:37.304292,339995,1609505331010009,2930979967,-1.04432,-0.040992,-0.060512,-6.79,7.60375,-6.09,15.968,13.896001,19.552,concentric,4,3.0,40673.0,233077.0,91336.0,232879.0,104779.0
2026-04-14 17:30:37.313228,339996,1609505331018964,2930988698,-1.04432,-0.040992,-0.060512,-10.6575,6.7725,-7.7175,15.968,13.896001,19.552,concentric,4,3.0,40673.0,233077.0,91336.0,232879.0,104779.0
2026-04-14 17:30:37.340677,340007,1609505331033569,2931003693,-1.001376,-0.130784,-0.154208,-15.14625,4.75125,-8.04125,15.840001,14.320001,20.072,concentric,4,3.0,41473.0,237136.0,92712.0,235731.0,106256.0
2026-04-14 17:30:37.343078,340008,1609505331042518,2931012382,-1.001376,-0.130784,-0.154208,-11.82125,3.4475,-7.20125,15.840001,14.320001,20.072,concentric,4,3.0,41473.0,237136.0,92712.0,235731.0,106256.0
2026-04-14 17:30:37.349492,340009,1609505331057080,2931027354,-1.011136,-0.070272,-0.144448,-1.96,3.5875,-6.93875,16.216002,14.176001,20.432001,concentric,4,3.0,41473.0,237136.0,92712.0,235731.0,106256.0
2026-04-14 17:30:37.358064,340010,1609505331066028,2931036046,-1.011136,-0.070272,-0.144448,6.20375,4.24375,-6.27375,16.216002,14.176001,20.432001,concentric,4,3.0,41473.0,237136.0,92712.0,235731.0,106256.0
2026-04-14 17:30:37.367943,340011,1609505331075358,2931044863,-1.108736,0.00976,-0.261568,6.67625,5.3375,-6.335,16.792002,13.856001,19.056002,concentric,4,3.0,41473.0,237136.0,92712.0,235731.0,106256.0
2026-04-14 17:30:37.383031,340012,1609505331089860,2931059812,-1.108736,-0.05856,0.0,-3.31625,4.71625,-7.39375,16.792002,13.856001,19.056002,concentric,4,3.0,41473.0,237136.0,92712.0,235731.0,106256.0
2026-04-14 17:30:37.391906,340013,1609505331098790,2931068486,-1.06384,-0.05856,0.0,-16.5725,3.15875,-8.2775,16.912,14.112,16.12,concentric,4,3.0,41473.0,237136.0,92712.0,235731.0,106256.0
2026-04-14 17:30:37.407262,340014,1609505331113256,2931083413,-1.020896,-0.150304,-0.0976,-21.98875,3.2025,-7.28,18.528002,14.208001,16.928001,concentric,4,3.0,41473.0,237136.0,92712.0,235731.0,106256.0
2026-04-14 17:30:37.440875,340025,1609505331122618,2931092265,-1.020896,-0.150304,-0.0976,-15.715,4.3575,-6.53625,18.528002,14.208001,16.928001,concentric,4,3.0,42250.0,241345.0,94014.0,238247.0,107710.0
2026-04-14 17:30:37.442993,340026,1609505331131662,2931101031,-1.067744,-0.054656,-0.083936,-3.3075,6.72875,-6.08125,17.928001,14.72,18.112001,concentric,4,3.0,42250.0,241345.0,94014.0,238247.0,107710.0
2026-04-14 17:30:37.448250,340027,1609505331146176,2931116018,-1.067744,-0.054656,-0.083936,8.07625,8.3475,-6.1425,17.928001,14.72,18.112001,concentric,4,3.0,42250.0,241345.0,94014.0,238247.0,107710.0
2026-04-14 17:30:37.448673,340028,1609505331155166,2931124737,-1.046272,0.031232,-0.062464,9.30125,7.79625,-5.41625,19.12,14.400001,17.776001,concentric,4,3.0,42250.0,241345.0,94014.0,238247.0,107710.0
2026-04-14 17:30:37.464824,340029,1609505331169654,2931139629,-1.046272,0.031232,-0.062464,2.63375,6.09875,-5.285,19.12,14.400001,17.776001,concentric,4,3.0,42250.0,241345.0,94014.0,238247.0,107710.0
2026-04-14 17:30:37.471732,340030,1609505331178548,2931148295,-1.091168,-0.0976,-0.255712,-8.8375,3.4125,-5.99375,20.392,14.608001,18.024,concentric,4,3.0,42250.0,241345.0,94014.0,238247.0,107710.0
2026-04-14 17:30:37.487204,340031,1609505331193033,2931163210,-1.040416,-0.148352,-0.232288,-17.2375,0.8925,-4.68125,20.592001,15.040001,16.720001,concentric,4,3.0,42250.0,241345.0,94014.0,238247.0,107710.0
2026-04-14 17:30:37.494851,340032,1609505331201938,2931171895,-1.040416,-0.148352,-0.232288,-14.13125,0.84,-3.0275,20.592001,15.040001,16.720001,concentric,4,3.0,42250.0,241345.0,94014.0,238247.0,107710.0
2026-04-14 17:30:37.504893,340033,1609505331210870,2931180590,-0.977952,-0.074176,-0.076128,-2.45,1.9425,-1.75875,20.592001,15.040001,16.336,concentric,4,3.0,42250.0,241345.0,94014.0,238247.0,107710.0
2026-04-14 17:30:37.563369,340044,1609505331225903,2931195605,-0.983808,-0.074176,-0.076128,7.32375,3.59625,-1.68,21.856,14.728001,16.336,concentric,4,3.0,42198.0,240919.0,94212.0,237249.0,107800.0
2026-04-14 17:30:37.565778,340045,1609505331234914,2931204275,-0.979904,-0.023424,-0.017568,5.69625,3.77125,-0.98,22.36,15.016001,17.320002,concentric,4,3.0,42198.0,240919.0,94212.0,237249.0,107800.0
2026-04-14 17:30:37.568372,340046,1609505331249361,2931219128,-0.979904,-0.023424,-0.017568,-2.4675,3.07125,-0.5075,22.36,15.016001,17.320002,concentric,4,3.0,42198.0,240919.0,94212.0,237249.0,107800.0
2026-04-14 17:30:37.570780,340047,1609505331258360,2931227821,-1.10288,-0.0488,-0.138592,-7.95375,2.68625,-0.3325,22.968,15.240001,18.424002,concentric,4,3.0,42198.0,240919.0,94212.0,237249.0,107800.0
2026-04-14 17:30:37.573437,340048,1609505331267316,2931236508,-1.10288,-0.0488,-0.138592,-7.34125,3.21125,-0.49,22.968,15.240001,18.424002,concentric,4,3.0,42198.0,240919.0,94212.0,237249.0,107800.0
2026-04-14 17:30:37.575877,340049,1609505331281838,2931251405,-0.987712,-0.040992,-0.070272,-3.675,4.4275,-2.47625,23.504002,15.120001,17.848001,concentric,4,3.0,42198.0,240919.0,94212.0,237249.0,107800.0
2026-04-14 17:30:37.607274,340050,1609505331290902,2931260175,-0.987712,-0.040992,-0.257664,-4.06,4.97875,-3.52625,23.504002,15.120001,17.848001,concentric,4,3.0,42198.0,240919.0,94212.0,237249.0,107800.0
2026-04-14 17:30:37.609410,340051,1609505331305393,2931275124,-0.999424,-0.080032,-0.259616,-10.42125,4.83,-3.4825,23.720001,15.480001,17.264,concentric,4,3.0,42198.0,240919.0,94212.0,237249.0,107800.0
2026-04-14 17:30:37.612252,340052,1609505331314314,2931283811,-1.108736,-0.158112,-0.228384,-17.47375,4.03375,-2.77375,23.44,16.016,19.488,concentric,4,3.0,42198.0,240919.0,94212.0,237249.0,107800.0
2026-04-14 17:30:37.667103,340063,1609505331328869,2931298739,-1.108736,-0.158112,-0.228384,-18.725,4.0075,-1.9075,23.44,16.016,19.488,concentric,4,3.0,41520.0,239767.0,92787.0,235247.0,106324.0
2026-04-14 17:30:37.669643,340064,1609505331337806,2931307445,-1.143872,-0.06832,-0.249856,-9.485,5.9675,-0.70875,23.52,16.056002,19.736,concentric,4,3.0,41520.0,239767.0,92787.0,235247.0,106324.0
2026-04-14 17:30:37.672216,340065,1609505331346773,2931316127,-1.143872,-0.06832,-0.249856,7.0,8.6625,-0.8225,23.52,16.056002,19.736,concentric,4,3.0,41520.0,239767.0,92787.0,235247.0,106324.0
2026-04-14 17:30:37.674757,340066,1609505331361259,2931331014,-1.139968,0.027328,-0.267424,14.980001,8.75875,-2.77375,24.176,15.936001,19.952002,concentric,4,3.0,41520.0,239767.0,92787.0,235247.0,106324.0
2026-04-14 17:30:37.676721,340067,1609505331370189,2931339750,-1.139968,0.027328,-0.267424,3.42125,5.74,-3.12375,24.176,15.936001,19.952002,concentric,4,3.0,41520.0,239767.0,92787.0,235247.0,106324.0
2026-04-14 17:30:37.679367,340068,1609505331384748,2931354754,-1.05408,-0.037088,-0.023424,-14.875,1.74125,-1.575,24.52,16.592001,20.320002,concentric,4,3.0,41520.0,239767.0,92787.0,235247.0,106324.0
2026-04-14 17:30:37.686002,340069,1609505331393680,2931363467,-1.124352,-0.179584,-0.286944,-25.83,-0.455,-0.7525,24.872002,16.224,20.512001,concentric,4,3.0,41520.0,239767.0,92787.0,235247.0,106324.0
2026-04-14 17:30:37.702257,340070,1609505331408178,2931378332,-1.124352,-0.179584,-0.286944,-24.24625,-0.665,-0.9975,24.872002,16.224,20.512001,concentric,4,3.0,41520.0,239767.0,92787.0,235247.0,106324.0
2026-04-14 17:30:37.710634,340071,1609505331417166,2931387005,-1.13216,-0.03904,-0.160064,-9.0475,1.58375,-0.4725,25.376001,16.224,19.672,concentric,4,3.0,41520.0,239767.0,92787.0,235247.0,106324.0
2026-04-14 17:30:37.744666,340082,1609505331426719,2931395970,-1.13216,-0.03904,-0.160064,5.2675,3.10625,0.6475,25.376001,16.224,19.672,concentric,4,3.0,42068.0,242347.0,93841.0,236774.0,107395.0
2026-04-14 17:30:37.747097,340083,1609505331441225,2931410875,-1.206336,-0.005856,-0.152256,3.70125,2.94,-0.1225,25.312,16.088001,20.024,concentric,4,3.0,42068.0,242347.0,93841.0,236774.0,107395.0
2026-04-14 17:30:37.749634,340084,1609505331450141,2931419568,-1.206336,-0.005856,-0.152256,-7.65625,2.2225,1.0675,25.312,16.088001,20.024,concentric,4,3.0,42068.0,242347.0,93841.0,236774.0,107395.0
2026-04-14 17:30:37.758297,340085,1609505331464645,2931434487,-1.098976,-0.11712,-0.228384,-15.35625,1.95125,1.05875,25.632002,15.928,20.216002,concentric,4,3.0,42068.0,242347.0,93841.0,236774.0,107395.0
2026-04-14 17:30:37.765678,340086,1609505331473669,2931443222,-1.20048,-0.093696,-0.158112,-16.8,1.9425,0.1575,24.304,16.768002,25.2,concentric,4,3.0,42068.0,242347.0,93841.0,236774.0,107395.0
2026-04-14 17:30:37.775619,340087,1609505331482570,2931451887,-1.20048,-0.093696,-0.158112,-10.01,2.14375,0.14875,24.304,16.768002,25.2,concentric,4,3.0,42068.0,242347.0,93841.0,236774.0,107395.0
2026-04-14 17:30:37.789212,340088,1609505331497042,2931466796,-1.21024,0.023424,-0.07808,3.4475,2.94,-0.3325,26.032001,15.912001,20.544,concentric,4,3.0,42068.0,242347.0,93841.0,236774.0,107395.0
2026-04-14 17:30:37.799252,340089,1609505331505976,2931475525,-1.21024,0.023424,-0.07808,10.4125,3.36,-2.09125,26.032001,15.912001,20.544,concentric,4,3.0,42068.0,242347.0,93841.0,236774.0,107395.0
2026-04-14 17:30:37.815828,340090,1609505331520454,2931490422,-1.16144,-0.031232,-0.173728,0.14875,2.1525,-3.70125,26.016,16.04,20.832,concentric,4,3.0,42068.0,242347.0,93841.0,236774.0,107395.0
2026-04-14 17:30:37.845497,340101,1609505331529468,2931499205,-1.16144,-0.031232,-0.173728,-16.1875,0.9625,-4.1825,26.016,16.04,20.832,concentric,4,3.0,41678.0,240885.0,92954.0,234818.0,106344.0
2026-04-14 17:30:37.848332,340102,1609505331543977,2931514112,-1.153632,-0.20496,-0.353312,-26.53875,-0.5775,-4.235,24.752,16.584002,22.072,concentric,4,3.0,41678.0,240885.0,92954.0,234818.0,106344.0
2026-04-14 17:30:37.850851,340103,1609505331552896,2931522792,-1.153632,-0.158112,-0.101504,-22.9775,-0.69125,-4.0075,24.752,16.584002,22.072,concentric,4,3.0,41678.0,240885.0,92954.0,234818.0,106344.0
2026-04-14 17:30:37.855867,340104,1609505331561841,2931531469,-1.169248,-0.158112,-0.101504,-7.72625,0.07,-1.9425,25.456001,16.544,22.432001,concentric,4,3.0,41678.0,240885.0,92954.0,234818.0,106344.0
2026-04-14 17:30:37.868032,340105,1609505331576376,2931546386,-1.202432,0.02928,-0.208864,9.275,1.89875,-0.11375,26.560001,16.344,20.872002,concentric,4,3.0,41678.0,240885.0,92954.0,234818.0,106344.0
2026-04-14 17:30:37.878492,340106,1609505331585339,2931555143,-1.202432,0.02928,-0.208864,16.87875,3.57875,-1.3125,26.560001,16.344,20.872002,concentric,4,3.0,41678.0,240885.0,92954.0,234818.0,106344.0
2026-04-14 17:30:37.894824,340107,1609505331599812,2931570043,-1.231712,0.005856,-0.130784,6.37875,2.23125,-3.5875,26.648,16.52,20.856,concentric,4,3.0,41678.0,240885.0,92954.0,234818.0,106344.0
2026-04-14 17:30:37.902242,340108,1609505331608732,2931578728,-1.231712,0.005856,-0.130784,-18.06875,-0.56875,-3.89375,26.648,16.52,20.856,concentric,4,3.0,41678.0,240885.0,92954.0,234818.0,106344.0
2026-04-14 17:30:37.917195,340109,1609505331623230,2931591582,-1.134112,-0.245952,-0.318176,-37.765,-3.43875,-2.24,26.464,16.928001,20.864,concentric,4,3.0,41678.0,240885.0,92954.0,234818.0,106344.0
2026-04-14 17:30:37.972134,340120,1609505331632821,2931602434,-1.134112,-0.245952,-0.318176,-36.9075,-4.0425,-1.30375,26.464,16.928001,20.864,concentric,4,3.0,40620.0,237269.0,90804.0,231225.0,104156.0
