pc_time,serial_num,sensor_ts,host_ts,ax,ay,az,gx,gy,gz,mx,my,mz,phase,rpe,weight_kg,ppg_a,ppg_b,ppg_c,ppg_d,ppg_e
2026-04-14 17:30:39.195483,340352,1609505332901179,2932870707,-0.817888,-0.0488,0.128832,-11.19125,-20.46625,1.70625,17.528002,14.232,24.808,concentric,4,3.0,36745.0,214906.0,83950.0,212920.0,96544.0
2026-04-14 17:30:39.203020,340353,1609505332910093,2932879376,-0.874496,-0.046848,0.128832,-15.32125,-19.6175,2.135,17.584002,14.344001,23.712002,concentric,4,3.0,36745.0,214906.0,83950.0,212920.0,96544.0
2026-04-14 17:30:39.219649,340354,1609505332924531,2932894285,-0.921344,0.003904,-0.02928,-10.21125,-18.61125,2.02125,16.864,14.008,25.016,concentric,4,3.0,36745.0,214906.0,83950.0,212920.0,96544.0
2026-04-14 17:30:39.247999,340365,1609505332933550,2932903062,-0.921344,0.003904,-0.02928,2.58125,-16.2225,2.03,16.864,14.008,25.016,concentric,4,3.0,35714.0,209954.0,82200.0,209015.0,94628.0
2026-04-14 17:30:39.252708,340366,1609505332942675,2932911802,-0.796416,0.015616,0.046848,11.96125,-13.440001,1.9775,16.424002,14.272,25.592001,concentric,4,3.0,35714.0,209954.0,82200.0,209015.0,94628.0
2026-04-14 17:30:39.252940,340367,1609505332957219,2932926724,-0.796416,0.015616,0.046848,10.325,-12.74,1.68,16.424002,14.272,25.592001,concentric,4,3.0,35714.0,209954.0,82200.0,209015.0,94628.0
2026-04-14 17:30:39.257839,340368,1609505332966145,2932935403,-0.880352,-0.066368,-0.080032,-2.5375,-12.5825,2.56375,15.888001,14.608001,25.400002,concentric,4,3.0,35714.0,209954.0,82200.0,209015.0,94628.0
2026-04-14 17:30:39.273325,340369,1609505332980571,2932950339,-0.880352,-0.066368,-0.080032,-21.7875,-14.56,4.73375,15.888001,14.608001,25.400002,concentric,4,3.0,35714.0,209954.0,82200.0,209015.0,94628.0
2026-04-14 17:30:39.282062,340370,1609505332989563,2932959021,-0.864736,-0.148352,-0.11712,-31.2375,-16.59875,6.2475,16.656,14.408001,23.928001,concentric,4,3.0,35714.0,209954.0,82200.0,209015.0,94628.0
2026-04-14 17:30:39.298001,340371,1609505333004050,2932973895,-0.899872,-0.035136,-0.132736,-20.1775,-13.3875,8.1025,17.2,14.544001,25.848001,concentric,4,3.0,35714.0,209954.0,82200.0,209015.0,94628.0
2026-04-14 17:30:39.304794,340372,1609505333012997,2932982611,-0.899872,-0.035136,-0.132736,-1.47875,-8.74125,9.26625,17.2,14.544001,25.848001,concentric,4,3.0,35714.0,209954.0,82200.0,209015.0,94628.0
2026-04-14 17:30:39.314775,340373,1609505333022049,2932991343,-0.899872,0.074176,0.12688,10.6575,-6.7725,8.9075,17.2,14.544001,25.848001,concentric,4,3.0,35714.0,209954.0,82200.0,209015.0,94628.0
2026-04-14 17:30:39.347830,340384,1609505333036700,2933006586,-0.769088,0.066368,0.12688,10.15,-5.74875,8.26875,16.928001,14.016001,24.104002,concentric,4,3.0,35811.0,208291.0,82558.0,207705.0,95024.0
2026-04-14 17:30:39.350229,340385,1609505333045670,2933015305,-0.892064,0.027328,0.040992,-0.245,-6.32625,6.08125,15.136001,14.872001,26.184002,concentric,4,3.0,35811.0,208291.0,82558.0,207705.0,95024.0
2026-04-14 17:30:39.353011,340386,1609505333060136,2933030212,-0.892064,0.027328,0.040992,-11.78625,-6.37875,3.70125,15.136001,14.872001,26.184002,concentric,4,3.0,35811.0,208291.0,82558.0,207705.0,95024.0
2026-04-14 17:30:39.363460,340387,1609505333069061,2933038914,-0.853024,-0.080032,0.132736,-14.14,-7.16625,3.43,15.048,14.496,25.064001,concentric,4,3.0,35811.0,208291.0,82558.0,207705.0,95024.0
2026-04-14 17:30:39.376777,340388,1609505333083548,2933053779,-0.954528,0.033184,-0.013664,-6.7375,-5.06625,3.7975,17.048,14.224001,24.792002,concentric,4,3.0,35811.0,208291.0,82558.0,207705.0,95024.0
2026-04-14 17:30:39.387194,340389,1609505333092486,2933062488,-0.954528,0.033184,-0.013664,5.495,-0.77875,2.79125,17.048,14.224001,24.792002,concentric,4,3.0,35811.0,208291.0,82558.0,207705.0,95024.0
2026-04-14 17:30:39.395999,340390,1609505333101433,2933071178,-0.954528,0.033184,-0.013664,9.84375,1.9425,1.7675,17.048,14.224001,24.792002,concentric,4,3.0,35811.0,208291.0,82558.0,207705.0,95024.0
2026-04-14 17:30:39.408056,340391,1609505333115996,2933086091,-0.854976,0.080032,0.201056,-1.75875,3.28125,-0.62125,17.024,14.464001,24.096,concentric,4,3.0,35811.0,208291.0,82558.0,207705.0,95024.0
2026-04-14 17:30:39.418468,340392,1609505333124950,2933094786,-1.01504,-0.056608,-0.074176,-20.32625,3.57,-2.6425,16.392,14.952001,25.424002,concentric,4,3.0,35811.0,208291.0,82558.0,207705.0,95024.0
2026-04-14 17:30:39.517763,340403,1609505333139502,2933109793,-1.01504,-0.056608,-0.074176,-31.4475,2.73875,-3.745,16.392,14.952001,25.424002,concentric,4,3.0,34892.0,206855.0,80601.0,206762.0,92580.0
2026-04-14 17:30:39.520340,340404,1609505333148403,2933118444,-1.03456,-0.0976,0.054656,-23.10875,3.77125,-4.13875,16.664001,15.128,24.904001,concentric,4,3.0,34892.0,206855.0,80601.0,206762.0,92580.0
2026-04-14 17:30:39.522838,340405,1609505333162945,2933131287,-1.03456,-0.01952,0.160064,-6.93,5.83625,-3.50875,16.664001,15.128,24.904001,concentric,4,3.0,34892.0,206855.0,80601.0,206762.0,92580.0
2026-04-14 17:30:39.525353,340406,1609505333172174,2933142052,-1.085312,-0.02928,0.160064,4.515,8.435,-3.82375,16.712,14.504001,23.856,concentric,4,3.0,34892.0,206855.0,80601.0,206762.0,92580.0
2026-04-14 17:30:39.527839,340407,1609505333181100,2933150736,-1.085312,-0.02928,0.160064,7.16625,9.065,-4.7775,16.712,14.504001,23.856,concentric,4,3.0,34892.0,206855.0,80601.0,206762.0,92580.0
2026-04-14 17:30:39.530372,340408,1609505333195646,2933165605,-1.097024,-0.03904,0.03904,3.75375,8.07625,-4.935,17.76,14.728001,23.688002,concentric,4,3.0,34892.0,206855.0,80601.0,206762.0,92580.0
2026-04-14 17:30:39.532836,340409,1609505333204594,2933174278,-1.067744,-0.113216,-0.056608,-2.05625,6.58,-4.5325,17.568,14.464001,25.160002,concentric,4,3.0,34892.0,206855.0,80601.0,206762.0,92580.0
2026-04-14 17:30:39.536598,340410,1609505333219095,2933189220,-1.067744,-0.113216,-0.056608,-6.16,4.22625,-4.83,17.568,14.464001,25.160002,concentric,4,3.0,34892.0,206855.0,80601.0,206762.0,92580.0
2026-04-14 17:30:39.537849,340411,1609505333228041,2933197951,-1.056032,-0.144448,-0.027328,-4.94375,3.5,-3.955,17.856,14.72,23.944,concentric,4,3.0,34892.0,206855.0,80601.0,206762.0,92580.0
2026-04-14 17:30:39.565654,340422,1609505333237173,2933206724,-1.056032,-0.144448,-0.027328,-1.53125,2.07375,-1.89875,17.856,14.72,23.944,concentric,4,3.0,33733.0,206935.0,78298.0,206912.0,89882.0
2026-04-14 17:30:39.568156,340423,1609505333251832,2933221690,-1.056032,-0.05856,0.199104,1.8725,1.7325,-0.44625,17.584002,14.368001,23.632002,concentric,4,3.0,33733.0,206935.0,78298.0,206912.0,89882.0
2026-04-14 17:30:39.570653,340424,1609505333260791,2933230404,-1.056032,-0.05856,0.199104,4.62875,2.0125,0.62125,17.584002,14.368001,23.632002,concentric,4,3.0,33733.0,206935.0,78298.0,206912.0,89882.0
2026-04-14 17:30:39.573084,340425,1609505333275337,2933245293,-1.143872,-0.00976,-0.005856,5.46875,2.63375,1.015,17.640001,14.200001,23.648,concentric,4,3.0,33733.0,206935.0,78298.0,206912.0,89882.0
2026-04-14 17:30:39.578103,340426,1609505333284281,2933254047,-1.038464,0.0,0.115168,4.9175,2.485,-0.2625,17.640001,14.408001,24.464,concentric,4,3.0,33733.0,206935.0,78298.0,206912.0,89882.0
2026-04-14 17:30:39.603115,340427,1609505333298756,2933268914,-1.038464,0.0,0.115168,3.4125,1.8375,-2.65125,17.92,14.408001,24.464,concentric,4,3.0,33733.0,206935.0,78298.0,206912.0,89882.0
2026-04-14 17:30:39.605641,340428,1609505333307667,2933277628,-1.059936,-0.031232,-0.083936,4.3925,1.68875,-4.68125,17.968,14.296001,23.928001,concentric,4,3.0,33733.0,206935.0,78298.0,206912.0,89882.0
2026-04-14 17:30:39.609355,340429,1609505333316560,2933286300,-1.059936,-0.031232,-0.083936,5.71375,2.23125,-5.25,17.968,14.296001,23.928001,concentric,4,3.0,33733.0,206935.0,78298.0,206912.0,89882.0
2026-04-14 17:30:39.628029,340430,1609505333331100,2933301201,-1.079456,-0.017568,-0.046848,3.5175,3.28125,-5.075,17.128,14.224001,24.952002,concentric,4,3.0,33733.0,206935.0,78298.0,206912.0,89882.0
2026-04-14 17:30:39.655565,340441,1609505333340006,2933309933,-1.079456,-0.017568,-0.046848,-0.28,4.585,-4.99625,17.128,14.224001,24.952002,concentric,4,3.0,34028.0,207888.0,78872.0,207663.0,90495.0
2026-04-14 17:30:39.658101,340442,1609505333354543,2933322907,-1.026752,-0.01952,-0.00976,-3.26375,6.09,-5.46875,17.400002,14.536,25.104002,concentric,4,3.0,34028.0,207888.0,78872.0,207663.0,90495.0
2026-04-14 17:30:39.660550,340443,1609505333363847,2933333668,-1.026752,-0.01952,-0.00976,-4.34,7.2625,-5.81875,17.400002,14.536,25.104002,concentric,4,3.0,34028.0,207888.0,78872.0,207663.0,90495.0
2026-04-14 17:30:39.664382,340444,1609505333372806,2933342369,-1.026752,-0.05856,-0.122976,-4.7425,7.6475,-6.50125,16.992,14.528001,22.560001,concentric,4,3.0,34028.0,207888.0,78872.0,207663.0,90495.0
2026-04-14 17:30:39.680652,340445,1609505333387296,2933357244,-1.028704,-0.005856,0.081984,-1.46125,7.81375,-7.46375,18.032001,14.232,23.448002,concentric,4,3.0,34028.0,207888.0,78872.0,207663.0,90495.0
2026-04-14 17:30:39.689488,340446,1609505333396154,2933365926,-1.028704,-0.005856,0.081984,5.67,8.26875,-7.88375,18.032001,14.232,23.448002,concentric,4,3.0,34028.0,207888.0,78872.0,207663.0,90495.0
2026-04-14 17:30:39.704504,340447,1609505333410722,2933380809,-1.007232,0.015616,-0.035136,10.24625,9.555,-8.5225,17.864,13.968,23.744001,concentric,4,3.0,34028.0,207888.0,78872.0,207663.0,90495.0
2026-04-14 17:30:39.711922,340448,1609505333419626,2933389504,-1.007232,0.015616,-0.035136,9.0125,10.98125,-9.45,17.864,13.968,23.744001,concentric,4,3.0,34028.0,207888.0,78872.0,207663.0,90495.0
2026-04-14 17:30:39.754769,340459,1609505333434344,2933404711,-1.124352,0.021472,-0.015616,2.625,12.18875,-10.2375,18.016,14.608001,24.872002,concentric,4,3.0,34441.0,209826.0,79672.0,209557.0,91372.0
2026-04-14 17:30:39.757233,340460,1609505333443372,2933413481,-1.124352,0.021472,-0.015616,-5.495,12.24125,-10.12375,18.016,14.608001,24.872002,concentric,4,3.0,34441.0,209826.0,79672.0,209557.0,91372.0
2026-04-14 17:30:39.759306,340461,1609505333452347,2933422179,-1.110688,-0.08784,-0.10736,-11.47125,11.05125,-9.44125,18.056002,14.312,23.912,concentric,4,3.0,34441.0,209826.0,79672.0,209557.0,91372.0
2026-04-14 17:30:39.762246,340462,1609505333466850,2933437159,-1.028704,-0.091744,0.128832,-11.83875,10.70125,-8.46125,18.560001,14.568001,23.2,concentric,4,3.0,34441.0,209826.0,79672.0,209557.0,91372.0
2026-04-14 17:30:39.768045,340463,1609505333475822,2933445898,-1.028704,-0.091744,0.128832,-5.6875,11.025,-6.44,18.560001,14.568001,23.2,concentric,4,3.0,34441.0,209826.0,79672.0,209557.0,91372.0
2026-04-14 17:30:39.783510,340464,1609505333490353,2933458717,-1.038464,-0.02928,0.062464,2.695,11.45375,-4.64625,18.616001,14.304001,23.44,concentric,4,3.0,34441.0,209826.0,79672.0,209557.0,91372.0
2026-04-14 17:30:39.814951,340465,1609505333499555,2933469486,-1.038464,-0.02928,0.062464,8.5575,12.45125,-2.9225,18.616001,14.304001,23.44,concentric,4,3.0,34441.0,209826.0,79672.0,209557.0,91372.0
2026-04-14 17:30:39.835868,340466,1609505333514095,2933484376,-1.046272,0.017568,0.066368,8.25125,13.11625,-2.72125,18.848001,14.224001,23.744001,concentric,4,3.0,34441.0,209826.0,79672.0,209557.0,91372.0
2026-04-14 17:30:39.838369,340467,1609505333523039,2933493045,-1.046272,0.017568,0.066368,4.7425,12.43375,-3.71,18.848001,14.224001,23.744001,concentric,4,3.0,34441.0,209826.0,79672.0,209557.0,91372.0
2026-04-14 17:30:39.840776,340468,1609505333531977,2933501756,-1.10288,-0.01952,-0.101504,0.1225,10.386251,-4.8825,17.92,14.544001,24.856,concentric,4,3.0,34441.0,209826.0,79672.0,209557.0,91372.0
2026-04-14 17:30:39.868520,340479,1609505333546550,2933516703,-1.046272,-0.052704,-0.070272,-2.89625,8.47,-5.6525,17.832,14.456,24.216002,concentric,4,3.0,35205.0,212716.0,81020.0,212329.0,92901.0
2026-04-14 17:30:39.871005,340480,1609505333555574,2933525396,-1.046272,-0.052704,-0.070272,-2.0825,6.93875,-6.08125,17.832,14.456,24.216002,concentric,4,3.0,35205.0,212716.0,81020.0,212329.0,92901.0
2026-04-14 17:30:39.873481,340481,1609505333570088,2933540281,-0.962336,-0.070272,-0.023424,1.5575,6.55375,-6.43125,18.032001,14.344001,24.000002,concentric,4,3.0,35205.0,212716.0,81020.0,212329.0,92901.0
2026-04-14 17:30:39.875965,340482,1609505333579004,2933548993,-0.962336,-0.070272,-0.023424,3.84125,6.71125,-6.125,18.032001,14.344001,24.000002,concentric,4,3.0,35205.0,212716.0,81020.0,212329.0,92901.0
2026-04-14 17:30:39.881004,340483,1609505333587932,2933557668,-1.026752,-0.056608,-0.037088,3.75375,6.965,-5.78375,19.096,14.128,23.712002,concentric,4,3.0,35205.0,212716.0,81020.0,212329.0,92901.0
2026-04-14 17:30:39.897232,340484,1609505333602385,2933572557,-1.026752,-0.056608,-0.037088,2.03,7.8575,-5.31125,19.096,14.128,23.712002,concentric,4,3.0,35205.0,212716.0,81020.0,212329.0,92901.0
2026-04-14 17:30:39.904829,340485,1609505333611292,2933581225,-1.106784,-0.06832,-0.111264,0.13125,9.23125,-5.1625,19.128,14.240001,23.984001,concentric,4,3.0,35205.0,212716.0,81020.0,212329.0,92901.0
2026-04-14 17:30:39.918367,340486,1609505333625932,2933596178,-1.106784,-0.085888,-0.160064,0.56875,10.1325,-5.04875,19.128,14.240001,23.984001,concentric,4,3.0,35205.0,212716.0,81020.0,212329.0,92901.0
2026-04-14 17:30:39.954512,340497,1609505333635369,2933604894,-1.0248,-0.085888,-0.160064,1.925,9.37125,-5.075,18.664001,14.432001,20.952002,concentric,4,3.0,36903.0,218589.0,84173.0,218150.0,96534.0
2026-04-14 17:30:39.957245,340498,1609505333644646,2933613598,-1.0248,-0.085888,-0.160064,2.23125,8.9775,-5.24125,18.664001,14.432001,20.952002,concentric,4,3.0,36903.0,218589.0,84173.0,218150.0,96534.0
2026-04-14 17:30:39.959391,340499,1609505333659159,2933628583,-1.042368,-0.040992,-0.035136,0.91875,8.47875,-5.34625,17.856,14.592001,25.256,concentric,4,3.0,36903.0,218589.0,84173.0,218150.0,96534.0
2026-04-14 17:30:39.962266,340500,1609505333668072,2933637288,-0.964288,-0.060512,0.105408,-0.55125,8.53125,-4.76875,17.632,14.224001,24.488,concentric,4,3.0,36903.0,218589.0,84173.0,218150.0,96534.0
2026-04-14 17:30:39.975926,340501,1609505333682543,2933652194,-0.964288,-0.060512,0.105408,-1.40875,8.74125,-4.12125,17.632,14.224001,24.488,concentric,4,3.0,36903.0,218589.0,84173.0,218150.0,96534.0
2026-04-14 17:30:39.984476,340502,1609505333691447,2933660866,-1.046272,-0.042944,-0.007808,-1.65375,8.995,-5.06625,19.608002,14.344001,23.792002,concentric,4,3.0,36903.0,218589.0,84173.0,218150.0,96534.0
2026-04-14 17:30:40.002403,340503,1609505333705965,2933675781,-1.046272,-0.042944,-0.007808,0.4725,9.695,-5.11875,19.608002,14.344001,23.792002,concentric,4,3.0,36903.0,218589.0,84173.0,218150.0,96534.0
2026-04-14 17:30:40.009243,340504,1609505333714940,2933684473,-0.976,-0.08784,-0.044896,1.75,9.16125,-4.99625,19.248001,13.504001,21.872002,concentric,4,3.0,36903.0,218589.0,84173.0,218150.0,96534.0
2026-04-14 17:30:40.017127,340505,1609505333723935,2933693172,-0.976,-0.08784,-0.044896,1.1725,7.58625,-5.145,19.248001,13.504001,21.872002,concentric,4,3.0,36903.0,218589.0,84173.0,218150.0,96534.0
2026-04-14 17:30:40.056044,340516,1609505333738863,2933708386,-1.06384,-0.060512,-0.056608,1.8725,7.74375,-4.2525,19.096,14.160001,24.928001,concentric,4,3.0,39212.0,224048.0,88457.0,223487.0,101439.0
2026-04-14 17:30:40.058419,340517,1609505333747912,2933717252,-0.981856,-0.089792,-0.095648,3.17625,8.32125,-3.28125,18.488,13.880001,24.960001,concentric,4,3.0,39212.0,224048.0,88457.0,223487.0,101439.0
2026-04-14 17:30:40.061101,340518,1609505333762373,2933732176,-0.981856,-0.089792,-0.095648,2.30125,9.44125,-2.79125,18.488,13.880001,24.960001,concentric,4,3.0,39212.0,224048.0,88457.0,223487.0,101439.0
2026-04-14 17:30:40.065668,340519,1609505333771295,2933740912,-1.028704,-0.064416,-0.189344,1.19,10.745,-3.1675,18.904001,13.984,25.232,concentric,4,3.0,39212.0,224048.0,88457.0,223487.0,101439.0
2026-04-14 17:30:40.092908,340520,1609505333780208,2933749643,-1.028704,-0.064416,-0.189344,3.465,11.40125,-3.45625,18.904001,13.984,25.232,concentric,4,3.0,39212.0,224048.0,88457.0,223487.0,101439.0
2026-04-14 17:30:40.100722,340521,1609505333794705,2933764545,-0.991616,-0.05856,-0.121024,4.1825,10.42125,-4.06875,18.84,13.968,25.464,concentric,4,3.0,39212.0,224048.0,88457.0,223487.0,101439.0
2026-04-14 17:30:40.103607,340522,1609505333803654,2933773279,-0.991616,-0.05856,-0.121024,3.6925,9.75625,-3.3775,18.84,13.968,25.464,concentric,4,3.0,39212.0,224048.0,88457.0,223487.0,101439.0
2026-04-14 17:30:40.110582,340523,1609505333818134,2933788171,-1.026752,-0.046848,-0.056608,2.73,9.73875,-2.44125,18.936,13.880001,26.048,concentric,4,3.0,39212.0,224048.0,88457.0,223487.0,101439.0
2026-04-14 17:30:40.120570,340524,1609505333827065,2933796842,-1.026752,-0.046848,0.0488,-0.23625,10.59625,-2.73875,18.936,13.880001,26.048,concentric,4,3.0,39212.0,224048.0,88457.0,223487.0,101439.0
2026-04-14 17:30:40.176970,340535,1609505333841606,2933811809,-1.011136,-0.011712,0.0488,-3.50875,12.46875,-3.64,19.064001,14.152,23.008001,concentric,4,3.0,40351.0,225890.0,90572.0,225127.0,103826.0
2026-04-14 17:30:40.199243,340536,1609505333850590,2933820602,-1.028704,-0.060512,-0.124928,-5.6525,13.72875,-4.6725,19.176,13.72,24.592001,concentric,4,3.0,40351.0,225890.0,90572.0,225127.0,103826.0
2026-04-14 17:30:40.201844,340537,1609505333859506,2933829285,-1.028704,-0.060512,-0.124928,-6.0025,13.48375,-5.10125,19.176,13.72,24.592001,concentric,4,3.0,40351.0,225890.0,90572.0,225127.0,103826.0
2026-04-14 17:30:40.204422,340538,1609505333873985,2933844200,-0.977952,-0.111264,-0.115168,-2.40625,11.34875,-4.8125,19.336,13.336,24.400002,concentric,4,3.0,40351.0,225890.0,90572.0,225127.0,103826.0
2026-04-14 17:30:40.206900,340539,1609505333882890,2933852864,-0.977952,-0.111264,-0.115168,2.77375,8.96875,-3.1325,19.336,13.336,24.400002,concentric,4,3.0,40351.0,225890.0,90572.0,225127.0,103826.0
2026-04-14 17:30:40.209340,340540,1609505333897369,2933865715,-0.931104,-0.027328,0.089792,3.56125,6.4225,-1.295,19.656,13.344001,24.056002,concentric,4,3.0,40351.0,225890.0,90572.0,225127.0,103826.0
2026-04-14 17:30:40.211658,340541,1609505333906512,2933876523,-0.931104,-0.027328,0.089792,0.16625,5.2325,-0.9625,19.656,13.344001,24.056002,concentric,4,3.0,40351.0,225890.0,90572.0,225127.0,103826.0
2026-04-14 17:30:40.214319,340542,1609505333920958,2933889367,-0.977952,-0.007808,0.037088,-4.47125,5.43375,-0.9625,19.256,13.408001,24.816002,concentric,4,3.0,40351.0,225890.0,90572.0,225127.0,103826.0
2026-04-14 17:30:40.224441,340543,1609505333930292,2933900141,-0.977952,-0.074176,0.091744,-9.1875,5.9325,-1.14625,18.288,13.544001,25.472002,concentric,4,3.0,40351.0,225890.0,90572.0,225127.0,103826.0
2026-04-14 17:30:40.255713,340554,1609505333939760,2933908869,-0.977952,-0.074176,0.091744,-13.86,6.23875,-1.4175,18.288,13.544001,25.472002,concentric,4,3.0,40269.0,225953.0,90494.0,225824.0,103711.0
2026-04-14 17:30:40.258189,340555,1609505333954336,2933923824,-1.01504,-0.081984,-0.013664,-14.1225,7.62125,-0.74375,17.632,13.328001,24.912,concentric,4,3.0,40269.0,225953.0,90494.0,225824.0,103711.0
2026-04-14 17:30:40.260716,340556,1609505333963254,2933932529,-1.01504,-0.081984,-0.013664,-6.9475,8.9425,-0.84,17.632,13.328001,24.912,concentric,4,3.0,40269.0,225953.0,90494.0,225824.0,103711.0
2026-04-14 17:30:40.271921,340557,1609505333977715,2933947473,-0.952576,-0.011712,0.013664,3.0275,10.2725,-1.7675,17.808,12.848001,24.264002,concentric,4,3.0,40269.0,225953.0,90494.0,225824.0,103711.0
2026-04-14 17:30:40.280342,340558,1609505333986637,2933956150,-0.952576,-0.011712,0.013664,7.7875,11.62875,-2.38,17.808,12.848001,24.264002,concentric,4,3.0,40269.0,225953.0,90494.0,225824.0,103711.0
2026-04-14 17:30:40.291410,340559,1609505333995580,2933964816,-1.08336,0.083936,-0.103456,2.65125,11.4625,-4.4975,18.224,12.8,20.080002,concentric,4,3.0,40269.0,225953.0,90494.0,225824.0,103711.0
2026-04-14 17:30:40.302115,340560,1609505334010017,2933979757,-0.981856,-0.0488,0.080032,-10.66625,11.22625,-7.8925,17.304,12.496,23.736002,concentric,4,3.0,40269.0,225953.0,90494.0,225824.0,103711.0
2026-04-14 17:30:40.312156,340561,1609505334018985,2933988433,-0.981856,-0.0488,0.080032,-27.0725,10.01875,-10.03625,17.304,12.496,23.736002,concentric,4,3.0,40269.0,225953.0,90494.0,225824.0,103711.0
2026-04-14 17:30:40.328200,340562,1609505334033460,2934003325,-0.974048,-0.138592,0.02928,-31.6225,10.08875,-10.12375,16.432001,13.048,24.168001,concentric,4,3.0,40269.0,225953.0,90494.0,225824.0,103711.0
2026-04-14 17:30:40.358514,340573,1609505334042511,2934012276,-0.974048,-0.138592,0.02928,-24.2025,10.85875,-9.415,16.432001,13.048,24.168001,concentric,4,3.0,40306.0,228130.0,90536.0,227493.0,103854.0
2026-04-14 17:30:40.360697,340574,1609505334057031,2934027176,-0.989664,-0.083936,-0.21472,-8.51375,12.36375,-9.1175,16.656,12.592001,22.592001,concentric,4,3.0,40306.0,228130.0,90536.0,227493.0,103854.0
2026-04-14 17:30:40.363516,340575,1609505334066076,2934035945,-0.989664,-0.083936,-0.21472,5.43375,13.1775,-8.39125,16.656,12.592001,22.592001,concentric,4,3.0,40306.0,228130.0,90536.0,227493.0,103854.0
2026-04-14 17:30:40.368517,340576,1609505334075042,2934044643,-1.081408,0.062464,-0.040992,8.05875,12.95875,-8.51375,16.648,12.264001,22.12,concentric,4,3.0,40306.0,228130.0,90536.0,227493.0,103854.0
2026-04-14 17:30:40.383492,340577,1609505334089554,2934059520,-1.022848,-0.083936,0.044896,-2.16125,11.305,-8.3825,16.688002,12.52,22.504002,concentric,4,3.0,40306.0,228130.0,90536.0,227493.0,103854.0
2026-04-14 17:30:40.392195,340578,1609505334098453,2934068183,-1.022848,-0.083936,0.044896,-17.21125,9.37125,-8.5925,16.688002,12.52,22.504002,concentric,4,3.0,40306.0,228130.0,90536.0,227493.0,103854.0
2026-04-14 17:30:40.407114,340579,1609505334113043,2934083281,-1.042368,-0.162016,-0.08784,-24.08875,7.30625,-7.28875,16.672,12.008,20.928001,concentric,4,3.0,40306.0,228130.0,90536.0,227493.0,103854.0
2026-04-14 17:30:40.414666,340580,1609505334121931,2934091949,-1.042368,-0.162016,-0.08784,-16.1,6.86,-6.3175,16.672,12.008,20.928001,concentric,4,3.0,40306.0,228130.0,90536.0,227493.0,103854.0
2026-04-14 17:30:40.429465,340581,1609505334136449,2934104805,-0.96624,-0.081984,-0.06832,2.0825,7.665,-5.1975,16.16,12.56,19.160002,concentric,4,3.0,40306.0,228130.0,90536.0,227493.0,103854.0
2026-04-14 17:30:40.459378,340592,1609505334145740,2934115633,-0.96624,-0.081984,-0.06832,15.9775,8.56625,-5.25875,16.16,12.56,19.160002,concentric,4,3.0,40957.0,230150.0,91944.0,229508.0,105412.0
2026-04-14 17:30:40.462242,340593,1609505334154808,2934124377,-1.087264,0.089792,0.021472,18.24375,8.68,-5.88,16.192001,12.224001,19.288,concentric,4,3.0,40957.0,230150.0,91944.0,229508.0,105412.0
2026-04-14 17:30:40.464437,340594,1609505334169341,2934139348,-1.087264,-0.080032,0.021472,9.52875,7.74375,-6.4575,16.192001,12.224001,19.288,concentric,4,3.0,40957.0,230150.0,91944.0,229508.0,105412.0
2026-04-14 17:30:40.470540,340595,1609505334178264,2934148029,-1.016992,-0.080032,0.021472,-11.45375,5.27625,-8.16375,17.792002,12.224001,18.968,concentric,4,3.0,40957.0,230150.0,91944.0,229508.0,105412.0
2026-04-14 17:30:40.485965,340596,1609505334192731,2934162923,-0.999424,-0.201056,-0.033184,-28.14,3.38625,-8.715,18.464,12.496,18.152,concentric,4,3.0,40957.0,230150.0,91944.0,229508.0,105412.0
2026-04-14 17:30:40.497176,340597,1609505334201655,2934171609,-0.999424,-0.201056,-0.033184,-22.8025,3.78,-7.55125,18.464,12.496,18.152,concentric,4,3.0,40957.0,230150.0,91944.0,229508.0,105412.0
2026-04-14 17:30:40.503424,340598,1609505334210578,2934180296,-1.009184,-0.115168,-0.138592,-0.16625,5.3025,-6.67625,19.016,12.152,15.088,concentric,4,3.0,40957.0,230150.0,91944.0,229508.0,105412.0
2026-04-14 17:30:40.519815,340599,1609505334225052,2934195182,-1.009184,-0.115168,-0.138592,17.9375,6.53625,-7.1225,19.016,12.152,15.088,concentric,4,3.0,40957.0,230150.0,91944.0,229508.0,105412.0
2026-04-14 17:30:40.544824,340600,1609505334234010,2934203872,-1.089216,0.035136,-0.080032,21.18375,6.545,-7.18375,18.936,12.704,18.704,concentric,4,3.0,40957.0,230150.0,91944.0,229508.0,105412.0
2026-04-14 17:30:40.599730,340611,1609505334248629,2934218800,-1.089216,0.035136,-0.080032,13.3,6.71125,-7.3325,18.936,12.704,18.704,concentric,4,3.0,43601.0,236505.0,96859.0,235272.0,110935.0
2026-04-14 17:30:40.602195,340612,1609505334257584,2934227467,-1.020896,-0.013664,-0.027328,-0.62125,6.195,-9.17,20.192001,12.528001,18.160002,concentric,4,3.0,43601.0,236505.0,96859.0,235272.0,110935.0
2026-04-14 17:30:40.604678,340613,1609505334272067,2934242386,-1.048224,-0.148352,-0.121024,-18.41875,5.3375,-11.50625,21.496,12.896001,17.640001,concentric,4,3.0,43601.0,236505.0,96859.0,235272.0,110935.0
2026-04-14 17:30:40.606717,340614,1609505334280955,2934251043,-1.048224,-0.148352,-0.121024,-28.848751,4.4975,-11.34,21.496,12.896001,17.640001,concentric,4,3.0,43601.0,236505.0,96859.0,235272.0,110935.0
2026-04-14 17:30:40.609278,340615,1609505334289855,2934259989,-1.048224,-0.148352,0.0,-24.99875,4.4625,-8.70625,21.496,12.896001,17.640001,concentric,4,3.0,43601.0,236505.0,96859.0,235272.0,110935.0
2026-04-14 17:30:40.611955,340616,1609505334304343,2934272965,-0.979904,-0.169824,0.0,-14.27125,4.83875,-5.69625,22.024,13.008,18.872002,concentric,4,3.0,43601.0,236505.0,96859.0,235272.0,110935.0
2026-04-14 17:30:40.614804,340617,1609505334313533,2934283788,-1.011136,-0.060512,0.080032,-5.1275,5.4075,-4.235,22.44,13.368001,19.272001,concentric,4,3.0,43601.0,236505.0,96859.0,235272.0,110935.0
2026-04-14 17:30:40.619854,340618,1609505334328077,2934296611,-1.011136,-0.060512,0.080032,0.0175,7.455,-3.31625,22.44,13.368001,19.272001,concentric,4,3.0,43601.0,236505.0,96859.0,235272.0,110935.0
2026-04-14 17:30:40.656717,340629,1609505334337495,2934307500,-1.050176,0.03904,0.003904,1.86375,9.47625,-3.70125,22.44,13.656001,19.528002,concentric,4,3.0,48255.0,245949.0,105169.0,243081.0,119977.0
2026-04-14 17:30:40.659281,340630,1609505334346494,2934316203,-1.050176,0.03904,0.003904,-1.8725,10.57875,-6.44,22.44,13.656001,19.528002,concentric,4,3.0,48255.0,245949.0,105169.0,243081.0,119977.0
2026-04-14 17:30:40.664713,340631,1609505334360967,2934331106,-0.983808,-0.101504,-0.10736,-10.4125,9.35375,-8.98625,22.472,14.016001,19.848001,concentric,4,3.0,48255.0,245949.0,105169.0,243081.0,119977.0
2026-04-14 17:30:40.664805,340632,1609505334369932,2934339816,-0.983808,-0.101504,-0.10736,-13.93875,7.2975,-9.72125,22.472,14.016001,19.848001,concentric,4,3.0,48255.0,245949.0,105169.0,243081.0,119977.0
2026-04-14 17:30:40.678208,340633,1609505334384427,2934354753,-1.091168,-0.163968,-0.318176,-9.3275,5.985,-9.45,23.248001,14.360001,19.792002,concentric,4,3.0,48255.0,245949.0,105169.0,243081.0,119977.0
2026-04-14 17:30:40.685804,340634,1609505334393345,2934363452,-1.091168,-0.119072,-0.171776,-3.15875,4.22625,-9.63375,24.080002,13.768001,19.36,concentric,4,3.0,48255.0,245949.0,105169.0,243081.0,119977.0
2026-04-14 17:30:40.700590,340635,1609505334407822,2934376286,-1.091168,-0.119072,-0.171776,3.03625,2.835,-9.345,24.080002,13.768001,19.36,concentric,4,3.0,48255.0,245949.0,105169.0,243081.0,119977.0
2026-04-14 17:30:40.738348,340636,1609505334417110,2934387023,-1.089216,-0.0488,-0.035136,7.95375,1.88125,-8.7325,24.024002,14.232,21.104,concentric,4,3.0,48255.0,245949.0,105169.0,243081.0,119977.0
2026-04-14 17:30:40.740812,340637,1609505334426025,2934395703,-1.089216,-0.0488,-0.035136,6.79,0.9275,-9.14375,24.024002,14.232,21.104,concentric,4,3.0,48255.0,245949.0,105169.0,243081.0,119977.0
2026-04-14 17:30:40.773010,340649,1609505334440836,2934410659,-1.036512,-0.138592,-0.179584,-1.28625,-0.9275,-8.05,24.472002,13.840001,20.44,concentric,4,3.0,51514.0,250422.0,110898.0,247416.0,125688.0
2026-04-14 17:30:40.775806,340650,1609505334449839,2934419364,-1.036512,-0.138592,-0.179584,-10.5875,-3.77125,-5.145,24.472002,13.840001,20.44,concentric,4,3.0,51514.0,250422.0,110898.0,247416.0,125688.0
2026-04-14 17:30:40.778429,340651,1609505334464327,2934434266,-1.114592,-0.197152,-0.236192,-17.15875,-5.45125,-1.67125,24.656002,14.240001,19.720001,concentric,4,3.0,51514.0,250422.0,110898.0,247416.0,125688.0
2026-04-14 17:30:40.780943,340652,1609505334473324,2934443030,-1.124352,-0.105408,-0.01952,-20.1075,-5.845,1.3475,24.880001,14.664001,20.704,concentric,4,3.0,51514.0,250422.0,110898.0,247416.0,125688.0
2026-04-14 17:30:40.783031,340653,1609505334482245,2934451755,-1.124352,-0.105408,-0.01952,-18.6375,-5.7575,3.71,24.880001,14.664001,20.704,concentric,4,3.0,51514.0,250422.0,110898.0,247416.0,125688.0
2026-04-14 17:30:40.789767,340654,1609505334496760,2934466749,-1.227808,-0.115168,-0.327936,-16.89625,-5.46,4.82125,24.904001,14.736001,21.800001,concentric,4,3.0,51514.0,250422.0,110898.0,247416.0,125688.0
2026-04-14 17:30:40.800924,340655,1609505334505677,2934475450,-1.227808,-0.115168,-0.327936,-15.4875,-6.2825,4.59375,24.904001,14.736001,21.800001,concentric,4,3.0,51514.0,250422.0,110898.0,247416.0,125688.0
2026-04-14 17:30:40.813511,340656,1609505334520150,2934490347,-1.120448,-0.08784,-0.314272,-7.4375,-6.93,3.3075,24.472002,14.72,22.68,concentric,4,3.0,51514.0,250422.0,110898.0,247416.0,125688.0
2026-04-14 17:30:40.823497,340657,1609505334529083,2934499029,-1.120448,-0.08784,-0.314272,1.51375,-7.62125,2.24,24.472002,14.72,22.68,concentric,4,3.0,51514.0,250422.0,110898.0,247416.0,125688.0
2026-04-14 17:30:40.868618,340668,1609505334543984,2934513951,-1.169248,-0.035136,-0.193248,-0.13125,-9.292501,1.56625,23.736002,14.752001,21.76,eccentric,4,3.0,49768.0,247475.0,108209.0,244786.0,122802.0
2026-04-14 17:30:40.871023,340669,1609505334552991,2934522670,-1.194624,-0.10736,-0.142496,-9.31,-10.91125,1.74125,24.096,14.936001,23.288002,eccentric,4,3.0,49768.0,247475.0,108209.0,244786.0,122802.0
2026-04-14 17:30:40.871109,340670,1609505334561916,2934531381,-1.194624,-0.10736,-0.142496,-17.3075,-11.97,2.17,24.096,14.936001,23.288002,eccentric,4,3.0,49768.0,247475.0,108209.0,244786.0,122802.0
2026-04-14 17:30:40.872764,340671,1609505334576529,2934546262,-1.179008,-0.109312,-0.138592,-19.53,-11.80375,1.42625,23.832,15.128,23.296001,eccentric,4,3.0,49768.0,247475.0,108209.0,244786.0,122802.0
2026-04-14 17:30:40.880337,340672,1609505334585445,2934554950,-1.179008,-0.109312,-0.138592,-14.5775,-10.2375,1.14625,23.832,15.128,23.296001,eccentric,4,3.0,49768.0,247475.0,108209.0,244786.0,122802.0
2026-04-14 17:30:40.913053,340673,1609505334599908,2934569794,-1.149728,-0.052704,0.0488,-7.62125,-7.70875,-0.035,24.976002,14.928,22.376001,eccentric,4,3.0,49768.0,247475.0,108209.0,244786.0,122802.0
2026-04-14 17:30:40.938053,340674,1609505334608876,2934578506,-1.149728,-0.052704,0.0488,-1.9075,-4.7075,-1.925,24.976002,14.928,22.376001,eccentric,4,3.0,49768.0,247475.0,108209.0,244786.0,122802.0
2026-04-14 17:30:40.963086,340675,1609505334623361,2934593390,-1.124352,-0.054656,-0.001952,-1.49625,-1.47875,-3.3775,23.152,15.536001,24.720001,eccentric,4,3.0,49768.0,247475.0,108209.0,244786.0,122802.0
2026-04-14 17:30:40.968127,340676,1609505334632254,2934602107,-1.124352,-0.085888,-0.052704,-8.365,-0.07,-4.1825,23.152,15.536001,24.720001,eccentric,4,3.0,49768.0,247475.0,108209.0,244786.0,122802.0
2026-04-14 17:30:40.998114,340687,1609505334641673,2934611313,-1.214144,-0.08784,-0.052704,-16.5375,-0.37625,-4.66375,23.016,15.896001,23.480001,eccentric,4,3.0,51130.0,250655.0,110201.0,246936.0,124905.0
2026-04-14 17:30:41.000635,340688,1609505334656214,2934626194,-1.186816,-0.158112,-0.181536,-16.58125,-0.2275,-5.6525,24.072,15.584001,23.672,eccentric,4,3.0,51130.0,250655.0,110201.0,246936.0,124905.0
2026-04-14 17:30:41.003175,340689,1609505334665137,2934634949,-1.186816,-0.158112,-0.181536,-8.505,-1.5925,-5.20625,24.072,15.584001,23.672,eccentric,4,3.0,51130.0,250655.0,110201.0,246936.0,124905.0
2026-04-14 17:30:41.005678,340690,1609505334679628,2934649826,-1.18096,-0.074176,-0.013664,-2.14375,-3.29,-3.7275,23.960001,15.496,23.840002,eccentric,4,3.0,51130.0,250655.0,110201.0,246936.0,124905.0
2026-04-14 17:30:41.008220,340691,1609505334688624,2934658553,-1.18096,-0.074176,-0.013664,0.25375,-4.095,-0.945,23.960001,15.496,23.840002,eccentric,4,3.0,51130.0,250655.0,110201.0,246936.0,124905.0
2026-04-14 17:30:41.010666,340692,1609505334697570,2934667236,-1.216096,-0.072224,-0.005856,-2.9575,-4.19125,0.84,24.176,15.416,24.232,eccentric,4,3.0,51130.0,250655.0,110201.0,246936.0,124905.0
2026-04-14 17:30:41.013095,340693,1609505334712080,2934682172,-1.216096,-0.072224,-0.005856,-10.22,-4.725,1.09375,24.176,15.416,24.232,eccentric,4,3.0,51130.0,250655.0,110201.0,246936.0,124905.0
2026-04-14 17:30:41.015544,340694,1609505334720978,2934690902,-1.323456,-0.128832,-0.320128,-17.07125,-5.7925,1.9425,23.704,15.528001,23.568,eccentric,4,3.0,51130.0,250655.0,110201.0,246936.0,124905.0
2026-04-14 17:30:41.030699,340695,1609505334735529,2934705797,-1.22,-0.152256,-0.271328,-16.59,-6.4575,2.91375,24.704,15.808001,23.488,eccentric,4,3.0,51130.0,250655.0,110201.0,246936.0,124905.0
2026-04-14 17:30:41.057805,340706,1609505334744928,2934714517,-1.22,-0.152256,-0.271328,-9.3625,-6.39625,3.24625,24.704,15.808001,23.488,eccentric,4,3.0,50271.0,249556.0,108725.0,245553.0,123393.0
2026-04-14 17:30:41.060468,340707,1609505334753979,2934723248,-1.309792,-0.070272,-0.255712,0.00875,-5.9325,1.93375,24.816002,15.240001,23.208,eccentric,4,3.0,50271.0,249556.0,108725.0,245553.0,123393.0
2026-04-14 17:30:41.063046,340708,1609505334768586,2934738259,-1.309792,-0.070272,-0.255712,4.935,-5.18,0.74375,24.816002,15.240001,23.208,eccentric,4,3.0,50271.0,249556.0,108725.0,245553.0,123393.0
2026-04-14 17:30:41.070624,340709,1609505334777514,2934746953,-1.206336,-0.025376,0.02928,0.14875,-4.68125,0.16625,24.736002,15.424001,23.128,eccentric,4,3.0,50271.0,249556.0,108725.0,245553.0,123393.0
2026-04-14 17:30:41.091938,340710,1609505334792084,2934761832,-1.206336,-0.025376,0.02928,-11.13875,-3.6925,-0.8575,24.736002,15.424001,23.128,eccentric,4,3.0,50271.0,249556.0,108725.0,245553.0,123393.0
2026-04-14 17:30:41.094479,340711,1609505334800984,2934770487,-1.255136,-0.179584,-0.25376,-20.4225,-3.22875,-2.555,24.664001,15.928,25.592001,eccentric,4,3.0,50271.0,249556.0,108725.0,245553.0,123393.0
2026-04-14 17:30:41.109409,340712,1609505334815539,2934785424,-1.179008,-0.220576,-0.144448,-21.02625,-2.91375,-3.17625,23.880001,15.912001,23.784,eccentric,4,3.0,50271.0,249556.0,108725.0,245553.0,123393.0
2026-04-14 17:30:41.116940,340713,1609505334824469,2934794100,-1.179008,-0.220576,-0.144448,-11.71625,-1.49625,-2.6075,23.880001,15.912001,23.784,eccentric,4,3.0,50271.0,249556.0,108725.0,245553.0,123393.0
2026-04-14 17:30:41.128217,340714,1609505334833425,2934802793,-1.179008,-0.220576,-0.138592,4.47125,0.53375,-2.5375,23.880001,15.912001,23.784,eccentric,4,3.0,50271.0,249556.0,108725.0,245553.0,123393.0
2026-04-14 17:30:41.159188,340725,1609505334848063,2934817760,-1.225856,-0.103456,-0.138592,18.62875,2.275,-2.485,24.400002,15.400001,21.496,eccentric,4,3.0,50852.0,250774.0,109768.0,246524.0,124405.0
2026-04-14 17:30:41.161890,340726,1609505334857085,2934826538,-1.19072,-0.031232,-0.0488,19.6,2.905,-2.65125,24.376001,15.728001,24.656002,eccentric,4,3.0,50852.0,250774.0,109768.0,246524.0,124405.0
2026-04-14 17:30:41.164477,340727,1609505334871609,2934841502,-1.19072,-0.031232,-0.0488,6.9475,2.02125,-2.8,24.376001,15.728001,24.656002,eccentric,4,3.0,50852.0,250774.0,109768.0,246524.0,124405.0
2026-04-14 17:30:41.173227,340728,1609505334880566,2934850215,-1.257088,-0.169824,-0.284992,-8.81125,-0.06125,-3.54375,24.632002,15.856001,24.712002,eccentric,4,3.0,50852.0,250774.0,109768.0,246524.0,124405.0
2026-04-14 17:30:41.189592,340729,1609505334895046,2934865069,-1.22976,-0.16592,-0.027328,-15.49625,-2.05625,-2.8,24.672,15.504001,25.568,eccentric,4,3.0,50852.0,250774.0,109768.0,246524.0,124405.0
2026-04-14 17:30:41.200733,340730,1609505334903976,2934873784,-1.22976,-0.16592,-0.027328,-11.235,-2.59875,-1.37375,24.672,15.504001,25.568,eccentric,4,3.0,50852.0,250774.0,109768.0,246524.0,124405.0
2026-04-14 17:30:41.205726,340731,1609505334912899,2934882468,-1.22976,-0.16592,-0.027328,1.09375,-2.1,-0.04375,24.672,15.504001,25.568,eccentric,4,3.0,50852.0,250774.0,109768.0,246524.0,124405.0
2026-04-14 17:30:41.220729,340732,1609505334927362,2934897350,-1.292224,-0.042944,-0.052704,8.33875,-1.1725,0.84,24.024002,15.400001,25.296001,eccentric,4,3.0,50852.0,250774.0,109768.0,246524.0,124405.0
2026-04-14 17:30:41.232481,340733,1609505334936292,2934906018,-1.221952,-0.076128,-0.179584,3.52625,-1.05875,0.2975,24.032001,15.448001,24.672,eccentric,4,3.0,50852.0,250774.0,109768.0,246524.0,124405.0
2026-04-14 17:30:41.281001,340744,1609505334951283,2934921231,-1.221952,-0.076128,-0.179584,-7.74375,-0.91,-0.4725,24.032001,15.448001,24.672,eccentric,4,3.0,50422.0,250397.0,108899.0,245904.0,123345.0
2026-04-14 17:30:41.306085,340745,1609505334960251,2934929919,-1.223904,-0.171776,-0.023424,-17.19375,-1.435,-1.4525,24.016,15.720001,24.576,eccentric,4,3.0,50422.0,250397.0,108899.0,245904.0,123345.0
2026-04-14 17:30:41.308183,340746,1609505334969199,2934938683,-1.223904,-0.171776,-0.023424,-16.695,-1.2075,-1.25125,24.016,15.720001,24.576,eccentric,4,3.0,50422.0,250397.0,108899.0,245904.0,123345.0
2026-04-14 17:30:41.311063,340747,1609505334983727,2934953552,-1.20048,-0.179584,-0.115168,-4.08625,-0.09625,-0.21,24.160002,15.552001,25.44,eccentric,4,3.0,50422.0,250397.0,108899.0,245904.0,123345.0
2026-04-14 17:30:41.313547,340748,1609505334992628,2934962258,-1.20048,-0.179584,-0.115168,13.7025,1.82875,0.1575,24.160002,15.552001,25.44,eccentric,4,3.0,50422.0,250397.0,108899.0,245904.0,123345.0
2026-04-14 17:30:41.316107,340749,1609505335007084,2934977162,-1.177056,-0.03904,-0.00976,23.2225,2.5375,0.32375,22.984001,15.440001,26.320002,eccentric,4,3.0,50422.0,250397.0,108899.0,245904.0,123345.0
2026-04-14 17:30:41.318552,340750,1609505335015967,2934985835,-1.2688,-0.037088,-0.095648,15.2425,1.6275,0.20125,22.936,15.424001,24.144001,eccentric,4,3.0,50422.0,250397.0,108899.0,245904.0,123345.0
2026-04-14 17:30:41.326898,340751,1609505335030443,2935000791,-1.2688,-0.037088,-0.095648,0.53375,0.84,-0.28875,22.936,15.424001,24.144001,eccentric,4,3.0,50422.0,250397.0,108899.0,245904.0,123345.0
2026-04-14 17:30:41.334384,340752,1609505335039392,2935009483,-1.18096,-0.183488,-0.171776,-8.89875,-0.035,-1.49625,24.800001,15.280001,23.264002,eccentric,4,3.0,50422.0,250397.0,108899.0,245904.0,123345.0
2026-04-14 17:30:41.386860,340763,1609505335048407,2935018198,-1.18096,-0.183488,-0.171776,-8.68,-0.16625,-0.93625,24.800001,15.280001,23.264002,eccentric,4,3.0,49555.0,248286.0,107408.0,244242.0,121836.0
2026-04-14 17:30:41.389797,340764,1609505335063012,2935033158,-1.194624,-0.150304,-0.208864,-2.8875,0.7525,-0.1925,24.688002,14.792001,23.424002,eccentric,4,3.0,49555.0,248286.0,107408.0,244242.0,121836.0
2026-04-14 17:30:41.392355,340765,1609505335071919,2935041829,-1.194624,-0.150304,-0.208864,3.22875,1.67125,0.0,24.688002,14.792001,23.424002,eccentric,4,3.0,49555.0,248286.0,107408.0,244242.0,121836.0
2026-04-14 17:30:41.394830,340766,1609505335086395,2935054729,-1.266848,-0.0488,-0.181536,4.54125,1.98625,0.28,24.824001,15.128,23.928001,eccentric,4,3.0,49555.0,248286.0,107408.0,244242.0,121836.0
2026-04-14 17:30:41.397266,340767,1609505335095564,2935065496,-1.237568,-0.066368,-0.130784,0.79625,1.6275,0.6475,24.824001,15.128,24.488,eccentric,4,3.0,49555.0,248286.0,107408.0,244242.0,121836.0
2026-04-14 17:30:41.400816,340768,1609505335110050,2935078399,-1.237568,-0.066368,-0.130784,-4.935,0.9625,0.2275,24.288002,15.184001,24.488,eccentric,4,3.0,49555.0,248286.0,107408.0,244242.0,121836.0
2026-04-14 17:30:41.412311,340769,1609505335119243,2935089166,-1.260992,-0.130784,-0.167872,-9.49375,-0.1225,-0.93625,23.648,14.912001,23.072,eccentric,4,3.0,49555.0,248286.0,107408.0,244242.0,121836.0
2026-04-14 17:30:41.422997,340770,1609505335128161,2935097836,-1.260992,-0.130784,-0.167872,-5.92375,-0.875,-0.8575,23.648,14.912001,23.072,eccentric,4,3.0,49555.0,248286.0,107408.0,244242.0,121836.0
2026-04-14 17:30:41.460460,340781,1609505335142646,2935112722,-1.21024,-0.105408,-0.119072,4.3225,-1.295,-0.4375,24.504002,14.784,21.552002,eccentric,4,3.0,49170.0,247004.0,106802.0,243217.0,121237.0
2026-04-14 17:30:41.463107,340782,1609505335152061,2935121431,-1.21024,-0.105408,-0.119072,12.8625,-1.68,-0.79625,24.504002,14.784,21.552002,eccentric,4,3.0,49170.0,247004.0,106802.0,243217.0,121237.0
2026-04-14 17:30:41.465949,340783,1609505335166611,2935136404,-1.243424,-0.044896,-0.154208,14.8225,-2.1175,-0.49875,24.104002,14.488001,23.008001,eccentric,4,3.0,49170.0,247004.0,106802.0,243217.0,121237.0
2026-04-14 17:30:41.468464,340784,1609505335175547,2935145111,-1.243424,-0.044896,-0.089792,11.34,-2.26625,-0.18375,24.104002,14.488001,23.008001,eccentric,4,3.0,49170.0,247004.0,106802.0,243217.0,121237.0
2026-04-14 17:30:41.476744,340785,1609505335184512,2935153780,-1.15168,-0.076128,-0.089792,4.57625,-2.54625,0.0525,24.232,14.616001,23.144001,eccentric,4,3.0,49170.0,247004.0,106802.0,243217.0,121237.0
2026-04-14 17:30:41.492351,340786,1609505335198926,2935168682,-1.192672,-0.111264,-0.091744,-1.68875,-2.8,-0.28875,23.6,14.608001,23.816002,eccentric,4,3.0,49170.0,247004.0,106802.0,243217.0,121237.0
2026-04-14 17:30:41.501062,340787,1609505335207840,2935177379,-1.192672,-0.111264,-0.091744,-5.3725,-3.465,-0.77875,23.6,14.608001,23.816002,eccentric,4,3.0,49170.0,247004.0,106802.0,243217.0,121237.0
2026-04-14 17:30:41.515620,340788,1609505335222301,2935192248,-1.214144,-0.085888,-0.08784,-1.33875,-3.57,-0.27125,23.944,14.280001,22.52,eccentric,4,3.0,49170.0,247004.0,106802.0,243217.0,121237.0
2026-04-14 17:30:41.525687,340789,1609505335231293,2935200927,-1.214144,-0.085888,-0.08784,6.6325,-3.07125,-0.39375,23.944,14.280001,22.52,eccentric,4,3.0,49170.0,247004.0,106802.0,243217.0,121237.0
2026-04-14 17:30:41.561895,340800,1609505335246110,2935216013,-1.227808,-0.052704,-0.247904,11.17375,-2.12625,-1.015,24.096,14.120001,22.296001,eccentric,4,3.0,49859.0,247610.0,108102.0,244086.0,122622.0
2026-04-14 17:30:41.564530,340801,1609505335255169,2935224743,-1.227808,-0.052704,-0.247904,8.9425,-2.1875,-1.58375,24.096,14.120001,22.296001,eccentric,4,3.0,49859.0,247610.0,108102.0,244086.0,122622.0
2026-04-14 17:30:41.567262,340802,1609505335264117,2935233450,-1.097024,-0.07808,-0.040992,3.1675,-2.12625,-2.77375,23.224,14.208001,22.640001,eccentric,4,3.0,49859.0,247610.0,108102.0,244086.0,122622.0
2026-04-14 17:30:41.572283,340803,1609505335278614,2935248365,-1.139968,-0.101504,-0.005856,-3.57,-2.33625,-3.5,23.008001,14.216001,22.744001,eccentric,4,3.0,49859.0,247610.0,108102.0,244086.0,122622.0
2026-04-14 17:30:41.579813,340804,1609505335287571,2935257083,-1.139968,-0.101504,-0.005856,-6.125,-2.26625,-3.19375,23.008001,14.216001,22.744001,eccentric,4,3.0,49859.0,247610.0,108102.0,244086.0,122622.0
2026-04-14 17:30:41.594354,340805,1609505335302071,2935271965,-1.206336,-0.076128,-0.101504,-2.49375,-2.275,-3.12375,23.728,14.072001,21.824001,eccentric,4,3.0,49859.0,247610.0,108102.0,244086.0,122622.0
2026-04-14 17:30:41.606008,340806,1609505335311012,2935280656,-1.206336,-0.076128,-0.101504,4.9,-1.70625,-2.58125,23.728,14.072001,21.824001,eccentric,4,3.0,49859.0,247610.0,108102.0,244086.0,122622.0
2026-04-14 17:30:41.613075,340807,1609505335320003,2935289382,-1.163392,-0.06832,-0.244,9.8175,-2.625,-2.9925,23.12,14.136001,21.192001,eccentric,4,3.0,49859.0,247610.0,108102.0,244086.0,122622.0
2026-04-14 17:30:41.656470,340808,1609505335334482,2935304259,-1.163392,-0.06832,-0.244,10.0275,-5.10125,-3.43875,23.12,14.136001,21.192001,eccentric,4,3.0,49859.0,247610.0,108102.0,244086.0,122622.0
2026-04-14 17:30:41.692224,340819,1609505335343406,2935312928,-1.106784,-0.093696,-0.1464,5.46875,-7.07875,-3.47375,23.632002,13.768001,20.816002,eccentric,4,3.0,51702.0,250292.0,111138.0,246594.0,125821.0
2026-04-14 17:30:41.696063,340820,1609505335357912,2935327819,-1.124352,-0.115168,-0.095648,0.60375,-9.0825,-3.5875,23.192001,13.432001,20.976002,eccentric,4,3.0,51702.0,250292.0,111138.0,246594.0,125821.0
2026-04-14 17:30:41.696612,340821,1609505335366803,2935336484,-1.124352,-0.115168,-0.095648,0.6825,-9.345,-3.2025,23.192001,13.432001,20.976002,eccentric,4,3.0,51702.0,250292.0,111138.0,246594.0,125821.0
2026-04-14 17:30:41.699119,340822,1609505335381246,2935351334,-1.247328,-0.08784,-0.21472,4.34875,-8.70625,-3.03625,22.784,12.936001,20.6,eccentric,4,3.0,51702.0,250292.0,111138.0,246594.0,125821.0
2026-04-14 17:30:41.702158,340823,1609505335390245,2935360084,-1.247328,-0.08784,-0.21472,8.1725,-8.2425,-3.47375,22.784,12.936001,20.6,eccentric,4,3.0,51702.0,250292.0,111138.0,246594.0,125821.0
2026-04-14 17:30:41.706731,340824,1609505335399189,2935368820,-1.13216,-0.040992,0.013664,11.01625,-7.65625,-3.85875,22.480001,12.84,20.272001,eccentric,4,3.0,51702.0,250292.0,111138.0,246594.0,125821.0
2026-04-14 17:30:41.706810,340825,1609505335413671,2935383728,-1.13216,-0.040992,0.013664,14.14875,-7.805,-3.78,22.480001,12.84,20.272001,eccentric,4,3.0,51702.0,250292.0,111138.0,246594.0,125821.0
2026-04-14 17:30:41.715846,340826,1609505335422628,2935392423,-1.104832,-0.02928,0.005856,15.74125,-8.2075,-4.1475,22.048,13.144001,19.568,eccentric,4,3.0,51702.0,250292.0,111138.0,246594.0,125821.0
2026-04-14 17:30:41.730884,340827,1609505335437080,2935407275,-1.104832,-0.02928,-0.040992,14.096251,-8.6625,-4.89125,22.048,13.144001,19.568,eccentric,4,3.0,51702.0,250292.0,111138.0,246594.0,125821.0
2026-04-14 17:30:41.760485,340838,1609505335446344,2935416074,-1.155584,-0.027328,-0.040992,10.7625,-9.72125,-5.46875,21.544,12.904,19.640001,eccentric,4,3.0,51414.0,248729.0,110787.0,245808.0,125425.0
2026-04-14 17:30:41.763507,340839,1609505335461060,2935431037,-1.212192,-0.091744,-0.128832,5.32875,-10.89375,-5.7225,19.808,12.872001,19.816002,eccentric,4,3.0,51414.0,248729.0,110787.0,245808.0,125425.0
2026-04-14 17:30:41.766037,340840,1609505335469993,2935439711,-1.212192,-0.091744,-0.128832,2.26625,-11.50625,-4.725,19.808,12.872001,19.816002,eccentric,4,3.0,51414.0,248729.0,110787.0,245808.0,125425.0
2026-04-14 17:30:41.772254,340841,1609505335478959,2935448404,-1.100928,-0.111264,-0.005856,4.12125,-11.40125,-3.84125,19.184,12.384001,18.696001,eccentric,4,3.0,51414.0,248729.0,110787.0,245808.0,125425.0
2026-04-14 17:30:41.786020,340842,1609505335493430,2935463352,-1.100928,-0.111264,-0.005856,9.02125,-11.0075,-2.66875,19.184,12.384001,18.696001,eccentric,4,3.0,51414.0,248729.0,110787.0,245808.0,125425.0
2026-04-14 17:30:41.796370,340843,1609505335502347,2935472109,-1.136064,-0.062464,-0.183488,15.89875,-10.99,-1.81125,18.560001,12.272,19.664001,eccentric,4,3.0,51414.0,248729.0,110787.0,245808.0,125425.0
2026-04-14 17:30:41.811784,340844,1609505335516828,2935486987,-1.136064,-0.062464,-0.183488,20.9125,-11.31375,-0.8225,18.560001,12.272,19.664001,eccentric,4,3.0,51414.0,248729.0,110787.0,245808.0,125425.0
2026-04-14 17:30:41.819641,340845,1609505335525757,2935495642,-1.071648,0.001952,0.02928,19.94125,-12.7225,0.07875,17.08,11.736001,17.160002,eccentric,4,3.0,51414.0,248729.0,110787.0,245808.0,125425.0
2026-04-14 17:30:41.834708,340846,1609505335540331,2935510514,-1.16144,-0.042944,-0.128832,14.42,-13.79,-0.5425,16.880001,11.472,18.104,eccentric,4,3.0,51414.0,248729.0,110787.0,245808.0,125425.0
2026-04-14 17:30:41.863014,340857,1609505335549343,2935519362,-1.16144,-0.042944,-0.128832,7.245,-15.190001,-1.015,16.880001,11.472,18.104,eccentric,4,3.0,50720.0,245076.0,109773.0,243464.0,124297.0
2026-04-14 17:30:41.866010,340858,1609505335558320,2935528146,-1.16144,-0.076128,-0.076128,3.185,-16.03,-1.35625,16.880001,11.472,18.104,eccentric,4,3.0,50720.0,245076.0,109773.0,243464.0,124297.0
2026-04-14 17:30:41.868509,340859,1609505335572839,2935543042,-1.085312,-0.076128,-0.076128,2.2925,-16.72125,-1.1725,15.936001,11.272,18.0,eccentric,4,3.0,50720.0,245076.0,109773.0,243464.0,124297.0
2026-04-14 17:30:41.875649,340860,1609505335581892,2935551846,-1.100928,-0.072224,-0.201056,6.95625,-16.35375,-0.91,14.880001,10.928,20.584002,eccentric,4,3.0,50720.0,245076.0,109773.0,243464.0,124297.0
2026-04-14 17:30:41.890821,340861,1609505335596392,2935566659,-1.100928,-0.072224,-0.201056,13.7725,-15.33875,-0.21875,14.880001,10.928,20.584002,eccentric,4,3.0,50720.0,245076.0,109773.0,243464.0,124297.0
2026-04-14 17:30:41.898381,340862,1609505335605322,2935575334,-1.046272,-0.007808,-0.080032,18.43625,-14.77,-0.63,13.616,11.352,21.824001,eccentric,4,3.0,50720.0,245076.0,109773.0,243464.0,124297.0
2026-04-14 17:30:41.908372,340863,1609505335614255,2935584004,-1.046272,-0.007808,-0.080032,15.4,-13.99125,-0.77875,13.616,11.352,21.824001,eccentric,4,3.0,50720.0,245076.0,109773.0,243464.0,124297.0
2026-04-14 17:30:41.922136,340864,1609505335628748,2935598880,-1.042368,-0.083936,-0.128832,2.45,-14.49,-0.13125,13.712001,11.208,21.912,eccentric,4,3.0,50720.0,245076.0,109773.0,243464.0,124297.0
2026-04-14 17:30:41.932331,340865,1609505335637663,2935607542,-1.042368,-0.083936,-0.128832,-11.17375,-14.533751,0.13125,13.712001,11.208,21.912,eccentric,4,3.0,50720.0,245076.0,109773.0,243464.0,124297.0
2026-04-14 17:30:41.964812,340876,1609505335652238,2935620981,-1.038464,-0.138592,-0.050752,-14.51625,-14.07875,0.76125,13.928,11.648001,20.976002,eccentric,4,3.0,49147.0,242547.0,106838.0,240473.0,121375.0
2026-04-14 17:30:41.966836,340877,1609505335661597,2935631852,-1.075552,-0.052704,-0.187392,-5.88,-13.1425,1.14625,13.384001,11.968,25.000002,eccentric,4,3.0,49147.0,242547.0,106838.0,240473.0,121375.0
2026-04-14 17:30:41.969805,340878,1609505335676094,2935644719,-1.075552,-0.052704,-0.187392,6.4575,-11.1125,0.6475,13.384001,11.968,25.000002,eccentric,4,3.0,49147.0,242547.0,106838.0,240473.0,121375.0
2026-04-14 17:30:41.979662,340879,1609505335685351,2935655470,-0.938912,0.017568,-0.00976,11.515,-9.905,-0.76125,13.432001,12.376,25.464,eccentric,4,3.0,49147.0,242547.0,106838.0,240473.0,121375.0
