pc_time,serial_num,sensor_ts,host_ts,ax,ay,az,gx,gy,gz,mx,my,mz,phase,rpe,weight_kg,ppg_a,ppg_b,ppg_c,ppg_d,ppg_e
2026-04-14 17:30:56.806018,343654,1609505350435693,2950405854,-0.913536,-0.089792,0.017568,14.3325,-15.085,-7.39375,15.024001,16.504002,25.6,concentric,4,3.0,36946.0,212614.0,81739.0,211613.0,93659.0
2026-04-14 17:30:56.806730,343655,1609505350444730,2950414530,-0.913536,-0.089792,0.017568,1.96875,-16.66,-5.67,15.024001,16.504002,25.6,concentric,4,3.0,36946.0,212614.0,81739.0,211613.0,93659.0
2026-04-14 17:30:56.809289,343656,1609505350459221,2950429439,-0.905728,-0.154208,-0.080032,-7.3325,-17.710001,-3.64875,14.64,16.672,26.608002,concentric,4,3.0,36946.0,212614.0,81739.0,211613.0,93659.0
2026-04-14 17:30:56.811765,343657,1609505350468145,2950438100,-0.905728,-0.154208,-0.080032,-5.3725,-17.29875,-0.945,14.64,16.672,26.608002,concentric,4,3.0,36946.0,212614.0,81739.0,211613.0,93659.0
2026-04-14 17:30:56.814686,343658,1609505350482647,2950452987,-1.032608,-0.08784,-0.13664,2.5725,-16.75625,1.47875,14.320001,16.6,26.512001,concentric,4,3.0,36946.0,212614.0,81739.0,211613.0,93659.0
2026-04-14 17:30:56.817198,343659,1609505350491607,2950461659,-1.032608,-0.08784,-0.13664,12.38125,-14.6125,3.01,14.320001,16.6,26.512001,concentric,4,3.0,36946.0,212614.0,81739.0,211613.0,93659.0
2026-04-14 17:30:56.822196,343660,1609505350500511,2950470363,-0.974048,-0.01952,0.00976,18.97,-13.41375,3.885,14.448001,16.240002,25.960001,concentric,4,3.0,36946.0,212614.0,81739.0,211613.0,93659.0
2026-04-14 17:30:56.824762,343661,1609505350515125,2950485252,-0.9272,-0.021472,0.060512,19.7925,-12.74875,2.61625,15.664001,16.152,25.952002,concentric,4,3.0,36946.0,212614.0,81739.0,211613.0,93659.0
2026-04-14 17:30:56.826728,343662,1609505350524061,2950494016,-0.9272,-0.021472,0.060512,15.98625,-12.50375,1.12875,15.664001,16.152,25.952002,concentric,4,3.0,36946.0,212614.0,81739.0,211613.0,93659.0
2026-04-14 17:30:56.854778,343673,1609505350538649,2950508931,-0.895968,-0.07808,0.040992,10.87625,-13.62375,0.5075,15.696001,15.704,25.584002,concentric,4,3.0,37533.0,215231.0,82590.0,213432.0,94761.0
2026-04-14 17:30:56.857350,343674,1609505350547687,2950517650,-0.895968,-0.07808,0.040992,6.18625,-15.93375,2.05625,15.696001,15.704,25.584002,concentric,4,3.0,37533.0,215231.0,82590.0,213432.0,94761.0
2026-04-14 17:30:56.859355,343675,1609505350562217,2950532581,-0.880352,-0.115168,0.011712,1.89875,-17.045,4.7775,15.424001,15.840001,25.480001,concentric,4,3.0,37533.0,215231.0,82590.0,213432.0,94761.0
2026-04-14 17:30:56.864867,343676,1609505350571131,2950541306,-0.880352,-0.115168,0.011712,-4.5675,-16.28375,8.95125,15.424001,15.840001,25.480001,concentric,4,3.0,37533.0,215231.0,82590.0,213432.0,94761.0
2026-04-14 17:30:56.874860,343677,1609505350580048,2950549975,-0.899872,-0.076128,0.1464,-11.025,-14.533751,13.50125,15.424001,16.304,24.368002,concentric,4,3.0,37533.0,215231.0,82590.0,213432.0,94761.0
2026-04-14 17:30:56.891155,343678,1609505350594582,2950564919,-0.987712,-0.02928,0.056608,-15.70625,-12.9325,16.625,15.864,15.872001,23.632002,concentric,4,3.0,37533.0,215231.0,82590.0,213432.0,94761.0
2026-04-14 17:30:56.896847,343679,1609505350603543,2950573657,-0.987712,-0.02928,0.056608,-16.00375,-12.31125,18.41875,15.864,15.872001,23.632002,concentric,4,3.0,37533.0,215231.0,82590.0,213432.0,94761.0
2026-04-14 17:30:56.909136,343680,1609505350618018,2950586489,-0.901824,-0.052704,-0.005856,-13.755,-11.33125,19.845,16.336,15.864,23.752,concentric,4,3.0,37533.0,215231.0,82590.0,213432.0,94761.0
2026-04-14 17:30:56.947045,343691,1609505350627284,2950597280,-0.901824,-0.052704,-0.005856,-10.2725,-9.72125,20.72875,16.336,15.864,23.752,concentric,4,3.0,43065.0,231466.0,92127.0,227295.0,105970.0
2026-04-14 17:30:56.949880,343692,1609505350636756,2950606086,-0.85888,-0.017568,-0.031232,-9.415,-9.38875,18.66375,16.672,16.12,23.664001,concentric,4,3.0,43065.0,231466.0,92127.0,227295.0,105970.0
2026-04-14 17:30:56.951969,343693,1609505350651287,2950621038,-0.85888,-0.017568,-0.031232,-14.385,-10.0975,14.20125,16.672,16.12,23.664001,concentric,4,3.0,43065.0,231466.0,92127.0,227295.0,105970.0
2026-04-14 17:30:56.954862,343694,1609505350660203,2950629735,-0.827648,-0.017568,0.193248,-21.46375,-9.6775,12.01375,16.448,16.432001,23.848001,concentric,4,3.0,43065.0,231466.0,92127.0,227295.0,105970.0
2026-04-14 17:30:56.969889,343695,1609505350674676,2950644616,-0.935008,-0.119072,-0.05856,-27.475,-7.945,11.4625,16.448,16.432001,22.992,concentric,4,3.0,43065.0,231466.0,92127.0,227295.0,105970.0
2026-04-14 17:30:56.975820,343696,1609505350683604,2950653322,-0.935008,-0.119072,-0.05856,-27.72,-5.34625,12.075,15.888001,16.624,22.992,concentric,4,3.0,43065.0,231466.0,92127.0,227295.0,105970.0
2026-04-14 17:30:56.992489,343697,1609505350698133,2950668212,-0.870592,-0.132736,0.050752,-21.647501,-5.1625,11.87375,16.896,16.568,23.224,concentric,4,3.0,43065.0,231466.0,92127.0,227295.0,105970.0
2026-04-14 17:30:57.002503,343698,1609505350707060,2950676907,-0.870592,-0.132736,0.050752,-9.31875,-5.3025,12.145,16.896,16.568,23.224,concentric,4,3.0,43065.0,231466.0,92127.0,227295.0,105970.0
2026-04-14 17:30:57.010525,343699,1609505350716009,2950685608,-0.835456,-0.025376,0.203008,3.05375,-5.59125,11.261251,16.44,16.392,23.648,concentric,4,3.0,43065.0,231466.0,92127.0,227295.0,105970.0
2026-04-14 17:30:57.047367,343710,1609505350731168,2950700881,-0.835456,-0.025376,0.203008,11.80375,-5.32,9.2575,16.44,16.392,23.648,concentric,4,3.0,51434.0,242056.0,105818.0,235271.0,120962.0
2026-04-14 17:30:57.049864,343711,1609505350740148,2950709647,-0.886208,0.011712,0.031232,13.9825,-2.975,6.2125,16.952002,15.832001,23.688002,concentric,4,3.0,51434.0,242056.0,105818.0,235271.0,120962.0
2026-04-14 17:30:57.052338,343712,1609505350754660,2950724565,-0.886208,0.011712,0.007808,8.75875,-1.26875,3.15875,16.952002,15.832001,23.688002,concentric,4,3.0,51434.0,242056.0,105818.0,235271.0,120962.0
2026-04-14 17:30:57.058620,343713,1609505350763682,2950733281,-0.909632,-0.005856,0.007808,-1.855,-1.68,0.595,16.84,16.376001,24.224,concentric,4,3.0,51434.0,242056.0,105818.0,235271.0,120962.0
2026-04-14 17:30:57.084913,343714,1609505350772599,2950742017,-0.909632,-0.005856,0.007808,-13.755,-4.305,-1.7325,16.84,16.376001,24.224,concentric,4,3.0,51434.0,242056.0,105818.0,235271.0,120962.0
2026-04-14 17:30:57.087421,343715,1609505350787146,2950756899,-0.952576,-0.054656,-0.093696,-19.03125,-6.58,-2.905,16.36,16.704,23.304,concentric,4,3.0,51434.0,242056.0,105818.0,235271.0,120962.0
2026-04-14 17:30:57.089895,343716,1609505350796053,2950765645,-0.94672,-0.089792,-0.033184,-18.47125,-8.2425,-2.765,16.056002,16.68,25.328001,concentric,4,3.0,51434.0,242056.0,105818.0,235271.0,120962.0
2026-04-14 17:30:57.111890,343717,1609505350810575,2950780559,-0.94672,-0.089792,-0.033184,-14.1575,-7.035,-2.5025,16.056002,16.68,25.328001,concentric,4,3.0,51434.0,242056.0,105818.0,235271.0,120962.0
2026-04-14 17:30:57.114719,343718,1609505350819485,2950789216,-1.0248,0.023424,-0.003904,-7.5775,-4.75125,-2.5025,16.712,16.464,23.224,concentric,4,3.0,51434.0,242056.0,105818.0,235271.0,120962.0
2026-04-14 17:30:57.148249,343729,1609505350834161,2950804223,-1.0248,0.023424,-0.003904,-2.77375,-5.81,-3.64875,16.712,16.464,23.224,concentric,4,3.0,48015.0,235017.0,100474.0,228975.0,115367.0
2026-04-14 17:30:57.151077,343730,1609505350843191,2950812954,-0.905728,0.017568,0.18544,-2.84375,-6.90375,-6.20375,16.888,16.560001,23.720001,concentric,4,3.0,48015.0,235017.0,100474.0,228975.0,115367.0
2026-04-14 17:30:57.153581,343731,1609505350852128,2950821658,-0.905728,0.017568,0.18544,-5.6525,-7.21,-8.435,16.888,16.560001,23.720001,concentric,4,3.0,48015.0,235017.0,100474.0,228975.0,115367.0
2026-04-14 17:30:57.160741,343732,1609505350866640,2950836550,-1.018944,-0.02928,0.144448,-6.405,-7.0525,-9.1875,16.664001,16.136002,23.192001,concentric,4,3.0,48015.0,235017.0,100474.0,228975.0,115367.0
2026-04-14 17:30:57.168623,343733,1609505350875610,2950845277,-1.018944,-0.02928,0.10736,-2.5725,-7.42875,-9.5725,16.664001,16.136002,23.192001,concentric,4,3.0,48015.0,235017.0,100474.0,228975.0,115367.0
2026-04-14 17:30:57.186309,343734,1609505350890096,2950860186,-1.079456,-0.017568,0.10736,4.5325,-7.53375,-10.07125,16.568,16.464,23.224,concentric,4,3.0,48015.0,235017.0,100474.0,228975.0,115367.0
2026-04-14 17:30:57.192278,343735,1609505350899027,2950868883,-1.01504,0.001952,0.134688,12.3025,-7.0875,-10.10625,16.584002,16.248001,23.432001,concentric,4,3.0,48015.0,235017.0,100474.0,228975.0,115367.0
2026-04-14 17:30:57.202201,343736,1609505350908006,2950877559,-1.01504,0.001952,0.134688,14.4375,-6.9475,-10.43,16.584002,16.248001,23.432001,concentric,4,3.0,48015.0,235017.0,100474.0,228975.0,115367.0
2026-04-14 17:30:57.218425,343737,1609505350922463,2950892414,-1.08336,-0.062464,-0.023424,12.15375,-5.53875,-10.85875,15.864,16.44,24.768002,concentric,4,3.0,48015.0,235017.0,100474.0,228975.0,115367.0
2026-04-14 17:30:57.248397,343748,1609505350931521,2950901427,-1.08336,-0.062464,-0.023424,9.66,-3.885,-9.12625,15.864,16.44,24.768002,concentric,4,3.0,43838.0,227903.0,93250.0,222533.0,107380.0
2026-04-14 17:30:57.250810,343749,1609505350946944,2950916374,-1.065792,-0.07808,0.148352,10.52625,-3.49125,-7.13125,16.536001,16.248001,24.256,concentric,4,3.0,43838.0,227903.0,93250.0,222533.0,107380.0
2026-04-14 17:30:57.253435,343750,1609505350955900,2950925060,-1.065792,-0.07808,-0.091744,15.627501,-2.40625,-5.355,16.536001,16.248001,24.256,concentric,4,3.0,43838.0,227903.0,93250.0,222533.0,107380.0
2026-04-14 17:30:57.258433,343751,1609505350964871,2950933731,-1.079456,-0.07808,-0.091744,22.53125,-1.155,-2.9225,15.808001,16.184,23.688002,concentric,4,3.0,43838.0,227903.0,93250.0,222533.0,107380.0
2026-04-14 17:30:57.272052,343752,1609505350979333,2950948658,-1.100928,-0.027328,-0.085888,25.935,-0.245,-1.25125,16.584002,15.480001,24.072,concentric,4,3.0,43838.0,227903.0,93250.0,222533.0,107380.0
2026-04-14 17:30:57.283604,343753,1609505350988261,2950957369,-1.100928,-0.027328,-0.085888,24.22875,0.5425,-0.62125,16.584002,15.480001,24.072,concentric,4,3.0,43838.0,227903.0,93250.0,222533.0,107380.0
2026-04-14 17:30:57.295668,343754,1609505351002719,2950972247,-1.059936,-0.025376,0.066368,20.125,0.805,-0.30625,16.336,15.240001,24.096,concentric,4,3.0,43838.0,227903.0,93250.0,222533.0,107380.0
2026-04-14 17:30:57.305497,343755,1609505351011625,2950980913,-1.059936,-0.025376,0.066368,16.16125,1.295,-1.0325,16.336,15.240001,24.096,concentric,4,3.0,43838.0,227903.0,93250.0,222533.0,107380.0
2026-04-14 17:30:57.322053,343756,1609505351026065,2950995802,-1.020896,-0.031232,0.040992,15.995,1.715,-1.37375,16.248001,15.536001,24.000002,concentric,4,3.0,43838.0,227903.0,93250.0,222533.0,107380.0
2026-04-14 17:30:57.379369,343768,1609505351035154,2951004526,-1.020896,-0.031232,0.040992,17.045,2.905,-2.54625,16.248001,15.536001,24.000002,concentric,4,3.0,46020.0,232587.0,96911.0,227561.0,111416.0
2026-04-14 17:30:57.381845,343769,1609505351044160,2951013296,-0.958432,-0.0488,0.150304,16.91375,6.23875,-3.87625,16.736,14.552001,24.544,concentric,4,3.0,46020.0,232587.0,96911.0,227561.0,111416.0
2026-04-14 17:30:57.384339,343770,1609505351058703,2951028179,-1.013088,-0.011712,0.119072,14.28875,8.2075,-4.57625,16.376001,14.744,23.256,concentric,4,3.0,46020.0,232587.0,96911.0,227561.0,111416.0
2026-04-14 17:30:57.387068,343771,1609505351067635,2951036885,-1.013088,-0.011712,0.119072,10.64,8.2775,-5.34625,16.376001,14.744,23.256,concentric,4,3.0,46020.0,232587.0,96911.0,227561.0,111416.0
2026-04-14 17:30:57.389548,343772,1609505351082110,2951051767,-0.915488,-0.109312,-0.033184,8.16375,8.23375,-6.72875,16.52,14.592001,24.192001,concentric,4,3.0,46020.0,232587.0,96911.0,227561.0,111416.0
2026-04-14 17:30:57.391919,343773,1609505351091013,2951060461,-0.915488,-0.109312,-0.033184,7.91,8.70625,-7.105,16.52,14.592001,24.192001,concentric,4,3.0,46020.0,232587.0,96911.0,227561.0,111416.0
2026-04-14 17:30:57.399433,343774,1609505351105536,2951075356,-0.915488,-0.062464,-0.0488,11.01625,9.33625,-7.035,16.512001,14.536,24.240002,concentric,4,3.0,46020.0,232587.0,96911.0,227561.0,111416.0
2026-04-14 17:30:57.407084,343775,1609505351114485,2951084052,-0.915488,-0.062464,-0.0488,15.8025,11.08625,-7.4375,16.512001,14.536,24.240002,concentric,4,3.0,46020.0,232587.0,96911.0,227561.0,111416.0
2026-04-14 17:30:57.417052,343776,1609505351123427,2951092757,-0.931104,-0.017568,0.060512,19.005,15.12875,-8.72375,16.872002,14.512001,24.328001,concentric,4,3.0,46020.0,232587.0,96911.0,227561.0,111416.0
2026-04-14 17:30:57.501048,343787,1609505351137970,2951107773,-1.022848,0.013664,-0.089792,17.29875,16.73875,-9.80875,16.256,14.320001,25.688002,concentric,4,3.0,47512.0,232958.0,99899.0,229682.0,114766.0
2026-04-14 17:30:57.503579,343788,1609505351146906,2951116542,-1.022848,0.013664,-0.089792,11.2525,15.4,-10.73625,16.256,14.320001,25.688002,concentric,4,3.0,47512.0,232958.0,99899.0,229682.0,114766.0
2026-04-14 17:30:57.506062,343789,1609505351161355,2951131395,-0.999424,-0.031232,0.080032,6.48375,15.0675,-11.03375,16.104,14.312,25.792002,concentric,4,3.0,47512.0,232958.0,99899.0,229682.0,114766.0
2026-04-14 17:30:57.508390,343790,1609505351170270,2951140144,-0.999424,-0.031232,0.080032,3.6575,16.6775,-10.70125,16.104,14.312,25.792002,concentric,4,3.0,47512.0,232958.0,99899.0,229682.0,114766.0
2026-04-14 17:30:57.510722,343791,1609505351184739,2951155015,-1.100928,-0.044896,-0.06832,1.88125,17.57,-10.57875,16.136002,14.272,24.320002,concentric,4,3.0,47512.0,232958.0,99899.0,229682.0,114766.0
2026-04-14 17:30:57.513386,343792,1609505351193672,2951163676,-1.100928,-0.044896,-0.06832,1.295,17.91125,-10.045,16.136002,14.272,24.320002,concentric,4,3.0,47512.0,232958.0,99899.0,229682.0,114766.0
2026-04-14 17:30:57.516096,343793,1609505351202628,2951172345,-0.944768,-0.017568,0.150304,1.53125,17.395,-9.555,17.312,14.016001,24.728,concentric,4,3.0,47512.0,232958.0,99899.0,229682.0,114766.0
2026-04-14 17:30:57.518622,343794,1609505351217104,2951187285,-0.944768,-0.017568,0.150304,-0.245,17.80625,-8.96,17.312,14.016001,24.728,concentric,4,3.0,47512.0,232958.0,99899.0,229682.0,114766.0
2026-04-14 17:30:57.521133,343795,1609505351226053,2951195984,-0.962336,-0.044896,0.122976,-2.82625,18.97875,-9.1175,17.616001,14.256001,25.256,concentric,4,3.0,47512.0,232958.0,99899.0,229682.0,114766.0
2026-04-14 17:30:57.548644,343806,1609505351240658,2951210961,-1.071648,-0.074176,0.042944,-5.24125,20.2125,-9.28375,17.536001,14.152,24.608002,concentric,4,3.0,47111.0,233481.0,99210.0,231563.0,113785.0
2026-04-14 17:30:57.551112,343807,1609505351249575,2951219674,-1.071648,-0.074176,0.042944,-5.6175,21.805,-7.42,17.536001,14.152,24.608002,concentric,4,3.0,47111.0,233481.0,99210.0,231563.0,113785.0
2026-04-14 17:30:57.558814,343808,1609505351264124,2951232599,-0.954528,-0.056608,0.089792,-4.61125,21.7175,-5.04,17.792002,14.352,24.536001,concentric,4,3.0,47111.0,233481.0,99210.0,231563.0,113785.0
2026-04-14 17:30:57.566847,343809,1609505351273411,2951243337,-0.954528,-0.056608,0.089792,-4.26125,19.39875,-4.48,17.792002,14.352,24.536001,concentric,4,3.0,47111.0,233481.0,99210.0,231563.0,113785.0
2026-04-14 17:30:57.575615,343810,1609505351282325,2951252012,-0.958432,-0.05856,-0.074176,-4.6725,19.18,-4.61125,16.992,14.040001,24.624,concentric,4,3.0,47111.0,233481.0,99210.0,231563.0,113785.0
2026-04-14 17:30:57.590975,343811,1609505351296772,2951266865,-0.958432,-0.05856,-0.074176,-7.4725,18.66375,-4.2,16.992,14.040001,24.624,concentric,4,3.0,47111.0,233481.0,99210.0,231563.0,113785.0
2026-04-14 17:30:57.598597,343812,1609505351305700,2951275582,-0.98576,-0.081984,0.072224,-9.9225,17.8325,-3.43875,18.424002,14.368001,22.264002,concentric,4,3.0,47111.0,233481.0,99210.0,231563.0,113785.0
2026-04-14 17:30:57.613594,343813,1609505351320183,2951290466,-0.993568,-0.050752,0.103456,-11.2525,17.185,-2.73875,17.768002,14.360001,24.2,concentric,4,3.0,47111.0,233481.0,99210.0,231563.0,113785.0
2026-04-14 17:30:57.624881,343814,1609505351329207,2951299141,-0.993568,-0.050752,0.103456,-10.05375,16.10875,-1.7325,17.768002,14.360001,24.2,concentric,4,3.0,47111.0,233481.0,99210.0,231563.0,113785.0
2026-04-14 17:30:57.652660,343825,1609505351338137,2951307865,-0.993568,-0.050752,0.103456,-8.2075,16.695,-1.8375,17.768002,14.360001,24.2,concentric,4,3.0,48389.0,236310.0,101569.0,234966.0,116475.0
2026-04-14 17:30:57.654353,343826,1609505351352846,2951322751,-0.96624,-0.060512,-0.042944,-7.28,17.053751,-2.625,17.168001,14.712001,23.76,concentric,4,3.0,48389.0,236310.0,101569.0,234966.0,116475.0
2026-04-14 17:30:57.656839,343827,1609505351361907,2951331561,-1.048224,-0.02928,-0.103456,-7.76125,17.7275,-3.14125,17.728,14.872001,25.256,concentric,4,3.0,48389.0,236310.0,101569.0,234966.0,116475.0
2026-04-14 17:30:57.669726,343828,1609505351376389,2951346508,-1.048224,-0.02928,-0.103456,-8.77625,17.815,-3.82375,17.728,14.872001,25.256,concentric,4,3.0,48389.0,236310.0,101569.0,234966.0,116475.0
2026-04-14 17:30:57.678458,343829,1609505351385352,2951355176,-0.989664,-0.076128,-0.134688,-10.64875,16.9575,-4.9175,17.216002,14.544001,24.232,concentric,4,3.0,48389.0,236310.0,101569.0,234966.0,116475.0
2026-04-14 17:30:57.694782,343830,1609505351399829,2951370105,-1.061888,-0.076128,-0.171776,-11.15625,16.2225,-5.88875,18.512001,14.648001,25.6,concentric,4,3.0,48389.0,236310.0,101569.0,234966.0,116475.0
2026-04-14 17:30:57.703663,343831,1609505351408789,2951378811,-1.061888,-0.076128,-0.171776,-8.61,16.45875,-5.6,18.512001,14.648001,25.6,concentric,4,3.0,48389.0,236310.0,101569.0,234966.0,116475.0
2026-04-14 17:30:57.721143,343832,1609505351417724,2951387555,-1.061888,-0.076128,-0.171776,-5.25875,15.225,-5.985,18.512001,14.648001,25.6,concentric,4,3.0,48389.0,236310.0,101569.0,234966.0,116475.0
2026-04-14 17:30:57.748146,343843,1609505351432370,2951402809,-0.976,-0.081984,-0.021472,-0.42,15.14625,-6.55375,18.256,14.368001,24.672,concentric,4,3.0,51814.0,241803.0,107642.0,240453.0,122795.0
2026-04-14 17:30:57.750614,343844,1609505351441448,2951411530,-1.069696,-0.037088,-0.035136,1.68875,14.90125,-6.11625,17.472,14.648001,26.552002,concentric,4,3.0,51814.0,241803.0,107642.0,240453.0,122795.0
2026-04-14 17:30:57.754049,343845,1609505351455945,2951424369,-1.069696,-0.037088,-0.035136,-0.60375,15.89875,-6.09875,17.472,14.648001,26.552002,concentric,4,3.0,51814.0,241803.0,107642.0,240453.0,122795.0
2026-04-14 17:30:57.759230,343846,1609505351465256,2951435128,-1.087264,-0.050752,-0.080032,-4.22625,16.87875,-6.43125,16.112001,14.704,26.368002,concentric,4,3.0,51814.0,241803.0,107642.0,240453.0,122795.0
2026-04-14 17:30:57.769726,343847,1609505351474227,2951443868,-1.087264,-0.050752,-0.080032,-6.30875,17.491251,-6.29125,16.112001,14.704,26.368002,concentric,4,3.0,51814.0,241803.0,107642.0,240453.0,122795.0
2026-04-14 17:30:57.782271,343848,1609505351488709,2951458770,-0.960384,-0.076128,0.02928,-6.09875,16.80875,-5.88875,17.176,13.736001,24.256,concentric,4,3.0,51814.0,241803.0,107642.0,240453.0,122795.0
2026-04-14 17:30:57.792296,343849,1609505351497648,2951467447,-0.960384,-0.076128,0.02928,-4.26125,14.0875,-4.06875,17.176,13.736001,24.256,concentric,4,3.0,51814.0,241803.0,107642.0,240453.0,122795.0
2026-04-14 17:30:57.817428,343850,1609505351512138,2951482337,-1.016992,-0.070272,0.023424,-2.2925,12.10125,-1.91625,17.328001,13.864,22.768002,concentric,4,3.0,51814.0,241803.0,107642.0,240453.0,122795.0
2026-04-14 17:30:57.843730,343851,1609505351521059,2951490996,-0.962336,-0.083936,0.12688,0.0525,10.71,-0.21,17.04,13.616,23.416,concentric,4,3.0,51814.0,241803.0,107642.0,240453.0,122795.0
2026-04-14 17:30:57.894854,343862,1609505351536099,2951505947,-0.962336,-0.083936,0.12688,2.8875,10.33375,2.51125,17.04,13.616,23.416,concentric,4,3.0,55499.0,247210.0,113945.0,245156.0,129164.0
2026-04-14 17:30:57.897363,343863,1609505351545130,2951514642,-1.050176,0.001952,0.040992,4.165,11.83875,5.075,16.92,13.688001,24.904001,concentric,4,3.0,55499.0,247210.0,113945.0,245156.0,129164.0
2026-04-14 17:30:57.899872,343864,1609505351554025,2951523297,-1.050176,0.001952,0.040992,1.9075,14.4725,5.1275,16.92,13.688001,24.904001,concentric,4,3.0,55499.0,247210.0,113945.0,245156.0,129164.0
2026-04-14 17:30:57.901938,343865,1609505351568485,2951538154,-0.983808,0.0,0.01952,-2.80875,16.07375,3.05375,15.976001,13.280001,24.664001,concentric,4,3.0,55499.0,247210.0,113945.0,245156.0,129164.0
2026-04-14 17:30:57.904309,343866,1609505351577389,2951546846,-0.983808,0.0,0.01952,-7.81375,14.74375,0.95375,15.976001,13.280001,24.664001,concentric,4,3.0,55499.0,247210.0,113945.0,245156.0,129164.0
2026-04-14 17:30:57.906701,343867,1609505351592061,2951561749,-1.011136,-0.0488,-0.02928,-10.7625,12.0225,0.30625,15.824,13.56,23.712002,concentric,4,3.0,55499.0,247210.0,113945.0,245156.0,129164.0
2026-04-14 17:30:57.909359,343868,1609505351601177,2951570482,-0.948672,-0.093696,0.023424,-10.75375,10.28125,-0.595,15.232,13.448001,23.392,concentric,4,3.0,55499.0,247210.0,113945.0,245156.0,129164.0
2026-04-14 17:30:57.911775,343869,1609505351610098,2951579247,-0.948672,-0.093696,0.023424,-7.97125,9.1875,-1.1725,15.232,13.448001,23.392,concentric,4,3.0,55499.0,247210.0,113945.0,245156.0,129164.0
2026-04-14 17:30:57.918560,343870,1609505351624620,2951594180,-0.974048,-0.054656,0.005856,-4.6725,9.511251,-1.37375,15.632001,13.200001,23.384,concentric,4,3.0,55499.0,247210.0,113945.0,245156.0,129164.0
2026-04-14 17:30:57.950376,343881,1609505351633578,2951602919,-0.974048,-0.054656,0.005856,-4.24375,9.93125,-2.205,15.632001,13.200001,23.384,concentric,4,3.0,55159.0,248212.0,113529.0,245869.0,128652.0
2026-04-14 17:30:57.953210,343882,1609505351648240,2951617942,-1.087264,-0.013664,-0.208864,-3.38625,10.03625,-3.43875,16.144001,12.464001,20.736,concentric,4,3.0,55159.0,248212.0,113529.0,245869.0,128652.0
2026-04-14 17:30:57.956009,343883,1609505351657190,2951626659,-1.087264,-0.013664,-0.208864,-2.66875,9.89625,-4.9175,16.144001,12.464001,20.736,concentric,4,3.0,55159.0,248212.0,113529.0,245869.0,128652.0
2026-04-14 17:30:57.965611,343884,1609505351671661,2951641535,-1.04432,-0.081984,-0.154208,-2.19625,9.24,-6.1775,15.696001,12.6,20.712002,concentric,4,3.0,55159.0,248212.0,113529.0,245869.0,128652.0
2026-04-14 17:30:57.978608,343885,1609505351680659,2951650244,-1.04432,-0.081984,-0.201056,-0.44625,9.70375,-6.53625,15.696001,12.6,20.712002,concentric,4,3.0,55159.0,248212.0,113529.0,245869.0,128652.0
2026-04-14 17:30:57.982038,343886,1609505351689609,2951658935,-1.085312,-0.083936,-0.201056,0.53375,10.17625,-6.7025,16.800001,12.52,20.584002,concentric,4,3.0,55159.0,248212.0,113529.0,245869.0,128652.0
2026-04-14 17:30:58.014892,343887,1609505351704078,2951673842,-1.10288,-0.033184,-0.167872,-1.46125,9.58125,-7.0875,16.888,12.376,18.816,concentric,4,3.0,55159.0,248212.0,113529.0,245869.0,128652.0
2026-04-14 17:30:58.017397,343888,1609505351713000,2951682545,-1.10288,-0.033184,-0.167872,-3.80625,8.26,-6.86,16.888,12.376,18.816,concentric,4,3.0,55159.0,248212.0,113529.0,245869.0,128652.0
2026-04-14 17:30:58.022347,343889,1609505351727481,2951697412,-1.022848,-0.060512,-0.06832,-5.64375,6.55375,-7.07,16.912,13.440001,19.800001,concentric,4,3.0,55159.0,248212.0,113529.0,245869.0,128652.0
2026-04-14 17:30:58.049732,343900,1609505351736996,2951706462,-1.022848,-0.060512,-0.06832,-6.65,4.5325,-6.79875,16.912,13.440001,19.800001,concentric,4,3.0,55637.0,250691.0,114342.0,247884.0,129424.0
2026-04-14 17:30:58.051812,343901,1609505351746002,2951715572,-1.091168,-0.050752,-0.00976,-6.99125,2.975,-6.125,17.216002,13.296001,19.792002,concentric,4,3.0,55637.0,250691.0,114342.0,247884.0,129424.0
2026-04-14 17:30:58.054737,343902,1609505351760515,2951730459,-1.091168,-0.050752,-0.00976,-8.0325,2.16125,-4.78625,17.216002,13.296001,19.792002,concentric,4,3.0,55637.0,250691.0,114342.0,247884.0,129424.0
2026-04-14 17:30:58.064786,343903,1609505351769455,2951739226,-1.050176,-0.0976,-0.10736,-11.62875,2.02125,-4.05125,18.04,13.320001,18.544,concentric,4,3.0,55637.0,250691.0,114342.0,247884.0,129424.0
2026-04-14 17:30:58.077155,343904,1609505351783969,2951754114,-0.981856,-0.103456,-0.064416,-13.2825,3.255,-3.2375,19.592001,13.296001,17.904001,concentric,4,3.0,55637.0,250691.0,114342.0,247884.0,129424.0
2026-04-14 17:30:58.086134,343905,1609505351792880,2951762796,-0.981856,-0.103456,-0.064416,-11.9,4.795,-3.1675,19.592001,13.296001,17.904001,concentric,4,3.0,55637.0,250691.0,114342.0,247884.0,129424.0
2026-04-14 17:30:58.102397,343906,1609505351807371,2951777689,-1.077504,-0.05856,-0.052704,-9.275,5.01375,-4.235,20.032001,13.256001,17.848001,concentric,4,3.0,55637.0,250691.0,114342.0,247884.0,129424.0
2026-04-14 17:30:58.112385,343907,1609505351816257,2951786362,-1.077504,-0.05856,-0.052704,-4.69,4.55875,-5.24125,20.032001,13.256001,17.848001,concentric,4,3.0,55637.0,250691.0,114342.0,247884.0,129424.0
2026-04-14 17:30:58.119892,343908,1609505351825170,2951795029,-1.085312,-0.080032,-0.261568,1.05875,2.84375,-5.90625,20.68,13.464001,19.256,concentric,4,3.0,55637.0,250691.0,114342.0,247884.0,129424.0
2026-04-14 17:30:58.152214,343919,1609505351839833,2951810077,-1.085312,-0.080032,-0.261568,2.1,1.6275,-5.85375,20.68,13.464001,19.256,concentric,4,3.0,57590.0,255324.0,117760.0,251181.0,132705.0
2026-04-14 17:30:58.154269,343920,1609505351848774,2951818817,-1.009184,-0.083936,-0.089792,-1.435,0.51625,-6.90375,21.76,13.896001,18.152,concentric,4,3.0,57590.0,255324.0,117760.0,251181.0,132705.0
2026-04-14 17:30:58.156667,343921,1609505351863270,2951831702,-1.026752,-0.080032,0.062464,-6.25625,0.5775,-6.8075,21.976002,13.864,18.328001,concentric,4,3.0,57590.0,255324.0,117760.0,251181.0,132705.0
2026-04-14 17:30:58.186181,343922,1609505351872615,2951842439,-1.026752,-0.080032,0.062464,-10.5175,1.155,-6.39625,21.976002,13.864,18.328001,concentric,4,3.0,57590.0,255324.0,117760.0,251181.0,132705.0
2026-04-14 17:30:58.188671,343923,1609505351881537,2951851118,-1.026752,-0.080032,0.062464,-12.495,2.44125,-6.50125,21.976002,13.864,18.328001,concentric,4,3.0,57590.0,255324.0,117760.0,251181.0,132705.0
2026-04-14 17:30:58.191178,343924,1609505351896022,2951865997,-1.09312,-0.101504,-0.02928,-10.4825,2.82625,-7.0525,21.528002,14.656001,20.152,concentric,4,3.0,57590.0,255324.0,117760.0,251181.0,132705.0
2026-04-14 17:30:58.216143,343925,1609505351904983,2951874670,-1.165344,-0.103456,-0.242048,-4.9875,1.8725,-7.035,21.880001,13.920001,20.272001,concentric,4,3.0,57590.0,255324.0,117760.0,251181.0,132705.0
2026-04-14 17:30:58.240820,343926,1609505351919435,2951889519,-1.165344,-0.103456,-0.242048,3.535,-0.46375,-6.6325,21.880001,13.920001,20.272001,eccentric,4,3.0,57590.0,255324.0,117760.0,251181.0,132705.0
2026-04-14 17:30:58.245509,343927,1609505351928345,2951898244,-1.075552,-0.06832,-0.03904,11.7425,-4.29625,-5.25,22.112001,14.128,20.976002,eccentric,4,3.0,57590.0,255324.0,117760.0,251181.0,132705.0
2026-04-14 17:30:58.273569,343938,1609505351942897,2951913148,-1.05408,-0.121024,-0.138592,12.8975,-7.5775,-3.4825,22.112001,14.184001,18.176,eccentric,4,3.0,57423.0,255128.0,117883.0,250632.0,132524.0
2026-04-14 17:30:58.286693,343939,1609505351951812,2951921821,-1.05408,-0.121024,-0.138592,5.18875,-9.3975,-1.2075,22.240002,14.184001,18.176,eccentric,4,3.0,57423.0,255128.0,117883.0,250632.0,132524.0
2026-04-14 17:30:58.286857,343940,1609505351960786,2951930575,-1.05408,-0.121024,-0.138592,-6.1425,-10.2375,1.05875,22.240002,14.184001,18.176,eccentric,4,3.0,57423.0,255128.0,117883.0,250632.0,132524.0
2026-04-14 17:30:58.286946,343941,1609505351975272,2951945468,-1.032608,-0.158112,-0.001952,-12.95875,-9.40625,2.695,22.304,13.864,20.224,eccentric,4,3.0,57423.0,255128.0,117883.0,250632.0,132524.0
2026-04-14 17:30:58.287031,343942,1609505351984207,2951954161,-1.089216,-0.115168,-0.271328,-9.68625,-7.84875,3.395,23.184002,13.848001,21.12,eccentric,4,3.0,57423.0,255128.0,117883.0,250632.0,132524.0
2026-04-14 17:30:58.291991,343943,1609505351998735,2951969071,-1.089216,-0.115168,-0.271328,-0.5775,-6.615,3.84125,23.184002,13.848001,21.12,eccentric,4,3.0,57423.0,255128.0,117883.0,250632.0,132524.0
2026-04-14 17:30:58.300643,343944,1609505352007650,2951977756,-1.18096,-0.021472,-0.183488,7.09625,-6.01125,2.10875,23.328001,13.944,21.416,eccentric,4,3.0,57423.0,255128.0,117883.0,250632.0,132524.0
2026-04-14 17:30:58.319166,343945,1609505352022129,2951990597,-1.18096,-0.021472,-0.183488,11.0075,-6.0025,1.61,23.328001,13.944,21.416,eccentric,4,3.0,57423.0,255128.0,117883.0,250632.0,132524.0
2026-04-14 17:30:58.326882,343946,1609505352031459,2952001346,-1.061888,-0.05856,-0.210816,8.72375,-4.87375,0.90125,23.496,13.632001,21.216002,eccentric,4,3.0,57423.0,255128.0,117883.0,250632.0,132524.0
2026-04-14 17:30:58.354470,343957,1609505352040556,2952010195,-1.061888,-0.05856,-0.210816,-0.525,-3.99875,-1.02375,23.496,13.632001,21.216002,eccentric,4,3.0,59835.0,258204.0,121618.0,253278.0,136291.0
2026-04-14 17:30:58.357020,343958,1609505352055081,2952025124,-1.136064,-0.083936,-0.218624,-11.52375,-4.3925,-2.68625,21.816002,14.488001,23.872002,eccentric,4,3.0,59835.0,258204.0,121618.0,253278.0,136291.0
2026-04-14 17:30:58.359382,343959,1609505352064043,2952033810,-1.218048,-0.0976,-0.177632,-16.66875,-3.815,-2.58125,22.224,14.6,22.888,eccentric,4,3.0,59835.0,258204.0,121618.0,253278.0,136291.0
2026-04-14 17:30:58.373320,343960,1609505352078596,2952048742,-1.218048,-0.0976,-0.177632,-16.80875,-2.3975,-2.42375,22.224,14.6,22.888,eccentric,4,3.0,59835.0,258204.0,121618.0,253278.0,136291.0
2026-04-14 17:30:58.380839,343961,1609505352087496,2952057427,-1.159488,-0.10736,-0.089792,-12.94125,-1.015,-2.6075,24.168001,14.072001,22.400002,eccentric,4,3.0,59835.0,258204.0,121618.0,253278.0,136291.0
2026-04-14 17:30:58.395851,343962,1609505352102010,2952072305,-1.159488,-0.10736,-0.089792,-4.57625,1.05,-2.94,24.168001,14.072001,22.400002,eccentric,4,3.0,59835.0,258204.0,121618.0,253278.0,136291.0
2026-04-14 17:30:58.405972,343963,1609505352110956,2952081009,-1.24928,-0.00976,-0.113216,5.67,2.6075,-3.49125,23.464,14.072001,22.52,eccentric,4,3.0,59835.0,258204.0,121618.0,253278.0,136291.0
2026-04-14 17:30:58.413234,343964,1609505352119874,2952089668,-1.24928,-0.00976,-0.113216,10.21125,3.35125,-5.18875,23.464,14.072001,22.52,eccentric,4,3.0,59835.0,258204.0,121618.0,253278.0,136291.0
2026-04-14 17:30:58.453366,343975,1609505352134373,2952104527,-1.128256,-0.001952,-0.027328,4.97,3.26375,-6.965,23.744001,14.120001,22.864,eccentric,4,3.0,61275.0,262028.0,123655.0,255579.0,138172.0
2026-04-14 17:30:58.455807,343976,1609505352143356,2952113222,-1.128256,-0.001952,-0.230336,-10.22875,1.98625,-7.72625,23.744001,14.120001,22.864,eccentric,4,3.0,61275.0,262028.0,123655.0,255579.0,138172.0
2026-04-14 17:30:58.458275,343977,1609505352157865,2952128164,-1.243424,-0.109312,-0.22448,-25.82125,-0.28875,-7.70875,23.04,14.800001,24.240002,eccentric,4,3.0,61275.0,262028.0,123655.0,255579.0,138172.0
2026-04-14 17:30:58.460820,343978,1609505352166783,2952136871,-1.21024,-0.183488,-0.060512,-28.32375,-1.89875,-5.88875,23.2,14.688001,24.032001,eccentric,4,3.0,61275.0,262028.0,123655.0,255579.0,138172.0
2026-04-14 17:30:58.473329,343979,1609505352181287,2952149694,-1.21024,-0.183488,-0.060512,-19.39,-1.72375,-4.20875,23.2,14.688001,24.032001,eccentric,4,3.0,61275.0,262028.0,123655.0,255579.0,138172.0
2026-04-14 17:30:58.483359,343980,1609505352190525,2952160447,-1.270752,-0.07808,-0.216672,-5.32875,-0.23625,-2.87875,23.944,14.408001,22.872002,eccentric,4,3.0,61275.0,262028.0,123655.0,255579.0,138172.0
2026-04-14 17:30:58.493273,343981,1609505352199450,2952169142,-1.270752,-0.07808,-0.216672,4.76875,0.58625,-2.5025,23.944,14.408001,22.872002,eccentric,4,3.0,61275.0,262028.0,123655.0,255579.0,138172.0
2026-04-14 17:30:58.508581,343982,1609505352213962,2952184023,-1.21024,-0.017568,-0.013664,5.24125,0.7875,-2.65125,24.248001,14.256001,24.080002,eccentric,4,3.0,61275.0,262028.0,123655.0,255579.0,138172.0
2026-04-14 17:30:58.518570,343983,1609505352222950,2952192712,-1.21024,-0.017568,-0.013664,-2.2225,0.2275,-2.835,24.248001,14.256001,24.080002,eccentric,4,3.0,61275.0,262028.0,123655.0,255579.0,138172.0
2026-04-14 17:30:58.616966,343994,1609505352237553,2952207652,-1.264896,-0.148352,-0.232288,-11.725,-0.9975,-2.19625,23.720001,15.120001,25.088001,eccentric,4,3.0,66790.0,270378.0,131719.0,261666.0,146668.0
2026-04-14 17:30:58.619469,343995,1609505352246532,2952216345,-1.260992,-0.177632,-0.230336,-13.667501,-1.74125,-1.65375,24.368002,14.248001,24.848001,eccentric,4,3.0,66790.0,270378.0,131719.0,261666.0,146668.0
2026-04-14 17:30:58.622038,343996,1609505352255438,2952225125,-1.260992,-0.177632,-0.230336,-5.075,-1.715,-0.81375,24.368002,14.248001,24.848001,eccentric,4,3.0,66790.0,270378.0,131719.0,261666.0,146668.0
2026-04-14 17:30:58.624446,343997,1609505352269892,2952240033,-1.286368,0.035136,-0.109312,9.59,-0.3675,-0.9625,24.272001,14.312,23.248001,eccentric,4,3.0,66790.0,270378.0,131719.0,261666.0,146668.0
2026-04-14 17:30:58.626895,343998,1609505352278783,2952248704,-1.286368,0.035136,-0.109312,15.5575,-0.44625,-3.815,24.272001,14.312,23.248001,eccentric,4,3.0,66790.0,270378.0,131719.0,261666.0,146668.0
2026-04-14 17:30:58.657013,343999,1609505352293278,2952263565,-1.290272,0.005856,-0.163968,8.77625,-1.4175,-5.7575,24.496,14.320001,23.624,eccentric,4,3.0,66790.0,270378.0,131719.0,261666.0,146668.0
2026-04-14 17:30:58.659457,344000,1609505352302271,2952272273,-1.290272,0.005856,-0.163968,-3.78,-2.31,-6.27375,24.496,14.320001,23.624,eccentric,4,3.0,66790.0,270378.0,131719.0,261666.0,146668.0
2026-04-14 17:30:58.661948,344001,1609505352316865,2952287228,-1.264896,-0.187392,-0.179584,-16.31875,-3.535,-7.27125,24.6,14.288001,24.232,eccentric,4,3.0,66790.0,270378.0,131719.0,261666.0,146668.0
2026-04-14 17:30:58.664559,344002,1609505352325827,2952295927,-1.270752,-0.181536,-0.18544,-16.4325,-1.89,-5.7225,23.744001,14.664001,23.128,eccentric,4,3.0,66790.0,270378.0,131719.0,261666.0,146668.0
2026-04-14 17:30:58.667078,344003,1609505352334784,2952304608,-1.270752,-0.181536,-0.18544,-5.03125,0.8575,-3.66625,23.744001,14.664001,23.128,eccentric,4,3.0,66790.0,270378.0,131719.0,261666.0,146668.0
2026-04-14 17:30:58.694324,344014,1609505352349442,2952319658,-1.305888,-0.105408,-0.300608,5.90625,2.30125,-3.94625,23.856,14.728001,24.656002,eccentric,4,3.0,81448.0,278818.0,153184.0,269299.0,167955.0
2026-04-14 17:30:58.696771,344015,1609505352358324,2952328312,-1.305888,-0.105408,-0.300608,9.6425,1.925,-3.4825,23.856,14.728001,24.656002,eccentric,4,3.0,81448.0,278818.0,153184.0,269299.0,167955.0
2026-04-14 17:30:58.704572,344016,1609505352372879,2952343164,-1.335168,-0.06832,-0.12688,5.0225,0.02625,-1.96875,23.776001,14.840001,24.728,eccentric,4,3.0,81448.0,278818.0,153184.0,269299.0,167955.0
2026-04-14 17:30:58.707006,344017,1609505352381934,2952351929,-1.335168,-0.06832,-0.12688,-2.14375,-1.09375,-0.5425,23.776001,14.840001,24.728,eccentric,4,3.0,81448.0,278818.0,153184.0,269299.0,167955.0
2026-04-14 17:30:58.709356,344018,1609505352396557,2952366883,-1.30784,-0.109312,-0.031232,-6.02875,-1.56625,0.27125,23.584002,14.536,24.344002,eccentric,4,3.0,81448.0,278818.0,153184.0,269299.0,167955.0
2026-04-14 17:30:58.712060,344019,1609505352405501,2952375630,-1.30784,-0.111264,0.027328,-6.48375,-1.0325,0.76125,23.584002,14.536,26.392002,eccentric,4,3.0,81448.0,278818.0,153184.0,269299.0,167955.0
2026-04-14 17:30:58.714531,344020,1609505352414506,2952384301,-1.241472,-0.111264,0.027328,-3.3425,0.27125,0.79625,23.592001,15.016001,26.208002,eccentric,4,3.0,81448.0,278818.0,153184.0,269299.0,167955.0
2026-04-14 17:30:58.723113,344021,1609505352428983,2952399157,-1.245376,-0.095648,-0.171776,0.7,2.065,0.455,22.912,14.432001,25.576002,eccentric,4,3.0,81448.0,278818.0,153184.0,269299.0,167955.0
2026-04-14 17:30:58.753337,344032,1609505352437941,2952408112,-1.245376,-0.095648,-0.171776,1.82,1.925,-1.19875,22.912,14.432001,25.576002,eccentric,4,3.0,83831.0,279338.0,156360.0,269816.0,170870.0
2026-04-14 17:30:58.755615,344033,1609505352452515,2952420982,-1.276608,-0.06832,0.001952,0.8225,1.32125,-1.9775,24.400002,14.344001,23.352001,eccentric,4,3.0,83831.0,279338.0,156360.0,269816.0,170870.0
2026-04-14 17:30:58.758395,344034,1609505352461789,2952431748,-1.276608,-0.06832,0.001952,-0.88375,0.42,-1.9425,24.400002,14.344001,23.352001,eccentric,4,3.0,83831.0,279338.0,156360.0,269816.0,170870.0
2026-04-14 17:30:58.764449,344035,1609505352470746,2952440462,-1.286368,-0.10736,-0.052704,-2.3275,-0.13125,-3.50875,24.792002,14.288001,23.448002,eccentric,4,3.0,83831.0,279338.0,156360.0,269816.0,170870.0
2026-04-14 17:30:58.779578,344036,1609505352485242,2952455348,-1.286368,-0.10736,-0.052704,-1.54875,-0.28875,-3.3075,24.792002,14.288001,23.448002,eccentric,4,3.0,83831.0,279338.0,156360.0,269816.0,170870.0
2026-04-14 17:30:58.786889,344037,1609505352494176,2952464048,-1.21024,-0.119072,0.017568,-1.09375,-0.1575,-2.4325,24.352001,14.040001,23.264002,eccentric,4,3.0,83831.0,279338.0,156360.0,269816.0,170870.0
2026-04-14 17:30:58.803215,344038,1609505352508644,2952478908,-1.319552,-0.085888,-0.187392,-0.48125,0.28,-1.155,24.184002,14.280001,24.008001,eccentric,4,3.0,83831.0,279338.0,156360.0,269816.0,170870.0
2026-04-14 17:30:58.811920,344039,1609505352517561,2952487585,-1.319552,-0.085888,-0.187392,0.27125,-0.13125,-0.21875,24.184002,14.280001,24.008001,eccentric,4,3.0,83831.0,279338.0,156360.0,269816.0,170870.0
2026-04-14 17:30:58.823242,344040,1609505352532040,2952500442,-1.241472,-0.080032,-0.023424,0.72625,-0.7175,0.07,23.472002,14.312,24.016,eccentric,4,3.0,83831.0,279338.0,156360.0,269816.0,170870.0
2026-04-14 17:30:58.856175,344051,1609505352541711,2952511221,-1.241472,-0.080032,-0.023424,1.74125,-1.37375,0.1925,23.472002,14.312,24.016,eccentric,4,3.0,80235.0,275859.0,151359.0,267302.0,165930.0
2026-04-14 17:30:58.858693,344052,1609505352550911,2952520075,-1.23952,-0.060512,0.021472,3.56125,-1.4,0.30625,23.496,14.360001,24.448002,eccentric,4,3.0,80235.0,275859.0,151359.0,267302.0,165930.0
2026-04-14 17:30:58.860737,344053,1609505352565405,2952535031,-1.23952,-0.060512,0.021472,4.0075,-1.70625,-0.67375,23.496,14.360001,24.448002,eccentric,4,3.0,80235.0,275859.0,151359.0,267302.0,165930.0
2026-04-14 17:30:58.867341,344054,1609505352574375,2952543752,-1.260992,-0.033184,-0.099552,3.99875,-1.8025,-1.74125,23.632002,14.304001,24.328001,eccentric,4,3.0,80235.0,275859.0,151359.0,267302.0,165930.0
2026-04-14 17:30:58.878231,344055,1609505352583353,2952552487,-1.260992,-0.033184,-0.099552,2.93125,-2.0825,-2.80875,23.632002,14.304001,24.328001,eccentric,4,3.0,80235.0,275859.0,151359.0,267302.0,165930.0
2026-04-14 17:30:58.896214,344056,1609505352597806,2952567355,-1.173152,-0.132736,-0.162016,1.02375,-3.50875,-3.6925,24.392002,14.056001,23.36,eccentric,4,3.0,80235.0,275859.0,151359.0,267302.0,165930.0
2026-04-14 17:30:58.922196,344057,1609505352606731,2952576054,-1.173152,-0.115168,0.03904,0.88375,-5.215,-3.045,24.392002,14.056001,23.36,eccentric,4,3.0,80235.0,275859.0,151359.0,267302.0,165930.0
2026-04-14 17:30:58.925213,344058,1609505352621169,2952590952,-1.182912,-0.115168,0.03904,3.43875,-5.6875,-1.6975,23.976002,13.976001,23.208,eccentric,4,3.0,80235.0,275859.0,151359.0,267302.0,165930.0
2026-04-14 17:30:58.926770,344059,1609505352630046,2952599605,-1.233664,-0.091744,-0.22448,6.895,-5.92375,-0.84875,23.880001,13.496,23.072,eccentric,4,3.0,80235.0,275859.0,151359.0,267302.0,165930.0
2026-04-14 17:30:58.986132,344070,1609505352644739,2952614659,-1.233664,-0.091744,-0.22448,8.6975,-5.74,-0.48125,23.880001,13.496,23.072,eccentric,4,3.0,75788.0,270939.0,145463.0,263612.0,159865.0
2026-04-14 17:30:58.988631,344071,1609505352653752,2952623390,-1.243424,-0.060512,-0.210816,5.95875,-6.5975,-0.56875,22.432001,14.368001,23.784,eccentric,4,3.0,75788.0,270939.0,145463.0,263612.0,159865.0
2026-04-14 17:30:58.991124,344072,1609505352662694,2952632084,-1.243424,-0.060512,-0.210816,2.4325,-7.30625,-0.04375,22.432001,14.368001,23.784,eccentric,4,3.0,75788.0,270939.0,145463.0,263612.0,159865.0
2026-04-14 17:30:58.995727,344073,1609505352677159,2952646967,-1.134112,-0.113216,-0.070272,1.77625,-8.12875,-0.21875,22.376001,14.072001,23.816002,eccentric,4,3.0,75788.0,270939.0,145463.0,263612.0,159865.0
2026-04-14 17:30:58.996111,344074,1609505352686103,2952655672,-1.134112,-0.113216,-0.070272,3.68375,-8.575,-1.12875,22.376001,14.072001,23.816002,eccentric,4,3.0,75788.0,270939.0,145463.0,263612.0,159865.0
2026-04-14 17:30:58.999925,344075,1609505352700630,2952670577,-1.221952,-0.0976,-0.216672,7.93625,-9.26625,-1.12,22.68,13.456,21.256,eccentric,4,3.0,75788.0,270939.0,145463.0,263612.0,159865.0
2026-04-14 17:30:59.001720,344076,1609505352709548,2952679255,-1.167296,-0.01952,0.005856,14.35,-9.30125,-0.42,22.592001,13.256001,23.560001,eccentric,4,3.0,75788.0,270939.0,145463.0,263612.0,159865.0
2026-04-14 17:30:59.018563,344077,1609505352724037,2952694121,-1.167296,-0.01952,0.005856,16.2925,-9.730001,-0.1575,22.592001,13.256001,23.560001,eccentric,4,3.0,75788.0,270939.0,145463.0,263612.0,159865.0
2026-04-14 17:30:59.026778,344078,1609505352733078,2952702804,-1.208288,-0.01952,-0.105408,10.10625,-10.33375,-1.1725,22.696001,13.504001,23.072,eccentric,4,3.0,75788.0,270939.0,145463.0,263612.0,159865.0
2026-04-14 17:30:59.056916,344089,1609505352742609,2952711796,-1.208288,-0.01952,-0.105408,1.32125,-10.85,-1.33,22.696001,13.504001,23.072,eccentric,4,3.0,74502.0,268497.0,143790.0,262167.0,158167.0
2026-04-14 17:30:59.059416,344090,1609505352757197,2952726708,-1.097024,-0.128832,-0.007808,-3.605,-11.1125,-1.575,22.112001,13.536,23.296001,eccentric,4,3.0,74502.0,268497.0,143790.0,262167.0,158167.0
2026-04-14 17:30:59.061850,344091,1609505352766153,2952735426,-1.097024,-0.128832,-0.007808,-1.44375,-11.025,-2.16125,22.112001,13.536,23.296001,eccentric,4,3.0,74502.0,268497.0,143790.0,262167.0,158167.0
2026-04-14 17:30:59.074974,344092,1609505352780670,2952750288,-1.177056,-0.128832,-0.259616,7.21875,-10.465,-1.2425,21.880001,13.096001,23.296001,eccentric,4,3.0,74502.0,268497.0,143790.0,262167.0,158167.0
2026-04-14 17:30:59.081917,344093,1609505352789604,2952758980,-1.130208,-0.021472,-0.011712,18.13,-10.64,-0.455,21.472,12.952001,21.512001,eccentric,4,3.0,74502.0,268497.0,143790.0,262167.0,158167.0
2026-04-14 17:30:59.091142,344094,1609505352798536,2952767639,-1.130208,-0.021472,-0.011712,23.835001,-11.43625,0.07875,21.472,12.952001,21.512001,eccentric,4,3.0,74502.0,268497.0,143790.0,262167.0,158167.0
2026-04-14 17:30:59.105977,344095,1609505352813057,2952782548,-1.104832,-0.021472,0.025376,20.60625,-12.5125,0.28,22.288,12.176001,21.776001,eccentric,4,3.0,74502.0,268497.0,143790.0,262167.0,158167.0
2026-04-14 17:30:59.119860,344096,1609505352821992,2952791250,-1.104832,-0.021472,0.025376,13.30875,-13.23875,-1.085,22.288,12.176001,21.776001,eccentric,4,3.0,74502.0,268497.0,143790.0,262167.0,158167.0
2026-04-14 17:30:59.131136,344097,1609505352836499,2952806118,-1.130208,-0.103456,-0.218624,7.86625,-13.71125,-2.68625,20.824001,12.120001,21.288,eccentric,4,3.0,74502.0,268497.0,143790.0,262167.0,158167.0
2026-04-14 17:30:59.158692,344108,1609505352845476,2952814865,-1.130208,-0.103456,-0.218624,4.48875,-13.886251,-3.54375,20.824001,12.120001,21.288,eccentric,4,3.0,80499.0,273349.0,152281.0,266962.0,167457.0
2026-04-14 17:30:59.160785,344109,1609505352860003,2952829825,-1.16144,-0.162016,-0.240096,5.3375,-15.77625,-3.185,21.232,11.88,21.12,eccentric,4,3.0,80499.0,273349.0,152281.0,266962.0,167457.0
2026-04-14 17:30:59.163646,344110,1609505352868928,2952838510,-1.11264,-0.060512,-0.197152,12.215,-18.7075,-1.61875,20.904001,11.448001,22.552002,eccentric,4,3.0,80499.0,273349.0,152281.0,266962.0,167457.0
2026-04-14 17:30:59.171139,344111,1609505352877869,2952847188,-1.11264,-0.060512,-0.197152,24.745,-19.775,0.4725,20.904001,11.448001,22.552002,eccentric,4,3.0,80499.0,273349.0,152281.0,266962.0,167457.0
2026-04-14 17:30:59.188052,344112,1609505352892338,2952862105,-1.169248,0.046848,0.005856,32.80375,-20.991251,0.91,20.312,11.512,20.976002,eccentric,4,3.0,80499.0,273349.0,152281.0,266962.0,167457.0
2026-04-14 17:30:59.193102,344113,1609505352901255,2952870811,-1.169248,0.046848,0.005856,26.46875,-22.3825,-0.20125,20.312,11.512,20.976002,eccentric,4,3.0,80499.0,273349.0,152281.0,266962.0,167457.0
2026-04-14 17:30:59.209226,344114,1609505352915864,2952885746,-1.169248,-0.013664,0.083936,14.105001,-24.115,-0.21875,19.224,11.336,21.016,eccentric,4,3.0,80499.0,273349.0,152281.0,266962.0,167457.0
2026-04-14 17:30:59.223563,344115,1609505352924821,2952894440,-1.169248,-0.013664,0.083936,4.10375,-24.14125,-0.06125,19.224,11.336,21.016,eccentric,4,3.0,80499.0,273349.0,152281.0,266962.0,167457.0
2026-04-14 17:30:59.257389,344126,1609505352939293,2952909357,-1.186816,-0.093696,-0.035136,-1.25125,-23.397501,-0.53375,17.864,11.304001,20.664001,eccentric,4,3.0,108411.0,294295.0,187708.0,283376.0,203373.0
2026-04-14 17:30:59.259396,344127,1609505352948245,2952918118,-1.186816,-0.093696,-0.035136,0.51625,-21.2625,0.49875,17.864,11.304001,20.664001,eccentric,4,3.0,108411.0,294295.0,187708.0,283376.0,203373.0
2026-04-14 17:30:59.261944,344128,1609505352957201,2952926822,-1.00528,-0.089792,0.105408,5.27625,-19.11,1.7675,17.36,10.984,20.208,eccentric,4,3.0,108411.0,294295.0,187708.0,283376.0,203373.0
2026-04-14 17:30:59.300947,344129,1609505352971704,2952941753,-1.13216,-0.089792,-0.187392,8.00625,-18.095,3.24625,17.032001,10.664001,20.016,eccentric,4,3.0,108411.0,294295.0,187708.0,283376.0,203373.0
2026-04-14 17:30:59.303514,344130,1609505352980647,2952950445,-1.13216,-0.089792,-0.187392,5.22375,-19.10125,4.94375,17.032001,10.664001,20.016,eccentric,4,3.0,108411.0,294295.0,187708.0,283376.0,203373.0
2026-04-14 17:30:59.305993,344131,1609505352995134,2952965315,-1.11264,0.001952,0.03904,4.22625,-20.1425,6.265,15.584001,10.832001,21.960001,eccentric,4,3.0,108411.0,294295.0,187708.0,283376.0,203373.0
2026-04-14 17:30:59.331510,344132,1609505353004067,2952973987,-1.11264,0.001952,0.03904,6.8425,-20.44,6.23875,15.584001,10.832001,21.960001,eccentric,4,3.0,108411.0,294295.0,187708.0,283376.0,203373.0
2026-04-14 17:30:59.356111,344133,1609505353018571,2952988865,-1.056032,-0.033184,0.011712,8.02375,-20.74625,4.50625,13.704,10.76,22.712002,eccentric,4,3.0,108411.0,294295.0,187708.0,283376.0,203373.0
2026-04-14 17:30:59.358623,344134,1609505353027497,2952997529,-1.056032,-0.033184,0.011712,4.9175,-20.65,3.45625,13.704,10.76,22.712002,eccentric,4,3.0,108411.0,294295.0,187708.0,283376.0,203373.0
2026-04-14 17:30:59.368640,344135,1609505353036417,2953006190,-1.136064,-0.042944,-0.007808,-0.035,-20.74625,3.35125,12.512001,10.912001,20.6,eccentric,4,3.0,108411.0,294295.0,187708.0,283376.0,203373.0
2026-04-14 17:30:59.396025,344146,1609505353051000,2953021111,-0.983808,-0.0976,0.109312,-0.34125,-18.96125,3.15875,12.392,10.336,22.240002,eccentric,4,3.0,103355.0,287630.0,180915.0,278504.0,196349.0
2026-04-14 17:30:59.398522,344147,1609505353059898,2953029770,-0.983808,-0.0976,0.109312,4.99625,-17.35125,3.4125,12.392,10.336,22.240002,eccentric,4,3.0,103355.0,287630.0,180915.0,278504.0,196349.0
2026-04-14 17:30:59.401010,344148,1609505353074330,2953044649,-1.016992,-0.062464,0.080032,8.35625,-16.2925,3.85875,11.824,10.192,22.936,eccentric,4,3.0,103355.0,287630.0,180915.0,278504.0,196349.0
2026-04-14 17:30:59.403162,344149,1609505353083416,2953053348,-1.016992,-0.062464,0.080032,8.4525,-16.03,4.08625,11.824,10.192,22.936,eccentric,4,3.0,103355.0,287630.0,180915.0,278504.0,196349.0
2026-04-14 17:30:59.406048,344150,1609505353097955,2953066308,-1.136064,0.005856,0.044896,8.16375,-16.2925,4.9,11.280001,10.248,23.400002,eccentric,4,3.0,103355.0,287630.0,180915.0,278504.0,196349.0
2026-04-14 17:30:59.408587,344151,1609505353107164,2953077080,-1.136064,0.005856,0.044896,10.745,-16.16125,5.985,11.280001,10.248,23.400002,eccentric,4,3.0,103355.0,287630.0,180915.0,278504.0,196349.0
2026-04-14 17:30:59.410581,344152,1609505353116128,2953085775,-1.067744,-0.062464,0.109312,15.33875,-14.9975,6.43125,10.664001,9.816001,24.488,eccentric,4,3.0,103355.0,287630.0,180915.0,278504.0,196349.0
2026-04-14 17:30:59.424784,344153,1609505353130619,2953100677,-1.149728,-0.046848,-0.040992,18.06,-14.4025,5.67,10.92,9.856001,24.288002,eccentric,4,3.0,103355.0,287630.0,180915.0,278504.0,196349.0
2026-04-14 17:30:59.463074,344164,1609505353139560,2953109757,-1.149728,-0.046848,-0.040992,19.6875,-12.69625,6.93875,10.92,9.856001,24.288002,eccentric,4,3.0,79376.0,267805.0,149758.0,262873.0,164049.0
2026-04-14 17:30:59.463312,344165,1609505353154067,2953122662,-1.056032,0.001952,-0.025376,20.90375,-10.59625,8.39125,11.6,9.64,25.448002,eccentric,4,3.0,79376.0,267805.0,149758.0,262873.0,164049.0
2026-04-14 17:30:59.465540,344166,1609505353163597,2953133422,-1.056032,0.001952,-0.025376,15.82875,-9.073751,8.47875,11.6,9.64,25.448002,eccentric,4,3.0,79376.0,267805.0,149758.0,262873.0,164049.0
2026-04-14 17:30:59.475991,344167,1609505353172588,2953142112,-1.100928,-0.040992,-0.03904,-0.2275,-10.40375,8.72375,12.208,10.072001,25.776001,eccentric,4,3.0,79376.0,267805.0,149758.0,262873.0,164049.0
2026-04-14 17:30:59.482255,344168,1609505353187094,2953156996,-1.100928,-0.040992,-0.03904,-21.37625,-14.3325,8.02375,12.208,10.072001,25.776001,eccentric,4,3.0,79376.0,267805.0,149758.0,262873.0,164049.0
2026-04-14 17:30:59.488436,344169,1609505353196031,2953165732,-1.098976,-0.056608,-0.121024,-27.72,-19.60875,8.49625,12.512001,10.912001,27.304,eccentric,4,3.0,79376.0,267805.0,149758.0,262873.0,164049.0
2026-04-14 17:30:59.504744,344170,1609505353210579,2953180664,-1.098976,0.027328,0.062464,-17.82375,-22.18125,8.4,12.512001,10.912001,27.304,eccentric,4,3.0,79376.0,267805.0,149758.0,262873.0,164049.0
2026-04-14 17:30:59.513537,344171,1609505353219477,2953189357,-1.087264,0.027328,0.062464,-3.885,-22.91625,6.86875,12.080001,11.072001,27.288002,eccentric,4,3.0,79376.0,267805.0,149758.0,262873.0,164049.0
2026-04-14 17:30:59.528251,344172,1609505353233927,2953204226,-1.00528,0.017568,-0.00976,2.51125,-23.6425,5.92375,13.256001,10.704,27.024002,eccentric,4,3.0,79376.0,267805.0,149758.0,262873.0,164049.0
2026-04-14 17:30:59.563044,344183,1609505353242987,2953213192,-1.00528,0.017568,-0.00976,0.21,-23.73,5.80125,13.256001,10.704,27.024002,eccentric,4,3.0,70800.0,261629.0,138350.0,257179.0,152874.0
2026-04-14 17:30:59.564341,344184,1609505353251974,2953221913,-0.95648,-0.02928,-0.015616,-4.17375,-23.89625,6.4575,12.360001,11.52,25.112001,eccentric,4,3.0,70800.0,261629.0,138350.0,257179.0,152874.0
2026-04-14 17:30:59.568742,344185,1609505353266498,2953234854,-0.95648,-0.02928,-0.015616,-9.1,-23.66875,7.42875,12.360001,11.52,25.112001,eccentric,4,3.0,70800.0,261629.0,138350.0,257179.0,152874.0
2026-04-14 17:30:59.572609,344186,1609505353275671,2953245611,-0.964288,-0.046848,0.160064,-16.2225,-23.68625,7.95375,12.568001,11.752001,27.712002,eccentric,4,3.0,70800.0,261629.0,138350.0,257179.0,152874.0
2026-04-14 17:30:59.586122,344187,1609505353290162,2953260500,-0.964288,-0.046848,0.160064,-21.07875,-23.66,9.31,12.568001,11.752001,27.712002,eccentric,4,3.0,70800.0,261629.0,138350.0,257179.0,152874.0
2026-04-14 17:30:59.592463,344188,1609505353299073,2953269199,-0.872544,-0.06832,0.115168,-21.39375,-24.15875,9.58125,13.240001,11.56,26.912,eccentric,4,3.0,70800.0,261629.0,138350.0,257179.0,152874.0
2026-04-14 17:30:59.602294,344189,1609505353308018,2953277862,-0.872544,-0.06832,0.115168,-13.7725,-23.4325,9.31875,13.240001,11.56,26.912,eccentric,4,3.0,70800.0,261629.0,138350.0,257179.0,152874.0
2026-04-14 17:30:59.618617,344190,1609505353322491,2953292766,-0.895968,0.035136,0.01952,-3.50875,-22.1025,8.5575,12.72,12.040001,26.936,eccentric,4,3.0,70800.0,261629.0,138350.0,257179.0,152874.0
2026-04-14 17:30:59.625687,344191,1609505353331426,2953301456,-0.895968,0.052704,0.128832,1.82,-20.991251,6.055,12.72,12.040001,24.888,eccentric,4,3.0,70800.0,261629.0,138350.0,257179.0,152874.0
2026-04-14 17:30:59.709395,344202,1609505353346059,2953316406,-0.890112,0.052704,0.128832,-1.3825,-21.385,4.05125,13.032001,12.232,25.384,eccentric,4,3.0,65205.0,252770.0,130337.0,250032.0,144984.0
2026-04-14 17:30:59.712382,344203,1609505353355084,2953325115,-0.862784,0.011712,0.21472,-9.625,-22.085001,3.2725,13.840001,11.984,26.432001,eccentric,4,3.0,65205.0,252770.0,130337.0,250032.0,144984.0
2026-04-14 17:30:59.714899,344204,1609505353369569,2953337933,-0.862784,0.011712,0.21472,-18.9175,-21.90125,2.5025,13.840001,11.984,26.432001,eccentric,4,3.0,65205.0,252770.0,130337.0,250032.0,144984.0
2026-04-14 17:30:59.716862,344205,1609505353378712,2953348665,-0.772992,-0.070272,0.18544,-23.275,-21.2975,2.065,13.816001,12.104001,26.416,eccentric,4,3.0,65205.0,252770.0,130337.0,250032.0,144984.0
2026-04-14 17:30:59.719841,344206,1609505353387663,2953357340,-0.772992,-0.070272,0.18544,-19.425,-19.62625,2.975,13.816001,12.104001,26.416,eccentric,4,3.0,65205.0,252770.0,130337.0,250032.0,144984.0
2026-04-14 17:30:59.721833,344207,1609505353402160,2953372275,-0.933056,-0.040992,-0.070272,-13.62375,-17.85,3.50875,13.776001,12.544001,26.288002,eccentric,4,3.0,65205.0,252770.0,130337.0,250032.0,144984.0
2026-04-14 17:30:59.724429,344208,1609505353411060,2953380958,-0.933056,-0.040992,-0.070272,-10.73625,-16.94875,3.80625,13.776001,12.544001,26.288002,eccentric,4,3.0,65205.0,252770.0,130337.0,250032.0,144984.0
2026-04-14 17:30:59.726806,344209,1609505353425590,2953395865,-0.845216,-0.005856,0.072224,-7.77875,-17.491251,3.605,13.808001,12.576,24.52,eccentric,4,3.0,65205.0,252770.0,130337.0,250032.0,144984.0
2026-04-14 17:30:59.730097,344210,1609505353434534,2953404550,-0.802272,-0.027328,0.109312,-6.44875,-17.92,3.17625,13.584001,12.792001,25.960001,eccentric,4,3.0,65205.0,252770.0,130337.0,250032.0,144984.0
