pc_time,serial_num,sensor_ts,host_ts,ax,ay,az,gx,gy,gz,mx,my,mz,phase,rpe,weight_kg,ppg_a,ppg_b,ppg_c,ppg_d,ppg_e
2026-04-14 17:30:59.761745,344221,1609505353449023,2953417568,-0.802272,-0.027328,0.109312,-6.76375,-18.40125,2.9575,13.584001,12.792001,25.960001,concentric,4,3.0,62337.0,246347.0,125575.0,244895.0,140561.0
2026-04-14 17:30:59.764252,344222,1609505353458448,2953428365,-0.872544,0.027328,0.279136,-4.795,-17.07125,3.43,13.656001,12.544001,26.152,concentric,4,3.0,62337.0,246347.0,125575.0,244895.0,140561.0
2026-04-14 17:30:59.768967,344223,1609505353467411,2953437054,-0.872544,0.027328,0.279136,-1.98625,-14.42875,3.42125,13.656001,12.544001,26.152,concentric,4,3.0,62337.0,246347.0,125575.0,244895.0,140561.0
2026-04-14 17:30:59.775613,344224,1609505353481899,2953451934,-0.9272,0.025376,0.06832,-3.84125,-11.97875,3.26375,13.256001,12.936001,27.048,concentric,4,3.0,62337.0,246347.0,125575.0,244895.0,140561.0
2026-04-14 17:30:59.783080,344225,1609505353490823,2953460628,-0.9272,0.025376,0.06832,-9.16125,-10.61375,1.785,13.256001,12.936001,27.048,concentric,4,3.0,62337.0,246347.0,125575.0,244895.0,140561.0
2026-04-14 17:30:59.798052,344226,1609505353505308,2953475538,-0.856928,0.02928,0.216672,-14.035,-9.59,1.02375,13.256001,12.848001,25.472002,concentric,4,3.0,62337.0,246347.0,125575.0,244895.0,140561.0
2026-04-14 17:30:59.809332,344227,1609505353514238,2953484208,-0.884256,-0.033184,0.187392,-16.415,-9.59,0.2625,12.280001,13.176001,25.936,concentric,4,3.0,62337.0,246347.0,125575.0,244895.0,140561.0
2026-04-14 17:30:59.817331,344228,1609505353523148,2953492870,-0.884256,-0.033184,0.187392,-16.31875,-10.2025,0.23625,12.280001,13.176001,25.936,concentric,4,3.0,62337.0,246347.0,125575.0,244895.0,140561.0
2026-04-14 17:30:59.832363,344229,1609505353537622,2953507739,-0.899872,0.011712,0.26352,-13.02,-11.165,0.48125,13.472001,13.384001,25.688002,concentric,4,3.0,62337.0,246347.0,125575.0,244895.0,140561.0
2026-04-14 17:30:59.863028,344240,1609505353547108,2953516486,-0.899872,0.011712,0.26352,-8.995,-8.96,1.155,13.472001,13.384001,25.688002,concentric,4,3.0,59474.0,239760.0,121235.0,239401.0,136162.0
2026-04-14 17:30:59.866012,344241,1609505353561654,2953531405,-0.974048,0.056608,0.154208,-7.35,-7.77875,1.575,13.328001,13.080001,25.840002,concentric,4,3.0,59474.0,239760.0,121235.0,239401.0,136162.0
2026-04-14 17:30:59.868485,344242,1609505353570602,2953540177,-0.974048,0.056608,0.154208,-7.2975,-6.62375,1.05875,13.328001,13.080001,25.840002,concentric,4,3.0,59474.0,239760.0,121235.0,239401.0,136162.0
2026-04-14 17:30:59.873499,344243,1609505353579545,2953548873,-0.870592,0.001952,0.247904,-8.37375,-5.6875,0.9975,13.616,13.072001,25.624,concentric,4,3.0,59474.0,239760.0,121235.0,239401.0,136162.0
2026-04-14 17:30:59.887266,344244,1609505353594017,2953563802,-0.882304,-0.0488,0.206912,-9.03875,-4.83875,0.525,12.920001,13.496,28.104002,concentric,4,3.0,59474.0,239760.0,121235.0,239401.0,136162.0
2026-04-14 17:30:59.897399,344245,1609505353602975,2953572477,-0.882304,-0.0488,0.206912,-6.08125,-4.78625,0.525,12.920001,13.496,28.104002,concentric,4,3.0,59474.0,239760.0,121235.0,239401.0,136162.0
2026-04-14 17:30:59.931114,344246,1609505353617475,2953587414,-0.98576,-0.007808,0.081984,-0.77,-5.845,0.90125,12.536,13.056001,25.528002,concentric,4,3.0,59474.0,239760.0,121235.0,239401.0,136162.0
2026-04-14 17:30:59.938602,344247,1609505353626389,2953596097,-0.98576,-0.007808,0.081984,6.55375,-6.8775,1.925,12.536,13.056001,25.528002,concentric,4,3.0,59474.0,239760.0,121235.0,239401.0,136162.0
2026-04-14 17:30:59.941106,344248,1609505353640893,2953610960,-0.909632,0.05856,0.36112,12.15375,-7.6125,2.63375,13.336,13.184001,25.400002,concentric,4,3.0,59474.0,239760.0,121235.0,239401.0,136162.0
2026-04-14 17:30:59.970720,344259,1609505353649903,2953619642,-0.909632,0.05856,0.36112,13.405,-8.1375,2.16125,13.336,13.184001,25.400002,concentric,4,3.0,58240.0,240696.0,119282.0,239807.0,134142.0
2026-04-14 17:30:59.973317,344260,1609505353658881,2953628407,-0.94672,0.015616,0.423584,10.4125,-6.57125,1.72375,13.328001,12.776001,25.560001,concentric,4,3.0,58240.0,240696.0,119282.0,239807.0,134142.0
2026-04-14 17:30:59.975609,344261,1609505353673375,2953643308,-0.94672,-0.046848,0.220576,9.9575,-3.85875,1.295,13.328001,12.776001,25.560001,concentric,4,3.0,58240.0,240696.0,119282.0,239807.0,134142.0
2026-04-14 17:30:59.978247,344262,1609505353682291,2953652027,-0.954528,-0.046848,0.220576,12.99375,-1.49625,-0.1225,13.592001,12.84,26.992,concentric,4,3.0,58240.0,240696.0,119282.0,239807.0,134142.0
2026-04-14 17:30:59.990799,344263,1609505353696826,2953666915,-1.091168,0.0,-0.03904,18.01625,0.35875,-1.3825,12.632001,12.568001,27.28,concentric,4,3.0,58240.0,240696.0,119282.0,239807.0,134142.0
2026-04-14 17:31:00.028431,344264,1609505353705765,2953675601,-1.091168,0.0,-0.03904,20.44875,0.6475,-1.82875,12.632001,12.568001,27.28,concentric,4,3.0,58240.0,240696.0,119282.0,239807.0,134142.0
2026-04-14 17:31:00.030625,344265,1609505353720252,2953690528,-1.079456,0.015616,0.187392,23.03875,-0.88375,-2.35375,12.624001,12.032001,27.176,concentric,4,3.0,58240.0,240696.0,119282.0,239807.0,134142.0
2026-04-14 17:31:00.033160,344266,1609505353729175,2953699206,-1.079456,0.015616,0.187392,23.30125,-1.82875,-2.30125,12.624001,12.032001,27.176,concentric,4,3.0,58240.0,240696.0,119282.0,239807.0,134142.0
2026-04-14 17:31:00.058100,344267,1609505353738093,2953707866,-1.100928,-0.054656,0.265472,20.92125,-2.45875,-2.1875,12.744,12.208,27.192001,concentric,4,3.0,58240.0,240696.0,119282.0,239807.0,134142.0
2026-04-14 17:31:00.093357,344278,1609505353753030,2953723288,-1.100928,-0.054656,0.265472,19.6175,-1.855,-2.135,12.744,12.208,27.192001,concentric,4,3.0,57222.0,247670.0,116795.0,244155.0,131903.0
2026-04-14 17:31:00.095699,344279,1609505353761942,2953731946,-1.016992,-0.12688,0.318176,20.95625,-0.6125,-3.03625,12.528001,11.448001,27.032001,concentric,4,3.0,57222.0,247670.0,116795.0,244155.0,131903.0
2026-04-14 17:31:00.098391,344280,1609505353776441,2953744884,-1.022848,-0.054656,0.325984,23.6425,0.9625,-4.3225,12.496,11.672001,27.936,concentric,4,3.0,57222.0,247670.0,116795.0,244155.0,131903.0
2026-04-14 17:31:00.100874,344281,1609505353785757,2953755694,-1.022848,-0.054656,0.325984,23.2225,2.6425,-5.34625,12.496,11.672001,27.936,concentric,4,3.0,57222.0,247670.0,116795.0,244155.0,131903.0
2026-04-14 17:31:00.103375,344282,1609505353794774,2953764448,-0.976,-0.064416,0.28304,17.185,3.255,-6.92125,11.936001,11.480001,31.568,concentric,4,3.0,57222.0,247670.0,116795.0,244155.0,131903.0
2026-04-14 17:31:00.105833,344283,1609505353809260,2953779344,-0.976,-0.064416,0.28304,7.21,2.45,-8.33875,11.936001,11.480001,31.568,concentric,4,3.0,57222.0,247670.0,116795.0,244155.0,131903.0
2026-04-14 17:31:00.113390,344284,1609505353818303,2953788141,-1.03456,-0.013664,0.275232,0.30625,2.73,-9.292501,11.584001,11.736001,27.336,concentric,4,3.0,57222.0,247670.0,116795.0,244155.0,131903.0
2026-04-14 17:31:00.125653,344285,1609505353832780,2953803047,-1.03456,-0.013664,0.275232,-0.7525,3.08,-9.17875,11.584001,11.736001,27.336,concentric,4,3.0,57222.0,247670.0,116795.0,244155.0,131903.0
2026-04-14 17:31:00.137097,344286,1609505353841699,2953811752,-0.958432,0.01952,0.265472,0.0875,3.605,-9.555,13.288001,11.136001,27.720001,concentric,4,3.0,57222.0,247670.0,116795.0,244155.0,131903.0
2026-04-14 17:31:00.167421,344297,1609505353856259,2953824815,-1.069696,0.056608,0.070272,0.79625,4.935,-10.115,13.168,11.208,27.368002,concentric,4,3.0,61491.0,251067.0,123456.0,247356.0,138779.0
2026-04-14 17:31:00.169669,344298,1609505353865651,2953835632,-1.069696,0.056608,0.070272,0.48125,6.86875,-10.78875,13.168,11.208,27.368002,concentric,4,3.0,61491.0,251067.0,123456.0,247356.0,138779.0
2026-04-14 17:31:00.172233,344299,1609505353874609,2953844325,-1.069696,0.056608,0.152256,-0.02625,8.77625,-12.06625,13.168,11.208,27.368002,concentric,4,3.0,61491.0,251067.0,123456.0,247356.0,138779.0
2026-04-14 17:31:00.184807,344300,1609505353889177,2953859205,-1.03456,0.056608,0.152256,0.49875,10.92,-12.9325,13.280001,11.056001,26.248001,concentric,4,3.0,61491.0,251067.0,123456.0,247356.0,138779.0
2026-04-14 17:31:00.192386,344301,1609505353898117,2953867884,-0.977952,0.017568,0.040992,0.81375,12.67875,-13.8425,13.144001,11.384001,27.152,concentric,4,3.0,61491.0,251067.0,123456.0,247356.0,138779.0
2026-04-14 17:31:00.206133,344302,1609505353912646,2953882816,-0.977952,0.017568,0.040992,1.14625,13.57125,-14.37625,13.144001,11.384001,27.152,concentric,4,3.0,61491.0,251067.0,123456.0,247356.0,138779.0
2026-04-14 17:31:00.216122,344303,1609505353921543,2953891493,-1.028704,0.013664,-0.003904,0.07875,13.4925,-15.23375,13.920001,11.080001,25.968,concentric,4,3.0,61491.0,251067.0,123456.0,247356.0,138779.0
2026-04-14 17:31:00.231686,344304,1609505353936009,2953904349,-1.042368,0.00976,0.042944,-1.8725,12.6,-15.47,13.664001,11.6,25.952002,concentric,4,3.0,61491.0,251067.0,123456.0,247356.0,138779.0
2026-04-14 17:31:00.263579,344315,1609505353945634,2953915166,-1.042368,0.00976,0.042944,-2.0125,12.705,-15.26875,13.664001,11.6,25.952002,concentric,4,3.0,65676.0,253057.0,129821.0,249643.0,145266.0
2026-04-14 17:31:00.268621,344316,1609505353954664,2953923932,-1.042368,0.00976,0.042944,0.04375,14.16625,-15.09375,13.664001,11.6,25.952002,concentric,4,3.0,65676.0,253057.0,129821.0,249643.0,145266.0
2026-04-14 17:31:00.271132,344317,1609505353969130,2953938874,-1.00528,-0.01952,0.0488,2.415,15.77625,-14.4025,13.704,10.928,28.584002,concentric,4,3.0,65676.0,253057.0,129821.0,249643.0,145266.0
2026-04-14 17:31:00.273546,344318,1609505353978081,2953947557,-1.032608,0.037088,0.0976,2.7825,17.36875,-13.78125,14.144001,11.256001,25.992,concentric,4,3.0,65676.0,253057.0,129821.0,249643.0,145266.0
2026-04-14 17:31:00.287083,344319,1609505353992578,2953962441,-1.032608,0.037088,0.0976,2.2925,19.03125,-12.53,14.144001,11.256001,25.992,concentric,4,3.0,65676.0,253057.0,129821.0,249643.0,145266.0
2026-04-14 17:31:00.294901,344320,1609505354001500,2953971140,-1.007232,0.00976,-0.017568,-0.49875,20.335001,-12.2675,13.336,11.568001,26.12,concentric,4,3.0,65676.0,253057.0,129821.0,249643.0,145266.0
2026-04-14 17:31:00.304864,344321,1609505354010423,2953979811,-1.007232,0.00976,-0.017568,-5.60875,20.85125,-11.935,13.336,11.568001,26.12,concentric,4,3.0,65676.0,253057.0,129821.0,249643.0,145266.0
2026-04-14 17:31:00.331012,344322,1609505354024912,2953994690,-1.065792,0.025376,0.021472,-8.8375,20.6675,-11.06,14.384001,11.344001,26.032001,concentric,4,3.0,65676.0,253057.0,129821.0,249643.0,145266.0
2026-04-14 17:31:00.333175,344323,1609505354033828,2954003344,-1.065792,0.025376,0.021472,-10.71,20.475,-11.095,14.384001,11.344001,26.032001,concentric,4,3.0,65676.0,253057.0,129821.0,249643.0,145266.0
2026-04-14 17:31:00.361999,344334,1609505354048919,2954018665,-1.007232,-0.035136,0.0,-9.9925,20.93875,-11.38375,14.76,11.312,26.112001,concentric,4,3.0,69606.0,254689.0,135625.0,251658.0,151005.0
2026-04-14 17:31:00.364892,344335,1609505354057923,2954027412,-0.95648,0.01952,0.25376,-5.62625,21.49,-10.85,13.976001,11.976001,27.024002,concentric,4,3.0,69606.0,254689.0,135625.0,251658.0,151005.0
2026-04-14 17:31:00.367376,344336,1609505354066989,2954036121,-0.95648,0.01952,0.25376,-1.70625,22.225,-10.33375,13.976001,11.976001,27.024002,concentric,4,3.0,69606.0,254689.0,135625.0,251658.0,151005.0
2026-04-14 17:31:00.392038,344337,1609505354081501,2954051040,-0.997472,0.001952,-0.005856,-1.4525,23.09125,-10.36,14.52,12.320001,26.784,concentric,4,3.0,69606.0,254689.0,135625.0,251658.0,151005.0
2026-04-14 17:31:00.417856,344338,1609505354090451,2954059745,-0.997472,0.001952,-0.005856,-4.515,24.15875,-10.255,14.52,12.320001,26.784,concentric,4,3.0,69606.0,254689.0,135625.0,251658.0,151005.0
2026-04-14 17:31:00.424223,344339,1609505354104881,2954074656,-0.935008,-0.0488,0.12688,-9.9225,24.21125,-10.36875,14.744,11.960001,25.448002,concentric,4,3.0,69606.0,254689.0,135625.0,251658.0,151005.0
2026-04-14 17:31:00.426910,344340,1609505354113778,2954083322,-0.935008,-0.0488,0.12688,-14.63875,24.1675,-9.511251,14.744,11.960001,25.448002,concentric,4,3.0,69606.0,254689.0,135625.0,251658.0,151005.0
2026-04-14 17:31:00.429334,344341,1609505354128229,2954098170,-0.931104,-0.060512,0.152256,-15.54875,24.85875,-8.365,15.576001,11.824,25.456001,concentric,4,3.0,69606.0,254689.0,135625.0,251658.0,151005.0
2026-04-14 17:31:00.432259,344342,1609505354137132,2954106913,-0.933056,0.013664,0.212768,-10.96375,25.52375,-8.0675,15.896001,11.864,25.424002,concentric,4,3.0,69606.0,254689.0,135625.0,251658.0,151005.0
2026-04-14 17:31:00.464932,344353,1609505354146049,2954115599,-0.933056,0.013664,0.212768,-5.46875,26.355,-8.21625,15.896001,11.864,25.424002,concentric,4,3.0,72463.0,255817.0,140086.0,253433.0,155308.0
2026-04-14 17:31:00.467384,344354,1609505354160986,2954130507,-0.95648,-0.017568,0.050752,-4.19125,26.81,-8.33,16.376001,11.952001,25.432001,concentric,4,3.0,72463.0,255817.0,140086.0,253433.0,155308.0
2026-04-14 17:31:00.471920,344355,1609505354169921,2954139200,-0.95648,-0.017568,0.050752,-6.88625,27.43125,-9.073751,16.376001,11.952001,25.432001,concentric,4,3.0,72463.0,255817.0,140086.0,253433.0,155308.0
2026-04-14 17:31:00.479595,344356,1609505354184365,2954154169,-1.009184,-0.0488,-0.02928,-10.9025,26.50375,-8.855001,16.208,12.496,27.552002,concentric,4,3.0,72463.0,255817.0,140086.0,253433.0,155308.0
2026-04-14 17:31:00.485699,344357,1609505354193294,2954162867,-1.009184,-0.0488,-0.02928,-13.27375,26.62625,-8.21625,16.208,12.496,27.552002,concentric,4,3.0,72463.0,255817.0,140086.0,253433.0,155308.0
2026-04-14 17:31:00.494819,344358,1609505354202308,2954171556,-1.00528,-0.074176,-0.064416,-14.42875,26.985,-8.00625,15.696001,12.264001,25.232,concentric,4,3.0,72463.0,255817.0,140086.0,253433.0,155308.0
2026-04-14 17:31:00.510777,344359,1609505354216792,2954186454,-1.00528,-0.074176,0.07808,-11.76,27.60625,-7.77875,15.696001,12.264001,25.232,concentric,4,3.0,72463.0,255817.0,140086.0,253433.0,155308.0
2026-04-14 17:31:00.519717,344360,1609505354225708,2954195135,-0.884256,-0.05856,0.07808,-8.25125,27.772501,-7.51625,17.184,12.312,25.552002,concentric,4,3.0,72463.0,255817.0,140086.0,253433.0,155308.0
2026-04-14 17:31:00.536042,344361,1609505354240188,2954210033,-0.874496,-0.040992,0.113216,-6.58,27.93,-6.81625,16.880001,12.312,25.320002,concentric,4,3.0,72463.0,255817.0,140086.0,253433.0,155308.0
2026-04-14 17:31:00.598537,344372,1609505354249204,2954218809,-0.874496,-0.040992,0.113216,-8.0325,28.46375,-5.80125,16.880001,12.312,25.320002,concentric,4,3.0,73936.0,257523.0,142465.0,255116.0,157401.0
2026-04-14 17:31:00.599273,344373,1609505354263831,2954233737,-0.923296,-0.044896,0.154208,-13.2475,28.21875,-5.46,17.376001,12.288,25.672,concentric,4,3.0,73936.0,257523.0,142465.0,255116.0,157401.0
2026-04-14 17:31:00.604199,344374,1609505354272759,2954242496,-0.923296,-0.044896,0.154208,-17.22,27.51875,-5.60875,17.376001,12.288,25.672,concentric,4,3.0,73936.0,257523.0,142465.0,255116.0,157401.0
2026-04-14 17:31:00.604276,344375,1609505354281658,2954251188,-1.04432,-0.064416,-0.089792,-17.4125,27.02,-5.85375,17.168001,12.536,25.960001,concentric,4,3.0,73936.0,257523.0,142465.0,255116.0,157401.0
2026-04-14 17:31:00.606631,344376,1609505354296132,2954266088,-1.04432,-0.064416,-0.089792,-13.5975,26.20625,-5.1275,17.168001,12.536,25.960001,concentric,4,3.0,73936.0,257523.0,142465.0,255116.0,157401.0
2026-04-14 17:31:00.609353,344377,1609505354305057,2954274760,-0.9272,-0.040992,0.138592,-6.9825,25.13875,-4.9175,16.864,12.512001,25.344002,concentric,4,3.0,73936.0,257523.0,142465.0,255116.0,157401.0
2026-04-14 17:31:00.614757,344378,1609505354319560,2954289639,-0.970144,-0.031232,-0.099552,-2.56375,24.605,-5.3025,16.816,12.84,25.776001,concentric,4,3.0,73936.0,257523.0,142465.0,255116.0,157401.0
2026-04-14 17:31:00.622279,344379,1609505354328514,2954298339,-0.970144,-0.031232,-0.099552,-1.81125,24.59625,-5.90625,16.816,12.84,25.776001,concentric,4,3.0,73936.0,257523.0,142465.0,255116.0,157401.0
2026-04-14 17:31:00.638527,344380,1609505354342995,2954313235,-1.091168,-0.031232,-0.085888,-5.94125,23.87,-6.58,17.632,12.392,24.960001,concentric,4,3.0,73936.0,257523.0,142465.0,255116.0,157401.0
2026-04-14 17:31:00.666159,344391,1609505354352079,2954322319,-1.091168,-0.031232,-0.085888,-11.64625,22.56625,-6.97375,17.632,12.392,24.960001,concentric,4,3.0,72172.0,259125.0,140127.0,256225.0,155014.0
2026-04-14 17:31:00.668655,344392,1609505354361148,2954331035,-1.061888,-0.085888,-0.0976,-13.99125,21.4375,-5.81875,17.704,12.440001,24.840002,concentric,4,3.0,72172.0,259125.0,140127.0,256225.0,155014.0
2026-04-14 17:31:00.671141,344393,1609505354375733,2954345897,-1.061888,-0.085888,-0.0976,-13.92125,21.55125,-4.47125,17.704,12.440001,24.840002,concentric,4,3.0,72172.0,259125.0,140127.0,256225.0,155014.0
2026-04-14 17:31:00.679906,344394,1609505354384744,2954354591,-1.00528,-0.01952,0.1464,-12.3725,21.77,-4.22625,17.768002,12.776001,24.864,concentric,4,3.0,72172.0,259125.0,140127.0,256225.0,155014.0
2026-04-14 17:31:00.693291,344395,1609505354399214,2954369484,-1.097024,-0.044896,-0.130784,-12.38125,21.210001,-5.495,16.584002,12.536,25.056002,concentric,4,3.0,72172.0,259125.0,140127.0,256225.0,155014.0
2026-04-14 17:31:00.703281,344396,1609505354408130,2954378151,-1.097024,-0.044896,-0.130784,-10.43,20.22125,-6.23875,16.584002,12.536,25.056002,concentric,4,3.0,72172.0,259125.0,140127.0,256225.0,155014.0
2026-04-14 17:31:00.715976,344397,1609505354422609,2954390990,-1.079456,-0.083936,-0.140544,-6.65,18.78625,-7.0875,17.248001,12.608001,24.640001,concentric,4,3.0,72172.0,259125.0,140127.0,256225.0,155014.0
2026-04-14 17:31:00.724833,344398,1609505354431795,2954401813,-1.079456,-0.083936,-0.140544,-5.11875,16.63375,-7.42875,17.248001,12.608001,24.640001,concentric,4,3.0,72172.0,259125.0,140127.0,256225.0,155014.0
2026-04-14 17:31:00.779921,344399,1609505354440733,2954410505,-1.120448,-0.017568,-0.064416,-3.49125,14.65625,-5.18,16.2,12.76,25.28,concentric,4,3.0,72172.0,259125.0,140127.0,256225.0,155014.0
2026-04-14 17:31:00.809316,344410,1609505354455280,2954425486,-1.120448,-0.017568,-0.064416,-3.85875,14.28875,-2.79125,16.2,12.76,25.28,concentric,4,3.0,71433.0,259969.0,139565.0,256683.0,154073.0
2026-04-14 17:31:00.812272,344411,1609505354464206,2954434143,-1.007232,-0.050752,0.0488,-10.28125,14.34125,-2.02125,15.664001,12.288,24.896002,concentric,4,3.0,71433.0,259969.0,139565.0,256683.0,154073.0
2026-04-14 17:31:00.814446,344412,1609505354478655,2954447027,-1.007232,-0.064416,-0.124928,-18.165,15.37375,-2.345,15.664001,12.288,22.848001,concentric,4,3.0,71433.0,259969.0,139565.0,256683.0,154073.0
2026-04-14 17:31:00.817095,344413,1609505354487865,2954457759,-1.126304,-0.064416,-0.124928,-19.99375,17.00125,-2.5025,15.776001,12.72,24.184002,concentric,4,3.0,71433.0,259969.0,139565.0,256683.0,154073.0
2026-04-14 17:31:00.819796,344414,1609505354496870,2954466451,-1.126304,-0.064416,-0.124928,-13.36125,18.57625,-4.03375,15.776001,12.72,24.184002,concentric,4,3.0,71433.0,259969.0,139565.0,256683.0,154073.0
2026-04-14 17:31:00.822366,344415,1609505354511385,2954481371,-0.991616,-0.089792,-0.130784,-3.19375,17.955,-5.81875,15.512001,12.168,23.44,concentric,4,3.0,71433.0,259969.0,139565.0,256683.0,154073.0
2026-04-14 17:31:00.824872,344416,1609505354520359,2954490099,-1.001376,-0.0488,-0.122976,1.95125,14.91,-6.265,15.832001,11.72,22.928001,concentric,4,3.0,71433.0,259969.0,139565.0,256683.0,154073.0
2026-04-14 17:31:00.828612,344417,1609505354534892,2954505031,-1.001376,-0.0488,-0.122976,-0.035,11.03375,-6.86875,15.832001,11.72,22.928001,concentric,4,3.0,71433.0,259969.0,139565.0,256683.0,154073.0
2026-04-14 17:31:00.837368,344418,1609505354543791,2954513710,-1.0736,0.007808,0.042944,-5.22375,7.875,-7.09625,15.904,12.288,22.064001,concentric,4,3.0,71433.0,259969.0,139565.0,256683.0,154073.0
2026-04-14 17:31:00.866109,344429,1609505354558334,2954528647,-1.0736,0.007808,0.042944,-10.56125,5.41625,-7.42,15.904,12.288,22.064001,concentric,4,3.0,68545.0,259304.0,135088.0,255584.0,149506.0
2026-04-14 17:31:00.868652,344430,1609505354567268,2954537391,-1.069696,-0.124928,-0.115168,-14.88375,3.045,-7.8575,15.352001,12.608001,22.912,concentric,4,3.0,68545.0,259304.0,135088.0,255584.0,149506.0
2026-04-14 17:31:00.871144,344431,1609505354576181,2954546077,-1.069696,-0.124928,-0.115168,-14.11375,1.75875,-7.0525,15.352001,12.608001,22.912,concentric,4,3.0,68545.0,259304.0,135088.0,255584.0,149506.0
2026-04-14 17:31:00.887490,344432,1609505354590666,2954560941,-1.095072,-0.12688,-0.109312,-4.3575,1.18125,-4.85625,15.144001,12.712001,22.776001,concentric,4,3.0,68545.0,259304.0,135088.0,255584.0,149506.0
2026-04-14 17:31:00.894661,344433,1609505354599593,2954569566,-1.065792,-0.132736,-0.232288,7.00875,0.58625,-2.38,15.144001,10.664001,20.448002,concentric,4,3.0,68545.0,259304.0,135088.0,255584.0,149506.0
2026-04-14 17:31:00.908296,344434,1609505354614111,2954584439,-1.065792,-0.132736,-0.232288,11.4625,-1.70625,1.3825,16.08,11.752001,20.448002,concentric,4,3.0,68545.0,259304.0,135088.0,255584.0,149506.0
2026-04-14 17:31:00.918539,344435,1609505354623136,2954593119,-1.077504,-0.062464,-0.007808,6.41375,-5.145,5.8275,17.0,11.72,19.904001,concentric,4,3.0,68545.0,259304.0,135088.0,255584.0,149506.0
2026-04-14 17:31:00.931165,344436,1609505354637620,2954605966,-1.077504,-0.062464,-0.007808,-0.84875,-8.47,8.86375,17.0,11.72,19.904001,concentric,4,3.0,68545.0,259304.0,135088.0,255584.0,149506.0
2026-04-14 17:31:00.941392,344437,1609505354646748,2954616755,-1.114592,-0.066368,-0.16592,-5.13625,-9.52,9.14375,17.536001,11.8,19.504002,concentric,4,3.0,68545.0,259304.0,135088.0,255584.0,149506.0
2026-04-14 17:31:00.968656,344448,1609505354655712,2954625484,-1.114592,-0.066368,-0.16592,-7.4375,-10.17625,8.1025,17.536001,11.8,19.504002,concentric,4,3.0,60737.0,253510.0,122876.0,250519.0,137599.0
2026-04-14 17:31:00.973494,344449,1609505354670226,2954640462,-1.136064,-0.033184,-0.189344,-7.25375,-8.8025,7.34125,17.072,12.360001,20.536001,concentric,4,3.0,60737.0,253510.0,122876.0,250519.0,137599.0
2026-04-14 17:31:00.973918,344450,1609505354679148,2954649134,-1.136064,-0.033184,-0.189344,-3.9025,-6.1425,6.685,17.072,12.360001,20.536001,concentric,4,3.0,60737.0,253510.0,122876.0,250519.0,137599.0
2026-04-14 17:31:00.984329,344451,1609505354693667,2954662029,-1.030656,-0.011712,0.06832,-1.61,-3.68375,5.3025,17.464,12.000001,21.576,concentric,4,3.0,60737.0,253510.0,122876.0,250519.0,137599.0
2026-04-14 17:31:00.997233,344452,1609505354702957,2954672778,-1.106784,0.021472,0.033184,-5.2675,-1.1725,2.3275,18.232,12.248,19.336,concentric,4,3.0,60737.0,253510.0,122876.0,250519.0,137599.0
2026-04-14 17:31:01.006086,344453,1609505354712172,2954681791,-1.106784,0.021472,0.033184,-12.73125,1.49625,-0.4025,18.232,12.248,19.336,concentric,4,3.0,60737.0,253510.0,122876.0,250519.0,137599.0
2026-04-14 17:31:01.022004,344454,1609505354726876,2954696789,-1.087264,-0.056608,-0.007808,-16.6075,3.605,-3.28125,19.408,12.424001,19.024,concentric,4,3.0,60737.0,253510.0,122876.0,250519.0,137599.0
2026-04-14 17:31:01.029312,344455,1609505354735821,2954705462,-1.087264,-0.056608,-0.007808,-17.15,4.96125,-6.0725,19.408,12.424001,19.024,concentric,4,3.0,60737.0,253510.0,122876.0,250519.0,137599.0
2026-04-14 17:31:01.067364,344466,1609505354751112,2954720844,-1.056032,-0.101504,-0.037088,-16.45,4.9525,-7.1225,19.856,12.672001,19.28,concentric,4,3.0,58324.0,252287.0,118779.0,249181.0,133594.0
2026-04-14 17:31:01.069367,344467,1609505354760423,2954729805,-1.056032,-0.101504,0.021472,-10.01875,4.31375,-5.97625,19.856,12.672001,19.28,concentric,4,3.0,58324.0,252287.0,118779.0,249181.0,133594.0
2026-04-14 17:31:01.076449,344468,1609505354769416,2954738481,-1.001376,-0.0976,0.021472,-3.78875,4.095,-4.48,19.496,12.736001,22.2,concentric,4,3.0,58324.0,252287.0,118779.0,249181.0,133594.0
2026-04-14 17:31:01.078050,344469,1609505354783952,2954753385,-1.167296,-0.017568,-0.134688,-4.69,4.29625,-2.42375,19.68,13.328001,21.328001,concentric,4,3.0,58324.0,252287.0,118779.0,249181.0,133594.0
2026-04-14 17:31:01.085620,344470,1609505354792903,2954762069,-1.167296,-0.017568,-0.134688,-7.93625,3.6925,-1.11125,19.68,13.328001,21.328001,concentric,4,3.0,58324.0,252287.0,118779.0,249181.0,133594.0
2026-04-14 17:31:01.101064,344471,1609505354807372,2954776925,-1.042368,-0.02928,-0.183488,-6.72,3.94625,-0.4025,21.400002,12.664001,20.36,concentric,4,3.0,58324.0,252287.0,118779.0,249181.0,133594.0
2026-04-14 17:31:01.125732,344472,1609505354816277,2954785661,-1.042368,-0.02928,-0.183488,-9.17,3.64875,-0.02625,21.400002,12.664001,20.36,concentric,4,3.0,58324.0,252287.0,118779.0,249181.0,133594.0
2026-04-14 17:31:01.151144,344473,1609505354825193,2954794329,-0.993568,-0.115168,-0.031232,-15.47,3.38625,0.32375,21.824001,12.992001,20.216002,concentric,4,3.0,58324.0,252287.0,118779.0,249181.0,133594.0
2026-04-14 17:31:01.156153,344474,1609505354839649,2954809269,-0.993568,-0.115168,-0.031232,-16.21375,3.96375,0.93625,21.824001,12.992001,20.216002,concentric,4,3.0,58324.0,252287.0,118779.0,249181.0,133594.0
2026-04-14 17:31:01.183157,344485,1609505354848550,2954818572,-0.960384,-0.050752,-0.01952,-11.1825,6.13375,0.35,22.104002,12.704,19.208,concentric,4,3.0,59608.0,254281.0,121146.0,250465.0,135925.0
2026-04-14 17:31:01.186029,344486,1609505354863013,2954831412,-1.114592,0.046848,-0.187392,-7.8575,8.05875,-1.4525,22.624,13.048,21.768002,concentric,4,3.0,59608.0,254281.0,121146.0,250465.0,135925.0
2026-04-14 17:31:01.211080,344487,1609505354872272,2954842306,-1.114592,0.046848,-0.187392,-6.8425,9.0125,-2.80875,22.624,13.048,21.768002,concentric,4,3.0,59608.0,254281.0,121146.0,250465.0,135925.0
2026-04-14 17:31:01.220702,344488,1609505354886778,2954855184,-1.011136,-0.080032,-0.128832,-13.29125,8.91625,-4.62,22.800001,13.712001,21.312,concentric,4,3.0,59608.0,254281.0,121146.0,250465.0,135925.0
2026-04-14 17:31:01.223641,344489,1609505354896050,2954865937,-1.011136,-0.080032,-0.128832,-23.178751,7.6825,-5.46,22.800001,13.712001,21.312,concentric,4,3.0,59608.0,254281.0,121146.0,250465.0,135925.0
2026-04-14 17:31:01.225732,344490,1609505354904989,2954874612,-1.042368,-0.11712,-0.042944,-24.99875,8.085,-5.18,22.672,13.616,21.880001,concentric,4,3.0,59608.0,254281.0,121146.0,250465.0,135925.0
2026-04-14 17:31:01.228638,344491,1609505354919438,2954889510,-1.042368,-0.11712,-0.042944,-17.17625,10.6225,-6.055,22.672,13.616,21.880001,concentric,4,3.0,59608.0,254281.0,121146.0,250465.0,135925.0
2026-04-14 17:31:01.231132,344492,1609505354928337,2954898193,-1.145824,-0.003904,-0.173728,-3.92,13.32625,-7.35,23.096,13.624001,19.688002,concentric,4,3.0,59608.0,254281.0,121146.0,250465.0,135925.0
2026-04-14 17:31:01.237248,344493,1609505354942807,2954913087,-1.077504,0.027328,-0.163968,6.86,14.58625,-8.636251,23.072,14.040001,19.416,concentric,4,3.0,59608.0,254281.0,121146.0,250465.0,135925.0
2026-04-14 17:31:01.268072,344504,1609505354952131,2954921842,-1.077504,0.027328,-0.163968,5.53875,13.67625,-10.66625,23.072,14.040001,19.416,concentric,4,3.0,61879.0,257462.0,124831.0,253266.0,139404.0
2026-04-14 17:31:01.270531,344505,1609505354961208,2954930586,-1.077504,0.027328,-0.163968,-8.81125,11.27875,-10.92,23.072,14.040001,19.416,concentric,4,3.0,61879.0,257462.0,124831.0,253266.0,139404.0
2026-04-14 17:31:01.275167,344506,1609505354975761,2954945503,-1.14192,-0.10736,-0.203008,-21.84875,8.00625,-9.765,23.856,14.456,22.944,concentric,4,3.0,61879.0,257462.0,124831.0,253266.0,139404.0
2026-04-14 17:31:01.278162,344507,1609505354984726,2954954158,-1.1224,-0.140544,-0.031232,-21.735,6.685,-8.74125,23.000002,14.512001,23.688002,concentric,4,3.0,61879.0,257462.0,124831.0,253266.0,139404.0
2026-04-14 17:31:01.292232,344508,1609505354999274,2954969050,-1.1224,-0.140544,-0.031232,-10.2375,7.34125,-8.07625,23.000002,14.512001,23.688002,concentric,4,3.0,61879.0,257462.0,124831.0,253266.0,139404.0
2026-04-14 17:31:01.310448,344509,1609505355008176,2954977725,-1.23952,-0.005856,-0.212768,2.6775,8.88125,-7.63,24.800001,13.816001,21.296001,concentric,4,3.0,61879.0,257462.0,124831.0,253266.0,139404.0
2026-04-14 17:31:01.316945,344510,1609505355022654,2954992596,-1.221952,-0.003904,-0.081984,8.68,9.72125,-7.35,25.000002,13.872001,22.080002,concentric,4,3.0,61879.0,257462.0,124831.0,253266.0,139404.0
2026-04-14 17:31:01.324535,344511,1609505355031584,2955001293,-1.221952,-0.003904,-0.081984,2.30125,9.1,-7.83125,25.000002,13.872001,22.080002,concentric,4,3.0,61879.0,257462.0,124831.0,253266.0,139404.0
2026-04-14 17:31:01.334524,344512,1609505355040510,2955009971,-1.221952,-0.003904,-0.081984,-10.08875,8.417501,-8.18125,25.000002,13.872001,22.080002,concentric,4,3.0,61879.0,257462.0,124831.0,253266.0,139404.0
2026-04-14 17:31:01.373141,344523,1609505355055241,2955025016,-1.14192,-0.132736,-0.210816,-16.6075,8.23375,-7.49,24.968,14.424001,23.080002,concentric,4,3.0,62853.0,261473.0,125685.0,256339.0,140431.0
2026-04-14 17:31:01.375567,344524,1609505355064345,2955033760,-1.165344,-0.0976,-0.062464,-11.20875,9.42375,-7.62125,24.216002,14.384001,22.720001,concentric,4,3.0,62853.0,261473.0,125685.0,256339.0,140431.0
2026-04-14 17:31:01.378227,344525,1609505355079300,2955048733,-1.165344,-0.0976,-0.062464,-1.72375,9.91375,-8.435,24.216002,14.384001,22.720001,concentric,4,3.0,62853.0,261473.0,125685.0,256339.0,140431.0
2026-04-14 17:31:01.381985,344526,1609505355088494,2955057416,-1.198528,-0.040992,-0.240096,2.93125,9.73875,-8.6625,24.144001,14.696001,23.728,concentric,4,3.0,62853.0,261473.0,125685.0,256339.0,140431.0
2026-04-14 17:31:01.389456,344527,1609505355097433,2955066134,-1.198528,-0.040992,-0.240096,0.00875,8.085,-8.8725,24.144001,14.696001,23.728,concentric,4,3.0,62853.0,261473.0,125685.0,256339.0,140431.0
2026-04-14 17:31:01.404559,344528,1609505355112278,2955081023,-1.25904,-0.07808,-0.265472,-9.948751,6.06375,-9.49375,24.28,15.144001,23.44,concentric,4,3.0,62853.0,261473.0,125685.0,256339.0,140431.0
2026-04-14 17:31:01.415792,344529,1609505355121570,2955091753,-1.25904,-0.07808,-0.265472,-19.83625,4.2525,-10.2725,24.28,15.144001,23.44,concentric,4,3.0,62853.0,261473.0,125685.0,256339.0,140431.0
2026-04-14 17:31:01.424574,344530,1609505355130518,2955100466,-1.20048,-0.1952,-0.140544,-22.07625,3.4825,-9.26625,25.472002,14.656001,22.968,concentric,4,3.0,62853.0,261473.0,125685.0,256339.0,140431.0
2026-04-14 17:31:01.437029,344531,1609505355145025,2955113407,-1.319552,-0.160064,-0.226432,-12.69625,4.20875,-7.21,25.112001,14.744,22.296001,concentric,4,3.0,62853.0,261473.0,125685.0,256339.0,140431.0
2026-04-14 17:31:01.493227,344542,1609505355155025,2955124716,-1.319552,-0.160064,-0.226432,1.05,6.16875,-6.15125,25.112001,14.744,22.296001,concentric,4,3.0,66190.0,266729.0,130725.0,260855.0,145476.0
2026-04-14 17:31:01.514597,344543,1609505355169555,2955139617,-1.305888,-0.03904,-0.255712,11.82125,7.93625,-5.15375,25.464,14.736001,22.288,concentric,4,3.0,66190.0,266729.0,130725.0,260855.0,145476.0
2026-04-14 17:31:01.517091,344544,1609505355178485,2955148294,-1.305888,-0.03904,-0.255712,14.39375,8.58375,-4.82125,25.464,14.736001,22.288,concentric,4,3.0,66190.0,266729.0,130725.0,260855.0,145476.0
2026-04-14 17:31:01.519508,344545,1609505355187404,2955156982,-1.325408,-0.007808,-0.216672,8.5925,7.35875,-5.67,25.856,14.408001,22.568,concentric,4,3.0,66190.0,266729.0,130725.0,260855.0,145476.0
2026-04-14 17:31:01.527079,344546,1609505355201865,2955171849,-1.325408,-0.007808,-0.216672,-1.86375,4.9175,-7.79625,25.856,14.408001,22.568,concentric,4,3.0,66190.0,266729.0,130725.0,260855.0,145476.0
2026-04-14 17:31:01.532088,344547,1609505355210765,2955180538,-1.301984,-0.173728,-0.324032,-13.2125,1.75,-9.135,25.656002,14.928,22.016,concentric,4,3.0,66190.0,266729.0,130725.0,260855.0,145476.0
2026-04-14 17:31:01.534835,344548,1609505355225262,2955195402,-1.354688,-0.1952,-0.13664,-20.37875,-1.0675,-8.00625,25.584002,14.824,22.072,concentric,4,3.0,66190.0,266729.0,130725.0,260855.0,145476.0
2026-04-14 17:31:01.537396,344549,1609505355234318,2955204130,-1.354688,-0.1952,-0.13664,-15.70625,-2.00375,-4.69,25.584002,14.824,22.072,concentric,4,3.0,66190.0,266729.0,130725.0,260855.0,145476.0
2026-04-14 17:31:01.543761,344550,1609505355248801,2955219035,-1.350784,-0.109312,-0.15616,-4.40125,-1.155,-3.01,24.536001,15.224001,23.776001,concentric,4,3.0,66190.0,266729.0,130725.0,260855.0,145476.0
2026-04-14 17:31:01.574250,344561,1609505355257883,2955227842,-1.350784,-0.109312,-0.15616,5.8625,0.25375,-2.0825,24.536001,15.224001,23.776001,eccentric,4,3.0,68437.0,268840.0,134351.0,262926.0,148973.0
2026-04-14 17:31:01.577118,344562,1609505355266864,2955236551,-1.368352,-0.025376,-0.091744,6.8075,0.21875,-0.88375,25.416,14.744,23.176,eccentric,4,3.0,68437.0,268840.0,134351.0,262926.0,148973.0
2026-04-14 17:31:01.578065,344563,1609505355281344,2955251435,-1.368352,-0.025376,-0.091744,2.45,-1.02375,-0.20125,25.416,14.744,23.176,eccentric,4,3.0,68437.0,268840.0,134351.0,262926.0,148973.0
2026-04-14 17:31:01.589883,344564,1609505355290308,2955260145,-1.272704,-0.130784,-0.189344,-3.73625,-2.21375,-1.09375,25.2,15.128,23.424002,eccentric,4,3.0,68437.0,268840.0,134351.0,262926.0,148973.0
2026-04-14 17:31:01.598263,344565,1609505355304855,2955275103,-1.301984,-0.152256,-0.0976,-8.82875,-4.34875,-1.75,24.76,14.832001,24.68,eccentric,4,3.0,68437.0,268840.0,134351.0,262926.0,148973.0
2026-04-14 17:31:01.606947,344566,1609505355313802,2955283799,-1.301984,-0.152256,-0.0976,-7.20125,-5.24125,-1.645,24.76,14.832001,24.68,eccentric,4,3.0,68437.0,268840.0,134351.0,262926.0,148973.0
2026-04-14 17:31:01.620732,344567,1609505355328278,2955296629,-1.358592,-0.109312,-0.218624,-0.0525,-4.235,-0.3675,25.592001,14.632001,22.696001,eccentric,4,3.0,68437.0,268840.0,134351.0,262926.0,148973.0
2026-04-14 17:31:01.631819,344568,1609505355337447,2955307370,-1.358592,-0.109312,-0.218624,4.03375,-3.49125,0.0525,25.592001,14.632001,22.696001,eccentric,4,3.0,68437.0,268840.0,134351.0,262926.0,148973.0
2026-04-14 17:31:01.639271,344569,1609505355346356,2955316077,-1.341024,-0.042944,-0.06832,3.3775,-3.10625,-0.1575,25.248001,14.736001,22.720001,eccentric,4,3.0,68437.0,268840.0,134351.0,262926.0,148973.0
2026-04-14 17:31:01.672115,344580,1609505355360965,2955331028,-1.341024,-0.042944,-0.06832,3.1325,-2.275,-0.72625,25.248001,14.736001,22.720001,eccentric,4,3.0,70296.0,269858.0,136957.0,264037.0,151293.0
2026-04-14 17:31:01.674546,344581,1609505355369907,2955339788,-1.3176,-0.081984,-0.095648,0.21,-2.30125,-2.135,25.328001,14.904,22.592001,eccentric,4,3.0,70296.0,269858.0,136957.0,264037.0,151293.0
2026-04-14 17:31:01.679366,344582,1609505355384391,2955354656,-1.23952,-0.128832,-0.119072,-3.77125,-3.255,-2.625,25.328001,14.904,22.000002,eccentric,4,3.0,70296.0,269858.0,136957.0,264037.0,151293.0
2026-04-14 17:31:01.686900,344583,1609505355393379,2955363421,-1.247328,-0.128832,-0.119072,-4.0075,-4.47125,-1.8025,25.096,14.888001,22.000002,eccentric,4,3.0,70296.0,269858.0,136957.0,264037.0,151293.0
2026-04-14 17:31:01.695344,344584,1609505355402352,2955372141,-1.247328,-0.128832,-0.119072,-0.525,-4.515,-1.14625,25.096,14.888001,22.000002,eccentric,4,3.0,70296.0,269858.0,136957.0,264037.0,151293.0
2026-04-14 17:31:01.710689,344585,1609505355416829,2955387022,-1.323456,-0.081984,-0.177632,1.0325,-4.725,-1.26,24.472002,14.64,22.544,eccentric,4,3.0,70296.0,269858.0,136957.0,264037.0,151293.0
2026-04-14 17:31:01.726796,344586,1609505355425771,2955395698,-1.27856,-0.109312,-0.1952,0.44625,-5.11875,-0.28,24.304,15.112,24.672,eccentric,4,3.0,70296.0,269858.0,136957.0,264037.0,151293.0
2026-04-14 17:31:01.737533,344587,1609505355440271,2955408633,-1.27856,-0.109312,-0.1952,-0.86625,-5.69625,-0.44625,24.304,15.112,24.672,eccentric,4,3.0,70296.0,269858.0,136957.0,264037.0,151293.0
2026-04-14 17:31:01.743126,344588,1609505355449456,2955419375,-1.282464,-0.138592,-0.31232,-2.135,-7.23625,-0.735,24.904001,14.504001,22.752,eccentric,4,3.0,70296.0,269858.0,136957.0,264037.0,151293.0
2026-04-14 17:31:01.775663,344599,1609505355464044,2955432589,-1.282464,-0.138592,-0.31232,-2.96625,-9.05625,0.34125,24.904001,14.504001,22.752,eccentric,4,3.0,69600.0,268764.0,135846.0,262946.0,150220.0
2026-04-14 17:31:01.778405,344600,1609505355473560,2955443449,-1.20048,-0.10736,0.0,-2.21375,-10.36,1.75,24.112001,15.032001,22.704,eccentric,4,3.0,69600.0,268764.0,135846.0,262946.0,150220.0
2026-04-14 17:31:01.780855,344601,1609505355482488,2955452268,-1.20048,-0.10736,0.0,0.70875,-11.7075,2.8525,24.112001,15.032001,22.704,eccentric,4,3.0,69600.0,268764.0,135846.0,262946.0,150220.0
2026-04-14 17:31:01.790619,344602,1609505355496981,2955467175,-1.30784,-0.064416,-0.167872,2.02125,-12.48625,2.96625,23.728,14.632001,23.240002,eccentric,4,3.0,69600.0,268764.0,135846.0,262946.0,150220.0
2026-04-14 17:31:01.799906,344603,1609505355505932,2955475854,-1.311744,-0.042944,-0.169824,1.47,-12.55625,2.89625,23.376001,14.400001,21.240002,eccentric,4,3.0,69600.0,268764.0,135846.0,262946.0,150220.0
2026-04-14 17:31:01.817405,344604,1609505355520399,2955490755,-1.311744,-0.042944,-0.169824,0.2625,-12.3375,1.925,23.376001,14.400001,21.240002,eccentric,4,3.0,69600.0,268764.0,135846.0,262946.0,150220.0
2026-04-14 17:31:01.824729,344605,1609505355529310,2955499489,-1.270752,-0.07808,-0.187392,0.105,-12.20625,0.0175,23.864,14.248001,21.960001,eccentric,4,3.0,69600.0,268764.0,135846.0,262946.0,150220.0
2026-04-14 17:31:01.853428,344606,1609505355538204,2955508156,-1.270752,-0.07808,-0.187392,1.12875,-12.4425,-0.62125,23.864,14.248001,21.960001,eccentric,4,3.0,69600.0,268764.0,135846.0,262946.0,150220.0
2026-04-14 17:31:01.878647,344607,1609505355552659,2955521004,-1.155584,-0.11712,-0.177632,3.12375,-13.08125,-0.37625,23.568,14.328001,23.424002,eccentric,4,3.0,69600.0,268764.0,135846.0,262946.0,150220.0
2026-04-14 17:31:01.930690,344618,1609505355561888,2955531858,-1.155584,-0.11712,-0.177632,5.52125,-12.6525,-0.93625,23.568,14.328001,23.424002,eccentric,4,3.0,72002.0,270004.0,139325.0,264229.0,153793.0
2026-04-14 17:31:01.933508,344619,1609505355576308,2955544686,-1.126304,-0.099552,-0.037088,5.57375,-12.573751,-0.70875,23.52,14.096001,21.544,eccentric,4,3.0,72002.0,270004.0,139325.0,264229.0,153793.0
2026-04-14 17:31:01.935611,344620,1609505355585481,2955555420,-1.126304,-0.046848,-0.003904,2.5725,-12.62625,-1.11125,23.52,14.096001,21.544,eccentric,4,3.0,72002.0,270004.0,139325.0,264229.0,153793.0
2026-04-14 17:31:01.938094,344621,1609505355599936,2955568294,-1.192672,-0.046848,-0.003904,0.18375,-12.792501,-1.47,23.472002,13.848001,20.632002,eccentric,4,3.0,72002.0,270004.0,139325.0,264229.0,153793.0
2026-04-14 17:31:01.941003,344622,1609505355609094,2955579012,-1.196576,-0.091744,-0.138592,0.48125,-13.69375,-2.03875,23.04,13.768001,20.736,eccentric,4,3.0,72002.0,270004.0,139325.0,264229.0,153793.0
2026-04-14 17:31:01.943187,344623,1609505355618111,2955587750,-1.196576,-0.091744,-0.138592,2.345,-14.8575,-2.44125,23.04,13.768001,20.736,eccentric,4,3.0,72002.0,270004.0,139325.0,264229.0,153793.0
2026-04-14 17:31:01.945639,344624,1609505355632582,2955602654,-1.095072,-0.12688,-0.144448,7.5425,-16.10875,-1.47,22.768002,13.576,20.552,eccentric,4,3.0,72002.0,270004.0,139325.0,264229.0,153793.0
2026-04-14 17:31:01.948277,344625,1609505355641505,2955611378,-1.095072,-0.12688,-0.144448,13.4225,-16.63375,-0.13125,22.768002,13.576,20.552,eccentric,4,3.0,72002.0,270004.0,139325.0,264229.0,153793.0
2026-04-14 17:31:01.975714,344636,1609505355657285,2955626418,-1.167296,-0.064416,-0.189344,15.225,-17.045,0.5775,22.344002,13.320001,20.512001,eccentric,4,3.0,73501.0,268707.0,141676.0,263557.0,156082.0
2026-04-14 17:31:01.978322,344637,1609505355666287,2955635163,-1.069696,-0.05856,-0.066368,12.215,-17.255,1.155,22.344002,13.152,21.816002,eccentric,4,3.0,73501.0,268707.0,141676.0,263557.0,156082.0
2026-04-14 17:31:01.981150,344638,1609505355675305,2955643991,-1.069696,-0.05856,-0.066368,7.9975,-16.35375,1.02375,22.464,13.152,21.816002,eccentric,4,3.0,73501.0,268707.0,141676.0,263557.0,156082.0
2026-04-14 17:31:01.983682,344639,1609505355690173,2955658915,-1.177056,-0.095648,-0.203008,2.1525,-15.51375,-0.35875,20.712002,13.272,21.328001,eccentric,4,3.0,73501.0,268707.0,141676.0,263557.0,156082.0
2026-04-14 17:31:01.993441,344640,1609505355699482,2955669719,-1.177056,-0.095648,-0.203008,-1.21625,-15.33,-1.33875,20.712002,13.272,21.328001,eccentric,4,3.0,73501.0,268707.0,141676.0,263557.0,156082.0
2026-04-14 17:31:02.003670,344641,1609505355708418,2955678384,-1.14192,-0.093696,-0.109312,0.77,-15.77625,-2.17,19.808,13.296001,20.968,eccentric,4,3.0,73501.0,268707.0,141676.0,263557.0,156082.0
2026-04-14 17:31:02.016804,344642,1609505355722883,2955691261,-1.14192,-0.093696,-0.109312,8.12875,-16.02125,-2.12625,19.808,13.296001,20.968,eccentric,4,3.0,73501.0,268707.0,141676.0,263557.0,156082.0
2026-04-14 17:31:02.025977,344643,1609505355732143,2955702050,-1.100928,-0.091744,-0.199104,14.69125,-16.1,-1.04125,20.160002,12.536,19.968,eccentric,4,3.0,73501.0,268707.0,141676.0,263557.0,156082.0
2026-04-14 17:31:02.041090,344644,1609505355746601,2955716922,-1.13216,-0.08784,-0.220576,16.00375,-16.14375,-0.21875,20.160002,12.536,20.088001,eccentric,4,3.0,73501.0,268707.0,141676.0,263557.0,156082.0
2026-04-14 17:31:02.075716,344655,1609505355755806,2955725547,-1.128256,-0.08784,-0.220576,11.8825,-17.14125,-0.21,19.304,12.928,20.088001,eccentric,4,3.0,72570.0,266118.0,140414.0,261668.0,154774.0
2026-04-14 17:31:02.078691,344656,1609505355764848,2955734313,-1.128256,-0.08784,-0.220576,7.21,-18.27875,-0.06125,19.304,12.928,20.088001,eccentric,4,3.0,72570.0,266118.0,140414.0,261668.0,154774.0
2026-04-14 17:31:02.081175,344657,1609505355779385,2955749215,-1.095072,-0.089792,0.0488,5.215,-19.52125,0.875,17.352001,13.112,22.432001,eccentric,4,3.0,72570.0,266118.0,140414.0,261668.0,154774.0
2026-04-14 17:31:02.083692,344658,1609505355788324,2955757933,-1.038464,-0.124928,-0.011712,6.08125,-20.1775,1.33875,15.792001,12.632001,22.616001,eccentric,4,3.0,72570.0,266118.0,140414.0,261668.0,154774.0
2026-04-14 17:31:02.096196,344659,1609505355802808,2955772926,-1.038464,-0.124928,-0.011712,10.64875,-20.7025,1.785,15.792001,12.632001,22.616001,eccentric,4,3.0,72570.0,266118.0,140414.0,261668.0,154774.0
2026-04-14 17:31:02.104959,344660,1609505355811713,2955781598,-1.087264,-0.050752,-0.046848,17.12375,-21.0875,2.3625,15.944001,11.792001,20.392,eccentric,4,3.0,72570.0,266118.0,140414.0,261668.0,154774.0
2026-04-14 17:31:02.121136,344661,1609505355826235,2955796501,-1.087264,-0.050752,-0.046848,20.76375,-22.75,2.2225,15.944001,11.792001,20.392,eccentric,4,3.0,72570.0,266118.0,140414.0,261668.0,154774.0
2026-04-14 17:31:02.132355,344662,1609505355835210,2955805219,-1.013088,-0.03904,0.044896,18.83875,-24.14125,2.695,16.032001,11.584001,20.792002,eccentric,4,3.0,72570.0,266118.0,140414.0,261668.0,154774.0
2026-04-14 17:31:02.138280,344663,1609505355844143,2955813925,-1.013088,-0.03904,0.044896,15.3125,-25.03375,2.70375,16.032001,11.584001,20.792002,eccentric,4,3.0,72570.0,266118.0,140414.0,261668.0,154774.0
2026-04-14 17:31:02.172338,344674,1609505355859064,2955828943,-1.13216,-0.037088,-0.119072,12.2675,-24.9375,2.44125,14.848001,11.504001,21.28,eccentric,4,3.0,71275.0,262365.0,138755.0,259108.0,153067.0
2026-04-14 17:31:02.174834,344675,1609505355868003,2955837731,-1.128256,-0.089792,-0.150304,7.7875,-24.0975,1.225,14.136001,11.592001,22.160002,eccentric,4,3.0,71275.0,262365.0,138755.0,259108.0,153067.0
2026-04-14 17:31:02.176918,344676,1609505355882604,2955852645,-1.128256,-0.089792,-0.150304,6.1075,-24.08,0.4025,14.136001,11.592001,22.160002,eccentric,4,3.0,71275.0,262365.0,138755.0,259108.0,153067.0
2026-04-14 17:31:02.186135,344677,1609505355891547,2955861353,-0.989664,-0.13664,-0.089792,8.575,-23.31,1.2075,12.976001,11.736001,23.608002,eccentric,4,3.0,71275.0,262365.0,138755.0,259108.0,153067.0
2026-04-14 17:31:02.195374,344678,1609505355900546,2955870093,-0.989664,-0.13664,-0.089792,13.545,-22.54,1.46125,12.976001,11.736001,23.608002,eccentric,4,3.0,71275.0,262365.0,138755.0,259108.0,153067.0
2026-04-14 17:31:02.228624,344679,1609505355915026,2955885029,-1.00528,-0.052704,0.06832,16.77375,-22.995,2.275,12.544001,11.320001,23.112001,eccentric,4,3.0,71275.0,262365.0,138755.0,259108.0,153067.0
2026-04-14 17:31:02.254001,344680,1609505355923947,2955893701,-1.00528,-0.052704,0.06832,19.1275,-23.49375,3.77125,12.544001,11.320001,23.112001,eccentric,4,3.0,71275.0,262365.0,138755.0,259108.0,153067.0
2026-04-14 17:31:02.268575,344681,1609505355938429,2955908616,-1.040416,-0.003904,0.11712,17.5875,-22.785,3.9725,12.912001,11.488001,23.664001,eccentric,4,3.0,71275.0,262365.0,138755.0,259108.0,153067.0
2026-04-14 17:31:02.271142,344682,1609505355947341,2955917325,-1.040416,-0.003904,-0.132736,10.605001,-22.303751,2.835,12.912001,11.488001,23.664001,eccentric,4,3.0,71275.0,262365.0,138755.0,259108.0,153067.0
2026-04-14 17:31:02.298123,344693,1609505355961861,2955930253,-1.147776,-0.044896,-0.132736,5.27625,-21.90125,2.00375,12.480001,11.200001,23.336,eccentric,4,3.0,65909.0,254359.0,131058.0,252559.0,145388.0
2026-04-14 17:31:02.301410,344694,1609505355971157,2955941047,-1.042368,-0.119072,-0.152256,4.69875,-21.455,1.5575,12.200001,11.592001,24.696001,eccentric,4,3.0,65909.0,254359.0,131058.0,252559.0,145388.0
2026-04-14 17:31:02.304263,344695,1609505355980110,2955949732,-1.042368,-0.119072,-0.152256,8.1025,-22.09375,1.33,12.200001,11.592001,24.696001,eccentric,4,3.0,65909.0,254359.0,131058.0,252559.0,145388.0
2026-04-14 17:31:02.305462,344696,1609505355994639,2955964619,-1.016992,-0.080032,-0.023424,12.38125,-22.0325,2.5725,12.376,11.256001,25.552002,eccentric,4,3.0,65909.0,254359.0,131058.0,252559.0,145388.0
2026-04-14 17:31:02.308145,344697,1609505356003578,2955973301,-1.016992,-0.080032,-0.023424,15.8375,-20.9825,3.78875,12.376,11.256001,25.552002,eccentric,4,3.0,65909.0,254359.0,131058.0,252559.0,145388.0
2026-04-14 17:31:02.310528,344698,1609505356018059,2955988243,-0.991616,-0.033184,0.017568,18.92625,-17.64875,3.08875,12.584001,10.976001,25.984001,eccentric,4,3.0,65909.0,254359.0,131058.0,252559.0,145388.0
2026-04-14 17:31:02.321167,344699,1609505356027069,2955996937,-0.991616,-0.033184,0.017568,17.71875,-14.4025,0.735,12.584001,10.976001,25.984001,eccentric,4,3.0,65909.0,254359.0,131058.0,252559.0,145388.0
2026-04-14 17:31:02.336041,344700,1609505356041547,2956011811,-1.138016,0.060512,0.099552,10.47375,-13.09,-1.58375,12.872001,11.144,25.968,eccentric,4,3.0,65909.0,254359.0,131058.0,252559.0,145388.0
2026-04-14 17:31:02.344406,344701,1609505356050549,2956020486,-0.997472,-0.046848,-0.113216,3.85875,-13.886251,-2.66,13.352,11.248,26.424002,eccentric,4,3.0,65909.0,254359.0,131058.0,252559.0,145388.0
2026-04-14 17:31:02.375003,344712,1609505356059488,2956029275,-0.997472,-0.046848,-0.113216,-2.59875,-15.91625,-3.10625,13.352,11.248,26.424002,eccentric,4,3.0,60142.0,245878.0,122177.0,245151.0,136769.0
2026-04-14 17:31:02.376893,344713,1609505356074039,2956044249,-1.016992,-0.111264,-0.08784,-5.1625,-18.6375,-3.21125,12.616,11.360001,27.976002,eccentric,4,3.0,60142.0,245878.0,122177.0,245151.0,136769.0
2026-04-14 17:31:02.379882,344714,1609505356082960,2956052982,-1.016992,-0.111264,-0.08784,-3.50875,-21.46375,-0.72625,12.616,11.360001,27.976002,eccentric,4,3.0,60142.0,245878.0,122177.0,245151.0,136769.0
2026-04-14 17:31:02.391130,344715,1609505356097451,2956065819,-0.993568,-0.085888,0.091744,1.1725,-23.1875,2.415,12.904,11.768001,26.896002,eccentric,4,3.0,60142.0,245878.0,122177.0,245151.0,136769.0
2026-04-14 17:31:02.401545,344716,1609505356106662,2956076603,-0.993568,-0.085888,0.091744,9.4675,-23.82625,5.4775,12.904,11.768001,26.896002,eccentric,4,3.0,60142.0,245878.0,122177.0,245151.0,136769.0
2026-04-14 17:31:02.408472,344717,1609505356115588,2956085289,-0.921344,0.023424,0.203008,14.86625,-23.7125,8.56625,13.704,11.208,28.048002,eccentric,4,3.0,60142.0,245878.0,122177.0,245151.0,136769.0
2026-04-14 17:31:02.424924,344718,1609505356130067,2956100187,-0.948672,-0.025376,-0.03904,11.45375,-24.22875,10.47375,14.048,11.104,27.032001,eccentric,4,3.0,60142.0,245878.0,122177.0,245151.0,136769.0
2026-04-14 17:31:02.433589,344719,1609505356138991,2956108858,-0.948672,-0.025376,-0.03904,2.14375,-24.08,11.025,14.048,11.104,27.032001,eccentric,4,3.0,60142.0,245878.0,122177.0,245151.0,136769.0
2026-04-14 17:31:02.448693,344720,1609505356153559,2956123715,-0.921344,-0.085888,0.122976,-2.9925,-23.98375,12.215,14.072001,11.376,27.080002,eccentric,4,3.0,60142.0,245878.0,122177.0,245151.0,136769.0
2026-04-14 17:31:02.504731,344731,1609505356163833,2956133156,-0.921344,-0.085888,0.122976,-2.1,-23.79125,13.55375,14.072001,11.376,27.080002,eccentric,4,3.0,63345.0,245206.0,126873.0,244868.0,141901.0
2026-04-14 17:31:02.504969,344732,1609505356172831,2956141900,-0.85888,-0.060512,0.081984,6.195,-22.91625,14.875,14.232,10.984,27.080002,eccentric,4,3.0,63345.0,245206.0,126873.0,244868.0,141901.0
2026-04-14 17:31:02.506872,344733,1609505356187309,2956156795,-0.85888,-0.060512,0.081984,17.5875,-23.03,15.7675,14.232,10.984,27.080002,eccentric,4,3.0,63345.0,245206.0,126873.0,244868.0,141901.0
2026-04-14 17:31:02.509397,344734,1609505356196257,2956165469,-0.954528,0.101504,-0.023424,22.33875,-23.66,16.2225,13.912001,10.76,26.624,eccentric,4,3.0,63345.0,245206.0,126873.0,244868.0,141901.0
2026-04-14 17:31:02.512008,344735,1609505356210836,2956180362,-0.812032,0.011712,0.216672,15.56625,-25.9,16.5025,13.752001,10.744,26.160002,eccentric,4,3.0,63345.0,245206.0,126873.0,244868.0,141901.0
2026-04-14 17:31:02.514838,344736,1609505356219756,2956189062,-0.812032,0.011712,0.216672,-0.32375,-27.43125,16.68625,13.752001,10.744,26.160002,eccentric,4,3.0,63345.0,245206.0,126873.0,244868.0,141901.0
2026-04-14 17:31:02.521103,344737,1609505356228716,2956197804,-0.812032,0.011712,0.216672,-13.4225,-27.685,17.4125,13.752001,10.744,26.160002,eccentric,4,3.0,63345.0,245206.0,126873.0,244868.0,141901.0
2026-04-14 17:31:02.537447,344738,1609505356243238,2956212704,-0.993568,-0.1464,0.007808,-9.42375,-27.0025,18.935,13.848001,10.848001,25.808,eccentric,4,3.0,63345.0,245206.0,126873.0,244868.0,141901.0
2026-04-14 17:31:02.545854,344739,1609505356252164,2956221385,-0.948672,0.015616,-0.017568,10.96375,-28.5425,20.88625,13.616,10.544001,27.352001,eccentric,4,3.0,63345.0,245206.0,126873.0,244868.0,141901.0
2026-04-14 17:31:02.619776,344750,1609505356267089,2956236345,-0.948672,0.015616,-0.017568,29.77625,-33.34625,22.303751,13.616,10.544001,27.352001,eccentric,4,3.0,61738.0,243851.0,124859.0,243234.0,140193.0
2026-04-14 17:31:02.621796,344751,1609505356275993,2956245127,-0.808128,0.134688,0.17568,31.01,-36.28625,21.81375,12.592001,10.376,27.592001,eccentric,4,3.0,61738.0,243851.0,124859.0,243234.0,140193.0
2026-04-14 17:31:02.624827,344752,1609505356290475,2956260095,-0.870592,-0.003904,0.115168,14.77,-37.68625,20.6675,12.448001,10.320001,28.328001,eccentric,4,3.0,61738.0,243851.0,124859.0,243234.0,140193.0
2026-04-14 17:31:02.626775,344753,1609505356299391,2956268777,-0.870592,-0.003904,0.115168,-3.89375,-37.12625,19.78375,12.448001,10.320001,28.328001,eccentric,4,3.0,61738.0,243851.0,124859.0,243234.0,140193.0
2026-04-14 17:31:02.629767,344754,1609505356308387,2956277457,-0.870592,-0.003904,0.115168,-9.42375,-35.27125,17.9375,12.448001,10.320001,28.328001,eccentric,4,3.0,61738.0,243851.0,124859.0,243234.0,140193.0
2026-04-14 17:31:02.632253,344755,1609505356322833,2956292345,-0.864736,0.0488,0.173728,0.7,-31.491251,15.79375,11.936001,10.080001,27.672,eccentric,4,3.0,61738.0,243851.0,124859.0,243234.0,140193.0
2026-04-14 17:31:02.634820,344756,1609505356331807,2956301048,-0.7808,0.183488,0.271328,15.04125,-27.0725,12.95,11.528001,10.120001,25.392002,eccentric,4,3.0,61738.0,243851.0,124859.0,243234.0,140193.0
2026-04-14 17:31:02.641047,344757,1609505356346354,2956315949,-0.7808,0.183488,0.271328,20.755,-20.09,8.75,11.528001,10.120001,25.392002,eccentric,4,3.0,61738.0,243851.0,124859.0,243234.0,140193.0
2026-04-14 17:31:02.648665,344758,1609505356355297,2956324641,-0.9272,0.124928,0.181536,13.39625,-15.44375,3.08,12.648001,10.288,27.864002,eccentric,4,3.0,61738.0,243851.0,124859.0,243234.0,140193.0
2026-04-14 17:31:02.680526,344769,1609505356369905,2956339765,-0.9272,0.124928,0.181536,0.81375,-13.74625,-0.9975,12.648001,10.288,27.864002,eccentric,4,3.0,75480.0,257812.0,143505.0,251726.0,158052.0
2026-04-14 17:31:02.685533,344770,1609505356378887,2956348486,-0.827648,-0.007808,0.220576,-6.615,-12.85375,-2.77375,12.368001,9.704,23.584002,eccentric,4,3.0,75480.0,257812.0,143505.0,251726.0,158052.0
2026-04-14 17:31:02.685698,344771,1609505356387850,2956357216,-0.827648,-0.007808,0.220576,-4.89125,-10.08875,-3.03625,12.368001,9.704,23.584002,eccentric,4,3.0,75480.0,257812.0,143505.0,251726.0,158052.0
2026-04-14 17:31:02.695698,344772,1609505356402404,2956372137,-0.89792,0.085888,0.286944,1.68,-8.28625,-1.75,12.440001,9.688001,26.568,eccentric,4,3.0,75480.0,257812.0,143505.0,251726.0,158052.0
2026-04-14 17:31:02.705710,344773,1609505356411320,2956380798,-0.899872,0.07808,0.230336,3.0625,-5.67875,0.06125,12.424001,10.0,25.256,eccentric,4,3.0,75480.0,257812.0,143505.0,251726.0,158052.0
2026-04-14 17:31:02.718383,344774,1609505356425788,2956395708,-0.899872,0.07808,0.230336,-3.01875,-3.15,-0.35875,12.424001,10.0,25.256,eccentric,4,3.0,75480.0,257812.0,143505.0,251726.0,158052.0
2026-04-14 17:31:02.728256,344775,1609505356434695,2956404403,-0.983808,0.05856,0.294752,-9.24,-1.82875,-2.79125,12.376,9.536,26.576002,eccentric,4,3.0,75480.0,257812.0,143505.0,251726.0,158052.0
2026-04-14 17:31:02.737079,344776,1609505356443596,2956413085,-0.983808,0.05856,0.294752,-4.1125,-1.715,-3.92875,12.376,9.536,26.576002,eccentric,4,3.0,75480.0,257812.0,143505.0,251726.0,158052.0
2026-04-14 17:31:02.779610,344787,1609505356458081,2956428016,-0.935008,0.081984,0.320128,6.09875,-1.74125,-4.15625,11.912001,9.872001,27.376001,eccentric,4,3.0,61663.0,244251.0,124372.0,240562.0,138371.0
2026-04-14 17:31:02.781874,344788,1609505356467069,2956436788,-0.935008,0.081984,0.320128,11.1125,-3.2725,-4.59375,11.912001,9.872001,27.376001,eccentric,4,3.0,61663.0,244251.0,124372.0,240562.0,138371.0
2026-04-14 17:31:02.784300,344789,1609505356481530,2956451734,-1.009184,0.064416,0.216672,3.605,-5.92375,-4.57625,11.648001,10.184,27.36,eccentric,4,3.0,61663.0,244251.0,124372.0,240562.0,138371.0
2026-04-14 17:31:02.786791,344790,1609505356490457,2956460414,-1.009184,0.064416,0.216672,-12.18,-8.81125,-4.1475,11.648001,10.184,27.36,eccentric,4,3.0,61663.0,244251.0,124372.0,240562.0,138371.0
2026-04-14 17:31:02.799470,344791,1609505356504959,2956475304,-1.01504,-0.0488,0.306464,-20.22125,-12.69625,-3.8675,11.712001,10.088,28.512001,eccentric,4,3.0,61663.0,244251.0,124372.0,240562.0,138371.0
2026-04-14 17:31:02.808241,344792,1609505356513895,2956484031,-0.991616,-0.119072,0.337696,-16.28375,-15.190001,-4.40125,11.976001,9.768001,26.872002,eccentric,4,3.0,61663.0,244251.0,124372.0,240562.0,138371.0
2026-04-14 17:31:02.820702,344793,1609505356528387,2956496892,-0.991616,-0.119072,0.337696,-2.45,-15.88125,-5.3025,11.976001,9.768001,26.872002,eccentric,4,3.0,61663.0,244251.0,124372.0,240562.0,138371.0
2026-04-14 17:31:02.832070,344794,1609505356537694,2956507644,-0.977952,0.072224,0.372832,13.39625,-16.66,-6.6675,11.68,9.664001,26.648,eccentric,4,3.0,61663.0,244251.0,124372.0,240562.0,138371.0
2026-04-14 17:31:02.840837,344795,1609505356546622,2956516370,-0.977952,0.072224,0.372832,21.02625,-16.84375,-10.01875,11.68,9.664001,26.648,eccentric,4,3.0,61663.0,244251.0,124372.0,240562.0,138371.0
2026-04-14 17:31:02.881907,344806,1609505356561177,2956531350,-1.0248,0.10736,0.40016,12.03125,-17.3775,-13.0375,11.160001,9.896001,27.792002,eccentric,4,3.0,49023.0,233985.0,104159.0,232294.0,117743.0
2026-04-14 17:31:02.885904,344807,1609505356570210,2956540124,-1.0248,0.10736,0.40016,-6.46625,-17.94625,-14.63875,11.160001,9.896001,27.792002,eccentric,4,3.0,49023.0,233985.0,104159.0,232294.0,117743.0
2026-04-14 17:31:02.890681,344808,1609505356584731,2956553088,-1.013088,-0.099552,0.206912,-17.38625,-17.115,-14.525,10.968,10.392,27.632002,eccentric,4,3.0,49023.0,233985.0,104159.0,232294.0,117743.0
2026-04-14 17:31:02.890766,344809,1609505356593921,2956563876,-1.032608,-0.037088,0.247904,-12.3725,-15.98625,-14.35,10.976001,9.872001,26.704,eccentric,4,3.0,49023.0,233985.0,104159.0,232294.0,117743.0
2026-04-14 17:31:02.896025,344810,1609505356602839,2956572572,-1.032608,-0.037088,0.247904,2.66,-15.3125,-12.78375,10.976001,9.872001,26.704,eccentric,4,3.0,49023.0,233985.0,104159.0,232294.0,117743.0
2026-04-14 17:31:02.911838,344811,1609505356617324,2956587495,-1.0736,0.138592,0.220576,15.86375,-14.79625,-10.47375,10.904,9.816001,26.984001,eccentric,4,3.0,49023.0,233985.0,104159.0,232294.0,117743.0
2026-04-14 17:31:02.919831,344812,1609505356626244,2956596186,-1.0736,0.138592,0.220576,18.08625,-14.58625,-9.4675,10.904,9.816001,26.984001,eccentric,4,3.0,49023.0,233985.0,104159.0,232294.0,117743.0
