pc_time,serial_num,sensor_ts,host_ts,ax,ay,az,gx,gy,gz,mx,my,mz,phase,rpe,weight_kg,ppg_a,ppg_b,ppg_c,ppg_d,ppg_e
2026-04-08 21:36:27.490182,90402,1609503359621187,959587967,-1.011136,-0.12688,0.074176,-4.2875,-1.63625,6.78125,28.144001,-15.144001,4.136,concentric,3,3.0,22127.0,152177.0,242543.0,291516.0,269149.0
2026-04-08 21:36:27.493798,90403,1609503359630101,959596624,-1.01504,-0.191296,0.0,-12.88,-5.13625,6.51875,28.416002,-15.296001,2.968,concentric,3,3.0,22127.0,152177.0,242543.0,291516.0,269149.0
2026-04-08 21:36:27.496311,90404,1609503359639001,959605263,-1.01504,-0.191296,0.0,-3.35125,-6.08125,5.41625,28.416002,-15.296001,2.968,concentric,3,3.0,22127.0,152177.0,242543.0,291516.0,269149.0
2026-04-08 21:36:27.500975,90405,1609503359653490,959620151,-0.979904,-0.011712,0.101504,14.28,-3.77125,4.375,28.336,-15.344001,2.984,concentric,3,3.0,22127.0,152177.0,242543.0,291516.0,269149.0
2026-04-08 21:36:27.565037,90416,1609503359662984,959628903,-0.979904,-0.011712,0.101504,24.15,-0.7,4.795,28.336,-15.344001,2.984,concentric,3,3.0,22118.0,152135.0,242560.0,291602.0,269202.0
2026-04-08 21:36:27.567570,90417,1609503359677571,959643776,-0.977952,-0.037088,-0.027328,17.26375,-0.105,7.14,28.256,-15.152,2.824,concentric,3,3.0,22118.0,152135.0,242560.0,291602.0,269202.0
2026-04-08 21:36:27.569997,90418,1609503359686480,959652451,-0.977952,-0.037088,-0.027328,4.27875,-1.2425,10.57875,28.256,-15.152,2.824,concentric,3,3.0,22118.0,152135.0,242560.0,291602.0,269202.0
2026-04-08 21:36:27.572481,90419,1609503359695396,959661103,-1.067744,-0.081984,-0.081984,-1.82875,-3.07125,12.136251,27.960001,-15.464001,4.416,concentric,3,3.0,22118.0,152135.0,242560.0,291602.0,269202.0
2026-04-08 21:36:27.576303,90420,1609503359709890,959676033,-1.04432,-0.0976,-0.050752,-1.93375,-5.355,13.5275,28.112001,-15.728001,2.68,concentric,3,3.0,22118.0,152135.0,242560.0,291602.0,269202.0
2026-04-08 21:36:27.577781,90421,1609503359718828,959684733,-1.04432,-0.0976,-0.050752,6.055,-7.8925,13.67625,28.112001,-15.728001,2.68,concentric,3,3.0,22118.0,152135.0,242560.0,291602.0,269202.0
2026-04-08 21:36:27.580171,90422,1609503359733296,959699612,-0.935008,-0.076128,-0.0488,14.20125,-9.5025,13.34375,27.504002,-16.008001,3.496,concentric,3,3.0,22118.0,152135.0,242560.0,291602.0,269202.0
2026-04-08 21:36:27.610241,90423,1609503359742226,959708280,-0.935008,-0.076128,-0.0488,16.0475,-8.96,16.28375,27.504002,-16.008001,3.496,concentric,3,3.0,22118.0,152135.0,242560.0,291602.0,269202.0
2026-04-08 21:36:27.613808,90424,1609503359756714,959723157,-1.03456,-0.01952,-0.054656,12.8975,-7.105,18.147501,27.840002,-16.528,2.688,concentric,3,3.0,22118.0,152135.0,242560.0,291602.0,269202.0
2026-04-08 21:36:27.646283,90435,1609503359765789,959732150,-1.03456,-0.01952,-0.054656,6.9475,-7.16625,19.11875,27.840002,-16.528,2.688,concentric,3,3.0,22177.0,152474.0,243006.0,291907.0,269344.0
2026-04-08 21:36:27.648767,90436,1609503359774756,959740848,-1.01504,-0.103456,-0.031232,2.975,-8.8025,19.355,27.912,-16.288,2.624,concentric,3,3.0,22177.0,152474.0,243006.0,291907.0,269344.0
2026-04-08 21:36:27.651267,90437,1609503359789255,959755745,-1.03456,-0.03904,0.046848,5.8975,-11.82125,19.285,27.528002,-16.696001,1.312,concentric,3,3.0,22177.0,152474.0,243006.0,291907.0,269344.0
2026-04-08 21:36:27.653755,90438,1609503359798230,959764458,-1.03456,-0.03904,0.046848,13.95625,-16.4325,20.8075,27.528002,-16.696001,1.312,concentric,3,3.0,22177.0,152474.0,243006.0,291907.0,269344.0
2026-04-08 21:36:27.659124,90439,1609503359812721,959779340,-0.95648,0.080032,0.062464,26.13625,-19.73125,22.58375,27.44,-16.968,2.664,concentric,3,3.0,22177.0,152474.0,243006.0,291907.0,269344.0
2026-04-08 21:36:27.688978,90440,1609503359821642,959788015,-0.95648,0.080032,0.062464,33.31125,-21.035,24.0975,27.44,-16.968,2.664,concentric,3,3.0,22177.0,152474.0,243006.0,291907.0,269344.0
2026-04-08 21:36:27.692560,90441,1609503359836093,959802868,-0.940864,0.011712,-0.1464,28.0,-21.02625,26.85375,26.624,-17.472,2.696,concentric,3,3.0,22177.0,152474.0,243006.0,291907.0,269344.0
2026-04-08 21:36:27.695023,90442,1609503359845010,959811551,-0.940864,0.011712,-0.1464,10.84125,-21.1225,31.4125,26.624,-17.472,2.696,concentric,3,3.0,22177.0,152474.0,243006.0,291907.0,269344.0
2026-04-08 21:36:27.700028,90443,1609503359854043,959820247,-0.933056,-0.017568,0.216672,-3.3775,-23.555,35.315,26.664001,-17.880001,3.008,concentric,3,3.0,22177.0,152474.0,243006.0,291907.0,269344.0
2026-04-08 21:36:27.731278,90454,1609503359868618,959835167,-0.933056,-0.017568,0.216672,-1.07625,-22.81125,34.23875,26.664001,-17.880001,3.008,concentric,3,3.0,22237.0,152801.0,243434.0,292192.0,269498.0
2026-04-08 21:36:27.733776,90455,1609503359877524,959843887,-0.86864,0.001952,0.210816,9.47625,-22.07625,30.178751,26.136002,-18.264,2.776,concentric,3,3.0,22237.0,152801.0,243434.0,292192.0,269498.0
2026-04-08 21:36:27.739781,90456,1609503359892039,959858793,-0.90768,0.091744,0.162016,21.91875,-21.25375,29.4875,26.208002,-18.544,3.752,concentric,3,3.0,22237.0,152801.0,243434.0,292192.0,269498.0
2026-04-08 21:36:27.768979,90457,1609503359900964,959867472,-0.90768,0.091744,0.162016,28.8925,-20.6675,31.22875,26.208002,-18.544,3.752,concentric,3,3.0,22237.0,152801.0,243434.0,292192.0,269498.0
2026-04-08 21:36:27.772569,90458,1609503359915439,959882343,-1.046272,-0.013664,-0.095648,19.9325,-22.23375,33.25,26.024002,-19.168001,2.904,concentric,3,3.0,22237.0,152801.0,243434.0,292192.0,269498.0
2026-04-08 21:36:27.775009,90459,1609503359924374,959891011,-1.046272,-0.013664,-0.095648,2.6075,-22.81125,35.14,26.024002,-19.168001,2.904,concentric,3,3.0,22237.0,152801.0,243434.0,292192.0,269498.0
2026-04-08 21:36:27.780080,90460,1609503359933305,959899662,-1.095072,-0.00976,0.105408,-7.98875,-22.0325,35.8925,25.568,-19.344002,3.52,concentric,3,3.0,22237.0,152801.0,243434.0,292192.0,269498.0
2026-04-08 21:36:27.836524,90461,1609503359947793,959914521,-1.095072,-0.00976,0.105408,-7.0175,-20.1425,33.3025,25.568,-19.344002,3.52,concentric,3,3.0,22237.0,152801.0,243434.0,292192.0,269498.0
2026-04-08 21:36:27.840018,90462,1609503359956706,959923244,-1.075552,0.05856,-0.044896,2.79125,-17.38625,29.303751,25.504002,-19.912,3.504,concentric,3,3.0,22237.0,152801.0,243434.0,292192.0,269498.0
2026-04-08 21:36:27.867535,90473,1609503359971329,959938162,-1.110688,0.007808,-0.011712,15.785,-15.5225,26.69625,25.480001,-20.272001,4.232,concentric,3,3.0,22190.0,152668.0,243277.0,292110.0,269460.0
2026-04-08 21:36:27.870288,90474,1609503359980219,959946795,-1.110688,0.007808,-0.011712,18.69,-16.79125,26.7575,25.480001,-20.272001,4.232,concentric,3,3.0,22190.0,152668.0,243277.0,292110.0,269460.0
2026-04-08 21:36:27.871378,90475,1609503359994699,959961681,-1.018944,-0.007808,0.121024,8.715,-20.30875,29.58375,24.984001,-20.576,3.392,concentric,3,3.0,22190.0,152668.0,243277.0,292110.0,269460.0
2026-04-08 21:36:27.875044,90476,1609503360003659,959970396,-1.018944,-0.007808,0.121024,-0.72625,-23.0825,29.47875,24.984001,-20.576,3.392,concentric,3,3.0,22190.0,152668.0,243277.0,292110.0,269460.0
2026-04-08 21:36:27.877757,90477,1609503360012647,959979128,-0.93696,-0.00976,0.081984,-9.63375,-23.9925,28.9975,24.696001,-20.744001,3.736,concentric,3,3.0,22190.0,152668.0,243277.0,292110.0,269460.0
2026-04-08 21:36:27.880111,90478,1609503360027266,959994048,-0.93696,-0.00976,0.081984,-16.45,-25.06,31.5875,24.696001,-20.744001,3.736,concentric,3,3.0,22190.0,152668.0,243277.0,292110.0,269460.0
2026-04-08 21:36:27.882655,90479,1609503360036220,960002745,-0.983808,0.115168,0.230336,-13.39625,-27.20375,33.670002,24.408,-20.92,4.768,concentric,3,3.0,22190.0,152668.0,243277.0,292110.0,269460.0
2026-04-08 21:36:27.913707,90480,1609503360050701,960017627,-0.993568,-0.122976,0.152256,3.85875,-26.81,30.87,24.408,-20.92,2.512,concentric,3,3.0,22190.0,152668.0,243277.0,292110.0,269460.0
2026-04-08 21:36:27.915940,90481,1609503360059563,960026277,-0.993568,-0.122976,0.152256,16.79125,-24.1675,25.2525,24.232,-21.384,2.512,concentric,3,3.0,22190.0,152668.0,243277.0,292110.0,269460.0
2026-04-08 21:36:27.943807,90492,1609503360074157,960041169,-0.977952,0.033184,0.148352,6.51875,-25.06,26.74875,24.128,-21.6,4.184,concentric,3,3.0,22273.0,152949.0,243574.0,292282.0,269542.0
2026-04-08 21:36:27.948325,90493,1609503360083089,960049835,-0.977952,0.033184,0.148352,-1.6625,-24.33375,29.75,24.128,-21.6,4.184,concentric,3,3.0,22273.0,152949.0,243574.0,292282.0,269542.0
2026-04-08 21:36:27.954393,90494,1609503360092049,960058574,-0.999424,0.07808,0.050752,-5.74875,-20.90375,28.4025,23.744001,-21.648,3.904,concentric,3,3.0,22273.0,152949.0,243574.0,292282.0,269542.0
2026-04-08 21:36:27.955986,90495,1609503360106599,960073467,-0.999424,0.07808,0.050752,-15.1025,-20.23875,29.2425,23.744001,-21.648,3.904,concentric,3,3.0,22273.0,152949.0,243574.0,292282.0,269542.0
2026-04-08 21:36:27.961273,90496,1609503360115516,960082172,-0.950624,0.08784,0.269376,-21.1575,-20.76375,32.2525,23.6,-22.176,4.52,concentric,3,3.0,22273.0,152949.0,243574.0,292282.0,269542.0
2026-04-08 21:36:27.991558,90497,1609503360130018,960097045,-0.950624,0.08784,0.269376,-23.3625,-22.44375,34.15125,23.6,-22.176,4.52,concentric,3,3.0,22273.0,152949.0,243574.0,292282.0,269542.0
2026-04-08 21:36:27.995001,90498,1609503360138935,960105690,-0.872544,0.003904,0.230336,-15.56625,-22.33875,32.40125,23.12,-22.640001,4.224,concentric,3,3.0,22273.0,152949.0,243574.0,292282.0,269542.0
2026-04-08 21:36:28.000047,90499,1609503360153410,960120618,-1.001376,0.011712,0.105408,-11.69,-20.8425,30.9225,22.648,-22.736002,4.976,concentric,3,3.0,22273.0,152949.0,243574.0,292282.0,269542.0
2026-04-08 21:36:28.058046,90510,1609503360162778,960129338,-1.001376,0.011712,0.105408,-19.60875,-20.72875,35.4025,22.648,-22.736002,4.976,concentric,3,3.0,22287.0,153044.0,243690.0,292354.0,269557.0
2026-04-08 21:36:28.061449,90511,1609503360171731,960138059,-0.989664,0.021472,0.119072,-22.89,-20.79875,40.43375,22.648,-23.032001,6.064,concentric,3,3.0,22287.0,153044.0,243690.0,292354.0,269557.0
2026-04-08 21:36:28.062671,90512,1609503360186217,960152936,-0.989664,0.021472,0.119072,-21.525,-19.74,39.41875,22.528002,-23.032001,6.064,concentric,3,3.0,22287.0,153044.0,243690.0,292354.0,269557.0
2026-04-08 21:36:28.064250,90513,1609503360195253,960161701,-0.931104,0.054656,0.275232,-13.34375,-14.875,35.09625,22.36,-23.296001,5.384,concentric,3,3.0,22287.0,153044.0,243690.0,292354.0,269557.0
2026-04-08 21:36:28.066406,90514,1609503360209790,960176630,-0.931104,0.054656,0.275232,-5.31125,-10.68375,32.87375,22.36,-23.296001,5.384,concentric,3,3.0,22287.0,153044.0,243690.0,292354.0,269557.0
2026-04-08 21:36:28.068830,90515,1609503360218736,960185328,-0.991616,0.15616,0.267424,-1.00625,-6.4225,35.5775,22.208,-23.936,5.56,concentric,3,3.0,22287.0,153044.0,243690.0,292354.0,269557.0
2026-04-08 21:36:28.073802,90516,1609503360227692,960194014,-0.991616,0.15616,0.267424,1.1725,-0.95375,37.49375,22.208,-23.936,5.56,concentric,3,3.0,22287.0,153044.0,243690.0,292354.0,269557.0
2026-04-08 21:36:28.132955,90517,1609503360242165,960208913,-1.09312,0.122976,0.15616,-5.32875,2.14375,38.07125,21.624,-23.824001,6.232,concentric,3,3.0,22287.0,153044.0,243690.0,292354.0,269557.0
2026-04-08 21:36:28.136320,90518,1609503360251064,960217552,-1.09312,0.122976,0.15616,-19.48625,3.745,40.451252,21.624,-23.824001,6.232,concentric,3,3.0,22287.0,153044.0,243690.0,292354.0,269557.0
2026-04-08 21:36:28.163816,90529,1609503360266094,960232634,-1.09312,0.124928,0.037088,-29.89875,3.01875,39.1475,21.616001,-24.224,7.592001,concentric,3,3.0,22244.0,153008.0,243667.0,292335.0,269617.0
2026-04-08 21:36:28.166338,90530,1609503360275052,960241308,-1.020896,0.169824,0.396256,-29.723751,1.4875,36.33875,21.392,-24.424002,5.376,concentric,3,3.0,22244.0,153008.0,243667.0,292335.0,269617.0
2026-04-08 21:36:28.168884,90531,1609503360283967,960249954,-1.020896,0.169824,0.396256,-23.07375,-0.21,35.8925,21.392,-24.424002,5.376,concentric,3,3.0,22244.0,153008.0,243667.0,292335.0,269617.0
2026-04-08 21:36:28.171283,90532,1609503360298452,960264875,-1.09312,0.103456,0.121024,-8.68,1.74125,33.10125,21.240002,-25.192001,5.584,concentric,3,3.0,22244.0,153008.0,243667.0,292335.0,269617.0
2026-04-08 21:36:28.173698,90533,1609503360307406,960273600,-1.09312,0.103456,0.121024,0.8225,3.33375,29.575,21.240002,-25.192001,5.584,concentric,3,3.0,22244.0,153008.0,243667.0,292335.0,269617.0
2026-04-08 21:36:28.178016,90534,1609503360321932,960288478,-1.186816,0.152256,0.124928,-1.77625,4.0775,28.6825,20.712002,-24.712002,7.192,concentric,3,3.0,22244.0,153008.0,243667.0,292335.0,269617.0
2026-04-08 21:36:28.180466,90535,1609503360330857,960297190,-1.186816,0.152256,0.124928,-6.13375,3.21125,28.4725,20.712002,-24.712002,7.192,concentric,3,3.0,22244.0,153008.0,243667.0,292335.0,269617.0
2026-04-08 21:36:28.209025,90536,1609503360345343,960312075,-1.136064,0.210816,0.392352,-11.01625,-1.65375,29.085001,20.576,-25.12,9.120001,concentric,3,3.0,22244.0,153008.0,243667.0,292335.0,269617.0
2026-04-08 21:36:28.212800,90537,1609503360354330,960320758,-1.09312,0.300608,0.353312,-8.14625,-7.25375,28.67375,20.392,-25.568,3.568,concentric,3,3.0,22244.0,153008.0,243667.0,292335.0,269617.0
2026-04-08 21:36:28.243792,90548,1609503360363241,960329417,-1.09312,0.300608,0.353312,0.2625,-9.26625,24.4125,20.392,-25.568,3.568,concentric,3,3.0,22164.0,152652.0,243196.0,292081.0,269544.0
2026-04-08 21:36:28.246296,90549,1609503360378356,960344349,-1.167296,0.218624,0.158112,3.26375,-8.82,15.86375,20.68,-25.664001,5.232,concentric,3,3.0,22164.0,152652.0,243196.0,292081.0,269544.0
2026-04-08 21:36:28.248780,90550,1609503360387344,960353086,-1.167296,0.218624,0.158112,1.09375,-5.13625,8.32125,20.68,-25.664001,5.232,concentric,3,3.0,22164.0,152652.0,243196.0,292081.0,269544.0
2026-04-08 21:36:28.251264,90551,1609503360401820,960367958,-1.114592,0.249856,0.269376,-12.46,-1.225,5.97625,20.304,-25.832,6.408001,concentric,3,3.0,22164.0,152652.0,243196.0,292081.0,269544.0
2026-04-08 21:36:28.257504,90552,1609503360410728,960376664,-1.114592,0.249856,0.269376,-23.5025,1.1725,9.33625,20.304,-25.832,6.408001,concentric,3,3.0,22164.0,152652.0,243196.0,292081.0,269544.0
2026-04-08 21:36:28.287764,90553,1609503360425233,960391620,-1.19072,0.337696,0.177632,-23.65125,2.73875,13.09,20.632002,-25.632002,6.952,concentric,3,3.0,22164.0,152652.0,243196.0,292081.0,269544.0
2026-04-08 21:36:28.300936,90554,1609503360434158,960400294,-1.134112,0.226432,0.242048,-18.62875,2.24,12.83625,20.872002,-25.976002,4.76,concentric,3,3.0,22164.0,152652.0,243196.0,292081.0,269544.0
2026-04-08 21:36:28.302630,90555,1609503360443045,960408984,-1.134112,0.226432,0.242048,-15.198751,-0.21,9.61625,20.872002,-25.976002,4.76,concentric,3,3.0,22164.0,152652.0,243196.0,292081.0,269544.0
2026-04-08 21:36:28.305052,90556,1609503360457530,960423865,-1.149728,0.249856,0.197152,-15.295,-2.42375,8.39125,20.504002,-26.12,5.664,concentric,3,3.0,22164.0,152652.0,243196.0,292081.0,269544.0
2026-04-08 21:36:28.333862,90567,1609503360467167,960432639,-1.149728,0.249856,0.197152,-16.82625,-0.86625,7.37625,20.504002,-26.12,5.664,concentric,3,3.0,22405.0,153573.0,244207.0,292721.0,269936.0
2026-04-08 21:36:28.336304,90568,1609503360476413,960443502,-1.159488,0.310368,0.16592,-17.07125,1.65375,3.94625,20.76,-25.888,5.864,concentric,3,3.0,22405.0,153573.0,244207.0,292721.0,269936.0
2026-04-08 21:36:28.338834,90569,1609503360490927,960456327,-1.159488,0.310368,0.16592,-16.8525,2.19625,2.58125,20.76,-25.888,5.864,concentric,3,3.0,22405.0,153573.0,244207.0,292721.0,269936.0
2026-04-08 21:36:28.369001,90570,1609503360500054,960467053,-1.114592,0.355264,0.357216,-16.37125,-0.30625,4.62,20.864,-26.080002,5.792,concentric,3,3.0,22405.0,153573.0,244207.0,292721.0,269936.0
2026-04-08 21:36:28.372611,90571,1609503360514514,960479884,-1.081408,0.28304,0.310368,-16.0825,-3.3425,5.7225,20.968,-26.240002,6.496,concentric,3,3.0,22405.0,153573.0,244207.0,292721.0,269936.0
2026-04-08 21:36:28.375096,90572,1609503360523928,960490673,-1.081408,0.28304,0.310368,-17.50875,-4.52375,0.88375,20.968,-26.240002,6.496,concentric,3,3.0,22405.0,153573.0,244207.0,292721.0,269936.0
2026-04-08 21:36:28.431584,90573,1609503360538453,960505528,-1.091168,0.259616,0.259616,-15.505,-1.40875,-4.9875,20.544,-26.048,6.84,concentric,3,3.0,22405.0,153573.0,244207.0,292721.0,269936.0
2026-04-08 21:36:28.435091,90574,1609503360547399,960514184,-1.091168,0.259616,0.259616,-10.68375,2.275,-8.58375,20.544,-26.048,6.84,concentric,3,3.0,22405.0,153573.0,244207.0,292721.0,269936.0
2026-04-08 21:36:28.437522,90575,1609503360556405,960522842,-1.22976,0.46848,0.398208,-1.54,6.55375,-9.42375,21.52,-25.960001,5.6,concentric,3,3.0,22405.0,153573.0,244207.0,292721.0,269936.0
2026-04-08 21:36:28.465012,90586,1609503360570953,960537756,-1.22976,0.46848,0.398208,10.24625,9.1,-7.1225,21.52,-25.960001,5.6,concentric,3,3.0,22306.0,153205.0,243683.0,292333.0,269743.0
2026-04-08 21:36:28.467532,90587,1609503360579884,960546412,-1.225856,0.466528,0.226432,8.785,4.69,-4.66375,21.464,-26.424002,5.632,concentric,3,3.0,22306.0,153205.0,243683.0,292333.0,269743.0
2026-04-08 21:36:28.470021,90588,1609503360594334,960561304,-1.24928,0.366976,0.294752,-2.09125,-0.42,-3.3075,21.464,-26.424002,6.136,concentric,3,3.0,22306.0,153205.0,243683.0,292333.0,269743.0
2026-04-08 21:36:28.472501,90589,1609503360603340,960569987,-1.24928,0.366976,0.294752,-11.76,-5.34625,-3.99,21.288,-26.176,6.136,concentric,3,3.0,22306.0,153205.0,243683.0,292333.0,269743.0
2026-04-08 21:36:28.475020,90590,1609503360612373,960578751,-1.24928,0.366976,0.294752,-12.792501,-8.12875,-5.32875,21.288,-26.176,6.136,concentric,3,3.0,22306.0,153205.0,243683.0,292333.0,269743.0
2026-04-08 21:36:28.477839,90591,1609503360626865,960593650,-1.18096,0.327936,0.249856,-8.198751,-9.03875,-3.8675,21.432001,-26.136002,4.712,concentric,3,3.0,22306.0,153205.0,243683.0,292333.0,269743.0
2026-04-08 21:36:28.482526,90592,1609503360635814,960602343,-1.138016,0.394304,0.324032,-2.79125,-7.8225,-2.17,21.344002,-26.328001,6.584,concentric,3,3.0,22306.0,153205.0,243683.0,292333.0,269743.0
2026-04-08 21:36:28.512732,90593,1609503360650308,960617193,-1.138016,0.394304,0.324032,1.33875,-5.6175,0.93625,21.344002,-26.328001,6.584,concentric,3,3.0,22306.0,153205.0,243683.0,292333.0,269743.0
2026-04-08 21:36:28.516312,90594,1609503360659219,960625886,-1.167296,0.337696,0.138592,6.04625,-3.66625,2.19625,21.128,-26.000002,5.856,concentric,3,3.0,22306.0,153205.0,243683.0,292333.0,269743.0
2026-04-08 21:36:28.580034,90605,1609503360674224,960640998,-1.167296,0.337696,0.357216,6.23875,-2.26625,2.8,21.128,-26.000002,5.856,concentric,3,3.0,22210.0,152652.0,242922.0,291774.0,269395.0
2026-04-08 21:36:28.582588,90606,1609503360683263,960649674,-1.143872,0.327936,0.35136,4.92625,-2.94,6.1775,21.112001,-26.688002,7.248,concentric,3,3.0,22210.0,152652.0,242922.0,291774.0,269395.0
2026-04-08 21:36:28.585024,90607,1609503360692169,960658337,-1.143872,0.327936,0.35136,5.08375,-2.59,8.46125,21.112001,-26.688002,7.248,concentric,3,3.0,22210.0,152652.0,242922.0,291774.0,269395.0
2026-04-08 21:36:28.587516,90608,1609503360706652,960673181,-1.095072,0.271328,0.167872,8.88125,-1.68,10.3075,21.224,-26.424002,5.504,concentric,3,3.0,22210.0,152652.0,242922.0,291774.0,269395.0
2026-04-08 21:36:28.590020,90609,1609503360715663,960681852,-1.14192,0.339648,0.085888,13.658751,-0.28875,11.66375,20.856,-26.712002,4.928001,concentric,3,3.0,22210.0,152652.0,242922.0,291774.0,269395.0
2026-04-08 21:36:28.592552,90610,1609503360730187,960696760,-1.14192,0.339648,0.085888,18.095,2.00375,13.60625,20.856,-26.712002,4.928001,concentric,3,3.0,22210.0,152652.0,242922.0,291774.0,269395.0
2026-04-08 21:36:28.595069,90611,1609503360739129,960705431,-1.0736,0.320128,0.122976,19.25,4.0775,16.07375,20.816002,-26.872002,5.096,concentric,3,3.0,22210.0,152652.0,242922.0,291774.0,269395.0
2026-04-08 21:36:28.597533,90612,1609503360748214,960714088,-1.0736,0.320128,0.122976,16.44125,3.99875,17.9725,20.816002,-26.872002,5.096,concentric,3,3.0,22210.0,152652.0,242922.0,291774.0,269395.0
2026-04-08 21:36:28.627809,90613,1609503360762699,960729056,-1.01504,0.318176,0.105408,11.1475,4.0075,18.29625,20.512001,-27.088001,4.872,concentric,3,3.0,22210.0,152652.0,242922.0,291774.0,269395.0
2026-04-08 21:36:28.660006,90624,1609503360771695,960737790,-1.01504,0.318176,0.105408,6.74625,2.94,18.05125,20.512001,-27.088001,4.872,eccentric,3,3.0,22103.0,151983.0,241898.0,290955.0,268949.0
2026-04-08 21:36:28.662472,90625,1609503360786187,960752716,-0.958432,0.2928,0.290848,6.4925,2.0125,17.43,20.424002,-27.544,5.072,eccentric,3,3.0,22103.0,151983.0,241898.0,290955.0,268949.0
2026-04-08 21:36:28.664977,90626,1609503360795191,960761409,-0.958432,0.2928,0.083936,7.23625,2.31875,17.9025,20.424002,-27.544,5.072,eccentric,3,3.0,22103.0,151983.0,241898.0,290955.0,268949.0
2026-04-08 21:36:28.667503,90627,1609503360809687,960776290,-1.061888,0.320128,0.083936,8.53125,2.58125,18.9175,20.056002,-27.128002,6.28,eccentric,3,3.0,22103.0,151983.0,241898.0,290955.0,268949.0
2026-04-08 21:36:28.669949,90628,1609503360818613,960784972,-1.036512,0.359168,0.23424,10.3425,2.4325,17.6225,19.488,-27.616001,5.56,eccentric,3,3.0,22103.0,151983.0,241898.0,290955.0,268949.0
2026-04-08 21:36:28.673714,90629,1609503360827617,960793641,-1.036512,0.359168,0.23424,11.62,1.82875,16.1,19.488,-27.616001,5.56,eccentric,3,3.0,22103.0,151983.0,241898.0,290955.0,268949.0
2026-04-08 21:36:28.731568,90630,1609503360842158,960808598,-0.942816,0.324032,0.183488,9.765,1.00625,14.752501,19.872002,-27.712002,4.472,eccentric,3,3.0,22103.0,151983.0,241898.0,290955.0,268949.0
2026-04-08 21:36:28.735054,90631,1609503360851073,960817271,-0.942816,0.324032,0.183488,7.5075,-0.56,12.8625,19.872002,-27.712002,4.472,eccentric,3,3.0,22103.0,151983.0,241898.0,290955.0,268949.0
2026-04-08 21:36:28.766775,90642,1609503360865516,960832080,-0.993568,0.36112,0.304512,5.9675,-2.31,10.56125,19.504002,-27.936,4.648,eccentric,3,3.0,21846.0,150623.0,239912.0,289389.0,268002.0
2026-04-08 21:36:28.768453,90643,1609503360874532,960840802,-0.993568,0.36112,0.304512,4.4625,-2.49375,9.0475,19.504002,-27.936,4.648,eccentric,3,3.0,21846.0,150623.0,239912.0,289389.0,268002.0
2026-04-08 21:36:28.770904,90644,1609503360888969,960855686,-0.958432,0.32208,0.247904,2.93125,-3.6225,8.53125,19.256,-27.896002,4.12,eccentric,3,3.0,21846.0,150623.0,239912.0,289389.0,268002.0
2026-04-08 21:36:28.772415,90645,1609503360897912,960864357,-1.038464,0.372832,0.304512,2.70375,-4.655,6.23,18.848001,-27.584002,6.192,eccentric,3,3.0,21846.0,150623.0,239912.0,289389.0,268002.0
2026-04-08 21:36:28.777095,90646,1609503360906937,960873088,-1.038464,0.372832,0.304512,6.58,-4.3575,3.05375,18.848001,-27.584002,6.192,eccentric,3,3.0,21846.0,150623.0,239912.0,289389.0,268002.0
2026-04-08 21:36:28.783056,90647,1609503360921481,960888055,-1.038464,0.382592,0.206912,9.7125,-3.26375,1.12,18.848001,-27.904001,5.296001,eccentric,3,3.0,21846.0,150623.0,239912.0,289389.0,268002.0
2026-04-08 21:36:28.785501,90648,1609503360930416,960896735,-1.038464,0.382592,0.206912,11.05125,-2.33625,1.37375,18.848001,-27.904001,5.296001,eccentric,3,3.0,21846.0,150623.0,239912.0,289389.0,268002.0
2026-04-08 21:36:28.813984,90649,1609503360944876,960911607,-1.089216,0.417728,0.158112,10.21125,-1.61875,2.07375,19.288,-28.024002,5.36,eccentric,3,3.0,21846.0,150623.0,239912.0,289389.0,268002.0
2026-04-08 21:36:28.817495,90650,1609503360953782,960920278,-1.089216,0.417728,0.158112,6.5975,-1.1725,1.3825,19.288,-28.024002,5.36,eccentric,3,3.0,21846.0,150623.0,239912.0,289389.0,268002.0
2026-04-08 21:36:28.849997,90661,1609503360968317,960935194,-1.15168,0.464576,0.25376,4.795,-1.1725,0.06125,19.408,-28.072,4.28,eccentric,3,3.0,21096.0,147347.0,235655.0,286078.0,265996.0
2026-04-08 21:36:28.852485,90662,1609503360977371,960943902,-1.186816,0.470432,0.288896,4.52375,-0.8925,-0.23625,18.848001,-27.840002,4.896,eccentric,3,3.0,21096.0,147347.0,235655.0,286078.0,265996.0
2026-04-08 21:36:28.855064,90663,1609503360986335,960952667,-1.186816,0.470432,0.288896,5.57375,-0.81375,-0.175,18.848001,-27.840002,4.896,eccentric,3,3.0,21096.0,147347.0,235655.0,286078.0,265996.0
2026-04-08 21:36:28.857463,90664,1609503361000839,960967543,-1.165344,0.462624,0.343552,6.58,0.09625,-0.35,18.952002,-27.776001,5.088,eccentric,3,3.0,21096.0,147347.0,235655.0,286078.0,265996.0
2026-04-08 21:36:28.859963,90665,1609503361009811,960976235,-1.165344,0.462624,0.343552,4.90875,-0.90125,0.595,18.952002,-27.776001,5.088,eccentric,3,3.0,21096.0,147347.0,235655.0,286078.0,265996.0
2026-04-08 21:36:28.890190,90666,1609503361024375,960991152,-1.198528,0.495808,0.298656,1.25125,-2.73,1.35625,18.944,-27.992,3.576,eccentric,3,3.0,21096.0,147347.0,235655.0,286078.0,265996.0
2026-04-08 21:36:28.893771,90667,1609503361033259,960999794,-1.198528,0.495808,0.298656,-1.33,-3.78875,0.175,18.944,-27.992,3.576,eccentric,3,3.0,21096.0,147347.0,235655.0,286078.0,265996.0
2026-04-08 21:36:28.896288,90668,1609503361047710,961014638,-1.143872,0.460672,0.329888,-2.31,-5.67,0.8575,18.92,-28.264002,4.424,eccentric,3,3.0,21096.0,147347.0,235655.0,286078.0,265996.0
2026-04-08 21:36:28.926485,90669,1609503361056682,961023317,-1.143872,0.460672,0.329888,-1.93375,-8.225,1.3825,18.92,-28.264002,4.424,eccentric,3,3.0,21096.0,147347.0,235655.0,286078.0,265996.0
2026-04-08 21:36:28.930028,90670,1609503361065665,961032024,-1.169248,0.431392,0.154208,4.20875,-9.38,0.28875,18.328001,-27.848001,2.856,eccentric,3,3.0,21096.0,147347.0,235655.0,286078.0,265996.0
2026-04-08 21:36:28.959995,90681,1609503361080154,961046933,-1.16144,0.464576,0.359168,9.63375,-9.42375,-0.6475,18.752,-28.008001,4.312,eccentric,3,3.0,20748.0,145853.0,233774.0,284658.0,265127.0
2026-04-08 21:36:28.962541,90682,1609503361089202,961055644,-1.16144,0.464576,0.359168,9.38875,-10.28125,-0.93625,18.752,-28.008001,4.312,eccentric,3,3.0,20748.0,145853.0,233774.0,284658.0,265127.0
2026-04-08 21:36:28.965009,90683,1609503361103769,961070565,-1.108736,0.431392,0.316224,6.37,-11.08625,-2.695,18.560001,-27.928001,4.52,eccentric,3,3.0,20748.0,145853.0,233774.0,284658.0,265127.0
2026-04-08 21:36:28.967696,90684,1609503361112712,961079272,-1.108736,0.431392,0.316224,-0.13125,-12.52125,-5.11,18.560001,-27.928001,4.52,eccentric,3,3.0,20748.0,145853.0,233774.0,284658.0,265127.0
2026-04-08 21:36:28.969985,90685,1609503361121664,961087999,-1.089216,0.40992,0.27328,-4.1125,-13.877501,-4.66375,18.448,-27.808,4.512,eccentric,3,3.0,20748.0,145853.0,233774.0,284658.0,265127.0
2026-04-08 21:36:29.031506,90686,1609503361136140,961102882,-1.089216,0.40992,0.27328,-2.98375,-13.8075,-4.3925,18.448,-27.808,4.512,eccentric,3,3.0,20748.0,145853.0,233774.0,284658.0,265127.0
2026-04-08 21:36:29.035207,90687,1609503361145061,961111557,-1.09312,0.378688,0.284992,0.34125,-13.60625,-4.8475,18.36,-27.672,4.568,eccentric,3,3.0,20748.0,145853.0,233774.0,284658.0,265127.0
2026-04-08 21:36:29.037548,90688,1609503361159529,961126388,-1.138016,0.407968,0.288896,4.9525,-12.88,-4.725,18.208,-27.776001,4.664,eccentric,3,3.0,20748.0,145853.0,233774.0,284658.0,265127.0
2026-04-08 21:36:29.068831,90699,1609503361169085,961135504,-1.138016,0.407968,0.288896,5.25,-12.1975,-4.97875,18.208,-27.776001,4.664,eccentric,3,3.0,20808.0,146138.0,234183.0,285017.0,265383.0
2026-04-08 21:36:29.071318,90700,1609503361183643,961150377,-1.11264,0.343552,0.111264,2.51125,-12.15375,-6.01125,18.512001,-27.776001,5.0,eccentric,3,3.0,20808.0,146138.0,234183.0,285017.0,265383.0
2026-04-08 21:36:29.073801,90701,1609503361192535,961159021,-1.11264,0.343552,0.111264,-0.2625,-10.9025,-7.2625,18.512001,-27.776001,5.0,eccentric,3,3.0,20808.0,146138.0,234183.0,285017.0,265383.0
2026-04-08 21:36:29.076286,90702,1609503361201567,961167752,-1.143872,0.357216,0.111264,-1.995,-9.948751,-7.21,18.12,-27.328001,5.816001,eccentric,3,3.0,20808.0,146138.0,234183.0,285017.0,265383.0
2026-04-08 21:36:29.078911,90703,1609503361216062,961182650,-1.143872,0.357216,0.111264,0.81375,-6.895,-7.83125,18.12,-27.328001,5.816001,eccentric,3,3.0,20808.0,146138.0,234183.0,285017.0,265383.0
2026-04-08 21:36:29.081248,90704,1609503361224987,961191369,-1.120448,0.35136,0.279136,0.315,-5.24125,-8.54,18.240002,-27.560001,6.36,eccentric,3,3.0,20808.0,146138.0,234183.0,285017.0,265383.0
2026-04-08 21:36:29.086320,90705,1609503361239510,961206251,-1.042368,0.2928,0.121024,-0.525,-5.08375,-7.5075,18.032001,-27.056002,3.32,eccentric,3,3.0,20808.0,146138.0,234183.0,285017.0,265383.0
2026-04-08 21:36:29.116498,90706,1609503361248476,961214964,-1.042368,0.2928,0.121024,0.315,-5.145,-7.91875,18.032001,-27.056002,3.32,eccentric,3,3.0,20808.0,146138.0,234183.0,285017.0,265383.0
2026-04-08 21:36:29.120043,90707,1609503361257422,961223649,-1.042368,0.2928,0.121024,3.43875,-2.7475,-9.8875,18.032001,-27.056002,3.32,eccentric,3,3.0,20808.0,146138.0,234183.0,285017.0,265383.0
2026-04-08 21:36:29.150078,90718,1609503361272325,961238603,-1.028704,0.343552,0.26352,7.455,-0.55125,-12.32,18.392,-27.032001,4.528,eccentric,3,3.0,21100.0,147462.0,236013.0,286501.0,266291.0
2026-04-08 21:36:29.152518,90719,1609503361281264,961247297,-1.05408,0.333792,0.288896,8.40875,0.18375,-14.13125,17.720001,-26.800001,5.656,eccentric,3,3.0,21100.0,147462.0,236013.0,286501.0,266291.0
2026-04-08 21:36:29.155028,90720,1609503361295777,961262227,-1.05408,0.333792,0.288896,5.495,0.28875,-15.6975,17.720001,-26.800001,5.656,eccentric,3,3.0,21100.0,147462.0,236013.0,286501.0,266291.0
2026-04-08 21:36:29.157510,90721,1609503361304705,961270903,-1.075552,0.314272,0.31232,-1.015,-1.35625,-15.89,17.84,-26.488,6.128,eccentric,3,3.0,21100.0,147462.0,236013.0,286501.0,266291.0
2026-04-08 21:36:29.187685,90722,1609503361319201,961285767,-1.097024,0.300608,0.101504,-2.40625,-2.4325,-17.15875,17.84,-26.488,6.032,eccentric,3,3.0,21100.0,147462.0,236013.0,286501.0,266291.0
2026-04-08 21:36:29.191224,90723,1609503361328187,961294435,-1.097024,0.300608,0.101504,-1.8375,-1.47875,-21.97125,17.856,-26.28,6.032,eccentric,3,3.0,21100.0,147462.0,236013.0,286501.0,266291.0
2026-04-08 21:36:29.193713,90724,1609503361337132,961303112,-1.097024,0.300608,0.101504,-2.00375,-0.2975,-26.94125,17.856,-26.28,6.032,eccentric,3,3.0,21100.0,147462.0,236013.0,286501.0,266291.0
2026-04-08 21:36:29.197478,90725,1609503361351601,961317980,-1.018944,0.320128,0.265472,0.77875,1.645,-29.12,18.368,-26.128002,6.296001,eccentric,3,3.0,21100.0,147462.0,236013.0,286501.0,266291.0
2026-04-08 21:36:29.206282,90726,1609503361360600,961326706,-1.001376,0.298656,0.363072,0.875,2.0125,-29.2775,18.448,-25.904001,4.016,eccentric,3,3.0,21100.0,147462.0,236013.0,286501.0,266291.0
2026-04-08 21:36:29.262481,90737,1609503361375175,961341792,-1.001376,0.298656,0.363072,-4.4975,-0.315,-28.866251,18.448,-25.904001,4.016,eccentric,3,3.0,21313.0,148568.0,237638.0,287802.0,267029.0
2026-04-08 21:36:29.265008,90738,1609503361384094,961350484,-1.038464,0.220576,0.16592,-5.85375,-2.00375,-30.397501,18.936,-25.424002,5.36,eccentric,3,3.0,21313.0,148568.0,237638.0,287802.0,267029.0
2026-04-08 21:36:29.267514,90739,1609503361398616,961365366,-1.038464,0.220576,0.16592,-6.2475,-2.45,-32.2875,18.936,-25.424002,5.36,eccentric,3,3.0,21313.0,148568.0,237638.0,287802.0,267029.0
2026-04-08 21:36:29.269972,90740,1609503361407613,961374109,-1.05408,0.242048,0.124928,-5.81,-1.67125,-34.18625,18.92,-25.232,5.256,eccentric,3,3.0,21313.0,148568.0,237638.0,287802.0,267029.0
2026-04-08 21:36:29.272469,90741,1609503361416645,961382818,-1.05408,0.242048,0.124928,-3.78,-1.155,-35.72625,18.92,-25.232,5.256,eccentric,3,3.0,21313.0,148568.0,237638.0,287802.0,267029.0
2026-04-08 21:36:29.278798,90742,1609503361431131,961397705,-0.99552,0.25376,0.152256,-0.8925,-1.98625,-37.73,19.424002,-24.936,5.072,eccentric,3,3.0,21313.0,148568.0,237638.0,287802.0,267029.0
2026-04-08 21:36:29.285017,90743,1609503361440070,961406391,-0.901824,0.158112,0.218624,2.87875,-1.67125,-38.87625,19.424002,-24.672,9.68,eccentric,3,3.0,21313.0,148568.0,237638.0,287802.0,267029.0
2026-04-08 21:36:29.335611,90744,1609503361454542,961421260,-0.901824,0.158112,0.218624,1.1725,-0.09625,-39.62,19.192001,-24.672,9.68,eccentric,3,3.0,21313.0,148568.0,237638.0,287802.0,267029.0
2026-04-08 21:36:29.338761,90745,1609503361463427,961429911,-1.05408,0.210816,0.040992,-6.43125,0.30625,-39.48,19.6,-24.144001,5.552,eccentric,3,3.0,21313.0,148568.0,237638.0,287802.0,267029.0
2026-04-08 21:36:29.366320,90756,1609503361478372,961445404,-1.05408,0.210816,0.040992,-11.80375,1.33875,-38.8675,19.6,-24.144001,5.552,eccentric,3,3.0,21387.0,148963.0,238262.0,288314.0,267310.0
2026-04-08 21:36:29.368849,90757,1609503361487297,961454081,-1.040416,0.208864,0.095648,-9.24875,2.77375,-41.25625,20.12,-23.928001,4.448,eccentric,3,3.0,21387.0,148963.0,238262.0,288314.0,267310.0
2026-04-08 21:36:29.371295,90758,1609503361496225,961462743,-1.040416,0.208864,0.095648,-4.94375,2.625,-45.28125,20.12,-23.928001,4.448,eccentric,3,3.0,21387.0,148963.0,238262.0,288314.0,267310.0
2026-04-08 21:36:29.373801,90759,1609503361510745,961477669,-1.022848,0.152256,0.173728,-6.5275,-0.27125,-45.82375,20.032001,-23.344002,6.440001,eccentric,3,3.0,21387.0,148963.0,238262.0,288314.0,267310.0
2026-04-08 21:36:29.376334,90760,1609503361519700,961486374,-1.022848,0.152256,0.173728,-9.38,-1.82,-46.9175,20.032001,-23.344002,6.440001,eccentric,3,3.0,21387.0,148963.0,238262.0,288314.0,267310.0
2026-04-08 21:36:29.381331,90761,1609503361534203,961501267,-0.884256,0.093696,0.222528,-12.8975,-0.95375,-49.74375,20.68,-23.088001,5.264,eccentric,3,3.0,21387.0,148963.0,238262.0,288314.0,267310.0
2026-04-08 21:36:29.412625,90762,1609503361543154,961509929,-0.952576,0.144448,0.247904,-17.00125,-1.4175,-51.73875,20.832,-22.576,6.456,eccentric,3,3.0,21387.0,148963.0,238262.0,288314.0,267310.0
2026-04-08 21:36:29.415087,90763,1609503361552065,961518605,-0.952576,0.144448,0.247904,-12.8975,0.70875,-53.27875,20.832,-22.576,6.456,eccentric,3,3.0,21387.0,148963.0,238262.0,288314.0,267310.0
2026-04-08 21:36:29.419036,90764,1609503361566537,961533498,-0.944768,0.1464,0.26352,-7.55125,0.98875,-52.80625,21.256,-22.152,5.928001,eccentric,3,3.0,21387.0,148963.0,238262.0,288314.0,267310.0
2026-04-08 21:36:29.445056,90775,1609503361575690,961542263,-0.944768,0.1464,0.26352,-6.23,-0.90125,-51.3275,21.256,-22.152,5.928001,eccentric,3,3.0,21398.0,149007.0,238511.0,288549.0,267402.0
2026-04-08 21:36:29.447599,90776,1609503361590199,961557152,-0.925248,0.076128,0.150304,-5.0225,-2.24875,-52.9725,21.528002,-21.560001,6.56,eccentric,3,3.0,21398.0,149007.0,238511.0,288549.0,267402.0
2026-04-08 21:36:29.450095,90777,1609503361599162,961565813,-0.925248,0.076128,0.150304,-10.31625,-4.29625,-54.853752,21.528002,-21.560001,6.56,eccentric,3,3.0,21398.0,149007.0,238511.0,288549.0,267402.0
2026-04-08 21:36:29.481460,90778,1609503361613708,961580727,-0.94672,0.042944,0.134688,-20.8775,-6.02,-54.451252,21.808,-21.392,7.768001,eccentric,3,3.0,21398.0,149007.0,238511.0,288549.0,267402.0
2026-04-08 21:36:29.485147,90779,1609503361622603,961589387,-1.030656,0.101504,0.089792,-24.07125,-5.5475,-52.94625,22.480001,-20.640001,5.960001,eccentric,3,3.0,21398.0,149007.0,238511.0,288549.0,267402.0
2026-04-08 21:36:29.487578,90780,1609503361631518,961598042,-1.030656,0.101504,0.089792,-18.83,-1.28625,-53.7425,22.480001,-20.640001,5.960001,eccentric,3,3.0,21398.0,149007.0,238511.0,288549.0,267402.0
2026-04-08 21:36:29.493799,90781,1609503361646008,961612928,-0.913536,0.060512,0.40016,-6.20375,6.25625,-58.86125,22.800001,-20.584002,5.912,eccentric,3,3.0,21398.0,149007.0,238511.0,288549.0,267402.0
2026-04-08 21:36:29.524110,90782,1609503361654922,961621634,-0.913536,0.060512,0.40016,-7.09625,11.27,-61.66125,22.800001,-20.584002,5.912,eccentric,3,3.0,21398.0,149007.0,238511.0,288549.0,267402.0
2026-04-08 21:36:29.554268,90793,1609503361669423,961636463,-0.938912,0.138592,0.33184,-16.40625,12.11875,-57.4875,23.072,-19.696001,6.152,eccentric,3,3.0,21335.0,148795.0,238294.0,288418.0,267286.0
2026-04-08 21:36:29.560647,90794,1609503361678385,961645190,-0.938912,0.138592,0.33184,-21.55125,8.75,-51.345,23.072,-19.696001,6.152,eccentric,3,3.0,21335.0,148795.0,238294.0,288418.0,267286.0
2026-04-08 21:36:29.562342,90795,1609503361692911,961658127,-0.83936,0.115168,0.275232,-21.72625,3.29875,-48.34375,23.024,-19.608002,6.4,eccentric,3,3.0,21335.0,148795.0,238294.0,288418.0,267286.0
2026-04-08 21:36:29.564835,90796,1609503361702226,961668938,-0.892064,-0.060512,0.230336,-18.45375,0.93625,-49.27125,23.408,-19.0,8.072001,eccentric,3,3.0,21335.0,148795.0,238294.0,288418.0,267286.0
2026-04-08 21:36:29.566387,90797,1609503361711151,961677613,-0.892064,-0.060512,0.230336,-12.87125,5.8275,-51.31875,23.408,-19.0,8.072001,eccentric,3,3.0,21335.0,148795.0,238294.0,288418.0,267286.0
2026-04-08 21:36:29.597546,90798,1609503361725646,961692471,-1.03456,-0.091744,0.183488,-21.28,6.93875,-51.1525,24.456001,-18.592001,7.480001,eccentric,3,3.0,21335.0,148795.0,238294.0,288418.0,267286.0
2026-04-08 21:36:29.600145,90799,1609503361734573,961701204,-1.03456,-0.091744,0.183488,-30.975,3.5875,-48.67625,24.456001,-18.592001,7.480001,eccentric,3,3.0,21335.0,148795.0,238294.0,288418.0,267286.0
2026-04-08 21:36:29.637616,90800,1609503361749043,961716094,-0.870592,0.013664,0.208864,-26.04875,2.10875,-48.20375,24.416,-18.064001,6.576,eccentric,3,3.0,21335.0,148795.0,238294.0,288418.0,267286.0
2026-04-08 21:36:29.644384,90801,1609503361757967,961724742,-0.870592,0.013664,0.208864,-10.745,3.31625,-49.1575,24.416,-18.064001,6.576,eccentric,3,3.0,21335.0,148795.0,238294.0,288418.0,267286.0
2026-04-08 21:36:29.646168,90802,1609503361766890,961733409,-0.88816,0.06832,0.32208,5.2325,6.58875,-49.67375,24.936,-17.76,6.576,eccentric,3,3.0,21335.0,148795.0,238294.0,288418.0,267286.0
2026-04-08 21:36:29.681619,90813,1609503361781403,961748297,-0.88816,0.06832,0.32208,6.23,7.77875,-47.29375,24.936,-17.76,6.576,eccentric,3,3.0,21385.0,148833.0,238332.0,288436.0,267264.0
2026-04-08 21:36:29.685655,90814,1609503361790326,961756999,-0.989664,-0.044896,0.238144,-3.85875,7.77,-45.395,24.952002,-16.800001,5.616,eccentric,3,3.0,21385.0,148833.0,238332.0,288436.0,267264.0
2026-04-08 21:36:29.689029,90815,1609503361804825,961769977,-0.91744,-0.091744,0.347456,-13.76375,5.005,-46.025,25.416,-16.728,6.8,eccentric,3,3.0,21385.0,148833.0,238332.0,288436.0,267264.0
2026-04-08 21:36:29.693106,90816,1609503361814095,961780768,-0.91744,-0.091744,0.347456,-17.89375,0.88375,-44.5025,25.416,-16.728,6.8,eccentric,3,3.0,21385.0,148833.0,238332.0,288436.0,267264.0
2026-04-08 21:36:29.694868,90817,1609503361828643,961795730,-0.837408,0.001952,0.064416,-10.045,1.46125,-42.72625,25.512001,-16.272001,6.496,eccentric,3,3.0,21385.0,148833.0,238332.0,288436.0,267264.0
2026-04-08 21:36:29.696427,90818,1609503361837568,961804422,-0.837408,0.001952,0.064416,2.94875,5.83625,-40.90625,25.512001,-16.272001,6.496,eccentric,3,3.0,21385.0,148833.0,238332.0,288436.0,267264.0
2026-04-08 21:36:29.700502,90819,1609503361846494,961813081,-0.942816,0.040992,0.294752,5.4425,10.07125,-35.245,25.264002,-16.072,7.496,eccentric,3,3.0,21385.0,148833.0,238332.0,288436.0,267264.0
