pc_time,serial_num,sensor_ts,host_ts,ax,ay,az,gx,gy,gz,mx,my,mz,phase,rpe,weight_kg,ppg_a,ppg_b,ppg_c,ppg_d,ppg_e
2026-04-08 21:36:29.729310,90820,1609503361861046,961827982,-0.942816,0.040992,0.294752,-4.41,9.75625,-26.67,25.264002,-16.072,7.496,concentric,3,3.0,21385.0,148833.0,238332.0,288436.0,267264.0
2026-04-08 21:36:29.765607,90832,1609503361870056,961837101,-0.915488,-0.113216,0.27328,-10.675,7.93625,-23.1875,25.840002,-16.264,6.008,concentric,3,3.0,21315.0,148604.0,238008.0,288210.0,267099.0
2026-04-08 21:36:29.767395,90833,1609503361884559,961849962,-1.007232,-0.062464,0.179584,-7.09625,8.21625,-25.66375,25.960001,-15.728001,6.208,concentric,3,3.0,21315.0,148604.0,238008.0,288210.0,267099.0
2026-04-08 21:36:29.768881,90834,1609503361893742,961860828,-1.007232,-0.062464,0.179584,-1.40875,7.39375,-25.3575,25.960001,-15.728001,6.208,concentric,3,3.0,21315.0,148604.0,238008.0,288210.0,267099.0
2026-04-08 21:36:29.773131,90835,1609503361902705,961869617,-1.007232,-0.031232,0.206912,8.32125,6.51875,-21.28,25.960001,-15.728001,6.208,concentric,3,3.0,21315.0,148604.0,238008.0,288210.0,267099.0
2026-04-08 21:36:29.774820,90836,1609503361917205,961882440,-1.030656,-0.023424,0.206912,13.37,3.66625,-20.116251,26.008001,-15.432001,7.072001,concentric,3,3.0,21315.0,148604.0,238008.0,288210.0,267099.0
2026-04-08 21:36:29.776361,90837,1609503361926574,961893233,-0.942816,-0.02928,0.277184,10.0275,-0.3325,-20.46625,26.032001,-15.536001,7.048,concentric,3,3.0,21315.0,148604.0,238008.0,288210.0,267099.0
2026-04-08 21:36:29.823185,90838,1609503361941189,961908172,-0.942816,-0.02928,0.277184,1.925,-0.315,-20.58,26.032001,-15.536001,7.048,concentric,3,3.0,21315.0,148604.0,238008.0,288210.0,267099.0
2026-04-08 21:36:29.824859,90839,1609503361950118,961916831,-0.952576,0.007808,0.101504,-5.5125,1.925,-19.78375,26.216002,-15.152,7.192,concentric,3,3.0,21315.0,148604.0,238008.0,288210.0,267099.0
2026-04-08 21:36:29.826387,90840,1609503361964605,961931691,-0.933056,-0.021472,0.363072,-11.29625,4.0425,-15.96,26.544,-15.592001,8.584001,concentric,3,3.0,21315.0,148604.0,238008.0,288210.0,267099.0
2026-04-08 21:36:29.854854,90851,1609503361973615,961940401,-0.933056,-0.021472,0.363072,-12.88875,4.15625,-11.33125,26.544,-15.592001,8.584001,concentric,3,3.0,21330.0,148659.0,238091.0,288292.0,267139.0
2026-04-08 21:36:29.856404,90852,1609503361982615,961949089,-0.933056,-0.021472,0.363072,-8.6975,2.30125,-7.84,26.544,-15.592001,8.584001,concentric,3,3.0,21330.0,148659.0,238091.0,288292.0,267139.0
2026-04-08 21:36:29.860613,90853,1609503361997270,961964066,-0.923296,-0.128832,0.12688,1.19,1.89875,-6.195,26.560001,-15.072001,7.728,concentric,3,3.0,21330.0,148659.0,238091.0,288292.0,267139.0
2026-04-08 21:36:29.863052,90854,1609503362006186,961972766,-0.890112,-0.033184,0.290848,8.26875,2.835,-5.01375,26.328001,-15.712001,6.472,concentric,3,3.0,21330.0,148659.0,238091.0,288292.0,267139.0
2026-04-08 21:36:29.892208,90855,1609503362020687,961987627,-0.890112,-0.033184,0.290848,7.805,3.395,-1.96875,26.328001,-15.712001,6.472,concentric,3,3.0,21330.0,148659.0,238091.0,288292.0,267139.0
2026-04-08 21:36:29.893630,90856,1609503362029607,961996346,-0.970144,-0.015616,0.095648,1.16375,3.57875,2.17875,26.352001,-15.480001,6.232,concentric,3,3.0,21330.0,148659.0,238091.0,288292.0,267139.0
2026-04-08 21:36:29.895115,90857,1609503362038508,962005000,-0.970144,-0.015616,0.095648,-5.915,0.20125,6.51875,26.352001,-15.480001,6.232,concentric,3,3.0,21330.0,148659.0,238091.0,288292.0,267139.0
2026-04-08 21:36:29.902317,90858,1609503362052985,962019845,-0.909632,-0.101504,0.363072,-6.1425,-4.47125,9.52875,26.632002,-15.944001,6.08,concentric,3,3.0,21330.0,148659.0,238091.0,288292.0,267139.0
2026-04-08 21:36:29.934964,90859,1609503362061906,962028500,-0.909632,-0.101504,0.363072,0.4725,-5.94125,9.72125,26.632002,-15.944001,6.08,concentric,3,3.0,21330.0,148659.0,238091.0,288292.0,267139.0
2026-04-08 21:36:29.962779,90870,1609503362076576,962043426,-0.95648,-0.13664,0.005856,8.21625,-2.9575,9.905,26.464,-15.864,6.432,concentric,3,3.0,21393.0,148911.0,238458.0,288583.0,267314.0
2026-04-08 21:36:29.966891,90871,1609503362085544,962052092,-0.991616,-0.113216,0.017568,7.5425,0.34125,13.72,26.312002,-15.752001,6.288,concentric,3,3.0,21393.0,148911.0,238458.0,288583.0,267314.0
2026-04-08 21:36:29.968591,90872,1609503362100117,962066965,-0.991616,-0.113216,0.017568,-0.60375,0.9975,18.27875,26.312002,-15.752001,6.288,concentric,3,3.0,21393.0,148911.0,238458.0,288583.0,267314.0
2026-04-08 21:36:29.970261,90873,1609503362109143,962075674,-0.9272,-0.1464,0.203008,-8.47875,-1.82875,21.42,25.640001,-15.776001,7.16,concentric,3,3.0,21393.0,148911.0,238458.0,288583.0,267314.0
2026-04-08 21:36:29.974247,90874,1609503362118143,962084389,-0.9272,-0.1464,0.203008,-4.3225,-4.2525,21.79625,25.640001,-15.776001,7.16,concentric,3,3.0,21393.0,148911.0,238458.0,288583.0,267314.0
2026-04-08 21:36:29.980493,90875,1609503362132683,962099277,-1.0248,-0.132736,0.16592,9.44125,-2.94875,18.3575,25.768002,-16.336,6.112001,concentric,3,3.0,21393.0,148911.0,238458.0,288583.0,267314.0
2026-04-08 21:36:30.008964,90876,1609503362141637,962107986,-1.0248,-0.132736,0.16592,20.5275,-0.6125,17.7975,25.768002,-16.336,6.112001,concentric,3,3.0,21393.0,148911.0,238458.0,288583.0,267314.0
2026-04-08 21:36:30.013574,90877,1609503362156157,962122849,-1.089216,-0.044896,0.105408,19.78375,0.72625,19.25875,25.712002,-16.736,5.776001,concentric,3,3.0,21393.0,148911.0,238458.0,288583.0,267314.0
2026-04-08 21:36:30.015141,90878,1609503362165074,962131554,-1.030656,-0.015616,0.173728,13.99125,1.0675,19.285,25.512001,-17.08,5.912,concentric,3,3.0,21393.0,148911.0,238458.0,288583.0,267314.0
2026-04-08 21:36:30.047257,90889,1609503362179594,962146461,-1.030656,-0.015616,0.173728,5.6,-0.70875,21.665,25.512001,-17.08,5.912,concentric,3,3.0,21454.0,149200.0,238841.0,288889.0,267505.0
2026-04-08 21:36:30.048806,90890,1609503362188548,962155210,-0.99552,-0.044896,0.339648,0.175,-2.19625,24.87625,25.624,-17.056002,5.928001,concentric,3,3.0,21454.0,149200.0,238841.0,288889.0,267505.0
2026-04-08 21:36:30.052966,90891,1609503362197609,962163863,-0.99552,-0.044896,0.339648,0.04375,-3.14125,24.4475,25.624,-17.056002,5.928001,concentric,3,3.0,21454.0,149200.0,238841.0,288889.0,267505.0
2026-04-08 21:36:30.058866,90892,1609503362212093,962178829,-0.974048,-0.07808,0.212768,-0.63,-3.94625,26.075,24.664001,-17.408,7.64,concentric,3,3.0,21454.0,149200.0,238841.0,288889.0,267505.0
2026-04-08 21:36:30.091260,90893,1609503362221183,962187507,-0.974048,-0.07808,0.212768,1.72375,-4.795,28.1575,24.664001,-17.408,7.64,concentric,3,3.0,21454.0,149200.0,238841.0,288889.0,267505.0
2026-04-08 21:36:30.093553,90894,1609503362235656,962202371,-0.99552,-0.042944,0.0976,6.15125,-3.71875,30.03875,24.784,-18.016,5.792,concentric,3,3.0,21454.0,149200.0,238841.0,288889.0,267505.0
2026-04-08 21:36:30.098112,90895,1609503362244521,962211024,-0.99552,-0.042944,0.0976,9.905,-2.275,31.10625,24.784,-18.016,5.792,concentric,3,3.0,21454.0,149200.0,238841.0,288889.0,267505.0
2026-04-08 21:36:30.126579,90896,1609503362258982,962225872,-1.020896,0.001952,0.212768,11.52375,-1.51375,31.325,24.704,-17.984001,5.952,concentric,3,3.0,21454.0,149200.0,238841.0,288889.0,267505.0
2026-04-08 21:36:30.132372,90897,1609503362267999,962234571,-0.903776,0.013664,0.337696,9.52875,-1.82875,31.5875,24.904001,-18.08,5.8,concentric,3,3.0,21454.0,149200.0,238841.0,288889.0,267505.0
2026-04-08 21:36:30.160026,90908,1609503362277403,962243443,-0.903776,0.013664,0.337696,8.61,-2.56375,32.41,24.904001,-18.08,5.8,concentric,3,3.0,21527.0,149550.0,239290.0,289175.0,267685.0
2026-04-08 21:36:30.165624,90909,1609503362291971,962258348,-0.987712,0.025376,0.17568,11.52375,-2.2925,34.22125,24.496,-18.768002,5.6,concentric,3,3.0,21527.0,149550.0,239290.0,289175.0,267685.0
2026-04-08 21:36:30.167367,90910,1609503362300947,962267011,-0.987712,0.025376,0.17568,11.6025,-2.21375,35.91,24.496,-18.768002,5.6,concentric,3,3.0,21527.0,149550.0,239290.0,289175.0,267685.0
2026-04-08 21:36:30.168929,90911,1609503362315426,962281947,-0.981856,0.02928,0.066368,7.42,-0.81375,38.0275,23.784,-19.264002,6.520001,concentric,3,3.0,21527.0,149550.0,239290.0,289175.0,267685.0
2026-04-08 21:36:30.173004,90912,1609503362324354,962290632,-0.981856,0.02928,0.066368,2.415,1.07625,39.76,23.784,-19.264002,6.520001,concentric,3,3.0,21527.0,149550.0,239290.0,289175.0,267685.0
2026-04-08 21:36:30.231255,90913,1609503362333272,962299317,-0.981856,0.035136,0.111264,-2.70375,1.93375,41.06375,23.856,-19.664001,3.848,concentric,3,3.0,21527.0,149550.0,239290.0,289175.0,267685.0
2026-04-08 21:36:30.233487,90914,1609503362347757,962314164,-0.98576,0.013664,0.197152,-5.32875,1.93375,42.56875,23.880001,-19.856,3.48,concentric,3,3.0,21527.0,149550.0,239290.0,289175.0,267685.0
2026-04-08 21:36:30.238140,90915,1609503362356665,962322820,-0.98576,0.013664,0.197152,-1.26875,0.88375,44.4325,23.880001,-19.856,3.48,concentric,3,3.0,21527.0,149550.0,239290.0,289175.0,267685.0
2026-04-08 21:36:30.239853,90916,1609503362371151,962337736,-0.972096,0.013664,0.00976,6.965,0.83125,44.7825,23.456001,-20.176,5.72,concentric,3,3.0,21527.0,149550.0,239290.0,289175.0,267685.0
2026-04-08 21:36:30.269833,90927,1609503362380163,962346455,-0.972096,0.013664,0.00976,15.51375,3.85,42.9625,23.456001,-20.176,5.72,concentric,3,3.0,21623.0,149969.0,239744.0,289481.0,267842.0
2026-04-08 21:36:30.272271,90928,1609503362394702,962361349,-1.007232,0.105408,0.054656,17.35125,8.40875,42.37625,23.36,-21.016,5.392,concentric,3,3.0,21623.0,149969.0,239744.0,289481.0,267842.0
2026-04-08 21:36:30.273839,90929,1609503362403648,962370102,-1.007232,0.105408,0.054656,10.87625,11.48875,42.58625,23.36,-21.016,5.392,concentric,3,3.0,21623.0,149969.0,239744.0,289481.0,267842.0
2026-04-08 21:36:30.278117,90930,1609503362412641,962378897,-0.977952,0.101504,0.183488,1.70625,10.07125,44.275,23.024,-21.12,4.968,concentric,3,3.0,21623.0,149969.0,239744.0,289481.0,267842.0
2026-04-08 21:36:30.280567,90931,1609503362427136,962393794,-0.919392,0.113216,0.238144,-3.43,4.4975,45.85875,22.432001,-21.808,6.056,concentric,3,3.0,21623.0,149969.0,239744.0,289481.0,267842.0
2026-04-08 21:36:30.284237,90932,1609503362436135,962402474,-0.919392,0.113216,0.238144,-1.40875,-0.455,45.6575,22.432001,-21.808,6.056,concentric,3,3.0,21623.0,149969.0,239744.0,289481.0,267842.0
2026-04-08 21:36:30.312763,90933,1609503362450607,962417475,-0.915488,0.040992,0.121024,3.5525,-3.05375,44.73,22.608002,-22.224,5.936,concentric,3,3.0,21623.0,149969.0,239744.0,289481.0,267842.0
2026-04-08 21:36:30.316385,90934,1609503362459537,962426160,-0.915488,0.040992,0.121024,5.7575,-1.58375,44.00375,22.608002,-22.224,5.936,concentric,3,3.0,21623.0,149969.0,239744.0,289481.0,267842.0
2026-04-08 21:36:30.344881,90945,1609503362474015,962441059,-0.950624,0.115168,0.294752,3.19375,0.595,43.58375,22.032001,-22.448002,4.912,concentric,3,3.0,21713.0,150424.0,240290.0,289833.0,268091.0
2026-04-08 21:36:30.347307,90946,1609503362482954,962449845,-0.950624,0.115168,0.294752,-2.05625,2.31875,42.28875,22.032001,-22.448002,4.912,concentric,3,3.0,21713.0,150424.0,240290.0,289833.0,268091.0
2026-04-08 21:36:30.348945,90947,1609503362491987,962458595,-1.042368,0.154208,0.124928,-3.59625,2.1875,41.51,21.28,-22.792002,5.824,concentric,3,3.0,21713.0,150424.0,240290.0,289833.0,268091.0
2026-04-08 21:36:30.355485,90948,1609503362506495,962473460,-1.042368,0.154208,0.124928,-3.5,-3.745,42.14,21.28,-22.792002,5.824,concentric,3,3.0,21713.0,150424.0,240290.0,289833.0,268091.0
2026-04-08 21:36:30.384083,90949,1609503362515405,962482114,-0.925248,0.152256,0.128832,3.35125,-11.41,43.015,21.232,-23.344002,5.072,concentric,3,3.0,21713.0,150424.0,240290.0,289833.0,268091.0
2026-04-08 21:36:30.388562,90950,1609503362529869,962496999,-1.030656,0.089792,0.001952,11.6375,-14.9275,40.4425,21.048,-23.832,4.888,concentric,3,3.0,21713.0,150424.0,240290.0,289833.0,268091.0
2026-04-08 21:36:30.390123,90951,1609503362538774,962505677,-1.030656,0.089792,0.001952,11.57625,-13.76375,37.625,21.048,-23.832,4.888,concentric,3,3.0,21713.0,150424.0,240290.0,289833.0,268091.0
2026-04-08 21:36:30.421363,90952,1609503362553310,962518505,-1.04432,0.148352,0.076128,4.2875,-11.445,38.22,20.720001,-24.320002,4.976,concentric,3,3.0,21713.0,150424.0,240290.0,289833.0,268091.0
2026-04-08 21:36:30.425686,90953,1609503362562551,962529232,-1.04432,0.148352,0.076128,-1.84625,-11.795,38.98125,20.720001,-24.320002,4.976,concentric,3,3.0,21713.0,150424.0,240290.0,289833.0,268091.0
2026-04-08 21:36:30.427441,90954,1609503362571507,962537897,-0.983808,0.230336,0.267424,-1.3475,-12.90625,38.885,20.84,-24.392002,4.928001,concentric,3,3.0,21713.0,150424.0,240290.0,289833.0,268091.0
2026-04-08 21:36:30.460579,90965,1609503362586126,962552850,-0.983808,0.230336,0.267424,4.305,-15.68875,37.59875,20.84,-24.392002,4.928001,concentric,3,3.0,21735.0,150661.0,240602.0,290055.0,268284.0
2026-04-08 21:36:30.462452,90966,1609503362595174,962561549,-1.163392,0.134688,0.07808,11.4275,-14.18375,34.60625,20.112001,-24.696001,7.920001,concentric,3,3.0,21735.0,150661.0,240602.0,290055.0,268284.0
2026-04-08 21:36:30.465575,90967,1609503362609714,962576433,-1.0736,0.212768,0.152256,10.92,-11.03375,32.73375,19.736,-25.384,5.36,concentric,3,3.0,21735.0,150661.0,240602.0,290055.0,268284.0
2026-04-08 21:36:30.468099,90968,1609503362618656,962585147,-1.0736,0.212768,0.152256,9.0825,-6.39625,29.04125,19.736,-25.384,5.36,concentric,3,3.0,21735.0,150661.0,240602.0,290055.0,268284.0
2026-04-08 21:36:30.496607,90969,1609503362627579,962593832,-1.0736,0.212768,0.042944,9.17875,1.155,22.51375,19.736,-25.384,5.36,concentric,3,3.0,21735.0,150661.0,240602.0,290055.0,268284.0
2026-04-08 21:36:30.500974,90970,1609503362642103,962608716,-1.071648,0.28304,0.042944,1.98625,5.62625,18.43625,19.76,-25.2,4.48,concentric,3,3.0,21735.0,150661.0,240602.0,290055.0,268284.0
2026-04-08 21:36:30.535035,90971,1609503362651053,962617379,-0.983808,0.298656,0.294752,-7.105,4.6025,19.775,19.584002,-25.400002,4.936,concentric,3,3.0,21735.0,150661.0,240602.0,290055.0,268284.0
2026-04-08 21:36:30.537901,90972,1609503362665550,962632357,-0.983808,0.298656,0.294752,-13.895,2.89625,23.38875,19.584002,-25.400002,4.936,concentric,3,3.0,21735.0,150661.0,240602.0,290055.0,268284.0
2026-04-08 21:36:30.566924,90983,1609503362674469,962641352,-0.983808,0.210816,0.284992,-16.98375,1.46125,24.26375,19.84,-25.672,4.92,concentric,3,3.0,21965.0,151728.0,241903.0,291019.0,268885.0
2026-04-08 21:36:30.568606,90984,1609503362689013,962654188,-0.989664,0.226432,0.27328,-20.81625,-0.63,24.255,19.456001,-25.952002,3.816,concentric,3,3.0,21965.0,151728.0,241903.0,291019.0,268885.0
2026-04-08 21:36:30.570152,90985,1609503362698204,962664906,-0.989664,0.226432,0.27328,-20.7375,-1.58375,23.21375,19.456001,-25.952002,3.816,concentric,3,3.0,21965.0,151728.0,241903.0,291019.0,268885.0
2026-04-08 21:36:30.574369,90986,1609503362707141,962673616,-0.989664,0.226432,0.27328,-13.02875,1.4,18.66375,19.456001,-25.952002,3.816,concentric,3,3.0,21965.0,151728.0,241903.0,291019.0,268885.0
2026-04-08 21:36:30.576127,90987,1609503362721664,962688636,-1.05408,0.25376,0.284992,-7.97125,2.94875,15.00625,19.272001,-25.848001,6.384,concentric,3,3.0,21965.0,151728.0,241903.0,291019.0,268885.0
2026-04-08 21:36:30.577703,90988,1609503362730622,962697312,-1.077504,0.304512,0.226432,-1.72375,3.6575,15.82875,18.888,-25.992,5.960001,concentric,3,3.0,21965.0,151728.0,241903.0,291019.0,268885.0
2026-04-08 21:36:30.611553,90989,1609503362745114,962712176,-1.077504,0.304512,0.226432,3.605,3.92875,15.636251,18.888,-25.992,5.960001,concentric,3,3.0,21965.0,151728.0,241903.0,291019.0,268885.0
2026-04-08 21:36:30.615144,90990,1609503362754031,962720828,-1.016992,0.222528,0.193248,3.35125,0.7,14.30625,19.336,-26.656002,4.92,concentric,3,3.0,21965.0,151728.0,241903.0,291019.0,268885.0
2026-04-08 21:36:30.620645,90991,1609503362768511,962733665,-1.016992,0.222528,0.286944,1.26,-3.40375,13.7725,19.336,-26.656002,4.92,concentric,3,3.0,21965.0,151728.0,241903.0,291019.0,268885.0
2026-04-08 21:36:30.647601,91002,1609503362777840,962744423,-0.989664,0.277184,0.288896,-2.1,-5.32875,12.24125,19.312,-26.44,5.224001,concentric,3,3.0,22127.0,152378.0,242658.0,291504.0,269200.0
2026-04-08 21:36:30.650043,91003,1609503362786888,962753258,-0.989664,0.277184,0.288896,2.19625,-1.56625,6.8075,19.312,-26.44,5.224001,concentric,3,3.0,22127.0,152378.0,242658.0,291504.0,269200.0
2026-04-08 21:36:30.652564,91004,1609503362801453,962768212,-1.0736,0.298656,0.142496,2.975,3.35125,5.5475,19.232,-26.728,5.704001,concentric,3,3.0,22127.0,152378.0,242658.0,291504.0,269200.0
2026-04-08 21:36:30.656335,91005,1609503362810373,962776925,-1.136064,0.33184,0.115168,1.96875,7.83125,7.69125,19.008001,-26.776001,5.216,concentric,3,3.0,22127.0,152378.0,242658.0,291504.0,269200.0
2026-04-08 21:36:30.686572,91006,1609503362824863,962791792,-1.136064,0.33184,0.115168,-2.6425,9.8175,10.63125,19.008001,-26.776001,5.216,concentric,3,3.0,22127.0,152378.0,242658.0,291504.0,269200.0
2026-04-08 21:36:30.690127,91007,1609503362833893,962800450,-1.106784,0.318176,0.179584,-3.54375,10.22,11.917501,19.552,-27.160002,4.408,concentric,3,3.0,22127.0,152378.0,242658.0,291504.0,269200.0
2026-04-08 21:36:30.692611,91008,1609503362842832,962809141,-1.106784,0.318176,0.179584,-4.78625,10.63125,8.79375,19.552,-27.160002,4.408,concentric,3,3.0,22127.0,152378.0,242658.0,291504.0,269200.0
2026-04-08 21:36:30.722814,91009,1609503362857369,962824034,-1.03456,0.275232,0.199104,-7.21,10.22875,3.98125,19.448002,-27.136002,4.672,concentric,3,3.0,22127.0,152378.0,242658.0,291504.0,269200.0
2026-04-08 21:36:30.726401,91010,1609503362866264,962832683,-1.03456,0.275232,0.199104,-7.0525,9.03,-0.95375,19.448002,-27.136002,4.672,concentric,3,3.0,22127.0,152378.0,242658.0,291504.0,269200.0
2026-04-08 21:36:30.753859,91021,1609503362880891,962847600,-1.05408,0.316224,0.310368,-1.86375,8.28625,-5.2325,19.936,-27.296001,4.408,concentric,3,3.0,22064.0,152070.0,242185.0,291138.0,268995.0
2026-04-08 21:36:30.756386,91022,1609503362890005,962856325,-1.118496,0.363072,0.134688,2.555,6.58875,-4.55875,19.936,-27.296001,7.000001,concentric,3,3.0,22064.0,152070.0,242185.0,291138.0,268995.0
2026-04-08 21:36:30.758906,91023,1609503362898933,962865001,-1.118496,0.363072,0.134688,3.22,3.99875,-2.02125,19.456001,-27.368002,7.000001,concentric,3,3.0,22064.0,152070.0,242185.0,291138.0,268995.0
2026-04-08 21:36:30.761289,91024,1609503362913420,962879872,-1.001376,0.294752,0.28304,2.61625,1.855,-4.73375,19.560001,-27.44,5.656,concentric,3,3.0,22064.0,152070.0,242185.0,291138.0,268995.0
2026-04-08 21:36:30.767678,91025,1609503362922359,962888615,-1.001376,0.294752,0.28304,1.33875,-0.02625,-10.535,19.560001,-27.44,5.656,concentric,3,3.0,22064.0,152070.0,242185.0,291138.0,268995.0
2026-04-08 21:36:30.797870,91026,1609503362936836,962903493,-1.097024,0.316224,0.025376,0.0875,-0.60375,-14.2625,20.160002,-27.272001,3.92,concentric,3,3.0,22064.0,152070.0,242185.0,291138.0,268995.0
2026-04-08 21:36:30.834030,91027,1609503362945738,962912161,-1.097024,0.316224,0.025376,-0.72625,-0.16625,-14.945,20.160002,-27.272001,3.92,concentric,3,3.0,22064.0,152070.0,242185.0,291138.0,268995.0
2026-04-08 21:36:30.837551,91028,1609503362960248,962927041,-1.065792,0.335744,0.201056,-0.72625,-1.68875,-13.64125,20.36,-27.552002,3.992,concentric,3,3.0,22064.0,152070.0,242185.0,291138.0,268995.0
2026-04-08 21:36:30.840019,91029,1609503362969146,962935689,-1.065792,0.335744,0.201056,2.38875,-0.8925,-14.04375,20.36,-27.552002,3.992,concentric,3,3.0,22064.0,152070.0,242185.0,291138.0,268995.0
2026-04-08 21:36:30.871344,91040,1609503362983715,962950606,-1.143872,0.363072,0.218624,5.285,0.55125,-16.16125,20.68,-27.544,5.936,concentric,3,3.0,21878.0,151147.0,240877.0,290186.0,268466.0
2026-04-08 21:36:30.873811,91041,1609503362992657,962959288,-1.157536,0.452864,0.267424,5.8275,2.63375,-18.94375,20.872002,-27.536001,3.536,concentric,3,3.0,21878.0,151147.0,240877.0,290186.0,268466.0
2026-04-08 21:36:30.876280,91042,1609503363001624,962968032,-1.157536,0.452864,0.267424,4.8825,5.7925,-19.88875,20.872002,-27.536001,3.536,concentric,3,3.0,21878.0,151147.0,240877.0,290186.0,268466.0
2026-04-08 21:36:30.878862,91043,1609503363016166,962982973,-1.22,0.441152,0.138592,0.7,6.23875,-18.75125,20.952002,-27.136002,4.448,concentric,3,3.0,21878.0,151147.0,240877.0,290186.0,268466.0
2026-04-08 21:36:30.881272,91044,1609503363025066,962991630,-1.22,0.441152,0.138592,-7.84,5.6175,-18.50625,20.952002,-27.136002,4.448,concentric,3,3.0,21878.0,151147.0,240877.0,290186.0,268466.0
2026-04-08 21:36:30.886306,91045,1609503363039574,963006553,-1.077504,0.363072,0.35136,-15.68,4.445,-18.10375,21.632002,-27.264002,4.048,concentric,3,3.0,21878.0,151147.0,240877.0,290186.0,268466.0
2026-04-08 21:36:30.916482,91046,1609503363048525,963015244,-1.077504,0.363072,0.35136,-18.54125,3.3425,-16.94875,21.632002,-27.264002,4.048,concentric,3,3.0,21878.0,151147.0,240877.0,290186.0,268466.0
2026-04-08 21:36:30.920074,91047,1609503363057398,963023892,-1.186816,0.365024,0.093696,-14.3325,4.34875,-15.575,21.784,-27.072,4.576,concentric,3,3.0,21878.0,151147.0,240877.0,290186.0,268466.0
2026-04-08 21:36:30.922618,91048,1609503363071862,963038736,-1.241472,0.415776,0.085888,-8.2075,4.61125,-13.545,21.904001,-26.872002,3.192,concentric,3,3.0,21878.0,151147.0,240877.0,290186.0,268466.0
2026-04-08 21:36:30.950100,91059,1609503363081391,963047678,-1.241472,0.415776,0.085888,-3.99,3.26375,-13.4925,21.904001,-26.872002,3.192,concentric,3,3.0,21595.0,149806.0,239083.0,288849.0,267684.0
2026-04-08 21:36:30.952616,91060,1609503363095968,963062584,-1.221952,0.398208,0.245952,-3.38625,1.42625,-15.14625,21.392,-26.720001,4.696,concentric,3,3.0,21595.0,149806.0,239083.0,288849.0,267684.0
2026-04-08 21:36:30.955121,91061,1609503363105017,963071270,-1.221952,0.398208,0.245952,-5.215,-0.44625,-17.272501,21.392,-26.720001,4.696,concentric,3,3.0,21595.0,149806.0,239083.0,288849.0,267684.0
2026-04-08 21:36:30.985239,91062,1609503363119547,963086208,-1.13216,0.353312,0.28304,-6.2125,-3.045,-17.325,21.976002,-26.616001,4.664,concentric,3,3.0,21595.0,149806.0,239083.0,288849.0,267684.0
2026-04-08 21:36:30.988876,91063,1609503363128451,963094884,-1.13216,0.353312,0.28304,-9.03875,-5.48625,-15.77625,21.976002,-26.616001,4.664,concentric,3,3.0,21595.0,149806.0,239083.0,288849.0,267684.0
2026-04-08 21:36:30.996316,91064,1609503363137350,963103533,-1.098976,0.372832,0.265472,-12.9675,-7.2975,-13.15125,22.44,-26.880001,4.256,concentric,3,3.0,21595.0,149806.0,239083.0,288849.0,267684.0
2026-04-08 21:36:30.998866,91065,1609503363151857,963118388,-1.089216,0.308416,0.339648,-12.94125,-8.2775,-12.5125,22.44,-26.880001,6.288,concentric,3,3.0,21595.0,149806.0,239083.0,288849.0,267684.0
2026-04-08 21:36:31.029031,91066,1609503363160773,963127047,-1.089216,0.308416,0.339648,-7.67375,-7.2975,-13.8425,22.736002,-26.640001,6.288,concentric,3,3.0,21595.0,149806.0,239083.0,288849.0,267684.0
2026-04-08 21:36:31.032597,91067,1609503363175239,963141903,-1.120448,0.329888,0.089792,-10.12375,-6.37,-10.52625,22.296001,-27.000002,4.224,concentric,3,3.0,21595.0,149806.0,239083.0,288849.0,267684.0
2026-04-08 21:36:31.060098,91078,1609503363184317,963150630,-1.120448,0.329888,0.089792,-10.0625,-4.6375,-5.29375,22.296001,-27.000002,4.224,concentric,3,3.0,21539.0,149462.0,238571.0,288421.0,267403.0
2026-04-08 21:36:31.062569,91079,1609503363193259,963159300,-1.079456,0.242048,0.162016,-8.198751,-3.3425,-5.46875,22.016,-26.672,2.2,concentric,3,3.0,21539.0,149462.0,238571.0,288421.0,267403.0
2026-04-08 21:36:31.065098,91080,1609503363207826,963174189,-1.079456,0.242048,0.162016,-8.8025,-2.31,-5.41625,22.016,-26.672,2.2,concentric,3,3.0,21539.0,149462.0,238571.0,288421.0,267403.0
2026-04-08 21:36:31.067592,91081,1609503363216776,963182938,-1.128256,0.271328,0.11712,-7.1925,-1.51375,-0.88375,22.28,-26.480001,4.272,concentric,3,3.0,21539.0,149462.0,238571.0,288421.0,267403.0
2026-04-08 21:36:31.131595,91082,1609503363231261,963197854,-1.128256,0.271328,0.11712,-3.22,-0.0525,-0.8225,22.28,-26.480001,4.272,eccentric,3,3.0,21539.0,149462.0,238571.0,288421.0,267403.0
2026-04-08 21:36:31.138854,91083,1609503363240157,963206503,-1.046272,0.251808,0.28304,1.75875,2.52,0.07875,22.456001,-26.664001,6.872,eccentric,3,3.0,21539.0,149462.0,238571.0,288421.0,267403.0
2026-04-08 21:36:31.141355,91084,1609503363254599,963221351,-1.167296,0.343552,0.238144,4.865,4.64625,2.555,22.376001,-26.632002,3.96,eccentric,3,3.0,21539.0,149462.0,238571.0,288421.0,267403.0
2026-04-08 21:36:31.143847,91085,1609503363263530,963230054,-1.167296,0.343552,0.238144,6.65875,6.55375,3.05375,22.376001,-26.632002,3.96,eccentric,3,3.0,21539.0,149462.0,238571.0,288421.0,267403.0
2026-04-08 21:36:31.146372,91086,1609503363272453,963238749,-1.182912,0.290848,0.105408,5.95,6.755,1.9775,22.376001,-26.632002,6.8,eccentric,3,3.0,21539.0,149462.0,238571.0,288421.0,267403.0
2026-04-08 21:36:31.185118,91097,1609503363286938,963253733,-1.175104,0.290848,0.105408,1.82,5.87125,2.8,22.352001,-26.392002,6.8,eccentric,3,3.0,21453.0,149059.0,238006.0,287938.0,267130.0
2026-04-08 21:36:31.187589,91098,1609503363295836,963262408,-1.177056,0.2928,0.154208,0.88375,5.145,3.85,22.232,-26.744001,4.08,eccentric,3,3.0,21453.0,149059.0,238006.0,287938.0,267130.0
2026-04-08 21:36:31.190119,91099,1609503363310393,963277415,-1.177056,0.2928,0.154208,2.5375,4.01625,3.395,22.232,-26.744001,4.08,eccentric,3,3.0,21453.0,149059.0,238006.0,287938.0,267130.0
2026-04-08 21:36:31.192474,91100,1609503363319402,963286130,-1.136064,0.310368,0.304512,4.24375,3.675,2.61625,21.912,-26.6,5.664,eccentric,3,3.0,21453.0,149059.0,238006.0,287938.0,267130.0
2026-04-08 21:36:31.195043,91101,1609503363333905,963301044,-1.128256,0.329888,0.343552,7.14875,3.22,4.025,22.312,-26.424002,3.944,eccentric,3,3.0,21453.0,149059.0,238006.0,287938.0,267130.0
2026-04-08 21:36:31.197561,91102,1609503363342834,963309745,-1.128256,0.329888,0.343552,11.8825,3.2725,3.68375,22.312,-26.424002,3.944,eccentric,3,3.0,21453.0,149059.0,238006.0,287938.0,267130.0
2026-04-08 21:36:31.200166,91103,1609503363351791,963318418,-1.128256,0.329888,0.343552,14.8575,2.91375,2.9575,22.312,-26.424002,3.944,eccentric,3,3.0,21453.0,149059.0,238006.0,287938.0,267130.0
2026-04-08 21:36:31.230398,91104,1609503363366269,963333266,-1.110688,0.33184,0.314272,14.7175,1.93375,3.08875,22.112001,-26.744001,4.816001,eccentric,3,3.0,21453.0,149059.0,238006.0,287938.0,267130.0
2026-04-08 21:36:31.233873,91105,1609503363375285,963341938,-1.184864,0.335744,0.339648,14.69125,1.1725,2.555,22.024,-26.848001,3.352,eccentric,3,3.0,21453.0,149059.0,238006.0,287938.0,267130.0
2026-04-08 21:36:31.261730,91116,1609503363389857,963356852,-1.184864,0.335744,0.339648,12.83625,0.97125,3.12375,22.024,-26.848001,3.352,eccentric,3,3.0,21260.0,148260.0,236989.0,287208.0,266683.0
2026-04-08 21:36:31.263911,91117,1609503363398799,963365512,-1.1712,0.398208,0.281088,8.18125,0.105,4.585,21.792002,-26.736002,3.768,eccentric,3,3.0,21260.0,148260.0,236989.0,287208.0,266683.0
2026-04-08 21:36:31.270114,91118,1609503363413390,963380420,-1.186816,0.396256,0.357216,6.34375,0.21,3.675,21.792002,-26.736002,3.184,eccentric,3,3.0,21260.0,148260.0,236989.0,287208.0,266683.0
2026-04-08 21:36:31.272563,91119,1609503363422329,963389184,-1.177056,0.396256,0.357216,9.09125,0.665,3.29875,22.008001,-26.896002,3.184,eccentric,3,3.0,21260.0,148260.0,236989.0,287208.0,266683.0
2026-04-08 21:36:31.277627,91120,1609503363431247,963397851,-1.177056,0.396256,0.357216,12.85375,1.015,4.34875,22.008001,-26.896002,3.184,eccentric,3,3.0,21260.0,148260.0,236989.0,287208.0,266683.0
2026-04-08 21:36:31.307768,91121,1609503363445733,963412747,-1.272704,0.36112,0.12688,12.705,1.2425,6.755,21.216002,-26.680002,5.432,eccentric,3,3.0,21260.0,148260.0,236989.0,287208.0,266683.0
2026-04-08 21:36:31.311346,91122,1609503363454663,963421406,-1.202432,0.335744,0.101504,12.6175,1.88125,7.4375,21.088001,-27.080002,2.224,eccentric,3,3.0,21260.0,148260.0,236989.0,287208.0,266683.0
2026-04-08 21:36:31.313926,91123,1609503363469164,963434310,-1.202432,0.335744,0.101504,13.3875,2.485,6.04625,21.088001,-27.080002,2.224,eccentric,3,3.0,21260.0,148260.0,236989.0,287208.0,266683.0
2026-04-08 21:36:31.372581,91134,1609503363478326,963445430,-1.175104,0.376736,0.0976,15.47875,1.5225,5.425,20.872002,-27.192001,3.2,eccentric,3,3.0,21243.0,148172.0,236935.0,287203.0,266699.0
2026-04-08 21:36:31.375065,91135,1609503363492783,963458235,-1.175104,0.376736,0.0976,15.0325,0.035,6.23875,20.872002,-27.192001,3.2,eccentric,3,3.0,21243.0,148172.0,236935.0,287203.0,266699.0
2026-04-08 21:36:31.377608,91136,1609503363501993,963468977,-1.243424,0.3904,0.15616,13.64125,-2.54625,6.32625,20.856,-27.248001,3.112,eccentric,3,3.0,21243.0,148172.0,236935.0,287203.0,266699.0
2026-04-08 21:36:31.380108,91137,1609503363511030,963477647,-1.243424,0.3904,0.15616,11.68125,-4.96125,4.97,20.856,-27.248001,3.112,eccentric,3,3.0,21243.0,148172.0,236935.0,287203.0,266699.0
2026-04-08 21:36:31.382639,91138,1609503363525550,963492526,-1.16144,0.337696,0.294752,12.3375,-6.3525,3.9375,20.336,-26.776001,3.864,eccentric,3,3.0,21243.0,148172.0,236935.0,287203.0,266699.0
2026-04-08 21:36:31.385126,91139,1609503363534489,963501178,-1.147776,0.325984,0.10736,12.11875,-7.525,2.135,22.384,-27.112001,3.392,eccentric,3,3.0,21243.0,148172.0,236935.0,287203.0,266699.0
2026-04-08 21:36:31.432826,91140,1609503363549059,963516081,-1.147776,0.325984,0.10736,11.61125,-7.735,2.21375,20.68,-27.112001,3.392,eccentric,3,3.0,21243.0,148172.0,236935.0,287203.0,266699.0
2026-04-08 21:36:31.436608,91141,1609503363557956,963524739,-1.075552,0.33184,0.138592,9.63375,-8.56625,1.6625,20.44,-26.952002,3.784,eccentric,3,3.0,21243.0,148172.0,236935.0,287203.0,266699.0
2026-04-08 21:36:31.438926,91142,1609503363566873,963533395,-1.075552,0.33184,0.138592,7.06125,-8.86375,-2.38,20.44,-26.952002,3.784,eccentric,3,3.0,21243.0,148172.0,236935.0,287203.0,266699.0
2026-04-08 21:36:31.466355,91153,1609503363581724,963548475,-1.095072,0.284992,0.33184,3.42125,-7.72625,-5.83625,20.352001,-26.584002,3.04,eccentric,3,3.0,21358.0,148746.0,237782.0,287915.0,267116.0
2026-04-08 21:36:31.468872,91154,1609503363590684,963557121,-1.095072,0.284992,0.33184,4.57625,-7.06125,-5.78375,20.352001,-26.584002,3.04,eccentric,3,3.0,21358.0,148746.0,237782.0,287915.0,267116.0
2026-04-08 21:36:31.471374,91155,1609503363605346,963572044,-1.198528,0.320128,0.16592,9.03,-4.8475,-6.11625,20.016,-26.816002,4.056,eccentric,3,3.0,21358.0,148746.0,237782.0,287915.0,267116.0
2026-04-08 21:36:31.477812,91156,1609503363614358,963580738,-1.198528,0.320128,0.033184,11.38375,-2.45875,-10.24625,20.016,-26.816002,4.056,eccentric,3,3.0,21358.0,148746.0,237782.0,287915.0,267116.0
2026-04-08 21:36:31.480179,91157,1609503363628870,963595627,-1.138016,0.347456,0.033184,8.89,-1.51375,-14.00875,20.2,-26.672,4.328,eccentric,3,3.0,21358.0,148746.0,237782.0,287915.0,267116.0
2026-04-08 21:36:31.483945,91158,1609503363637814,963604330,-1.067744,0.277184,0.070272,4.305,-0.49875,-17.885,20.352001,-26.432001,3.168,eccentric,3,3.0,21358.0,148746.0,237782.0,287915.0,267116.0
2026-04-08 21:36:31.514108,91159,1609503363646881,963613022,-1.067744,0.277184,0.070272,0.28875,-0.07875,-20.65875,20.352001,-26.432001,3.168,eccentric,3,3.0,21358.0,148746.0,237782.0,287915.0,267116.0
2026-04-08 21:36:31.517697,91160,1609503363661355,963627923,-1.061888,0.22448,0.167872,-5.705,-1.4525,-23.33625,20.328001,-26.232,3.368,eccentric,3,3.0,21358.0,148746.0,237782.0,287915.0,267116.0
2026-04-08 21:36:31.520132,91161,1609503363670263,963636586,-1.061888,0.22448,0.167872,-7.51625,-3.71,-25.095,20.328001,-26.232,3.368,eccentric,3,3.0,21358.0,148746.0,237782.0,287915.0,267116.0
2026-04-08 21:36:31.555163,91172,1609503363684997,963651564,-1.05408,0.187392,0.089792,-5.45125,-4.935,-25.515,20.664001,-25.712002,3.176,eccentric,3,3.0,21501.0,149540.0,238991.0,288832.0,267650.0
2026-04-08 21:36:31.560130,91173,1609503363693960,963660278,-1.05408,0.187392,0.089792,-3.22,-5.85375,-27.04625,20.664001,-25.712002,3.176,eccentric,3,3.0,21501.0,149540.0,238991.0,288832.0,267650.0
2026-04-08 21:36:31.562606,91174,1609503363702894,963669009,-0.96624,0.21472,0.150304,-2.5725,-4.095,-31.85875,20.640001,-25.536001,5.008,eccentric,3,3.0,21501.0,149540.0,238991.0,288832.0,267650.0
2026-04-08 21:36:31.565189,91175,1609503363717395,963683944,-1.052128,0.28304,0.124928,-3.29875,-2.7475,-35.44625,20.648,-25.424002,4.032,eccentric,3,3.0,21501.0,149540.0,238991.0,288832.0,267650.0
2026-04-08 21:36:31.572580,91176,1609503363726362,963692599,-1.052128,0.28304,0.124928,-3.66625,-2.40625,-33.7925,20.648,-25.424002,4.032,eccentric,3,3.0,21501.0,149540.0,238991.0,288832.0,267650.0
2026-04-08 21:36:31.601608,91177,1609503363740841,963707475,-1.046272,0.128832,0.10736,-4.4975,-4.17375,-33.0225,21.080002,-24.984001,4.096,eccentric,3,3.0,21501.0,149540.0,238991.0,288832.0,267650.0
2026-04-08 21:36:31.605150,91178,1609503363749752,963716121,-1.046272,0.128832,0.10736,-8.68875,-7.11375,-35.0,21.080002,-24.984001,4.096,eccentric,3,3.0,21501.0,149540.0,238991.0,288832.0,267650.0
2026-04-08 21:36:31.611399,91179,1609503363764196,963730993,-1.038464,0.160064,0.00976,-15.02375,-8.68875,-35.88375,21.176,-24.768002,4.152,eccentric,3,3.0,21501.0,149540.0,238991.0,288832.0,267650.0
2026-04-08 21:36:31.642892,91180,1609503363773090,963739639,-1.038464,0.160064,0.00976,-14.83125,-7.735,-39.80375,21.176,-24.768002,4.152,eccentric,3,3.0,21501.0,149540.0,238991.0,288832.0,267650.0
2026-04-08 21:36:31.671473,91191,1609503363782038,963748326,-1.016992,0.187392,0.261568,-7.7525,-5.11,-44.73875,21.624,-24.336,3.976,eccentric,3,3.0,21570.0,149754.0,239343.0,289130.0,267773.0
2026-04-08 21:36:31.673860,91192,1609503363796630,963763263,-1.042368,0.210816,0.316224,-3.885,-5.15375,-44.6775,21.688002,-23.824001,3.92,eccentric,3,3.0,21570.0,149754.0,239343.0,289130.0,267773.0
2026-04-08 21:36:31.676340,91193,1609503363805635,963771969,-1.042368,0.210816,0.316224,-0.44625,-6.02,-43.076252,21.688002,-23.824001,3.92,eccentric,3,3.0,21570.0,149754.0,239343.0,289130.0,267773.0
2026-04-08 21:36:31.678843,91194,1609503363820246,963786897,-0.925248,0.085888,0.181536,0.42875,-5.7925,-44.4325,22.056002,-23.392,4.408,eccentric,3,3.0,21570.0,149754.0,239343.0,289130.0,267773.0
2026-04-08 21:36:31.681340,91195,1609503363829151,963795588,-0.925248,0.085888,0.181536,-9.35375,-3.66625,-47.04875,22.056002,-23.392,4.408,eccentric,3,3.0,21570.0,149754.0,239343.0,289130.0,267773.0
2026-04-08 21:36:31.735854,91196,1609503363843646,963810448,-1.001376,0.07808,-0.005856,-20.3,-1.925,-48.30875,22.144001,-23.088001,4.368,eccentric,3,3.0,21570.0,149754.0,239343.0,289130.0,267773.0
2026-04-08 21:36:31.738179,91197,1609503363852572,963819225,-1.001376,0.07808,-0.005856,-28.32375,-0.16625,-47.55625,22.144001,-23.088001,4.368,eccentric,3,3.0,21570.0,149754.0,239343.0,289130.0,267773.0
2026-04-08 21:36:31.740288,91198,1609503363861481,963827857,-0.903776,0.140544,0.407968,-29.365,-1.1025,-46.01625,22.752,-22.504002,4.856,eccentric,3,3.0,21570.0,149754.0,239343.0,289130.0,267773.0
2026-04-08 21:36:31.741723,91199,1609503363875967,963842672,-0.903776,0.140544,0.173728,-19.81,-0.53375,-47.81,22.752,-22.504002,4.856,eccentric,3,3.0,21570.0,149754.0,239343.0,289130.0,267773.0
2026-04-08 21:36:31.772343,91210,1609503363885466,963851744,-0.874496,-0.021472,0.171776,-17.22875,2.05625,-50.26,22.824001,-21.984001,5.68,eccentric,3,3.0,21577.0,149926.0,239706.0,289440.0,267893.0
2026-04-08 21:36:31.773896,91211,1609503363900091,963866725,-0.964288,-0.0488,0.013664,-27.2125,4.655,-50.04125,23.2,-21.472,5.576,eccentric,3,3.0,21577.0,149926.0,239706.0,289440.0,267893.0
2026-04-08 21:36:31.778168,91212,1609503363909021,963875424,-0.964288,-0.0488,0.013664,-33.25,8.47,-49.72625,23.2,-21.472,5.576,eccentric,3,3.0,21577.0,149926.0,239706.0,289440.0,267893.0
2026-04-08 21:36:31.779939,91213,1609503363918113,963884118,-0.925248,0.06832,0.12688,-34.02875,10.94625,-47.95,23.000002,-20.808,5.632,eccentric,3,3.0,21577.0,149926.0,239706.0,289440.0,267893.0
2026-04-08 21:36:31.781429,91214,1609503363932635,963899023,-0.925248,0.06832,0.12688,-24.4125,8.68,-43.93375,23.000002,-20.808,5.632,eccentric,3,3.0,21577.0,149926.0,239706.0,289440.0,267893.0
2026-04-08 21:36:31.789279,91215,1609503363941639,963907831,-0.954528,0.005856,0.109312,-4.68125,10.14125,-45.21125,23.616001,-20.696001,6.12,eccentric,3,3.0,21577.0,149926.0,239706.0,289440.0,267893.0
2026-04-08 21:36:31.818658,91216,1609503363956161,963922723,-0.954528,0.005856,0.109312,1.9775,11.7425,-48.2475,23.616001,-20.696001,6.12,eccentric,3,3.0,21577.0,149926.0,239706.0,289440.0,267893.0
2026-04-08 21:36:31.822376,91217,1609503363965062,963931382,-0.96624,-0.056608,0.181536,-7.9625,12.73125,-47.74,23.984001,-20.128,4.864,eccentric,3,3.0,21577.0,149926.0,239706.0,289440.0,267893.0
2026-04-08 21:36:31.830521,91218,1609503363979533,963946219,-1.026752,0.07808,0.31232,-20.965,13.95625,-44.52,24.448002,-20.024,4.816001,eccentric,3,3.0,21577.0,149926.0,239706.0,289440.0,267893.0
2026-04-08 21:36:31.858167,91229,1609503363988514,963954986,-1.026752,0.07808,0.31232,-31.24625,11.08625,-40.3025,24.448002,-20.024,4.816001,eccentric,3,3.0,21566.0,149834.0,239642.0,289366.0,267830.0
2026-04-08 21:36:31.859893,91230,1609503363997585,963963661,-0.903776,0.085888,0.32208,-25.83875,10.01,-40.888752,24.448002,-19.136002,5.960001,eccentric,3,3.0,21566.0,149834.0,239642.0,289366.0,267830.0
2026-04-08 21:36:31.861434,91231,1609503364012071,963978547,-0.903776,0.085888,0.32208,-14.79625,10.955,-45.91125,24.352001,-19.136002,5.960001,eccentric,3,3.0,21566.0,149834.0,239642.0,289366.0,267830.0
2026-04-08 21:36:31.869337,91232,1609503364020987,963987215,-0.962336,-0.050752,0.242048,-5.13625,14.6825,-47.88,24.496,-18.784,5.976,eccentric,3,3.0,21566.0,149834.0,239642.0,289366.0,267830.0
2026-04-08 21:36:31.898396,91233,1609503364035446,964002210,-0.962336,-0.050752,0.242048,-6.55375,16.38,-47.10125,24.496,-18.784,5.976,eccentric,3,3.0,21566.0,149834.0,239642.0,289366.0,267830.0
2026-04-08 21:36:31.901470,91234,1609503364044338,964010893,-1.100928,-0.140544,0.037088,-17.24625,15.16375,-45.5875,25.240002,-18.584002,6.048,eccentric,3,3.0,21566.0,149834.0,239642.0,289366.0,267830.0
2026-04-08 21:36:31.906446,91235,1609503364058825,964025746,-0.860832,0.005856,0.119072,-25.515,13.2825,-44.03,25.552002,-17.84,4.768,eccentric,3,3.0,21566.0,149834.0,239642.0,289366.0,267830.0
2026-04-08 21:36:31.936623,91236,1609503364067846,964034411,-0.860832,0.005856,0.119072,-17.45625,14.096251,-45.4475,25.552002,-17.84,4.768,eccentric,3,3.0,21566.0,149834.0,239642.0,289366.0,267830.0
2026-04-08 21:36:31.940216,91237,1609503364076830,964043103,-0.860832,0.005856,0.119072,-0.60375,20.08125,-50.77625,25.552002,-17.84,4.768,eccentric,3,3.0,21566.0,149834.0,239642.0,289366.0,267830.0
2026-04-08 21:36:31.972459,91248,1609503364091398,964058019,-0.968192,0.042944,0.30256,5.8975,19.29375,-48.7025,25.896002,-17.624,3.888,eccentric,3,3.0,21555.0,149713.0,239431.0,289191.0,267700.0
2026-04-08 21:36:31.974036,91249,1609503364100276,964066699,-0.901824,-0.101504,0.162016,4.34,17.29,-44.9575,26.072,-17.232,5.544,eccentric,3,3.0,21555.0,149713.0,239431.0,289191.0,267700.0
2026-04-08 21:36:31.976968,91250,1609503364114905,964081585,-0.901824,-0.101504,0.162016,-2.82625,15.9425,-44.5375,26.072,-17.232,5.544,eccentric,3,3.0,21555.0,149713.0,239431.0,289191.0,267700.0
2026-04-08 21:36:31.979464,91251,1609503364123909,964090359,-0.960384,-0.056608,0.00976,-10.71,18.3575,-42.60375,26.176,-16.688002,5.32,eccentric,3,3.0,21555.0,149713.0,239431.0,289191.0,267700.0
2026-04-08 21:36:31.981364,91252,1609503364132810,964099035,-0.960384,-0.056608,0.00976,-16.37125,22.522501,-39.27875,26.176,-16.688002,5.32,eccentric,3,3.0,21555.0,149713.0,239431.0,289191.0,267700.0
2026-04-08 21:36:32.031648,91253,1609503364147279,964113936,-0.976,-0.025376,0.113216,-19.81875,24.045,-36.3825,26.712002,-16.848001,4.552,eccentric,3,3.0,21555.0,149713.0,239431.0,289191.0,267700.0
2026-04-08 21:36:32.035149,91254,1609503364156266,964122598,-0.976,-0.025376,0.113216,-17.29,19.88875,-33.74875,26.712002,-16.848001,4.552,eccentric,3,3.0,21555.0,149713.0,239431.0,289191.0,267700.0
2026-04-08 21:36:32.037651,91255,1609503364170763,964137539,-0.8296,-0.109312,0.324032,-10.56125,13.79875,-32.64625,26.856,-16.2,3.736,eccentric,3,3.0,21555.0,149713.0,239431.0,289191.0,267700.0
2026-04-08 21:36:32.040089,91256,1609503364179651,964146203,-0.83936,-0.083936,0.023424,2.61625,12.43375,-32.357502,26.952002,-15.968,5.416,eccentric,3,3.0,21555.0,149713.0,239431.0,289191.0,267700.0
2026-04-08 21:36:32.067646,91267,1609503364194237,964159453,-0.83936,-0.083936,0.023424,11.6725,14.72625,-28.37625,26.952002,-15.968,5.416,eccentric,3,3.0,21616.0,149891.0,239614.0,289263.0,267726.0
2026-04-08 21:36:32.070086,91268,1609503364203474,964170280,-0.981856,-0.00976,0.189344,5.3025,14.95375,-20.13375,26.792002,-15.848001,5.808,eccentric,3,3.0,21616.0,149891.0,239614.0,289263.0,267726.0
2026-04-08 21:36:32.072596,91269,1609503364212429,964178992,-0.981856,-0.00976,0.189344,-6.44875,10.89375,-13.16,26.792002,-15.848001,5.808,eccentric,3,3.0,21616.0,149891.0,239614.0,289263.0,267726.0
2026-04-08 21:36:32.075048,91270,1609503364226966,964193961,-0.95648,-0.093696,0.081984,-8.1725,6.0375,-10.17625,26.760002,-15.288001,5.24,eccentric,3,3.0,21616.0,149891.0,239614.0,289263.0,267726.0
2026-04-08 21:36:32.106282,91271,1609503364235980,964202637,-0.95648,-0.093696,0.081984,-0.2275,3.4475,-8.95125,26.760002,-15.288001,5.24,eccentric,3,3.0,21616.0,149891.0,239614.0,289263.0,267726.0
2026-04-08 21:36:32.108562,91272,1609503364250460,964217499,-0.892064,-0.037088,0.183488,12.64375,4.935,-6.79875,26.976002,-15.664001,4.024,eccentric,3,3.0,21616.0,149891.0,239614.0,289263.0,267726.0
2026-04-08 21:36:32.113124,91273,1609503364259393,964226157,-1.007232,0.003904,0.140544,14.9975,6.27375,-1.8375,26.976002,-15.608001,5.136,eccentric,3,3.0,21616.0,149891.0,239614.0,289263.0,267726.0
2026-04-08 21:36:32.141592,91274,1609503364273908,964241047,-1.007232,0.003904,0.140544,5.39,6.4225,2.84375,27.296001,-15.608001,5.136,eccentric,3,3.0,21616.0,149891.0,239614.0,289263.0,267726.0
2026-04-08 21:36:32.171949,91285,1609503364282808,964249693,-1.04432,-0.08784,0.095648,-3.22875,5.5825,5.22375,27.272001,-15.616001,4.064,eccentric,3,3.0,21631.0,150020.0,239810.0,289500.0,267880.0
2026-04-08 21:36:32.173652,91286,1609503364291743,964258428,-1.04432,-0.08784,0.095648,-4.54125,4.73375,6.335,27.272001,-15.616001,4.064,eccentric,3,3.0,21631.0,150020.0,239810.0,289500.0,267880.0
2026-04-08 21:36:32.175336,91287,1609503364306244,964273412,-0.95648,-0.081984,0.20496,0.90125,3.4475,6.27375,26.936,-15.496,1.872,eccentric,3,3.0,21631.0,150020.0,239810.0,289500.0,267880.0
2026-04-08 21:36:32.179404,91288,1609503364315176,964282111,-0.95648,-0.081984,0.20496,10.10625,-0.0525,6.78125,26.936,-15.496,1.872,eccentric,3,3.0,21631.0,150020.0,239810.0,289500.0,267880.0
2026-04-08 21:36:32.180980,91289,1609503364329868,964296989,-0.929152,-0.037088,0.222528,18.165,-2.9225,8.33875,27.024002,-16.16,3.752,eccentric,3,3.0,21631.0,150020.0,239810.0,289500.0,267880.0
2026-04-08 21:36:32.211678,91290,1609503364338800,964305665,-0.929152,-0.037088,0.222528,19.13625,-3.42125,9.511251,27.024002,-16.16,3.752,eccentric,3,3.0,21631.0,150020.0,239810.0,289500.0,267880.0
2026-04-08 21:36:32.213559,91291,1609503364353265,964318476,-0.923296,0.013664,0.113216,13.195,-1.6625,12.635,26.888,-16.392,3.576,eccentric,3,3.0,21631.0,150020.0,239810.0,289500.0,267880.0
2026-04-08 21:36:32.219757,91292,1609503364362427,964329191,-0.954528,-0.023424,0.265472,3.325,0.25375,16.275,26.904001,-16.496,3.944,eccentric,3,3.0,21631.0,150020.0,239810.0,289500.0,267880.0
2026-04-08 21:36:32.221522,91293,1609503364371327,964337836,-0.954528,-0.023424,0.265472,-2.66875,0.60375,19.06625,26.904001,-16.496,3.944,eccentric,3,3.0,21631.0,150020.0,239810.0,289500.0,267880.0
2026-04-08 21:36:32.275212,91304,1609503364386086,964352709,-1.022848,-0.119072,0.0,-1.02375,-0.63875,20.4925,26.344002,-16.664001,5.616,eccentric,3,3.0,21737.0,150484.0,240410.0,289938.0,268145.0
2026-04-08 21:36:32.279407,91305,1609503364395057,964361453,-1.022848,-0.119072,0.0,6.60625,-1.2425,19.7575,26.344002,-16.664001,5.616,eccentric,3,3.0,21737.0,150484.0,240410.0,289938.0,268145.0
2026-04-08 21:36:32.281134,91306,1609503364409568,964376302,-0.958432,-0.040992,0.035136,12.71375,-0.44625,19.48625,26.664001,-16.880001,3.6,eccentric,3,3.0,21737.0,150484.0,240410.0,289938.0,268145.0
2026-04-08 21:36:32.283136,91307,1609503364418530,964385032,-0.958432,-0.040992,0.035136,14.70875,0.88375,20.71125,26.664001,-16.880001,3.6,eccentric,3,3.0,21737.0,150484.0,240410.0,289938.0,268145.0
2026-04-08 21:36:32.286097,91308,1609503364427506,964393754,-1.018944,0.054656,-0.023424,8.26875,0.46375,22.925,26.296001,-17.240002,3.28,eccentric,3,3.0,21737.0,150484.0,240410.0,289938.0,268145.0
2026-04-08 21:36:32.287667,91309,1609503364442069,964408631,-0.91744,-0.017568,0.15616,-0.4025,-1.95125,27.0025,26.072,-17.672,5.096,eccentric,3,3.0,21737.0,150484.0,240410.0,289938.0,268145.0
