pc_time,serial_num,sensor_ts,host_ts,ax,ay,az,gx,gy,gz,mx,my,mz,phase,rpe,weight_kg,ppg_a,ppg_b,ppg_c,ppg_d,ppg_e
2026-04-08 21:38:00.618419,107910,1609503452743334,1052710368,-1.081408,-0.0976,0.132736,-1.51375,-0.91,15.6975,24.416,-15.488001,8.432,concentric,4,3.0,20948.0,149786.0,241294.0,290773.0,268646.0
2026-04-08 21:38:00.624922,107911,1609503452752232,1052719033,-1.081408,-0.0976,0.132736,-9.3975,-0.8225,14.8575,24.416,-15.488001,8.432,concentric,4,3.0,20948.0,149786.0,241294.0,290773.0,268646.0
2026-04-08 21:38:00.652358,107922,1609503452766724,1052731926,-1.10288,-0.095648,0.177632,-9.98375,-1.0675,11.97875,24.952002,-16.024,7.232,concentric,4,3.0,21086.0,150455.0,242114.0,291279.0,268909.0
2026-04-08 21:38:00.654875,107923,1609503452775914,1052742694,-1.10288,-0.095648,0.148352,-3.57875,-0.70875,9.23125,24.952002,-16.024,7.232,concentric,4,3.0,21086.0,150455.0,242114.0,291279.0,268909.0
2026-04-08 21:38:00.659853,107924,1609503452784960,1052751379,-1.118496,-0.05856,0.148352,5.97625,0.49875,7.245,24.784,-16.128,5.84,concentric,4,3.0,21086.0,150455.0,242114.0,291279.0,268909.0
2026-04-08 21:38:00.662320,107925,1609503452799573,1052766238,-1.06384,-0.074176,0.183488,7.81375,-0.55125,7.0525,24.528002,-15.984001,8.120001,concentric,4,3.0,21086.0,150455.0,242114.0,291279.0,268909.0
2026-04-08 21:38:00.664777,107926,1609503452808594,1052774958,-1.06384,-0.074176,0.183488,3.5525,-2.345,6.685,24.528002,-15.984001,8.120001,concentric,4,3.0,21086.0,150455.0,242114.0,291279.0,268909.0
2026-04-08 21:38:00.702736,107927,1609503452823095,1052789829,-1.069696,-0.093696,0.093696,-0.2275,-2.73875,5.635,24.376001,-15.848001,8.504001,concentric,4,3.0,21086.0,150455.0,242114.0,291279.0,268909.0
2026-04-08 21:38:00.706050,107928,1609503452832087,1052798494,-1.069696,-0.093696,0.093696,-5.1275,-1.365,5.43375,24.376001,-15.848001,8.504001,concentric,4,3.0,21086.0,150455.0,242114.0,291279.0,268909.0
2026-04-08 21:38:00.708585,107929,1609503452846572,1052813334,-0.991616,-0.052704,0.353312,-8.33,-0.13125,4.29625,24.928001,-15.920001,7.216001,concentric,4,3.0,21086.0,150455.0,242114.0,291279.0,268909.0
2026-04-08 21:38:00.740036,107940,1609503452856068,1052822645,-0.991616,-0.052704,0.353312,-7.245,-0.56,3.63125,24.928001,-15.920001,7.216001,concentric,4,3.0,21112.0,150509.0,242150.0,291296.0,268890.0
2026-04-08 21:38:00.742301,107941,1609503452865224,1052831402,-1.022848,-0.025376,0.384544,-4.095,-2.75625,3.5,25.000002,-15.888001,5.064,concentric,4,3.0,21112.0,150509.0,242150.0,291296.0,268890.0
2026-04-08 21:38:00.744794,107942,1609503452879722,1052846404,-1.001376,-0.017568,0.368928,2.555,-4.7425,3.64875,24.512001,-15.808001,8.152,concentric,4,3.0,21112.0,150509.0,242150.0,291296.0,268890.0
2026-04-08 21:38:00.747314,107943,1609503452888715,1052855152,-1.001376,-0.017568,0.368928,12.46,-5.845,4.655,24.512001,-15.808001,8.152,concentric,4,3.0,21112.0,150509.0,242150.0,291296.0,268890.0
2026-04-08 21:38:00.778734,107944,1609503452903214,1052870114,-0.958432,-0.02928,0.121024,13.825,-6.53625,6.51875,24.504002,-16.504002,7.448,concentric,4,3.0,21112.0,150509.0,242150.0,291296.0,268890.0
2026-04-08 21:38:00.781567,107945,1609503452912141,1052878806,-0.958432,-0.02928,0.121024,8.19,-5.97625,9.40625,24.504002,-16.504002,7.448,concentric,4,3.0,21112.0,150509.0,242150.0,291296.0,268890.0
2026-04-08 21:38:00.783698,107946,1609503452921101,1052887506,-1.036512,0.003904,0.191296,-0.16625,-4.62,10.64,24.36,-16.536001,7.2,concentric,4,3.0,21112.0,150509.0,242150.0,291296.0,268890.0
2026-04-08 21:38:00.786157,107947,1609503452935562,1052902398,-1.036512,0.003904,0.191296,-7.51625,-3.7275,10.8325,24.36,-16.536001,7.2,concentric,4,3.0,21112.0,150509.0,242150.0,291296.0,268890.0
2026-04-08 21:38:00.816378,107948,1609503452944488,1052911083,-0.970144,-0.074176,0.193248,-10.50875,-4.2175,11.2525,23.864,-16.472,8.656,concentric,4,3.0,21112.0,150509.0,242150.0,291296.0,268890.0
2026-04-08 21:38:00.878828,107959,1609503452959297,1052925961,-0.981856,0.031232,0.343552,-6.65,-5.32875,11.89125,24.536001,-16.944,9.312,concentric,4,3.0,21158.0,150633.0,242330.0,291443.0,268956.0
2026-04-08 21:38:00.882350,107960,1609503452968253,1052934675,-0.981856,0.031232,0.343552,3.96375,-6.1425,13.011251,24.536001,-16.944,9.312,concentric,4,3.0,21158.0,150633.0,242330.0,291443.0,268956.0
2026-04-08 21:38:00.884848,107961,1609503452977213,1052943396,-0.981856,0.031232,0.10736,12.43375,-6.30875,14.665,24.536001,-16.944,9.312,concentric,4,3.0,21158.0,150633.0,242330.0,291443.0,268956.0
2026-04-08 21:38:00.887370,107962,1609503452991717,1052958327,-0.999424,0.017568,0.10736,12.74875,-6.79,17.85875,24.024002,-17.264,5.016,concentric,4,3.0,21158.0,150633.0,242330.0,291443.0,268956.0
2026-04-08 21:38:00.889931,107963,1609503453000692,1052967015,-0.923296,-0.003904,0.316224,4.22625,-8.88125,22.35625,23.880001,-17.36,8.136001,concentric,4,3.0,21158.0,150633.0,242330.0,291443.0,268956.0
2026-04-08 21:38:00.896140,107964,1609503453015231,1052981862,-0.923296,-0.003904,0.316224,-3.675,-10.7975,23.87875,23.880001,-17.36,8.136001,concentric,4,3.0,21158.0,150633.0,242330.0,291443.0,268956.0
2026-04-08 21:38:00.898548,107965,1609503453024123,1052990611,-0.874496,-0.0488,0.357216,-4.305,-12.62625,24.928751,23.752,-17.400002,7.472,concentric,4,3.0,21158.0,150633.0,242330.0,291443.0,268956.0
2026-04-08 21:38:00.901095,107966,1609503453038596,1053005551,-0.919392,0.023424,0.359168,0.84875,-13.7725,27.3525,23.552002,-17.504002,9.112,concentric,4,3.0,21158.0,150633.0,242330.0,291443.0,268956.0
2026-04-08 21:38:00.903626,107967,1609503453047518,1053014259,-0.919392,0.023424,0.359168,8.56625,-14.37625,30.5025,23.552002,-17.504002,9.112,concentric,4,3.0,21158.0,150633.0,242330.0,291443.0,268956.0
2026-04-08 21:38:00.931057,107978,1609503453056463,1053022996,-0.919392,0.023424,0.359168,17.94625,-13.30875,31.5525,23.552002,-17.504002,9.112,concentric,4,3.0,21217.0,150977.0,242735.0,291733.0,269153.0
2026-04-08 21:38:00.934175,107979,1609503453071085,1053037933,-0.958432,-0.02928,0.11712,19.3025,-13.11625,32.62,23.032001,-18.048,7.816001,concentric,4,3.0,21217.0,150977.0,242735.0,291733.0,269153.0
2026-04-08 21:38:00.936165,107980,1609503453080029,1053046660,-0.925248,0.042944,0.308416,11.27,-12.78375,35.9625,22.632002,-18.6,7.464,concentric,4,3.0,21217.0,150977.0,242735.0,291733.0,269153.0
2026-04-08 21:38:00.966253,107981,1609503453094574,1053061543,-0.925248,0.042944,0.308416,4.87375,-12.15375,37.905,22.632002,-18.6,7.464,concentric,4,3.0,21217.0,150977.0,242735.0,291733.0,269153.0
2026-04-08 21:38:00.969999,107982,1609503453103488,1053070223,-0.841312,0.027328,0.423584,2.0125,-13.0025,40.11875,22.376001,-19.048,8.096001,concentric,4,3.0,21217.0,150977.0,242735.0,291733.0,269153.0
2026-04-08 21:38:00.972372,107983,1609503453117946,1053085088,-0.841312,0.027328,0.423584,1.33875,-16.345,44.3275,22.376001,-19.048,8.096001,concentric,4,3.0,21217.0,150977.0,242735.0,291733.0,269153.0
2026-04-08 21:38:00.978574,107984,1609503453126891,1053093785,-0.767136,0.05856,0.406016,3.64,-20.4575,49.30625,22.032001,-19.68,8.432,concentric,4,3.0,21217.0,150977.0,242735.0,291733.0,269153.0
2026-04-08 21:38:01.008808,107985,1609503453135817,1053102473,-0.767136,0.05856,0.406016,13.60625,-21.83125,51.45875,22.032001,-19.68,8.432,concentric,4,3.0,21217.0,150977.0,242735.0,291733.0,269153.0
2026-04-08 21:38:01.012384,107986,1609503453150289,1053117367,-0.890112,0.0488,0.288896,26.3725,-19.43375,48.055,21.416,-20.080002,7.36,concentric,4,3.0,21217.0,150977.0,242735.0,291733.0,269153.0
2026-04-08 21:38:01.042315,107997,1609503453159632,1053126172,-0.933056,0.05856,0.294752,27.23875,-15.505,45.535,21.048,-20.320002,7.328001,concentric,4,3.0,21368.0,151598.0,243445.0,292208.0,269442.0
2026-04-08 21:38:01.044826,107998,1609503453174202,1053141129,-0.933056,0.05856,0.294752,18.52375,-13.74625,47.97625,21.048,-20.320002,7.328001,concentric,4,3.0,21368.0,151598.0,243445.0,292208.0,269442.0
2026-04-08 21:38:01.047355,107999,1609503453183163,1053149849,-0.942816,0.093696,0.308416,12.3025,-13.22125,51.87875,20.704,-20.76,8.336,concentric,4,3.0,21368.0,151598.0,243445.0,292208.0,269442.0
2026-04-08 21:38:01.049846,108000,1609503453197668,1053164735,-0.942816,0.093696,0.308416,10.8675,-14.9975,55.04625,20.704,-20.76,8.336,concentric,4,3.0,21368.0,151598.0,243445.0,292208.0,269442.0
2026-04-08 21:38:01.080063,108001,1609503453206635,1053173396,-0.88816,0.17568,0.343552,9.765,-17.185,58.94,20.240002,-21.320002,9.752001,concentric,4,3.0,21368.0,151598.0,243445.0,292208.0,269442.0
2026-04-08 21:38:01.083677,108002,1609503453215588,1053182048,-0.88816,0.17568,0.343552,15.575,-17.70125,59.59625,20.240002,-21.320002,9.752001,concentric,4,3.0,21368.0,151598.0,243445.0,292208.0,269442.0
2026-04-08 21:38:01.086132,108003,1609503453230055,1053196947,-0.84912,0.181536,0.308416,20.195,-15.1025,57.365,19.856,-21.896002,7.184001,concentric,4,3.0,21368.0,151598.0,243445.0,292208.0,269442.0
2026-04-08 21:38:01.089934,108004,1609503453238963,1053205638,-0.84912,0.181536,0.054656,17.56125,-11.3575,54.62625,19.856,-21.896002,7.184001,concentric,4,3.0,21368.0,151598.0,243445.0,292208.0,269442.0
2026-04-08 21:38:01.120117,108005,1609503453253488,1053220533,-0.88816,0.081984,0.054656,4.9,-10.96375,56.8925,19.112001,-22.248001,10.208,concentric,4,3.0,21368.0,151598.0,243445.0,292208.0,269442.0
2026-04-08 21:38:01.183669,108016,1609503453262534,1053229261,-0.890112,0.10736,0.1464,-8.77625,-13.02,62.3525,18.640001,-23.272001,7.536,concentric,4,3.0,21615.0,152629.0,244701.0,293030.0,269922.0
2026-04-08 21:38:01.186183,108017,1609503453271556,1053237988,-0.890112,0.10736,0.1464,-10.3775,-14.79625,64.46125,18.640001,-23.272001,7.536,concentric,4,3.0,21615.0,152629.0,244701.0,293030.0,269922.0
2026-04-08 21:38:01.188652,108018,1609503453286171,1053252899,-0.909632,0.109312,0.187392,-5.1275,-14.74375,62.06375,18.176,-23.136002,9.04,concentric,4,3.0,21615.0,152629.0,244701.0,293030.0,269922.0
2026-04-08 21:38:01.191127,108019,1609503453295200,1053261604,-0.909632,0.109312,0.187392,0.93625,-15.47,59.43875,18.176,-23.136002,9.04,concentric,4,3.0,21615.0,152629.0,244701.0,293030.0,269922.0
2026-04-08 21:38:01.193639,108020,1609503453309684,1053276480,-0.911584,0.1952,0.152256,10.36875,-14.595,58.0475,17.640001,-24.032001,8.952001,concentric,4,3.0,21615.0,152629.0,244701.0,293030.0,269922.0
2026-04-08 21:38:01.196086,108021,1609503453318613,1053285208,-0.911584,0.1952,0.152256,19.53875,-14.18375,57.076252,17.640001,-24.032001,8.952001,concentric,4,3.0,21615.0,152629.0,244701.0,293030.0,269922.0
2026-04-08 21:38:01.198613,108022,1609503453333088,1053300086,-0.954528,0.18544,0.132736,22.58375,-13.1775,55.74625,17.304,-24.288002,7.480001,concentric,4,3.0,21615.0,152629.0,244701.0,293030.0,269922.0
2026-04-08 21:38:01.201767,108023,1609503453342159,1053308755,-0.86864,0.208864,0.255712,14.56,-12.845,58.87,16.560001,-24.968,8.072001,concentric,4,3.0,21615.0,152629.0,244701.0,293030.0,269922.0
2026-04-08 21:38:01.203712,108024,1609503453351118,1053317441,-0.86864,0.208864,0.255712,-1.435,-13.9125,63.1925,16.560001,-24.968,8.072001,concentric,4,3.0,21615.0,152629.0,244701.0,293030.0,269922.0
2026-04-08 21:38:01.236195,108035,1609503453365717,1053332417,-0.817888,0.277184,0.452864,-10.80625,-14.74375,61.83625,16.272001,-24.752,8.360001,concentric,4,3.0,21613.0,152716.0,244807.0,293131.0,270026.0
2026-04-08 21:38:01.238640,108036,1609503453374675,1053341096,-0.817888,0.277184,0.452864,-9.8175,-14.00875,54.83625,16.272001,-24.752,8.360001,concentric,4,3.0,21613.0,152716.0,244807.0,293131.0,270026.0
2026-04-08 21:38:01.241178,108037,1609503453389217,1053355998,-0.948672,0.18544,0.23424,-6.32625,-11.235,48.64125,15.648001,-25.592001,8.360001,concentric,4,3.0,21613.0,152716.0,244807.0,293131.0,270026.0
2026-04-08 21:38:01.272588,108038,1609503453398151,1053364680,-0.948672,0.18544,0.23424,-8.70625,-12.3375,49.805,15.648001,-25.592001,8.360001,concentric,4,3.0,21613.0,152716.0,244807.0,293131.0,270026.0
2026-04-08 21:38:01.276199,108039,1609503453412641,1053379522,-0.835456,0.265472,0.366976,-11.935,-12.95875,52.92875,15.328001,-25.992,7.872,concentric,4,3.0,21613.0,152716.0,244807.0,293131.0,270026.0
2026-04-08 21:38:01.278600,108040,1609503453421581,1053388208,-0.88816,0.242048,0.152256,-9.05625,-9.73875,51.65125,15.504001,-26.456001,6.112001,concentric,4,3.0,21613.0,152716.0,244807.0,293131.0,270026.0
2026-04-08 21:38:01.282676,108041,1609503453430532,1053396876,-0.88816,0.242048,0.152256,-12.635,-6.90375,48.3175,15.504001,-26.456001,6.112001,concentric,4,3.0,21613.0,152716.0,244807.0,293131.0,270026.0
2026-04-08 21:38:01.313931,108042,1609503453445033,1053411842,-0.864736,0.27328,0.54656,-25.05125,-8.81125,46.69,14.728001,-26.496002,8.200001,concentric,4,3.0,21613.0,152716.0,244807.0,293131.0,270026.0
2026-04-08 21:38:01.317494,108043,1609503453453945,1053420515,-0.864736,0.27328,0.54656,-29.960001,-12.3725,45.07125,14.728001,-26.496002,8.200001,concentric,4,3.0,21613.0,152716.0,244807.0,293131.0,270026.0
2026-04-08 21:38:01.344844,108054,1609503453468544,1053435391,-0.974048,0.27328,0.333792,-24.7975,-15.33,41.11625,14.56,-26.752,8.096001,concentric,4,3.0,21870.0,153740.0,245916.0,293798.0,270417.0
2026-04-08 21:38:01.347444,108055,1609503453477484,1053444091,-0.974048,0.27328,0.333792,-17.80625,-19.01375,35.5075,14.56,-26.752,8.096001,concentric,4,3.0,21870.0,153740.0,245916.0,293798.0,270417.0
2026-04-08 21:38:01.349909,108056,1609503453486479,1053452829,-1.003328,0.298656,0.423584,-9.37125,-17.6575,31.28125,14.120001,-26.968,9.808001,concentric,4,3.0,21870.0,153740.0,245916.0,293798.0,270417.0
2026-04-08 21:38:01.352414,108057,1609503453500956,1053467708,-0.940864,0.345504,0.4392,-7.25375,-14.455,29.46125,14.120001,-26.968,11.856001,concentric,4,3.0,21870.0,153740.0,245916.0,293798.0,270417.0
2026-04-08 21:38:01.383833,108058,1609503453509911,1053476425,-0.952576,0.345504,0.4392,-10.01875,-8.33,25.24375,13.68,-26.904001,10.240001,concentric,4,3.0,21870.0,153740.0,245916.0,293798.0,270417.0
2026-04-08 21:38:01.387408,108059,1609503453524392,1053491287,-0.976,0.318176,0.300608,-17.43875,-4.2175,20.23,14.168,-27.656002,8.496,concentric,4,3.0,21870.0,153740.0,245916.0,293798.0,270417.0
2026-04-08 21:38:01.389853,108060,1609503453533406,1053499974,-0.976,0.318176,0.300608,-32.69875,-4.15625,16.93125,14.168,-27.656002,8.496,concentric,4,3.0,21870.0,153740.0,245916.0,293798.0,270417.0
2026-04-08 21:38:01.421421,108061,1609503453547912,1053514888,-0.99552,0.316224,0.513376,-43.56625,-4.36625,11.9525,13.968,-27.368002,10.144,concentric,4,3.0,21870.0,153740.0,245916.0,293798.0,270417.0
2026-04-08 21:38:01.486113,108072,1609503453556863,1053523896,-0.99552,0.316224,0.513376,-52.78,-6.57125,10.2725,13.968,-27.368002,10.144,concentric,4,3.0,22123.0,154782.0,247048.0,294413.0,270764.0
2026-04-08 21:38:01.488577,108073,1609503453565792,1053532596,-0.931104,0.27328,0.484096,-48.83375,-7.25375,11.2875,14.248001,-27.728,9.368,concentric,4,3.0,22123.0,154782.0,247048.0,294413.0,270764.0
2026-04-08 21:38:01.491043,108074,1609503453580264,1053545415,-0.931104,0.27328,0.484096,-37.66875,-1.39125,8.89875,14.248001,-27.728,9.368,concentric,4,3.0,22123.0,154782.0,247048.0,294413.0,270764.0
2026-04-08 21:38:01.493608,108075,1609503453589396,1053556157,-1.046272,0.310368,0.548512,-33.34625,2.17,3.22875,14.544001,-27.488,12.440001,concentric,4,3.0,22123.0,154782.0,247048.0,294413.0,270764.0
2026-04-08 21:38:01.496087,108076,1609503453603899,1053569066,-1.042368,0.378688,0.495808,-33.1275,2.24875,-0.00875,14.288001,-27.448002,10.536,concentric,4,3.0,22123.0,154782.0,247048.0,294413.0,270764.0
2026-04-08 21:38:01.499043,108077,1609503453613124,1053579813,-1.042368,0.378688,0.495808,-35.16625,2.61625,-1.19,14.288001,-27.448002,10.536,concentric,4,3.0,22123.0,154782.0,247048.0,294413.0,270764.0
2026-04-08 21:38:01.501614,108078,1609503453627589,1053594654,-1.218048,0.437248,0.47824,-39.94375,2.59875,-1.8025,14.776001,-27.240002,10.104,concentric,4,3.0,22123.0,154782.0,247048.0,294413.0,270764.0
2026-04-08 21:38:01.503664,108079,1609503453636500,1053603292,-1.218048,0.437248,0.47824,-41.7375,1.1725,-1.44375,14.776001,-27.240002,10.104,concentric,4,3.0,22123.0,154782.0,247048.0,294413.0,270764.0
2026-04-08 21:38:01.506076,108080,1609503453645422,1053611986,-1.147776,0.433344,0.601216,-40.95875,-2.23125,-3.14125,14.872001,-27.504002,11.384001,concentric,4,3.0,22123.0,154782.0,247048.0,294413.0,270764.0
2026-04-08 21:38:01.534830,108091,1609503453660474,1053626959,-1.147776,0.433344,0.601216,-40.53,-3.5525,-8.79375,14.872001,-27.504002,11.384001,concentric,4,3.0,21773.0,153336.0,245282.0,293243.0,270107.0
2026-04-08 21:38:01.537403,108092,1609503453669501,1053635687,-1.280512,0.55632,0.359168,-37.52,-0.49875,-14.39375,14.872001,-27.192001,12.536,concentric,4,3.0,21773.0,153336.0,245282.0,293243.0,270107.0
2026-04-08 21:38:01.539892,108093,1609503453683981,1053650566,-1.264896,0.581696,0.603168,-36.82,1.33,-19.0925,15.64,-27.424002,11.032001,concentric,4,3.0,21773.0,153336.0,245282.0,293243.0,270107.0
2026-04-08 21:38:01.547371,108094,1609503453692973,1053659301,-1.264896,0.581696,0.603168,-38.255,1.1025,-22.58375,15.64,-27.424002,11.032001,concentric,4,3.0,21773.0,153336.0,245282.0,293243.0,270107.0
2026-04-08 21:38:01.553623,108095,1609503453701900,1053667980,-1.264896,0.581696,0.554368,-39.585,0.5075,-26.59125,15.64,-27.424002,11.032001,concentric,4,3.0,21773.0,153336.0,245282.0,293243.0,270107.0
2026-04-08 21:38:01.583806,108096,1609503453716372,1053682864,-1.206336,0.515328,0.554368,-36.89,-0.3325,-30.6775,15.488001,-27.312002,11.160001,concentric,4,3.0,21773.0,153336.0,245282.0,293243.0,270107.0
2026-04-08 21:38:01.587425,108097,1609503453725271,1053691522,-1.118496,0.55632,0.724192,-31.7275,-1.7325,-35.175,16.528,-26.872002,11.632001,concentric,4,3.0,21773.0,153336.0,245282.0,293243.0,270107.0
2026-04-08 21:38:01.591197,108098,1609503453739796,1053706368,-1.118496,0.55632,0.724192,-27.39625,-3.99,-37.625,16.528,-26.872002,11.632001,concentric,4,3.0,21773.0,153336.0,245282.0,293243.0,270107.0
2026-04-08 21:38:01.621346,108099,1609503453748704,1053715026,-1.065792,0.60512,0.698816,-21.30625,-5.78375,-39.2875,16.944,-26.816002,11.696,concentric,4,3.0,21773.0,153336.0,245282.0,293243.0,270107.0
2026-04-08 21:38:01.649884,108110,1609503453763420,1053729921,-1.21024,0.61488,0.495808,-15.47875,-6.9825,-39.59375,17.648,-26.800001,11.624001,concentric,4,3.0,21537.0,152272.0,243947.0,292346.0,269532.0
2026-04-08 21:38:01.652440,108111,1609503453772516,1053738697,-1.21024,0.61488,0.495808,-12.11875,-9.3975,-35.27125,17.648,-26.800001,11.624001,concentric,4,3.0,21537.0,152272.0,243947.0,292346.0,269532.0
2026-04-08 21:38:01.654905,108112,1609503453781572,1053747355,-1.21024,0.61488,0.495808,-9.02125,-14.20125,-32.2,17.648,-26.800001,11.624001,concentric,4,3.0,21537.0,152272.0,243947.0,292346.0,269532.0
2026-04-08 21:38:01.657452,108113,1609503453796117,1053762200,-1.175104,0.474336,0.651968,-4.55,-17.57,-33.95875,17.304,-26.552002,12.496,concentric,4,3.0,21537.0,152272.0,243947.0,292346.0,269532.0
2026-04-08 21:38:01.661132,108114,1609503453805022,1053770936,-0.972096,0.372832,0.484096,4.48875,-18.2175,-35.69125,17.240002,-26.776001,12.6,concentric,4,3.0,21537.0,152272.0,243947.0,292346.0,269532.0
2026-04-08 21:38:01.691064,108115,1609503453819531,1053785811,-0.972096,0.372832,0.484096,18.5325,-15.42625,-33.27625,17.240002,-26.776001,12.6,concentric,4,3.0,21537.0,152272.0,243947.0,292346.0,269532.0
2026-04-08 21:38:01.692506,108116,1609503453828412,1053794467,-1.091168,0.476288,0.394304,32.36625,-10.21125,-28.32375,17.928001,-27.048,11.320001,concentric,4,3.0,21537.0,152272.0,243947.0,292346.0,269532.0
2026-04-08 21:38:01.696085,108117,1609503453842872,1053809315,-1.091168,0.476288,0.532896,39.5325,-5.4075,-21.32375,17.928001,-27.048,11.320001,concentric,4,3.0,21537.0,152272.0,243947.0,292346.0,269532.0
2026-04-08 21:38:01.702424,108118,1609503453851829,1053818053,-1.020896,0.40992,0.532896,32.38375,-3.99,-12.64375,17.992,-26.592001,11.024,eccentric,4,3.0,21537.0,152272.0,243947.0,292346.0,269532.0
2026-04-08 21:38:01.796225,108129,1609503453861271,1053826764,-1.020896,0.40992,0.532896,24.12375,-2.7825,-11.92625,17.992,-26.592001,11.024,eccentric,4,3.0,21482.0,152037.0,243719.0,292210.0,269443.0
2026-04-08 21:38:01.798596,108130,1609503453876175,1053841728,-0.983808,0.286944,0.296704,23.03,2.19625,-15.995,17.960001,-27.016,10.776001,eccentric,4,3.0,21482.0,152037.0,243719.0,292210.0,269443.0
2026-04-08 21:38:01.801108,108131,1609503453885466,1053852446,-1.018944,0.353312,0.38064,25.4625,7.7175,-13.69375,18.344002,-27.032001,9.864,eccentric,4,3.0,21482.0,152037.0,243719.0,292210.0,269443.0
2026-04-08 21:38:01.803581,108132,1609503453894389,1053861178,-1.018944,0.353312,0.38064,28.4725,12.94125,-7.525,18.344002,-27.032001,9.864,eccentric,4,3.0,21482.0,152037.0,243719.0,292210.0,269443.0
2026-04-08 21:38:01.806079,108133,1609503453908893,1053874050,-0.997472,0.320128,0.318176,29.96875,14.8575,-3.5525,18.256,-26.960001,10.272,eccentric,4,3.0,21482.0,152037.0,243719.0,292210.0,269443.0
2026-04-08 21:38:01.808698,108134,1609503453918010,1053884767,-0.997472,0.320128,0.318176,29.085001,12.985,-5.06625,18.256,-26.960001,10.272,eccentric,4,3.0,21482.0,152037.0,243719.0,292210.0,269443.0
2026-04-08 21:38:01.811053,108135,1609503453932466,1053899599,-0.903776,0.281088,0.40992,29.522501,10.99,-7.72625,18.224,-27.472002,9.72,eccentric,4,3.0,21482.0,152037.0,243719.0,292210.0,269443.0
2026-04-08 21:38:01.813578,108136,1609503453941410,1053908327,-0.903776,0.281088,0.40992,32.76875,9.2225,-9.54625,18.224,-27.472002,9.72,eccentric,4,3.0,21482.0,152037.0,243719.0,292210.0,269443.0
2026-04-08 21:38:01.816113,108137,1609503453956081,1053923224,-0.997472,0.286944,0.277184,35.56875,7.5775,-9.8,18.432001,-27.128002,9.56,eccentric,4,3.0,21482.0,152037.0,243719.0,292210.0,269443.0
2026-04-08 21:38:01.847358,108148,1609503453965239,1053932400,-1.011136,0.343552,0.50752,35.3675,5.5475,-9.9225,18.592001,-27.288002,10.784,eccentric,4,3.0,21676.0,152745.0,244483.0,292645.0,269695.0
2026-04-08 21:38:01.849849,108149,1609503453974268,1053941106,-1.011136,0.343552,0.50752,36.33875,1.82,-11.3575,18.592001,-27.288002,10.784,eccentric,4,3.0,21676.0,152745.0,244483.0,292645.0,269695.0
2026-04-08 21:38:01.852396,108150,1609503453988856,1053954032,-0.987712,0.279136,0.324032,39.795002,-0.4725,-13.886251,18.136002,-27.488,9.648001,eccentric,4,3.0,21676.0,152745.0,244483.0,292645.0,269695.0
2026-04-08 21:38:01.854928,108151,1609503453998056,1053964786,-0.987712,0.279136,0.324032,42.81375,-1.2775,-17.3425,18.136002,-27.488,9.648001,eccentric,4,3.0,21676.0,152745.0,244483.0,292645.0,269695.0
2026-04-08 21:38:01.885092,108152,1609503454012548,1053977805,-0.98576,0.343552,0.513376,44.695,-1.365,-18.43625,18.672,-27.328001,8.336,eccentric,4,3.0,21676.0,152745.0,244483.0,292645.0,269695.0
2026-04-08 21:38:01.888669,108153,1609503454021813,1053988546,-0.98576,0.343552,0.513376,45.80625,-0.56,-18.22625,18.672,-27.328001,8.336,eccentric,4,3.0,21676.0,152745.0,244483.0,292645.0,269695.0
2026-04-08 21:38:01.891131,108154,1609503454030736,1053997214,-1.077504,0.37088,0.304512,49.2975,2.5725,-19.59125,18.960001,-27.896002,7.904,eccentric,4,3.0,21676.0,152745.0,244483.0,292645.0,269695.0
2026-04-08 21:38:01.896099,108155,1609503454045213,1054012126,-1.048224,0.37088,0.40992,49.035,4.43625,-20.405,18.736,-27.432001,7.992001,eccentric,4,3.0,21676.0,152745.0,244483.0,292645.0,269695.0
2026-04-08 21:38:01.927337,108156,1609503454054164,1054020835,-1.048224,0.37088,0.40992,44.345,5.04875,-17.01875,18.736,-27.432001,7.992001,eccentric,4,3.0,21676.0,152745.0,244483.0,292645.0,269695.0
2026-04-08 21:38:01.955897,108167,1609503454068709,1054035878,-1.085312,0.372832,0.35136,39.36625,4.69,-13.09,19.144001,-27.880001,7.504,eccentric,4,3.0,21471.0,151930.0,243493.0,292045.0,269367.0
2026-04-08 21:38:01.957533,108168,1609503454077625,1054044551,-1.085312,0.372832,0.35136,35.11375,5.46,-12.32,19.144001,-27.880001,7.504,eccentric,4,3.0,21471.0,151930.0,243493.0,292045.0,269367.0
2026-04-08 21:38:01.961843,108169,1609503454086561,1054053245,-1.130208,0.437248,0.503616,34.51,7.20125,-11.9875,19.04,-28.176,6.520001,eccentric,4,3.0,21471.0,151930.0,243493.0,292045.0,269367.0
2026-04-08 21:38:01.996079,108170,1609503454101155,1054068155,-1.130208,0.437248,0.503616,37.28375,10.4825,-12.985,19.04,-28.176,6.520001,eccentric,4,3.0,21471.0,151930.0,243493.0,292045.0,269367.0
2026-04-08 21:38:01.999660,108171,1609503454110055,1054076815,-1.149728,0.3904,0.314272,38.920002,14.18375,-12.45125,19.2,-28.000002,6.16,eccentric,4,3.0,21471.0,151930.0,243493.0,292045.0,269367.0
2026-04-08 21:38:02.001327,108172,1609503454124502,1054089657,-1.149728,0.3904,0.345504,36.88125,14.385,-9.695,19.2,-28.000002,6.16,eccentric,4,3.0,21471.0,151930.0,243493.0,292045.0,269367.0
2026-04-08 21:38:02.005735,108173,1609503454133670,1054100391,-1.194624,0.431392,0.357216,33.36375,13.37875,-7.90125,19.272001,-27.936,5.344,eccentric,4,3.0,21471.0,151930.0,243493.0,292045.0,269367.0
2026-04-08 21:38:02.011774,108174,1609503454148167,1054115260,-1.118496,0.386496,0.433344,29.295,13.50125,-7.7525,19.28,-27.784,5.624,eccentric,4,3.0,21471.0,151930.0,243493.0,292045.0,269367.0
2026-04-08 21:38:02.013479,108175,1609503454157088,1054124031,-1.118496,0.386496,0.433344,24.8675,14.3325,-8.925,19.28,-27.784,5.624,eccentric,4,3.0,21471.0,151930.0,243493.0,292045.0,269367.0
2026-04-08 21:38:02.082472,108186,1609503454166192,1054132806,-1.15168,0.456768,0.486048,24.045,15.44375,-8.6625,19.480001,-27.640001,6.28,eccentric,4,3.0,21354.0,151381.0,242830.0,291641.0,269208.0
2026-04-08 21:38:02.086678,108187,1609503454180775,1054147745,-1.15168,0.456768,0.486048,27.62375,16.9925,-7.7525,19.480001,-27.640001,6.28,eccentric,4,3.0,21354.0,151381.0,242830.0,291641.0,269208.0
2026-04-08 21:38:02.088365,108188,1609503454189676,1054156430,-1.182912,0.42944,0.452864,30.161251,18.06,-7.7875,19.184,-28.000002,5.056,eccentric,4,3.0,21354.0,151381.0,242830.0,291641.0,269208.0
2026-04-08 21:38:02.090061,108189,1609503454204166,1054169314,-1.182912,0.42944,0.452864,27.01125,17.89375,-7.0175,19.184,-28.000002,5.056,eccentric,4,3.0,21354.0,151381.0,242830.0,291641.0,269208.0
2026-04-08 21:38:02.094195,108190,1609503454213298,1054180071,-1.1712,0.413824,0.368928,24.31625,16.5725,-6.8775,19.216002,-27.496002,4.416,eccentric,4,3.0,21354.0,151381.0,242830.0,291641.0,269208.0
2026-04-08 21:38:02.095988,108191,1609503454227802,1054194910,-1.165344,0.40016,0.40016,21.07,14.27125,-7.72625,19.392,-27.488,4.6,eccentric,4,3.0,21354.0,151381.0,242830.0,291641.0,269208.0
2026-04-08 21:38:02.097487,108192,1609503454236702,1054203564,-1.165344,0.40016,0.40016,18.92625,13.37875,-9.09125,19.392,-27.488,4.6,eccentric,4,3.0,21354.0,151381.0,242830.0,291641.0,269208.0
2026-04-08 21:38:02.104535,108193,1609503454245659,1054212251,-1.165344,0.40016,0.22448,15.23375,12.62625,-8.70625,19.392,-27.488,6.648,eccentric,4,3.0,21354.0,151381.0,242830.0,291641.0,269208.0
2026-04-08 21:38:02.159869,108204,1609503454260118,1054227549,-1.194624,0.40016,0.22448,11.03375,11.83,-8.16375,19.048,-27.544,6.232,eccentric,4,3.0,21214.0,150847.0,242248.0,291294.0,269032.0
2026-04-08 21:38:02.164189,108205,1609503454269117,1054236224,-1.14192,0.378688,0.290848,7.11375,11.2,-9.40625,19.424002,-27.344002,5.664,eccentric,4,3.0,21214.0,150847.0,242248.0,291294.0,269032.0
2026-04-08 21:38:02.165923,108206,1609503454283587,1054249025,-1.14192,0.378688,0.290848,5.81875,10.50875,-11.22625,19.424002,-27.344002,5.664,eccentric,4,3.0,21214.0,150847.0,242248.0,291294.0,269032.0
2026-04-08 21:38:02.167372,108207,1609503454292739,1054259755,-1.13216,0.314272,0.255712,4.34875,9.37125,-12.7225,19.112001,-27.208002,4.504,eccentric,4,3.0,21214.0,150847.0,242248.0,291294.0,269032.0
2026-04-08 21:38:02.174240,108208,1609503454301789,1054268493,-1.13216,0.314272,0.255712,1.2775,9.66,-13.15125,19.112001,-27.208002,4.504,eccentric,4,3.0,21214.0,150847.0,242248.0,291294.0,269032.0
2026-04-08 21:38:02.175896,108209,1609503454316301,1054283410,-1.077504,0.298656,0.382592,-0.525,10.045,-13.32625,18.816,-26.848001,5.016,eccentric,4,3.0,21214.0,150847.0,242248.0,291294.0,269032.0
2026-04-08 21:38:02.177456,108210,1609503454325221,1054292085,-1.077504,0.298656,0.382592,-3.52625,12.31125,-15.00625,18.816,-26.848001,5.016,eccentric,4,3.0,21214.0,150847.0,242248.0,291294.0,269032.0
2026-04-08 21:38:02.208754,108211,1609503454339697,1054304912,-1.079456,0.327936,0.384544,-9.63375,13.97375,-17.465,18.856,-26.472002,7.184001,eccentric,4,3.0,21214.0,150847.0,242248.0,291294.0,269032.0
2026-04-08 21:38:02.212754,108212,1609503454348891,1054315634,-1.067744,0.329888,0.265472,-13.27375,14.14,-17.66625,19.336,-26.056002,4.256,eccentric,4,3.0,21214.0,150847.0,242248.0,291294.0,269032.0
2026-04-08 21:38:02.240464,108223,1609503454363806,1054330689,-1.067744,0.329888,0.265472,-9.28375,14.07,-18.4275,19.336,-26.056002,4.256,eccentric,4,3.0,21275.0,150990.0,242417.0,291481.0,269146.0
2026-04-08 21:38:02.242867,108224,1609503454372843,1054339392,-1.03456,0.232288,0.392352,-0.7875,15.53125,-20.46625,19.744001,-26.2,5.344,eccentric,4,3.0,21275.0,150990.0,242417.0,291481.0,269146.0
2026-04-08 21:38:02.245307,108225,1609503454381805,1054348062,-1.03456,0.232288,0.392352,-3.31625,17.10625,-23.7125,19.744001,-26.2,5.344,eccentric,4,3.0,21275.0,150990.0,242417.0,291481.0,269146.0
2026-04-08 21:38:02.249388,108226,1609503454396317,1054362973,-1.136064,0.206912,0.310368,-8.7325,18.08625,-26.27625,19.664001,-26.240002,5.472,eccentric,4,3.0,21275.0,150990.0,242417.0,291481.0,269146.0
2026-04-08 21:38:02.279757,108227,1609503454405328,1054371703,-1.136064,0.206912,0.310368,-12.2675,17.89375,-27.27375,19.664001,-26.240002,5.472,eccentric,4,3.0,21275.0,150990.0,242417.0,291481.0,269146.0
2026-04-08 21:38:02.281997,108228,1609503454419823,1054386571,-0.974048,0.210816,0.433344,-12.59125,16.33625,-30.72125,19.384,-25.384,3.592,eccentric,4,3.0,21275.0,150990.0,242417.0,291481.0,269146.0
2026-04-08 21:38:02.286610,108229,1609503454428725,1054395219,-0.974048,0.212768,0.228384,-7.42,17.36,-36.09375,19.832,-25.152,4.088,eccentric,4,3.0,21275.0,150990.0,242417.0,291481.0,269146.0
2026-04-08 21:38:02.290650,108230,1609503454437640,1054403885,-0.974048,0.212768,0.228384,2.47625,19.8625,-40.73125,19.832,-25.152,4.088,eccentric,4,3.0,21275.0,150990.0,242417.0,291481.0,269146.0
2026-04-08 21:38:02.320063,108231,1609503454452179,1054418767,-0.962336,0.130784,0.091744,7.81375,25.97875,-44.2925,20.44,-25.104002,4.232,eccentric,4,3.0,21275.0,150990.0,242417.0,291481.0,269146.0
2026-04-08 21:38:02.323631,108232,1609503454461064,1054427440,-0.962336,0.130784,0.091744,7.21875,34.1775,-46.66375,20.44,-25.104002,4.232,eccentric,4,3.0,21275.0,150990.0,242417.0,291481.0,269146.0
2026-04-08 21:38:02.388651,108243,1609503454475566,1054442364,-1.143872,0.152256,-0.132736,-1.6625,41.125,-46.01625,20.912,-24.416,4.568,eccentric,4,3.0,21271.0,151074.0,242511.0,291489.0,269156.0
2026-04-08 21:38:02.391127,108244,1609503454484623,1054451042,-1.143872,0.152256,-0.132736,-16.91375,47.0225,-40.59125,20.912,-24.416,4.568,eccentric,4,3.0,21271.0,151074.0,242511.0,291489.0,269156.0
2026-04-08 21:38:02.393657,108245,1609503454499150,1054465925,-1.11264,0.167872,0.138592,-37.485,45.8675,-39.68125,20.832,-23.696001,6.016,eccentric,4,3.0,21271.0,151074.0,242511.0,291489.0,269156.0
2026-04-08 21:38:02.396138,108246,1609503454508088,1054474620,-1.018944,0.160064,0.320128,-52.22,40.845,-44.10875,21.584002,-23.384,5.088,eccentric,4,3.0,21271.0,151074.0,242511.0,291489.0,269156.0
2026-04-08 21:38:02.398627,108247,1609503454517050,1054483290,-1.018944,0.160064,0.320128,-48.48375,37.19625,-49.77875,21.584002,-23.384,5.088,eccentric,4,3.0,21271.0,151074.0,242511.0,291489.0,269156.0
2026-04-08 21:38:02.401234,108248,1609503454531523,1054498143,-0.915488,0.066368,0.339648,-33.0225,34.72875,-52.045002,22.064001,-22.792002,4.208,eccentric,4,3.0,21271.0,151074.0,242511.0,291489.0,269156.0
2026-04-08 21:38:02.403656,108249,1609503454540417,1054506805,-0.915488,0.066368,0.339648,-22.46125,33.5475,-53.3925,22.064001,-22.792002,4.208,eccentric,4,3.0,21271.0,151074.0,242511.0,291489.0,269156.0
2026-04-08 21:38:02.407384,108250,1609503454554900,1054521737,-0.993568,0.013664,0.355264,-20.545,29.51375,-55.53625,22.240002,-22.008001,6.192,eccentric,4,3.0,21271.0,151074.0,242511.0,291489.0,269156.0
2026-04-08 21:38:02.438615,108261,1609503454564161,1054530514,-0.993568,0.013664,0.355264,-18.97,23.23125,-57.6625,22.240002,-22.008001,6.192,eccentric,4,3.0,21245.0,150775.0,242240.0,291376.0,269082.0
2026-04-08 21:38:02.441132,108262,1609503454578736,1054545443,-0.909632,0.11712,0.308416,-15.8375,12.8975,-58.065,22.776001,-21.640001,5.4,eccentric,4,3.0,21245.0,150775.0,242240.0,291376.0,269082.0
2026-04-08 21:38:02.443677,108263,1609503454587694,1054554153,-0.909632,0.11712,0.138592,-11.3925,4.68125,-58.56375,22.776001,-21.640001,5.4,eccentric,4,3.0,21245.0,150775.0,242240.0,291376.0,269082.0
2026-04-08 21:38:02.447441,108264,1609503454596645,1054562817,-0.827648,0.10736,0.138592,-7.875,-2.415,-59.745,22.968,-21.080002,4.64,eccentric,4,3.0,21245.0,150775.0,242240.0,291376.0,269082.0
2026-04-08 21:38:02.477604,108265,1609503454611119,1054577680,-0.886208,0.013664,0.187392,-16.1525,-4.55875,-60.576252,23.256,-20.848001,5.048,eccentric,4,3.0,21245.0,150775.0,242240.0,291376.0,269082.0
2026-04-08 21:38:02.481260,108266,1609503454620067,1054586411,-0.886208,0.013664,0.187392,-25.48875,-0.35875,-62.79875,23.256,-20.848001,5.048,eccentric,4,3.0,21245.0,150775.0,242240.0,291376.0,269082.0
2026-04-08 21:38:02.486204,108267,1609503454634529,1054601276,-0.915488,-0.011712,0.437248,-36.25125,-1.21625,-63.0175,23.6,-20.240002,5.248,eccentric,4,3.0,21245.0,150775.0,242240.0,291376.0,269082.0
2026-04-08 21:38:02.516388,108268,1609503454643431,1054609934,-0.915488,-0.011712,0.437248,-43.05875,-6.58875,-60.24375,23.6,-20.240002,5.248,eccentric,4,3.0,21245.0,150775.0,242240.0,291376.0,269082.0
2026-04-08 21:38:02.519974,108269,1609503454657915,1054624815,-0.798368,0.035136,0.134688,-30.33625,-10.5,-60.83,24.024002,-19.504002,6.088,eccentric,4,3.0,21245.0,150775.0,242240.0,291376.0,269082.0
2026-04-08 21:38:02.553651,108280,1609503454667372,1054633951,-0.798368,0.035136,0.134688,-9.415,-5.92375,-67.27875,24.024002,-19.504002,6.088,eccentric,4,3.0,21506.0,151770.0,243384.0,292102.0,269468.0
2026-04-08 21:38:02.556171,108281,1609503454676484,1054642745,-0.782752,-0.054656,0.144448,3.33375,2.2575,-72.9925,24.592001,-18.872002,6.368001,eccentric,4,3.0,21506.0,151770.0,243384.0,292102.0,269468.0
2026-04-08 21:38:02.558640,108282,1609503454691012,1054657655,-0.96624,-0.06832,0.111264,-0.81375,7.7525,-71.855,24.640001,-18.096,6.112001,eccentric,4,3.0,21506.0,151770.0,243384.0,292102.0,269468.0
2026-04-08 21:38:02.561151,108283,1609503454699939,1054666374,-0.96624,-0.06832,0.111264,-16.00375,6.09875,-65.765,24.640001,-18.096,6.112001,eccentric,4,3.0,21506.0,151770.0,243384.0,292102.0,269468.0
2026-04-08 21:38:02.567421,108284,1609503454714420,1054681235,-0.853024,0.003904,0.132736,-26.985,0.035,-58.2225,25.384,-17.864,5.528,eccentric,4,3.0,21506.0,151770.0,243384.0,292102.0,269468.0
2026-04-08 21:38:02.597732,108285,1609503454723344,1054689951,-0.853024,0.003904,0.132736,-23.1875,-5.18,-56.39375,25.384,-17.864,5.528,eccentric,4,3.0,21506.0,151770.0,243384.0,292102.0,269468.0
2026-04-08 21:38:02.601183,108286,1609503454732243,1054698659,-0.812032,0.003904,0.093696,-12.76625,-4.92625,-57.72375,25.336,-17.28,5.376,eccentric,4,3.0,21506.0,151770.0,243384.0,292102.0,269468.0
2026-04-08 21:38:02.603707,108287,1609503454746723,1054713521,-0.812032,0.003904,0.093696,-2.87875,-2.09125,-56.28,25.336,-17.28,5.376,eccentric,4,3.0,21506.0,151770.0,243384.0,292102.0,269468.0
2026-04-08 21:38:02.607486,108288,1609503454755688,1054722200,-0.84912,-0.091744,0.140544,-2.00375,1.1725,-52.85875,25.816002,-16.944,7.336,eccentric,4,3.0,21506.0,151770.0,243384.0,292102.0,269468.0
2026-04-08 21:38:02.699212,108299,1609503454770335,1054737141,-0.919392,-0.121024,0.140544,-11.22625,-1.225,-47.67875,26.136002,-16.088001,3.576,eccentric,4,3.0,21416.0,151415.0,243032.0,291862.0,269277.0
2026-04-08 21:38:02.702385,108300,1609503454779274,1054745857,-0.919392,-0.121024,0.140544,-22.1025,-6.36125,-43.732502,26.136002,-16.088001,3.576,eccentric,4,3.0,21416.0,151415.0,243032.0,291862.0,269277.0
2026-04-08 21:38:02.704103,108301,1609503454793730,1054760736,-0.905728,-0.103456,0.083936,-18.865,-8.12875,-44.10875,26.488,-16.064001,5.744,eccentric,4,3.0,21416.0,151415.0,243032.0,291862.0,269277.0
2026-04-08 21:38:02.706178,108302,1609503454802683,1054769413,-0.905728,-0.103456,0.083936,-4.0075,-4.375,-47.43375,26.488,-16.064001,5.744,eccentric,4,3.0,21416.0,151415.0,243032.0,291862.0,269277.0
2026-04-08 21:38:02.708657,108303,1609503454811588,1054778093,-0.93696,-0.052704,0.154208,8.98625,2.54625,-47.6875,26.392002,-15.384001,5.64,eccentric,4,3.0,21416.0,151415.0,243032.0,291862.0,269277.0
2026-04-08 21:38:02.712140,108304,1609503454826034,1054792943,-0.93696,-0.052704,0.154208,9.80875,6.18625,-43.60125,26.392002,-15.384001,5.64,eccentric,4,3.0,21416.0,151415.0,243032.0,291862.0,269277.0
2026-04-08 21:38:02.713858,108305,1609503454834956,1054801602,-0.901824,0.052704,0.363072,1.65375,5.13625,-38.7975,26.808,-15.272,5.624,eccentric,4,3.0,21416.0,151415.0,243032.0,291862.0,269277.0
2026-04-08 21:38:02.716275,108306,1609503454849560,1054816527,-0.901824,-0.111264,0.222528,-1.6625,3.73625,-35.16625,26.808,-15.272,7.672,eccentric,4,3.0,21416.0,151415.0,243032.0,291862.0,269277.0
2026-04-08 21:38:02.718710,108307,1609503454858579,1054825225,-0.905728,-0.111264,0.222528,2.555,1.925,-33.62625,26.560001,-14.728001,7.936,eccentric,4,3.0,21416.0,151415.0,243032.0,291862.0,269277.0
2026-04-08 21:38:02.748724,108318,1609503454873180,1054840193,-0.91744,-0.12688,0.044896,3.2025,-2.415,-30.72125,26.504002,-14.64,6.664001,eccentric,4,3.0,21412.0,151281.0,242798.0,291680.0,269174.0
2026-04-08 21:38:02.752965,108319,1609503454882227,1054848941,-0.91744,-0.12688,0.044896,2.77375,-1.75875,-26.38125,26.504002,-14.64,6.664001,eccentric,4,3.0,21412.0,151281.0,242798.0,291680.0,269174.0
2026-04-08 21:38:02.754556,108320,1609503454891144,1054857694,-0.940864,-0.013664,0.27328,3.64,1.44375,-23.17,26.376001,-14.704,6.488,eccentric,4,3.0,21412.0,151281.0,242798.0,291680.0,269174.0
2026-04-08 21:38:02.759145,108321,1609503454905635,1054872595,-0.940864,-0.013664,0.27328,-1.5575,1.21625,-17.5,26.376001,-14.704,6.488,eccentric,4,3.0,21412.0,151281.0,242798.0,291680.0,269174.0
2026-04-08 21:38:02.787644,108322,1609503454914550,1054881260,-0.9272,-0.003904,0.365024,-10.17625,-3.99875,-10.185,26.536001,-14.416,6.976,eccentric,4,3.0,21412.0,151281.0,242798.0,291680.0,269174.0
2026-04-08 21:38:02.792200,108323,1609503454929049,1054896103,-0.9272,-0.003904,0.365024,-10.84125,-8.9425,-4.85625,26.536001,-14.416,6.976,eccentric,4,3.0,21412.0,151281.0,242798.0,291680.0,269174.0
2026-04-08 21:38:02.793801,108324,1609503454937993,1054904773,-0.972096,-0.124928,0.085888,-2.58125,-9.31875,-4.33125,26.752,-14.752001,7.216001,eccentric,4,3.0,21412.0,151281.0,242798.0,291680.0,269174.0
2026-04-08 21:38:02.800341,108325,1609503454946960,1054913450,-0.972096,-0.124928,0.085888,5.25875,-4.50625,-5.3375,26.752,-14.752001,7.216001,eccentric,4,3.0,21412.0,151281.0,242798.0,291680.0,269174.0
2026-04-08 21:38:02.828902,108326,1609503454961460,1054928301,-0.921344,-0.179584,0.259616,4.7775,-0.5425,-6.55375,26.816002,-14.792001,6.536,eccentric,4,3.0,21412.0,151281.0,242798.0,291680.0,269174.0
2026-04-08 21:38:02.860754,108337,1609503454970528,1054937021,-1.030656,-0.03904,0.15616,-0.8575,0.9975,-6.88625,26.816002,-14.792001,4.904,eccentric,4,3.0,21473.0,151510.0,243073.0,291909.0,269290.0
2026-04-08 21:38:02.862295,108338,1609503454985010,1054951913,-1.0248,-0.03904,0.15616,-5.7575,0.53375,-6.92125,27.192001,-14.56,4.904,eccentric,4,3.0,21473.0,151510.0,243073.0,291909.0,269290.0
2026-04-08 21:38:02.863922,108339,1609503454993954,1054960643,-1.001376,-0.03904,0.316224,-5.075,-2.91375,-6.4925,26.688002,-14.248001,6.528,eccentric,4,3.0,21473.0,151510.0,243073.0,291909.0,269290.0
2026-04-08 21:38:02.866537,108340,1609503455008451,1054975514,-1.001376,-0.03904,0.316224,-0.21,-5.71375,-5.74,26.688002,-14.248001,6.528,eccentric,4,3.0,21473.0,151510.0,243073.0,291909.0,269290.0
2026-04-08 21:38:02.871580,108341,1609503455017389,1054984235,-0.991616,-0.124928,0.210816,3.605,-5.7925,-4.62875,26.632002,-14.912001,7.328001,eccentric,4,3.0,21473.0,151510.0,243073.0,291909.0,269290.0
