pc_time,serial_num,sensor_ts,host_ts,ax,ay,az,gx,gy,gz,mx,my,mz,phase,rpe,weight_kg,ppg_a,ppg_b,ppg_c,ppg_d,ppg_e
2026-04-08 21:38:14.272398,110480,1609503466408601,1066375422,-0.987712,-0.101504,0.298656,-4.97875,-2.8875,22.02375,25.808,-15.864,5.416,concentric,4,3.0,21862.0,152679.0,244532.0,293000.0,269950.0
2026-04-08 21:38:14.273916,110481,1609503466417535,1066384072,-0.987712,-0.101504,0.298656,0.21,-3.89375,23.52875,25.808,-15.864,5.416,concentric,4,3.0,21862.0,152679.0,244532.0,293000.0,269950.0
2026-04-08 21:38:14.301707,110492,1609503466426837,1066392750,-1.022848,-0.00976,0.1952,4.795,-5.1275,25.655,25.656002,-16.384,8.024,concentric,4,3.0,21918.0,152985.0,244976.0,293298.0,270127.0
2026-04-08 21:38:14.303849,110493,1609503466441462,1066407703,-1.022848,-0.00976,0.1952,6.88625,-7.70875,27.991251,25.656002,-16.384,8.024,concentric,4,3.0,21918.0,152985.0,244976.0,293298.0,270127.0
2026-04-08 21:38:14.306350,110494,1609503466450388,1066416424,-0.901824,-0.007808,0.244,7.79625,-9.66875,31.01,25.544,-16.472,6.232,concentric,4,3.0,21918.0,152985.0,244976.0,293298.0,270127.0
2026-04-08 21:38:14.336622,110495,1609503466464900,1066431336,-0.901824,-0.054656,0.2928,7.42,-9.17,32.1125,25.544,-16.472,6.232,concentric,4,3.0,21918.0,152985.0,244976.0,293298.0,270127.0
2026-04-08 21:38:14.340212,110496,1609503466473830,1066440033,-0.964288,-0.062464,0.2928,0.28,-9.0825,32.83875,25.04,-16.936,5.64,concentric,4,3.0,21918.0,152985.0,244976.0,293298.0,270127.0
2026-04-08 21:38:14.342705,110497,1609503466482732,1066448726,-0.964288,-0.062464,0.2928,-8.46125,-9.91375,34.5275,25.04,-16.936,5.64,concentric,4,3.0,21918.0,152985.0,244976.0,293298.0,270127.0
2026-04-08 21:38:14.381462,110498,1609503466497238,1066463616,-0.98576,-0.037088,0.212768,-10.4125,-10.5,35.4025,24.888,-17.36,5.824,concentric,4,3.0,21918.0,152985.0,244976.0,293298.0,270127.0
2026-04-08 21:38:14.383005,110499,1609503466506164,1066472337,-0.923296,0.046848,0.33184,-4.76,-10.3425,35.5425,24.616001,-17.336,5.728,concentric,4,3.0,21918.0,152985.0,244976.0,293298.0,270127.0
2026-04-08 21:38:14.385085,110500,1609503466520618,1066487182,-0.923296,0.046848,0.33184,0.735,-10.7275,36.2425,24.616001,-17.336,5.728,concentric,4,3.0,21918.0,152985.0,244976.0,293298.0,270127.0
2026-04-08 21:38:14.416408,110511,1609503466530063,1066495945,-0.880352,0.03904,0.148352,4.83,-13.06375,37.70375,24.544,-17.984001,5.928001,concentric,4,3.0,21886.0,152935.0,244960.0,293283.0,270103.0
2026-04-08 21:38:14.418813,110512,1609503466544624,1066510835,-0.880352,0.03904,0.148352,8.33875,-15.56625,40.74875,24.544,-17.984001,5.928001,concentric,4,3.0,21886.0,152935.0,244960.0,293283.0,270103.0
2026-04-08 21:38:14.421556,110513,1609503466553557,1066519576,-0.899872,0.040992,0.269376,7.3325,-17.1325,43.0675,23.472002,-18.072,8.264,concentric,4,3.0,21886.0,152935.0,244960.0,293283.0,270103.0
2026-04-08 21:38:14.423840,110514,1609503466562498,1066528234,-0.899872,0.040992,0.269376,3.36,-17.68375,43.39125,23.472002,-18.072,8.264,concentric,4,3.0,21886.0,152935.0,244960.0,293283.0,270103.0
2026-04-08 21:38:14.427674,110515,1609503466577033,1066543128,-0.86864,-0.033184,0.232288,-3.1325,-16.8525,44.3625,24.04,-18.92,6.12,concentric,4,3.0,21886.0,152935.0,244960.0,293283.0,270103.0
2026-04-08 21:38:14.458244,110516,1609503466585908,1066551824,-0.86864,0.013664,0.199104,-6.93875,-16.37125,46.445,24.04,-18.92,8.168,concentric,4,3.0,21886.0,152935.0,244960.0,293283.0,270103.0
2026-04-08 21:38:14.461370,110517,1609503466600391,1066566685,-0.880352,0.013664,0.199104,-3.36875,-17.9375,48.67625,23.344002,-19.216002,6.304,concentric,4,3.0,21886.0,152935.0,244960.0,293283.0,270103.0
2026-04-08 21:38:14.463761,110518,1609503466609287,1066575338,-0.84912,0.08784,0.216672,5.7575,-19.9325,50.0675,22.6,-19.912,6.08,concentric,4,3.0,21886.0,152935.0,244960.0,293283.0,270103.0
2026-04-08 21:38:14.496665,110519,1609503466623799,1066590244,-0.84912,0.08784,0.216672,17.80625,-20.7375,50.9775,22.6,-19.912,6.08,concentric,4,3.0,21886.0,152935.0,244960.0,293283.0,270103.0
2026-04-08 21:38:14.525134,110530,1609503466632838,1066599135,-0.913536,0.001952,0.2928,26.241251,-18.655,50.225,22.688002,-20.216002,6.32,concentric,4,3.0,21876.0,152894.0,244888.0,293198.0,270057.0
2026-04-08 21:38:14.527618,110531,1609503466641805,1066607807,-0.913536,0.001952,0.2928,17.9025,-15.00625,50.02375,22.688002,-20.216002,6.32,concentric,4,3.0,21876.0,152894.0,244888.0,293198.0,270057.0
2026-04-08 21:38:14.530067,110532,1609503466656334,1066622689,-0.962336,0.080032,0.327936,0.8575,-13.22125,48.41375,22.544,-20.624,6.264,concentric,4,3.0,21876.0,152894.0,244888.0,293198.0,270057.0
2026-04-08 21:38:14.532591,110533,1609503466665275,1066631438,-0.962336,0.080032,0.327936,-7.70875,-13.5975,47.0225,22.544,-20.624,6.264,concentric,4,3.0,21876.0,152894.0,244888.0,293198.0,270057.0
2026-04-08 21:38:14.535128,110534,1609503466679761,1066646338,-0.931104,0.150304,0.407968,-8.60125,-15.33875,48.04625,21.864,-21.136002,5.520001,concentric,4,3.0,21876.0,152894.0,244888.0,293198.0,270057.0
2026-04-08 21:38:14.541388,110535,1609503466688760,1066655039,-0.845216,0.050752,0.216672,-2.17875,-17.15875,48.055,21.480001,-21.736002,6.264,concentric,4,3.0,21876.0,152894.0,244888.0,293198.0,270057.0
2026-04-08 21:38:14.571623,110536,1609503466697733,1066663713,-0.845216,0.050752,0.216672,6.3525,-17.35125,47.985,21.480001,-21.736002,6.264,concentric,4,3.0,21876.0,152894.0,244888.0,293198.0,270057.0
2026-04-08 21:38:14.575173,110537,1609503466712216,1066678605,-0.884256,0.115168,0.17568,11.06875,-16.9225,48.95625,21.112001,-22.144001,6.368001,concentric,4,3.0,21876.0,152894.0,244888.0,293198.0,270057.0
2026-04-08 21:38:14.577636,110538,1609503466721147,1066687284,-0.884256,0.115168,0.17568,14.315001,-12.04,47.55625,21.112001,-22.144001,6.368001,concentric,4,3.0,21876.0,152894.0,244888.0,293198.0,270057.0
2026-04-08 21:38:14.605107,110549,1609503466735744,1066702316,-0.929152,0.091744,0.251808,4.36625,-10.94625,48.86875,20.864,-22.464,6.784,concentric,4,3.0,21950.0,153250.0,245310.0,293513.0,270243.0
2026-04-08 21:38:14.607616,110550,1609503466744728,1066711174,-0.929152,0.091744,0.251808,-11.10375,-13.72,53.5675,20.864,-22.464,6.784,concentric,4,3.0,21950.0,153250.0,245310.0,293513.0,270243.0
2026-04-08 21:38:14.611683,110551,1609503466759217,1066726038,-0.899872,0.081984,0.20496,-14.980001,-14.5775,53.10375,20.304,-22.944,8.544001,concentric,4,3.0,21950.0,153250.0,245310.0,293513.0,270243.0
2026-04-08 21:38:14.641577,110552,1609503466768141,1066734695,-0.895968,0.228384,0.275232,-11.52375,-16.065,48.3525,19.744001,-23.288002,9.136001,concentric,4,3.0,21950.0,153250.0,245310.0,293513.0,270243.0
2026-04-08 21:38:14.679089,110553,1609503466777064,1066743378,-0.895968,0.228384,0.275232,-0.98875,-18.0425,44.49375,19.744001,-23.288002,9.136001,concentric,4,3.0,21950.0,153250.0,245310.0,293513.0,270243.0
2026-04-08 21:38:14.682641,110554,1609503466791536,1066758321,-0.923296,0.18544,0.193248,14.735,-14.46375,40.25875,19.632002,-23.576,6.416,concentric,4,3.0,21950.0,153250.0,245310.0,293513.0,270243.0
2026-04-08 21:38:14.685171,110555,1609503466800462,1066766984,-0.923296,0.18544,0.193248,18.13875,-10.167501,39.3925,19.632002,-23.576,6.416,concentric,4,3.0,21950.0,153250.0,245310.0,293513.0,270243.0
2026-04-08 21:38:14.687601,110556,1609503466814953,1066781855,-0.85888,0.130784,0.28304,5.1275,-7.5075,41.335,19.664001,-24.104002,6.000001,concentric,4,3.0,21950.0,153250.0,245310.0,293513.0,270243.0
2026-04-08 21:38:14.690155,110557,1609503466823869,1066790513,-0.85888,0.130784,0.28304,-12.635,-6.3525,44.0125,19.664001,-24.104002,6.000001,concentric,4,3.0,21950.0,153250.0,245310.0,293513.0,270243.0
2026-04-08 21:38:14.723915,110568,1609503466838395,1066805444,-0.895968,0.162016,0.431392,-27.36125,-8.575,42.665,18.952002,-24.368002,7.112001,concentric,4,3.0,22044.0,153807.0,245993.0,294026.0,270569.0
2026-04-08 21:38:14.726388,110569,1609503466847317,1066814157,-0.895968,0.162016,0.454816,-27.1075,-10.50875,36.67125,18.952002,-24.368002,7.112001,concentric,4,3.0,22044.0,153807.0,245993.0,294026.0,270569.0
2026-04-08 21:38:14.728886,110570,1609503466856231,1066822883,-0.925248,0.259616,0.454816,-17.0975,-10.33375,29.68,18.952002,-24.664001,9.400001,concentric,4,3.0,22044.0,153807.0,245993.0,294026.0,270569.0
2026-04-08 21:38:14.731339,110571,1609503466870705,1066837770,-1.003328,0.25376,0.413824,-3.50875,-8.4525,23.38,18.904001,-24.632002,6.944,concentric,4,3.0,22044.0,153807.0,245993.0,294026.0,270569.0
2026-04-08 21:38:14.733844,110572,1609503466879656,1066846490,-1.003328,0.25376,0.413824,5.2675,-7.6475,22.53125,18.904001,-24.632002,6.944,concentric,4,3.0,22044.0,153807.0,245993.0,294026.0,270569.0
2026-04-08 21:38:14.785414,110573,1609503466894146,1066859306,-1.022848,0.240096,0.228384,2.0825,-8.89,25.3925,18.536001,-25.240002,6.936,concentric,4,3.0,22044.0,153807.0,245993.0,294026.0,270569.0
2026-04-08 21:38:14.788978,110574,1609503466903304,1066870145,-1.022848,0.240096,0.228384,-9.2225,-12.17125,25.03375,18.536001,-25.240002,6.936,concentric,4,3.0,22044.0,153807.0,245993.0,294026.0,270569.0
2026-04-08 21:38:14.791367,110575,1609503466917801,1066882970,-0.970144,0.269376,0.27328,-18.38375,-14.81375,21.5075,18.752,-25.136002,7.312,concentric,4,3.0,22044.0,153807.0,245993.0,294026.0,270569.0
2026-04-08 21:38:14.793944,110576,1609503466926958,1066893796,-0.970144,0.269376,0.27328,-19.9675,-17.7625,17.78875,18.752,-25.136002,7.312,concentric,4,3.0,22044.0,153807.0,245993.0,294026.0,270569.0
2026-04-08 21:38:14.821364,110587,1609503466935957,1066902487,-1.036512,0.228384,0.445056,-13.50125,-17.85875,11.48875,18.456001,-25.416,7.608,concentric,4,3.0,22306.0,155105.0,247505.0,294930.0,271054.0
2026-04-08 21:38:14.823968,110588,1609503466950517,1066917378,-1.067744,0.27328,0.49776,-10.1325,-15.645,5.97625,18.584002,-25.544,7.384,concentric,4,3.0,22306.0,155105.0,247505.0,294930.0,271054.0
2026-04-08 21:38:14.826425,110589,1609503466959480,1066926064,-1.067744,0.27328,0.49776,-8.30375,-11.71625,-0.175,18.584002,-25.544,7.384,concentric,4,3.0,22306.0,155105.0,247505.0,294930.0,271054.0
2026-04-08 21:38:14.828828,110590,1609503466973979,1066940989,-1.013088,0.333792,0.51728,-8.6975,-7.4725,-7.735,18.784,-25.272001,7.328001,concentric,4,3.0,22306.0,155105.0,247505.0,294930.0,271054.0
2026-04-08 21:38:14.835141,110591,1609503466982940,1066949684,-1.013088,0.333792,0.51728,-13.16,-4.87375,-12.27625,18.784,-25.272001,7.328001,concentric,4,3.0,22306.0,155105.0,247505.0,294930.0,271054.0
2026-04-08 21:38:14.866468,110592,1609503466997427,1066964550,-1.087264,0.2928,0.491904,-17.68375,-2.905,-16.42375,19.056002,-25.408,8.024,concentric,4,3.0,22306.0,155105.0,247505.0,294930.0,271054.0
2026-04-08 21:38:14.868917,110593,1609503467006343,1066973198,-1.087264,0.2928,0.491904,-21.8225,-3.71875,-16.625,19.056002,-25.408,8.024,concentric,4,3.0,22306.0,155105.0,247505.0,294930.0,271054.0
2026-04-08 21:38:14.871397,110594,1609503467015280,1066981883,-1.15168,0.265472,0.435296,-23.40625,-5.8975,-13.0725,19.184,-25.080002,7.856,concentric,4,3.0,22306.0,155105.0,247505.0,294930.0,271054.0
2026-04-08 21:38:14.930098,110605,1609503467030062,1066997255,-1.134112,0.208864,0.540704,-25.33125,-9.58125,-13.69375,19.376001,-24.856,8.152,concentric,4,3.0,22261.0,154885.0,247288.0,294857.0,271019.0
2026-04-08 21:38:14.932833,110606,1609503467039023,1067005973,-1.134112,0.208864,0.540704,-32.68125,-11.9,-19.7925,19.376001,-24.856,8.152,concentric,4,3.0,22261.0,154885.0,247288.0,294857.0,271019.0
2026-04-08 21:38:14.935782,110607,1609503467053482,1067018810,-1.138016,0.20496,0.36112,-35.525,-10.85,-28.35,20.144001,-24.52,8.072001,concentric,4,3.0,22261.0,154885.0,247288.0,294857.0,271019.0
2026-04-08 21:38:14.937896,110608,1609503467062866,1067029540,-1.138016,0.20496,0.36112,-35.638752,-10.0625,-33.24125,20.144001,-24.52,8.072001,concentric,4,3.0,22261.0,154885.0,247288.0,294857.0,271019.0
2026-04-08 21:38:14.940115,110609,1609503467071827,1067038270,-1.10288,0.154208,0.392352,-29.1375,-6.86875,-32.50625,20.224,-24.496,8.832001,concentric,4,3.0,22261.0,154885.0,247288.0,294857.0,271019.0
2026-04-08 21:38:14.942654,110610,1609503467086321,1067053150,-1.10288,0.154208,0.392352,-21.805,-5.6175,-26.022501,20.224,-24.496,8.832001,concentric,4,3.0,22261.0,154885.0,247288.0,294857.0,271019.0
2026-04-08 21:38:14.979081,110611,1609503467095250,1067061825,-1.20048,0.17568,0.363072,-13.79,-4.50625,-20.8075,20.640001,-24.6,8.496,concentric,4,3.0,22261.0,154885.0,247288.0,294857.0,271019.0
2026-04-08 21:38:14.982640,110612,1609503467109710,1067076692,-1.126304,0.193248,0.568032,-6.8425,-5.005,-20.72,20.640001,-24.592001,10.224001,concentric,4,3.0,22261.0,154885.0,247288.0,294857.0,271019.0
2026-04-08 21:38:14.985211,110613,1609503467118618,1067085356,-1.126304,0.193248,0.568032,-4.2875,-5.8975,-24.52625,20.768002,-24.592001,10.224001,concentric,4,3.0,22261.0,154885.0,247288.0,294857.0,271019.0
2026-04-08 21:38:15.012605,110624,1609503467133500,1067100270,-1.216096,0.261568,0.532896,-5.1275,-6.92125,-28.77875,21.248001,-24.136002,8.424001,concentric,4,3.0,22254.0,154861.0,247261.0,294881.0,271061.0
2026-04-08 21:38:15.015147,110625,1609503467142617,1067109008,-1.216096,0.261568,0.532896,-8.8025,-8.04125,-30.616251,21.248001,-24.136002,8.424001,concentric,4,3.0,22254.0,154861.0,247261.0,294881.0,271061.0
2026-04-08 21:38:15.018214,110626,1609503467151564,1067117716,-1.221952,0.275232,0.603168,-12.20625,-8.155,-27.9125,21.472,-24.048,7.976,concentric,4,3.0,22254.0,154861.0,247261.0,294881.0,271061.0
2026-04-08 21:38:15.020246,110627,1609503467166070,1067132657,-1.221952,0.275232,0.603168,-9.79125,-7.0,-24.710001,21.472,-24.048,7.976,concentric,4,3.0,22254.0,154861.0,247261.0,294881.0,271061.0
2026-04-08 21:38:15.026462,110628,1609503467175024,1067141415,-1.341024,0.277184,0.435296,-8.925,-5.60875,-24.78875,21.720001,-24.096,8.84,concentric,4,3.0,22254.0,154861.0,247261.0,294881.0,271061.0
2026-04-08 21:38:15.056662,110629,1609503467189576,1067156296,-1.341024,0.277184,0.534848,-9.24,-4.99625,-24.33375,21.720001,-24.096,8.84,concentric,4,3.0,22254.0,154861.0,247261.0,294881.0,271061.0
2026-04-08 21:38:15.063990,110630,1609503467198489,1067164958,-1.321504,0.30256,0.534848,-7.81375,-3.7625,-24.2375,21.68,-24.28,8.904,concentric,4,3.0,22254.0,154861.0,247261.0,294881.0,271061.0
2026-04-08 21:38:15.066414,110631,1609503467207457,1067173638,-1.321504,0.30256,0.534848,-8.9425,-3.78875,-23.96625,21.68,-24.28,8.904,concentric,4,3.0,22254.0,154861.0,247261.0,294881.0,271061.0
2026-04-08 21:38:15.096682,110632,1609503467221911,1067188518,-1.282464,0.296704,0.421632,-14.07,-5.39875,-21.72625,22.192001,-23.912,8.744,concentric,4,3.0,22254.0,154861.0,247261.0,294881.0,271061.0
2026-04-08 21:38:15.127780,110643,1609503467231103,1067197262,-1.231712,0.244,0.366976,-17.9375,-8.40875,-20.02875,22.224,-23.664001,10.584001,concentric,4,3.0,22254.0,154795.0,247139.0,294781.0,271012.0
2026-04-08 21:38:15.132040,110644,1609503467245652,1067212238,-1.231712,0.244,0.366976,-18.3925,-10.823751,-17.710001,22.224,-23.664001,10.584001,concentric,4,3.0,22254.0,154795.0,247139.0,294781.0,271012.0
2026-04-08 21:38:15.133707,110645,1609503467254578,1067220938,-1.241472,0.20496,0.36112,-15.198751,-13.1775,-14.3675,22.320002,-23.744001,8.976001,concentric,4,3.0,22254.0,154795.0,247139.0,294781.0,271012.0
2026-04-08 21:38:15.135231,110646,1609503467269162,1067235829,-1.241472,0.20496,0.36112,-9.63375,-14.20125,-11.9525,22.320002,-23.744001,8.976001,concentric,4,3.0,22254.0,154795.0,247139.0,294781.0,271012.0
2026-04-08 21:38:15.139503,110647,1609503467278150,1067244489,-1.173152,0.220576,0.519232,-5.425,-13.23875,-12.18,22.128,-23.352001,10.76,concentric,4,3.0,22254.0,154795.0,247139.0,294781.0,271012.0
2026-04-08 21:38:15.141905,110648,1609503467287100,1067253179,-1.173152,0.220576,0.519232,-2.96625,-11.917501,-12.24125,22.128,-23.352001,10.76,concentric,4,3.0,22254.0,154795.0,247139.0,294781.0,271012.0
2026-04-08 21:38:15.170417,110649,1609503467301569,1067268056,-1.056032,0.222528,0.499712,-2.17875,-10.6225,-10.6225,22.12,-23.560001,11.272,concentric,4,3.0,22254.0,154795.0,247139.0,294781.0,271012.0
2026-04-08 21:38:15.184576,110650,1609503467310460,1067276708,-1.056032,0.191296,0.37088,-4.54125,-9.72125,-9.4325,22.12,-23.560001,11.272,concentric,4,3.0,22254.0,154795.0,247139.0,294781.0,271012.0
2026-04-08 21:38:15.186229,110651,1609503467324960,1067291565,-1.050176,0.189344,0.37088,-5.90625,-10.21125,-7.98,22.28,-23.224,11.072001,concentric,4,3.0,22254.0,154795.0,247139.0,294781.0,271012.0
2026-04-08 21:38:15.214427,110662,1609503467334362,1067300276,-0.999424,0.144448,0.495808,-4.45375,-10.64875,-7.34125,22.384,-23.448002,9.688001,concentric,4,3.0,22400.0,155290.0,247666.0,295034.0,271132.0
2026-04-08 21:38:15.216187,110663,1609503467343392,1067308992,-0.999424,0.144448,0.495808,-1.8025,-8.68,-7.79625,22.384,-23.448002,9.688001,concentric,4,3.0,22400.0,155290.0,247666.0,295034.0,271132.0
2026-04-08 21:38:15.217944,110664,1609503467358396,1067323908,-0.98576,0.171776,0.437248,0.34125,-6.545,-5.71375,22.504002,-23.368002,10.160001,concentric,4,3.0,22400.0,155290.0,247666.0,295034.0,271132.0
2026-04-08 21:38:15.221830,110665,1609503467367660,1067334628,-0.98576,0.171776,0.437248,1.67125,-4.15625,-2.38875,22.504002,-23.368002,10.160001,concentric,4,3.0,22400.0,155290.0,247666.0,295034.0,271132.0
2026-04-08 21:38:15.276433,110666,1609503467382122,1067347451,-0.905728,0.158112,0.476288,1.3825,-2.3625,-1.88125,22.272001,-22.792002,10.200001,concentric,4,3.0,22400.0,155290.0,247666.0,295034.0,271132.0
2026-04-08 21:38:15.278619,110667,1609503467391374,1067358162,-1.026752,0.1464,0.279136,-0.3325,-1.3125,-3.03625,22.272001,-23.080002,9.424001,concentric,4,3.0,22400.0,155290.0,247666.0,295034.0,271132.0
2026-04-08 21:38:15.283189,110668,1609503467400292,1067366834,-1.026752,0.1464,0.279136,-1.995,0.83125,-3.59625,22.36,-23.080002,9.424001,concentric,4,3.0,22400.0,155290.0,247666.0,295034.0,271132.0
2026-04-08 21:38:15.284969,110669,1609503467414761,1067381690,-1.032608,0.140544,0.335744,-1.60125,2.7475,-2.5725,22.456001,-22.864,9.416,concentric,4,3.0,22400.0,155290.0,247666.0,295034.0,271132.0
2026-04-08 21:38:15.286553,110670,1609503467423695,1067390392,-1.032608,0.140544,0.335744,-0.18375,4.6725,-2.1,22.456001,-22.864,9.416,concentric,4,3.0,22400.0,155290.0,247666.0,295034.0,271132.0
2026-04-08 21:38:15.316429,110681,1609503467438259,1067403618,-0.964288,0.177632,0.538752,0.86625,6.3,-1.05875,21.744001,-23.256,10.336,concentric,4,3.0,22465.0,155622.0,247979.0,295188.0,271216.0
2026-04-08 21:38:15.320796,110682,1609503467447803,1067414475,-0.964288,0.177632,0.538752,1.77625,5.87125,-0.35,21.744001,-23.256,10.336,concentric,4,3.0,22465.0,155622.0,247979.0,295188.0,271216.0
2026-04-08 21:38:15.322434,110683,1609503467456731,1067423164,-1.077504,0.189344,0.45872,0.56875,5.5825,-1.09375,21.696001,-23.304,10.112,concentric,4,3.0,22465.0,155622.0,247979.0,295188.0,271216.0
2026-04-08 21:38:15.324024,110684,1609503467471214,1067438037,-1.077504,0.189344,0.30256,-2.9925,5.5475,-1.7675,21.696001,-23.304,10.112,concentric,4,3.0,22465.0,155622.0,247979.0,295188.0,271216.0
2026-04-08 21:38:15.354226,110685,1609503467480187,1067446751,-1.091168,0.158112,0.298656,-4.61125,6.30875,-1.3125,22.240002,-23.128,12.248,concentric,4,3.0,22465.0,155622.0,247979.0,295188.0,271216.0
2026-04-08 21:38:15.357764,110686,1609503467494683,1067461622,-1.1712,0.20496,0.41968,-2.63375,7.74375,-1.435,22.192001,-23.160002,9.304001,concentric,4,3.0,22465.0,155622.0,247979.0,295188.0,271216.0
2026-04-08 21:38:15.360207,110687,1609503467503660,1067470592,-1.1712,0.20496,0.41968,-1.46125,8.77625,-1.49625,22.192001,-23.160002,9.304001,concentric,4,3.0,22465.0,155622.0,247979.0,295188.0,271216.0
2026-04-08 21:38:15.365224,110688,1609503467512990,1067479429,-1.139968,0.208864,0.472384,0.63,8.95125,-0.1925,22.416,-22.744001,10.144,concentric,4,3.0,22465.0,155622.0,247979.0,295188.0,271216.0
2026-04-08 21:38:15.395463,110689,1609503467527486,1067494290,-1.139968,0.208864,0.472384,3.50875,8.4,0.7175,22.416,-22.744001,10.144,eccentric,4,3.0,22465.0,155622.0,247979.0,295188.0,271216.0
2026-04-08 21:38:15.423914,110700,1609503467536559,1067503138,-1.167296,0.22448,0.577792,2.70375,8.5225,-0.0875,22.072,-22.856,8.936001,eccentric,4,3.0,22265.0,154658.0,246783.0,294444.0,270851.0
2026-04-08 21:38:15.426422,110701,1609503467551158,1067518036,-1.167296,0.22448,0.577792,-2.05625,9.24875,-1.2425,22.072,-22.856,8.936001,eccentric,4,3.0,22265.0,154658.0,246783.0,294444.0,270851.0
2026-04-08 21:38:15.428884,110702,1609503467560132,1067526729,-1.22976,0.251808,0.339648,-2.84375,9.80875,-1.11125,22.392,-22.880001,9.76,eccentric,4,3.0,22265.0,154658.0,246783.0,294444.0,270851.0
2026-04-08 21:38:15.431381,110703,1609503467574651,1067541634,-1.206336,0.197152,0.431392,-2.0475,8.575,-1.0675,22.224,-23.192001,9.8,eccentric,4,3.0,22265.0,154658.0,246783.0,294444.0,270851.0
2026-04-08 21:38:15.435142,110704,1609503467583634,1067550318,-1.206336,0.197152,0.431392,-3.92875,6.90375,-0.90125,22.224,-23.192001,9.8,eccentric,4,3.0,22265.0,154658.0,246783.0,294444.0,270851.0
2026-04-08 21:38:15.465493,110705,1609503467592576,1067558987,-1.081408,0.158112,0.511424,-4.445,3.745,-0.13125,22.224,-23.192001,9.256001,eccentric,4,3.0,22265.0,154658.0,246783.0,294444.0,270851.0
2026-04-08 21:38:15.468955,110706,1609503467607647,1067573926,-1.09312,0.158112,0.511424,-0.525,1.96875,-0.5425,21.808,-23.168001,9.256001,eccentric,4,3.0,22265.0,154658.0,246783.0,294444.0,270851.0
2026-04-08 21:38:15.471390,110707,1609503467616865,1067582633,-1.143872,0.187392,0.433344,2.555,2.205,-1.89,21.696001,-22.912,8.968,eccentric,4,3.0,22265.0,154658.0,246783.0,294444.0,270851.0
2026-04-08 21:38:15.501708,110708,1609503467631408,1067597519,-1.143872,0.187392,0.433344,4.34,1.75875,-1.9775,21.696001,-22.912,8.968,eccentric,4,3.0,22265.0,154658.0,246783.0,294444.0,270851.0
2026-04-08 21:38:15.533912,110719,1609503467640350,1067606306,-1.206336,0.218624,0.359168,1.47,0.0,-1.65375,22.128,-23.016,7.6,eccentric,4,3.0,21971.0,153486.0,245468.0,293633.0,270385.0
2026-04-08 21:38:15.536387,110720,1609503467649274,1067614961,-1.206336,0.218624,0.359168,-1.42625,-1.7325,-0.8925,22.128,-23.016,7.6,eccentric,4,3.0,21971.0,153486.0,245468.0,293633.0,270385.0
2026-04-08 21:38:15.538877,110721,1609503467663787,1067629826,-1.149728,0.158112,0.509472,-2.765,-2.8,-2.80875,21.776001,-22.776001,9.336,eccentric,4,3.0,21971.0,153486.0,245468.0,293633.0,270385.0
2026-04-08 21:38:15.541415,110722,1609503467672725,1067638781,-1.149728,0.158112,0.540704,-3.87625,-3.3775,-6.29125,21.776001,-22.776001,9.336,eccentric,4,3.0,21971.0,153486.0,245468.0,293633.0,270385.0
2026-04-08 21:38:15.543955,110723,1609503467687255,1067653725,-1.079456,0.128832,0.540704,-0.9625,-2.485,-8.785,21.768002,-22.832,9.392,eccentric,4,3.0,21971.0,153486.0,245468.0,293633.0,270385.0
2026-04-08 21:38:15.579062,110724,1609503467696215,1067662425,-1.118496,0.163968,0.523136,0.28875,-0.49,-11.698751,21.68,-22.696001,8.816,eccentric,4,3.0,21971.0,153486.0,245468.0,293633.0,270385.0
2026-04-08 21:38:15.581562,110725,1609503467710717,1067677287,-1.118496,0.163968,0.523136,0.83125,1.75,-12.81875,21.68,-22.696001,8.816,eccentric,4,3.0,21971.0,153486.0,245468.0,293633.0,270385.0
2026-04-08 21:38:15.583878,110726,1609503467719600,1067685939,-1.143872,0.132736,0.304512,1.785,3.45625,-13.230001,21.68,-22.752,9.056001,eccentric,4,3.0,21971.0,153486.0,245468.0,293633.0,270385.0
2026-04-08 21:38:15.586399,110727,1609503467728527,1067694632,-1.143872,0.132736,0.304512,-1.51375,3.3775,-13.8425,21.68,-22.752,9.056001,eccentric,4,3.0,21971.0,153486.0,245468.0,293633.0,270385.0
2026-04-08 21:38:15.617669,110738,1609503467743007,1067709629,-1.069696,0.054656,0.388448,-3.26375,2.8,-13.55375,21.664001,-22.488,9.440001,eccentric,4,3.0,21966.0,153460.0,245464.0,293607.0,270364.0
2026-04-08 21:38:15.620142,110739,1609503467751924,1067718317,-1.069696,0.054656,0.388448,-0.88375,1.44375,-13.9125,21.664001,-22.488,9.440001,eccentric,4,3.0,21966.0,153460.0,245464.0,293607.0,270364.0
2026-04-08 21:38:15.622675,110740,1609503467766444,1067733208,-1.106784,0.064416,0.275232,4.22625,1.39125,-15.44375,21.544,-22.096,9.152,eccentric,4,3.0,21966.0,153460.0,245464.0,293607.0,270364.0
2026-04-08 21:38:15.627702,110741,1609503467775418,1067741905,-1.104832,0.134688,0.454816,7.2625,2.05625,-19.81,21.68,-22.248001,11.6,eccentric,4,3.0,21966.0,153460.0,245464.0,293607.0,270364.0
2026-04-08 21:38:15.659039,110742,1609503467789895,1067756767,-1.104832,0.134688,0.454816,3.45625,2.7475,-24.6575,21.68,-22.248001,11.6,eccentric,4,3.0,21966.0,153460.0,245464.0,293607.0,270364.0
2026-04-08 21:38:15.661805,110743,1609503467798824,1067765417,-1.089216,0.066368,0.41968,-2.09125,1.26875,-27.39625,21.800001,-21.856,9.328,eccentric,4,3.0,21966.0,153460.0,245464.0,293607.0,270364.0
2026-04-08 21:38:15.664510,110744,1609503467807754,1067774088,-1.089216,0.066368,0.41968,-6.65875,-1.3825,-29.47875,21.800001,-21.856,9.328,eccentric,4,3.0,21966.0,153460.0,245464.0,293607.0,270364.0
2026-04-08 21:38:15.696685,110745,1609503467822249,1067788962,-1.052128,0.076128,0.544608,-7.945,-4.13875,-29.04125,21.256,-21.472,10.432,eccentric,4,3.0,21966.0,153460.0,245464.0,293607.0,270364.0
2026-04-08 21:38:15.700219,110746,1609503467831146,1067797608,-1.052128,0.076128,0.544608,-3.28125,-5.95,-29.58375,21.256,-21.472,10.432,eccentric,4,3.0,21966.0,153460.0,245464.0,293607.0,270364.0
2026-04-08 21:38:15.727675,110757,1609503467845738,1067812549,-1.30784,0.035136,0.199104,0.455,-9.03875,-32.12125,21.76,-21.216002,9.440001,eccentric,4,3.0,21822.0,152766.0,244652.0,293107.0,270084.0
2026-04-08 21:38:15.730219,110758,1609503467854674,1067821251,-1.44448,-0.064416,0.271328,-8.53125,-12.08375,-33.355,21.84,-20.576,9.944,eccentric,4,3.0,21822.0,152766.0,244652.0,293107.0,270084.0
2026-04-08 21:38:15.732705,110759,1609503467869214,1067836166,-1.44448,-0.064416,0.271328,-31.0625,-12.985,-35.86625,21.84,-20.576,9.944,eccentric,4,3.0,21822.0,152766.0,244652.0,293107.0,270084.0
2026-04-08 21:38:15.735198,110760,1609503467878147,1067844864,-1.157536,-0.031232,0.3904,-47.5475,-11.725,-43.74125,22.376001,-19.992,9.776,eccentric,4,3.0,21822.0,152766.0,244652.0,293107.0,270084.0
2026-04-08 21:38:15.740691,110761,1609503467887087,1067853548,-1.157536,-0.031232,0.3904,-41.92125,-7.51625,-56.875,22.376001,-19.992,9.776,eccentric,4,3.0,21822.0,152766.0,244652.0,293107.0,270084.0
2026-04-08 21:38:15.770502,110762,1609503467901565,1067868425,-1.069696,0.03904,0.450912,-31.54375,-6.18625,-65.0125,22.048,-19.144001,10.344001,eccentric,4,3.0,21822.0,152766.0,244652.0,293107.0,270084.0
2026-04-08 21:38:15.773994,110763,1609503467910471,1067877092,-1.069696,0.03904,0.450912,-20.08125,-9.4675,-62.510002,22.048,-19.144001,10.344001,eccentric,4,3.0,21822.0,152766.0,244652.0,293107.0,270084.0
2026-04-08 21:38:15.777736,110764,1609503467924918,1067891926,-0.938912,-0.072224,0.222528,-11.66375,-13.23875,-62.22125,22.616001,-18.960001,10.432,eccentric,4,3.0,21822.0,152766.0,244652.0,293107.0,270084.0
2026-04-08 21:38:15.834019,110775,1609503467933874,1067900585,-0.938912,-0.072224,0.222528,-12.915,-15.715,-68.985,22.616001,-18.960001,10.432,eccentric,4,3.0,21696.0,152184.0,244030.0,292702.0,269720.0
2026-04-08 21:38:15.836530,110776,1609503467948445,1067915468,-0.841312,-0.259616,0.443104,-21.428751,-18.34875,-72.47625,22.784,-17.944,12.344001,eccentric,4,3.0,21696.0,152184.0,244030.0,292702.0,269720.0
2026-04-08 21:38:15.839203,110777,1609503467957347,1067924115,-0.710528,-0.095648,0.398208,-29.8025,-22.28625,-69.0725,22.560001,-16.992,11.120001,eccentric,4,3.0,21696.0,152184.0,244030.0,292702.0,269720.0
2026-04-08 21:38:15.841593,110778,1609503467966406,1067932785,-0.710528,-0.095648,0.398208,-26.18875,-27.3,-63.7175,22.560001,-16.992,11.120001,eccentric,4,3.0,21696.0,152184.0,244030.0,292702.0,269720.0
2026-04-08 21:38:15.843992,110779,1609503467980960,1067947673,-0.55632,-0.054656,0.257664,-9.98375,-26.48625,-66.045,22.408,-16.992,12.160001,eccentric,4,3.0,21696.0,152184.0,244030.0,292702.0,269720.0
2026-04-08 21:38:15.880391,110780,1609503467989939,1067956371,-0.55632,-0.054656,0.257664,6.3,-20.22125,-70.42,22.408,-16.992,12.160001,eccentric,4,3.0,21696.0,152184.0,244030.0,292702.0,269720.0
2026-04-08 21:38:15.883955,110781,1609503468004406,1067971311,-0.80032,-0.304512,0.374784,11.89125,-14.245,-66.49125,22.944,-16.528,11.192,eccentric,4,3.0,21696.0,152184.0,244030.0,292702.0,269720.0
2026-04-08 21:38:15.890220,110782,1609503468013318,1067979982,-0.80032,-0.304512,0.374784,-3.71875,-11.5325,-56.13125,22.944,-16.528,11.192,eccentric,4,3.0,21696.0,152184.0,244030.0,292702.0,269720.0
2026-04-08 21:38:15.892677,110783,1609503468022283,1067988673,-0.778848,-0.337696,0.318176,-27.7025,-7.60375,-56.9275,23.208,-15.64,11.752001,eccentric,4,3.0,21696.0,152184.0,244030.0,292702.0,269720.0
2026-04-08 21:38:15.920122,110794,1609503468037318,1068003626,-0.66368,-0.054656,0.515328,-19.50375,2.96625,-63.35875,23.656002,-15.696001,11.280001,eccentric,4,3.0,21662.0,152038.0,243929.0,292607.0,269592.0
2026-04-08 21:38:15.922672,110795,1609503468046345,1068012415,-0.66368,-0.054656,0.515328,10.14125,15.3475,-62.85125,23.656002,-15.696001,11.280001,eccentric,4,3.0,21662.0,152038.0,243929.0,292607.0,269592.0
2026-04-08 21:38:15.925223,110796,1609503468060873,1068027314,-0.772992,-0.07808,0.296704,30.485,20.62375,-57.21625,24.016,-15.208001,12.472,eccentric,4,3.0,21662.0,152038.0,243929.0,292607.0,269592.0
2026-04-08 21:38:15.927777,110797,1609503468069829,1068036021,-0.772992,-0.07808,0.296704,34.92125,23.6425,-55.83375,24.016,-15.208001,12.472,eccentric,4,3.0,21662.0,152038.0,243929.0,292607.0,269592.0
2026-04-08 21:38:15.957913,110798,1609503468084313,1068050924,-0.636352,-0.32208,0.38064,15.9775,26.31125,-59.0975,24.304,-14.704,12.120001,eccentric,4,3.0,21662.0,152038.0,243929.0,292607.0,269592.0
2026-04-08 21:38:15.961453,110799,1609503468093228,1068059584,-0.636352,-0.32208,0.38064,-9.79125,27.317501,-58.72125,24.304,-14.704,12.120001,eccentric,4,3.0,21662.0,152038.0,243929.0,292607.0,269592.0
2026-04-08 21:38:15.963989,110800,1609503468102121,1068068216,-0.735904,-0.119072,0.22448,-18.8475,29.1725,-52.36875,24.664001,-14.248001,10.216001,eccentric,4,3.0,21662.0,152038.0,243929.0,292607.0,269592.0
2026-04-08 21:38:15.968974,110801,1609503468116564,1068083121,-0.720288,-0.074176,0.523136,-12.31125,27.0725,-46.4975,24.984001,-13.696001,7.784,eccentric,4,3.0,21662.0,152038.0,243929.0,292607.0,269592.0
2026-04-08 21:38:15.999194,110802,1609503468125506,1068091831,-0.720288,-0.074176,0.523136,4.27875,18.3575,-41.08125,24.984001,-13.696001,7.784,eccentric,4,3.0,21662.0,152038.0,243929.0,292607.0,269592.0
2026-04-08 21:38:16.027774,110813,1609503468140190,1068106753,-0.552416,-0.230336,0.343552,21.0875,13.25625,-40.85375,25.192001,-13.672001,9.88,eccentric,4,3.0,21628.0,151819.0,243600.0,292351.0,269402.0
2026-04-08 21:38:16.030234,110814,1609503468149135,1068115401,-0.552416,-0.230336,0.343552,32.20875,16.065,-40.88,25.192001,-13.672001,9.88,eccentric,4,3.0,21628.0,151819.0,243600.0,292351.0,269402.0
2026-04-08 21:38:16.032680,110815,1609503468158058,1068124063,-0.735904,-0.01952,0.20496,29.5925,18.45375,-32.5675,25.024002,-13.632001,9.272,eccentric,4,3.0,21628.0,151819.0,243600.0,292351.0,269402.0
2026-04-08 21:38:16.035216,110816,1609503468172778,1068138973,-0.735904,-0.01952,0.20496,11.22625,19.32,-19.53875,25.024002,-13.632001,9.272,eccentric,4,3.0,21628.0,151819.0,243600.0,292351.0,269402.0
2026-04-08 21:38:16.038333,110817,1609503468181716,1068147658,-0.782752,0.011712,0.415776,-6.01125,17.33375,-10.2375,25.352001,-13.512001,9.88,eccentric,4,3.0,21628.0,151819.0,243600.0,292351.0,269402.0
2026-04-08 21:38:16.075413,110818,1609503468196226,1068162567,-0.782752,-0.206912,0.37088,-7.98,11.36625,-4.62,25.352001,-13.512001,9.88,eccentric,4,3.0,21628.0,151819.0,243600.0,292351.0,269402.0
2026-04-08 21:38:16.078944,110819,1609503468205197,1068171215,-0.813984,-0.206912,0.37088,-0.77875,5.60875,-2.9225,25.544,-13.632001,7.608,eccentric,4,3.0,21628.0,151819.0,243600.0,292351.0,269402.0
2026-04-08 21:38:16.081463,110820,1609503468219691,1068186059,-0.81984,-0.150304,0.187392,13.34375,7.56875,-5.55625,25.248001,-13.448001,9.424001,eccentric,4,3.0,21628.0,151819.0,243600.0,292351.0,269402.0
2026-04-08 21:38:16.084001,110821,1609503468228599,1068194740,-0.81984,-0.150304,0.187392,24.465,13.1775,-5.215,25.248001,-13.448001,9.424001,eccentric,4,3.0,21628.0,151819.0,243600.0,292351.0,269402.0
2026-04-08 21:38:16.111436,110832,1609503468237731,1068203831,-0.942816,0.12688,0.5856,19.81,14.2275,2.31,24.904001,-13.696001,13.368001,eccentric,4,3.0,21459.0,151054.0,242702.0,291833.0,269133.0
2026-04-08 21:38:16.113934,110833,1609503468252297,1068218829,-0.942816,0.12688,0.5856,4.8475,8.2075,10.91125,24.904001,-13.696001,13.368001,eccentric,4,3.0,21459.0,151054.0,242702.0,291833.0,269133.0
2026-04-08 21:38:16.116783,110834,1609503468261232,1068227485,-0.954528,-0.031232,0.343552,-5.17125,-2.51125,14.07875,25.168001,-13.632001,11.120001,eccentric,4,3.0,21459.0,151054.0,242702.0,291833.0,269133.0
2026-04-08 21:38:16.179087,110835,1609503468275735,1068242425,-0.954528,-0.031232,0.343552,0.42875,-6.2125,11.3225,25.168001,-13.632001,11.120001,eccentric,4,3.0,21459.0,151054.0,242702.0,291833.0,269133.0
2026-04-08 21:38:16.181400,110836,1609503468284648,1068251104,-0.972096,-0.324032,0.294752,8.085,-3.5175,4.235,24.992,-13.872001,9.240001,eccentric,4,3.0,21459.0,151054.0,242702.0,291833.0,269133.0
2026-04-08 21:38:16.183934,110837,1609503468299135,1068265945,-1.04432,0.001952,0.247904,6.79,-0.11375,-0.21875,25.096,-13.880001,9.328,eccentric,4,3.0,21459.0,151054.0,242702.0,291833.0,269133.0
2026-04-08 21:38:16.186454,110838,1609503468308070,1068274608,-1.04432,0.001952,0.247904,7.35,3.7975,4.41,25.096,-13.880001,9.328,eccentric,4,3.0,21459.0,151054.0,242702.0,291833.0,269133.0
2026-04-08 21:38:16.188926,110839,1609503468317023,1068283262,-1.04432,-0.003904,0.636352,2.59,5.425,5.90625,25.096,-13.880001,9.328,eccentric,4,3.0,21459.0,151054.0,242702.0,291833.0,269133.0
2026-04-08 21:38:16.191413,110840,1609503468331490,1068298248,-0.942816,-0.003904,0.636352,-6.545,0.21,5.1625,25.104002,-14.112,8.648001,eccentric,4,3.0,21459.0,151054.0,242702.0,291833.0,269133.0
2026-04-08 21:38:16.219121,110851,1609503468340621,1068306945,-0.921344,-0.212768,0.2928,-10.78,-5.1625,6.7375,25.016,-14.136001,10.088,eccentric,4,3.0,21559.0,151479.0,243216.0,292206.0,269344.0
2026-04-08 21:38:16.221558,110852,1609503468355222,1068321903,-0.921344,-0.212768,0.2928,-6.06375,-5.1625,6.79875,25.016,-14.136001,10.088,eccentric,4,3.0,21559.0,151479.0,243216.0,292206.0,269344.0
2026-04-08 21:38:16.223893,110853,1609503468364187,1068330590,-0.880352,-0.115168,0.443104,-0.91,-2.52875,8.98625,24.576,-14.264001,10.184,eccentric,4,3.0,21559.0,151479.0,243216.0,292206.0,269344.0
2026-04-08 21:38:16.226398,110854,1609503468373174,1068339313,-0.880352,-0.115168,0.443104,-4.90875,-1.435,13.335,24.576,-14.264001,10.184,eccentric,4,3.0,21559.0,151479.0,243216.0,292206.0,269344.0
2026-04-08 21:38:16.259080,110855,1609503468387661,1068354234,-0.831552,-0.080032,0.511424,-13.8075,-2.205,16.415,24.728,-14.200001,9.296001,eccentric,4,3.0,21559.0,151479.0,243216.0,292206.0,269344.0
2026-04-08 21:38:16.262664,110856,1609503468396670,1068362904,-0.831552,-0.080032,0.511424,-19.52125,-6.02875,18.165,24.728,-14.200001,9.296001,eccentric,4,3.0,21559.0,151479.0,243216.0,292206.0,269344.0
2026-04-08 21:38:16.265178,110857,1609503468411137,1068377763,-0.86864,-0.16592,0.314272,-18.12125,-9.1875,20.23,24.648,-14.248001,8.624001,eccentric,4,3.0,21559.0,151479.0,243216.0,292206.0,269344.0
2026-04-08 21:38:16.271558,110858,1609503468420143,1068386493,-0.872544,-0.128832,0.44896,-6.43125,-9.292501,22.12,24.160002,-14.544001,10.784,eccentric,4,3.0,21559.0,151479.0,243216.0,292206.0,269344.0
2026-04-08 21:38:16.302867,110859,1609503468434607,1068401384,-0.872544,-0.128832,0.44896,4.7775,-7.35875,24.6575,24.160002,-14.544001,10.784,eccentric,4,3.0,21559.0,151479.0,243216.0,292206.0,269344.0
2026-04-08 21:38:16.330256,110870,1609503468443559,1068410165,-0.847168,-0.134688,0.365024,1.68875,-6.545,27.67625,24.192001,-14.936001,9.496,eccentric,4,3.0,21669.0,151992.0,243908.0,292674.0,269606.0
2026-04-08 21:38:16.332743,110871,1609503468452469,1068418838,-0.847168,-0.134688,0.365024,-9.03,-7.665,32.138752,24.192001,-14.936001,9.496,eccentric,4,3.0,21669.0,151992.0,243908.0,292674.0,269606.0
2026-04-08 21:38:16.338979,110872,1609503468466963,1068433835,-0.933056,-0.105408,0.495808,-14.25375,-9.94,34.755,23.6,-15.464001,11.216001,eccentric,4,3.0,21669.0,151992.0,243908.0,292674.0,269606.0
2026-04-08 21:38:16.341459,110873,1609503468476025,1068442539,-0.933056,-0.105408,0.495808,-10.675,-12.66125,35.23625,23.6,-15.464001,11.216001,eccentric,4,3.0,21669.0,151992.0,243908.0,292674.0,269606.0
2026-04-08 21:38:16.343972,110874,1609503468490517,1068457442,-0.815936,-0.103456,0.374784,-1.23375,-13.90375,36.6975,23.208,-15.480001,11.352,eccentric,4,3.0,21669.0,151992.0,243908.0,292674.0,269606.0
2026-04-08 21:38:16.374300,110875,1609503468499483,1068466115,-0.905728,-0.027328,0.267424,8.7325,-13.4225,39.22625,23.544,-16.248001,8.512,eccentric,4,3.0,21669.0,151992.0,243908.0,292674.0,269606.0
2026-04-08 21:38:16.377790,110876,1609503468513982,1068480952,-0.905728,-0.027328,0.267424,13.475,-12.5125,41.107502,23.544,-16.248001,8.512,eccentric,4,3.0,21669.0,151992.0,243908.0,292674.0,269606.0
2026-04-08 21:38:16.381890,110877,1609503468522881,1068489626,-0.919392,-0.0976,0.470432,10.57875,-10.42125,43.4175,23.248001,-16.44,9.984,eccentric,4,3.0,21669.0,151992.0,243908.0,292674.0,269606.0
2026-04-08 21:38:16.384301,110878,1609503468531768,1068498296,-0.919392,-0.0976,0.470432,0.95375,-9.56375,46.0075,23.248001,-16.44,9.984,eccentric,4,3.0,21669.0,151992.0,243908.0,292674.0,269606.0
2026-04-08 21:38:16.413964,110889,1609503468546711,1068513772,-0.942816,-0.091744,0.5368,-6.69375,-10.6925,45.91125,22.864,-16.568,10.8,eccentric,4,3.0,21753.0,152319.0,244280.0,292935.0,269736.0
2026-04-08 21:38:16.416455,110890,1609503468555662,1068522443,-0.942816,-0.091744,0.5368,-1.0325,-9.96625,41.50125,22.864,-16.568,10.8,eccentric,4,3.0,21753.0,152319.0,244280.0,292935.0,269736.0
