pc_time,serial_num,sensor_ts,host_ts,ax,ay,az,gx,gy,gz,mx,my,mz,phase,rpe,weight_kg,ppg_a,ppg_b,ppg_c,ppg_d,ppg_e
2026-04-14 17:31:12.194341,346550,1609505365867330,2965837566,-1.038464,-0.046848,-0.031232,21.035,3.01,-15.61875,20.584002,-20.824001,-12.792001,none,3,3.0,26522.0,194948.0,60827.0,197186.0,69686.0
2026-04-14 17:31:12.197405,346551,1609505365876268,2965846223,-1.079456,-0.040992,-0.050752,20.93875,5.04,-17.6575,20.512001,-20.84,-12.688001,none,3,3.0,26522.0,194948.0,60827.0,197186.0,69686.0
2026-04-14 17:31:12.198170,346552,1609505365885167,2965854886,-1.079456,-0.040992,-0.050752,22.12,5.985,-19.57375,20.512001,-20.84,-12.688001,none,3,3.0,26522.0,194948.0,60827.0,197186.0,69686.0
2026-04-14 17:31:12.210055,346553,1609505365899604,2965869756,-0.989664,-0.046848,-0.05856,25.2875,6.51,-20.64125,20.720001,-20.12,-13.328001,none,3,3.0,26522.0,194948.0,60827.0,197186.0,69686.0
2026-04-14 17:31:12.211646,346554,1609505365908513,2965878486,-0.989664,-0.046848,-0.05856,28.8225,7.455,-22.39125,20.720001,-20.12,-13.328001,none,3,3.0,26522.0,194948.0,60827.0,197186.0,69686.0
2026-04-14 17:31:12.230552,346565,1609505365923109,2965893458,-1.018944,-0.023424,-0.124928,31.045,9.205,-25.165,20.944,-19.896002,-12.704,none,3,3.0,26080.0,192607.0,60003.0,194909.0,68771.0
2026-04-14 17:31:12.232980,346566,1609505365932085,2965902194,-1.001376,-0.035136,-0.046848,31.70125,11.12125,-27.64125,20.816002,-20.208,-12.048,none,3,3.0,26080.0,192607.0,60003.0,194909.0,68771.0
2026-04-14 17:31:12.239377,346567,1609505365946593,2965915082,-1.001376,-0.035136,-0.046848,31.3075,13.51,-29.855,20.816002,-20.208,-12.048,none,3,3.0,26080.0,192607.0,60003.0,194909.0,68771.0
2026-04-14 17:31:12.249519,346568,1609505365955965,2965925882,-1.026752,-0.0976,-0.091744,31.85875,16.12625,-31.7975,20.880001,-19.160002,-12.64,none,3,3.0,26080.0,192607.0,60003.0,194909.0,68771.0
2026-04-14 17:31:12.258324,346569,1609505365964943,2965934564,-1.026752,-0.0976,-0.091744,34.90375,17.36,-33.04875,20.880001,-19.160002,-12.64,none,3,3.0,26080.0,192607.0,60003.0,194909.0,68771.0
2026-04-14 17:31:12.273373,346570,1609505365979487,2965949468,-1.069696,-0.007808,0.054656,40.425,17.36875,-34.09875,20.912,-18.880001,-13.376,none,3,3.0,26080.0,192607.0,60003.0,194909.0,68771.0
2026-04-14 17:31:12.282148,346571,1609505365988407,2965958133,-1.069696,-0.007808,0.054656,45.85875,16.56375,-34.195,20.912,-18.880001,-13.376,none,3,3.0,26080.0,192607.0,60003.0,194909.0,68771.0
2026-04-14 17:31:12.299025,346572,1609505366002934,2965972988,-1.059936,-0.001952,-0.080032,47.451252,16.84375,-34.2475,21.648,-18.416,-14.616001,none,3,3.0,26080.0,192607.0,60003.0,194909.0,68771.0
2026-04-14 17:31:12.328164,346583,1609505366011923,2965982210,-1.04432,-0.025376,0.095648,43.82,16.98375,-34.4225,21.232,-17.848001,-14.088,none,3,3.0,25861.0,190879.0,59611.0,193342.0,68284.0
2026-04-14 17:31:12.330846,346584,1609505366020909,2965990931,-1.04432,-0.025376,0.095648,37.63375,17.3075,-34.51,21.232,-17.848001,-14.088,none,3,3.0,25861.0,190879.0,59611.0,193342.0,68284.0
2026-04-14 17:31:12.333276,346585,1609505366035443,2966003827,-1.163392,-0.111264,-0.163968,33.62625,18.62,-34.79875,21.128,-16.952002,-13.728001,none,3,3.0,25861.0,190879.0,59611.0,193342.0,68284.0
2026-04-14 17:31:12.338402,346586,1609505366044714,2966014576,-1.163392,-0.111264,-0.163968,36.72375,20.22125,-34.72875,21.128,-16.952002,-13.728001,none,3,3.0,25861.0,190879.0,59611.0,193342.0,68284.0
2026-04-14 17:31:12.353279,346587,1609505366059229,2966029592,-1.145824,-0.060512,-0.00976,44.388752,20.9125,-33.80125,20.664001,-16.832,-15.528001,none,3,3.0,25861.0,190879.0,59611.0,193342.0,68284.0
2026-04-14 17:31:12.363409,346588,1609505366068134,2966038265,-1.145824,-0.060512,-0.00976,51.7125,20.01125,-32.26125,20.664001,-16.832,-15.528001,none,3,3.0,25861.0,190879.0,59611.0,193342.0,68284.0
2026-04-14 17:31:12.379657,346589,1609505366082684,2966051074,-1.098976,-0.031232,0.011712,53.7775,17.99875,-31.3425,21.28,-16.624,-16.44,none,3,3.0,25861.0,190879.0,59611.0,193342.0,68284.0
2026-04-14 17:31:12.387191,346590,1609505366091879,2966061805,-1.130208,-0.013664,0.00976,51.47625,16.31875,-30.6425,21.28,-16.624,-16.904001,none,3,3.0,25861.0,190879.0,59611.0,193342.0,68284.0
2026-04-14 17:31:12.393628,346591,1609505366100810,2966070520,-1.139968,-0.013664,0.00976,48.055,15.96,-30.58125,22.544,-16.44,-16.904001,none,3,3.0,25861.0,190879.0,59611.0,193342.0,68284.0
2026-04-14 17:31:12.429375,346602,1609505366115778,2966085455,-1.145824,-0.085888,-0.025376,45.64,15.8725,-31.08,22.880001,-15.824,-17.288,none,3,3.0,25819.0,190439.0,59517.0,192996.0,68155.0
2026-04-14 17:31:12.431742,346603,1609505366124813,2966094224,-1.145824,-0.085888,-0.025376,46.2175,16.24,-30.70375,22.880001,-15.824,-17.288,none,3,3.0,25819.0,190439.0,59517.0,192996.0,68155.0
2026-04-14 17:31:12.434343,346604,1609505366139306,2966109151,-1.179008,-0.105408,-0.199104,50.732502,16.178751,-29.741251,22.880001,-15.6,-16.704,none,3,3.0,25819.0,190439.0,59517.0,192996.0,68155.0
2026-04-14 17:31:12.440528,346605,1609505366148249,2966117877,-1.179008,-0.105408,-0.199104,56.98,16.24,-29.067501,22.880001,-15.6,-16.704,none,3,3.0,25819.0,190439.0,59517.0,192996.0,68155.0
2026-04-14 17:31:12.454797,346606,1609505366157185,2966126574,-1.188768,-0.033184,0.03904,60.34,16.54625,-30.1875,22.688002,-14.752001,-18.048,none,3,3.0,25819.0,190439.0,59517.0,192996.0,68155.0
2026-04-14 17:31:12.466075,346607,1609505366171937,2966141689,-1.188768,-0.033184,-0.033184,60.94375,15.4875,-30.415,22.688002,-14.752001,-18.048,none,3,3.0,25819.0,190439.0,59517.0,192996.0,68155.0
2026-04-14 17:31:12.473220,346608,1609505366180895,2966150340,-1.22,-0.017568,-0.033184,59.43875,14.67375,-28.630001,22.504002,-14.232,-20.504002,none,3,3.0,25819.0,190439.0,59517.0,192996.0,68155.0
2026-04-14 17:31:12.488283,346609,1609505366195382,2966165219,-1.139968,-0.154208,-0.111264,56.41125,14.175,-27.64125,23.320002,-13.68,-19.064001,none,3,3.0,25819.0,190439.0,59517.0,192996.0,68155.0
2026-04-14 17:31:12.517489,346610,1609505366204353,2966173913,-1.139968,-0.154208,-0.111264,54.18,14.69125,-27.58,23.320002,-13.68,-19.064001,none,3,3.0,25819.0,190439.0,59517.0,192996.0,68155.0
2026-04-14 17:31:12.570821,346621,1609505366213651,2966182650,-1.126304,-0.181536,-0.040992,56.51625,15.68,-26.45125,23.376001,-13.192,-19.424002,none,3,3.0,26660.0,192657.0,61082.0,195521.0,69842.0
2026-04-14 17:31:12.573111,346622,1609505366228230,2966197590,-1.126304,-0.181536,-0.040992,64.1725,16.07375,-24.36875,23.376001,-13.192,-19.424002,none,3,3.0,26660.0,192657.0,61082.0,195521.0,69842.0
2026-04-14 17:31:12.576547,346623,1609505366237172,2966206321,-1.20048,-0.074176,-0.035136,72.24,16.397501,-22.2775,22.464,-12.304001,-18.320002,none,3,3.0,26660.0,192657.0,61082.0,195521.0,69842.0
2026-04-14 17:31:12.583210,346624,1609505366251644,2966221191,-1.20048,-0.074176,-0.035136,75.81,16.58125,-20.055,22.464,-12.304001,-18.320002,none,3,3.0,26660.0,192657.0,61082.0,195521.0,69842.0
2026-04-14 17:31:12.586074,346625,1609505366260590,2966229898,-1.0736,-0.134688,0.017568,73.54375,17.21125,-19.4775,21.976002,-11.896001,-20.272001,none,3,3.0,26660.0,192657.0,61082.0,195521.0,69842.0
2026-04-14 17:31:12.588491,346626,1609505366275111,2966244868,-1.11264,-0.130784,-0.191296,69.615,17.24625,-18.7075,23.320002,-11.584001,-21.072,none,3,3.0,26660.0,192657.0,61082.0,195521.0,69842.0
2026-04-14 17:31:12.591086,346627,1609505366284042,2966253569,-1.11264,-0.130784,-0.191296,69.01125,17.56125,-17.15875,23.320002,-11.584001,-21.072,none,3,3.0,26660.0,192657.0,61082.0,195521.0,69842.0
2026-04-14 17:31:12.593604,346628,1609505366293045,2966262300,-1.11264,-0.128832,-0.154208,70.23625,17.50875,-15.96,23.320002,-11.584001,-21.072,none,3,3.0,26660.0,192657.0,61082.0,195521.0,69842.0
2026-04-14 17:31:12.600845,346629,1609505366307626,2966277179,-1.009184,-0.128832,-0.154208,70.37625,17.57,-16.35375,23.568,-10.992001,-20.808,none,3,3.0,26660.0,192657.0,61082.0,195521.0,69842.0
2026-04-14 17:31:12.633182,346640,1609505366316929,2966285959,-1.075552,-0.06832,-0.003904,64.925,17.63125,-17.2375,23.072,-10.216001,-21.584002,none,3,3.0,29102.0,205113.0,65549.0,208286.0,74745.0
2026-04-14 17:31:12.636079,346641,1609505366331474,2966300936,-1.075552,-0.06832,-0.003904,56.58625,17.5525,-19.6175,23.072,-10.216001,-21.584002,none,3,3.0,29102.0,205113.0,65549.0,208286.0,74745.0
2026-04-14 17:31:12.638620,346642,1609505366340405,2966309629,-1.077504,-0.130784,-0.124928,52.03625,16.4325,-20.34375,23.312,-9.92,-21.696001,none,3,3.0,29102.0,205113.0,65549.0,208286.0,74745.0
2026-04-14 17:31:12.642104,346643,1609505366349330,2966318292,-1.077504,-0.130784,-0.124928,51.09125,15.14625,-19.3725,23.312,-9.92,-21.696001,none,3,3.0,29102.0,205113.0,65549.0,208286.0,74745.0
2026-04-14 17:31:12.658882,346644,1609505366363829,2966333190,-0.976,-0.138592,0.07808,48.895,13.4225,-18.9525,22.68,-9.792001,-21.504002,none,3,3.0,29102.0,205113.0,65549.0,208286.0,74745.0
2026-04-14 17:31:12.666456,346645,1609505366372815,2966341915,-0.976,-0.138592,0.07808,42.9625,11.8825,-18.4275,22.68,-9.792001,-21.504002,none,3,3.0,29102.0,205113.0,65549.0,208286.0,74745.0
2026-04-14 17:31:12.681083,346646,1609505366387278,2966356813,-1.001376,-0.1952,-0.15616,31.99,11.042501,-16.1875,22.312,-9.104,-24.112001,none,3,3.0,29102.0,205113.0,65549.0,208286.0,74745.0
2026-04-14 17:31:12.689844,346647,1609505366396239,2966365494,-1.018944,-0.212768,-0.072224,18.61125,9.5025,-12.60875,22.736002,-9.160001,-21.920002,none,3,3.0,29102.0,205113.0,65549.0,208286.0,74745.0
2026-04-14 17:31:12.704950,346648,1609505366410730,2966380400,-1.018944,-0.212768,-0.072224,5.0225,6.88625,-8.155,22.736002,-9.160001,-21.920002,none,3,3.0,29102.0,205113.0,65549.0,208286.0,74745.0
2026-04-14 17:31:12.759678,346659,1609505366419794,2966389167,-1.042368,-0.324032,-0.083936,-3.5875,5.005,-2.1525,23.12,-9.192,-22.856,none,3,3.0,28714.0,209553.0,64640.0,210716.0,74136.0
2026-04-14 17:31:12.763695,346660,1609505366428728,2966397876,-1.042368,-0.324032,-0.083936,2.86125,4.45375,3.08,23.12,-9.192,-22.856,none,3,3.0,28714.0,209553.0,64640.0,210716.0,74136.0
2026-04-14 17:31:12.764327,346661,1609505366443185,2966412757,-0.993568,-0.333792,-0.0976,25.2,4.87375,4.4275,23.152,-9.072001,-23.192001,none,3,3.0,28714.0,209553.0,64640.0,210716.0,74136.0
2026-04-14 17:31:12.769048,346662,1609505366452125,2966421487,-0.993568,-0.333792,-0.0976,50.05875,6.51,3.82375,23.152,-9.072001,-23.192001,none,3,3.0,28714.0,209553.0,64640.0,210716.0,74136.0
2026-04-14 17:31:12.769519,346663,1609505366466638,2966436367,-1.100928,-0.119072,-0.03904,71.68,9.98375,4.27,23.448002,-8.480001,-23.920002,none,3,3.0,28714.0,209553.0,64640.0,210716.0,74136.0
2026-04-14 17:31:12.771690,346664,1609505366475602,2966445080,-1.126304,-0.119072,-0.07808,82.0575,12.6525,4.795,22.704,-8.160001,-23.928001,none,3,3.0,28714.0,209553.0,64640.0,210716.0,74136.0
2026-04-14 17:31:12.783654,346665,1609505366490084,2966460111,-1.126304,-0.119072,-0.07808,74.865,13.8075,1.68,22.704,-8.160001,-23.928001,none,3,3.0,28714.0,209553.0,64640.0,210716.0,74136.0
2026-04-14 17:31:12.793053,346666,1609505366499013,2966468796,-1.08336,-0.365024,-0.18544,56.175,13.50125,-2.17875,23.080002,-8.112,-23.888,none,3,3.0,28714.0,209553.0,64640.0,210716.0,74136.0
2026-04-14 17:31:12.802345,346667,1609505366507955,2966477473,-1.08336,-0.365024,-0.18544,36.365,11.4975,-5.425,23.080002,-8.112,-23.888,none,3,3.0,28714.0,209553.0,64640.0,210716.0,74136.0
2026-04-14 17:31:12.835025,346678,1609505366522472,2966492463,-0.944768,-0.618784,-0.066368,15.96,8.51375,-10.99,23.152,-7.936,-24.352001,none,3,3.0,29740.0,219183.0,66360.0,218647.0,76390.0
2026-04-14 17:31:12.837507,346679,1609505366531506,2966501229,-0.944768,-0.618784,-0.066368,0.83125,5.88875,-17.36875,23.152,-7.936,-24.352001,none,3,3.0,29740.0,219183.0,66360.0,218647.0,76390.0
2026-04-14 17:31:12.840025,346680,1609505366546037,2966516152,-1.011136,-0.368928,-0.060512,10.7275,7.39375,-18.73375,23.248001,-7.36,-23.608002,none,3,3.0,29740.0,219183.0,66360.0,218647.0,76390.0
2026-04-14 17:31:12.850045,346681,1609505366555006,2966524847,-1.065792,-0.025376,0.083936,36.04125,11.10375,-17.885,23.248001,-6.504,-22.288,none,3,3.0,29740.0,219183.0,66360.0,218647.0,76390.0
2026-04-14 17:31:12.858931,346682,1609505366564050,2966533527,-1.065792,-0.025376,0.083936,48.53625,11.7775,-17.28125,21.808,-6.504,-22.288,none,3,3.0,29740.0,219183.0,66360.0,218647.0,76390.0
2026-04-14 17:31:12.887302,346683,1609505366578510,2966548416,-1.009184,-0.07808,0.00976,40.845,7.8225,-15.8375,22.328001,-6.84,-24.968,none,3,3.0,29740.0,219183.0,66360.0,218647.0,76390.0
2026-04-14 17:31:12.889805,346684,1609505366587394,2966557087,-1.009184,-0.07808,0.00976,19.7225,2.19625,-14.8225,22.328001,-6.84,-24.968,none,3,3.0,29740.0,219183.0,66360.0,218647.0,76390.0
2026-04-14 17:31:12.915287,346685,1609505366601853,2966571956,-1.056032,-0.238144,-0.044896,4.34875,-3.47375,-14.805,22.272001,-6.592001,-23.808,none,3,3.0,29740.0,219183.0,66360.0,218647.0,76390.0
2026-04-14 17:31:12.917478,346686,1609505366610814,2966580637,-1.056032,-0.238144,-0.044896,2.0825,-5.88,-14.5775,22.272001,-6.592001,-23.808,none,3,3.0,29740.0,219183.0,66360.0,218647.0,76390.0
2026-04-14 17:31:12.946991,346697,1609505366625477,2966593952,-0.981856,-0.296704,-0.025376,9.98375,-6.755,-14.0,22.592001,-6.16,-23.456001,none,3,3.0,30318.0,221211.0,67507.0,220365.0,77731.0
2026-04-14 17:31:12.949458,346698,1609505366634827,2966604746,-0.981856,-0.296704,-0.042944,22.3825,-6.65,-13.1425,22.592001,-6.16,-23.456001,none,3,3.0,30318.0,221211.0,67507.0,220365.0,77731.0
2026-04-14 17:31:12.953187,346699,1609505366643824,2966613443,-1.046272,-0.245952,-0.042944,34.51875,-3.96375,-11.20875,22.208,-5.512,-22.960001,none,3,3.0,30318.0,221211.0,67507.0,220365.0,77731.0
2026-04-14 17:31:12.955593,346700,1609505366658391,2966628375,-1.030656,-0.183488,0.113216,42.0175,-2.09125,-8.5225,21.872002,-5.744,-23.024,none,3,3.0,30318.0,221211.0,67507.0,220365.0,77731.0
2026-04-14 17:31:12.960549,346701,1609505366667304,2966637122,-1.030656,-0.183488,0.113216,39.9175,-3.22875,-4.55,21.872002,-5.744,-23.024,none,3,3.0,30318.0,221211.0,67507.0,220365.0,77731.0
2026-04-14 17:31:12.975561,346702,1609505366681819,2966652020,-1.056032,-0.269376,-0.119072,30.3625,-5.53875,-1.26,23.320002,-5.768,-24.840002,none,3,3.0,30318.0,221211.0,67507.0,220365.0,77731.0
2026-04-14 17:31:12.984539,346703,1609505366690723,2966660690,-1.056032,-0.269376,-0.119072,23.0825,-7.44625,1.7325,23.320002,-5.768,-24.840002,none,4,3.0,30318.0,221211.0,67507.0,220365.0,77731.0
2026-04-14 17:31:13.002333,346704,1609505366705217,2966675562,-1.018944,-0.349408,-0.046848,20.7025,-8.81125,5.1625,23.536001,-5.816001,-24.968,none,4,3.0,30318.0,221211.0,67507.0,220365.0,77731.0
2026-04-14 17:31:13.045650,346715,1609505366714156,2966684459,-1.018944,-0.349408,-0.046848,26.52125,-8.51375,7.70875,23.536001,-5.816001,-24.968,none,4,3.0,34462.0,228284.0,75394.0,227008.0,87038.0
2026-04-14 17:31:13.046055,346716,1609505366723107,2966693250,-1.011136,-0.187392,0.144448,39.40125,-7.48125,8.96875,22.664001,-4.744,-24.400002,none,4,3.0,34462.0,228284.0,75394.0,227008.0,87038.0
2026-04-14 17:31:13.046920,346717,1609505366737726,2966706959,-1.009184,-0.111264,0.001952,49.65625,-5.8275,10.7275,22.784,-4.816001,-24.456001,none,4,3.0,34462.0,228284.0,75394.0,227008.0,87038.0
2026-04-14 17:31:13.054530,346718,1609505366746693,2966715737,-1.009184,-0.111264,0.001952,49.62125,-4.48,12.66125,22.784,-4.816001,-24.456001,none,4,3.0,34462.0,228284.0,75394.0,227008.0,87038.0
2026-04-14 17:31:13.054620,346719,1609505366761167,2966730638,-0.925248,-0.15616,-0.105408,42.0875,-3.28125,15.86375,22.68,-4.784,-24.872002,none,4,3.0,34462.0,228284.0,75394.0,227008.0,87038.0
2026-04-14 17:31:13.063598,346720,1609505366770064,2966739324,-0.925248,-0.15616,-0.105408,33.9325,-1.575,20.20375,22.68,-4.784,-24.872002,none,4,3.0,34462.0,228284.0,75394.0,227008.0,87038.0
2026-04-14 17:31:13.079606,346721,1609505366784543,2966754275,-0.86864,-0.210816,0.130784,26.678751,1.09375,22.645,22.848001,-4.976,-24.408,none,4,3.0,34462.0,228284.0,75394.0,227008.0,87038.0
2026-04-14 17:31:13.086141,346722,1609505366793477,2966763075,-0.86864,-0.210816,0.130784,18.7075,4.27875,22.54,22.848001,-4.976,-24.408,none,4,3.0,34462.0,228284.0,75394.0,227008.0,87038.0
2026-04-14 17:31:13.097458,346723,1609505366802406,2966771792,-0.999424,-0.23424,0.015616,12.845,6.86,21.25375,23.552002,-5.256,-25.832,none,4,3.0,34462.0,228284.0,75394.0,227008.0,87038.0
2026-04-14 17:31:13.136231,346734,1609505366817379,2966786783,-0.997472,-0.144448,-0.005856,14.63,9.0825,19.6,23.568,-5.216,-24.864,none,4,3.0,37337.0,229000.0,80947.0,228879.0,93300.0
2026-04-14 17:31:13.138756,346735,1609505366826435,2966795530,-0.997472,-0.144448,-0.005856,17.5,10.9375,17.43,23.568,-5.216,-24.864,none,4,3.0,37337.0,229000.0,80947.0,228879.0,93300.0
2026-04-14 17:31:13.141229,346736,1609505366840991,2966810521,-0.979904,-0.183488,0.101504,8.67125,10.99,12.43375,22.400002,-4.976,-23.784,none,4,3.0,37337.0,229000.0,80947.0,228879.0,93300.0
2026-04-14 17:31:13.145739,346737,1609505366849907,2966819228,-0.979904,-0.183488,0.101504,-5.9675,9.835,10.56125,22.400002,-4.976,-23.784,none,4,3.0,37337.0,229000.0,80947.0,228879.0,93300.0
2026-04-14 17:31:13.155035,346738,1609505366858842,2966827942,-0.974048,-0.394304,0.015616,-19.5475,10.35125,9.4325,21.576,-5.056,-24.032001,none,4,3.0,37337.0,229000.0,80947.0,228879.0,93300.0
2026-04-14 17:31:13.167431,346739,1609505366873305,2966842814,-0.974048,-0.394304,0.015616,-26.39,11.34875,8.35625,21.576,-5.056,-24.032001,none,4,3.0,37337.0,229000.0,80947.0,228879.0,93300.0
2026-04-14 17:31:13.178613,346740,1609505366882233,2966851499,-0.952576,-0.359168,0.201056,-25.147501,12.60875,8.07625,23.016,-5.952,-25.936,none,4,3.0,37337.0,229000.0,80947.0,228879.0,93300.0
2026-04-14 17:31:13.189886,346741,1609505366896726,2966866409,-0.952576,-0.236192,0.03904,-18.6375,13.965,8.79375,23.016,-5.952,-25.936,none,4,3.0,37337.0,229000.0,80947.0,228879.0,93300.0
2026-04-14 17:31:13.204954,346742,1609505366905733,2966875117,-0.970144,-0.236192,0.03904,-12.635,15.435,8.68875,22.960001,-6.136,-27.880001,none,4,3.0,37337.0,229000.0,80947.0,228879.0,93300.0
2026-04-14 17:31:13.282033,346753,1609505366920498,2966890177,-0.96624,-0.179584,0.158112,-14.1925,17.50875,8.417501,22.808,-6.28,-25.920002,none,4,3.0,37956.0,227871.0,82033.0,228724.0,94490.0
2026-04-14 17:31:13.288672,346754,1609505366929487,2966899014,-0.96624,-0.179584,0.158112,-22.65375,18.725,8.05875,22.808,-6.28,-25.920002,none,4,3.0,37956.0,227871.0,82033.0,228724.0,94490.0
2026-04-14 17:31:13.291195,346755,1609505366938427,2966907793,-0.944768,-0.218624,0.257664,-31.29875,19.005,8.2075,22.664001,-6.36,-25.168001,none,4,3.0,37956.0,227871.0,82033.0,228724.0,94490.0
2026-04-14 17:31:13.293296,346756,1609505366952892,2966922793,-0.944768,-0.218624,0.257664,-34.23875,18.6725,8.12,22.664001,-6.36,-25.168001,none,4,3.0,37956.0,227871.0,82033.0,228724.0,94490.0
2026-04-14 17:31:13.296007,346757,1609505366961794,2966931451,-1.042368,-0.242048,0.201056,-34.29125,17.89375,7.53375,21.672,-6.328,-24.728,none,4,3.0,37956.0,227871.0,82033.0,228724.0,94490.0
2026-04-14 17:31:13.298745,346758,1609505366976295,2966946299,-1.042368,-0.242048,0.201056,-32.935,15.435,7.8225,21.672,-6.328,-24.728,none,4,3.0,37956.0,227871.0,82033.0,228724.0,94490.0
2026-04-14 17:31:13.301242,346759,1609505366985262,2966954986,-1.106784,-0.255712,0.085888,-28.51625,12.1975,9.23125,21.432001,-6.888001,-24.160002,none,4,3.0,37956.0,227871.0,82033.0,228724.0,94490.0
2026-04-14 17:31:13.303746,346760,1609505366994187,2966963712,-1.106784,-0.255712,0.085888,-20.20375,8.09375,10.31625,21.432001,-6.888001,-24.160002,none,4,3.0,37956.0,227871.0,82033.0,228724.0,94490.0
2026-04-14 17:31:13.305719,346761,1609505367008711,2966978645,-1.06384,-0.247904,0.152256,-13.886251,4.26125,9.98375,22.104002,-7.192,-25.720001,none,4,3.0,37956.0,227871.0,82033.0,228724.0,94490.0
2026-04-14 17:31:13.338782,346772,1609505367017652,2966987933,-1.173152,-0.247904,-0.00976,-11.13875,1.2775,10.26375,22.104002,-7.192,-24.824001,none,4,3.0,40323.0,234108.0,86325.0,234527.0,99509.0
2026-04-14 17:31:13.340833,346773,1609505367032203,2967000790,-1.177056,-0.247904,-0.00976,-10.08,-1.05875,11.75125,22.304,-7.688,-24.824001,none,4,3.0,40323.0,234108.0,86325.0,234527.0,99509.0
2026-04-14 17:31:13.345779,346774,1609505367041605,2967011543,-1.13216,-0.1952,0.236192,-11.27,-2.8875,13.02875,22.056002,-7.584001,-25.584002,none,4,3.0,40323.0,234108.0,86325.0,234527.0,99509.0
2026-04-14 17:31:13.373604,346775,1609505367056102,2967026446,-1.13216,-0.1952,0.236192,-10.6575,-4.0425,12.55625,22.056002,-7.584001,-25.584002,none,4,3.0,40323.0,234108.0,86325.0,234527.0,99509.0
2026-04-14 17:31:13.375737,346776,1609505367065023,2967035111,-1.118496,-0.20496,0.091744,-7.8925,-4.13875,11.3925,22.096,-7.504,-27.664001,none,4,3.0,40323.0,234108.0,86325.0,234527.0,99509.0
2026-04-14 17:31:13.378135,346777,1609505367073950,2967043824,-1.118496,-0.20496,0.091744,-6.57125,-3.5175,10.21125,22.096,-7.504,-27.664001,none,4,3.0,40323.0,234108.0,86325.0,234527.0,99509.0
2026-04-14 17:31:13.382385,346778,1609505367088478,2967058706,-1.118496,-0.183488,-0.021472,-6.4575,-3.68375,9.68625,22.024,-8.136001,-25.216002,none,4,3.0,40323.0,234108.0,86325.0,234527.0,99509.0
2026-04-14 17:31:13.392064,346779,1609505367097477,2967067379,-1.118496,-0.183488,-0.021472,-6.58875,-4.6725,8.56625,22.024,-8.136001,-25.216002,none,4,3.0,40323.0,234108.0,86325.0,234527.0,99509.0
2026-04-14 17:31:13.407470,346780,1609505367111984,2967082249,-1.091168,-0.11712,-0.040992,-5.74,-6.93875,7.8925,22.04,-7.816001,-24.872002,none,4,3.0,40323.0,234108.0,86325.0,234527.0,99509.0
2026-04-14 17:31:13.442087,346791,1609505367121316,2967091015,-1.059936,-0.0488,0.044896,-5.73125,-9.26625,7.02625,22.240002,-8.256001,-24.872002,none,4,3.0,41324.0,230107.0,88474.0,231333.0,101851.0
2026-04-14 17:31:13.444274,346792,1609505367130260,2967099758,-1.059936,-0.0488,0.044896,-8.12,-11.55,6.405,22.240002,-8.256001,-24.872002,none,4,3.0,41324.0,230107.0,88474.0,231333.0,101851.0
2026-04-14 17:31:13.446932,346793,1609505367144892,2967114632,-1.118496,-0.037088,-0.0976,-13.4925,-11.9525,5.15375,21.368002,-8.392,-23.536001,none,4,3.0,41324.0,230107.0,88474.0,231333.0,101851.0
2026-04-14 17:31:13.449828,346794,1609505367153918,2967123306,-1.118496,-0.037088,-0.0976,-20.13375,-11.34875,3.77125,21.368002,-8.392,-23.536001,none,4,3.0,41324.0,230107.0,88474.0,231333.0,101851.0
2026-04-14 17:31:13.462899,346795,1609505367168398,2967138213,-1.067744,-0.122976,-0.132736,-24.00125,-10.84125,2.6425,21.592001,-8.472,-24.264002,none,4,3.0,41324.0,230107.0,88474.0,231333.0,101851.0
2026-04-14 17:31:13.472367,346796,1609505367177339,2967146904,-1.067744,-0.122976,-0.132736,-24.57,-10.43,3.91125,21.592001,-8.472,-24.264002,none,4,3.0,41324.0,230107.0,88474.0,231333.0,101851.0
2026-04-14 17:31:13.486214,346797,1609505367191829,2967161779,-1.048224,-0.10736,0.015616,-23.2225,-9.2575,6.2125,22.416,-9.144,-23.976002,none,4,3.0,41324.0,230107.0,88474.0,231333.0,101851.0
2026-04-14 17:31:13.494668,346798,1609505367200787,2967170490,-0.999424,-0.056608,0.070272,-19.45125,-6.8775,6.9125,21.44,-8.928,-22.752,none,4,3.0,41324.0,230107.0,88474.0,231333.0,101851.0
2026-04-14 17:31:13.507487,346799,1609505367209747,2967179188,-0.999424,-0.056608,0.070272,-14.105001,-4.27875,6.50125,21.44,-8.928,-22.752,none,4,3.0,41324.0,230107.0,88474.0,231333.0,101851.0
2026-04-14 17:31:13.544380,346810,1609505367224372,2967194212,-1.030656,0.0,0.05856,-11.27875,-1.3825,6.4225,22.328001,-9.664001,-23.608002,none,4,3.0,42265.0,231960.0,90266.0,232544.0,103790.0
2026-04-14 17:31:13.547305,346811,1609505367233341,2967202889,-1.030656,0.0,0.05856,-13.545,0.56875,5.10125,22.328001,-9.664001,-23.608002,none,4,3.0,42265.0,231960.0,90266.0,232544.0,103790.0
2026-04-14 17:31:13.549705,346812,1609505367247845,2967217762,-1.108736,-0.05856,-0.113216,-20.93875,-0.90125,4.0075,22.288,-9.872001,-23.592001,none,4,3.0,42265.0,231960.0,90266.0,232544.0,103790.0
2026-04-14 17:31:13.552292,346813,1609505367256804,2967226478,-1.108736,-0.05856,-0.113216,-29.56625,-3.71,5.39,22.288,-9.872001,-23.592001,none,4,3.0,42265.0,231960.0,90266.0,232544.0,103790.0
2026-04-14 17:31:13.564690,346814,1609505367271335,2967241386,-1.05408,-0.130784,-0.193248,-33.22375,-6.405,6.92125,22.112001,-9.848001,-22.880001,none,4,3.0,42265.0,231960.0,90266.0,232544.0,103790.0
2026-04-14 17:31:13.574792,346815,1609505367280248,2967250124,-1.077504,-0.115168,-0.140544,-31.87625,-7.4725,7.41125,22.432001,-10.568001,-23.448002,none,4,3.0,42265.0,231960.0,90266.0,232544.0,103790.0
2026-04-14 17:31:13.588140,346816,1609505367289193,2967258810,-1.077504,-0.115168,-0.140544,-27.41375,-8.5225,7.86625,22.432001,-10.568001,-23.448002,none,4,3.0,42265.0,231960.0,90266.0,232544.0,103790.0
2026-04-14 17:31:13.620935,346817,1609505367303671,2967273709,-1.114592,-0.070272,-0.07808,-21.11375,-9.6425,9.205,22.016,-10.744,-23.144001,none,4,3.0,42265.0,231960.0,90266.0,232544.0,103790.0
2026-04-14 17:31:13.645804,346818,1609505367312617,2967282384,-1.114592,-0.070272,-0.07808,-18.0425,-11.261251,10.78,22.016,-10.744,-23.144001,none,4,3.0,42265.0,231960.0,90266.0,232544.0,103790.0
2026-04-14 17:31:13.678456,346829,1609505367327631,2967297351,-1.071648,-0.093696,0.013664,-24.045,-13.9125,12.36375,20.904001,-10.648001,-21.800001,none,4,3.0,40882.0,230096.0,87748.0,230010.0,100991.0
2026-04-14 17:31:13.680951,346830,1609505367336563,2967306032,-1.071648,-0.093696,0.013664,-32.4975,-15.28625,12.60875,20.904001,-10.648001,-21.800001,none,4,3.0,40882.0,230096.0,87748.0,230010.0,100991.0
2026-04-14 17:31:13.683494,346831,1609505367345459,2967314698,-1.016992,-0.056608,0.062464,-34.3875,-15.18125,10.115,21.096,-11.256001,-21.112001,none,4,3.0,40882.0,230096.0,87748.0,230010.0,100991.0
2026-04-14 17:31:13.685984,346832,1609505367359922,2967329551,-1.036512,-0.093696,-0.091744,-32.5325,-13.30875,6.76375,21.096,-11.256001,-20.368,none,4,3.0,40882.0,230096.0,87748.0,230010.0,100991.0
2026-04-14 17:31:13.688421,346833,1609505367368854,2967338228,-1.036512,-0.093696,-0.091744,-31.31625,-9.70375,5.52125,20.896002,-11.6,-20.368,none,4,3.0,40882.0,230096.0,87748.0,230010.0,100991.0
2026-04-14 17:31:13.690952,346834,1609505367383359,2967353249,-1.003328,-0.13664,-0.052704,-31.10625,-7.18375,4.8825,21.696001,-11.936001,-22.016,none,4,3.0,40882.0,230096.0,87748.0,230010.0,100991.0
2026-04-14 17:31:13.693368,346835,1609505367392264,2967361930,-1.003328,-0.13664,-0.052704,-34.0725,-7.07,4.13,21.696001,-11.936001,-22.016,none,4,3.0,40882.0,230096.0,87748.0,230010.0,100991.0
2026-04-14 17:31:13.700955,346836,1609505367406794,2967376844,-1.08336,-0.101504,0.007808,-38.64875,-7.25375,4.8825,21.68,-12.232,-21.928001,none,4,3.0,40882.0,230096.0,87748.0,230010.0,100991.0
2026-04-14 17:31:13.712220,346837,1609505367415730,2967385516,-1.08336,-0.101504,0.007808,-40.50375,-8.11125,5.845,21.68,-12.232,-21.928001,none,4,3.0,40882.0,230096.0,87748.0,230010.0,100991.0
2026-04-14 17:31:13.744516,346849,1609505367424764,2967394307,-0.993568,-0.101504,-0.033184,-40.25875,-6.8425,6.1075,21.416,-12.544001,-20.28,none,4,3.0,38421.0,228697.0,83346.0,227988.0,96166.0
2026-04-14 17:31:13.749471,346850,1609505367439330,2967409284,-0.993568,-0.101504,-0.033184,-37.1,-3.47375,4.9,21.416,-12.544001,-20.28,none,4,3.0,38421.0,228697.0,83346.0,227988.0,96166.0
2026-04-14 17:31:13.752070,346851,1609505367448244,2967417971,-0.987712,-0.124928,-0.095648,-36.19875,-1.11125,2.77375,20.12,-12.392,-19.36,none,4,3.0,38421.0,228697.0,83346.0,227988.0,96166.0
2026-04-14 17:31:13.758340,346852,1609505367462757,2967432823,-1.0736,-0.226432,-0.193248,-39.48,-1.26,1.63625,19.68,-12.696001,-19.792002,none,4,3.0,38421.0,228697.0,83346.0,227988.0,96166.0
2026-04-14 17:31:13.764393,346853,1609505367471822,2967441536,-1.0736,-0.226432,-0.193248,-37.07375,-1.88125,3.78875,19.68,-12.696001,-19.792002,none,4,3.0,38421.0,228697.0,83346.0,227988.0,96166.0
2026-04-14 17:31:13.780767,346854,1609505367486312,2967456444,-0.976,-0.212768,0.103456,-24.96375,-1.61875,8.51375,21.04,-13.464001,-20.848001,none,4,3.0,38421.0,228697.0,83346.0,227988.0,96166.0
2026-04-14 17:31:13.789668,346855,1609505367495271,2967465127,-0.976,-0.212768,0.103456,-7.455,0.4375,12.1275,21.04,-13.464001,-20.848001,none,4,3.0,38421.0,228697.0,83346.0,227988.0,96166.0
2026-04-14 17:31:13.799669,346856,1609505367504207,2967473824,-1.020896,0.0,-0.050752,7.79625,3.26375,11.9,20.712002,-13.208,-21.128,none,4,3.0,38421.0,228697.0,83346.0,227988.0,96166.0
2026-04-14 17:31:13.837058,346867,1609505367518689,2967488656,-1.020896,0.0,-0.050752,16.37125,5.90625,7.98875,20.712002,-13.208,-21.128,none,4,3.0,38275.0,226072.0,83238.0,225786.0,95941.0
2026-04-14 17:31:13.839582,346868,1609505367527702,2967497364,-1.0248,0.056608,-0.124928,11.29625,6.7025,5.48625,20.552,-13.72,-20.312,none,4,3.0,38275.0,226072.0,83238.0,225786.0,95941.0
2026-04-14 17:31:13.842014,346869,1609505367542235,2967512283,-1.032608,-0.142496,-0.005856,-8.225,5.34625,3.9725,19.656,-13.472001,-20.12,none,4,3.0,38275.0,226072.0,83238.0,225786.0,95941.0
2026-04-14 17:31:13.847200,346870,1609505367551165,2967520960,-1.032608,-0.142496,-0.005856,-26.04875,3.38625,3.38625,19.656,-13.472001,-20.12,none,4,3.0,38275.0,226072.0,83238.0,225786.0,95941.0
2026-04-14 17:31:13.860840,346871,1609505367565647,2967535870,-1.075552,-0.152256,-0.007808,-24.5175,3.57,4.40125,19.504002,-13.832001,-20.944,none,4,3.0,38275.0,226072.0,83238.0,225786.0,95941.0
2026-04-14 17:31:13.869035,346872,1609505367574590,2967544573,-1.075552,-0.152256,-0.007808,-8.855001,6.16875,5.50375,19.504002,-13.832001,-20.944,none,4,3.0,38275.0,226072.0,83238.0,225786.0,95941.0
2026-04-14 17:31:13.878729,346873,1609505367583512,2967553251,-1.097024,-0.00976,-0.035136,9.073751,9.54625,4.0075,19.264002,-13.728001,-19.928001,none,4,3.0,38275.0,226072.0,83238.0,225786.0,95941.0
2026-04-14 17:31:13.892089,346874,1609505367598034,2967568123,-1.097024,-0.00976,-0.035136,17.36875,11.6025,0.77875,19.264002,-13.728001,-19.928001,none,4,3.0,38275.0,226072.0,83238.0,225786.0,95941.0
2026-04-14 17:31:13.902503,346875,1609505367606989,2967576802,-1.104832,-0.01952,-0.119072,14.761251,11.90875,-3.01875,19.792002,-13.984,-21.304,none,4,3.0,38275.0,226072.0,83238.0,225786.0,95941.0
2026-04-14 17:31:13.938247,346886,1609505367621837,2967591805,-1.095072,-0.115168,-0.093696,7.97125,11.15625,-3.78,19.792002,-13.984,-19.936,none,4,3.0,39977.0,233567.0,85868.0,232199.0,99120.0
2026-04-14 17:31:13.941151,346887,1609505367630832,2967600526,-1.095072,-0.115168,-0.093696,3.10625,10.64875,-2.44125,19.728,-13.376,-19.936,none,4,3.0,39977.0,233567.0,85868.0,232199.0,99120.0
2026-04-14 17:31:13.943206,346888,1609505367639837,2967609264,-1.095072,-0.115168,-0.093696,1.855,11.13875,-3.2725,19.728,-13.376,-19.936,none,4,3.0,39977.0,233567.0,85868.0,232199.0,99120.0
2026-04-14 17:31:13.949967,346889,1609505367654387,2967624134,-1.155584,0.017568,-0.132736,4.41875,12.36375,-8.58375,18.176,-12.904,-19.648,none,4,3.0,39977.0,233567.0,85868.0,232199.0,99120.0
2026-04-14 17:31:13.955766,346890,1609505367663341,2967632828,-1.1712,-0.015616,-0.230336,4.9525,11.80375,-14.37625,19.504002,-13.928,-19.848001,none,4,3.0,39977.0,233567.0,85868.0,232199.0,99120.0
2026-04-14 17:31:13.990042,346891,1609505367677809,2967647753,-1.1712,-0.015616,-0.230336,-7.42875,9.30125,-15.67125,19.504002,-13.928,-19.848001,none,4,3.0,39977.0,233567.0,85868.0,232199.0,99120.0
2026-04-14 17:31:13.992247,346892,1609505367686707,2967656418,-1.194624,-0.232288,-0.046848,-23.94,5.95875,-13.7025,19.256,-14.264001,-21.248001,none,4,3.0,39977.0,233567.0,85868.0,232199.0,99120.0
2026-04-14 17:31:14.024876,346893,1609505367701190,2967671338,-1.194624,-0.232288,-0.046848,-26.6175,3.49125,-10.2025,19.256,-14.264001,-21.248001,none,4,3.0,39977.0,233567.0,85868.0,232199.0,99120.0
2026-04-14 17:31:14.027339,346894,1609505367710109,2967680127,-1.155584,-0.228384,-0.109312,-12.8975,3.8675,-7.735,19.488,-13.976001,-22.576,none,4,3.0,39977.0,233567.0,85868.0,232199.0,99120.0
2026-04-14 17:31:14.029836,346895,1609505367719035,2967688806,-1.155584,-0.228384,-0.109312,10.78,4.99625,-7.32375,19.488,-13.976001,-22.576,none,4,3.0,39977.0,233567.0,85868.0,232199.0,99120.0
2026-04-14 17:31:14.079614,346906,1609505367733530,2967703709,-1.1224,0.025376,-0.023424,23.59,4.66375,-8.12875,19.152,-13.776001,-20.856,none,4,3.0,49387.0,251313.0,102387.0,247795.0,117215.0
2026-04-14 17:31:14.082026,346907,1609505367742499,2967712434,-1.157536,-0.02928,-0.20496,15.198751,2.35375,-8.575,19.152,-13.536,-21.52,none,4,3.0,49387.0,251313.0,102387.0,247795.0,117215.0
2026-04-14 17:31:14.085022,346908,1609505367756942,2967725293,-1.157536,-0.02928,-0.20496,-4.13875,-0.6125,-10.01875,18.84,-13.536,-21.52,none,4,3.0,49387.0,251313.0,102387.0,247795.0,117215.0
2026-04-14 17:31:14.087451,346909,1609505367766188,2967736078,-1.165344,-0.210816,-0.142496,-21.55125,-3.255,-11.20875,18.6,-13.616,-20.792002,none,4,3.0,49387.0,251313.0,102387.0,247795.0,117215.0
2026-04-14 17:31:14.090002,346910,1609505367780713,2967750950,-1.165344,-0.210816,-0.142496,-24.38625,-4.78625,-11.27,18.6,-13.616,-20.792002,none,4,3.0,49387.0,251313.0,102387.0,247795.0,117215.0
2026-04-14 17:31:14.093412,346911,1609505367789692,2967759719,-1.061888,-0.183488,-0.003904,-12.1275,-3.64,-10.605001,18.904001,-13.880001,-20.008001,none,4,3.0,49387.0,251313.0,102387.0,247795.0,117215.0
2026-04-14 17:31:14.097911,346912,1609505367798636,2967768408,-1.061888,-0.183488,-0.003904,3.64,-2.9925,-11.38375,18.904001,-13.880001,-20.008001,none,4,3.0,49387.0,251313.0,102387.0,247795.0,117215.0
2026-04-14 17:31:14.107459,346913,1609505367813148,2967783333,-1.095072,-0.085888,-0.138592,12.573751,-2.66875,-12.32875,18.52,-13.848001,-21.064001,none,4,3.0,49387.0,251313.0,102387.0,247795.0,117215.0
2026-04-14 17:31:14.140002,346924,1609505367822114,2967792294,-1.095072,-0.085888,-0.138592,10.4475,-3.1675,-12.075,18.52,-13.848001,-21.064001,none,4,3.0,58712.0,261029.0,117755.0,256650.0,132586.0
2026-04-14 17:31:14.142028,346925,1609505367836683,2967805283,-1.059936,-0.042944,-0.013664,0.49,-3.5175,-12.39,19.896002,-13.864,-22.368002,none,4,3.0,58712.0,261029.0,117755.0,256650.0,132586.0
2026-04-14 17:31:14.145001,346926,1609505367846248,2967816138,-1.018944,0.021472,0.0976,-9.96625,-3.1325,-13.93875,18.464,-13.576,-19.872002,none,4,3.0,58712.0,261029.0,117755.0,256650.0,132586.0
2026-04-14 17:31:14.150014,346927,1609505367855190,2967824821,-1.018944,0.021472,0.0976,-21.23625,-2.12625,-17.98125,18.464,-13.576,-19.872002,none,4,3.0,58712.0,261029.0,117755.0,256650.0,132586.0
2026-04-14 17:31:14.166264,346928,1609505367869663,2967839679,-1.022848,-0.210816,-0.130784,-31.71875,-0.69125,-21.39375,18.088001,-13.64,-21.192001,none,4,3.0,58712.0,261029.0,117755.0,256650.0,132586.0
2026-04-14 17:31:14.172551,346929,1609505367878598,2967848416,-1.022848,-0.210816,-0.130784,-40.451252,-0.2275,-20.965,18.088001,-13.64,-21.192001,none,4,3.0,58712.0,261029.0,117755.0,256650.0,132586.0
2026-04-14 17:31:14.188309,346930,1609505367893095,2967863302,-0.942816,-0.28304,-0.033184,-39.445,0.735,-19.59125,19.928001,-14.072001,-21.712002,none,4,3.0,58712.0,261029.0,117755.0,256650.0,132586.0
2026-04-14 17:31:14.198453,346931,1609505367902041,2967871967,-0.942816,-0.28304,-0.033184,-25.41875,2.6075,-17.08,19.928001,-14.072001,-21.712002,none,4,3.0,58712.0,261029.0,117755.0,256650.0,132586.0
2026-04-14 17:31:14.212366,346932,1609505367916625,2967886856,-1.022848,-0.187392,-0.021472,-10.045,3.465,-12.97625,19.92,-14.008,-22.112001,none,4,3.0,58712.0,261029.0,117755.0,256650.0,132586.0
2026-04-14 17:31:14.242230,346943,1609505367925908,2967895621,-1.013088,-0.054656,-0.101504,-3.33375,3.045,-10.7975,20.064001,-14.152,-21.376001,none,4,3.0,52589.0,250840.0,108831.0,247770.0,123422.0
2026-04-14 17:31:14.244856,346944,1609505367934968,2967904369,-1.013088,-0.054656,-0.101504,-2.38875,1.82,-9.52,20.064001,-14.152,-21.376001,none,4,3.0,52589.0,250840.0,108831.0,247770.0,123422.0
2026-04-14 17:31:14.247488,346945,1609505367949528,2967919285,-1.052128,-0.081984,-0.208864,-7.9975,0.91875,-10.96375,19.576,-13.752001,-21.112001,none,4,3.0,52589.0,250840.0,108831.0,247770.0,123422.0
2026-04-14 17:31:14.252087,346946,1609505367958440,2967927995,-1.052128,-0.081984,-0.208864,-17.85875,-0.88375,-14.13125,19.576,-13.752001,-21.112001,none,4,3.0,52589.0,250840.0,108831.0,247770.0,123422.0
2026-04-14 17:31:14.267124,346947,1609505367972937,2967942874,-1.04432,-0.18544,-0.121024,-24.57875,-2.09125,-15.49625,20.44,-14.472001,-21.944,none,4,3.0,52589.0,250840.0,108831.0,247770.0,123422.0
2026-04-14 17:31:14.277521,346948,1609505367981848,2967951559,-1.04432,-0.18544,-0.121024,-26.95875,-2.7125,-15.65375,20.44,-14.472001,-21.944,none,4,3.0,52589.0,250840.0,108831.0,247770.0,123422.0
2026-04-14 17:31:14.287079,346949,1609505367990849,2967960265,-1.430816,-0.240096,-0.105408,-33.3725,-2.89625,-15.89875,20.528002,-14.376,-22.008001,none,4,3.0,52589.0,250840.0,108831.0,247770.0,123422.0
2026-04-14 17:31:14.298177,346950,1609505368005334,2967975142,-1.360544,-0.425536,-0.208864,-42.525,-5.6175,-14.542501,21.008001,-15.160001,-21.144001,none,4,3.0,52589.0,250840.0,108831.0,247770.0,123422.0
2026-04-14 17:31:14.307511,346951,1609505368014265,2967983836,-1.360544,-0.425536,-0.208864,-59.447502,-7.65625,-16.40625,21.008001,-15.160001,-21.144001,none,4,3.0,52589.0,250840.0,108831.0,247770.0,123422.0
2026-04-14 17:31:14.408322,346962,1609505368028880,2967998827,-1.315648,-0.534848,-0.25376,-65.72125,-6.7025,-18.96125,20.984001,-14.736001,-19.752,none,4,3.0,57528.0,271838.0,115605.0,261741.0,130645.0
2026-04-14 17:31:14.416253,346963,1609505368037960,2968007578,-1.315648,-0.534848,-0.25376,-53.83875,-6.97375,-16.54625,20.984001,-14.736001,-19.752,none,4,3.0,57528.0,271838.0,115605.0,261741.0,130645.0
2026-04-14 17:31:14.418743,346964,1609505368052447,2968022484,-1.3176,-0.109312,-0.081984,-20.405,-11.33125,-7.3675,19.816002,-14.72,-19.0,none,4,3.0,57528.0,271838.0,115605.0,261741.0,130645.0
2026-04-14 17:31:14.420772,346965,1609505368061383,2968031166,-1.3176,-0.109312,-0.081984,25.0075,-13.09875,8.70625,19.816002,-14.72,-19.0,none,4,3.0,57528.0,271838.0,115605.0,261741.0,130645.0
2026-04-14 17:31:14.423256,346966,1609505368070330,2968039887,-1.022848,0.238144,0.181536,49.16625,-14.63875,19.6525,19.640001,-14.416,-19.736,none,4,3.0,57528.0,271838.0,115605.0,261741.0,130645.0
2026-04-14 17:31:14.425770,346967,1609505368084843,2968054784,-0.923296,0.103456,0.15616,38.745,-16.5725,20.20375,19.824001,-15.024001,-17.968,none,4,3.0,57528.0,271838.0,115605.0,261741.0,130645.0
2026-04-14 17:31:14.428729,346968,1609505368093778,2968063459,-0.923296,0.103456,0.15616,7.0,-18.8475,17.61375,19.824001,-15.024001,-17.968,none,4,3.0,57528.0,271838.0,115605.0,261741.0,130645.0
2026-04-14 17:31:14.430772,346969,1609505368108248,2968078347,-1.03456,-0.035136,0.128832,-13.41375,-17.6925,17.9375,20.472,-14.872001,-19.76,none,4,3.0,57528.0,271838.0,115605.0,261741.0,130645.0
2026-04-14 17:31:14.433763,346970,1609505368117149,2968087042,-1.03456,-0.035136,0.128832,-16.80875,-15.2425,15.2075,20.472,-14.872001,-19.76,none,4,3.0,57528.0,271838.0,115605.0,261741.0,130645.0
2026-04-14 17:31:14.463456,346981,1609505368132082,2968102246,-1.042368,-0.193248,-0.035136,-18.59375,-12.215,5.24125,20.240002,-15.392001,-19.696001,none,4,3.0,60190.0,260804.0,121408.0,253743.0,135585.0
2026-04-14 17:31:14.465982,346982,1609505368141015,2968110993,-1.042368,-0.193248,-0.035136,-15.81125,-8.0675,-0.07875,20.240002,-15.392001,-19.696001,none,4,3.0,60190.0,260804.0,121408.0,253743.0,135585.0
2026-04-14 17:31:14.469823,346983,1609505368149961,2968119685,-1.175104,-0.101504,-0.152256,-9.8175,-4.64625,1.7675,20.320002,-15.408001,-19.880001,none,4,3.0,60190.0,260804.0,121408.0,253743.0,135585.0
2026-04-14 17:31:14.470690,346984,1609505368164503,2968134631,-1.175104,-0.101504,-0.052704,-8.07625,-2.68625,2.0475,20.320002,-15.408001,-19.880001,none,4,3.0,60190.0,260804.0,121408.0,253743.0,135585.0
2026-04-14 17:31:14.473179,346985,1609505368173425,2968143380,-1.284416,-0.261568,-0.052704,-16.66,-4.2525,0.21,20.176,-15.552001,-20.832,none,4,3.0,60190.0,260804.0,121408.0,253743.0,135585.0
2026-04-14 17:31:14.481897,346986,1609505368187948,2968158262,-0.974048,-0.530944,-0.220576,-26.425,-2.7475,4.47125,20.784,-15.824,-20.304,none,4,3.0,60190.0,260804.0,121408.0,253743.0,135585.0
2026-04-14 17:31:14.492064,346987,1609505368196856,2968166948,-0.974048,-0.530944,-0.220576,-28.56,0.945,6.195,20.784,-15.824,-20.304,none,4,3.0,60190.0,260804.0,121408.0,253743.0,135585.0
2026-04-14 17:31:14.500843,346988,1609505368205752,2968175630,-0.962336,-0.324032,-0.017568,-19.0575,1.81125,6.9475,20.312,-15.648001,-19.416,none,4,3.0,60190.0,260804.0,121408.0,253743.0,135585.0
2026-04-14 17:31:14.513096,346989,1609505368220244,2968190533,-0.962336,-0.324032,-0.017568,3.5175,-0.25375,14.7875,20.312,-15.648001,-19.416,none,4,3.0,60190.0,260804.0,121408.0,253743.0,135585.0
2026-04-14 17:31:14.542142,347000,1609505368229378,2968199260,-0.94672,0.148352,0.181536,31.59625,-0.18375,20.965,20.576,-15.352001,-19.584002,none,4,3.0,72119.0,275096.0,138171.0,266048.0,152993.0
2026-04-14 17:31:14.544541,347001,1609505368243971,2968214180,-0.94672,0.148352,0.181536,38.5175,0.7875,15.6625,20.576,-15.352001,-19.584002,none,4,3.0,72119.0,275096.0,138171.0,266048.0,152993.0
2026-04-14 17:31:14.549639,347002,1609505368252908,2968222888,-1.192672,0.021472,-0.158112,10.6225,-0.945,7.14875,19.304,-15.400001,-19.528002,none,4,3.0,72119.0,275096.0,138171.0,266048.0,152993.0
2026-04-14 17:31:14.563472,347003,1609505368267478,2968237791,-1.100928,-0.242048,0.015616,-21.5425,-3.33375,4.62,20.248001,-16.192001,-20.456001,none,4,3.0,72119.0,275096.0,138171.0,266048.0,152993.0
2026-04-14 17:31:14.571641,347004,1609505368276392,2968246493,-1.100928,-0.242048,0.015616,-28.77,-2.2925,1.9425,20.248001,-16.192001,-20.456001,none,4,3.0,72119.0,275096.0,138171.0,266048.0,152993.0
2026-04-14 17:31:14.580781,347005,1609505368285346,2968255150,-1.100928,-0.226432,-0.03904,-25.68125,1.81125,-5.83625,20.248001,-16.192001,-20.456001,none,4,3.0,72119.0,275096.0,138171.0,266048.0,152993.0
2026-04-14 17:31:14.593167,347006,1609505368299842,2968270110,-1.097024,-0.22448,-0.03904,-19.81,6.405,-11.6725,20.84,-15.848001,-20.456001,none,4,3.0,72119.0,275096.0,138171.0,266048.0,152993.0
2026-04-14 17:31:14.603367,347007,1609505368308747,2968278790,-1.05408,-0.216672,-0.173728,-12.60875,10.28125,-14.7,21.208,-15.904,-20.304,none,4,3.0,72119.0,275096.0,138171.0,266048.0,152993.0
2026-04-14 17:31:14.617201,347008,1609505368323218,2968291644,-1.05408,-0.216672,-0.173728,-12.5125,9.9575,-16.9925,21.208,-15.904,-20.304,none,4,3.0,72119.0,275096.0,138171.0,266048.0,152993.0
2026-04-14 17:31:14.669989,347019,1609505368332483,2968302448,-1.030656,-0.286944,0.005856,-15.05875,8.44375,-14.51625,21.12,-15.704,-19.168001,none,4,3.0,69811.0,275078.0,133786.0,266494.0,148475.0
2026-04-14 17:31:14.671795,347020,1609505368341589,2968311198,-1.030656,-0.286944,0.005856,-16.82625,7.86625,-9.96625,21.12,-15.704,-19.168001,none,4,3.0,69811.0,275078.0,133786.0,266494.0,148475.0
2026-04-14 17:31:14.674283,347021,1609505368356087,2968326062,-1.214144,-0.25376,-0.191296,-21.23625,7.42,-9.87875,20.376001,-15.512001,-18.936,none,4,3.0,69811.0,275078.0,133786.0,266494.0,148475.0
2026-04-14 17:31:14.676809,347022,1609505368365064,2968334740,-1.214144,-0.25376,-0.191296,-26.60875,9.17875,-13.22125,20.376001,-15.512001,-18.936,none,4,3.0,69811.0,275078.0,133786.0,266494.0,148475.0
2026-04-14 17:31:14.679333,347023,1609505368379537,2968349625,-1.069696,-0.105408,0.005856,-27.43125,9.66,-15.645,20.368,-15.464001,-18.424002,none,4,3.0,69811.0,275078.0,133786.0,266494.0,148475.0
2026-04-14 17:31:14.681817,347024,1609505368388490,2968358303,-0.974048,-0.30256,-0.162016,-28.18375,9.45,-17.33375,21.208,-15.880001,-19.624,none,4,3.0,69811.0,275078.0,133786.0,266494.0,148475.0
2026-04-14 17:31:14.698596,347025,1609505368403015,2968373157,-0.974048,-0.30256,-0.162016,-32.4275,10.21125,-18.13875,21.208,-15.880001,-19.624,none,4,3.0,69811.0,275078.0,133786.0,266494.0,148475.0
2026-04-14 17:31:14.723736,347026,1609505368411938,2968381864,-0.94672,-0.257664,-0.105408,-31.33375,11.13,-18.515,21.568,-16.320002,-19.36,none,4,3.0,69811.0,275078.0,133786.0,266494.0,148475.0
2026-04-14 17:31:14.748762,347027,1609505368420914,2968390561,-0.94672,-0.257664,-0.105408,-21.647501,9.96625,-16.45875,21.568,-16.320002,-19.36,none,4,3.0,69811.0,275078.0,133786.0,266494.0,148475.0
2026-04-14 17:31:14.796144,347038,1609505368435480,2968405830,-1.032608,-0.099552,-0.099552,-13.29125,9.00375,-16.73,21.016,-15.400001,-17.640001,none,4,3.0,56516.0,260227.0,114359.0,253056.0,128436.0
2026-04-14 17:31:14.798190,347039,1609505368444372,2968414494,-1.032608,-0.099552,-0.099552,-12.80125,6.7725,-18.41875,21.016,-15.400001,-17.640001,none,4,3.0,56516.0,260227.0,114359.0,253056.0,128436.0
2026-04-14 17:31:14.800940,347040,1609505368458832,2968427290,-0.9272,-0.13664,-0.003904,-22.33875,1.12,-19.71375,20.28,-15.344001,-17.344002,none,4,3.0,56516.0,260227.0,114359.0,253056.0,128436.0
2026-04-14 17:31:14.803582,347041,1609505368468129,2968438052,-0.8784,-0.183488,-0.13664,-32.62,-2.7125,-20.553751,20.304,-15.152,-17.640001,none,4,3.0,56516.0,260227.0,114359.0,253056.0,128436.0
2026-04-14 17:31:14.806244,347042,1609505368482649,2968452949,-0.8784,-0.183488,-0.13664,-28.49875,-1.79375,-20.44,20.304,-15.152,-17.640001,none,4,3.0,56516.0,260227.0,114359.0,253056.0,128436.0
2026-04-14 17:31:14.808832,347043,1609505368491603,2968461662,-1.028704,-0.0976,-0.148352,-15.2775,-1.33,-20.475,20.880001,-15.712001,-17.880001,none,4,3.0,56516.0,260227.0,114359.0,253056.0,128436.0
2026-04-14 17:31:14.811264,347044,1609505368500613,2968470365,-1.028704,-0.0976,-0.148352,-8.1375,-2.38,-22.40875,20.880001,-15.712001,-17.880001,none,4,3.0,56516.0,260227.0,114359.0,253056.0,128436.0
2026-04-14 17:31:14.813596,347045,1609505368515222,2968485245,-1.09312,-0.085888,0.005856,-6.74625,-2.8,-24.66625,21.720001,-15.608001,-17.880001,none,4,3.0,56516.0,260227.0,114359.0,253056.0,128436.0
2026-04-14 17:31:14.847932,347056,1609505368524147,2968493914,-1.09312,-0.085888,0.005856,-0.25375,-4.9525,-20.475,21.720001,-15.608001,-17.880001,none,4,3.0,56436.0,251707.0,113430.0,243842.0,127938.0
2026-04-14 17:31:14.848798,347057,1609505368538720,2968508847,-0.862784,-0.181536,-0.011712,9.205,-5.15375,-14.14875,21.656,-15.264001,-17.832,none,4,3.0,56436.0,251707.0,113430.0,243842.0,127938.0
2026-04-14 17:31:14.848885,347058,1609505368547719,2968517547,-0.802272,-0.208864,0.027328,17.14125,-2.485,-8.085,21.872002,-15.232,-17.984001,none,4,3.0,56436.0,251707.0,113430.0,243842.0,127938.0
2026-04-14 17:31:14.850483,347059,1609505368556641,2968526275,-0.802272,-0.208864,0.027328,21.3325,1.015,-1.09375,21.872002,-15.232,-17.984001,none,4,3.0,56436.0,251707.0,113430.0,243842.0,127938.0
2026-04-14 17:31:14.865774,347060,1609505368571134,2968541155,-1.085312,0.130784,-0.17568,26.7925,5.67,4.9,21.848001,-15.432001,-19.272001,none,4,3.0,56436.0,251707.0,113430.0,243842.0,127938.0
2026-04-14 17:31:14.874906,347061,1609505368580090,2968549893,-1.085312,0.130784,-0.17568,28.72625,11.73375,6.29125,21.848001,-15.432001,-19.272001,none,4,3.0,56436.0,251707.0,113430.0,243842.0,127938.0
2026-04-14 17:31:14.888775,347062,1609505368594598,2968564810,-1.858304,0.042944,-0.38064,17.64875,17.35125,-4.75125,21.688002,-15.008,-18.52,none,4,3.0,56436.0,251707.0,113430.0,243842.0,127938.0
2026-04-14 17:31:14.898729,347063,1609505368603701,2968573486,-1.858304,0.042944,-0.38064,6.265,9.24,-7.0,21.688002,-15.008,-18.52,none,4,3.0,56436.0,251707.0,113430.0,243842.0,127938.0
2026-04-14 17:31:14.914981,347064,1609505368618171,2968588384,-1.43472,0.07808,0.0488,5.7575,-3.5,9.6425,22.784,-15.344001,-19.112001,none,4,3.0,56436.0,251707.0,113430.0,243842.0,127938.0
2026-04-14 17:31:14.950797,347075,1609505368627146,2968597231,-1.43472,0.07808,0.0488,13.0375,-13.86,16.75625,22.784,-15.344001,-19.112001,none,4,3.0,60153.0,259107.0,118801.0,248737.0,133207.0
2026-04-14 17:31:14.953384,347076,1609505368636160,2968605955,-1.026752,-0.07808,0.0976,16.16125,-18.5325,15.96875,21.84,-14.944,-17.728,none,4,3.0,60153.0,259107.0,118801.0,248737.0,133207.0
2026-04-14 17:31:14.955713,347077,1609505368650673,2968620881,-0.9272,-0.298656,-0.103456,6.5275,-16.6775,15.715,22.608002,-15.264001,-19.368,none,4,3.0,60153.0,259107.0,118801.0,248737.0,133207.0
2026-04-14 17:31:14.958135,347078,1609505368659631,2968629614,-0.9272,-0.298656,-0.103456,-6.615,-12.8275,12.10125,22.608002,-15.264001,-19.368,none,4,3.0,60153.0,259107.0,118801.0,248737.0,133207.0
2026-04-14 17:31:14.965875,347079,1609505368674140,2968642531,-1.030656,-0.357216,-0.115168,-11.2875,-8.225,5.41625,22.648,-15.56,-19.296001,none,4,3.0,60153.0,259107.0,118801.0,248737.0,133207.0
2026-04-14 17:31:14.977050,347080,1609505368683396,2968653275,-1.030656,-0.357216,-0.115168,-4.6025,-4.05125,0.1925,22.648,-15.56,-19.296001,none,4,3.0,60153.0,259107.0,118801.0,248737.0,133207.0
2026-04-14 17:31:14.987145,347081,1609505368692346,2968661958,-0.968192,-0.210816,0.011712,6.4925,1.6275,-2.31875,22.784,-15.432001,-19.152,none,4,3.0,60153.0,259107.0,118801.0,248737.0,133207.0
2026-04-14 17:31:15.000902,347082,1609505368706813,2968676836,-0.968192,-0.210816,0.011712,12.792501,7.35875,-4.865,22.784,-15.432001,-19.152,none,4,3.0,60153.0,259107.0,118801.0,248737.0,133207.0
2026-04-14 17:31:15.010946,347083,1609505368715732,2968685523,-1.020896,-0.085888,0.044896,11.31375,10.24625,-7.42875,22.592001,-15.632001,-16.552,none,4,3.0,60153.0,259107.0,118801.0,248737.0,133207.0
2026-04-14 17:31:15.048333,347094,1609505368730391,2968700468,-1.134112,-0.007808,0.035136,7.4375,8.89875,-7.385,22.768002,-15.264001,-17.384,none,4,3.0,40102.0,220402.0,86802.0,216298.0,99752.0
2026-04-14 17:31:15.050810,347095,1609505368739443,2968709200,-1.134112,-0.007808,0.035136,5.11,5.88,-5.0925,22.768002,-15.264001,-17.384,none,4,3.0,40102.0,220402.0,86802.0,216298.0,99752.0
2026-04-14 17:31:15.053387,347096,1609505368753958,2968724097,-1.097024,-0.027328,0.105408,7.02625,3.395,-2.6425,22.000002,-15.264001,-18.264,none,4,3.0,40102.0,220402.0,86802.0,216298.0,99752.0
2026-04-14 17:31:15.055795,347097,1609505368762958,2968732813,-1.097024,-0.027328,0.105408,9.5725,1.26875,1.30375,22.000002,-15.264001,-18.264,none,4,3.0,40102.0,220402.0,86802.0,216298.0,99752.0
2026-04-14 17:31:15.092120,347098,1609505368771884,2968741504,-1.11264,-0.103456,-0.1464,6.64125,-2.1175,5.88875,21.608002,-15.232,-18.456001,none,4,3.0,40102.0,220402.0,86802.0,216298.0,99752.0
2026-04-14 17:31:15.119642,347099,1609505368786377,2968756374,-1.11264,-0.103456,-0.1464,-0.7525,-5.6,7.98875,21.608002,-15.232,-18.456001,none,4,3.0,40102.0,220402.0,86802.0,216298.0,99752.0
2026-04-14 17:31:15.137086,347100,1609505368795298,2968765034,-1.009184,-0.238144,-0.16592,-9.23125,-7.4375,7.91,22.776001,-15.544001,-19.888,none,4,3.0,40102.0,220402.0,86802.0,216298.0,99752.0
2026-04-14 17:31:15.139588,347101,1609505368809788,2968779892,-0.970144,-0.269376,0.01952,-14.90125,-7.28,7.02625,22.408,-15.776001,-19.752,none,4,3.0,40102.0,220402.0,86802.0,216298.0,99752.0
2026-04-14 17:31:15.142022,347102,1609505368818704,2968788629,-0.970144,-0.269376,0.01952,-14.8575,-7.13125,6.02,22.408,-15.776001,-19.752,none,4,3.0,40102.0,220402.0,86802.0,216298.0,99752.0
2026-04-14 17:31:15.169442,347113,1609505368833218,2968801855,-0.997472,-0.230336,-0.05856,-10.92,-5.74875,4.13875,22.376001,-15.872001,-18.960001,none,4,3.0,32679.0,196464.0,73508.0,198787.0,84179.0
2026-04-14 17:31:15.171916,347114,1609505368842506,2968812616,-0.997472,-0.230336,-0.05856,-5.775,-3.7975,2.0125,22.376001,-15.872001,-18.960001,none,4,3.0,32679.0,196464.0,73508.0,198787.0,84179.0
2026-04-14 17:31:15.174447,347115,1609505368851549,2968821315,-1.098976,-0.128832,-0.113216,-1.89875,-2.6075,2.0825,22.888,-16.152,-19.248001,none,4,3.0,32679.0,196464.0,73508.0,198787.0,84179.0
2026-04-14 17:31:15.177520,347116,1609505368866141,2968836285,-1.098976,-0.128832,-0.113216,-0.60375,-3.73625,4.6725,22.888,-16.152,-19.248001,none,4,3.0,32679.0,196464.0,73508.0,198787.0,84179.0
2026-04-14 17:31:15.179635,347117,1609505368875083,2968845087,-1.204384,-0.103456,-0.179584,-1.42625,-6.08125,6.72,22.576,-16.176,-19.424002,none,4,3.0,32679.0,196464.0,73508.0,198787.0,84179.0
2026-04-14 17:31:15.182080,347118,1609505368889556,2968857946,-1.169248,-0.070272,0.062464,-2.38875,-10.3775,9.02125,22.576,-15.656001,-18.744001,none,4,3.0,32679.0,196464.0,73508.0,198787.0,84179.0
2026-04-14 17:31:15.193374,347119,1609505368898820,2968868681,-1.169248,-0.070272,0.062464,0.42,-12.11875,12.04,22.800001,-15.656001,-18.744001,none,4,3.0,32679.0,196464.0,73508.0,198787.0,84179.0
2026-04-14 17:31:15.203746,347120,1609505368907746,2968877350,-1.169248,-0.070272,0.062464,2.2925,-14.665,12.97625,22.800001,-15.656001,-18.744001,none,4,3.0,32679.0,196464.0,73508.0,198787.0,84179.0
2026-04-14 17:31:15.215839,347121,1609505368922215,2968892256,-1.098976,-0.12688,-0.013664,0.28875,-18.83,12.53,22.768002,-16.136002,-18.016,none,4,3.0,32679.0,196464.0,73508.0,198787.0,84179.0
2026-04-14 17:31:15.248695,347132,1609505368931313,2968901027,-1.077504,-0.183488,-0.187392,-3.12375,-22.8025,12.80125,21.808,-15.952001,-17.44,none,4,3.0,33513.0,195186.0,75073.0,196420.0,85640.0
2026-04-14 17:31:15.250618,347133,1609505368945840,2968916027,-1.077504,-0.183488,-0.187392,-6.5275,-24.52625,12.36375,21.808,-15.952001,-17.44,none,4,3.0,33513.0,195186.0,75073.0,196420.0,85640.0
2026-04-14 17:31:15.253671,347134,1609505368954759,2968924727,-1.116544,-0.1952,-0.140544,-10.9725,-24.745,9.54625,21.808,-15.776001,-17.648,none,4,3.0,33513.0,195186.0,75073.0,196420.0,85640.0
2026-04-14 17:31:15.263737,347135,1609505368969263,2968937619,-1.116544,-0.1952,-0.140544,-15.6975,-24.43,7.8575,21.808,-15.776001,-17.648,none,4,3.0,33513.0,195186.0,75073.0,196420.0,85640.0
2026-04-14 17:31:15.293439,347136,1609505368978424,2968948356,-1.106784,-0.212768,0.044896,-16.485,-24.7275,9.40625,22.752,-16.672,-20.744001,none,4,3.0,33513.0,195186.0,75073.0,196420.0,85640.0
2026-04-14 17:31:15.295894,347137,1609505368987351,2968957048,-1.106784,-0.212768,0.044896,-10.49125,-25.4275,12.01375,22.752,-16.672,-20.744001,none,4,3.0,33513.0,195186.0,75073.0,196420.0,85640.0
2026-04-14 17:31:15.298750,347138,1609505369001789,2968971908,-1.104832,-0.181536,0.085888,1.82,-21.875,14.752501,22.448002,-16.968,-18.112001,none,4,3.0,33513.0,195186.0,75073.0,196420.0,85640.0
2026-04-14 17:31:15.307144,347139,1609505369010740,2968980602,-1.11264,-0.093696,0.080032,22.04125,-18.97,21.27125,22.720001,-16.848001,-18.344002,none,4,3.0,33513.0,195186.0,75073.0,196420.0,85640.0
2026-04-14 17:31:15.319315,347140,1609505369025215,2968995491,-1.11264,-0.093696,0.080032,31.0975,-23.51125,25.725,22.720001,-16.848001,-18.344002,none,4,3.0,33513.0,195186.0,75073.0,196420.0,85640.0
2026-04-14 17:31:15.349956,347151,1609505369034252,2969004325,-1.061888,-0.11712,0.173728,26.81,-25.6025,21.4725,21.920002,-16.616001,-17.024,none,4,3.0,33621.0,192869.0,75388.0,195125.0,85872.0
2026-04-14 17:31:15.352134,347152,1609505369043247,2969012994,-1.061888,-0.11712,0.173728,18.73375,-26.81875,20.125,21.920002,-16.616001,-17.024,none,4,3.0,33621.0,192869.0,75388.0,195125.0,85872.0
2026-04-14 17:31:15.354741,347153,1609505369057781,2969027947,-1.194624,-0.177632,-0.0976,10.4125,-25.82125,23.02125,20.704,-16.480001,-14.376,none,4,3.0,33621.0,192869.0,75388.0,195125.0,85872.0
2026-04-14 17:31:15.361234,347154,1609505369066688,2969036663,-1.194624,-0.177632,-0.0976,4.99625,-24.85,23.9575,20.704,-16.480001,-14.376,none,4,3.0,33621.0,192869.0,75388.0,195125.0,85872.0
2026-04-14 17:31:15.373756,347155,1609505369081154,2969049506,-1.241472,-0.160064,-0.066368,4.15625,-24.64,23.47625,22.352001,-17.264,-18.224,none,4,3.0,33621.0,192869.0,75388.0,195125.0,85872.0
2026-04-14 17:31:15.384520,347156,1609505369090323,2969060279,-1.241472,-0.160064,-0.148352,9.24875,-21.23625,22.1725,22.352001,-17.264,-18.224,none,4,3.0,33621.0,192869.0,75388.0,195125.0,85872.0
2026-04-14 17:31:15.401989,347157,1609505369104839,2969075128,-1.167296,-0.0976,-0.148352,17.6925,-22.72375,22.741251,22.352001,-17.0,-19.288,none,4,3.0,33621.0,192869.0,75388.0,195125.0,85872.0
2026-04-14 17:31:15.407212,347158,1609505369113799,2969083862,-1.036512,-0.027328,0.042944,18.97875,-25.01625,21.8225,22.312,-17.264,-17.784,none,4,3.0,33621.0,192869.0,75388.0,195125.0,85872.0
2026-04-14 17:31:15.417357,347159,1609505369122787,2969092572,-1.036512,-0.027328,0.042944,14.30625,-24.36875,19.565,22.312,-17.264,-17.784,none,4,3.0,33621.0,192869.0,75388.0,195125.0,85872.0
2026-04-14 17:31:15.504132,347170,1609505369137713,2969107545,-1.114592,-0.001952,0.023424,6.92125,-23.94,17.82375,21.608002,-17.024,-17.112001,none,4,3.0,30103.0,181374.0,69084.0,185477.0,77782.0
2026-04-14 17:31:15.504321,347171,1609505369146711,2969116261,-1.114592,-0.001952,0.023424,-0.62125,-22.82,16.02125,21.608002,-17.024,-17.112001,none,4,3.0,30103.0,181374.0,69084.0,185477.0,77782.0
2026-04-14 17:31:15.506846,347172,1609505369161183,2969131142,-1.194624,0.007808,0.017568,-9.730001,-21.02625,12.11,21.624,-16.976002,-17.536001,none,4,3.0,30103.0,181374.0,69084.0,185477.0,77782.0
2026-04-14 17:31:15.509393,347173,1609505369170064,2969139819,-1.194624,0.007808,0.017568,-14.44625,-20.50125,8.42625,21.624,-16.976002,-17.536001,none,4,3.0,30103.0,181374.0,69084.0,185477.0,77782.0
2026-04-14 17:31:15.512336,347174,1609505369178970,2969148471,-1.116544,0.03904,0.046848,-9.8875,-20.30875,8.225,21.968,-17.560001,-19.152,none,4,3.0,30103.0,181374.0,69084.0,185477.0,77782.0
2026-04-14 17:31:15.514878,347175,1609505369193426,2969163335,-1.048224,0.017568,-0.021472,-9.52,-18.29625,4.27875,22.224,-17.720001,-16.944,none,4,3.0,30103.0,181374.0,69084.0,185477.0,77782.0
2026-04-14 17:31:15.517353,347176,1609505369202468,2969172015,-1.048224,0.017568,-0.021472,-10.28125,-15.75,1.96,22.224,-17.720001,-16.944,none,4,3.0,30103.0,181374.0,69084.0,185477.0,77782.0
2026-04-14 17:31:15.519749,347177,1609505369216987,2969186993,-1.020896,-0.035136,0.124928,-9.58125,-14.1925,1.995,22.344002,-17.560001,-16.784,none,4,3.0,30103.0,181374.0,69084.0,185477.0,77782.0
2026-04-14 17:31:15.522360,347178,1609505369225912,2969195687,-1.020896,-0.035136,0.124928,-6.23,-13.8425,-1.12,22.344002,-17.560001,-16.784,none,4,3.0,30103.0,181374.0,69084.0,185477.0,77782.0
2026-04-14 17:31:15.554794,347189,1609505369240513,2969210757,-1.016992,0.011712,0.130784,-0.06125,-12.136251,-4.8475,22.136002,-17.112001,-17.04,none,4,3.0,24707.0,172612.0,58553.0,175750.0,65752.0
2026-04-14 17:31:15.557515,347190,1609505369249443,2969219420,-1.016992,0.011712,0.130784,8.0675,-9.80875,-2.625,22.136002,-17.112001,-17.04,none,4,3.0,24707.0,172612.0,58553.0,175750.0,65752.0
2026-04-14 17:31:15.559920,347191,1609505369258372,2969228116,-1.089216,0.046848,0.111264,13.30875,-9.695,-0.455,22.352001,-17.112001,-15.888001,none,4,3.0,24707.0,172612.0,58553.0,175750.0,65752.0
2026-04-14 17:31:15.567509,347192,1609505369272869,2969243005,-1.091168,-0.128832,0.144448,7.63875,-11.8825,-3.8675,22.336,-17.104,-17.064001,none,4,3.0,24707.0,172612.0,58553.0,175750.0,65752.0
2026-04-14 17:31:15.575797,347193,1609505369281908,2969251668,-1.091168,-0.128832,0.144448,-3.885,-14.665,-12.48625,22.336,-17.104,-17.064001,none,4,3.0,24707.0,172612.0,58553.0,175750.0,65752.0
2026-04-14 17:31:15.591988,347194,1609505369296462,2969266530,-1.0248,0.0,0.177632,8.49625,-15.74125,-6.1775,22.616001,-17.160002,-16.912,none,4,3.0,24707.0,172612.0,58553.0,175750.0,65752.0
2026-04-14 17:31:15.600132,347195,1609505369305428,2969275275,-1.0248,0.0,0.177632,18.54125,-13.7375,-5.59125,22.616001,-17.160002,-16.912,none,4,3.0,24707.0,172612.0,58553.0,175750.0,65752.0
2026-04-14 17:31:15.614845,347196,1609505369319933,2969290175,-1.118496,-0.003904,-0.040992,18.147501,-12.3725,-13.13375,21.36,-16.944,-16.08,none,4,3.0,24707.0,172612.0,58553.0,175750.0,65752.0
2026-04-14 17:31:15.651234,347207,1609505369328862,2969298863,-1.118496,-0.003904,-0.040992,21.1925,-10.00125,-11.27,21.36,-16.944,-16.08,none,4,3.0,21894.0,163634.0,52839.0,166978.0,59328.0
2026-04-14 17:31:15.656257,347208,1609505369338249,2969307684,-1.130208,0.023424,0.199104,20.3,-10.12375,-8.2425,22.128,-16.944,-17.112001,none,4,3.0,21894.0,163634.0,52839.0,166978.0,59328.0
2026-04-14 17:31:15.658769,347209,1609505369352797,2969322603,-1.061888,-0.03904,0.333792,11.47125,-12.99375,-8.26,21.744001,-16.44,-16.776001,none,4,3.0,21894.0,163634.0,52839.0,166978.0,59328.0
2026-04-14 17:31:15.660756,347210,1609505369361708,2969331317,-1.061888,-0.03904,0.333792,-0.44625,-14.455,-8.89,21.744001,-16.44,-16.776001,none,4,3.0,21894.0,163634.0,52839.0,166978.0,59328.0
2026-04-14 17:31:15.671258,347211,1609505369376216,2969346220,-1.065792,-0.1464,0.2928,-9.75625,-13.011251,-12.48625,22.76,-16.504002,-17.184,none,4,3.0,21894.0,163634.0,52839.0,166978.0,59328.0
2026-04-14 17:31:15.678760,347212,1609505369385220,2969354935,-1.065792,-0.1464,0.2928,-9.09125,-10.03625,-16.24875,22.76,-16.504002,-17.184,none,4,3.0,21894.0,163634.0,52839.0,166978.0,59328.0
2026-04-14 17:31:15.688181,347213,1609505369394182,2969363625,-1.0736,-0.12688,0.210816,3.22,-5.88,-16.7125,22.44,-16.184,-16.336,none,4,3.0,21894.0,163634.0,52839.0,166978.0,59328.0
2026-04-14 17:31:15.704864,347214,1609505369408688,2969378509,-1.0736,-0.12688,0.210816,20.23875,-2.7125,-12.76625,22.44,-16.184,-16.336,none,4,3.0,21894.0,163634.0,52839.0,166978.0,59328.0
2026-04-14 17:31:15.712070,347215,1609505369417611,2969387188,-1.08336,-0.03904,0.17568,33.888752,-2.86125,-7.8225,22.720001,-15.832001,-16.208,none,4,3.0,21894.0,163634.0,52839.0,166978.0,59328.0
2026-04-14 17:31:15.750763,347226,1609505369432328,2969402156,-1.08336,-0.03904,0.17568,39.7775,-3.80625,-4.1825,22.720001,-15.832001,-16.208,none,4,3.0,20835.0,155638.0,50838.0,158832.0,57108.0
2026-04-14 17:31:15.758446,347227,1609505369441306,2969410863,-1.091168,-0.021472,0.109312,36.09375,-4.83875,-2.275,22.024,-15.528001,-17.960001,none,4,3.0,20835.0,155638.0,50838.0,158832.0,57108.0
2026-04-14 17:31:15.761257,347228,1609505369455828,2969425800,-1.0736,-0.040992,-0.056608,29.70625,-4.27,-2.24,22.400002,-15.696001,-18.024,none,4,3.0,20835.0,155638.0,50838.0,158832.0,57108.0
2026-04-14 17:31:15.763600,347229,1609505369464800,2969434541,-1.0736,-0.040992,-0.056608,26.32875,-3.17625,-1.67125,22.400002,-15.696001,-18.024,none,4,3.0,20835.0,155638.0,50838.0,158832.0,57108.0
2026-04-14 17:31:15.768757,347230,1609505369473744,2969443228,-1.032608,-0.021472,0.105408,24.68375,-2.0125,-0.97125,22.312,-15.648001,-17.640001,none,4,3.0,20835.0,155638.0,50838.0,158832.0,57108.0
2026-04-14 17:31:15.783586,347231,1609505369488218,2969458079,-1.032608,-0.021472,0.105408,20.97375,-1.26,-0.97125,22.312,-15.648001,-17.640001,none,4,3.0,20835.0,155638.0,50838.0,158832.0,57108.0
2026-04-14 17:31:15.792085,347232,1609505369497171,2969466753,-1.020896,-0.050752,0.122976,15.18125,-1.32125,-0.63875,22.168001,-15.6,-17.608002,none,4,3.0,20835.0,155638.0,50838.0,158832.0,57108.0
2026-04-14 17:31:15.825803,347233,1609505369511686,2969481689,-1.020896,-0.050752,0.122976,12.66125,-1.25125,0.23625,22.168001,-15.6,-17.608002,none,4,3.0,20835.0,155638.0,50838.0,158832.0,57108.0
2026-04-14 17:31:15.851287,347234,1609505369520597,2969490354,-1.079456,-0.042944,0.015616,11.97875,-2.54625,0.91,22.792002,-15.360001,-18.032001,none,4,3.0,20835.0,155638.0,50838.0,158832.0,57108.0
2026-04-14 17:31:15.933355,347245,1609505369535200,2969505456,-0.989664,-0.080032,0.07808,9.8,-2.98375,0.07,21.744001,-15.464001,-17.088001,none,4,3.0,21580.0,153120.0,52147.0,156329.0,58683.0
2026-04-14 17:31:15.936232,347246,1609505369544159,2969514152,-0.989664,-0.080032,0.07808,8.44375,-3.47375,-0.69125,21.744001,-15.464001,-17.088001,none,4,3.0,21580.0,153120.0,52147.0,156329.0,58683.0
2026-04-14 17:31:15.938754,347247,1609505369553075,2969522835,-0.989664,-0.080032,0.052704,8.75,-1.8025,-1.56625,21.744001,-15.464001,-17.088001,none,4,3.0,21580.0,153120.0,52147.0,156329.0,58683.0
2026-04-14 17:31:15.941258,347248,1609505369567633,2969537701,-1.042368,-0.027328,0.052704,10.36875,0.00875,-4.38375,21.432001,-15.096001,-18.960001,none,4,3.0,21580.0,153120.0,52147.0,156329.0,58683.0
2026-04-14 17:31:15.943749,347249,1609505369576646,2969546371,-1.016992,-0.056608,0.017568,10.43,1.70625,-7.7175,21.624,-14.568001,-17.392,none,4,3.0,21580.0,153120.0,52147.0,156329.0,58683.0
2026-04-14 17:31:15.946225,347250,1609505369591214,2969561227,-1.016992,-0.056608,0.017568,8.82,3.3775,-9.7475,21.624,-14.568001,-17.392,none,4,3.0,21580.0,153120.0,52147.0,156329.0,58683.0
2026-04-14 17:31:15.948347,347251,1609505369600247,2969569961,-1.124352,-0.052704,0.027328,7.3675,3.05375,-10.98125,21.864,-14.712001,-17.264,none,4,3.0,21580.0,153120.0,52147.0,156329.0,58683.0
2026-04-14 17:31:15.950612,347252,1609505369614683,2969584949,-1.06384,-0.083936,0.074176,9.5375,2.3275,-10.70125,21.768002,-14.384001,-15.832001,none,4,3.0,21580.0,153120.0,52147.0,156329.0,58683.0
2026-04-14 17:31:15.953357,347253,1609505369623646,2969593616,-1.06384,-0.083936,0.074176,13.230001,1.81125,-10.29875,21.768002,-14.384001,-15.832001,none,4,3.0,21580.0,153120.0,52147.0,156329.0,58683.0
2026-04-14 17:31:15.986134,347264,1609505369633116,2969602321,-1.06384,-0.083936,0.074176,16.9225,0.58625,-10.49125,21.768002,-14.384001,-15.832001,none,4,3.0,21649.0,151889.0,52284.0,154993.0,58849.0
2026-04-14 17:31:15.988520,347265,1609505369647657,2969617207,-1.079456,-0.080032,-0.01952,21.44625,-0.20125,-9.2575,20.832,-14.080001,-16.024,none,4,3.0,21649.0,151889.0,52284.0,154993.0,58849.0
2026-04-14 17:31:15.991122,347266,1609505369656613,2969625951,-0.999424,-0.07808,0.169824,25.10375,0.25375,-7.95375,20.784,-14.096001,-17.832,none,4,3.0,21649.0,151889.0,52284.0,154993.0,58849.0
2026-04-14 17:31:15.993298,347267,1609505369671171,2969640918,-0.999424,-0.07808,0.169824,29.84625,1.40875,-5.92375,20.784,-14.096001,-17.832,none,4,3.0,21649.0,151889.0,52284.0,154993.0,58849.0
2026-04-14 17:31:15.995786,347268,1609505369680055,2969649677,-1.095072,-0.017568,0.05856,34.50125,2.63375,-4.52375,20.984001,-14.008,-17.992,none,4,3.0,21649.0,151889.0,52284.0,154993.0,58849.0
2026-04-14 17:31:15.998334,347269,1609505369688969,2969658401,-1.095072,-0.017568,0.05856,36.58375,4.59375,-3.71875,20.984001,-14.008,-17.992,none,4,3.0,21649.0,151889.0,52284.0,154993.0,58849.0
2026-04-14 17:31:16.000698,347270,1609505369703477,2969673317,-1.081408,0.015616,0.027328,36.33875,5.8275,-3.675,21.400002,-13.936001,-18.136002,none,4,3.0,21649.0,151889.0,52284.0,154993.0,58849.0
2026-04-14 17:31:16.006183,347271,1609505369712415,2969682004,-1.081408,0.015616,0.027328,31.815,6.825,-4.24375,21.400002,-13.936001,-18.136002,none,4,3.0,21649.0,151889.0,52284.0,154993.0,58849.0
2026-04-14 17:31:16.022515,347272,1609505369726926,2969696892,-1.065792,0.050752,0.013664,18.725,5.53,-6.16,21.808,-13.712001,-16.688002,none,4,3.0,21649.0,151889.0,52284.0,154993.0,58849.0
2026-04-14 17:31:16.052480,347283,1609505369736008,2969705577,-1.018944,-0.02928,0.0,-0.3325,3.22,-9.5725,21.816002,-13.848001,-18.240002,none,4,3.0,22292.0,150852.0,53391.0,153972.0,60170.0
2026-04-14 17:31:16.055007,347284,1609505369750585,2969720510,-1.018944,-0.02928,0.0,-15.89875,2.2575,-11.83875,21.816002,-13.848001,-18.240002,none,4,3.0,22292.0,150852.0,53391.0,153972.0,60170.0
2026-04-14 17:31:16.057350,347285,1609505369759506,2969729198,-1.048224,-0.031232,0.101504,-25.41,2.4325,-12.36375,21.384,-14.072001,-18.36,none,4,3.0,22292.0,150852.0,53391.0,153972.0,60170.0
2026-04-14 17:31:16.062146,347286,1609505369768425,2969737870,-1.048224,-0.031232,0.101504,-29.89875,2.70375,-13.475,21.384,-14.072001,-18.36,none,4,3.0,22292.0,150852.0,53391.0,153972.0,60170.0
2026-04-14 17:31:16.075621,347287,1609505369782951,2969752815,-1.046272,-0.091744,-0.011712,-30.79125,3.535,-13.99125,21.736002,-13.888001,-18.384,none,4,3.0,22292.0,150852.0,53391.0,153972.0,60170.0
2026-04-14 17:31:16.086075,347288,1609505369791865,2969761481,-1.046272,-0.091744,-0.011712,-28.51625,5.38125,-14.2975,21.736002,-13.888001,-18.384,none,4,3.0,22292.0,150852.0,53391.0,153972.0,60170.0
2026-04-14 17:31:16.101185,347289,1609505369806357,2969776345,-1.0736,-0.017568,0.105408,-24.87625,8.3475,-15.53125,22.272001,-14.488001,-18.92,none,4,3.0,22292.0,150852.0,53391.0,153972.0,60170.0
2026-04-14 17:31:16.109538,347290,1609505369815292,2969785070,-0.993568,-0.07808,0.103456,-25.33125,10.9025,-16.1175,22.272001,-14.320001,-20.712002,none,4,3.0,22292.0,150852.0,53391.0,153972.0,60170.0
2026-04-14 17:31:16.123791,347291,1609505369829794,2969800071,-0.993568,-0.07808,0.103456,-31.50875,11.52375,-16.975,22.28,-14.320001,-20.712002,none,4,3.0,22292.0,150852.0,53391.0,153972.0,60170.0
2026-04-14 17:31:16.151253,347302,1609505369838719,2969808826,-1.081408,-0.13664,0.099552,-36.28625,13.34375,-18.76875,22.44,-14.360001,-19.128,none,4,3.0,22626.0,151268.0,54110.0,154571.0,61018.0
2026-04-14 17:31:16.155099,347303,1609505369847681,2969817538,-1.081408,-0.13664,0.099552,-35.44625,15.6975,-19.45125,22.44,-14.360001,-19.128,none,4,3.0,22626.0,151268.0,54110.0,154571.0,61018.0
2026-04-14 17:31:16.160224,347304,1609505369862197,2969832470,-1.147776,-0.16592,0.158112,-30.59,16.94,-19.45125,22.608002,-14.296001,-18.056002,none,4,3.0,22626.0,151268.0,54110.0,154571.0,61018.0
2026-04-14 17:31:16.207468,347305,1609505369871116,2969841148,-1.147776,-0.16592,0.158112,-24.272501,17.9375,-20.46625,22.608002,-14.296001,-18.056002,none,4,3.0,22626.0,151268.0,54110.0,154571.0,61018.0
2026-04-14 17:31:16.215036,347306,1609505369885627,2969854026,-1.079456,-0.148352,0.191296,-17.54375,18.55,-19.9675,22.592001,-14.400001,-19.416,none,4,3.0,22626.0,151268.0,54110.0,154571.0,61018.0
2026-04-14 17:31:16.217525,347307,1609505369894854,2969864769,-1.079456,-0.148352,0.191296,-6.20375,18.03375,-16.695,22.592001,-14.400001,-19.416,none,4,3.0,22626.0,151268.0,54110.0,154571.0,61018.0
2026-04-14 17:31:16.220001,347308,1609505369903809,2969873440,-1.065792,-0.040992,0.11712,1.70625,14.21875,-12.99375,21.448002,-13.544001,-16.632,none,4,3.0,22626.0,151268.0,54110.0,154571.0,61018.0
2026-04-14 17:31:16.222490,347309,1609505369918293,2969888319,-1.04432,-0.074176,0.0976,-1.61875,8.715,-11.20875,21.696001,-13.976001,-18.288,none,4,3.0,22626.0,151268.0,54110.0,154571.0,61018.0
2026-04-14 17:31:16.224980,347310,1609505369927217,2969897026,-1.04432,-0.074176,0.0976,-9.345,4.36625,-8.51375,21.696001,-13.976001,-18.288,none,4,3.0,22626.0,151268.0,54110.0,154571.0,61018.0
2026-04-14 17:31:16.253686,347321,1609505369942180,2969912015,-1.124352,-0.099552,-0.017568,-16.72125,2.2575,-4.48,21.376001,-13.960001,-18.096,none,4,3.0,22712.0,150144.0,54267.0,153608.0,61145.0
2026-04-14 17:31:16.256547,347322,1609505369951136,2969920757,-1.124352,-0.099552,-0.017568,-19.845,1.74125,-1.365,21.376001,-13.960001,-18.096,none,4,3.0,22712.0,150144.0,54267.0,153608.0,61145.0
2026-04-14 17:31:16.259360,347323,1609505369965632,2969935649,-1.143872,-0.091744,-0.0488,-18.64625,0.0,0.46375,21.552002,-14.096001,-18.448,none,4,3.0,22712.0,150144.0,54267.0,153608.0,61145.0
2026-04-14 17:31:16.271105,347324,1609505369974654,2969944317,-1.143872,-0.091744,-0.0488,-16.975,-3.33375,1.98625,21.552002,-14.096001,-18.448,none,4,3.0,22712.0,150144.0,54267.0,153608.0,61145.0
2026-04-14 17:31:16.279883,347325,1609505369983594,2969953026,-0.98576,-0.085888,0.13664,-18.69875,-6.32625,3.14125,21.928001,-14.648001,-18.696001,none,4,3.0,22712.0,150144.0,54267.0,153608.0,61145.0
2026-04-14 17:31:16.291944,347326,1609505369998069,2969967928,-0.960384,-0.167872,0.109312,-24.96375,-7.35875,2.1,22.064001,-14.632001,-19.992,none,4,3.0,22712.0,150144.0,54267.0,153608.0,61145.0
2026-04-14 17:31:16.303268,347327,1609505370007036,2969976612,-0.960384,-0.167872,0.109312,-29.82875,-5.845,1.14625,22.064001,-14.632001,-19.992,none,4,3.0,22712.0,150144.0,54267.0,153608.0,61145.0
2026-04-14 17:31:16.315921,347328,1609505370021554,2969991506,-1.036512,-0.236192,0.0,-29.3475,-1.9075,1.05875,22.152,-14.968,-19.192001,none,4,3.0,22712.0,150144.0,54267.0,153608.0,61145.0
2026-04-14 17:31:16.324716,347329,1609505370030509,2970000227,-1.036512,-0.236192,0.0,-25.9175,2.415,0.385,22.152,-14.968,-19.192001,none,4,3.0,22712.0,150144.0,54267.0,153608.0,61145.0
2026-04-14 17:31:16.352083,347340,1609505370039550,2970008964,-1.104832,-0.28304,-0.01952,-23.84375,4.29625,-2.38,22.152,-15.352001,-18.872002,none,4,3.0,22531.0,149894.0,54000.0,153302.0,60823.0
2026-04-14 17:31:16.354310,347341,1609505370054153,2970023962,-1.104832,-0.28304,-0.01952,-18.935,5.11875,-2.38875,22.152,-15.352001,-18.872002,none,4,3.0,22531.0,149894.0,54000.0,153302.0,60823.0
2026-04-14 17:31:16.357030,347342,1609505370063083,2970032664,-1.048224,-0.26352,0.017568,-8.30375,4.515,-1.47,21.744001,-15.216001,-18.816,none,4,3.0,22531.0,149894.0,54000.0,153302.0,60823.0
2026-04-14 17:31:16.372085,347343,1609505370077624,2970047627,-1.0248,-0.163968,0.148352,3.22875,3.325,-2.1525,21.616001,-15.456,-19.608002,none,4,3.0,22531.0,149894.0,54000.0,153302.0,60823.0
2026-04-14 17:31:16.379671,347344,1609505370086630,2970056304,-1.0248,-0.163968,0.148352,10.70125,4.7425,-2.835,21.616001,-15.456,-19.608002,none,4,3.0,22531.0,149894.0,54000.0,153302.0,60823.0
2026-04-14 17:31:16.397315,347345,1609505370101097,2970071175,-1.124352,-0.124928,0.054656,14.525,8.198751,-2.5025,21.84,-15.312,-19.056002,none,4,3.0,22531.0,149894.0,54000.0,153302.0,60823.0
2026-04-14 17:31:16.404583,347346,1609505370110001,2970079853,-1.124352,-0.124928,0.054656,13.53625,9.8,-3.75375,21.84,-15.312,-19.056002,none,4,3.0,22531.0,149894.0,54000.0,153302.0,60823.0
2026-04-14 17:31:16.414668,347347,1609505370118950,2970088564,-1.157536,-0.099552,0.099552,8.47875,9.52875,-4.795,21.880001,-14.856001,-20.096,none,4,3.0,22531.0,149894.0,54000.0,153302.0,60823.0
2026-04-14 17:31:16.452088,347358,1609505370133446,2970103457,-1.157536,-0.099552,0.099552,2.9225,9.1875,-3.6225,21.880001,-14.856001,-20.096,none,4,3.0,22588.0,148362.0,54101.0,151632.0,60942.0
2026-04-14 17:31:16.454569,347359,1609505370142778,2970112187,-1.136064,-0.056608,0.210816,-3.5175,8.39125,-3.73625,21.768002,-15.064001,-19.064001,none,4,3.0,22588.0,148362.0,54101.0,151632.0,60942.0
2026-04-14 17:31:16.457071,347360,1609505370157308,2970127184,-1.0248,-0.119072,0.167872,-11.5325,7.56,-5.0575,21.768002,-15.064001,-15.584001,none,4,3.0,22588.0,148362.0,54101.0,151632.0,60942.0
2026-04-14 17:31:16.459411,347361,1609505370166243,2970135897,-1.0248,-0.119072,0.167872,-16.52875,7.91875,-5.71375,20.984001,-14.784,-15.584001,none,4,3.0,22588.0,148362.0,54101.0,151632.0,60942.0
2026-04-14 17:31:16.470792,347362,1609505370175173,2970144580,-1.0248,-0.119072,0.167872,-19.22375,8.61875,-6.23,20.984001,-14.784,-15.584001,none,4,3.0,22588.0,148362.0,54101.0,151632.0,60942.0
2026-04-14 17:31:16.484638,347363,1609505370189632,2970159437,-1.071648,-0.142496,0.179584,-19.11875,9.30125,-6.09,21.472,-15.328001,-19.208,none,4,3.0,22588.0,148362.0,54101.0,151632.0,60942.0
2026-04-14 17:31:16.494695,347364,1609505370198713,2970168176,-1.087264,-0.163968,-0.021472,-14.00875,9.19625,-4.7775,21.048,-15.104001,-18.44,none,4,3.0,22588.0,148362.0,54101.0,151632.0,60942.0
2026-04-14 17:31:16.507176,347365,1609505370213189,2970183071,-1.087264,-0.163968,-0.021472,-9.555,9.24875,-4.92625,21.048,-15.104001,-18.44,none,4,3.0,22588.0,148362.0,54101.0,151632.0,60942.0
2026-04-14 17:31:16.515917,347366,1609505370222164,2970191742,-1.01504,-0.128832,0.132736,-7.44625,9.37125,-6.11625,21.448002,-15.480001,-19.12,none,4,3.0,22588.0,148362.0,54101.0,151632.0,60942.0
2026-04-14 17:31:16.626939,347377,1609505370236771,2970206664,-1.01504,-0.128832,0.132736,-5.45125,10.87625,-5.495,21.448002,-15.480001,-19.12,none,4,3.0,22954.0,148864.0,54679.0,152124.0,61607.0
2026-04-14 17:31:16.629491,347378,1609505370245879,2970215401,-1.128256,-0.124928,-0.013664,-3.395,12.845,-4.795,21.728,-15.112,-17.264,none,4,3.0,22954.0,148864.0,54679.0,152124.0,61607.0
2026-04-14 17:31:16.634398,347379,1609505370254815,2970224109,-1.128256,-0.124928,-0.013664,-0.98,13.41375,-5.29375,21.728,-15.112,-17.264,none,4,3.0,22954.0,148864.0,54679.0,152124.0,61607.0
2026-04-14 17:31:16.636024,347380,1609505370269270,2970239035,-1.1224,-0.11712,0.122976,0.4025,13.57125,-6.16875,20.096,-14.784,-17.184,none,4,3.0,22954.0,148864.0,54679.0,152124.0,61607.0
2026-04-14 17:31:16.637702,347381,1609505370278260,2970247757,-1.1224,-0.134688,0.132736,-0.58625,12.845,-7.34125,20.096,-14.768001,-18.296001,none,4,3.0,22954.0,148864.0,54679.0,152124.0,61607.0
2026-04-14 17:31:16.639835,347382,1609505370292756,2970262616,-1.1224,-0.134688,0.132736,-3.73625,11.01625,-7.95375,19.744001,-14.768001,-18.296001,none,4,3.0,22954.0,148864.0,54679.0,152124.0,61607.0
2026-04-14 17:31:16.642036,347383,1609505370301695,2970271303,-1.050176,-0.228384,-0.044896,-5.90625,8.51375,-8.04125,20.728,-14.72,-18.208,none,4,3.0,22954.0,148864.0,54679.0,152124.0,61607.0
2026-04-14 17:31:16.644873,347384,1609505370316159,2970286179,-1.050176,-0.228384,-0.044896,-5.88,6.09,-7.97125,20.728,-14.72,-18.208,none,4,3.0,22954.0,148864.0,54679.0,152124.0,61607.0
2026-04-14 17:31:16.646977,347385,1609505370325104,2970294867,-0.976,-0.222528,0.01952,-2.33625,3.8675,-7.6825,20.832,-14.496,-18.656,none,4,3.0,22954.0,148864.0,54679.0,152124.0,61607.0
2026-04-14 17:31:16.674979,347396,1609505370334005,2970303569,-0.976,-0.222528,0.01952,3.87625,2.96625,-6.475,20.832,-14.496,-18.656,none,4,3.0,23292.0,149523.0,55314.0,152758.0,62268.0
2026-04-14 17:31:16.677378,347397,1609505370348603,2970318539,-0.933056,-0.163968,0.001952,8.417501,3.1675,-5.03125,20.504002,-14.64,-18.488,none,4,3.0,23292.0,149523.0,55314.0,152758.0,62268.0
2026-04-14 17:31:16.680008,347398,1609505370357655,2970327235,-0.933056,-0.163968,0.001952,10.5525,4.26125,-4.1125,20.504002,-14.64,-18.488,none,4,3.0,23292.0,149523.0,55314.0,152758.0,62268.0
2026-04-14 17:31:16.682501,347399,1609505370372332,2970342115,-1.030656,-0.121024,-0.119072,11.2175,6.37,-3.1325,20.784,-14.304001,-20.744001,none,4,3.0,23292.0,149523.0,55314.0,152758.0,62268.0
2026-04-14 17:31:16.684651,347400,1609505370381293,2970350839,-1.089216,-0.062464,0.027328,10.6575,6.67625,-2.38875,21.088001,-14.664001,-19.808,none,4,3.0,23292.0,149523.0,55314.0,152758.0,62268.0
2026-04-14 17:31:16.690995,347401,1609505370395815,2970365801,-1.089216,-0.062464,0.027328,10.0625,5.3025,-2.2925,21.088001,-14.664001,-19.808,none,4,3.0,23292.0,149523.0,55314.0,152758.0,62268.0
2026-04-14 17:31:16.698009,347402,1609505370404733,2970374574,-1.03456,-0.089792,0.132736,8.365,3.115,-2.31875,21.544,-14.56,-19.896002,none,4,3.0,23292.0,149523.0,55314.0,152758.0,62268.0
2026-04-14 17:31:16.709283,347403,1609505370413657,2970383240,-1.03456,-0.089792,0.132736,4.305,0.0525,-3.395,21.544,-14.56,-19.896002,none,4,3.0,23292.0,149523.0,55314.0,152758.0,62268.0
2026-04-14 17:31:16.726839,347404,1609505370428139,2970398188,-1.11264,-0.105408,0.0976,1.3825,-1.8025,-3.31625,21.448002,-14.648001,-18.848001,none,4,3.0,23292.0,149523.0,55314.0,152758.0,62268.0
2026-04-14 17:31:16.753692,347415,1609505370437680,2970406936,-1.11264,-0.105408,0.0976,2.03875,-5.0225,-2.1875,21.448002,-14.648001,-18.848001,none,4,3.0,23575.0,150520.0,55702.0,153949.0,62711.0
2026-04-14 17:31:16.756213,347416,1609505370452307,2970421889,-1.128256,-0.138592,0.0488,7.0875,-7.04375,-1.9075,21.832,-14.688001,-19.848001,none,4,3.0,23575.0,150520.0,55702.0,153949.0,62711.0
2026-04-14 17:31:16.758650,347417,1609505370461258,2970430590,-1.136064,-0.076128,0.10736,15.636251,-5.915,-0.63875,19.864,-14.072001,-17.648,none,4,3.0,23575.0,150520.0,55702.0,153949.0,62711.0
2026-04-14 17:31:16.763740,347418,1609505370470245,2970439501,-1.136064,-0.076128,0.10736,20.95625,-5.03125,1.3825,19.864,-14.072001,-17.648,none,4,3.0,23575.0,150520.0,55702.0,153949.0,62711.0
2026-04-14 17:31:16.781253,347419,1609505370484736,2970454374,-1.09312,-0.085888,-0.005856,18.69875,-6.01125,2.3975,21.920002,-14.952001,-19.744001,none,4,3.0,23575.0,150520.0,55702.0,153949.0,62711.0
2026-04-14 17:31:16.788753,347420,1609505370493659,2970463046,-1.09312,-0.085888,-0.005856,11.96125,-6.69375,2.2225,21.920002,-14.952001,-19.744001,none,4,3.0,23575.0,150520.0,55702.0,153949.0,62711.0
2026-04-14 17:31:16.801219,347421,1609505370508156,2970477932,-1.130208,-0.03904,0.02928,6.97375,-6.62375,4.06875,21.432001,-14.656001,-19.784,none,4,3.0,23575.0,150520.0,55702.0,153949.0,62711.0
2026-04-14 17:31:16.814605,347422,1609505370517120,2970486684,-1.130208,-0.03904,0.02928,3.66625,-6.3875,7.77875,21.432001,-14.656001,-19.784,none,4,3.0,23575.0,150520.0,55702.0,153949.0,62711.0
2026-04-14 17:31:16.826128,347423,1609505370531631,2970501547,-1.184864,-0.060512,-0.060512,0.0,-6.335,9.3625,21.480001,-14.768001,-18.528002,none,4,3.0,23575.0,150520.0,55702.0,153949.0,62711.0
2026-04-14 17:31:16.856201,347434,1609505370540754,2970510315,-1.118496,-0.12688,-0.044896,-6.6675,-6.86,8.155,20.568,-14.280001,-18.824001,none,4,3.0,23459.0,150286.0,55442.0,153505.0,62386.0
2026-04-14 17:31:16.858258,347435,1609505370549822,2970519104,-1.118496,-0.12688,-0.044896,-17.1325,-10.64,6.2475,20.568,-14.280001,-18.824001,none,4,3.0,23459.0,150286.0,55442.0,153505.0,62386.0
2026-04-14 17:31:16.861279,347436,1609505370564300,2970534046,-1.08336,-0.10736,0.031232,-23.98375,-13.29125,7.11375,20.688002,-14.448001,-18.28,none,4,3.0,23459.0,150286.0,55442.0,153505.0,62386.0
2026-04-14 17:31:16.868699,347437,1609505370573224,2970542737,-1.08336,-0.10736,0.031232,-23.79125,-13.8425,9.05625,20.688002,-14.448001,-18.28,none,4,3.0,23459.0,150286.0,55442.0,153505.0,62386.0
2026-04-14 17:31:16.881254,347438,1609505370587712,2970557661,-1.036512,-0.150304,0.089792,-24.43,-14.525,9.5025,21.44,-15.096001,-19.016,none,4,3.0,23459.0,150286.0,55442.0,153505.0,62386.0
2026-04-14 17:31:16.891262,347439,1609505370596631,2970566346,-1.036512,-0.150304,0.089792,-30.397501,-16.28375,8.2425,21.44,-15.096001,-19.016,none,4,3.0,23459.0,150286.0,55442.0,153505.0,62386.0
2026-04-14 17:31:16.900040,347440,1609505370605553,2970575021,-1.114592,-0.193248,-0.02928,-37.31875,-18.3575,7.4725,21.28,-15.472001,-18.560001,none,4,3.0,23459.0,150286.0,55442.0,153505.0,62386.0
2026-04-14 17:31:16.937015,347441,1609505370620024,2970589896,-1.08336,-0.163968,-0.060512,-35.420002,-17.22875,9.8,21.28,-15.472001,-21.648,none,4,3.0,23459.0,150286.0,55442.0,153505.0,62386.0
2026-04-14 17:31:16.954580,347442,1609505370628956,2970598583,-1.08336,-0.163968,-0.060512,-28.7,-14.23625,10.29,21.608002,-15.56,-21.648,none,4,3.0,23459.0,150286.0,55442.0,153505.0,62386.0
2026-04-14 17:31:16.982076,347453,1609505370643472,2970613525,-1.097024,-0.119072,0.027328,-23.1525,-12.34625,4.82125,20.168001,-15.104001,-16.2,none,4,3.0,23212.0,151459.0,54980.0,154279.0,61924.0
2026-04-14 17:31:16.985013,347454,1609505370652448,2970622228,-1.097024,-0.119072,0.027328,-16.7475,-10.15875,4.4975,20.168001,-15.104001,-16.2,none,4,3.0,23212.0,151459.0,54980.0,154279.0,61924.0
2026-04-14 17:31:16.990800,347455,1609505370666919,2970637150,-1.057984,-0.1464,0.042944,-12.87125,-7.69125,3.82375,19.648,-14.920001,-15.152,none,4,3.0,23212.0,151459.0,54980.0,154279.0,61924.0
2026-04-14 17:31:16.991388,347456,1609505370675871,2970645895,-1.057984,-0.1464,0.042944,-8.39125,-3.885,1.8375,19.648,-14.920001,-15.152,none,4,3.0,23212.0,151459.0,54980.0,154279.0,61924.0
2026-04-14 17:31:16.992090,347457,1609505370684862,2970654606,-1.071648,-0.091744,0.044896,-9.66,-1.4175,-1.7325,19.848001,-15.288001,-17.088001,none,4,3.0,23212.0,151459.0,54980.0,154279.0,61924.0
2026-04-14 17:31:16.995237,347458,1609505370699391,2970669527,-1.071648,-0.091744,0.044896,-20.46625,-3.0275,-4.68125,19.848001,-15.288001,-17.088001,none,4,3.0,23212.0,151459.0,54980.0,154279.0,61924.0
2026-04-14 17:31:17.002348,347459,1609505370708334,2970678357,-1.020896,-0.140544,0.183488,-40.53875,-5.32,-6.3525,20.496,-15.360001,-17.056002,none,4,3.0,23212.0,151459.0,54980.0,154279.0,61924.0
2026-04-14 17:31:17.014841,347460,1609505370722795,2970691183,-1.046272,-0.203008,0.035136,-55.4925,-5.8275,-8.0325,21.576,-15.920001,-17.104,none,4,3.0,23212.0,151459.0,54980.0,154279.0,61924.0
2026-04-14 17:31:17.025739,347461,1609505370731995,2970701922,-1.046272,-0.203008,0.035136,-57.7675,-3.82375,-8.3825,21.576,-15.920001,-17.104,none,4,3.0,23212.0,151459.0,54980.0,154279.0,61924.0
2026-04-14 17:31:17.055006,347472,1609505370746589,2970716892,-1.100928,-0.238144,-0.042944,-50.82,-1.42625,-7.945,21.264002,-15.840001,-17.04,none,4,3.0,22177.0,153709.0,53085.0,156336.0,59814.0
2026-04-14 17:31:17.057366,347473,1609505370755562,2970725631,-1.100928,-0.238144,-0.042944,-38.535,0.0875,-8.46125,21.264002,-15.840001,-17.04,none,4,3.0,22177.0,153709.0,53085.0,156336.0,59814.0
2026-04-14 17:31:17.059915,347474,1609505370764538,2970734313,-1.134112,-0.22448,-0.093696,-24.10625,-0.41125,-8.58375,21.368002,-15.720001,-16.560001,none,4,3.0,22177.0,153709.0,53085.0,156336.0,59814.0
2026-04-14 17:31:17.075073,347475,1609505370778986,2970749201,-1.134112,-0.22448,-0.093696,-9.5375,-0.8225,-7.6475,21.368002,-15.720001,-16.560001,none,4,3.0,22177.0,153709.0,53085.0,156336.0,59814.0
2026-04-14 17:31:17.084567,347476,1609505370787916,2970757863,-1.089216,-0.228384,-0.076128,4.08625,-0.65625,-7.44625,21.528002,-16.0,-17.248001,none,4,3.0,22177.0,153709.0,53085.0,156336.0,59814.0
2026-04-14 17:31:17.095594,347477,1609505370802459,2970772757,-1.134112,-0.144448,0.183488,13.9825,0.25375,-8.26,21.576,-16.152,-18.928001,none,4,3.0,22177.0,153709.0,53085.0,156336.0,59814.0
2026-04-14 17:31:17.106107,347478,1609505370811417,2970781461,-1.134112,-0.144448,0.183488,19.5125,-0.46375,-8.0325,21.576,-16.152,-18.928001,none,4,3.0,22177.0,153709.0,53085.0,156336.0,59814.0
2026-04-14 17:31:17.118676,347479,1609505370825895,2970794288,-1.188768,-0.11712,0.011712,20.62375,-2.54625,-6.25625,21.6,-15.344001,-16.544,none,4,3.0,22177.0,153709.0,53085.0,156336.0,59814.0
2026-04-14 17:31:17.132126,347480,1609505370835087,2970805015,-1.188768,-0.11712,0.011712,16.10875,-4.68125,-7.455,21.6,-15.344001,-16.544,none,4,3.0,22177.0,153709.0,53085.0,156336.0,59814.0
2026-04-14 17:31:17.159470,347491,1609505370844004,2970813817,-1.065792,-0.154208,0.070272,11.2,-6.6675,-9.47625,21.320002,-15.144001,-16.664001,none,4,3.0,21839.0,153642.0,52465.0,156113.0,59126.0
2026-04-14 17:31:17.162532,347492,1609505370858542,2970828715,-1.065792,-0.154208,0.070272,10.71875,-7.37625,-9.84375,21.320002,-15.144001,-16.664001,none,4,3.0,21839.0,153642.0,52465.0,156113.0,59126.0
2026-04-14 17:31:17.164991,347493,1609505370867457,2970837435,-1.1712,-0.152256,-0.015616,12.64375,-8.2775,-10.08,22.096,-15.288001,-17.504002,none,4,3.0,21839.0,153642.0,52465.0,156113.0,59126.0
2026-04-14 17:31:17.178279,347494,1609505370881952,2970850325,-1.155584,-0.18544,0.015616,13.265,-9.730001,-10.01,22.096,-15.168001,-21.176,none,4,3.0,21839.0,153642.0,52465.0,156113.0,59126.0
2026-04-14 17:31:17.186734,347495,1609505370891182,2970861083,-1.155584,-0.18544,0.015616,12.87125,-10.22875,-8.33875,22.064001,-15.168001,-21.176,none,4,3.0,21839.0,153642.0,52465.0,156113.0,59126.0
2026-04-14 17:31:17.215009,347496,1609505370900104,2970869768,-1.155584,-0.18544,0.015616,14.035,-9.8875,-5.90625,22.064001,-15.168001,-21.176,none,4,3.0,21839.0,153642.0,52465.0,156113.0,59126.0
2026-04-14 17:31:17.217456,347497,1609505370914600,2970884630,-1.165344,-0.07808,0.222528,15.51375,-10.1325,-4.2875,22.336,-14.768001,-18.168001,none,4,3.0,21839.0,153642.0,52465.0,156113.0,59126.0
2026-04-14 17:31:17.219994,347498,1609505370923509,2970893329,-1.159488,-0.066368,0.111264,16.0825,-10.52625,-2.09125,22.104002,-14.872001,-17.288,none,4,3.0,21839.0,153642.0,52465.0,156113.0,59126.0
2026-04-14 17:31:17.259585,347509,1609505370938433,2970908226,-1.159488,-0.066368,0.111264,12.5125,-13.125,-1.07625,22.104002,-14.872001,-17.288,none,4,3.0,21918.0,152745.0,52593.0,154982.0,59526.0
2026-04-14 17:31:17.262141,347510,1609505370947513,2970917112,-1.059936,-0.1952,0.240096,6.51,-17.885,-1.8025,21.808,-14.264001,-16.216002,none,4,3.0,21918.0,152745.0,52593.0,154982.0,59526.0
2026-04-14 17:31:17.264997,347511,1609505370956465,2970925820,-1.059936,-0.1952,0.240096,5.635,-20.8425,-0.90125,21.808,-14.264001,-16.216002,none,4,3.0,21918.0,152745.0,52593.0,154982.0,59526.0
2026-04-14 17:31:17.267521,347512,1609505370970934,2970940749,-1.059936,-0.121024,0.290848,13.3875,-20.58875,3.29875,21.480001,-14.248001,-15.848001,none,4,3.0,21918.0,152745.0,52593.0,154982.0,59526.0
2026-04-14 17:31:17.312717,347513,1609505370979863,2970949434,-1.059936,-0.121024,0.290848,22.295,-19.06625,4.38375,21.480001,-14.248001,-15.848001,none,4,3.0,21918.0,152745.0,52593.0,154982.0,59526.0
2026-04-14 17:31:17.315039,347514,1609505370994345,2970964329,-1.089216,-0.023424,0.259616,25.62875,-17.7625,5.0575,22.232,-14.064001,-17.184,none,4,3.0,21918.0,152745.0,52593.0,154982.0,59526.0
2026-04-14 17:31:17.317523,347515,1609505371003291,2970973002,-1.059936,-0.015616,0.259616,23.4325,-18.69875,8.61,21.376001,-13.968,-16.152,none,4,3.0,21918.0,152745.0,52593.0,154982.0,59526.0
2026-04-14 17:31:17.320008,347516,1609505371017750,2970987867,-1.059936,-0.015616,0.259616,23.19625,-21.8225,8.2775,21.376001,-13.968,-16.152,none,4,3.0,21918.0,152745.0,52593.0,154982.0,59526.0
2026-04-14 17:31:17.322362,347517,1609505371026652,2970996533,-1.016992,-0.02928,0.074176,23.38,-24.87625,7.23625,21.640001,-13.544001,-14.880001,none,4,3.0,21918.0,152745.0,52593.0,154982.0,59526.0
2026-04-14 17:31:17.331129,347518,1609505371035595,2971005204,-1.016992,-0.02928,0.074176,23.1525,-25.55,6.50125,21.640001,-13.544001,-14.880001,none,4,3.0,21918.0,152745.0,52593.0,154982.0,59526.0
2026-04-14 17:31:17.360834,347529,1609505371050201,2971020193,-0.976,-0.046848,0.173728,22.37375,-25.55875,3.63125,21.688002,-13.432001,-15.832001,none,4,3.0,24652.0,158218.0,57965.0,161291.0,65865.0
2026-04-14 17:31:17.365374,347530,1609505371059200,2971028938,-0.976,-0.046848,0.173728,22.995,-26.5825,0.70875,21.688002,-13.432001,-15.832001,none,4,3.0,24652.0,158218.0,57965.0,161291.0,65865.0
2026-04-14 17:31:17.370522,347531,1609505371073710,2971043860,-1.030656,-0.035136,-0.037088,27.02,-27.755001,-1.14625,22.552002,-13.888001,-16.960001,none,4,3.0,24652.0,158218.0,57965.0,161291.0,65865.0
2026-04-14 17:31:17.377349,347532,1609505371082702,2971052546,-1.030656,-0.035136,0.162016,31.22875,-26.74,-2.73,22.552002,-13.888001,-16.960001,none,4,3.0,24652.0,158218.0,57965.0,161291.0,65865.0
2026-04-14 17:31:17.392094,347533,1609505371097181,2971067445,-0.915488,-0.015616,0.162016,33.4775,-24.4475,-2.19625,22.664001,-13.416,-17.032001,none,4,3.0,24652.0,158218.0,57965.0,161291.0,65865.0
2026-04-14 17:31:17.399581,347534,1609505371106088,2971076121,-1.007232,-0.01952,-0.037088,36.42625,-21.83125,-1.63625,22.6,-13.248001,-17.192001,none,4,3.0,24652.0,158218.0,57965.0,161291.0,65865.0
2026-04-14 17:31:17.409561,347535,1609505371115038,2971084797,-1.007232,-0.01952,-0.037088,41.107502,-17.89375,-0.62125,22.6,-13.248001,-17.192001,none,4,3.0,24652.0,158218.0,57965.0,161291.0,65865.0
2026-04-14 17:31:17.423747,347536,1609505371129490,2971099664,-0.952576,-0.076128,0.033184,44.79125,-13.72,0.0175,21.768002,-12.8,-16.352001,none,4,3.0,24652.0,158218.0,57965.0,161291.0,65865.0
2026-04-14 17:31:17.467102,347547,1609505371138412,2971108382,-0.952576,-0.076128,0.033184,48.39625,-9.7825,0.09625,21.768002,-12.8,-16.352001,none,4,3.0,23557.0,155823.0,56133.0,159081.0,63387.0
2026-04-14 17:31:17.469852,347548,1609505371153045,2971123335,-1.057984,-0.035136,-0.060512,54.31125,-6.90375,1.18125,22.408,-12.888001,-17.288,none,4,3.0,23557.0,155823.0,56133.0,159081.0,63387.0
2026-04-14 17:31:17.471924,347549,1609505371162018,2971132032,-1.057984,-0.035136,-0.060512,60.27875,-6.30875,1.89,22.408,-12.888001,-17.288,none,4,3.0,23557.0,155823.0,56133.0,159081.0,63387.0
2026-04-14 17:31:17.474867,347550,1609505371176509,2971144861,-0.99552,-0.011712,0.007808,63.70875,-6.265,1.67125,21.824001,-12.264001,-17.616001,none,4,3.0,23557.0,155823.0,56133.0,159081.0,63387.0
2026-04-14 17:31:17.480624,347551,1609505371185679,2971155606,-0.972096,-0.023424,0.056608,58.3625,-4.68125,0.77,22.464,-11.84,-17.992,none,4,3.0,23557.0,155823.0,56133.0,159081.0,63387.0
2026-04-14 17:31:17.488597,347552,1609505371194613,2971164307,-0.972096,-0.023424,0.056608,44.79125,-1.65375,-1.4875,22.464,-11.84,-17.992,none,4,3.0,23557.0,155823.0,56133.0,159081.0,63387.0
2026-04-14 17:31:17.503239,347553,1609505371209088,2971179186,-1.06384,-0.023424,-0.001952,30.09125,2.4675,-3.99875,22.624,-11.864,-18.248001,none,4,3.0,23557.0,155823.0,56133.0,159081.0,63387.0
2026-04-14 17:31:17.512282,347554,1609505371218000,2971187882,-1.06384,-0.023424,-0.001952,17.29875,5.31125,-5.915,22.624,-11.864,-18.248001,none,4,3.0,23557.0,155823.0,56133.0,159081.0,63387.0
2026-04-14 17:31:17.527531,347555,1609505371232457,2971202750,-1.030656,0.0,0.163968,6.8075,5.95,-6.65875,22.664001,-11.576,-17.088001,none,4,3.0,23557.0,155823.0,56133.0,159081.0,63387.0
2026-04-14 17:31:17.563317,347566,1609505371241788,2971211518,-1.030656,0.0,0.163968,-1.89,5.06625,-6.1075,22.664001,-11.576,-17.088001,none,4,3.0,22776.0,152638.0,54679.0,155690.0,61605.0
2026-04-14 17:31:17.563414,347567,1609505371250871,2971220309,-1.003328,-0.005856,0.1952,-9.21375,2.4675,-4.4275,21.744001,-12.024,-17.664001,none,4,3.0,22776.0,152638.0,54679.0,155690.0,61605.0
2026-04-14 17:31:17.565745,347568,1609505371265387,2971235214,-0.938912,-0.06832,0.242048,-16.56375,-1.26,-3.2025,20.832,-11.448001,-17.016,none,4,3.0,22776.0,152638.0,54679.0,155690.0,61605.0
2026-04-14 17:31:17.568444,347569,1609505371274348,2971243892,-0.938912,-0.06832,0.242048,-23.70375,-3.91125,-3.98125,20.832,-11.448001,-17.016,none,4,3.0,22776.0,152638.0,54679.0,155690.0,61605.0
2026-04-14 17:31:17.582012,347570,1609505371288899,2971258814,-1.040416,-0.070272,0.208864,-29.9075,-5.03125,-4.76,22.704,-12.488001,-17.856,none,4,3.0,22776.0,152638.0,54679.0,155690.0,61605.0
2026-04-14 17:31:17.592135,347571,1609505371297799,2971267487,-1.040416,-0.070272,0.208864,-33.92375,-3.71,-5.20625,22.704,-12.488001,-17.856,none,4,3.0,22776.0,152638.0,54679.0,155690.0,61605.0
2026-04-14 17:31:17.608804,347572,1609505371312274,2971282363,-1.079456,-0.076128,0.150304,-35.805,-3.14125,-5.46875,22.672,-12.632001,-17.736,none,4,3.0,22776.0,152638.0,54679.0,155690.0,61605.0
2026-04-14 17:31:17.616260,347573,1609505371321204,2971291072,-1.079456,-0.076128,0.150304,-36.98625,-4.4275,-5.36375,22.672,-12.632001,-17.736,none,4,3.0,22776.0,152638.0,54679.0,155690.0,61605.0
2026-04-14 17:31:17.625020,347574,1609505371330182,2971299759,-1.028704,-0.0976,0.138592,-37.555,-6.64125,-4.7775,22.608002,-12.368001,-16.84,none,4,3.0,22776.0,152638.0,54679.0,155690.0,61605.0
2026-04-14 17:31:17.708406,347585,1609505371344866,2971315187,-1.003328,-0.113216,0.290848,-36.33,-7.39375,-4.1825,22.608002,-12.576,-16.016,none,4,3.0,22669.0,151809.0,54414.0,154813.0,61275.0
2026-04-14 17:31:17.710715,347586,1609505371353865,2971323903,-1.003328,-0.113216,0.290848,-32.01625,-3.36875,-2.17,22.608002,-12.576,-16.016,none,4,3.0,22669.0,151809.0,54414.0,154813.0,61275.0
2026-04-14 17:31:17.713358,347587,1609505371368325,2971336722,-1.04432,-0.099552,0.294752,-23.12625,1.67125,-0.76125,21.968,-12.960001,-17.736,none,4,3.0,22669.0,151809.0,54414.0,154813.0,61275.0
2026-04-14 17:31:17.715950,347588,1609505371377497,2971347454,-1.04432,-0.099552,0.294752,-13.76375,3.99875,-1.26,21.968,-12.960001,-17.736,none,4,3.0,22669.0,151809.0,54414.0,154813.0,61275.0
2026-04-14 17:31:17.718224,347589,1609505371392067,2971362304,-1.128256,-0.050752,0.134688,-7.25375,2.2225,-1.9775,22.480001,-12.816001,-17.584002,none,4,3.0,22669.0,151809.0,54414.0,154813.0,61275.0
2026-04-14 17:31:17.720958,347590,1609505371401009,2971371010,-1.128256,-0.050752,0.134688,-4.85625,-1.49625,-2.26625,22.480001,-12.816001,-17.584002,none,4,3.0,22669.0,151809.0,54414.0,154813.0,61275.0
2026-04-14 17:31:17.723464,347591,1609505371409951,2971379736,-1.081408,-0.062464,0.15616,-6.9125,-4.03375,-2.66875,22.528002,-12.960001,-17.216002,none,4,3.0,22669.0,151809.0,54414.0,154813.0,61275.0
2026-04-14 17:31:17.725878,347592,1609505371424458,2971394610,-1.081408,-0.062464,0.15616,-11.4625,-5.67,-3.10625,22.528002,-12.960001,-17.216002,none,4,3.0,22669.0,151809.0,54414.0,154813.0,61275.0
2026-04-14 17:31:17.728544,347593,1609505371433426,2971403296,-1.091168,-0.062464,0.191296,-13.667501,-6.125,-2.73,22.624,-13.248001,-16.048,none,4,3.0,22669.0,151809.0,54414.0,154813.0,61275.0
2026-04-14 17:31:17.761463,347604,1609505371447959,2971416343,-1.013088,-0.103456,0.15616,-14.49875,-6.53625,-1.68875,22.720001,-13.080001,-17.336,none,4,3.0,22420.0,150752.0,53843.0,153907.0,60537.0
2026-04-14 17:31:17.763343,347605,1609505371457136,2971427105,-1.013088,-0.103456,0.15616,-15.2775,-8.14625,-1.4525,22.720001,-13.080001,-17.336,none,4,3.0,22420.0,150752.0,53843.0,153907.0,60537.0
2026-04-14 17:31:17.765796,347606,1609505371466095,2971435770,-1.097024,-0.119072,0.056608,-18.71625,-10.68375,-1.9425,22.560001,-13.064001,-15.072001,none,4,3.0,22420.0,150752.0,53843.0,153907.0,60537.0
2026-04-14 17:31:17.775702,347607,1609505371480713,2971450696,-1.097024,-0.119072,0.056608,-20.825,-11.83875,-1.65375,22.560001,-13.064001,-15.072001,none,4,3.0,22420.0,150752.0,53843.0,153907.0,60537.0
2026-04-14 17:31:17.783388,347608,1609505371489674,2971459389,-1.077504,-0.085888,0.277184,-19.66125,-12.67875,-0.7175,22.424002,-13.376,-17.048,none,4,3.0,22420.0,150752.0,53843.0,153907.0,60537.0
2026-04-14 17:31:17.798348,347609,1609505371504169,2971474253,-1.077504,-0.085888,0.277184,-18.8125,-15.77625,-1.60125,22.424002,-13.376,-17.048,none,4,3.0,22420.0,150752.0,53843.0,153907.0,60537.0
2026-04-14 17:31:17.807260,347610,1609505371513132,2971482935,-1.128256,-0.091744,0.23424,-23.63375,-20.0725,-3.15875,22.696001,-13.432001,-15.688001,none,4,3.0,22420.0,150752.0,53843.0,153907.0,60537.0
2026-04-14 17:31:17.821008,347611,1609505371527600,2971497750,-1.11264,-0.197152,0.119072,-34.15125,-25.06875,-3.395,22.472,-13.592001,-15.112,none,4,3.0,22420.0,150752.0,53843.0,153907.0,60537.0
2026-04-14 17:31:17.856217,347612,1609505371536517,2971506423,-1.11264,-0.197152,0.119072,-41.0725,-29.505001,-2.8,22.472,-13.592001,-15.112,none,4,3.0,22420.0,150752.0,53843.0,153907.0,60537.0
2026-04-14 17:31:17.888690,347623,1609505371545579,2971515140,-1.11264,-0.197152,0.35136,-40.10125,-30.75625,-1.0675,22.472,-13.592001,-15.112,none,4,3.0,23120.0,148526.0,54903.0,151956.0,61884.0
2026-04-14 17:31:17.890910,347624,1609505371560001,2971530093,-1.061888,-0.267424,0.35136,-28.56875,-31.10625,1.95125,22.056002,-13.352,-14.272,none,4,3.0,23120.0,148526.0,54903.0,151956.0,61884.0
2026-04-14 17:31:17.893903,347625,1609505371568889,2971538795,-1.071648,-0.249856,0.349408,-8.155,-31.85875,3.2725,22.176,-13.184001,-14.632001,none,4,3.0,23120.0,148526.0,54903.0,151956.0,61884.0
2026-04-14 17:31:17.896054,347626,1609505371583637,2971553701,-1.071648,-0.249856,0.349408,12.005,-31.57875,1.5925,22.176,-13.184001,-14.632001,none,4,3.0,23120.0,148526.0,54903.0,151956.0,61884.0
2026-04-14 17:31:17.898803,347627,1609505371592705,2971562396,-1.09312,-0.119072,0.189344,26.78375,-27.51,2.45875,22.056002,-13.008,-14.808001,none,4,3.0,23120.0,148526.0,54903.0,151956.0,61884.0
2026-04-14 17:31:17.901323,347628,1609505371601688,2971571092,-1.09312,-0.119072,0.189344,36.3125,-23.8,5.60875,22.056002,-13.008,-14.808001,none,4,3.0,23120.0,148526.0,54903.0,151956.0,61884.0
2026-04-14 17:31:17.909725,347629,1609505371616241,2971586010,-1.100928,-0.109312,0.121024,39.27875,-22.89875,6.50125,22.376001,-12.776001,-13.824,none,4,3.0,23120.0,148526.0,54903.0,151956.0,61884.0
2026-04-14 17:31:17.918445,347630,1609505371625162,2971594687,-1.100928,-0.109312,0.121024,37.8875,-22.522501,5.06625,22.376001,-12.776001,-13.824,none,4,3.0,23120.0,148526.0,54903.0,151956.0,61884.0
2026-04-14 17:31:17.933747,347631,1609505371639641,2971609614,-1.036512,-0.115168,0.208864,32.85625,-22.19,4.165,23.352001,-13.488001,-16.344,none,4,3.0,23120.0,148526.0,54903.0,151956.0,61884.0
2026-04-14 17:31:17.965655,347642,1609505371648629,2971618345,-1.020896,-0.060512,0.382592,24.955,-20.85125,2.79125,21.288,-12.728001,-16.248001,none,4,3.0,25455.0,151288.0,59138.0,154683.0,66572.0
2026-04-14 17:31:17.968271,347643,1609505371663275,2971633278,-1.020896,-0.060512,0.382592,17.57,-19.11,1.89,21.288,-12.728001,-16.248001,none,4,3.0,25455.0,151288.0,59138.0,154683.0,66572.0
2026-04-14 17:31:17.971174,347644,1609505371672382,2971642003,-0.977952,-0.119072,0.181536,12.8625,-17.5175,1.6975,21.968,-13.216001,-14.64,none,4,3.0,25455.0,151288.0,59138.0,154683.0,66572.0
2026-04-14 17:31:17.974879,347645,1609505371681302,2971650697,-0.977952,-0.119072,0.181536,9.68625,-16.16125,1.3475,21.968,-13.216001,-14.64,none,4,3.0,25455.0,151288.0,59138.0,154683.0,66572.0
2026-04-14 17:31:17.991244,347646,1609505371695827,2971665570,-1.020896,-0.11712,0.150304,5.59125,-14.35875,0.5075,23.168001,-12.984,-15.616001,none,4,3.0,25455.0,151288.0,59138.0,154683.0,66572.0
2026-04-14 17:31:17.999990,347647,1609505371704766,2971674245,-1.020896,-0.11712,0.150304,3.96375,-12.71375,0.23625,23.168001,-12.984,-15.616001,none,4,3.0,25455.0,151288.0,59138.0,154683.0,66572.0
2026-04-14 17:31:18.032566,347648,1609505371719242,2971689132,-1.104832,-0.05856,0.12688,6.685,-11.20875,1.74125,23.312,-13.072001,-15.016001,none,4,3.0,25455.0,151288.0,59138.0,154683.0,66572.0
2026-04-14 17:31:18.036710,347649,1609505371728138,2971697805,-1.042368,-0.031232,0.177632,11.8475,-9.86125,4.1825,22.68,-12.888001,-14.296001,none,4,3.0,25455.0,151288.0,59138.0,154683.0,66572.0
2026-04-14 17:31:18.113810,347660,1609505371742811,2971713194,-1.042368,-0.031232,0.177632,12.83625,-8.995,6.62375,22.68,-12.888001,-14.296001,none,4,3.0,25679.0,155086.0,59572.0,158530.0,67018.0
2026-04-14 17:31:18.115767,347661,1609505371751757,2971721944,-0.99552,-0.005856,0.35136,8.89875,-9.065,8.2425,22.112001,-13.024,-14.784,none,4,3.0,25679.0,155086.0,59572.0,158530.0,67018.0
2026-04-14 17:31:18.118776,347662,1609505371760702,2971730627,-0.99552,-0.005856,0.35136,4.69875,-8.51375,8.67125,22.112001,-13.024,-14.784,none,4,3.0,25679.0,155086.0,59572.0,158530.0,67018.0
2026-04-14 17:31:18.121283,347663,1609505371775180,2971745506,-1.042368,-0.00976,0.212768,3.0975,-7.525,11.43625,21.976002,-13.288001,-14.536,none,4,3.0,25679.0,155086.0,59572.0,158530.0,67018.0
2026-04-14 17:31:18.123807,347664,1609505371784112,2971754219,-1.042368,-0.00976,0.212768,3.61375,-6.7025,15.39125,21.976002,-13.288001,-14.536,none,4,3.0,25679.0,155086.0,59572.0,158530.0,67018.0
2026-04-14 17:31:18.125818,347665,1609505371798583,2971767058,-1.149728,0.052704,0.23424,3.24625,-7.385,17.745,22.152,-13.448001,-14.456,none,4,3.0,25679.0,155086.0,59572.0,158530.0,67018.0
2026-04-14 17:31:18.129712,347666,1609505371807852,2971777803,-1.120448,0.0488,0.150304,-0.14875,-7.88375,18.45375,22.152,-13.080001,-13.52,none,4,3.0,25679.0,155086.0,59572.0,158530.0,67018.0
2026-04-14 17:31:18.130740,347667,1609505371816906,2971786704,-1.120448,0.0488,0.150304,-5.495,-7.9975,19.80125,22.176,-13.080001,-13.52,none,4,3.0,25679.0,155086.0,59572.0,158530.0,67018.0
2026-04-14 17:31:18.134937,347668,1609505371831400,2971801610,-1.057984,0.031232,0.128832,-12.11875,-9.14375,20.0025,22.880001,-13.944,-15.200001,none,4,3.0,25679.0,155086.0,59572.0,158530.0,67018.0
2026-04-14 17:31:18.137427,347669,1609505371840405,2971810340,-1.057984,0.031232,0.128832,-17.9025,-10.167501,20.195,22.880001,-13.944,-15.200001,none,4,3.0,25679.0,155086.0,59572.0,158530.0,67018.0
2026-04-14 17:31:18.168651,347680,1609505371854959,2971825289,-0.99552,0.05856,0.359168,-21.105,-10.2725,20.965,22.880001,-14.352,-15.240001,none,4,3.0,24810.0,153102.0,57949.0,156665.0,65260.0
2026-04-14 17:31:18.170690,347681,1609505371864040,2971833973,-0.99552,0.05856,0.359168,-23.24875,-10.10625,21.20125,22.880001,-14.352,-15.240001,none,4,3.0,24810.0,153102.0,57949.0,156665.0,65260.0
2026-04-14 17:31:18.173385,347682,1609505371878646,2971848873,-1.05408,0.072224,0.171776,-25.62,-9.94,20.825,22.480001,-14.904,-15.096001,none,4,3.0,24810.0,153102.0,57949.0,156665.0,65260.0
2026-04-14 17:31:18.183780,347683,1609505371887552,2971857567,-1.05408,0.072224,0.171776,-30.178751,-10.71875,21.11375,22.480001,-14.904,-15.096001,none,4,3.0,24810.0,153102.0,57949.0,156665.0,65260.0
2026-04-14 17:31:18.191250,347684,1609505371896510,2971866247,-1.03456,0.054656,0.183488,-37.3275,-12.3025,20.83375,22.616001,-15.056001,-18.496,none,4,3.0,24810.0,153102.0,57949.0,156665.0,65260.0
2026-04-14 17:31:18.206260,347685,1609505371910976,2971881115,-1.079456,0.062464,0.413824,-45.6925,-14.105001,21.5425,22.296001,-15.456,-13.728001,none,4,3.0,24810.0,153102.0,57949.0,156665.0,65260.0
2026-04-14 17:31:18.213760,347686,1609505371919919,2971889843,-1.079456,0.062464,0.413824,-52.19375,-16.1875,22.65375,22.296001,-15.456,-13.728001,none,4,3.0,24810.0,153102.0,57949.0,156665.0,65260.0
2026-04-14 17:31:18.230713,347687,1609505371934398,2971904726,-1.030656,-0.001952,0.433344,-54.1625,-17.19375,23.75625,21.568,-15.432001,-13.368001,none,4,3.0,24810.0,153102.0,57949.0,156665.0,65260.0
2026-04-14 17:31:18.261189,347698,1609505371943801,2971913449,-1.030656,-0.001952,0.433344,-52.78,-17.5525,24.535,21.568,-15.432001,-13.368001,none,4,3.0,24414.0,151189.0,57180.0,154946.0,64417.0
2026-04-14 17:31:18.263634,347699,1609505371952833,2971922213,-1.009184,-0.021472,0.261568,-48.86875,-17.3425,25.8825,20.848001,-15.592001,-12.904,none,4,3.0,24414.0,151189.0,57180.0,154946.0,64417.0
2026-04-14 17:31:18.268192,347700,1609505371967338,2971937137,-1.009184,-0.021472,0.261568,-41.46625,-17.01,27.7025,20.848001,-15.592001,-12.904,none,4,3.0,24414.0,151189.0,57180.0,154946.0,64417.0
2026-04-14 17:31:18.271200,347701,1609505371976256,2971945871,-1.001376,0.064416,0.376736,-34.62375,-17.3775,30.7825,21.112001,-16.336,-11.584001,none,4,3.0,24414.0,151189.0,57180.0,154946.0,64417.0
2026-04-14 17:31:18.285922,347702,1609505371990731,2971960759,-0.987712,0.060512,0.267424,-31.9375,-17.4475,33.6175,21.456001,-17.112001,-12.512001,none,4,3.0,24414.0,151189.0,57180.0,154946.0,64417.0
2026-04-14 17:31:18.295037,347703,1609505371999645,2971969425,-0.987712,0.060512,0.267424,-34.6325,-17.10625,36.9425,21.456001,-17.112001,-12.512001,none,4,3.0,24414.0,151189.0,57180.0,154946.0,64417.0
2026-04-14 17:31:18.309666,347704,1609505372014126,2971984313,-0.999424,0.101504,0.431392,-38.6925,-16.38875,39.8475,21.176,-17.432001,-12.984,none,4,3.0,24414.0,151189.0,57180.0,154946.0,64417.0
2026-04-14 17:31:18.318428,347705,1609505372023045,2971993034,-0.999424,0.101504,0.431392,-39.305,-14.752501,42.35875,21.176,-17.432001,-12.984,none,4,3.0,24414.0,151189.0,57180.0,154946.0,64417.0
2026-04-14 17:31:18.325616,347706,1609505372032005,2972001708,-0.940864,0.0976,0.298656,-37.49375,-12.83625,44.84375,20.344002,-17.960001,-12.784,none,4,3.0,24414.0,151189.0,57180.0,154946.0,64417.0
2026-04-14 17:31:18.362095,347717,1609505372047105,2972016802,-0.940864,0.0976,0.298656,-37.14375,-10.56125,46.29625,20.344002,-17.960001,-12.784,none,4,3.0,23776.0,149527.0,56117.0,153243.0,63158.0
2026-04-14 17:31:18.364480,347718,1609505372056210,2972025577,-1.022848,0.138592,0.226432,-38.325,-8.1375,47.94125,20.768002,-18.352001,-12.712001,none,4,3.0,23776.0,149527.0,56117.0,153243.0,63158.0
2026-04-14 17:31:18.366947,347719,1609505372070766,2972040466,-0.9272,0.138592,0.345504,-39.10375,-6.08125,50.30375,20.024,-19.344002,-12.424001,none,4,3.0,23776.0,149527.0,56117.0,153243.0,63158.0
2026-04-14 17:31:18.397522,347720,1609505372079670,2972049140,-0.9272,0.138592,0.345504,-42.14,-4.90875,51.3975,20.024,-19.344002,-12.424001,none,4,3.0,23776.0,149527.0,56117.0,153243.0,63158.0
2026-04-14 17:31:18.422471,347721,1609505372088577,2972057803,-0.9272,0.138592,0.345504,-48.16,-4.235,51.56375,20.024,-19.344002,-12.424001,none,4,3.0,23776.0,149527.0,56117.0,153243.0,63158.0
2026-04-14 17:31:18.447400,347722,1609505372103019,2972072743,-0.948672,0.12688,0.203008,-55.475,-4.6375,52.22875,19.816002,-19.584002,-13.344001,none,4,3.0,23776.0,149527.0,56117.0,153243.0,63158.0
2026-04-14 17:31:18.450014,347723,1609505372111935,2972081437,-1.046272,0.099552,0.22448,-62.335,-5.2325,53.4625,18.608002,-19.848001,-10.280001,none,4,3.0,23776.0,149527.0,56117.0,153243.0,63158.0
2026-04-14 17:31:18.452421,347724,1609505372126420,2972096307,-1.046272,0.099552,0.22448,-67.29625,-5.5825,54.71375,18.608002,-19.848001,-10.280001,none,4,3.0,23776.0,149527.0,56117.0,153243.0,63158.0
2026-04-14 17:31:18.454996,347725,1609505372135352,2972104978,-0.987712,0.064416,0.4392,-67.89125,-4.50625,55.37,17.648,-20.392,-10.224001,none,4,3.0,23776.0,149527.0,56117.0,153243.0,63158.0
2026-04-14 17:31:18.518407,347736,1609505372150003,2972119930,-0.88816,0.042944,0.470432,-63.04375,-3.4475,56.6825,17.648,-20.824001,-9.76,none,4,3.0,23515.0,148891.0,55674.0,152727.0,62672.0
2026-04-14 17:31:18.520503,347737,1609505372158898,2972128676,-0.88816,0.042944,0.470432,-54.3375,-2.2225,57.1025,17.344002,-20.824001,-9.76,none,4,3.0,23515.0,148891.0,55674.0,152727.0,62672.0
2026-04-14 17:31:18.523708,347738,1609505372167816,2972137377,-0.88816,0.042944,0.470432,-45.5175,-0.28875,55.79,17.344002,-20.824001,-9.76,none,4,3.0,23515.0,148891.0,55674.0,152727.0,62672.0
2026-04-14 17:31:18.525726,347739,1609505372182322,2972152261,-0.929152,0.08784,0.443104,-38.85875,0.70875,54.69625,16.728,-21.328001,-9.664001,none,4,3.0,23515.0,148891.0,55674.0,152727.0,62672.0
2026-04-14 17:31:18.528711,347740,1609505372191212,2972160921,-0.931104,0.05856,0.140544,-35.83125,0.95375,53.40125,17.240002,-22.016,-10.712001,none,4,3.0,23515.0,148891.0,55674.0,152727.0,62672.0
2026-04-14 17:31:18.530749,347741,1609505372205705,2972175814,-0.931104,0.05856,0.140544,-35.1225,3.5,52.36875,17.240002,-22.016,-10.712001,none,4,3.0,23515.0,148891.0,55674.0,152727.0,62672.0
2026-04-14 17:31:18.533761,347742,1609505372214654,2972184499,-0.970144,0.085888,0.142496,-35.49,4.45375,51.6425,16.776001,-22.496,-10.328,none,4,3.0,23515.0,148891.0,55674.0,152727.0,62672.0
2026-04-14 17:31:18.536175,347743,1609505372229146,2972199404,-0.970144,0.085888,0.142496,-37.66875,3.5875,50.28625,16.776001,-22.496,-10.328,none,4,3.0,23515.0,148891.0,55674.0,152727.0,62672.0
2026-04-14 17:31:18.538751,347744,1609505372238066,2972208082,-0.874496,0.093696,0.413824,-42.91,2.75625,47.4775,16.528,-22.784,-9.896001,none,4,3.0,23515.0,148891.0,55674.0,152727.0,62672.0
2026-04-14 17:31:18.568358,347755,1609505372247445,2972216836,-0.874496,0.093696,0.413824,-48.0375,3.26375,45.6925,16.528,-22.784,-9.896001,none,4,3.0,23060.0,147917.0,54954.0,151668.0,61818.0
2026-04-14 17:31:18.570896,347756,1609505372262055,2972231851,-0.942816,0.109312,0.40016,-49.525,4.82125,44.5025,15.848001,-23.12,-9.968,none,4,3.0,23060.0,147917.0,54954.0,151668.0,61818.0
2026-04-14 17:31:18.573634,347757,1609505372270975,2972240541,-0.997472,0.064416,0.191296,-47.53,7.875,42.65625,15.400001,-23.656002,-9.568001,none,4,3.0,23060.0,147917.0,54954.0,151668.0,61818.0
2026-04-14 17:31:18.578753,347758,1609505372285516,2972255502,-0.997472,0.064416,0.191296,-42.0175,11.99625,40.99375,15.400001,-23.656002,-9.568001,none,4,3.0,23060.0,147917.0,54954.0,151668.0,61818.0
2026-04-14 17:31:18.588785,347759,1609505372294602,2972264191,-0.958432,0.10736,0.398208,-36.732502,16.16125,38.325,15.088,-23.688002,-9.048,none,4,3.0,23060.0,147917.0,54954.0,151668.0,61818.0
2026-04-14 17:31:18.600930,347760,1609505372303610,2972272891,-0.958432,0.10736,0.398208,-33.78375,19.55625,35.42875,15.088,-23.688002,-9.048,none,4,3.0,23060.0,147917.0,54954.0,151668.0,61818.0
2026-04-14 17:31:18.612431,347761,1609505372318059,2972287807,-1.069696,0.144448,0.222528,-31.6225,22.61875,32.795002,14.208001,-23.944,-8.576,none,4,3.0,23060.0,147917.0,54954.0,151668.0,61818.0
2026-04-14 17:31:18.619877,347762,1609505372327001,2972296576,-1.069696,0.144448,0.222528,-33.59125,25.445,28.49875,14.208001,-23.944,-8.576,none,4,3.0,23060.0,147917.0,54954.0,151668.0,61818.0
2026-04-14 17:31:18.636161,347763,1609505372341477,2972311463,-1.075552,0.080032,0.37088,-38.08,26.45125,23.0475,13.576,-24.544,-9.296001,none,4,3.0,23060.0,147917.0,54954.0,151668.0,61818.0
2026-04-14 17:31:18.663463,347774,1609505372350599,2972320514,-1.075552,0.080032,0.167872,-43.5925,25.8125,19.3375,13.576,-24.544,-9.296001,none,4,3.0,22586.0,147091.0,54019.0,150735.0,60689.0
2026-04-14 17:31:18.665957,347775,1609505372365172,2972335447,-1.223904,0.044896,0.158112,-47.71375,23.82625,15.7675,13.488001,-24.232,-10.168,none,4,3.0,22586.0,147091.0,54019.0,150735.0,60689.0
2026-04-14 17:31:18.668451,347776,1609505372374132,2972344150,-1.098976,0.011712,0.339648,-47.81,19.92375,12.136251,13.576,-24.448002,-7.704001,none,4,3.0,22586.0,147091.0,54019.0,150735.0,60689.0
2026-04-14 17:31:18.677173,347777,1609505372383087,2972352851,-1.098976,0.011712,0.339648,-43.16375,15.33875,8.12875,13.576,-24.448002,-7.704001,none,4,3.0,22586.0,147091.0,54019.0,150735.0,60689.0
2026-04-14 17:31:18.692123,347778,1609505372397563,2972367725,-1.0736,-0.017568,0.091744,-36.435,12.39,3.7975,14.088,-24.768002,-8.832001,none,4,3.0,22586.0,147091.0,54019.0,150735.0,60689.0
2026-04-14 17:31:18.702206,347779,1609505372406499,2972376472,-1.0736,-0.017568,0.091744,-32.095,10.0625,-0.2975,14.088,-24.768002,-8.832001,none,4,3.0,22586.0,147091.0,54019.0,150735.0,60689.0
2026-04-14 17:31:18.716859,347780,1609505372420947,2972389341,-1.098976,-0.025376,0.152256,-29.79375,9.24875,-2.835,13.472001,-24.704,-7.512001,none,4,3.0,22586.0,147091.0,54019.0,150735.0,60689.0
2026-04-14 17:31:18.724635,347781,1609505372430134,2972400123,-1.098976,-0.025376,0.152256,-28.595,8.72375,-5.005,13.472001,-24.704,-7.512001,none,4,3.0,22586.0,147091.0,54019.0,150735.0,60689.0
2026-04-14 17:31:18.738422,347782,1609505372444610,2972413025,-1.04432,-0.066368,0.31232,-25.69,8.925,-8.75,14.384001,-24.704,-8.84,none,4,3.0,22586.0,147091.0,54019.0,150735.0,60689.0
2026-04-14 17:31:18.813189,347793,1609505372453899,2972423797,-1.196576,-0.064416,0.060512,-18.94375,9.84375,-14.39375,14.040001,-24.216002,-7.744,none,4,3.0,22458.0,144843.0,53706.0,148429.0,60440.0
2026-04-14 17:31:18.815835,347794,1609505372462979,2972432551,-1.196576,-0.064416,0.060512,-7.35,10.167501,-21.175,14.040001,-24.216002,-7.744,none,4,3.0,22458.0,144843.0,53706.0,148429.0,60440.0
2026-04-14 17:31:18.818414,347795,1609505372477449,2972447576,-1.149728,-0.070272,-0.05856,5.17125,9.37125,-27.67625,14.200001,-24.424002,-7.768001,none,4,3.0,22458.0,144843.0,53706.0,148429.0,60440.0
2026-04-14 17:31:18.820898,347796,1609505372486363,2972456252,-1.149728,-0.070272,-0.05856,15.39125,8.00625,-33.4075,14.200001,-24.424002,-7.768001,none,4,3.0,22458.0,144843.0,53706.0,148429.0,60440.0
2026-04-14 17:31:18.823308,347797,1609505372500850,2972471125,-1.065792,-0.033184,0.15616,21.28,6.7725,-40.1625,14.72,-23.648,-8.112,none,4,3.0,22458.0,144843.0,53706.0,148429.0,60440.0
2026-04-14 17:31:18.825758,347798,1609505372509939,2972479811,-1.065792,-0.033184,0.15616,24.57,6.6325,-48.3175,14.72,-23.648,-8.112,none,4,3.0,22458.0,144843.0,53706.0,148429.0,60440.0
2026-04-14 17:31:18.828341,347799,1609505372518862,2972488553,-0.991616,-0.066368,0.150304,23.1875,7.2625,-56.93625,15.248001,-23.144001,-7.472,none,4,3.0,22458.0,144843.0,53706.0,148429.0,60440.0
2026-04-14 17:31:18.830837,347800,1609505372533449,2972503495,-1.108736,0.021472,0.218624,17.12375,9.80875,-64.89875,15.808001,-23.232,-9.320001,none,4,3.0,22458.0,144843.0,53706.0,148429.0,60440.0
2026-04-14 17:31:18.837070,347801,1609505372542379,2972512269,-1.108736,0.021472,0.218624,10.4475,11.4275,-72.8175,15.808001,-23.232,-9.320001,none,4,3.0,22458.0,144843.0,53706.0,148429.0,60440.0
2026-04-14 17:31:18.864712,347812,1609505372557067,2972527265,-1.020896,-0.001952,0.1952,5.075,13.5625,-78.295,16.424002,-22.656,-7.880001,none,4,3.0,24118.0,144617.0,56598.0,148514.0,63784.0
2026-04-14 17:31:18.867142,347813,1609505372566041,2972536055,-1.020896,-0.001952,0.1952,3.57875,17.64,-78.496254,16.424002,-22.656,-7.880001,none,4,3.0,24118.0,144617.0,56598.0,148514.0,63784.0
2026-04-14 17:31:18.875769,347814,1609505372580591,2972550932,-1.124352,0.035136,0.191296,3.9725,22.645,-76.23,17.168001,-21.832,-8.400001,none,4,3.0,24118.0,144617.0,56598.0,148514.0,63784.0
2026-04-14 17:31:18.884504,347815,1609505372589534,2972559627,-1.124352,0.035136,0.191296,5.52125,26.60875,-74.777504,17.168001,-21.832,-8.400001,none,4,3.0,24118.0,144617.0,56598.0,148514.0,63784.0
2026-04-14 17:31:18.897393,347816,1609505372598464,2972568309,-1.10288,0.040992,0.249856,7.09625,28.56,-73.38625,18.392,-20.976002,-8.304001,none,4,3.0,24118.0,144617.0,56598.0,148514.0,63784.0
2026-04-14 17:31:18.907456,347817,1609505372612975,2972583189,-1.212192,0.115168,0.38064,9.9225,30.135,-70.58625,18.392,-20.928001,-9.248,none,4,3.0,24118.0,144617.0,56598.0,148514.0,63784.0
2026-04-14 17:31:18.918788,347818,1609505372621881,2972591884,-1.212192,0.115168,0.38064,13.5275,29.435,-67.13,18.240002,-20.928001,-9.248,none,4,3.0,24118.0,144617.0,56598.0,148514.0,63784.0
2026-04-14 17:31:18.930046,347819,1609505372636354,2972604725,-1.128256,0.072224,0.304512,11.68125,25.4625,-63.37625,19.704,-20.424002,-9.936001,none,4,3.0,24118.0,144617.0,56598.0,148514.0,63784.0
2026-04-14 17:31:18.966305,347830,1609505372645603,2972615868,-1.128256,0.072224,0.304512,-2.21375,17.675,-58.26625,19.704,-20.424002,-9.936001,none,4,3.0,22585.0,140917.0,53841.0,145024.0,60608.0
2026-04-14 17:31:18.968799,347831,1609505372654550,2972624615,-1.089216,-0.03904,0.36112,-14.46375,13.92125,-52.03625,20.072,-20.408,-9.624001,none,4,3.0,22585.0,140917.0,53841.0,145024.0,60608.0
2026-04-14 17:31:18.971335,347832,1609505372669081,2972637504,-1.089216,-0.03904,0.36112,-11.795,10.50875,-45.12375,20.072,-20.408,-9.624001,none,4,3.0,22585.0,140917.0,53841.0,145024.0,60608.0
2026-04-14 17:31:18.975462,347833,1609505372678397,2972648293,-1.245376,0.074176,0.07808,5.18875,5.285,-38.91125,19.896002,-20.336,-9.76,none,4,3.0,22585.0,140917.0,53841.0,145024.0,60608.0
2026-04-14 17:31:18.989861,347834,1609505372692878,2972663149,-1.245376,0.074176,0.240096,15.645,-1.61875,-34.685,19.896002,-20.336,-9.76,none,4,3.0,22585.0,140917.0,53841.0,145024.0,60608.0
2026-04-14 17:31:18.996106,347835,1609505372701814,2972671894,-1.069696,0.187392,0.240096,7.9625,-11.05125,-28.805,20.320002,-19.888,-7.968,none,4,3.0,22585.0,140917.0,53841.0,145024.0,60608.0
2026-04-14 17:31:19.009396,347836,1609505372716298,2972684730,-1.06384,0.00976,0.206912,-16.5025,-20.37875,-26.6875,20.800001,-19.856,-8.96,none,4,3.0,22585.0,140917.0,53841.0,145024.0,60608.0
2026-04-14 17:31:19.030577,347837,1609505372725547,2972695530,-1.06384,0.00976,0.206912,-46.24375,-27.317501,-28.7875,20.800001,-19.856,-8.96,none,4,3.0,22585.0,140917.0,53841.0,145024.0,60608.0
2026-04-14 17:31:19.031205,347838,1609505372734450,2972704197,-1.0248,-0.099552,0.366976,-62.69375,-32.5675,-29.89875,20.008001,-19.096,-4.656,none,4,3.0,22585.0,140917.0,53841.0,145024.0,60608.0
