pc_time,serial_num,sensor_ts,host_ts,ax,ay,az,gx,gy,gz,mx,my,mz,phase,rpe,weight_kg,ppg_a,ppg_b,ppg_c,ppg_d,ppg_e
2026-04-14 17:55:54.875281,625274,1609506848532353,4448501834,0.681248,-0.247904,-0.359168,23.135,51.87,-52.42125,-27.024002,-18.592001,-6.4,concentric,5,3.0,36938.0,213708.0,82536.0,218252.0,92639.0
2026-04-14 17:55:54.887614,625275,1609506848546827,4448516740,0.960384,-0.167872,-0.167872,11.7075,50.6975,-60.19125,-25.952002,-19.232,-7.104001,concentric,5,3.0,36938.0,213708.0,82536.0,218252.0,92639.0
2026-04-14 17:55:54.920939,625286,1609506848555710,4448525519,0.960384,-0.167872,-0.167872,-3.2375,52.50875,-44.58125,-25.952002,-19.232,-7.104001,concentric,5,3.0,39036.0,234211.0,85715.0,235677.0,95572.0
2026-04-14 17:55:54.923333,625287,1609506848570343,4448540630,0.636352,-0.11712,0.169824,-13.58875,55.95625,-48.86875,-25.576002,-19.992,-6.768,concentric,5,3.0,39036.0,234211.0,85715.0,235677.0,95572.0
2026-04-14 17:55:54.925866,625288,1609506848579312,4448549336,0.560224,-0.306464,-0.132736,-9.485,59.29,-61.1275,-26.264002,-20.240002,-4.152,concentric,5,3.0,39036.0,234211.0,85715.0,235677.0,95572.0
2026-04-14 17:55:54.930097,625289,1609506848588396,4448558026,0.560224,-0.306464,-0.132736,-5.6,63.90125,-58.24,-26.264002,-20.240002,-4.152,concentric,5,3.0,39036.0,234211.0,85715.0,235677.0,95572.0
2026-04-14 17:55:54.945155,625290,1609506848602931,4448572951,1.065792,-0.38064,-0.503616,-3.2025,64.435,-49.455,-24.768002,-21.264002,-5.776001,concentric,5,3.0,39036.0,234211.0,85715.0,235677.0,95572.0
2026-04-14 17:55:54.952646,625291,1609506848612035,4448581672,1.065792,-0.38064,-0.503616,-7.25375,64.9425,-49.32375,-24.768002,-21.264002,-5.776001,concentric,5,3.0,39036.0,234211.0,85715.0,235677.0,95572.0
2026-04-14 17:55:54.985316,625292,1609506848626509,4448596574,0.618784,0.040992,0.218624,-22.47,62.18625,-50.75875,-24.496,-21.776001,-5.32,concentric,5,3.0,39036.0,234211.0,85715.0,235677.0,95572.0
2026-04-14 17:55:54.987851,625293,1609506848635436,4448605270,0.618784,0.040992,0.218624,-27.86,65.975,-56.74375,-24.496,-21.776001,-5.32,concentric,5,3.0,39036.0,234211.0,85715.0,235677.0,95572.0
2026-04-14 17:55:54.992342,625294,1609506848649930,4448620208,0.638304,-0.18544,0.384544,-24.053751,73.8675,-62.982502,-23.472002,-22.096,-4.016,concentric,5,3.0,39036.0,234211.0,85715.0,235677.0,95572.0
2026-04-14 17:55:55.070010,625305,1609506848659288,4448629019,0.431392,-0.290848,-0.162016,-21.49875,81.96125,-55.93,-23.216002,-22.6,-3.92,concentric,5,3.0,56232.0,313632.0,113514.0,300890.0,125230.0
2026-04-14 17:55:55.072802,625306,1609506848668315,4448637752,0.431392,-0.290848,-0.162016,-13.02875,78.933754,-57.0325,-23.216002,-22.6,-3.92,concentric,5,3.0,56232.0,313632.0,113514.0,300890.0,125230.0
2026-04-14 17:55:55.075006,625307,1609506848682840,4448652672,0.499712,-0.095648,-0.218624,8.6275,69.4925,-59.54375,-23.512001,-22.800001,-2.392,concentric,5,3.0,56232.0,313632.0,113514.0,300890.0,125230.0
2026-04-14 17:55:55.077251,625308,1609506848691850,4448661416,0.499712,-0.095648,-0.218624,17.03625,58.14375,-51.9925,-23.512001,-22.800001,-2.392,concentric,5,3.0,56232.0,313632.0,113514.0,300890.0,125230.0
2026-04-14 17:55:55.080099,625309,1609506848706333,4448676294,0.571936,0.02928,-0.216672,3.465,51.485,-44.58125,-22.920002,-22.968,-1.728,concentric,5,3.0,56232.0,313632.0,113514.0,300890.0,125230.0
2026-04-14 17:55:55.082803,625310,1609506848715291,4448685160,0.571936,0.02928,-0.216672,-19.9325,49.39375,-43.54875,-22.920002,-22.968,-1.728,concentric,5,3.0,56232.0,313632.0,113514.0,300890.0,125230.0
2026-04-14 17:55:55.085285,625311,1609506848724417,4448693869,0.568032,-0.07808,0.363072,-38.395,50.14625,-46.585,-22.384,-23.648,-1.128,concentric,5,3.0,56232.0,313632.0,113514.0,300890.0,125230.0
2026-04-14 17:55:55.087791,625312,1609506848739004,4448708778,0.757376,-0.31232,0.070272,-39.375,54.94125,-48.2475,-22.44,-24.056002,-3.608,concentric,5,3.0,56232.0,313632.0,113514.0,300890.0,125230.0
2026-04-14 17:55:55.090196,625313,1609506848747961,4448717469,0.757376,-0.31232,0.070272,-33.76625,52.17625,-44.4675,-22.44,-24.056002,-3.608,concentric,5,3.0,56232.0,313632.0,113514.0,300890.0,125230.0
2026-04-14 17:55:55.121814,625324,1609506848762875,4448732646,0.71248,-0.113216,0.011712,-16.205,41.51,-40.0225,-21.112001,-23.880001,-0.576,concentric,5,3.0,77274.0,342470.0,142509.0,323964.0,154335.0
2026-04-14 17:55:55.123350,625325,1609506848771865,4448741428,0.71248,-0.113216,0.011712,3.64875,33.39875,-36.00625,-21.112001,-23.880001,-0.576,concentric,5,3.0,77274.0,342470.0,142509.0,323964.0,154335.0
2026-04-14 17:55:55.125813,625326,1609506848780880,4448750162,0.708576,-0.081984,-0.056608,13.15125,28.0875,-33.705,-20.936,-24.880001,-1.552,concentric,5,3.0,77274.0,342470.0,142509.0,323964.0,154335.0
2026-04-14 17:55:55.137792,625327,1609506848795461,4448765045,0.708576,-0.081984,-0.056608,10.78875,23.26625,-31.87625,-20.936,-24.880001,-1.552,concentric,5,3.0,77274.0,342470.0,142509.0,323964.0,154335.0
2026-04-14 17:55:55.144891,625328,1609506848804405,4448773784,0.767136,-0.12688,0.076128,9.45875,18.3575,-29.21625,-20.536001,-24.68,-1.688,concentric,5,3.0,77274.0,342470.0,142509.0,323964.0,154335.0
2026-04-14 17:55:55.159836,625329,1609506848818886,4448788711,0.815936,-0.044896,0.138592,7.42,13.545,-25.165,-20.536001,-24.832,-1.648,concentric,5,3.0,77274.0,342470.0,142509.0,323964.0,154335.0
2026-04-14 17:55:55.169033,625330,1609506848827824,4448797414,0.815936,-0.044896,0.138592,-0.60375,9.1875,-20.23,-20.672,-24.832,-1.648,concentric,5,3.0,77274.0,342470.0,142509.0,323964.0,154335.0
2026-04-14 17:55:55.182826,625331,1609506848842317,4448812266,0.866688,-0.033184,0.12688,-8.72375,6.0725,-16.8175,-20.424002,-24.824001,-1.664,concentric,5,3.0,77274.0,342470.0,142509.0,323964.0,154335.0
2026-04-14 17:55:55.195918,625332,1609506848851275,4448820966,0.866688,-0.033184,0.12688,-10.03625,3.47375,-16.905,-20.424002,-24.824001,-1.664,concentric,5,3.0,77274.0,342470.0,142509.0,323964.0,154335.0
2026-04-14 17:55:55.222638,625343,1609506848860686,4448829731,0.890112,-0.105408,0.066368,-4.865,2.8525,-18.2175,-20.28,-25.168001,0.048,concentric,5,3.0,81445.0,342217.0,147878.0,324129.0,159528.0
2026-04-14 17:55:55.225179,625344,1609506848875297,4448844657,0.890112,-0.105408,0.066368,1.9425,3.00125,-19.38125,-20.28,-25.168001,0.048,concentric,5,3.0,81445.0,342217.0,147878.0,324129.0,159528.0
2026-04-14 17:55:55.227140,625345,1609506848884381,4448853384,0.915488,-0.121024,-0.001952,8.1025,2.0475,-19.425,-21.104,-25.328001,-0.792,concentric,5,3.0,81445.0,342217.0,147878.0,324129.0,159528.0
2026-04-14 17:55:55.238956,625346,1609506848898904,4448868300,0.915488,-0.121024,-0.01952,6.72875,-0.1225,-17.14125,-21.104,-25.328001,-0.792,concentric,5,3.0,81445.0,342217.0,147878.0,324129.0,159528.0
2026-04-14 17:55:55.250289,625347,1609506848907826,4448876981,0.903776,-0.0976,-0.01952,0.06125,-4.2875,-10.94625,-20.648,-25.272001,-2.184,concentric,5,3.0,81445.0,342217.0,147878.0,324129.0,159528.0
2026-04-14 17:55:55.257283,625348,1609506848916752,4448885660,0.903776,-0.0976,-0.01952,-6.79875,-7.28,-6.8775,-20.648,-25.272001,-2.184,concentric,5,3.0,81445.0,342217.0,147878.0,324129.0,159528.0
2026-04-14 17:55:55.272850,625349,1609506848931347,4448900564,0.899872,0.064416,0.277184,-4.78625,-6.5975,-7.72625,-19.936,-25.496,-1.88,concentric,5,3.0,81445.0,342217.0,147878.0,324129.0,159528.0
2026-04-14 17:55:55.280336,625350,1609506848940313,4448909335,0.851072,-0.052704,0.03904,-3.17625,-4.4625,-9.8175,-20.0,-25.016,0.752,concentric,5,3.0,81445.0,342217.0,147878.0,324129.0,159528.0
2026-04-14 17:55:55.296134,625351,1609506848954839,4448924208,0.851072,-0.052704,0.03904,-5.0225,-2.40625,-10.19375,-20.0,-25.016,0.752,concentric,5,3.0,81445.0,342217.0,147878.0,324129.0,159528.0
2026-04-14 17:55:55.323480,625362,1609506848963934,4448932987,0.96624,-0.121024,-0.025376,-1.16375,-1.61,-9.79125,-19.928001,-25.344002,-1.824,concentric,5,3.0,79421.0,339851.0,145677.0,322473.0,157645.0
2026-04-14 17:55:55.326051,625363,1609506848978474,4448947979,0.96624,-0.121024,-0.025376,3.2725,-2.65125,-6.67625,-19.928001,-25.344002,-1.824,concentric,5,3.0,79421.0,339851.0,145677.0,322473.0,157645.0
2026-04-14 17:55:55.328930,625364,1609506848987399,4448956721,0.88816,0.072224,0.187392,2.28375,-4.725,-2.975,-21.584002,-24.904001,1.024,concentric,5,3.0,79421.0,339851.0,145677.0,322473.0,157645.0
2026-04-14 17:55:55.336414,625365,1609506848996338,4448965474,0.88816,0.072224,0.187392,1.54,-6.58,-2.2225,-21.584002,-24.904001,1.024,concentric,5,3.0,79421.0,339851.0,145677.0,322473.0,157645.0
2026-04-14 17:55:55.352796,625366,1609506849010836,4448980384,0.88816,-0.003904,0.011712,2.1875,-7.37625,-2.38,-20.072,-25.224,-1.952,concentric,5,3.0,79421.0,339851.0,145677.0,322473.0,157645.0
2026-04-14 17:55:55.361545,625367,1609506849019846,4448989102,0.88816,-0.035136,0.052704,1.68,-7.805,-2.40625,-20.072,-25.224,-1.952,concentric,5,3.0,79421.0,339851.0,145677.0,322473.0,157645.0
2026-04-14 17:55:55.398916,625368,1609506849034354,4449004125,0.923296,-0.040992,0.052704,1.995,-8.295,-1.35625,-20.152,-25.472002,-1.864,concentric,5,3.0,79421.0,339851.0,145677.0,322473.0,157645.0
2026-04-14 17:55:55.421146,625369,1609506849043440,4449012813,0.823744,0.0488,-0.025376,1.72375,-9.4675,0.4375,-19.864,-25.288002,-1.384,concentric,5,3.0,79421.0,339851.0,145677.0,322473.0,157645.0
2026-04-14 17:55:55.448616,625380,1609506849057921,4449028014,0.823744,0.0488,-0.025376,0.98,-11.9875,2.6075,-19.864,-25.288002,-1.384,concentric,5,3.0,85451.0,342774.0,153743.0,325383.0,165538.0
2026-04-14 17:55:55.451421,625381,1609506849066880,4449036702,0.91744,0.050752,0.191296,1.8725,-12.90625,3.4125,-21.104,-25.104002,-1.208,concentric,5,3.0,85451.0,342774.0,153743.0,325383.0,165538.0
2026-04-14 17:55:55.454007,625382,1609506849075796,4449045419,0.91744,0.050752,0.191296,2.975,-11.90875,3.10625,-21.104,-25.104002,-1.208,concentric,5,3.0,85451.0,342774.0,153743.0,325383.0,165538.0
2026-04-14 17:55:55.456528,625383,1609506849090342,4449060312,0.901824,0.01952,-0.017568,3.64875,-9.948751,2.16125,-21.04,-25.272001,-2.176,concentric,5,3.0,85451.0,342774.0,153743.0,325383.0,165538.0
2026-04-14 17:55:55.459123,625384,1609506849099418,4449069028,0.901824,0.01952,-0.017568,5.52125,-9.0125,2.19625,-21.04,-25.272001,-2.176,concentric,5,3.0,85451.0,342774.0,153743.0,325383.0,165538.0
2026-04-14 17:55:55.461487,625385,1609506849114018,4449083936,0.940864,0.0,0.023424,8.14625,-9.65125,3.45625,-20.76,-25.536001,-2.2,concentric,5,3.0,85451.0,342774.0,153743.0,325383.0,165538.0
2026-04-14 17:55:55.466511,625386,1609506849123033,4449092639,0.935008,0.035136,0.115168,8.93375,-12.005,6.1425,-20.056002,-25.096,-2.712,concentric,5,3.0,85451.0,342774.0,153743.0,325383.0,165538.0
2026-04-14 17:55:55.479063,625387,1609506849132113,4449101344,0.935008,0.035136,0.115168,6.405,-15.0325,8.96875,-20.056002,-25.096,-2.712,concentric,5,3.0,85451.0,342774.0,153743.0,325383.0,165538.0
2026-04-14 17:55:55.487948,625388,1609506849146651,4449116273,0.882304,0.064416,0.021472,4.43625,-16.6075,10.3775,-20.672,-25.096,-2.824,concentric,5,3.0,85451.0,342774.0,153743.0,325383.0,165538.0
2026-04-14 17:55:55.497605,625389,1609506849155595,4449124988,0.882304,0.064416,0.021472,1.855,-15.855001,10.4475,-20.672,-25.096,-2.824,concentric,5,3.0,85451.0,342774.0,153743.0,325383.0,165538.0
2026-04-14 17:55:55.525306,625400,1609506849170211,4449140046,0.91744,0.007808,0.140544,-2.38,-13.58875,10.3775,-21.296001,-24.728,-2.056,concentric,5,3.0,90486.0,344849.0,160313.0,327240.0,171918.0
2026-04-14 17:55:55.527772,625401,1609506849179140,4449148799,0.91744,0.007808,0.140544,-1.86375,-11.87375,10.1325,-21.296001,-24.728,-2.056,concentric,5,3.0,90486.0,344849.0,160313.0,327240.0,171918.0
2026-04-14 17:55:55.536527,625402,1609506849193694,4449163695,0.919392,0.021472,0.11712,2.835,-10.386251,10.0625,-22.608002,-24.144001,-0.08,concentric,5,3.0,90486.0,344849.0,160313.0,327240.0,171918.0
2026-04-14 17:55:55.542216,625403,1609506849202638,4449172437,0.954528,0.035136,0.1464,6.78125,-10.28125,9.45,-20.976002,-24.76,-1.816,concentric,5,3.0,90486.0,344849.0,160313.0,327240.0,171918.0
2026-04-14 17:55:55.552778,625404,1609506849211589,4449181147,0.954528,0.035136,0.1464,6.6675,-10.6225,8.93375,-20.976002,-24.76,-1.816,concentric,5,3.0,90486.0,344849.0,160313.0,327240.0,171918.0
2026-04-14 17:55:55.569018,625405,1609506849226092,4449196031,0.884256,-0.003904,0.064416,4.20875,-10.5,7.4725,-20.84,-24.960001,-3.216,concentric,5,3.0,90486.0,344849.0,160313.0,327240.0,171918.0
2026-04-14 17:55:55.576757,625406,1609506849235102,4449204724,0.884256,-0.003904,0.064416,3.33375,-9.1525,6.39625,-20.84,-24.960001,-3.216,concentric,5,3.0,90486.0,344849.0,160313.0,327240.0,171918.0
2026-04-14 17:55:55.591353,625407,1609506849249613,4449219728,0.86864,-0.033184,0.095648,3.465,-7.46375,6.60625,-20.92,-24.496,-2.4,concentric,5,3.0,90486.0,344849.0,160313.0,327240.0,171918.0
2026-04-14 17:55:55.626049,625408,1609506849258555,4449228455,0.86864,-0.033184,0.095648,3.43,-6.16,6.825,-20.92,-24.496,-2.4,concentric,5,3.0,90486.0,344849.0,160313.0,327240.0,171918.0
2026-04-14 17:55:55.654036,625419,1609506849267530,4449237188,0.886208,-0.03904,-0.085888,6.51875,-6.37875,6.8425,-21.872002,-24.096,-2.528,concentric,5,3.0,90202.0,344769.0,159822.0,326715.0,171372.0
2026-04-14 17:55:55.656534,625420,1609506849282027,4449252089,0.872544,0.003904,0.089792,8.30375,-7.77875,5.83625,-21.872002,-24.408,-4.184,concentric,5,3.0,90202.0,344769.0,159822.0,326715.0,171372.0
2026-04-14 17:55:55.658612,625421,1609506849290987,4449260991,0.872544,0.003904,0.089792,7.6825,-9.073751,4.41875,-21.944,-24.408,-4.184,concentric,5,3.0,90202.0,344769.0,159822.0,326715.0,171372.0
2026-04-14 17:55:55.661523,625422,1609506849305610,4449275939,0.853024,-0.056608,0.033184,8.2425,-9.292501,3.185,-21.848001,-24.584002,-2.648,concentric,5,3.0,90202.0,344769.0,159822.0,326715.0,171372.0
2026-04-14 17:55:55.664030,625423,1609506849314641,4449284634,0.853024,-0.056608,0.033184,5.64375,-9.03,2.94875,-21.848001,-24.584002,-2.648,concentric,5,3.0,90202.0,344769.0,159822.0,326715.0,171372.0
2026-04-14 17:55:55.671077,625424,1609506849329198,4449299545,0.853024,-0.072224,-0.066368,4.26125,-8.39125,3.70125,-21.864,-24.264002,-0.576,concentric,5,3.0,90202.0,344769.0,159822.0,326715.0,171372.0
2026-04-14 17:55:55.678499,625425,1609506849338118,4449308265,0.853024,-0.072224,-0.066368,5.32,-8.58375,4.0425,-21.864,-24.264002,-0.576,concentric,5,3.0,90202.0,344769.0,159822.0,326715.0,171372.0
2026-04-14 17:55:55.687535,625426,1609506849347048,4449316937,0.929152,-0.052704,0.1464,4.7775,-9.26625,3.75375,-21.168001,-24.576,-3.856,concentric,5,3.0,90202.0,344769.0,159822.0,326715.0,171372.0
2026-04-14 17:55:55.726006,625437,1609506849361595,4449331946,0.929152,-0.052704,0.1464,2.2575,-8.925,4.68125,-21.168001,-24.576,-3.856,concentric,5,3.0,87180.0,342276.0,156189.0,324556.0,167747.0
2026-04-14 17:55:55.729039,625438,1609506849370664,4449340741,0.911584,-0.093696,0.152256,0.49,-7.91875,4.33125,-22.352001,-24.456001,-3.224,concentric,5,3.0,87180.0,342276.0,156189.0,324556.0,167747.0
2026-04-14 17:55:55.731532,625439,1609506849385254,4449353635,0.833504,-0.089792,-0.101504,-1.56625,-6.8775,4.7775,-22.904001,-24.352001,-2.952,concentric,5,3.0,87180.0,342276.0,156189.0,324556.0,167747.0
2026-04-14 17:55:55.759086,625440,1609506849394606,4449364437,0.833504,-0.089792,-0.101504,-2.59875,-6.58,5.22375,-22.904001,-24.352001,-2.952,concentric,5,3.0,87180.0,342276.0,156189.0,324556.0,167747.0
2026-04-14 17:55:55.783801,625441,1609506849403699,4449373114,0.923296,-0.140544,-0.05856,-4.0425,-7.63,5.25,-22.632002,-24.2,-2.904,concentric,5,3.0,87180.0,342276.0,156189.0,324556.0,167747.0
2026-04-14 17:55:55.808971,625442,1609506849418193,4449388106,0.923296,-0.140544,-0.05856,-6.04625,-10.12375,5.565,-22.632002,-24.2,-2.904,concentric,5,3.0,87180.0,342276.0,156189.0,324556.0,167747.0
2026-04-14 17:55:55.810979,625443,1609506849427125,4449396792,0.856928,-0.128832,-0.091744,-7.48125,-11.36625,5.43375,-22.536001,-24.104002,-2.688,concentric,5,3.0,87180.0,342276.0,156189.0,324556.0,167747.0
2026-04-14 17:55:55.823450,625444,1609506849441638,4449411802,0.856928,-0.128832,-0.091744,-6.7375,-11.31375,5.64375,-22.536001,-24.104002,-2.688,concentric,5,3.0,87180.0,342276.0,156189.0,324556.0,167747.0
2026-04-14 17:55:55.823806,625445,1609506849450621,4449420502,0.86864,-0.093696,0.035136,-7.69125,-10.045,5.80125,-22.52,-24.168001,-2.728,concentric,5,3.0,87180.0,342276.0,156189.0,324556.0,167747.0
2026-04-14 17:55:55.846156,625456,1609506849465579,4449435621,0.8296,-0.12688,-0.05856,-7.805,-8.00625,5.8975,-22.776001,-24.184002,-3.944,concentric,5,3.0,77916.0,340409.0,143768.0,322360.0,155107.0
2026-04-14 17:55:55.848729,625457,1609506849474539,4449444374,0.8296,-0.12688,-0.05856,-6.1075,-6.30875,7.1225,-22.776001,-24.184002,-3.944,concentric,5,3.0,77916.0,340409.0,143768.0,322360.0,155107.0
2026-04-14 17:55:55.851220,625458,1609506849483688,4449453106,0.843264,-0.12688,-0.17568,-3.82375,-6.23875,8.35625,-21.952002,-24.312,-3.2,concentric,5,3.0,77916.0,340409.0,143768.0,322360.0,155107.0
2026-04-14 17:55:55.853711,625459,1609506849498320,4449468051,0.843264,-0.12688,-0.17568,-2.63375,-7.525,9.3275,-21.952002,-24.312,-3.2,concentric,5,3.0,77916.0,340409.0,143768.0,322360.0,155107.0
2026-04-14 17:55:55.858084,625460,1609506849507235,4449476723,0.86864,-0.124928,0.011712,-3.57875,-9.695,10.15875,-22.096,-23.936,-3.784,concentric,5,3.0,77916.0,340409.0,143768.0,322360.0,155107.0
2026-04-14 17:55:55.864507,625461,1609506849521883,4449491669,0.86864,-0.124928,0.011712,-6.16875,-11.06,10.92,-22.096,-23.936,-3.784,concentric,5,3.0,77916.0,340409.0,143768.0,322360.0,155107.0
2026-04-14 17:55:55.871101,625462,1609506849530883,4449500365,0.796416,-0.115168,-0.074176,-6.965,-12.43375,11.59375,-22.080002,-24.048,-3.464,concentric,5,3.0,77916.0,340409.0,143768.0,322360.0,155107.0
2026-04-14 17:55:55.881106,625463,1609506849539813,4449509043,0.796416,-0.115168,-0.074176,-6.895,-12.90625,11.36625,-22.080002,-24.048,-3.464,concentric,5,3.0,77916.0,340409.0,143768.0,322360.0,155107.0
2026-04-14 17:55:55.896248,625464,1609506849554437,4449523970,0.806176,-0.103456,0.017568,-5.5125,-14.5075,11.34875,-23.064001,-23.536001,-4.272,concentric,5,3.0,77916.0,340409.0,143768.0,322360.0,155107.0
2026-04-14 17:55:55.927489,625475,1609506849563921,4449533208,0.806176,-0.13664,-0.046848,-5.0225,-16.52,11.3225,-23.064001,-23.536001,-4.272,concentric,5,3.0,68315.0,334342.0,130870.0,317279.0,142350.0
2026-04-14 17:55:55.930079,625476,1609506849578515,4449548175,0.813984,-0.13664,-0.046848,-5.74875,-17.73625,11.57625,-22.656,-23.928001,-4.232,concentric,5,3.0,68315.0,334342.0,130870.0,317279.0,142350.0
2026-04-14 17:55:55.932582,625477,1609506849587471,4449556885,0.851072,-0.081984,0.072224,-4.8125,-17.80625,11.97875,-23.672,-23.240002,-3.104,concentric,5,3.0,68315.0,334342.0,130870.0,317279.0,142350.0
2026-04-14 17:55:55.937485,625478,1609506849596562,4449565626,0.851072,-0.081984,0.072224,-4.54125,-17.64875,11.2,-23.672,-23.240002,-3.104,concentric,5,3.0,68315.0,334342.0,130870.0,317279.0,142350.0
2026-04-14 17:55:55.952486,625479,1609506849611069,4449580576,0.720288,-0.109312,-0.122976,-5.50375,-17.89375,10.10625,-23.528002,-23.12,-3.256,concentric,5,3.0,68315.0,334342.0,130870.0,317279.0,142350.0
2026-04-14 17:55:55.962412,625480,1609506849619988,4449589252,0.720288,-0.109312,-0.122976,-6.7375,-20.43125,9.66875,-23.528002,-23.12,-3.256,concentric,5,3.0,68315.0,334342.0,130870.0,317279.0,142350.0
2026-04-14 17:55:55.974858,625481,1609506849634489,4449604125,0.700768,-0.11712,-0.095648,-5.25,-24.14125,10.0275,-22.832,-23.064001,-3.384,concentric,5,3.0,68315.0,334342.0,130870.0,317279.0,142350.0
2026-04-14 17:55:55.983525,625482,1609506849643456,4449612831,0.700768,-0.11712,-0.095648,-3.9725,-27.16875,10.9025,-22.832,-23.064001,-3.384,concentric,5,3.0,68315.0,334342.0,130870.0,317279.0,142350.0
2026-04-14 17:55:55.993568,625483,1609506849652519,4449621594,0.80032,-0.148352,0.01952,-6.23,-27.0725,11.6375,-22.76,-23.216002,-4.32,concentric,5,3.0,68315.0,334342.0,130870.0,317279.0,142350.0
2026-04-14 17:55:56.027392,625494,1609506849667240,4449636543,0.687104,-0.105408,0.01952,-10.35125,-27.16,14.95375,-23.416,-22.968,-4.784,concentric,5,3.0,55656.0,318280.0,113556.0,304225.0,125327.0
2026-04-14 17:55:56.030028,625495,1609506849676372,4449645315,0.687104,-0.105408,0.01952,-11.2875,-29.6625,15.2425,-23.416,-22.968,-4.784,concentric,5,3.0,55656.0,318280.0,113556.0,304225.0,125327.0
2026-04-14 17:55:56.032476,625496,1609506849690910,4449660247,0.698816,-0.091744,0.015616,-9.695,-31.99,14.9275,-23.368002,-22.496,-4.96,concentric,5,3.0,55656.0,318280.0,113556.0,304225.0,125327.0
2026-04-14 17:55:56.041523,625497,1609506849699840,4449669001,0.698816,-0.091744,0.015616,-9.45,-34.20375,19.2325,-23.368002,-22.496,-4.96,concentric,5,3.0,55656.0,318280.0,113556.0,304225.0,125327.0
2026-04-14 17:55:56.057278,625498,1609506849714387,4449683956,0.618784,-0.169824,-0.040992,-16.49375,-38.15,22.23375,-23.400002,-22.608002,-4.104,concentric,5,3.0,55656.0,318280.0,113556.0,304225.0,125327.0
2026-04-14 17:55:56.063892,625499,1609506849723414,4449692707,0.618784,-0.169824,-0.040992,-24.38625,-41.326252,22.56625,-23.400002,-22.608002,-4.104,concentric,5,3.0,55656.0,318280.0,113556.0,304225.0,125327.0
2026-04-14 17:55:56.072651,625500,1609506849732506,4449701421,0.75152,-0.20496,-0.011712,-27.78125,-42.7525,24.2025,-23.968,-21.920002,-5.256,concentric,5,3.0,55656.0,318280.0,113556.0,304225.0,125327.0
2026-04-14 17:55:56.087990,625501,1609506849747214,4449716310,0.562176,-0.10736,0.064416,-23.24,-44.065,29.365,-25.04,-21.792002,-5.84,concentric,5,3.0,55656.0,318280.0,113556.0,304225.0,125327.0
2026-04-14 17:55:56.098967,625502,1609506849756131,4449724994,0.562176,-0.10736,0.064416,-13.95625,-46.26125,29.575,-25.04,-21.792002,-5.84,concentric,5,3.0,55656.0,318280.0,113556.0,304225.0,125327.0
2026-04-14 17:55:56.184962,625513,1609506849770802,4449740477,0.6344,-0.183488,-0.37088,-9.0475,-49.945,26.2325,-25.824001,-21.408,-4.704,concentric,5,3.0,44031.0,279030.0,95398.0,272629.0,105910.0
2026-04-14 17:55:56.187779,625514,1609506849779737,4449749226,0.6344,-0.183488,-0.37088,-5.97625,-52.0625,30.52,-25.824001,-21.408,-4.704,concentric,5,3.0,44031.0,279030.0,95398.0,272629.0,105910.0
2026-04-14 17:55:56.190301,625515,1609506849788646,4449757923,0.757376,-0.089792,-0.177632,-11.05125,-51.0825,31.85875,-24.728,-21.032001,-6.152,concentric,5,3.0,44031.0,279030.0,95398.0,272629.0,105910.0
2026-04-14 17:55:56.192568,625516,1609506849803173,4449772859,0.757376,-0.089792,-0.177632,-27.4575,-45.75375,24.80625,-24.728,-21.032001,-6.152,concentric,5,3.0,44031.0,279030.0,95398.0,272629.0,105910.0
2026-04-14 17:55:56.195216,625517,1609506849812121,4449781548,0.519232,-0.138592,-0.091744,-32.935,-41.335,13.69375,-24.720001,-21.52,-5.616,concentric,5,3.0,44031.0,279030.0,95398.0,272629.0,105910.0
2026-04-14 17:55:56.197808,625518,1609506849826648,4449796459,0.636352,-0.251808,-0.169824,-27.7025,-41.4575,14.30625,-25.136002,-20.488,-5.976,concentric,5,3.0,44031.0,279030.0,95398.0,272629.0,105910.0
2026-04-14 17:55:56.200298,625519,1609506849835577,4449805188,0.636352,-0.251808,-0.169824,-18.235,-39.576252,19.88875,-25.136002,-20.488,-5.976,concentric,5,3.0,44031.0,279030.0,95398.0,272629.0,105910.0
2026-04-14 17:55:56.202846,625520,1609506849850204,4449820126,0.843264,-0.115168,-0.220576,-10.15,-40.74875,22.68,-26.032001,-20.176,-6.096,concentric,5,3.0,44031.0,279030.0,95398.0,272629.0,105910.0
2026-04-14 17:55:56.207832,625521,1609506849859228,4449828833,0.843264,-0.115168,-0.220576,-12.25,-39.76875,21.25375,-26.032001,-20.176,-6.096,concentric,5,3.0,44031.0,279030.0,95398.0,272629.0,105910.0
2026-04-14 17:55:56.237313,625532,1609506849868349,4449837608,0.89792,-0.232288,0.023424,-24.2375,-35.70875,18.6725,-26.12,-19.808,-5.6,concentric,5,3.0,39152.0,250491.0,86233.0,248742.0,95332.0
2026-04-14 17:55:56.265152,625533,1609506849883154,4449852576,0.89792,-0.232288,0.023424,-31.56125,-31.4825,19.15375,-26.12,-19.808,-5.6,concentric,5,3.0,39152.0,250491.0,86233.0,248742.0,95332.0
2026-04-14 17:55:56.267697,625534,1609506849892135,4449861276,0.70272,-0.398208,-0.0488,-15.5225,-25.06875,20.79875,-26.320002,-19.384,-6.224001,concentric,5,3.0,39152.0,250491.0,86233.0,248742.0,95332.0
2026-04-14 17:55:56.270167,625535,1609506849906681,4449876162,0.798368,-0.12688,-0.140544,9.72125,-24.66625,15.30375,-26.376001,-19.2,-5.624,concentric,5,3.0,39152.0,250491.0,86233.0,248742.0,95332.0
2026-04-14 17:55:56.272674,625536,1609506849915714,4449884858,0.798368,-0.12688,-0.140544,28.8575,-23.485,25.87375,-26.376001,-19.2,-5.624,concentric,5,3.0,39152.0,250491.0,86233.0,248742.0,95332.0
2026-04-14 17:55:56.274932,625537,1609506849924760,4449893567,0.798368,-0.12688,-0.140544,32.33125,-21.84,25.54125,-26.376001,-19.2,-5.624,concentric,5,3.0,39152.0,250491.0,86233.0,248742.0,95332.0
2026-04-14 17:55:56.279888,625538,1609506849939732,4449908469,0.745664,-0.062464,-0.25376,21.69125,-19.50375,19.4075,-26.864002,-18.44,-6.28,concentric,5,3.0,39152.0,250491.0,86233.0,248742.0,95332.0
2026-04-14 17:55:56.292558,625539,1609506849949042,4449919400,0.739808,-0.222528,-0.003904,5.6525,-14.79625,19.81,-27.672,-17.92,-6.6,concentric,5,3.0,39152.0,250491.0,86233.0,248742.0,95332.0
2026-04-14 17:55:56.305291,625540,1609506849963584,4449932222,0.739808,-0.222528,-0.003904,1.89,-10.395,20.0725,-27.672,-17.92,-6.6,concentric,5,3.0,39152.0,250491.0,86233.0,248742.0,95332.0
2026-04-14 17:55:56.334662,625551,1609506849972851,4449943037,0.593408,-0.134688,-0.247904,11.698751,-8.295,19.6525,-26.496002,-18.52,-8.424001,concentric,5,3.0,33953.0,209605.0,76379.0,211487.0,84833.0
2026-04-14 17:55:56.337208,625552,1609506849981812,4449951840,0.593408,-0.134688,-0.247904,21.7,-5.22375,15.72375,-26.496002,-18.52,-8.424001,concentric,5,3.0,33953.0,209605.0,76379.0,211487.0,84833.0
2026-04-14 17:55:56.339713,625553,1609506849996351,4449964720,0.88816,-0.037088,-0.40016,11.917501,-3.91125,11.305,-27.304,-17.768002,-6.992,concentric,5,3.0,33953.0,209605.0,76379.0,211487.0,84833.0
2026-04-14 17:55:56.347232,625554,1609506850005562,4449975487,0.88816,-0.037088,-0.40016,-14.315001,-2.6425,8.16375,-27.304,-17.768002,-6.992,concentric,5,3.0,33953.0,209605.0,76379.0,211487.0,84833.0
2026-04-14 17:55:56.357489,625555,1609506850014695,4449984180,0.835456,-0.236192,-0.099552,-19.005,0.86625,17.6925,-27.320002,-17.712,-8.024,concentric,5,3.0,33953.0,209605.0,76379.0,211487.0,84833.0
2026-04-14 17:55:56.370273,625556,1609506850029307,4449999148,0.730048,-0.577792,-0.15616,-8.28625,7.16625,15.015,-26.720001,-17.088001,-7.736001,concentric,5,3.0,33953.0,209605.0,76379.0,211487.0,84833.0
2026-04-14 17:55:56.381664,625557,1609506850038303,4450007833,0.730048,-0.577792,-0.15616,8.575,7.735,3.70125,-26.720001,-17.088001,-7.736001,concentric,5,3.0,33953.0,209605.0,76379.0,211487.0,84833.0
2026-04-14 17:55:56.395941,625558,1609506850052783,4450022716,0.876448,-0.177632,-0.226432,31.98125,8.33,25.585001,-27.760002,-17.208,-8.64,concentric,5,3.0,33953.0,209605.0,76379.0,211487.0,84833.0
2026-04-14 17:55:56.403842,625559,1609506850061742,4450031389,0.876448,-0.177632,-0.226432,26.0575,14.875,13.2475,-27.760002,-17.208,-8.64,concentric,5,3.0,33953.0,209605.0,76379.0,211487.0,84833.0
2026-04-14 17:55:56.434000,625570,1609506850076341,4450046430,0.880352,-0.122976,-0.300608,7.5425,10.92,20.055,-26.936,-16.76,-8.296001,concentric,5,3.0,33010.0,205900.0,74432.0,208822.0,82945.0
2026-04-14 17:55:56.435969,625571,1609506850085332,4450055160,0.880352,-0.122976,-0.300608,-13.99125,19.1975,22.46125,-26.936,-16.76,-8.296001,concentric,5,3.0,33010.0,205900.0,74432.0,208822.0,82945.0
2026-04-14 17:55:56.438905,625572,1609506850094300,4450063869,0.95648,-0.462624,-0.056608,-16.24,20.475,13.60625,-27.744001,-16.336,-7.224001,concentric,5,3.0,33010.0,205900.0,74432.0,208822.0,82945.0
2026-04-14 17:55:56.451150,625573,1609506850108841,4450078801,0.9272,-0.279136,0.015616,-6.78125,28.315,15.70625,-26.912,-15.768001,-7.616,concentric,5,3.0,33010.0,205900.0,74432.0,208822.0,82945.0
2026-04-14 17:55:56.458614,625574,1609506850117792,4450087494,0.9272,-0.279136,0.015616,16.205,31.64875,16.59875,-26.912,-15.768001,-7.616,concentric,5,3.0,33010.0,205900.0,74432.0,208822.0,82945.0
2026-04-14 17:55:56.493848,625575,1609506850132285,4450102419,1.081408,-0.10736,-0.021472,29.81125,35.21875,15.2425,-27.672,-15.720001,-8.352,concentric,5,3.0,33010.0,205900.0,74432.0,208822.0,82945.0
2026-04-14 17:55:56.517715,625576,1609506850141187,4450111089,1.081408,-0.10736,-0.021472,28.07875,37.42375,9.70375,-27.672,-15.720001,-8.352,concentric,5,3.0,33010.0,205900.0,74432.0,208822.0,82945.0
2026-04-14 17:55:56.518445,625577,1609506850155678,4450125965,1.223904,-0.396256,0.122976,17.29,39.66375,4.15625,-28.984001,-15.400001,-7.168,concentric,5,3.0,33010.0,205900.0,74432.0,208822.0,82945.0
2026-04-14 17:55:56.548438,625589,1609506850164671,4450134649,1.223904,-0.396256,0.122976,18.7075,43.12875,1.1725,-28.984001,-15.400001,-7.168,concentric,5,3.0,33966.0,213412.0,75975.0,216046.0,84488.0
2026-04-14 17:55:56.551482,625590,1609506850173628,4450143360,1.167296,-0.337696,0.060512,33.87125,45.57,-3.0275,-28.136002,-15.384001,-7.24,concentric,5,3.0,33966.0,213412.0,75975.0,216046.0,84488.0
2026-04-14 17:55:56.553970,625591,1609506850188389,4450158403,1.065792,-0.255712,0.037088,48.545002,49.39375,-3.0275,-28.176,-15.400001,-5.624,concentric,5,3.0,33966.0,213412.0,75975.0,216046.0,84488.0
2026-04-14 17:55:56.556470,625592,1609506850197445,4450167092,1.065792,-0.255712,0.037088,52.6925,51.66875,-2.91375,-28.176,-15.400001,-5.624,concentric,5,3.0,33966.0,213412.0,75975.0,216046.0,84488.0
2026-04-14 17:55:56.558581,625593,1609506850211996,4450181983,1.124352,-0.193248,0.08784,48.107502,52.3425,-4.99625,-27.992,-14.928,-7.208,concentric,5,3.0,33966.0,213412.0,75975.0,216046.0,84488.0
2026-04-14 17:55:56.561063,625594,1609506850221066,4450190707,1.124352,-0.193248,0.08784,38.47375,54.13625,-8.435,-27.992,-14.928,-7.208,concentric,5,3.0,33966.0,213412.0,75975.0,216046.0,84488.0
2026-04-14 17:55:56.571204,625595,1609506850230015,4450199450,1.23952,-0.411872,-0.003904,28.4725,54.2675,-10.5875,-28.296001,-15.032001,-7.544,concentric,5,3.0,33966.0,213412.0,75975.0,216046.0,84488.0
2026-04-14 17:55:56.587806,625596,1609506850244565,4450214512,1.23952,-0.411872,-0.003904,20.4225,53.01625,-9.75625,-28.296001,-15.032001,-7.544,concentric,5,3.0,33966.0,213412.0,75975.0,216046.0,84488.0
2026-04-14 17:55:56.595378,625597,1609506850253486,4450223193,1.202432,-0.366976,0.005856,19.845,51.30125,-9.1175,-27.816002,-15.440001,-7.824,concentric,5,3.0,33966.0,213412.0,75975.0,216046.0,84488.0
2026-04-14 17:55:56.633882,625608,1609506850268374,4450238159,1.202432,-0.417728,0.138592,22.26875,52.7975,-7.8925,-27.816002,-15.168001,-8.8,concentric,5,3.0,44873.0,247589.0,96770.0,249103.0,107794.0
2026-04-14 17:55:56.636263,625609,1609506850277396,4450246922,1.179008,-0.417728,0.138592,26.17125,55.22125,-4.76875,-27.384,-15.168001,-8.8,concentric,5,3.0,44873.0,247589.0,96770.0,249103.0,107794.0
2026-04-14 17:55:56.638870,625610,1609506850291900,4450261886,1.194624,-0.339648,0.033184,29.32125,54.90625,-1.9425,-27.168001,-15.136001,-7.728,concentric,5,3.0,44873.0,247589.0,96770.0,249103.0,107794.0
2026-04-14 17:55:56.641319,625611,1609506850300898,4450270656,1.194624,-0.339648,0.033184,28.00875,52.22,0.4725,-27.168001,-15.136001,-7.728,eccentric,5,3.0,44873.0,247589.0,96770.0,249103.0,107794.0
2026-04-14 17:55:56.650956,625612,1609506850309851,4450279380,1.24928,-0.3904,0.023424,20.53625,47.85375,1.74125,-27.448002,-15.112,-7.792,eccentric,5,3.0,44873.0,247589.0,96770.0,249103.0,107794.0
2026-04-14 17:55:56.666049,625613,1609506850324353,4450294388,1.24928,-0.3904,0.023424,12.25875,45.701252,4.2175,-27.448002,-15.112,-7.792,eccentric,5,3.0,44873.0,247589.0,96770.0,249103.0,107794.0
2026-04-14 17:55:56.678131,625614,1609506850333382,4450303104,1.077504,-0.324032,0.072224,9.948751,46.15625,6.4575,-28.504002,-14.512001,-7.128,eccentric,5,3.0,44873.0,247589.0,96770.0,249103.0,107794.0
2026-04-14 17:55:56.689906,625615,1609506850347903,4450318048,1.077504,-0.324032,0.072224,15.6625,48.22125,1.25125,-28.504002,-14.512001,-7.128,eccentric,5,3.0,44873.0,247589.0,96770.0,249103.0,107794.0
2026-04-14 17:55:56.700680,625616,1609506850357033,4450326752,1.124352,-0.353312,-0.140544,19.075,47.670002,-4.3925,-27.552002,-14.912001,-8.184,eccentric,5,3.0,44873.0,247589.0,96770.0,249103.0,107794.0
2026-04-14 17:55:56.737462,625627,1609506850365971,4450335466,1.124352,-0.353312,-0.140544,18.235,46.06,-2.59,-27.552002,-14.912001,-8.184,eccentric,5,3.0,50703.0,273108.0,106805.0,270156.0,118775.0
2026-04-14 17:55:56.740037,625628,1609506850380632,4450350380,1.147776,-0.327936,0.119072,19.985,42.44625,-1.12875,-27.112001,-14.52,-7.248,eccentric,5,3.0,50703.0,273108.0,106805.0,270156.0,118775.0
2026-04-14 17:55:56.742479,625629,1609506850389545,4450359093,1.081408,-0.368928,-0.042944,22.4,39.97875,-2.79125,-28.176,-14.440001,-5.968,eccentric,5,3.0,50703.0,273108.0,106805.0,270156.0,118775.0
2026-04-14 17:55:56.744845,625630,1609506850404082,4450374051,1.081408,-0.368928,-0.042944,25.52375,35.09625,0.35875,-28.176,-14.440001,-5.968,eccentric,5,3.0,50703.0,273108.0,106805.0,270156.0,118775.0
2026-04-14 17:55:56.755025,625631,1609506850413015,4450382816,1.163392,-0.402112,-0.003904,24.33375,31.64875,2.47625,-28.216002,-14.256001,-5.72,eccentric,5,3.0,50703.0,273108.0,106805.0,270156.0,118775.0
2026-04-14 17:55:56.771238,625632,1609506850427538,4450397718,1.163392,-0.402112,-0.003904,22.0325,28.428751,4.24375,-28.216002,-14.256001,-5.72,eccentric,5,3.0,50703.0,273108.0,106805.0,270156.0,118775.0
2026-04-14 17:55:56.777450,625633,1609506850436518,4450406435,1.097024,-0.343552,0.103456,23.30125,24.92,7.595,-27.952002,-13.888001,-5.56,eccentric,5,3.0,50703.0,273108.0,106805.0,270156.0,118775.0
2026-04-14 17:55:56.786150,625634,1609506850445571,4450415144,1.097024,-0.343552,0.103456,23.975,21.6125,7.16625,-27.952002,-13.888001,-5.56,eccentric,5,3.0,50703.0,273108.0,106805.0,270156.0,118775.0
2026-04-14 17:55:56.801005,625635,1609506850460072,4450430078,1.067744,-0.378688,0.046848,26.32875,16.66,8.5925,-28.408,-14.216001,-6.896,eccentric,5,3.0,50703.0,273108.0,106805.0,270156.0,118775.0
2026-04-14 17:55:56.860012,625646,1609506850469695,4450438842,1.067744,-0.378688,0.037088,20.6325,12.7225,8.37375,-28.408,-14.048,-7.416,eccentric,5,3.0,54396.0,283822.0,112489.0,278706.0,124587.0
2026-04-14 17:55:56.872304,625647,1609506850484243,4450453742,1.145824,-0.425536,0.037088,12.20625,7.595,9.91375,-27.528002,-14.048,-7.416,eccentric,5,3.0,54396.0,283822.0,112489.0,278706.0,124587.0
2026-04-14 17:55:56.874748,625648,1609506850493240,4450462427,1.056032,-0.327936,0.206912,12.29375,2.44125,9.5725,-27.336,-14.032001,-7.104001,eccentric,5,3.0,54396.0,283822.0,112489.0,278706.0,124587.0
2026-04-14 17:55:56.877188,625649,1609506850502184,4450471330,1.056032,-0.327936,0.206912,10.73625,-1.25125,7.84,-27.336,-14.032001,-7.104001,eccentric,5,3.0,54396.0,283822.0,112489.0,278706.0,124587.0
2026-04-14 17:55:56.905110,625650,1609506850516777,4450486218,1.030656,-0.374784,0.167872,6.51,-5.53,9.02125,-27.608002,-14.040001,-7.392,eccentric,5,3.0,54396.0,283822.0,112489.0,278706.0,124587.0
2026-04-14 17:55:56.920147,625651,1609506850525752,4450494915,1.030656,-0.374784,0.167872,4.20875,-9.72125,9.5375,-27.608002,-14.040001,-7.392,eccentric,5,3.0,54396.0,283822.0,112489.0,278706.0,124587.0
2026-04-14 17:55:56.922657,625652,1609506850540402,4450509801,1.046272,-0.366976,0.179584,1.785,-13.8075,8.9775,-27.392002,-13.784,-7.344,eccentric,5,3.0,54396.0,283822.0,112489.0,278706.0,124587.0
2026-04-14 17:55:56.924818,625653,1609506850549337,4450518479,1.046272,-0.366976,0.179584,-0.6125,-16.31,8.26,-27.392002,-13.784,-7.344,eccentric,5,3.0,54396.0,283822.0,112489.0,278706.0,124587.0
2026-04-14 17:55:56.927723,625654,1609506850558222,4450527292,0.993568,-0.36112,0.17568,0.16625,-20.055,6.5275,-27.856,-13.72,-7.960001,eccentric,5,3.0,54396.0,283822.0,112489.0,278706.0,124587.0
2026-04-14 17:55:56.957763,625665,1609506850572829,4450542301,1.009184,-0.335744,0.222528,3.9375,-23.40625,5.635,-27.992,-13.568001,-7.864,eccentric,5,3.0,48242.0,271541.0,102204.0,267674.0,113779.0
2026-04-14 17:55:56.959992,625666,1609506850581754,4450550981,1.009184,-0.335744,0.222528,0.945,-24.928751,4.3575,-27.992,-13.568001,-7.864,eccentric,5,3.0,48242.0,271541.0,102204.0,267674.0,113779.0
2026-04-14 17:55:56.962698,625667,1609506850596399,4450565885,0.989664,-0.474336,0.031232,-1.9425,-25.34,4.795,-27.864002,-14.128,-7.728,eccentric,5,3.0,48242.0,271541.0,102204.0,267674.0,113779.0
2026-04-14 17:55:56.965321,625668,1609506850605385,4450574608,0.989664,-0.474336,0.031232,2.26625,-26.9675,3.96375,-27.864002,-14.128,-7.728,eccentric,5,3.0,48242.0,271541.0,102204.0,267674.0,113779.0
2026-04-14 17:55:56.967772,625669,1609506850619997,4450589642,0.919392,-0.345504,0.017568,7.90125,-28.735,4.85625,-28.032001,-13.464001,-7.016,eccentric,5,3.0,48242.0,271541.0,102204.0,267674.0,113779.0
2026-04-14 17:55:56.970280,625670,1609506850629136,4450598336,0.919392,-0.345504,0.017568,8.89,-31.19375,4.94375,-28.032001,-13.464001,-7.016,eccentric,5,3.0,48242.0,271541.0,102204.0,267674.0,113779.0
2026-04-14 17:55:56.980285,625671,1609506850638249,4450607031,0.977952,-0.368928,-0.062464,2.8175,-32.5325,4.165,-28.472002,-13.416,-7.024,eccentric,5,3.0,48242.0,271541.0,102204.0,267674.0,113779.0
2026-04-14 17:55:56.993559,625672,1609506850653148,4450621975,0.970144,-0.40016,-0.05856,-3.78,-33.495,3.43875,-27.768002,-13.512001,-8.496,eccentric,5,3.0,48242.0,271541.0,102204.0,267674.0,113779.0
2026-04-14 17:55:57.003545,625673,1609506850662568,4450632767,0.970144,-0.40016,-0.05856,-9.93125,-34.8775,3.1675,-27.768002,-13.512001,-8.496,eccentric,5,3.0,48242.0,271541.0,102204.0,267674.0,113779.0
2026-04-14 17:55:57.033738,625684,1609506850672129,4450641567,1.067744,-0.454816,0.128832,-11.34875,-35.5075,5.145,-27.936,-13.688001,-8.136001,eccentric,5,3.0,46398.0,256156.0,99005.0,254688.0,109994.0
2026-04-14 17:55:57.036136,625685,1609506850686750,4450656537,1.067744,-0.454816,0.128832,-8.6975,-36.84625,6.7025,-27.936,-13.688001,-8.136001,eccentric,5,3.0,46398.0,256156.0,99005.0,254688.0,109994.0
2026-04-14 17:55:57.041150,625686,1609506850695851,4450665240,1.059936,-0.427488,0.042944,-4.57625,-38.45625,8.198751,-27.824001,-13.776001,-8.824,eccentric,5,3.0,46398.0,256156.0,99005.0,254688.0,109994.0
2026-04-14 17:55:57.051201,625687,1609506850710444,4450680196,1.059936,-0.427488,-0.025376,-4.3225,-39.4975,9.26625,-27.824001,-13.776001,-8.824,eccentric,5,3.0,46398.0,256156.0,99005.0,254688.0,109994.0
2026-04-14 17:55:57.061000,625688,1609506850719499,4450688900,1.138016,-0.392352,-0.025376,-8.58375,-40.71375,9.17875,-28.560001,-13.288001,-7.256001,eccentric,5,3.0,46398.0,256156.0,99005.0,254688.0,109994.0
2026-04-14 17:55:57.071283,625689,1609506850728526,4450697583,1.138016,-0.392352,-0.025376,-17.7975,-41.16875,12.78375,-28.560001,-13.288001,-7.256001,eccentric,5,3.0,46398.0,256156.0,99005.0,254688.0,109994.0
2026-04-14 17:55:57.083588,625690,1609506850743111,4450712586,1.048224,-0.445056,-0.062464,-25.48,-39.10375,11.165,-28.304,-13.984,-9.192,eccentric,5,3.0,46398.0,256156.0,99005.0,254688.0,109994.0
2026-04-14 17:55:57.093588,625691,1609506850752060,4450721292,1.09312,-0.474336,0.105408,-25.26125,-37.45875,8.09375,-28.232002,-13.52,-11.096001,eccentric,5,3.0,46398.0,256156.0,99005.0,254688.0,109994.0
2026-04-14 17:55:57.107373,625692,1609506850766581,4450736444,1.09312,-0.474336,0.105408,-15.98625,-37.8875,11.43625,-28.232002,-13.52,-11.096001,eccentric,5,3.0,46398.0,256156.0,99005.0,254688.0,109994.0
2026-04-14 17:55:57.136244,625703,1609506850775575,4450745234,1.100928,-0.388448,0.072224,-4.9525,-38.57875,13.1425,-28.088001,-13.464001,-9.664001,eccentric,5,3.0,43619.0,238450.0,94577.0,239080.0,104713.0
2026-04-14 17:55:57.138748,625704,1609506850784588,4450753982,1.100928,-0.388448,0.072224,1.085,-38.85875,12.85375,-28.088001,-13.464001,-9.664001,eccentric,5,3.0,43619.0,238450.0,94577.0,239080.0,104713.0
2026-04-14 17:55:57.141225,625705,1609506850799127,4450768998,1.069696,-0.324032,0.060512,-2.415,-38.115,11.82125,-28.152,-13.376,-9.424001,eccentric,5,3.0,43619.0,238450.0,94577.0,239080.0,104713.0
2026-04-14 17:55:57.151241,625706,1609506850808100,4450777720,1.069696,-0.324032,0.060512,-11.375,-38.47375,11.27,-28.152,-13.376,-9.424001,eccentric,5,3.0,43619.0,238450.0,94577.0,239080.0,104713.0
2026-04-14 17:55:57.163740,625707,1609506850822579,4450792666,1.098976,-0.386496,-0.050752,-19.495,-39.3925,15.33875,-28.600002,-12.808001,-8.96,eccentric,5,3.0,43619.0,238450.0,94577.0,239080.0,104713.0
2026-04-14 17:55:57.175527,625708,1609506850831527,4450801363,1.098976,-0.421632,-0.115168,-25.0775,-36.365,12.4775,-28.600002,-12.808001,-11.008,eccentric,5,3.0,43619.0,238450.0,94577.0,239080.0,104713.0
2026-04-14 17:55:57.188661,625709,1609506850846082,4450816269,1.022848,-0.421632,-0.115168,-19.76625,-38.59625,11.9875,-29.024002,-13.392,-11.088,eccentric,5,3.0,43619.0,238450.0,94577.0,239080.0,104713.0
2026-04-14 17:55:57.196108,625710,1609506850855021,4450824996,0.944768,-0.38064,-0.042944,-16.35375,-35.02625,14.455,-28.656002,-13.136001,-10.288,eccentric,5,3.0,43619.0,238450.0,94577.0,239080.0,104713.0
2026-04-14 17:55:57.228504,625711,1609506850864019,4450833699,0.944768,-0.38064,-0.042944,-17.272501,-33.46,9.54625,-28.656002,-13.136001,-10.288,eccentric,5,3.0,43619.0,238450.0,94577.0,239080.0,104713.0
