pc_time,serial_num,sensor_ts,host_ts,ax,ay,az,gx,gy,gz,mx,my,mz,phase,rpe,weight_kg,ppg_a,ppg_b,ppg_c,ppg_d,ppg_e
2026-04-09 22:03:11.950690,162075,1121987611,1121988665,0.804224,-0.271328,0.046848,-2.2925,-6.0025,-4.59375,-23.52,13.200001,23.936,concentric,4,3.0,40108.0,337296.0,87280.0,-110.0,-141.0
2026-04-09 22:03:11.954250,162076,1122002122,1122003582,0.808128,-0.25376,0.027328,-1.86375,-5.85375,-5.25,-23.12,12.696001,22.232,concentric,4,3.0,40108.0,337296.0,87280.0,-110.0,-141.0
2026-04-09 22:03:11.956693,162077,1122011059,1122012285,0.808128,-0.25376,0.027328,0.9625,-6.11625,-7.30625,-23.12,12.696001,22.232,concentric,4,3.0,40108.0,337296.0,87280.0,-110.0,-141.0
2026-04-09 22:03:11.961668,162078,1122019930,1122021028,0.784704,-0.294752,0.023424,3.77125,-7.245,-8.30375,-24.616001,12.960001,24.240002,concentric,4,3.0,40108.0,337296.0,87280.0,-110.0,-141.0
2026-04-09 22:03:12.071779,162088,1122034473,1122035991,0.784704,-0.294752,0.023424,8.75,-8.07625,-7.1575,-24.616001,12.960001,24.240002,concentric,4,3.0,40159.0,335415.0,86035.0,-118.0,-131.0
2026-04-09 22:03:12.074229,162089,1122043390,1122044731,0.747616,-0.290848,0.0488,12.285,-9.52,-3.8675,-22.976002,13.208,23.328001,concentric,4,3.0,40159.0,335415.0,86035.0,-118.0,-131.0
2026-04-09 22:03:12.076690,162090,1122052308,1122053450,0.747616,-0.290848,0.0488,9.35375,-8.9075,0.2975,-22.976002,13.208,23.328001,concentric,4,3.0,40159.0,335415.0,86035.0,-118.0,-131.0
2026-04-09 22:03:12.079191,162091,1122061281,1122062134,0.710528,-0.284992,0.011712,4.97,-8.5925,4.6725,-22.928001,12.992001,22.184002,concentric,4,3.0,40159.0,335415.0,86035.0,-118.0,-131.0
2026-04-09 22:03:12.081740,162092,1122075765,1122077050,0.710528,-0.284992,0.011712,2.1875,-9.8,8.89,-22.928001,12.992001,22.184002,concentric,4,3.0,40159.0,335415.0,86035.0,-118.0,-131.0
2026-04-09 22:03:12.084159,162093,1122084675,1122085771,0.698816,-0.255712,0.013664,1.58375,-11.68125,12.06625,-23.016,13.376,20.84,concentric,4,3.0,40159.0,335415.0,86035.0,-118.0,-131.0
2026-04-09 22:03:12.086696,162094,1122093617,1122094467,0.698816,-0.255712,0.013664,3.1675,-13.7725,14.5775,-23.016,13.376,20.84,concentric,4,3.0,40159.0,335415.0,86035.0,-118.0,-131.0
2026-04-09 22:03:12.089198,162095,1122108131,1122109352,0.70272,-0.25376,0.03904,3.89375,-14.6125,16.38,-22.576,13.400001,22.016,concentric,4,3.0,40159.0,335415.0,86035.0,-118.0,-131.0
2026-04-09 22:03:12.091775,162096,1122117022,1122118075,0.70272,-0.251808,0.0488,3.29,-14.48125,17.0625,-22.576,13.400001,22.016,concentric,4,3.0,40159.0,335415.0,86035.0,-118.0,-131.0
2026-04-09 22:03:12.094202,162097,1122125992,1122126830,0.6832,-0.251808,0.0488,2.24875,-14.595,19.1625,-22.816002,13.864,22.320002,concentric,4,3.0,40159.0,335415.0,86035.0,-118.0,-131.0
2026-04-09 22:03:12.125514,162108,1122140536,1122141848,0.696864,-0.335744,0.005856,0.53375,-14.77875,22.05,-22.880001,13.696001,22.080002,concentric,4,3.0,40276.0,338845.0,88539.0,-96.0,-146.0
2026-04-09 22:03:12.127865,162109,1122149527,1122150622,0.696864,-0.335744,0.005856,-4.22625,-15.65375,23.75625,-22.880001,13.696001,22.080002,concentric,4,3.0,40276.0,338845.0,88539.0,-96.0,-146.0
2026-04-09 22:03:12.130402,162110,1122158481,1122159414,0.714432,-0.261568,0.011712,-8.88125,-16.59875,26.04875,-22.176,14.360001,21.36,concentric,4,3.0,40276.0,338845.0,88539.0,-96.0,-146.0
2026-04-09 22:03:12.132956,162111,1122172991,1122174356,0.714432,-0.261568,0.011712,-5.29375,-17.928751,29.11125,-22.176,14.360001,21.36,concentric,4,3.0,40276.0,338845.0,88539.0,-96.0,-146.0
2026-04-09 22:03:12.135511,162112,1122181970,1122183084,0.706624,-0.290848,0.064416,-5.3375,-18.0775,29.02375,-22.056002,14.768001,21.720001,concentric,4,3.0,40276.0,338845.0,88539.0,-96.0,-146.0
2026-04-09 22:03:12.137964,162113,1122190925,1122191799,0.706624,-0.290848,0.064416,-8.04125,-16.94,28.595,-22.056002,14.768001,21.720001,concentric,4,3.0,40276.0,338845.0,88539.0,-96.0,-146.0
2026-04-09 22:03:12.141725,162114,1122199843,1122200500,0.706624,-0.259616,0.025376,-6.95625,-16.16125,30.3275,-21.936,14.968,21.616001,concentric,4,3.0,40276.0,338845.0,88539.0,-96.0,-146.0
2026-04-09 22:03:12.172868,162115,1122214664,1122215415,0.706624,-0.259616,0.025376,-7.665,-16.1,29.67125,-21.936,14.968,21.616001,concentric,4,3.0,40276.0,338845.0,88539.0,-96.0,-146.0
2026-04-09 22:03:12.177321,162116,1122224092,1122226182,0.694912,-0.31232,-0.007808,-9.03875,-17.07125,29.47,-20.480001,14.52,20.984001,concentric,4,3.0,40276.0,338845.0,88539.0,-96.0,-146.0
2026-04-09 22:03:12.201574,162126,1122233298,1122234971,0.694912,-0.31232,-0.007808,-10.29,-17.68375,31.24625,-20.480001,14.52,20.984001,concentric,4,3.0,40274.0,340117.0,89447.0,-83.0,-136.0
2026-04-09 22:03:12.203019,162127,1122242231,1122243682,0.808128,-0.42944,-0.070272,-9.275,-18.40125,32.61125,-20.728,15.288001,21.168001,concentric,4,3.0,40274.0,340117.0,89447.0,-83.0,-136.0
2026-04-09 22:03:12.207229,162128,1122256769,1122258648,0.808128,-0.42944,-0.070272,-12.1975,-16.5375,31.0275,-20.728,15.288001,21.168001,concentric,4,3.0,40274.0,340117.0,89447.0,-83.0,-136.0
2026-04-09 22:03:12.209759,162129,1122265772,1122267404,0.792512,-0.191296,0.093696,-12.32,-11.97875,32.095,-21.176,15.568001,20.464,concentric,4,3.0,40274.0,340117.0,89447.0,-83.0,-136.0
2026-04-09 22:03:12.239340,162130,1122274762,1122276123,0.792512,-0.191296,0.093696,-12.36375,-7.49,31.33375,-21.176,15.568001,20.464,concentric,4,3.0,40274.0,340117.0,89447.0,-83.0,-136.0
2026-04-09 22:03:12.241736,162131,1122289278,1122291001,0.76128,-0.294752,0.025376,-20.1425,-3.605,27.88625,-20.016,15.584001,20.984001,concentric,4,3.0,40274.0,340117.0,89447.0,-83.0,-136.0
2026-04-09 22:03:12.245030,162132,1122298223,1122299657,0.81008,-0.286944,-0.13664,-20.34375,-3.5175,28.04375,-20.016,15.896001,22.024,concentric,4,3.0,40274.0,340117.0,89447.0,-83.0,-136.0
2026-04-09 22:03:12.250859,162133,1122307162,1122308358,0.81008,-0.286944,-0.13664,-8.3825,-6.32625,28.07875,-19.848001,15.896001,22.024,concentric,4,3.0,40274.0,340117.0,89447.0,-83.0,-136.0
2026-04-09 22:03:12.270060,162134,1122321681,1122323256,0.81984,-0.40016,0.011712,-0.1225,-8.6275,27.5975,-20.400002,16.192001,19.784,concentric,4,3.0,40274.0,340117.0,89447.0,-83.0,-136.0
2026-04-09 22:03:12.328915,162144,1122331017,1122332324,0.81984,-0.40016,0.011712,-8.0325,-7.21,25.48,-20.400002,16.192001,19.784,concentric,4,3.0,40337.0,340034.0,89500.0,-94.0,-132.0
2026-04-09 22:03:12.330481,162145,1122340022,1122341169,0.757376,-0.257664,0.115168,-14.455,-4.515,25.59375,-20.240002,16.168001,19.536001,concentric,4,3.0,40337.0,340034.0,89500.0,-94.0,-132.0
2026-04-09 22:03:12.334720,162146,1122348996,1122349885,0.757376,-0.257664,0.115168,-12.29375,-2.1175,25.795,-20.240002,16.168001,19.536001,concentric,4,3.0,40337.0,340034.0,89500.0,-94.0,-132.0
2026-04-09 22:03:12.336496,162147,1122363485,1122364838,0.694912,-0.286944,0.037088,-9.2225,0.00875,23.8525,-18.984001,16.512001,19.296001,concentric,4,3.0,40337.0,340034.0,89500.0,-94.0,-132.0
2026-04-09 22:03:12.338030,162148,1122372365,1122373513,0.694912,-0.286944,0.037088,-9.12625,0.35875,24.85,-18.984001,16.512001,19.296001,concentric,4,3.0,40337.0,340034.0,89500.0,-94.0,-132.0
2026-04-09 22:03:12.341470,162149,1122381285,1122382194,0.651968,-0.300608,-0.005856,-4.24375,-1.23375,27.772501,-18.712002,16.352001,18.872002,concentric,4,3.0,40337.0,340034.0,89500.0,-94.0,-132.0
2026-04-09 22:03:12.343004,162150,1122395881,1122397170,0.651968,-0.300608,-0.005856,1.47,-2.84375,30.42375,-18.712002,16.352001,18.872002,concentric,4,3.0,40337.0,340034.0,89500.0,-94.0,-132.0
2026-04-09 22:03:12.348671,162151,1122404811,1122405892,0.745664,-0.503616,-0.066368,-7.0875,-0.07875,30.616251,-19.320002,16.28,19.52,concentric,4,3.0,40337.0,340034.0,89500.0,-94.0,-132.0
2026-04-09 22:03:12.376915,162152,1122413773,1122414604,0.745664,-0.503616,-0.066368,-26.215,4.20875,27.01125,-19.320002,16.28,19.52,concentric,4,3.0,40337.0,340034.0,89500.0,-94.0,-132.0
2026-04-09 22:03:12.381487,162153,1122428249,1122429557,0.665632,-0.20496,0.083936,-26.87125,5.99375,28.98,-18.096,16.584002,18.44,concentric,4,3.0,40337.0,340034.0,89500.0,-94.0,-132.0
2026-04-09 22:03:12.416001,162164,1122437170,1122438327,0.665632,-0.20496,0.083936,-16.73,6.02,28.83125,-18.096,16.584002,18.44,concentric,4,3.0,40344.0,341594.0,90610.0,-63.0,-132.0
2026-04-09 22:03:12.417683,162165,1122446110,1122447054,0.6832,-0.290848,0.005856,-12.5825,4.1125,24.84125,-18.152,17.12,18.272001,concentric,4,3.0,40344.0,341594.0,90610.0,-63.0,-132.0
2026-04-09 22:03:12.419252,162166,1122460639,1122462036,0.681248,-0.4392,-0.00976,-10.2725,1.04125,24.98125,-18.144001,17.656,18.632,concentric,4,3.0,40344.0,341594.0,90610.0,-63.0,-132.0
2026-04-09 22:03:12.423808,162167,1122469560,1122470731,0.681248,-0.4392,-0.00976,-4.31375,-2.05625,27.2125,-18.144001,17.656,18.632,concentric,4,3.0,40344.0,341594.0,90610.0,-63.0,-132.0
2026-04-09 22:03:12.426409,162168,1122478474,1122479421,0.681248,-0.509472,0.011712,-5.4425,-1.37375,29.54875,-18.144001,17.656,18.632,concentric,4,3.0,40344.0,341594.0,90610.0,-63.0,-132.0
2026-04-09 22:03:12.432086,162169,1122487381,1122488132,0.655872,-0.509472,0.011712,-18.795,1.75,30.2925,-18.800001,17.08,21.152,concentric,4,3.0,40344.0,341594.0,90610.0,-63.0,-132.0
2026-04-09 22:03:12.460760,162170,1122502292,1122503052,0.681248,-0.349408,0.035136,-28.27125,6.02,31.61375,-18.224,16.808,17.112001,concentric,4,3.0,40344.0,341594.0,90610.0,-63.0,-132.0
2026-04-09 22:03:12.465171,162171,1122511644,1122513820,0.681248,-0.349408,0.035136,-29.19875,8.93375,34.0725,-18.224,16.808,17.112001,concentric,4,3.0,40344.0,341594.0,90610.0,-63.0,-132.0
2026-04-09 22:03:12.466765,162172,1122520559,1122522507,0.685152,-0.33184,-0.001952,-32.6025,9.12625,34.0725,-17.648,17.248001,16.432001,concentric,4,3.0,40344.0,341594.0,90610.0,-63.0,-132.0
2026-04-09 22:03:12.495998,162182,1122535235,1122535775,0.685152,-0.33184,-0.001952,-27.755001,8.225,34.62375,-17.648,17.248001,16.432001,concentric,4,3.0,40429.0,343520.0,92077.0,-42.0,-141.0
2026-04-09 22:03:12.497697,162183,1122544658,1122546529,0.71248,-0.52704,-0.093696,-22.42625,6.0025,34.06375,-17.944,17.68,18.032001,concentric,4,3.0,40429.0,343520.0,92077.0,-42.0,-141.0
2026-04-09 22:03:12.499588,162184,1122553587,1122555233,0.71248,-0.52704,-0.093696,-25.20875,4.90875,31.42125,-17.944,17.68,18.032001,concentric,4,3.0,40429.0,343520.0,92077.0,-42.0,-141.0
2026-04-09 22:03:12.507643,162185,1122562554,1122563953,0.691008,-0.491904,0.040992,-29.12,6.0375,28.2975,-17.904001,17.888,17.576,concentric,4,3.0,40429.0,343520.0,92077.0,-42.0,-141.0
2026-04-09 22:03:12.535662,162186,1122577028,1122578899,0.691008,-0.491904,0.040992,-30.1175,7.1225,27.44,-17.904001,17.888,17.576,concentric,4,3.0,40429.0,343520.0,92077.0,-42.0,-141.0
2026-04-09 22:03:12.540150,162187,1122585923,1122587583,0.651968,-0.491904,0.080032,-30.7825,8.925,28.21875,-17.272001,17.984001,16.248001,concentric,4,3.0,40429.0,343520.0,92077.0,-42.0,-141.0
2026-04-09 22:03:12.541684,162188,1122594878,1122596285,0.651968,-0.491904,0.080032,-29.8725,10.66625,27.4575,-17.272001,17.984001,16.248001,concentric,4,3.0,40429.0,343520.0,92077.0,-42.0,-141.0
2026-04-09 22:03:12.572774,162189,1122609381,1122611190,0.737856,-0.513376,-0.169824,-23.80875,11.76875,27.37,-17.088001,18.36,15.312,concentric,4,3.0,40429.0,343520.0,92077.0,-42.0,-141.0
2026-04-09 22:03:12.577258,162190,1122618294,1122619912,0.737856,-0.513376,-0.169824,-18.40125,12.50375,26.81,-17.088001,18.36,15.312,concentric,4,3.0,40429.0,343520.0,92077.0,-42.0,-141.0
2026-04-09 22:03:12.578923,162191,1122627205,1122628654,0.77104,-0.464576,-0.101504,-28.8225,14.44625,19.46875,-17.2,17.808,15.712001,concentric,4,3.0,40429.0,343520.0,92077.0,-42.0,-141.0
2026-04-09 22:03:12.637745,162201,1122641885,1122643596,0.757376,-0.636352,0.00976,-31.473751,15.02375,14.49875,-17.104,17.816,15.280001,concentric,4,3.0,40120.0,338568.0,88200.0,-105.0,-135.0
2026-04-09 22:03:12.639415,162202,1122650908,1122652334,0.757376,-0.636352,0.00976,-24.00125,15.14625,8.68,-17.104,17.816,15.280001,concentric,4,3.0,40120.0,338568.0,88200.0,-105.0,-135.0
2026-04-09 22:03:12.643551,162203,1122659809,1122661059,0.788608,-0.5368,-0.015616,-14.385,14.1225,4.13875,-17.216002,17.672,16.584002,concentric,4,3.0,40120.0,338568.0,88200.0,-105.0,-135.0
2026-04-09 22:03:12.645193,162204,1122668712,1122669794,0.788608,-0.5368,-0.015616,1.6625,13.055,3.0625,-17.216002,17.672,16.584002,concentric,4,3.0,40120.0,338568.0,88200.0,-105.0,-135.0
2026-04-09 22:03:12.646786,162205,1122683244,1122684676,0.786656,-0.542656,-0.00976,14.04375,13.545,1.05875,-16.968,18.176,15.536001,concentric,4,3.0,40120.0,338568.0,88200.0,-105.0,-135.0
2026-04-09 22:03:12.649267,162206,1122692163,1122693370,0.786656,-0.542656,-0.00976,21.93625,13.93,-1.6625,-16.968,18.176,15.536001,concentric,4,3.0,40120.0,338568.0,88200.0,-105.0,-135.0
2026-04-09 22:03:12.652527,162207,1122701110,1122702081,0.757376,-0.564128,0.044896,16.8,15.26,-2.93125,-18.456001,18.856,16.168001,concentric,4,3.0,40120.0,338568.0,88200.0,-105.0,-135.0
2026-04-09 22:03:12.660326,162208,1122715616,1122716994,0.757376,-0.564128,0.044896,10.47375,17.1675,-6.20375,-18.456001,18.856,16.168001,concentric,4,3.0,40120.0,338568.0,88200.0,-105.0,-135.0
2026-04-09 22:03:12.672874,162209,1122724566,1122725710,0.769088,-0.495808,0.074176,15.47875,18.3575,-8.54875,-18.128,18.432001,15.544001,concentric,4,3.0,40120.0,338568.0,88200.0,-105.0,-135.0
2026-04-09 22:03:12.705991,162220,1122733552,1122734782,0.769088,-0.495808,0.074176,19.08375,19.145,-12.55625,-18.128,18.432001,15.544001,concentric,4,3.0,40285.0,339337.0,88929.0,-94.0,-129.0
2026-04-09 22:03:12.707718,162221,1122748136,1122749741,0.81008,-0.532896,0.023424,19.2675,18.45375,-13.55375,-18.744001,18.28,15.960001,concentric,4,3.0,40285.0,339337.0,88929.0,-94.0,-129.0
2026-04-09 22:03:12.710183,162222,1122757060,1122758498,0.81008,-0.532896,0.023424,21.0525,17.47375,-12.1275,-18.744001,18.28,15.960001,concentric,4,3.0,40285.0,339337.0,88929.0,-94.0,-129.0
2026-04-09 22:03:12.711772,162223,1122766009,1122767192,0.798368,-0.593408,0.05856,22.7675,16.56375,-11.50625,-18.152,18.960001,16.240002,concentric,4,3.0,40285.0,339337.0,88929.0,-94.0,-129.0
2026-04-09 22:03:12.718423,162224,1122774952,1122775906,0.798368,-0.593408,0.05856,24.9025,17.64,-12.3375,-18.152,18.960001,16.240002,concentric,4,3.0,40285.0,339337.0,88929.0,-94.0,-129.0
2026-04-09 22:03:12.747648,162225,1122789945,1122790857,0.80032,-0.46848,0.121024,27.78125,18.34,-13.41375,-19.0,18.44,16.544,concentric,4,3.0,40285.0,339337.0,88929.0,-94.0,-129.0
2026-04-09 22:03:12.752863,162226,1122798886,1122799585,0.80032,-0.46848,0.121024,26.4775,18.865,-15.47,-19.0,18.44,16.544,concentric,4,3.0,40285.0,339337.0,88929.0,-94.0,-129.0
2026-04-09 22:03:12.752981,162227,1122808187,1122810422,0.804224,-0.562176,0.056608,21.35875,19.18875,-18.83875,-19.512001,18.472,14.768001,concentric,4,3.0,40285.0,339337.0,88929.0,-94.0,-129.0
2026-04-09 22:03:12.784175,162228,1122822682,1122823290,0.86864,-0.57584,0.023424,18.41,19.36375,-21.5425,-20.352001,18.800001,16.416,concentric,4,3.0,40285.0,339337.0,88929.0,-94.0,-129.0
2026-04-09 22:03:12.820682,162238,1122831930,1122834053,0.86864,-0.57584,0.023424,21.11375,17.73625,-19.97625,-20.352001,18.800001,16.416,concentric,4,3.0,40252.0,340165.0,89469.0,-91.0,-150.0
2026-04-09 22:03:12.825196,162239,1122840916,1122842809,0.89792,-0.577792,0.040992,16.7475,16.66875,-20.23875,-21.344002,19.248001,17.824001,concentric,4,3.0,40252.0,340165.0,89469.0,-91.0,-150.0
2026-04-09 22:03:12.826477,162240,1122849838,1122851604,0.89792,-0.577792,0.040992,7.56875,16.2575,-22.18125,-21.344002,19.248001,17.824001,concentric,4,3.0,40252.0,340165.0,89469.0,-91.0,-150.0
2026-04-09 22:03:12.828232,162241,1122864358,1122866522,0.972096,-0.64416,0.017568,2.79125,13.658751,-20.9125,-20.608002,18.152,16.272001,concentric,4,3.0,40252.0,340165.0,89469.0,-91.0,-150.0
2026-04-09 22:03:12.832231,162242,1122873312,1122875227,0.972096,-0.64416,0.017568,3.675,10.63125,-21.90125,-20.608002,18.152,16.272001,concentric,4,3.0,40252.0,340165.0,89469.0,-91.0,-150.0
2026-04-09 22:03:12.833829,162243,1122882259,1122883938,0.972096,-0.612928,-0.01952,12.88875,6.08125,-22.6975,-20.632002,19.296001,16.576,concentric,4,3.0,40252.0,340165.0,89469.0,-91.0,-150.0
2026-04-09 22:03:12.864155,162244,1122896881,1122898891,0.972096,-0.612928,-0.01952,19.04875,2.54625,-24.115,-20.632002,19.296001,16.576,concentric,4,3.0,40252.0,340165.0,89469.0,-91.0,-150.0
2026-04-09 22:03:12.868562,162245,1122905834,1122907638,0.997472,-0.64416,0.035136,23.0825,-0.13125,-25.2875,-20.800001,18.880001,16.304,concentric,4,3.0,40252.0,340165.0,89469.0,-91.0,-150.0
2026-04-09 22:03:12.870036,162246,1122914826,1122916378,0.997472,-0.64416,0.035136,28.5775,0.25375,-25.57625,-20.800001,18.880001,16.304,concentric,4,3.0,40252.0,340165.0,89469.0,-91.0,-150.0
2026-04-09 22:03:12.873719,162247,1122929345,1122931309,0.974048,-0.628544,0.054656,25.76875,1.6275,-23.1525,-21.2,19.048,16.848001,concentric,4,3.0,40252.0,340165.0,89469.0,-91.0,-150.0
2026-04-09 22:03:12.935259,162257,1122938440,1122940278,0.974048,-0.628544,0.054656,19.01375,3.465,-17.47375,-21.2,19.048,16.848001,concentric,4,3.0,40259.0,338579.0,88377.0,-102.0,-141.0
2026-04-09 22:03:12.936810,162258,1122947483,1122949059,0.968192,-0.667584,0.02928,17.955,5.46,-13.65,-22.392,18.712002,15.704,concentric,4,3.0,40259.0,338579.0,88377.0,-102.0,-141.0
2026-04-09 22:03:12.941017,162259,1122956457,1122957768,0.968192,-0.667584,0.02928,22.12875,5.67875,-12.565,-22.392,18.712002,15.704,concentric,4,3.0,40259.0,338579.0,88377.0,-102.0,-141.0
2026-04-09 22:03:12.942721,162260,1122970970,1122972680,0.931104,-0.618784,0.021472,26.81,5.04,-9.09125,-21.896002,18.992,16.960001,concentric,4,3.0,40259.0,338579.0,88377.0,-102.0,-141.0
2026-04-09 22:03:12.944303,162261,1122979917,1122981383,0.931104,-0.618784,0.021472,27.86,3.9725,-6.79,-21.896002,18.992,16.960001,concentric,4,3.0,40259.0,338579.0,88377.0,-102.0,-141.0
2026-04-09 22:03:12.948485,162262,1122988877,1122990162,0.892064,-0.603168,0.02928,27.265,3.40375,-4.99625,-23.568,19.352001,21.248001,concentric,4,3.0,40259.0,338579.0,88377.0,-102.0,-141.0
2026-04-09 22:03:12.950089,162263,1123003417,1123005126,0.854976,-0.57584,0.013664,23.765,3.22,-3.9375,-21.36,19.264002,17.176,concentric,4,3.0,40259.0,338579.0,88377.0,-102.0,-141.0
2026-04-09 22:03:12.955509,162264,1123012360,1123013855,0.854976,-0.57584,0.013664,21.385,3.3775,-3.3075,-21.36,19.264002,17.176,concentric,4,3.0,40259.0,338579.0,88377.0,-102.0,-141.0
2026-04-09 22:03:12.968422,162265,1123021302,1123022555,0.81984,-0.542656,0.013664,18.9,3.42125,-2.415,-22.304,19.720001,17.960001,concentric,4,3.0,40259.0,338579.0,88377.0,-102.0,-141.0
2026-04-09 22:03:13.025257,162275,1123036279,1123037596,0.81984,-0.542656,0.013664,16.6425,2.8175,-1.68875,-22.304,19.720001,17.960001,concentric,4,3.0,40402.0,339414.0,89142.0,-91.0,-139.0
2026-04-09 22:03:13.027663,162276,1123045305,1123046388,0.778848,-0.54656,-0.005856,14.8575,2.12625,-1.5575,-20.808,19.512001,17.464,concentric,4,3.0,40402.0,339414.0,89142.0,-91.0,-139.0
2026-04-09 22:03:13.029271,162277,1123054261,1123055078,0.778848,-0.54656,-0.005856,14.56,0.69125,-1.07625,-20.808,19.512001,17.464,concentric,4,3.0,40402.0,339414.0,89142.0,-91.0,-139.0
2026-04-09 22:03:13.033495,162278,1123063221,1123063796,0.735904,-0.466528,0.007808,14.65625,0.14,-1.04125,-21.192001,19.68,17.168001,concentric,4,3.0,40402.0,339414.0,89142.0,-91.0,-139.0
2026-04-09 22:03:13.035254,162279,1123077978,1123078923,0.735904,-0.466528,0.007808,10.8675,-0.665,-2.5025,-21.192001,19.68,17.168001,concentric,4,3.0,40402.0,339414.0,89142.0,-91.0,-139.0
2026-04-09 22:03:13.036789,162280,1123086958,1123087664,0.706624,-0.491904,0.017568,7.9275,-0.9275,-4.59375,-21.2,19.264002,17.408,concentric,4,3.0,40402.0,339414.0,89142.0,-91.0,-139.0
2026-04-09 22:03:13.040888,162281,1123096393,1123098485,0.706624,-0.491904,0.017568,7.07875,-1.7675,-6.44,-21.2,19.264002,17.408,concentric,4,3.0,40402.0,339414.0,89142.0,-91.0,-139.0
2026-04-09 22:03:13.050928,162282,1123105348,1123107218,0.69296,-0.474336,0.037088,7.63,-2.5025,-7.805,-21.184002,19.648,17.792002,concentric,4,3.0,40402.0,339414.0,89142.0,-91.0,-139.0
2026-04-09 22:03:13.080966,162283,1123119880,1123122175,0.69296,-0.474336,0.037088,6.6675,-2.82625,-7.83125,-21.184002,19.648,17.792002,concentric,4,3.0,40402.0,339414.0,89142.0,-91.0,-139.0
2026-04-09 22:03:13.084324,162284,1123128813,1123130903,0.718336,-0.474336,0.017568,5.6175,-3.115,-7.7875,-21.2,19.768002,21.832,concentric,4,3.0,40402.0,339414.0,89142.0,-91.0,-139.0
2026-04-09 22:03:13.121754,162295,1123138258,1123139702,0.718336,-0.474336,0.017568,4.41875,-3.75375,-9.37125,-21.2,19.768002,21.832,concentric,4,3.0,40536.0,342486.0,91403.0,-60.0,-137.0
2026-04-09 22:03:13.124270,162296,1123152854,1123154797,0.743712,-0.488,0.023424,4.9,-4.54125,-10.2375,-22.568,19.272001,18.904001,concentric,4,3.0,40536.0,342486.0,91403.0,-60.0,-137.0
2026-04-09 22:03:13.126751,162297,1123161888,1123163556,0.798368,-0.509472,0.050752,5.22375,-5.29375,-11.69,-21.752,19.448002,18.232,concentric,4,3.0,40536.0,342486.0,91403.0,-60.0,-137.0
2026-04-09 22:03:13.129223,162298,1123170911,1123172280,0.798368,-0.509472,0.050752,5.8975,-6.29125,-12.46,-21.752,19.448002,18.232,concentric,4,3.0,40536.0,342486.0,91403.0,-60.0,-137.0
2026-04-09 22:03:13.131757,162299,1123179816,1123180993,0.798368,-0.509472,0.050752,5.4775,-6.5275,-11.9525,-21.752,19.448002,18.232,concentric,4,3.0,40536.0,342486.0,91403.0,-60.0,-137.0
2026-04-09 22:03:13.136746,162300,1123194384,1123196000,0.83936,-0.542656,0.066368,3.56125,-6.18625,-11.375,-22.168001,19.528002,18.552,concentric,4,3.0,40536.0,342486.0,91403.0,-60.0,-137.0
2026-04-09 22:03:13.166952,162301,1123203316,1123204740,0.925248,-0.528992,0.013664,2.5725,-5.6175,-10.465,-21.832,19.224,18.352001,concentric,4,3.0,40536.0,342486.0,91403.0,-60.0,-137.0
2026-04-09 22:03:13.170514,162302,1123212229,1123213426,0.925248,-0.528992,0.013664,3.38625,-4.90875,-10.4125,-21.832,19.224,18.352001,eccentric,4,3.0,40536.0,342486.0,91403.0,-60.0,-137.0
2026-04-09 22:03:13.172987,162303,1123226702,1123228389,0.938912,-0.599264,-0.007808,2.03,-4.19125,-9.70375,-21.36,19.336,17.176,eccentric,4,3.0,40536.0,342486.0,91403.0,-60.0,-137.0
2026-04-09 22:03:13.231798,162313,1123236165,1123237913,0.938912,-0.599264,-0.007808,-0.30625,-4.9175,-8.09375,-21.36,19.336,17.176,eccentric,4,3.0,40528.0,342382.0,91389.0,-54.0,-132.0
2026-04-09 22:03:13.237944,162314,1123245146,1123246714,0.964288,-0.642208,0.02928,-1.25125,-5.38125,-6.81625,-21.616001,19.824001,17.168001,eccentric,4,3.0,40528.0,342382.0,91389.0,-54.0,-132.0
2026-04-09 22:03:13.240446,162315,1123259622,1123261613,0.964288,-0.642208,0.02928,0.07,-6.04625,-4.2,-21.616001,19.824001,17.168001,eccentric,4,3.0,40528.0,342382.0,91389.0,-54.0,-132.0
2026-04-09 22:03:13.242955,162316,1123268607,1123270323,0.954528,-0.612928,0.03904,3.43875,-6.18625,-1.925,-20.896002,19.184,17.232,eccentric,4,3.0,40528.0,342382.0,91389.0,-54.0,-132.0
2026-04-09 22:03:13.245459,162317,1123277532,1123279093,0.954528,-0.612928,0.03904,6.50125,-5.31125,-0.93625,-20.896002,19.184,17.232,eccentric,4,3.0,40528.0,342382.0,91389.0,-54.0,-132.0
2026-04-09 22:03:13.248002,162318,1123286421,1123287764,0.958432,-0.569984,-0.025376,7.105,-4.235,-0.13125,-21.048,19.312,17.36,eccentric,4,3.0,40528.0,342382.0,91389.0,-54.0,-132.0
2026-04-09 22:03:13.250473,162319,1123300984,1123302697,0.958432,-0.569984,-0.025376,2.98375,-4.06875,0.6475,-21.048,19.312,17.36,eccentric,4,3.0,40528.0,342382.0,91389.0,-54.0,-132.0
2026-04-09 22:03:13.253004,162320,1123309903,1123311434,0.964288,-0.612928,-0.021472,-3.28125,-3.82375,1.4175,-20.616001,19.408,17.872002,eccentric,4,3.0,40528.0,342382.0,91389.0,-54.0,-132.0
2026-04-09 22:03:13.260519,162321,1123318885,1123320248,0.964288,-0.612928,-0.021472,-9.91375,-4.01625,2.345,-20.616001,19.408,17.872002,eccentric,4,3.0,40528.0,342382.0,91389.0,-54.0,-132.0
2026-04-09 22:03:13.296958,162322,1123333442,1123335195,0.913536,-0.603168,0.015616,-8.3825,-3.75375,4.31375,-21.128,19.864,18.544,eccentric,4,3.0,40528.0,342382.0,91389.0,-54.0,-132.0
2026-04-09 22:03:13.330523,162332,1123342378,1123343928,0.894016,-0.548512,0.00976,-3.255,-3.05375,6.22125,-20.488,19.368,17.512001,eccentric,4,3.0,40555.0,341666.0,90946.0,-73.0,-127.0
2026-04-09 22:03:13.332985,162333,1123351305,1123352665,0.894016,-0.548512,0.00976,0.385,-1.82875,6.48375,-20.488,19.368,17.512001,eccentric,4,3.0,40555.0,341666.0,90946.0,-73.0,-127.0
2026-04-09 22:03:13.335549,162334,1123365922,1123367682,0.89792,-0.530944,0.0,1.44375,-0.42875,5.95,-19.864,19.544,16.896,eccentric,4,3.0,40555.0,341666.0,90946.0,-73.0,-127.0
2026-04-09 22:03:13.338052,162335,1123374905,1123376440,0.89792,-0.530944,0.0,-1.32125,1.19,5.4425,-19.864,19.544,16.896,eccentric,4,3.0,40555.0,341666.0,90946.0,-73.0,-127.0
2026-04-09 22:03:13.342990,162336,1123383840,1123385131,0.880352,-0.538752,-0.003904,-6.39625,3.36,4.97875,-20.232,19.04,16.832,eccentric,4,3.0,40555.0,341666.0,90946.0,-73.0,-127.0
2026-04-09 22:03:13.345528,162337,1123392783,1123393866,0.880352,-0.538752,-0.003904,-10.5175,4.34875,4.61125,-20.232,19.04,16.832,eccentric,4,3.0,40555.0,341666.0,90946.0,-73.0,-127.0
2026-04-09 22:03:13.348036,162338,1123407275,1123408866,0.845216,-0.52704,0.027328,-13.58,4.2,3.71875,-19.776001,19.12,17.064001,eccentric,4,3.0,40555.0,341666.0,90946.0,-73.0,-127.0
2026-04-09 22:03:13.380054,162339,1123416222,1123417582,0.845216,-0.52704,0.027328,-13.9475,4.2175,3.815,-19.776001,19.12,17.064001,eccentric,4,3.0,40555.0,341666.0,90946.0,-73.0,-127.0
2026-04-09 22:03:13.384043,162340,1123425234,1123426263,0.815936,-0.499712,0.017568,-11.2875,4.2875,2.75625,-19.496,18.624,16.736,eccentric,4,3.0,40555.0,341666.0,90946.0,-73.0,-127.0
2026-04-09 22:03:13.410517,162351,1123439891,1123441246,0.815936,-0.499712,0.017568,-10.4475,4.6375,1.11125,-19.496,18.624,16.736,eccentric,4,3.0,40562.0,341740.0,90957.0,-64.0,-138.0
2026-04-09 22:03:13.413022,162352,1123448906,1123450058,0.798368,-0.523136,0.011712,-11.31375,4.4275,-1.5225,-18.656,19.192001,17.304,eccentric,4,3.0,40562.0,341740.0,90957.0,-64.0,-138.0
2026-04-09 22:03:13.415486,162353,1123457851,1123458777,0.798368,-0.523136,0.011712,-10.68375,5.46,-3.03625,-18.656,19.192001,17.304,eccentric,4,3.0,40562.0,341740.0,90957.0,-64.0,-138.0
2026-04-09 22:03:13.418007,162354,1123472335,1123473690,0.774944,-0.476288,0.025376,-10.08,5.80125,-3.42125,-19.048,18.912,17.952002,eccentric,4,3.0,40562.0,341740.0,90957.0,-64.0,-138.0
2026-04-09 22:03:13.423013,162355,1123481278,1123482457,0.774944,-0.476288,0.025376,-8.2775,6.01125,-4.99625,-19.048,18.912,17.952002,eccentric,4,3.0,40562.0,341740.0,90957.0,-64.0,-138.0
2026-04-09 22:03:13.453161,162356,1123490194,1123491241,0.75152,-0.509472,0.033184,-5.9325,5.4775,-7.4025,-18.744001,18.912,17.696001,eccentric,4,3.0,40562.0,341740.0,90957.0,-64.0,-138.0
2026-04-09 22:03:13.456831,162357,1123504654,1123506141,0.724192,-0.474336,0.040992,-3.36,5.27625,-8.1725,-19.0,18.656,17.288,eccentric,4,3.0,40562.0,341740.0,90957.0,-64.0,-138.0
2026-04-09 22:03:13.459390,162358,1123513587,1123514919,0.724192,-0.474336,0.040992,-1.015,4.6025,-8.4525,-19.0,18.656,17.288,eccentric,4,3.0,40562.0,341740.0,90957.0,-64.0,-138.0
2026-04-09 22:03:13.464508,162359,1123522582,1123523710,0.733952,-0.464576,0.021472,-1.02375,4.64625,-9.905,-19.0,18.968,16.640001,eccentric,4,3.0,40562.0,341740.0,90957.0,-64.0,-138.0
2026-04-09 22:03:13.521109,162360,1123531498,1123532433,0.733952,-0.464576,0.021472,-5.215,5.5475,-12.18,-19.632002,18.968,16.640001,eccentric,4,3.0,40562.0,341740.0,90957.0,-64.0,-138.0
2026-04-09 22:03:13.549346,162370,1123546051,1123547556,0.772992,-0.474336,0.025376,-8.4875,6.78125,-13.8425,-19.232,18.12,17.304,eccentric,4,3.0,40411.0,340350.0,89805.0,-88.0,-133.0
2026-04-09 22:03:13.553492,162371,1123554946,1123556239,0.772992,-0.474336,0.025376,-7.525,8.295,-15.9075,-19.232,18.12,17.304,eccentric,4,3.0,40411.0,340350.0,89805.0,-88.0,-133.0
2026-04-09 22:03:13.555184,162372,1123563869,1123564943,0.745664,-0.49776,0.056608,-3.64875,9.09125,-17.94625,-18.912,18.296001,16.2,eccentric,4,3.0,40411.0,340350.0,89805.0,-88.0,-133.0
2026-04-09 22:03:13.556806,162373,1123578335,1123579825,0.745664,-0.49776,0.056608,1.74125,8.98625,-18.48,-18.912,18.296001,16.2,eccentric,4,3.0,40411.0,340350.0,89805.0,-88.0,-133.0
2026-04-09 22:03:13.561024,162374,1123587292,1123588590,0.782752,-0.47824,0.025376,3.03625,8.26,-19.705,-18.624,17.664001,17.76,eccentric,4,3.0,40411.0,340350.0,89805.0,-88.0,-133.0
2026-04-09 22:03:13.562702,162375,1123596378,1123597307,0.782752,-0.47824,0.025376,3.80625,7.84,-19.99375,-18.624,17.664001,17.76,eccentric,4,3.0,40411.0,340350.0,89805.0,-88.0,-133.0
2026-04-09 22:03:13.564305,162376,1123610885,1123612227,0.776896,-0.47824,0.042944,2.94875,8.14625,-20.83375,-19.104,17.816,17.384,eccentric,4,3.0,40411.0,340350.0,89805.0,-88.0,-133.0
2026-04-09 22:03:13.568531,162377,1123619816,1123620948,0.776896,-0.47824,0.042944,2.3625,8.645,-21.3325,-19.104,17.816,17.384,eccentric,4,3.0,40411.0,340350.0,89805.0,-88.0,-133.0
2026-04-09 22:03:13.570048,162378,1123628778,1123629736,0.79056,-0.450912,0.06832,4.62,9.485,-20.79,-19.184,17.928001,17.936,eccentric,4,3.0,40411.0,340350.0,89805.0,-88.0,-133.0
2026-04-09 22:03:13.625339,162388,1123638272,1123640573,0.79056,-0.450912,0.06832,4.57625,10.61375,-22.19,-19.184,17.928001,17.936,eccentric,4,3.0,40407.0,339987.0,89534.0,-92.0,-128.0
2026-04-09 22:03:13.627085,162389,1123652904,1123653420,0.77104,-0.45872,0.03904,6.48375,11.34875,-22.72375,-18.936,17.784,18.128,eccentric,4,3.0,40407.0,339987.0,89534.0,-92.0,-128.0
2026-04-09 22:03:13.630507,162390,1123662274,1123664212,0.77104,-0.45872,0.03904,8.25125,11.0775,-22.61,-18.936,17.784,18.128,eccentric,4,3.0,40407.0,339987.0,89534.0,-92.0,-128.0
2026-04-09 22:03:13.630626,162391,1123671243,1123672942,0.776896,-0.46848,0.02928,7.3675,10.89375,-23.1525,-18.688002,17.28,18.336,eccentric,4,3.0,40407.0,339987.0,89534.0,-92.0,-128.0
2026-04-09 22:03:13.634601,162392,1123685823,1123687895,0.817888,-0.396256,0.095648,4.62,10.9725,-23.38,-20.400002,17.784,20.232,eccentric,4,3.0,40407.0,339987.0,89534.0,-92.0,-128.0
2026-04-09 22:03:13.639624,162393,1123694749,1123696614,0.817888,-0.396256,0.095648,3.94625,12.20625,-22.19,-20.400002,17.784,20.232,eccentric,4,3.0,40407.0,339987.0,89534.0,-92.0,-128.0
2026-04-09 22:03:13.670452,162394,1123703785,1123705317,0.755424,-0.44896,0.105408,3.21125,14.28875,-21.91,-20.712002,17.800001,16.792002,eccentric,4,3.0,40407.0,339987.0,89534.0,-92.0,-128.0
2026-04-09 22:03:13.671944,162395,1123712779,1123714058,0.755424,-0.44896,0.105408,5.32875,14.56,-23.37125,-20.712002,17.800001,16.792002,eccentric,4,3.0,40407.0,339987.0,89534.0,-92.0,-128.0
2026-04-09 22:03:13.676553,162396,1123727270,1123728998,0.747616,-0.41968,0.011712,10.15875,12.69625,-24.115,-19.312,17.456001,19.232,eccentric,4,3.0,40407.0,339987.0,89534.0,-92.0,-128.0
2026-04-09 22:03:13.705397,162407,1123736205,1123738158,0.747616,-0.41968,0.011712,16.10875,10.05375,-23.30125,-19.312,17.456001,19.232,eccentric,4,3.0,40427.0,340474.0,89916.0,-105.0,-128.0
2026-04-09 22:03:13.707416,162408,1123745246,1123746916,0.788608,-0.384544,0.035136,19.43375,7.91875,-22.84625,-19.752,17.28,19.704,eccentric,4,3.0,40427.0,340474.0,89916.0,-105.0,-128.0
2026-04-09 22:03:13.709306,162409,1123759825,1123761831,0.788608,-0.384544,0.035136,13.667501,9.135,-25.33125,-19.752,17.28,19.704,eccentric,4,3.0,40427.0,340474.0,89916.0,-105.0,-128.0
2026-04-09 22:03:13.713457,162410,1123768767,1123770547,0.796416,-0.372832,0.105408,5.69625,10.63125,-27.615,-20.464,17.248001,20.424002,eccentric,4,3.0,40427.0,340474.0,89916.0,-105.0,-128.0
2026-04-09 22:03:13.741951,162411,1123777747,1123779243,0.796416,-0.372832,0.105408,4.48,11.1825,-29.56625,-20.464,17.248001,20.424002,eccentric,4,3.0,40427.0,340474.0,89916.0,-105.0,-128.0
2026-04-09 22:03:13.746526,162412,1123792329,1123794211,0.749568,-0.398208,0.099552,10.9025,10.89375,-30.82625,-19.84,16.904001,19.584002,eccentric,4,3.0,40427.0,340474.0,89916.0,-105.0,-128.0
2026-04-09 22:03:13.748026,162413,1123801331,1123802925,0.749568,-0.398208,0.099552,15.72375,10.0625,-31.1325,-19.84,16.904001,19.584002,eccentric,4,3.0,40427.0,340474.0,89916.0,-105.0,-128.0
2026-04-09 22:03:13.754722,162414,1123810291,1123811634,0.749568,-0.466528,0.076128,16.70375,8.5225,-30.63375,-19.776001,16.744001,19.952002,eccentric,4,3.0,40427.0,340474.0,89916.0,-105.0,-128.0
2026-04-09 22:03:13.821743,162415,1123819269,1123820337,0.749568,-0.466528,0.076128,18.82125,7.875,-28.805,-19.776001,16.744001,19.952002,eccentric,4,3.0,40427.0,340474.0,89916.0,-105.0,-128.0
2026-04-09 22:03:13.823987,162416,1123833876,1123835213,0.753472,-0.415776,0.072224,17.08875,8.6625,-27.15125,-20.768002,16.536001,20.888,eccentric,4,3.0,40427.0,340474.0,89916.0,-105.0,-128.0
2026-04-09 22:03:13.851032,162426,1123842932,1123844019,0.753472,-0.415776,0.072224,9.82625,10.0625,-27.553751,-20.768002,16.536001,20.888,eccentric,4,3.0,40169.0,339057.0,88686.0,-98.0,-133.0
2026-04-09 22:03:13.852762,162427,1123851896,1123852726,0.759328,-0.376736,0.152256,6.30875,12.4425,-28.5075,-20.408,16.68,20.728,eccentric,4,3.0,40169.0,339057.0,88686.0,-98.0,-133.0
2026-04-09 22:03:13.854379,162428,1123866369,1123867610,0.706624,-0.33184,0.1464,9.58125,14.0,-28.245,-19.952002,15.848001,20.480001,eccentric,4,3.0,40169.0,339057.0,88686.0,-98.0,-133.0
2026-04-09 22:03:13.859644,162429,1123875242,1123876338,0.706624,-0.33184,0.1464,16.16125,14.096251,-28.98875,-19.952002,15.848001,20.480001,eccentric,4,3.0,40169.0,339057.0,88686.0,-98.0,-133.0
2026-04-09 22:03:13.860277,162430,1123884180,1123885031,0.679296,-0.447008,0.101504,18.4975,12.7225,-30.7125,-19.712002,15.760001,20.304,eccentric,4,3.0,40169.0,339057.0,88686.0,-98.0,-133.0
2026-04-09 22:03:13.861790,162431,1123898814,1123899982,0.679296,-0.447008,0.101504,19.18,11.90875,-30.6775,-19.712002,15.760001,20.304,eccentric,4,3.0,40169.0,339057.0,88686.0,-98.0,-133.0
2026-04-09 22:03:13.867028,162432,1123907855,1123908765,0.767136,-0.304512,0.06832,20.74625,11.29625,-28.1575,-21.424002,16.176,21.816002,eccentric,4,3.0,40169.0,339057.0,88686.0,-98.0,-133.0
2026-04-09 22:03:13.868832,162433,1123916834,1123917486,0.767136,-0.304512,0.06832,19.94125,12.31125,-26.985,-21.424002,16.176,21.816002,eccentric,4,3.0,40169.0,339057.0,88686.0,-98.0,-133.0
2026-04-09 22:03:13.871626,162434,1123926208,1123928282,0.679296,-0.28304,0.140544,16.23125,14.455,-26.97625,-20.824001,16.664001,21.992,eccentric,4,3.0,40169.0,339057.0,88686.0,-98.0,-133.0
2026-04-09 22:03:13.945987,162444,1123941137,1123941514,0.679296,-0.28304,0.140544,10.71875,14.1225,-28.88375,-20.824001,16.664001,21.992,eccentric,4,3.0,40230.0,338097.0,88054.0,-101.0,-147.0
2026-04-09 22:03:13.948461,162445,1123950442,1123952313,0.718336,-0.388448,0.095648,9.7475,11.20875,-32.01625,-20.656,15.536001,21.256,eccentric,4,3.0,40230.0,338097.0,88054.0,-101.0,-147.0
2026-04-09 22:03:13.952012,162446,1123959410,1123961009,0.718336,-0.388448,0.095648,19.17125,7.30625,-30.59,-20.656,15.536001,21.256,eccentric,4,3.0,40230.0,338097.0,88054.0,-101.0,-147.0
2026-04-09 22:03:13.952953,162447,1123968413,1123969758,0.696864,-0.407968,0.113216,21.2625,6.9125,-30.835001,-20.848001,16.208,21.720001,eccentric,4,3.0,40230.0,338097.0,88054.0,-101.0,-147.0
2026-04-09 22:03:13.955536,162448,1123983012,1123984713,0.696864,-0.407968,0.113216,17.885,6.895,-29.67125,-20.848001,16.208,21.720001,eccentric,4,3.0,40230.0,338097.0,88054.0,-101.0,-147.0
2026-04-09 22:03:13.958016,162449,1123991961,1123993435,0.772992,-0.259616,0.115168,14.42,7.32375,-28.58625,-20.984001,15.432001,20.240002,eccentric,4,3.0,40230.0,338097.0,88054.0,-101.0,-147.0
2026-04-09 22:03:13.960541,162450,1124000903,1124002148,0.772992,-0.259616,0.115168,14.525,7.81375,-30.75625,-20.984001,15.432001,20.240002,eccentric,4,3.0,40230.0,338097.0,88054.0,-101.0,-147.0
2026-04-09 22:03:13.963038,162451,1124015481,1124017103,0.728096,-0.230336,0.152256,17.6925,7.79625,-33.5475,-21.272001,15.192,21.664001,eccentric,4,3.0,40230.0,338097.0,88054.0,-101.0,-147.0
2026-04-09 22:03:13.968086,162452,1124024389,1124025822,0.714432,-0.4392,0.148352,19.55625,7.0875,-38.12375,-21.272001,15.192,23.960001,eccentric,4,3.0,40230.0,338097.0,88054.0,-101.0,-147.0
2026-04-09 22:03:13.974330,162453,1124033323,1124034558,0.714432,-0.4392,0.148352,21.48125,5.705,-41.85125,-21.016,14.952001,23.960001,eccentric,4,3.0,40230.0,338097.0,88054.0,-101.0,-147.0
2026-04-09 22:03:14.005514,162464,1124048140,1124049587,0.730048,-0.372832,0.11712,27.44875,4.375,-41.965,-21.008001,15.408001,22.464,eccentric,4,3.0,40188.0,338278.0,88125.0,-104.0,-127.0
2026-04-09 22:03:14.008020,162465,1124057082,1124058282,0.730048,-0.372832,0.11712,29.75875,3.92,-39.31375,-21.008001,15.408001,22.464,eccentric,4,3.0,40188.0,338278.0,88125.0,-104.0,-127.0
2026-04-09 22:03:14.010568,162466,1124066024,1124066987,0.700768,-0.296704,0.167872,24.71875,5.76625,-36.12875,-21.208,14.616001,22.608002,eccentric,4,3.0,40188.0,338278.0,88125.0,-104.0,-127.0
2026-04-09 22:03:14.015542,162467,1124074945,1124075765,0.700768,-0.296704,0.167872,21.11375,6.86,-31.15,-21.208,14.616001,22.608002,eccentric,4,3.0,40188.0,338278.0,88125.0,-104.0,-127.0
2026-04-09 22:03:14.045699,162468,1124089432,1124090660,0.730048,-0.21472,0.07808,18.05125,8.2425,-30.51125,-21.68,14.072001,22.704,eccentric,4,3.0,40188.0,338278.0,88125.0,-104.0,-127.0
2026-04-09 22:03:14.049294,162469,1124098326,1124099412,0.730048,-0.21472,0.07808,18.33125,8.74125,-32.90875,-21.68,14.072001,22.704,eccentric,4,3.0,40188.0,338278.0,88125.0,-104.0,-127.0
2026-04-09 22:03:14.051830,162470,1124107237,1124108198,0.724192,-0.325984,0.095648,19.5475,7.6125,-36.39125,-22.368002,14.512001,23.160002,eccentric,4,3.0,40188.0,338278.0,88125.0,-104.0,-127.0
2026-04-09 22:03:14.082039,162471,1124121727,1124123173,0.724192,-0.325984,0.095648,21.77875,5.8275,-39.69875,-22.368002,14.512001,23.160002,eccentric,4,3.0,40188.0,338278.0,88125.0,-104.0,-127.0
2026-04-09 22:03:14.085586,162472,1124130655,1124131873,0.689056,-0.298656,0.203008,28.630001,5.39875,-37.98375,-22.168001,14.280001,23.472002,eccentric,4,3.0,40188.0,338278.0,88125.0,-104.0,-127.0
2026-04-09 22:03:14.147293,162482,1124139548,1124140513,0.689056,-0.298656,0.203008,28.9275,7.105,-33.31125,-22.168001,14.280001,23.472002,eccentric,4,3.0,40085.0,337042.0,87140.0,-109.0,-138.0
2026-04-09 22:03:14.149003,162483,1124149339,1124151417,0.698816,-0.28304,0.130784,20.5275,9.17875,-30.66875,-22.632002,14.040001,23.416,eccentric,4,3.0,40085.0,337042.0,87140.0,-109.0,-138.0
2026-04-09 22:03:14.150658,162484,1124163982,1124164299,0.698816,-0.28304,0.130784,12.90625,10.61375,-28.7875,-22.632002,14.040001,23.416,eccentric,4,3.0,40085.0,337042.0,87140.0,-109.0,-138.0
2026-04-09 22:03:14.154779,162485,1124173159,1124175062,0.648064,-0.240096,0.0976,13.58,9.6775,-27.4225,-22.648,13.592001,25.968,eccentric,4,3.0,40085.0,337042.0,87140.0,-109.0,-138.0
2026-04-09 22:03:14.156487,162486,1124182056,1124183744,0.648064,-0.240096,0.0976,18.9875,5.67,-28.035,-22.648,13.592001,25.968,eccentric,4,3.0,40085.0,337042.0,87140.0,-109.0,-138.0
2026-04-09 22:03:14.158026,162487,1124196559,1124198721,0.696864,-0.27328,0.062464,24.61375,1.42625,-28.595,-23.024,13.728001,23.608002,eccentric,4,3.0,40085.0,337042.0,87140.0,-109.0,-138.0
2026-04-09 22:03:14.162297,162488,1124205546,1124207442,0.6832,-0.310368,0.183488,26.69625,0.0175,-25.445,-23.288002,13.480001,25.056002,eccentric,4,3.0,40085.0,337042.0,87140.0,-109.0,-138.0
2026-04-09 22:03:14.164861,162489,1124214587,1124216182,0.6832,-0.310368,0.183488,19.60875,0.84875,-21.55125,-23.288002,13.480001,25.056002,eccentric,4,3.0,40085.0,337042.0,87140.0,-109.0,-138.0
2026-04-09 22:03:14.193284,162490,1124229116,1124231134,0.704672,-0.267424,0.101504,7.98875,2.45875,-19.74,-23.6,13.320001,24.840002,eccentric,4,3.0,40085.0,337042.0,87140.0,-109.0,-138.0
2026-04-09 22:03:14.197765,162491,1124238046,1124239833,0.704672,-0.267424,0.101504,3.6225,1.67125,-17.745,-23.6,13.320001,24.840002,eccentric,4,3.0,40085.0,337042.0,87140.0,-109.0,-138.0
2026-04-09 22:03:14.222774,162501,1124246970,1124248545,0.739808,-0.228384,0.054656,8.00625,-0.86625,-16.52,-22.616001,13.472001,23.616001,eccentric,4,3.0,40052.0,334820.0,85576.0,-121.0,-137.0
2026-04-09 22:03:14.224367,162502,1124255875,1124257284,0.739808,-0.228384,0.054656,13.32625,-4.235,-17.1325,-22.616001,13.472001,23.616001,eccentric,4,3.0,40052.0,334820.0,85576.0,-121.0,-137.0
2026-04-09 22:03:14.228540,162503,1124270342,1124272187,0.765184,-0.337696,0.12688,13.79875,-6.16,-19.1625,-23.176,13.304001,24.472002,eccentric,4,3.0,40052.0,334820.0,85576.0,-121.0,-137.0
2026-04-09 22:03:14.230271,162504,1124279329,1124280920,0.765184,-0.337696,0.12688,12.88875,-5.13625,-18.59375,-23.176,13.304001,24.472002,eccentric,4,3.0,40052.0,334820.0,85576.0,-121.0,-137.0
2026-04-09 22:03:14.231871,162505,1124288240,1124289677,0.784704,-0.296704,0.167872,10.57875,-2.205,-17.955,-23.552002,13.480001,24.144001,eccentric,4,3.0,40052.0,334820.0,85576.0,-121.0,-137.0
2026-04-09 22:03:14.264267,162506,1124302712,1124304634,0.784704,-0.296704,0.167872,8.47875,-1.05,-17.47375,-23.552002,13.480001,24.144001,eccentric,4,3.0,40052.0,334820.0,85576.0,-121.0,-137.0
2026-04-09 22:03:14.267605,162507,1124311637,1124313323,0.798368,-0.2928,0.074176,8.015,-0.46375,-16.905,-23.672,13.408001,24.248001,eccentric,4,3.0,40052.0,334820.0,85576.0,-121.0,-137.0
2026-04-09 22:03:14.269284,162508,1124320557,1124322021,0.798368,-0.2928,0.074176,5.60875,-1.6625,-16.77375,-23.672,13.408001,24.248001,eccentric,4,3.0,40052.0,334820.0,85576.0,-121.0,-137.0
2026-04-09 22:03:14.299178,162509,1124335051,1124336938,0.812032,-0.294752,0.046848,6.6675,-3.5,-15.56625,-22.976002,13.384001,23.864,eccentric,4,3.0,40052.0,334820.0,85576.0,-121.0,-137.0
2026-04-09 22:03:14.327725,162520,1124344606,1124345852,0.812032,-0.294752,0.046848,7.4025,-4.69,-14.2975,-22.976002,13.384001,23.864,eccentric,4,3.0,40093.0,336866.0,87104.0,-101.0,-138.0
2026-04-09 22:03:14.329293,162521,1124353506,1124354554,0.81008,-0.298656,0.093696,6.615,-5.83625,-13.658751,-23.328001,12.904,24.984001,eccentric,4,3.0,40093.0,336866.0,87104.0,-101.0,-138.0
2026-04-09 22:03:14.333503,162522,1124362485,1124363269,0.81008,-0.298656,0.093696,6.51,-5.95875,-12.25875,-23.328001,12.904,24.984001,eccentric,4,3.0,40093.0,336866.0,87104.0,-101.0,-138.0
2026-04-09 22:03:14.336197,162523,1124377086,1124378203,0.806176,-0.249856,0.138592,4.73375,-5.5125,-10.8675,-23.624,12.696001,24.112001,eccentric,4,3.0,40093.0,336866.0,87104.0,-101.0,-138.0
2026-04-09 22:03:14.343512,162524,1124386000,1124386893,0.784704,-0.230336,0.080032,2.66875,-4.52375,-8.74125,-23.584002,13.064001,23.960001,eccentric,4,3.0,40093.0,336866.0,87104.0,-101.0,-138.0
2026-04-09 22:03:14.343855,162525,1124394946,1124395627,0.784704,-0.230336,0.080032,2.5025,-4.61125,-8.77625,-23.584002,13.064001,23.960001,eccentric,4,3.0,40093.0,336866.0,87104.0,-101.0,-138.0
2026-04-09 22:03:14.374148,162526,1124409838,1124410558,0.794464,-0.275232,-0.011712,3.08875,-5.74,-9.05625,-24.368002,12.872001,24.712002,eccentric,4,3.0,40093.0,336866.0,87104.0,-101.0,-138.0
2026-04-09 22:03:14.378529,162527,1124419136,1124421311,0.794464,-0.275232,-0.011712,3.745,-7.945,-9.03875,-24.368002,12.872001,24.712002,eccentric,4,3.0,40093.0,336866.0,87104.0,-101.0,-138.0
2026-04-09 22:03:14.380199,162528,1124428078,1124429997,0.792512,-0.249856,0.081984,5.64375,-10.386251,-8.23375,-23.320002,13.072001,24.144001,eccentric,4,3.0,40093.0,336866.0,87104.0,-101.0,-138.0
2026-04-09 22:03:14.381847,162529,1124437051,1124438760,0.792512,-0.249856,0.081984,7.56875,-10.2375,-5.5825,-23.320002,13.072001,24.144001,eccentric,4,3.0,40093.0,336866.0,87104.0,-101.0,-138.0
2026-04-09 22:03:14.439425,162539,1124451645,1124453706,0.79056,-0.197152,0.124928,3.71,-7.98,-5.0225,-23.328001,12.824,24.496,eccentric,4,3.0,40123.0,337258.0,87438.0,-99.0,-128.0
2026-04-09 22:03:14.443615,162540,1124460585,1124462406,0.79056,-0.197152,0.124928,0.175,-4.94375,-3.59625,-23.328001,12.824,24.496,eccentric,4,3.0,40123.0,337258.0,87438.0,-99.0,-128.0
2026-04-09 22:03:14.445261,162541,1124469512,1124471092,0.778848,-0.265472,0.021472,-4.08625,-3.59625,-3.63125,-23.376001,12.904,24.408,eccentric,4,3.0,40123.0,337258.0,87438.0,-99.0,-128.0
2026-04-09 22:03:14.446947,162542,1124484003,1124486018,0.778848,-0.265472,0.021472,-2.2925,-4.6025,-2.485,-23.376001,12.904,24.408,eccentric,4,3.0,40123.0,337258.0,87438.0,-99.0,-128.0
2026-04-09 22:03:14.451068,162543,1124493055,1124494769,0.808128,-0.242048,-0.023424,4.64625,-6.86875,-2.2575,-23.736002,13.120001,25.832,eccentric,4,3.0,40123.0,337258.0,87438.0,-99.0,-128.0
2026-04-09 22:03:14.452669,162544,1124502068,1124503476,0.808128,-0.242048,-0.023424,8.636251,-8.54875,-2.19625,-23.736002,13.120001,25.832,eccentric,4,3.0,40123.0,337258.0,87438.0,-99.0,-128.0
2026-04-09 22:03:14.482871,162545,1124516588,1124518407,0.815936,-0.25376,0.070272,8.2425,-7.5425,-0.455,-23.736002,13.032001,24.792002,eccentric,4,3.0,40123.0,337258.0,87438.0,-99.0,-128.0
2026-04-09 22:03:14.485211,162546,1124525507,1124527134,0.815936,-0.25376,0.070272,0.34125,-3.7975,1.3825,-23.736002,13.032001,24.792002,eccentric,4,3.0,40123.0,337258.0,87438.0,-99.0,-128.0
2026-04-09 22:03:14.489824,162547,1124534425,1124535852,0.815936,-0.265472,0.109312,-7.53375,0.42875,3.01,-23.400002,13.112,22.896002,eccentric,4,3.0,40123.0,337258.0,87438.0,-99.0,-128.0
