pc_time,serial_num,sensor_ts,host_ts,ax,ay,az,gx,gy,gz,mx,my,mz,phase,rpe,weight_kg,ppg_a,ppg_b,ppg_c,ppg_d,ppg_e,ppg_f,ppg_g,ppg_h,ppg_i,ppg_j
2026-05-06 16:29:04.273823,848885,1609507207664118,4807576348,0.71248,-0.569984,-0.18544,-3.82375,4.73375,-6.7025,-33.528,-17.152,-85.16801,concentric,9,5.0,40663.0,41002.0,89819.0,77405.0,37685.0,50212.0,39982.0,43695.0,24771.0,17763.0
2026-05-06 16:29:04.276209,848886,1609507207673194,4807585147,0.71248,-0.569984,-0.18544,-3.0975,3.5875,-7.21,-33.528,-17.152,-85.16801,concentric,9,5.0,40663.0,41002.0,89819.0,77405.0,37685.0,50212.0,39982.0,43695.0,24771.0,17763.0
2026-05-06 16:29:04.283206,848887,1609507207682262,4807593865,0.714432,-0.593408,-0.189344,-0.525,2.38,-6.44875,-33.440002,-16.688002,-85.43201,concentric,9,5.0,40663.0,41002.0,89819.0,77405.0,37685.0,50212.0,39982.0,43695.0,24771.0,17763.0
2026-05-06 16:29:04.287537,848888,1609507207696759,4807608917,0.714432,-0.534848,-0.160064,2.45,1.295,-5.4075,-33.384003,-18.408,-84.32001,concentric,9,5.0,40663.0,41002.0,89819.0,77405.0,37685.0,50212.0,39982.0,43695.0,24771.0,17763.0
2026-05-06 16:29:04.318928,848899,1609507207706098,4807617742,0.714432,-0.534848,-0.160064,3.85,0.665,-3.955,-33.384003,-18.408,-84.32001,concentric,9,5.0,41544.0,41409.0,90206.0,76616.0,38512.0,50716.0,40258.0,43215.0,25234.0,17965.0
2026-05-06 16:29:04.321506,848900,1609507207720884,4807632807,0.71248,-0.50752,-0.171776,1.6975,-1.05875,-2.66,-33.632,-18.592001,-84.256004,concentric,9,5.0,41544.0,41409.0,90206.0,76616.0,38512.0,50716.0,40258.0,43215.0,25234.0,17965.0
2026-05-06 16:29:04.323899,848901,1609507207729943,4807641572,0.71248,-0.50752,-0.171776,-2.17875,-2.44125,-2.68625,-33.632,-18.592001,-84.256004,concentric,9,5.0,41544.0,41409.0,90206.0,76616.0,38512.0,50716.0,40258.0,43215.0,25234.0,17965.0
2026-05-06 16:29:04.328986,848902,1609507207738891,4807650298,0.689056,-0.560224,-0.206912,-3.8325,-4.0075,-2.625,-33.576,-18.824001,-83.856,concentric,9,5.0,41544.0,41409.0,90206.0,76616.0,38512.0,50716.0,40258.0,43215.0,25234.0,17965.0
2026-05-06 16:29:04.342639,848903,1609507207753348,4807665310,0.689056,-0.560224,-0.206912,-3.33375,-5.15375,-1.6975,-33.576,-18.824001,-83.856,concentric,9,5.0,41544.0,41409.0,90206.0,76616.0,38512.0,50716.0,40258.0,43215.0,25234.0,17965.0
2026-05-06 16:29:04.370034,848904,1609507207762417,4807674038,0.72224,-0.581696,-0.218624,-0.07,-6.71125,-1.49625,-32.408,-17.184,-86.304,concentric,9,5.0,41544.0,41409.0,90206.0,76616.0,38512.0,50716.0,40258.0,43215.0,25234.0,17965.0
2026-05-06 16:29:04.405129,848905,1609507207776900,4807689032,0.694912,-0.505568,-0.187392,3.045,-8.3125,-0.525,-32.848003,-16.776001,-85.888,concentric,9,5.0,41544.0,41409.0,90206.0,76616.0,38512.0,50716.0,40258.0,43215.0,25234.0,17965.0
2026-05-06 16:29:04.432538,848906,1609507207785827,4807697798,0.694912,-0.505568,-0.187392,4.78625,-9.77375,1.49625,-32.848003,-16.776001,-85.888,concentric,9,5.0,41544.0,41409.0,90206.0,76616.0,38512.0,50716.0,40258.0,43215.0,25234.0,17965.0
2026-05-06 16:29:04.440539,848907,1609507207800282,4807712757,0.698816,-0.52704,-0.228384,3.255,-11.1125,1.925,-32.952,-16.84,-85.8,concentric,9,5.0,41544.0,41409.0,90206.0,76616.0,38512.0,50716.0,40258.0,43215.0,25234.0,17965.0
2026-05-06 16:29:04.479073,848918,1609507207809388,4807721939,0.698816,-0.52704,-0.228384,0.9275,-12.41625,1.79375,-32.952,-16.84,-85.8,concentric,9,5.0,41442.0,41205.0,90093.0,76234.0,38410.0,50512.0,40207.0,43046.0,25188.0,17902.0
2026-05-06 16:29:04.481608,848919,1609507207818326,4807730760,0.724192,-0.589504,-0.197152,-0.735,-13.37875,2.24875,-33.352,-16.632,-86.16801,concentric,9,5.0,41442.0,41205.0,90093.0,76234.0,38410.0,50512.0,40207.0,43046.0,25188.0,17902.0
2026-05-06 16:29:04.484110,848920,1609507207832903,4807743717,0.724192,-0.589504,-0.197152,0.35875,-13.79,2.94875,-33.352,-16.632,-86.16801,concentric,9,5.0,41442.0,41205.0,90093.0,76234.0,38410.0,50512.0,40207.0,43046.0,25188.0,17902.0
2026-05-06 16:29:04.486554,848921,1609507207842175,4807754487,0.755424,-0.57584,-0.208864,3.3425,-14.2975,3.50875,-32.664,-16.288,-86.200005,concentric,9,5.0,41442.0,41205.0,90093.0,76234.0,38410.0,50512.0,40207.0,43046.0,25188.0,17902.0
2026-05-06 16:29:04.488994,848922,1609507207856692,4807769403,0.691008,-0.5368,-0.206912,5.27625,-14.67375,4.61125,-32.816,-16.248001,-86.024,concentric,9,5.0,41442.0,41205.0,90093.0,76234.0,38410.0,50512.0,40207.0,43046.0,25188.0,17902.0
2026-05-06 16:29:04.491583,848923,1609507207865642,4807778125,0.691008,-0.5368,-0.206912,4.50625,-15.18125,5.29375,-32.816,-16.248001,-86.024,concentric,9,5.0,41442.0,41205.0,90093.0,76234.0,38410.0,50512.0,40207.0,43046.0,25188.0,17902.0
2026-05-06 16:29:04.494124,848924,1609507207874678,4807786884,0.691008,-0.5368,-0.206912,1.54875,-16.1,6.0375,-32.816,-16.248001,-86.024,concentric,9,5.0,41442.0,41205.0,90093.0,76234.0,38410.0,50512.0,40207.0,43046.0,25188.0,17902.0
2026-05-06 16:29:04.496608,848925,1609507207889183,4807801867,0.667584,-0.54656,-0.222528,-1.3475,-17.66625,7.5075,-32.600002,-16.6,-84.8,concentric,9,5.0,41442.0,41205.0,90093.0,76234.0,38410.0,50512.0,40207.0,43046.0,25188.0,17902.0
2026-05-06 16:29:04.499049,848926,1609507207898210,4807810599,0.650016,-0.597312,-0.267424,-1.96,-18.99625,8.84625,-32.352,-17.608002,-85.216,concentric,9,5.0,41442.0,41205.0,90093.0,76234.0,38410.0,50512.0,40207.0,43046.0,25188.0,17902.0
2026-05-06 16:29:04.531440,848937,1609507207913178,4807825625,0.650016,-0.597312,-0.267424,1.00625,-21.00875,10.89375,-32.352,-17.608002,-85.216,concentric,9,5.0,40945.0,40859.0,89648.0,75981.0,37947.0,50133.0,39971.0,42878.0,24925.0,17719.0
2026-05-06 16:29:04.533896,848938,1609507207922276,4807834462,0.714432,-0.603168,-0.247904,3.535,-21.28875,12.0575,-32.624,-17.472,-85.312004,concentric,9,5.0,40945.0,40859.0,89648.0,75981.0,37947.0,50133.0,39971.0,42878.0,24925.0,17719.0
2026-05-06 16:29:04.536453,848939,1609507207931279,4807843268,0.714432,-0.603168,-0.247904,4.34875,-21.56875,12.95875,-32.624,-17.472,-85.312004,concentric,9,5.0,40945.0,40859.0,89648.0,75981.0,37947.0,50133.0,39971.0,42878.0,24925.0,17719.0
2026-05-06 16:29:04.538827,848940,1609507207945744,4807858211,0.626592,-0.52704,-0.212768,6.58,-22.6275,14.2975,-32.16,-16.816,-86.096,concentric,9,5.0,40945.0,40859.0,89648.0,75981.0,37947.0,50133.0,39971.0,42878.0,24925.0,17719.0
2026-05-06 16:29:04.546495,848941,1609507207954701,4807866928,0.626592,-0.52704,-0.212768,3.38625,-23.2925,15.53125,-32.16,-16.816,-86.096,concentric,9,5.0,40945.0,40859.0,89648.0,75981.0,37947.0,50133.0,39971.0,42878.0,24925.0,17719.0
2026-05-06 16:29:04.560199,848942,1609507207969183,4807881856,0.62464,-0.55632,-0.25376,0.37625,-24.955,16.3275,-31.880001,-17.024,-84.36,concentric,9,5.0,40945.0,40859.0,89648.0,75981.0,37947.0,50133.0,39971.0,42878.0,24925.0,17719.0
2026-05-06 16:29:04.569088,848943,1609507207978098,4807890618,0.612928,-0.607072,-0.290848,0.595,-27.0375,16.45,-31.968002,-14.912001,-88.496,concentric,9,5.0,40945.0,40859.0,89648.0,75981.0,37947.0,50133.0,39971.0,42878.0,24925.0,17719.0
2026-05-06 16:29:04.582859,848944,1609507207992637,4807903496,0.612928,-0.607072,-0.290848,4.55875,-29.5925,18.55,-31.968002,-14.912001,-88.496,concentric,9,5.0,40945.0,40859.0,89648.0,75981.0,37947.0,50133.0,39971.0,42878.0,24925.0,17719.0
2026-05-06 16:29:04.596610,848945,1609507208002016,4807914271,0.626592,-0.601216,-0.275232,11.19125,-32.64625,22.4,-31.28,-14.392001,-88.504005,concentric,9,5.0,40945.0,40859.0,89648.0,75981.0,37947.0,50133.0,39971.0,42878.0,24925.0,17719.0
2026-05-06 16:29:04.624174,848956,1609507208011204,4807923254,0.626592,-0.601216,-0.275232,11.48875,-35.6825,26.39,-31.28,-14.392001,-88.504005,concentric,9,5.0,40539.0,40866.0,88980.0,75281.0,37591.0,50160.0,39656.0,42484.0,24741.0,17741.0
2026-05-06 16:29:04.626317,848957,1609507208025730,4807938231,0.622688,-0.5856,-0.265472,10.3425,-37.47625,28.5775,-31.208002,-17.392,-87.312004,concentric,9,5.0,40539.0,40866.0,88980.0,75281.0,37591.0,50160.0,39656.0,42484.0,24741.0,17741.0
2026-05-06 16:29:04.628709,848958,1609507208034735,4807946958,0.622688,-0.5856,-0.265472,9.03875,-38.10625,27.23875,-31.208002,-17.392,-87.312004,concentric,9,5.0,40539.0,40866.0,88980.0,75281.0,37591.0,50160.0,39656.0,42484.0,24741.0,17741.0
2026-05-06 16:29:04.640209,848959,1609507208049415,4807961905,0.636352,-0.632448,-0.265472,7.56875,-39.138752,24.36875,-30.712002,-15.344001,-89.272,concentric,9,5.0,40539.0,40866.0,88980.0,75281.0,37591.0,50160.0,39656.0,42484.0,24741.0,17741.0
2026-05-06 16:29:04.648740,848960,1609507208058414,4807970599,0.630496,-0.651968,-0.20496,9.695,-40.38125,23.51125,-30.680002,-14.408001,-90.392006,concentric,9,5.0,40539.0,40866.0,88980.0,75281.0,37591.0,50160.0,39656.0,42484.0,24741.0,17741.0
2026-05-06 16:29:04.657570,848961,1609507208067441,4807979359,0.630496,-0.651968,-0.20496,11.05125,-42.8225,23.54625,-30.680002,-14.408001,-90.392006,concentric,9,5.0,40539.0,40866.0,88980.0,75281.0,37591.0,50160.0,39656.0,42484.0,24741.0,17741.0
2026-05-06 16:29:04.691576,848962,1609507208082050,4807994268,0.61488,-0.638304,-0.249856,11.87375,-45.56125,24.35125,-30.056002,-12.816001,-90.256004,concentric,9,5.0,40539.0,40866.0,88980.0,75281.0,37591.0,50160.0,39656.0,42484.0,24741.0,17741.0
2026-05-06 16:29:04.694091,848963,1609507208090978,4808002989,0.61488,-0.638304,-0.249856,12.5125,-48.6675,24.24625,-30.056002,-12.816001,-90.256004,concentric,9,5.0,40539.0,40866.0,88980.0,75281.0,37591.0,50160.0,39656.0,42484.0,24741.0,17741.0
2026-05-06 16:29:04.779098,848974,1609507208105468,4808017853,0.659776,-0.659776,-0.259616,12.215,-50.3125,22.61,-29.432001,-11.656,-90.672005,concentric,9,5.0,40711.0,41108.0,89190.0,74810.0,37788.0,50479.0,39767.0,42241.0,24815.0,17874.0
2026-05-06 16:29:04.781607,848975,1609507208114521,4808026589,0.659776,-0.659776,-0.259616,9.94,-51.09125,21.245,-29.432001,-11.656,-90.672005,concentric,9,5.0,40711.0,41108.0,89190.0,74810.0,37788.0,50479.0,39767.0,42241.0,24815.0,17874.0
2026-05-06 16:29:04.783955,848976,1609507208129130,4808041649,0.618784,-0.628544,-0.288896,10.535,-52.56125,20.9825,-28.744001,-11.752001,-90.784004,concentric,9,5.0,40711.0,41108.0,89190.0,74810.0,37788.0,50479.0,39767.0,42241.0,24815.0,17874.0
2026-05-06 16:29:04.786337,848977,1609507208138064,4808050366,0.573888,-0.657824,-0.281088,11.19125,-54.215,20.5275,-26.696001,-10.984,-93.12,concentric,9,5.0,40711.0,41108.0,89190.0,74810.0,37788.0,50479.0,39767.0,42241.0,24815.0,17874.0
2026-05-06 16:29:04.788772,848978,1609507208147008,4808059060,0.573888,-0.657824,-0.281088,8.60125,-55.18625,21.105,-28.312002,-10.984,-93.12,concentric,9,5.0,40711.0,41108.0,89190.0,74810.0,37788.0,50479.0,39767.0,42241.0,24815.0,17874.0
2026-05-06 16:29:04.791276,848979,1609507208161529,4808074048,0.55632,-0.679296,-0.329888,6.9825,-54.81,22.63625,-27.840002,-9.968,-92.00001,concentric,9,5.0,40711.0,41108.0,89190.0,74810.0,37788.0,50479.0,39767.0,42241.0,24815.0,17874.0
2026-05-06 16:29:04.797708,848980,1609507208170555,4808082750,0.55632,-0.679296,-0.329888,6.9475,-55.825,23.10875,-27.840002,-9.968,-92.00001,concentric,9,5.0,40711.0,41108.0,89190.0,74810.0,37788.0,50479.0,39767.0,42241.0,24815.0,17874.0
2026-05-06 16:29:04.798111,848981,1609507208185047,4808097671,0.571936,-0.704672,-0.384544,7.84875,-56.86625,23.02125,-27.344002,-10.160001,-92.384,concentric,9,5.0,40711.0,41108.0,89190.0,74810.0,37788.0,50479.0,39767.0,42241.0,24815.0,17874.0
2026-05-06 16:29:04.798609,848982,1609507208193997,4808106427,0.571936,-0.704672,-0.384544,11.29625,-56.805,22.4525,-27.344002,-10.160001,-92.384,concentric,9,5.0,40711.0,41108.0,89190.0,74810.0,37788.0,50479.0,39767.0,42241.0,24815.0,17874.0
2026-05-06 16:29:04.801919,848983,1609507208203112,4808115150,0.568032,-0.66368,-0.28304,9.80875,-57.28625,23.2225,-26.192001,-9.688001,-93.368004,concentric,9,5.0,40711.0,41108.0,89190.0,74810.0,37788.0,50479.0,39767.0,42241.0,24815.0,17874.0
2026-05-06 16:29:04.828968,848994,1609507208217758,4808128561,0.568032,-0.66368,-0.28304,6.0375,-58.05625,24.745,-26.192001,-9.688001,-93.368004,concentric,9,5.0,41596.0,41831.0,89466.0,74353.0,38606.0,51435.0,39954.0,41979.0,25208.0,18277.0
2026-05-06 16:29:04.831482,848995,1609507208227023,4808139370,0.519232,-0.667584,-0.353312,3.99,-59.54375,24.89375,-25.696001,-10.440001,-94.73601,concentric,9,5.0,41596.0,41831.0,89466.0,74353.0,38606.0,51435.0,39954.0,41979.0,25208.0,18277.0
2026-05-06 16:29:04.834009,848996,1609507208241595,4808154330,0.525088,-0.687104,-0.368928,-0.0875,-60.0775,24.4825,-25.048,-11.032001,-93.4,concentric,9,5.0,41596.0,41831.0,89466.0,74353.0,38606.0,51435.0,39954.0,41979.0,25208.0,18277.0
2026-05-06 16:29:04.841534,848997,1609507208250698,4808163099,0.525088,-0.687104,-0.368928,-4.55,-60.75125,24.99875,-25.048,-11.032001,-93.4,concentric,9,5.0,41596.0,41831.0,89466.0,74353.0,38606.0,51435.0,39954.0,41979.0,25208.0,18277.0
2026-05-06 16:29:04.851561,848998,1609507208259634,4808171801,0.501664,-0.743712,-0.388448,-3.7975,-61.27625,25.94375,-24.192001,-10.432,-93.90401,concentric,9,5.0,41596.0,41831.0,89466.0,74353.0,38606.0,51435.0,39954.0,41979.0,25208.0,18277.0
2026-05-06 16:29:04.875314,848999,1609507208274316,4808186736,0.501664,-0.743712,-0.388448,-3.675,-60.9875,25.08625,-24.192001,-10.432,-93.90401,concentric,9,5.0,41596.0,41831.0,89466.0,74353.0,38606.0,51435.0,39954.0,41979.0,25208.0,18277.0
2026-05-06 16:29:04.877856,849000,1609507208283331,4808195520,0.509472,-0.687104,-0.363072,-1.82,-62.34375,27.2475,-23.28,-8.672001,-95.352005,concentric,9,5.0,41596.0,41831.0,89466.0,74353.0,38606.0,51435.0,39954.0,41979.0,25208.0,18277.0
2026-05-06 16:29:04.892436,849001,1609507208297878,4808210439,0.509472,-0.687104,-0.363072,0.42,-64.277504,29.855,-23.28,-8.672001,-95.352005,concentric,9,5.0,41596.0,41831.0,89466.0,74353.0,38606.0,51435.0,39954.0,41979.0,25208.0,18277.0
2026-05-06 16:29:04.922530,849012,1609507208306795,4808219057,0.482144,-0.657824,-0.407968,-1.1725,-65.00375,29.715,-22.848001,-9.136001,-96.568,concentric,9,5.0,42738.0,43020.0,89893.0,74115.0,39732.0,52722.0,40248.0,41828.0,25740.0,18788.0
2026-05-06 16:29:04.925210,849013,1609507208321515,4808234162,0.452864,-0.733952,-0.450912,0.63875,-65.835,28.5425,-22.088001,-7.960001,-96.68001,concentric,9,5.0,42738.0,43020.0,89893.0,74115.0,39732.0,52722.0,40248.0,41828.0,25740.0,18788.0
2026-05-06 16:29:04.927702,849014,1609507208330438,4808242985,0.452864,-0.733952,-0.450912,2.5025,-66.5875,29.3825,-22.088001,-7.960001,-96.68001,concentric,9,5.0,42738.0,43020.0,89893.0,74115.0,39732.0,52722.0,40248.0,41828.0,25740.0,18788.0
2026-05-06 16:29:04.930223,849015,1609507208339462,4808251739,0.441152,-0.720288,-0.437248,2.61625,-67.38375,31.6225,-22.088001,-6.992,-98.408005,concentric,9,5.0,42738.0,43020.0,89893.0,74115.0,39732.0,52722.0,40248.0,41828.0,25740.0,18788.0
2026-05-06 16:29:04.955055,849016,1609507208354113,4808266676,0.441152,-0.720288,-0.437248,4.34875,-68.32875,34.20375,-20.744001,-6.992,-98.408005,concentric,9,5.0,42738.0,43020.0,89893.0,74115.0,39732.0,52722.0,40248.0,41828.0,25740.0,18788.0
2026-05-06 16:29:04.957636,849017,1609507208363168,4808275391,0.417728,-0.651968,-0.427488,7.02625,-69.055,36.4175,-19.76,-7.344,-97.952,concentric,9,5.0,42738.0,43020.0,89893.0,74115.0,39732.0,52722.0,40248.0,41828.0,25740.0,18788.0
2026-05-06 16:29:04.971620,849018,1609507208377689,4808290344,0.417728,-0.651968,-0.427488,5.355,-69.46625,37.07375,-19.76,-7.344,-97.952,concentric,9,5.0,42738.0,43020.0,89893.0,74115.0,39732.0,52722.0,40248.0,41828.0,25740.0,18788.0
2026-05-06 16:29:04.977840,849019,1609507208386616,4808299019,0.38064,-0.679296,-0.441152,5.87125,-70.7525,38.17625,-18.928001,-6.128,-98.184006,concentric,9,5.0,42738.0,43020.0,89893.0,74115.0,39732.0,52722.0,40248.0,41828.0,25740.0,18788.0
2026-05-06 16:29:04.986590,849020,1609507208395562,4808307878,0.38064,-0.679296,-0.441152,7.23625,-71.32125,39.8475,-18.928001,-6.128,-98.184006,concentric,9,5.0,42738.0,43020.0,89893.0,74115.0,39732.0,52722.0,40248.0,41828.0,25740.0,18788.0
2026-05-06 16:29:05.050359,849031,1609507208410593,4808322895,0.343552,-0.745664,-0.46848,4.96125,-72.9925,41.2475,-17.848001,-6.528,-98.728004,concentric,9,5.0,44043.0,44281.0,90567.0,74656.0,41068.0,54156.0,40658.0,42123.0,26308.0,19290.0
2026-05-06 16:29:05.052837,849032,1609507208419554,4808331707,0.343552,-0.792512,-0.511424,5.1275,-73.675,43.56625,-17.848001,-6.528,-98.728004,concentric,9,5.0,44043.0,44281.0,90567.0,74656.0,41068.0,54156.0,40658.0,42123.0,26308.0,19290.0
2026-05-06 16:29:05.055136,849033,1609507208434293,4808346676,0.345504,-0.794464,-0.511424,6.7725,-74.40125,44.388752,-16.592001,-7.424,-98.896,concentric,9,5.0,44043.0,44281.0,90567.0,74656.0,41068.0,54156.0,40658.0,42123.0,26308.0,19290.0
2026-05-06 16:29:05.060321,849034,1609507208443273,4808355438,0.347456,-0.724192,-0.489952,8.49625,-76.29125,44.9925,-15.016001,-5.272,-99.69601,concentric,9,5.0,44043.0,44281.0,90567.0,74656.0,41068.0,54156.0,40658.0,42123.0,26308.0,19290.0
2026-05-06 16:29:05.062852,849035,1609507208452234,4808364138,0.347456,-0.724192,-0.489952,13.1075,-77.76125,46.43625,-15.016001,-5.272,-99.69601,concentric,9,5.0,44043.0,44281.0,90567.0,74656.0,41068.0,54156.0,40658.0,42123.0,26308.0,19290.0
2026-05-06 16:29:05.065348,849036,1609507208466747,4808379034,0.32208,-0.759328,-0.548512,16.94,-79.4675,46.94375,-14.112,-3.92,-99.880005,concentric,9,5.0,44043.0,44281.0,90567.0,74656.0,41068.0,54156.0,40658.0,42123.0,26308.0,19290.0
2026-05-06 16:29:05.067805,849037,1609507208475676,4808387972,0.32208,-0.759328,-0.548512,13.81625,-79.33625,46.75125,-14.112,-3.92,-99.880005,concentric,9,5.0,44043.0,44281.0,90567.0,74656.0,41068.0,54156.0,40658.0,42123.0,26308.0,19290.0
2026-05-06 16:29:05.104887,849038,1609507208490165,4808402911,0.2928,-0.85888,-0.62464,7.315,-77.98,46.27,-12.728001,-7.32,-98.4,concentric,9,5.0,44043.0,44281.0,90567.0,74656.0,41068.0,54156.0,40658.0,42123.0,26308.0,19290.0
2026-05-06 16:29:05.136492,849039,1609507208499075,4808411675,0.2928,-0.85888,-0.62464,1.23375,-76.65,45.263752,-12.728001,-7.32,-98.4,concentric,9,5.0,44043.0,44281.0,90567.0,74656.0,41068.0,54156.0,40658.0,42123.0,26308.0,19290.0
2026-05-06 16:29:05.166607,849050,1609507208513831,4808424622,0.316224,-0.874496,-0.601216,2.70375,-75.53,44.14375,-11.400001,-3.312,-101.8,concentric,9,5.0,45088.0,45485.0,91773.0,76344.0,42140.0,55456.0,41282.0,43012.0,26710.0,19744.0
2026-05-06 16:29:05.169147,849051,1609507208523108,4808435380,0.290848,-0.84912,-0.620736,11.8125,-73.465004,44.66875,-10.288,-2.648,-101.75201,concentric,9,5.0,45088.0,45485.0,91773.0,76344.0,42140.0,55456.0,41282.0,43012.0,26710.0,19744.0
2026-05-06 16:29:05.175946,849052,1609507208532076,4808444110,0.290848,-0.84912,-0.620736,17.33375,-71.05,45.99875,-10.288,-2.648,-101.75201,concentric,9,5.0,45088.0,45485.0,91773.0,76344.0,42140.0,55456.0,41282.0,43012.0,26710.0,19744.0
2026-05-06 16:29:05.176396,849053,1609507208546555,4808459074,0.230336,-0.798368,-0.597312,16.275,-68.0925,47.53875,-9.360001,-2.544,-101.728004,concentric,9,5.0,45088.0,45485.0,91773.0,76344.0,42140.0,55456.0,41282.0,43012.0,26710.0,19744.0
2026-05-06 16:29:05.176816,849054,1609507208555462,4808467829,0.230336,-0.798368,-0.597312,9.0475,-63.875,47.355,-9.360001,-2.544,-101.728004,concentric,9,5.0,45088.0,45485.0,91773.0,76344.0,42140.0,55456.0,41282.0,43012.0,26710.0,19744.0
2026-05-06 16:29:05.178866,849055,1609507208570202,4808482789,0.187392,-0.841312,-0.687104,-1.0325,-58.24875,46.1475,-8.696,-4.024,-100.688,concentric,9,5.0,45088.0,45485.0,91773.0,76344.0,42140.0,55456.0,41282.0,43012.0,26710.0,19744.0
2026-05-06 16:29:05.184769,849056,1609507208579173,4808491589,0.187392,-0.841312,-0.687104,-11.43625,-53.08625,45.263752,-8.696,-4.024,-100.688,concentric,9,5.0,45088.0,45485.0,91773.0,76344.0,42140.0,55456.0,41282.0,43012.0,26710.0,19744.0
2026-05-06 16:29:05.184854,849057,1609507208588133,4808500305,0.1952,-0.968192,-0.69296,-24.01875,-49.13125,42.48125,-7.208,-4.192,-100.94401,concentric,9,5.0,45088.0,45485.0,91773.0,76344.0,42140.0,55456.0,41282.0,43012.0,26710.0,19744.0
2026-05-06 16:29:05.192792,849058,1609507208602856,4808515177,0.242048,-0.993568,-0.648064,-31.2375,-45.99875,38.5175,-6.976,-4.8,-101.30401,concentric,9,5.0,45088.0,45485.0,91773.0,76344.0,42140.0,55456.0,41282.0,43012.0,26710.0,19744.0
2026-05-06 16:29:05.229001,849069,1609507208612512,4808524109,0.242048,-0.993568,-0.648064,-26.74,-42.665,35.35875,-6.976,-4.8,-101.30401,concentric,9,5.0,45642.0,46033.0,92942.0,77798.0,42654.0,55992.0,41851.0,43776.0,26914.0,19939.0
2026-05-06 16:29:05.231571,849070,1609507208627137,4808539057,0.183488,-0.96624,-0.64416,-19.15375,-38.4125,32.6375,-6.448,-4.528,-101.064,concentric,9,5.0,45642.0,46033.0,92942.0,77798.0,42654.0,55992.0,41851.0,43776.0,26914.0,19939.0
2026-05-06 16:29:05.234107,849071,1609507208636042,4808547789,0.183488,-0.96624,-0.64416,-14.9275,-34.09,30.03875,-6.448,-4.528,-101.064,concentric,9,5.0,45642.0,46033.0,92942.0,77798.0,42654.0,55992.0,41851.0,43776.0,26914.0,19939.0
2026-05-06 16:29:05.236585,849072,1609507208644990,4808556574,0.113216,-0.874496,-0.669536,-12.39,-30.12625,27.83375,-5.92,-5.68,-100.032005,concentric,9,5.0,45642.0,46033.0,92942.0,77798.0,42654.0,55992.0,41851.0,43776.0,26914.0,19939.0
2026-05-06 16:29:05.250281,849073,1609507208659493,4808571482,0.113216,-0.874496,-0.669536,-9.8175,-27.79875,25.655,-5.92,-5.68,-100.032005,concentric,9,5.0,45642.0,46033.0,92942.0,77798.0,42654.0,55992.0,41851.0,43776.0,26914.0,19939.0
2026-05-06 16:29:05.259021,849074,1609507208668520,4808580241,0.08784,-0.835456,-0.665632,-12.88,-24.75375,23.3625,-5.424,-2.968,-101.408005,concentric,9,5.0,45642.0,46033.0,92942.0,77798.0,42654.0,55992.0,41851.0,43776.0,26914.0,19939.0
2026-05-06 16:29:05.276496,849075,1609507208683262,4808595239,0.089792,-0.872544,-0.65392,-17.99875,-22.4175,21.91,-5.12,-2.952,-101.77601,concentric,9,5.0,45642.0,46033.0,92942.0,77798.0,42654.0,55992.0,41851.0,43776.0,26914.0,19939.0
2026-05-06 16:29:05.283838,849076,1609507208692297,4808604106,0.089792,-0.872544,-0.65392,-21.455,-20.8425,20.3,-5.12,-2.952,-101.77601,concentric,9,5.0,45642.0,46033.0,92942.0,77798.0,42654.0,55992.0,41851.0,43776.0,26914.0,19939.0
2026-05-06 16:29:05.290090,849077,1609507208701326,4808612936,0.089792,-0.872544,-0.65392,-21.49875,-19.11875,17.33375,-5.12,-2.952,-101.77601,concentric,9,5.0,45642.0,46033.0,92942.0,77798.0,42654.0,55992.0,41851.0,43776.0,26914.0,19939.0
2026-05-06 16:29:05.326587,849088,1609507208716033,4808628004,0.08784,-0.89792,-0.640256,-17.4475,-18.26125,14.4025,-4.744,-5.136,-103.88801,concentric,9,5.0,46122.0,46331.0,93608.0,78433.0,43040.0,56197.0,42150.0,44044.0,27131.0,20044.0
2026-05-06 16:29:05.329048,849089,1609507208725031,4808636742,0.111264,-0.835456,-0.60512,-9.10875,-17.68375,14.84,-4.256,-5.168,-101.992004,concentric,9,5.0,46122.0,46331.0,93608.0,78433.0,43040.0,56197.0,42150.0,44044.0,27131.0,20044.0
2026-05-06 16:29:05.331558,849090,1609507208739596,4808651765,0.111264,-0.835456,-0.60512,-2.38,-16.4675,14.8925,-4.256,-5.168,-101.992004,concentric,9,5.0,46122.0,46331.0,93608.0,78433.0,43040.0,56197.0,42150.0,44044.0,27131.0,20044.0
2026-05-06 16:29:05.340224,849091,1609507208748523,4808660582,0.099552,-0.774944,-0.669536,-0.5775,-14.8575,14.8225,-4.152,-5.096,-102.09601,concentric,9,5.0,46122.0,46331.0,93608.0,78433.0,43040.0,56197.0,42150.0,44044.0,27131.0,20044.0
2026-05-06 16:29:05.354122,849092,1609507208763052,4808675545,0.05856,-0.815936,-0.640256,0.11375,-13.011251,14.14,-3.616,-2.76,-103.744,concentric,9,5.0,46122.0,46331.0,93608.0,78433.0,43040.0,56197.0,42150.0,44044.0,27131.0,20044.0
2026-05-06 16:29:05.362858,849093,1609507208772126,4808684299,0.05856,-0.815936,-0.640256,-5.285,-11.57625,11.515,-3.616,-2.76,-103.744,concentric,9,5.0,46122.0,46331.0,93608.0,78433.0,43040.0,56197.0,42150.0,44044.0,27131.0,20044.0
2026-05-06 16:29:05.371653,849094,1609507208781054,4808693020,0.05856,-0.815936,-0.640256,-8.37375,-10.45625,10.84125,-3.616,-2.76,-103.744,concentric,9,5.0,46122.0,46331.0,93608.0,78433.0,43040.0,56197.0,42150.0,44044.0,27131.0,20044.0
2026-05-06 16:29:05.389980,849095,1609507208795637,4808707931,0.072224,-0.876448,-0.646112,-5.4775,-9.765,11.27,-3.528,-3.176,-103.616005,concentric,9,5.0,46122.0,46331.0,93608.0,78433.0,43040.0,56197.0,42150.0,44044.0,27131.0,20044.0
2026-05-06 16:29:05.396301,849096,1609507208804562,4808716656,0.099552,-0.876448,-0.640256,-1.12,-8.75,10.64,-3.576,-3.824,-103.408005,concentric,9,5.0,46122.0,46331.0,93608.0,78433.0,43040.0,56197.0,42150.0,44044.0,27131.0,20044.0
2026-05-06 16:29:05.423790,849107,1609507208819667,4808732228,0.099552,-0.876448,-0.640256,4.0425,-7.09625,10.47375,-3.576,-3.824,-103.408005,concentric,9,5.0,46301.0,46452.0,93603.0,78807.0,43192.0,56333.0,42149.0,44225.0,27202.0,20089.0
2026-05-06 16:29:05.426467,849108,1609507208828655,4808740967,0.101504,-0.854976,-0.610976,8.6625,-5.41625,9.77375,-3.32,-3.272,-102.88801,concentric,9,5.0,46301.0,46452.0,93603.0,78807.0,43192.0,56333.0,42149.0,44225.0,27202.0,20089.0
2026-05-06 16:29:05.428931,849109,1609507208837669,4808749701,0.101504,-0.854976,-0.610976,10.71875,-4.54125,8.32125,-3.32,-3.272,-102.88801,concentric,9,5.0,46301.0,46452.0,93603.0,78807.0,43192.0,56333.0,42149.0,44225.0,27202.0,20089.0
2026-05-06 16:29:05.442849,849110,1609507208852195,4808764699,0.081984,-0.854976,-0.618784,8.9775,-4.06875,7.25375,-3.272,-2.744,-102.952,concentric,9,5.0,46301.0,46452.0,93603.0,78807.0,43192.0,56333.0,42149.0,44225.0,27202.0,20089.0
2026-05-06 16:29:05.484477,849111,1609507208861165,4808773412,0.081984,-0.854976,-0.618784,6.7725,-4.29625,7.8575,-3.272,-2.744,-102.952,concentric,9,5.0,46301.0,46452.0,93603.0,78807.0,43192.0,56333.0,42149.0,44225.0,27202.0,20089.0
2026-05-06 16:29:05.499056,849112,1609507208875757,4808788440,0.095648,-0.864736,-0.612928,5.15375,-4.0425,8.47875,-3.232,-3.224,-103.592,concentric,9,5.0,46301.0,46452.0,93603.0,78807.0,43192.0,56333.0,42149.0,44225.0,27202.0,20089.0
2026-05-06 16:29:05.501569,849113,1609507208884687,4808797132,0.083936,-0.901824,-0.61488,2.905,-3.045,6.79875,-2.784,-2.992,-102.872,concentric,9,5.0,46301.0,46452.0,93603.0,78807.0,43192.0,56333.0,42149.0,44225.0,27202.0,20089.0
2026-05-06 16:29:05.504052,849114,1609507208893628,4808805926,0.083936,-0.901824,-0.61488,1.70625,-2.03,4.865,-2.784,-2.992,-102.872,concentric,9,5.0,46301.0,46452.0,93603.0,78807.0,43192.0,56333.0,42149.0,44225.0,27202.0,20089.0
2026-05-06 16:29:05.506263,849115,1609507208908114,4808820823,0.070272,-0.915488,-0.62464,2.56375,-0.98,3.745,-2.848,-2.824,-103.4,concentric,9,5.0,46301.0,46452.0,93603.0,78807.0,43192.0,56333.0,42149.0,44225.0,27202.0,20089.0
2026-05-06 16:29:05.537894,849126,1609507208917332,4808829656,0.070272,-0.915488,-0.62464,4.33125,-0.34125,2.24,-2.848,-2.824,-103.4,concentric,9,5.0,46443.0,46678.0,93641.0,79085.0,43355.0,56579.0,42175.0,44342.0,27262.0,20176.0
2026-05-06 16:29:05.540000,849127,1609507208932004,4808844605,0.093696,-0.919392,-0.626592,3.78,0.0525,0.76125,-3.36,-4.728,-102.024,concentric,9,5.0,46443.0,46678.0,93641.0,79085.0,43355.0,56579.0,42175.0,44342.0,27262.0,20176.0
2026-05-06 16:29:05.542572,849128,1609507208941010,4808853342,0.093696,-0.919392,-0.626592,5.18,0.32375,0.51625,-3.36,-4.728,-102.024,concentric,9,5.0,46443.0,46678.0,93641.0,79085.0,43355.0,56579.0,42175.0,44342.0,27262.0,20176.0
2026-05-06 16:29:05.551534,849129,1609507208955751,4808868331,0.101504,-0.882304,-0.612928,6.23875,1.33,0.79625,-3.12,-3.632,-102.008,concentric,9,5.0,46443.0,46678.0,93641.0,79085.0,43355.0,56579.0,42175.0,44342.0,27262.0,20176.0
2026-05-06 16:29:05.553997,849130,1609507208964822,4808877111,0.074176,-0.876448,-0.62464,5.6875,2.6775,-0.14,-3.2,-2.448,-100.768005,concentric,9,5.0,46443.0,46678.0,93641.0,79085.0,43355.0,56579.0,42175.0,44342.0,27262.0,20176.0
2026-05-06 16:29:05.567746,849131,1609507208973800,4808885891,0.074176,-0.876448,-0.62464,3.815,4.36625,-1.89875,-3.2,-2.448,-100.768005,concentric,9,5.0,46443.0,46678.0,93641.0,79085.0,43355.0,56579.0,42175.0,44342.0,27262.0,20176.0
2026-05-06 16:29:05.580112,849132,1609507208988315,4808900811,0.074176,-0.874496,-0.60512,0.32375,5.32875,-3.40375,-3.456,-2.152,-103.28001,concentric,9,5.0,46443.0,46678.0,93641.0,79085.0,43355.0,56579.0,42175.0,44342.0,27262.0,20176.0
2026-05-06 16:29:05.586925,849133,1609507208997246,4808909533,0.074176,-0.874496,-0.60512,-3.78,5.985,-3.63125,-3.456,-2.152,-103.28001,concentric,9,5.0,46443.0,46678.0,93641.0,79085.0,43355.0,56579.0,42175.0,44342.0,27262.0,20176.0
2026-05-06 16:29:05.627855,849144,1609507209012137,4808924903,0.091744,-0.894016,-0.640256,-5.6525,6.43125,-4.71625,-3.472,-5.456,-100.936005,eccentric,9,5.0,46654.0,46904.0,93713.0,79389.0,43537.0,56799.0,42235.0,44509.0,27372.0,20265.0
2026-05-06 16:29:05.630326,849145,1609507209021147,4808933756,0.091744,-0.894016,-0.640256,-4.41875,7.0875,-5.13625,-3.472,-5.456,-100.936005,eccentric,9,5.0,46654.0,46904.0,93713.0,79389.0,43537.0,56799.0,42235.0,44509.0,27372.0,20265.0
2026-05-06 16:29:05.632812,849146,1609507209030355,4808942533,0.054656,-0.886208,-0.607072,-2.45875,7.7525,-6.23875,-3.328,-2.256,-103.22401,eccentric,9,5.0,46654.0,46904.0,93713.0,79389.0,43537.0,56799.0,42235.0,44509.0,27372.0,20265.0
2026-05-06 16:29:05.635325,849147,1609507209044933,4808957536,0.064416,-0.84912,-0.628544,-1.02375,8.12875,-7.77875,-3.968,-1.968,-102.664,eccentric,9,5.0,46654.0,46904.0,93713.0,79389.0,43537.0,56799.0,42235.0,44509.0,27372.0,20265.0
2026-05-06 16:29:05.649106,849148,1609507209053946,4808966291,0.064416,-0.84912,-0.628544,2.77375,8.645,-7.8925,-3.968,-1.968,-102.664,eccentric,9,5.0,46654.0,46904.0,93713.0,79389.0,43537.0,56799.0,42235.0,44509.0,27372.0,20265.0
2026-05-06 16:29:05.658453,849149,1609507209068466,4808979219,0.06832,-0.856928,-0.57584,3.85,8.82,-8.93375,-4.176,-2.016,-103.01601,eccentric,9,5.0,46654.0,46904.0,93713.0,79389.0,43537.0,56799.0,42235.0,44509.0,27372.0,20265.0
2026-05-06 16:29:05.687464,849150,1609507209077638,4808990089,0.06832,-0.856928,-0.57584,-0.945,9.02125,-9.93125,-4.176,-2.016,-103.01601,eccentric,9,5.0,46654.0,46904.0,93713.0,79389.0,43537.0,56799.0,42235.0,44509.0,27372.0,20265.0
2026-05-06 16:29:05.690010,849151,1609507209086549,4808998800,0.070272,-0.860832,-0.587552,-4.5325,9.63375,-10.43,-4.176,-2.08,-103.312004,eccentric,9,5.0,46654.0,46904.0,93713.0,79389.0,43537.0,56799.0,42235.0,44509.0,27372.0,20265.0
2026-05-06 16:29:05.692418,849152,1609507209101065,4809013714,0.070272,-0.860832,-0.587552,-3.43875,9.345,-11.042501,-4.176,-2.08,-103.312004,eccentric,9,5.0,46654.0,46904.0,93713.0,79389.0,43537.0,56799.0,42235.0,44509.0,27372.0,20265.0
2026-05-06 16:29:05.704003,849153,1609507209109973,4809022584,0.066368,-0.854976,-0.62464,-0.77875,9.3275,-11.9,-4.456,-3.8,-101.864006,eccentric,9,5.0,46654.0,46904.0,93713.0,79389.0,43537.0,56799.0,42235.0,44509.0,27372.0,20265.0
2026-05-06 16:29:05.734090,849164,1609507209124627,4809035688,0.066368,-0.854976,-0.62464,2.42375,9.5025,-12.74,-4.456,-3.8,-101.864006,eccentric,9,5.0,46677.0,46849.0,93802.0,79541.0,43540.0,56751.0,42244.0,44597.0,27410.0,20242.0
2026-05-06 16:29:05.736600,849165,1609507209133894,4809046538,0.062464,-0.841312,-0.620736,4.24375,10.05375,-14.00875,-4.568,-2.184,-105.216,eccentric,9,5.0,46677.0,46849.0,93802.0,79541.0,43540.0,56751.0,42244.0,44597.0,27410.0,20242.0
2026-05-06 16:29:05.739001,849166,1609507209142962,4809055248,0.062464,-0.841312,-0.620736,4.55875,11.05125,-14.30625,-4.568,-2.184,-105.216,eccentric,9,5.0,46677.0,46849.0,93802.0,79541.0,43540.0,56751.0,42244.0,44597.0,27410.0,20242.0
2026-05-06 16:29:05.747856,849167,1609507209157551,4809070231,0.083936,-0.851072,-0.618784,4.025,12.50375,-14.51625,-4.608,-1.944,-103.088005,eccentric,9,5.0,46677.0,46849.0,93802.0,79541.0,43540.0,56751.0,42244.0,44597.0,27410.0,20242.0
2026-05-06 16:29:05.759049,849168,1609507209166456,4809078938,0.099552,-0.8784,-0.6344,2.05625,13.7725,-14.7175,-5.088,-5.44,-99.272,eccentric,9,5.0,46677.0,46849.0,93802.0,79541.0,43540.0,56751.0,42244.0,44597.0,27410.0,20242.0
2026-05-06 16:29:05.772577,849169,1609507209180959,4809091797,0.099552,-0.8784,-0.6344,1.09375,15.1025,-15.4525,-5.088,-5.44,-99.272,eccentric,9,5.0,46677.0,46849.0,93802.0,79541.0,43540.0,56751.0,42244.0,44597.0,27410.0,20242.0
2026-05-06 16:29:05.781542,849170,1609507209190210,4809102686,0.11712,-0.9272,-0.607072,1.74125,16.6425,-17.2025,-5.232,-1.784,-102.96001,eccentric,9,5.0,46677.0,46849.0,93802.0,79541.0,43540.0,56751.0,42244.0,44597.0,27410.0,20242.0
2026-05-06 16:29:05.794044,849171,1609507209204871,4809115635,0.11712,-0.9272,-0.607072,2.44125,18.71625,-19.74,-5.232,-1.784,-102.96001,eccentric,9,5.0,46677.0,46849.0,93802.0,79541.0,43540.0,56751.0,42244.0,44597.0,27410.0,20242.0
2026-05-06 16:29:05.878951,849183,1609507209214400,4809126465,0.144448,-0.913536,-0.65392,2.2575,21.245,-21.56875,-5.784,-1.92,-102.68001,eccentric,9,5.0,46617.0,46825.0,93850.0,79765.0,43516.0,56701.0,42245.0,44697.0,27385.0,20224.0
2026-05-06 16:29:05.881440,849184,1609507209223464,4809135252,0.144448,-0.913536,-0.65392,3.43,24.35125,-21.735,-5.784,-1.92,-102.68001,eccentric,9,5.0,46617.0,46825.0,93850.0,79765.0,43516.0,56701.0,42245.0,44697.0,27385.0,20224.0
2026-05-06 16:29:05.883949,849185,1609507209238013,4809150210,0.18544,-0.921344,-0.630496,0.93625,26.41625,-23.695,-6.392,-3.696,-101.296005,eccentric,9,5.0,46617.0,46825.0,93850.0,79765.0,43516.0,56701.0,42245.0,44697.0,27385.0,20224.0
2026-05-06 16:29:05.886535,849186,1609507209246939,4809159058,0.181536,-0.94672,-0.622688,-4.19125,27.93,-25.515,-6.904,-2.144,-102.592,eccentric,9,5.0,46617.0,46825.0,93850.0,79765.0,43516.0,56701.0,42245.0,44697.0,27385.0,20224.0
2026-05-06 16:29:05.888974,849187,1609507209261433,4809173976,0.181536,-0.94672,-0.622688,-6.71125,29.82875,-27.43125,-6.904,-2.144,-102.592,eccentric,9,5.0,46617.0,46825.0,93850.0,79765.0,43516.0,56701.0,42245.0,44697.0,27385.0,20224.0
2026-05-06 16:29:05.895281,849188,1609507209270320,4809182789,0.183488,-0.942816,-0.618784,-5.67875,31.01875,-29.88125,-7.696001,-2.976,-102.07201,eccentric,9,5.0,46617.0,46825.0,93850.0,79765.0,43516.0,56701.0,42245.0,44697.0,27385.0,20224.0
2026-05-06 16:29:05.897739,849189,1609507209279243,4809191489,0.183488,-0.942816,-0.618784,-2.3975,32.235,-32.29625,-7.696001,-2.976,-102.07201,eccentric,9,5.0,46617.0,46825.0,93850.0,79765.0,43516.0,56701.0,42245.0,44697.0,27385.0,20224.0
2026-05-06 16:29:05.900320,849190,1609507209294056,4809206504,0.191296,-0.876448,-0.630496,2.5375,33.4075,-33.85375,-8.312,-2.344,-102.344,eccentric,9,5.0,46617.0,46825.0,93850.0,79765.0,43516.0,56701.0,42245.0,44697.0,27385.0,20224.0
2026-05-06 16:29:05.902852,849191,1609507209302967,4809215223,0.191296,-0.876448,-0.630496,6.3,35.315,-35.595,-8.312,-2.344,-102.344,eccentric,9,5.0,46617.0,46825.0,93850.0,79765.0,43516.0,56701.0,42245.0,44697.0,27385.0,20224.0
2026-05-06 16:29:05.930381,849202,1609507209317632,4809230253,0.189344,-0.872544,-0.648064,4.4275,36.68875,-37.72125,-9.056001,-5.12,-99.536,eccentric,9,5.0,46590.0,46699.0,93797.0,79834.0,43459.0,56566.0,42225.0,44757.0,27387.0,20176.0
2026-05-06 16:29:05.932891,849203,1609507209326676,4809238992,0.236192,-0.88816,-0.57584,0.0525,38.78875,-38.15875,-9.056001,-3.072,-101.48,eccentric,9,5.0,46590.0,46699.0,93797.0,79834.0,43459.0,56566.0,42225.0,44757.0,27387.0,20176.0
2026-05-06 16:29:05.935353,849204,1609507209335795,4809247806,0.244,-0.88816,-0.57584,-5.67875,40.6875,-38.71875,-9.280001,-3.192,-101.48,eccentric,9,5.0,46590.0,46699.0,93797.0,79834.0,43459.0,56566.0,42225.0,44757.0,27387.0,20176.0
2026-05-06 16:29:05.941616,849205,1609507209350329,4809262954,0.267424,-0.89792,-0.59536,-6.2125,41.825,-39.13,-10.072001,-3.104,-101.704,eccentric,9,5.0,46590.0,46699.0,93797.0,79834.0,43459.0,56566.0,42225.0,44757.0,27387.0,20176.0
2026-05-06 16:29:05.950182,849206,1609507209359265,4809271757,0.267424,-0.89792,-0.59536,-4.5675,42.39375,-40.9325,-10.072001,-3.104,-101.704,eccentric,9,5.0,46590.0,46699.0,93797.0,79834.0,43459.0,56566.0,42225.0,44757.0,27387.0,20176.0
2026-05-06 16:29:05.983961,849207,1609507209373943,4809286679,0.298656,-0.89792,-0.587552,-3.29875,44.1525,-42.7175,-10.792001,-3.016,-101.04001,eccentric,9,5.0,46590.0,46699.0,93797.0,79834.0,43459.0,56566.0,42225.0,44757.0,27387.0,20176.0
2026-05-06 16:29:05.986459,849208,1609507209383004,4809295412,0.298656,-0.89792,-0.587552,0.77875,45.80625,-43.84625,-10.792001,-3.016,-101.04001,eccentric,9,5.0,46590.0,46699.0,93797.0,79834.0,43459.0,56566.0,42225.0,44757.0,27387.0,20176.0
2026-05-06 16:29:05.989002,849209,1609507209391921,4809304111,0.298656,-0.86864,-0.573888,2.6775,47.5475,-44.5375,-11.496,-3.584,-100.73601,eccentric,9,5.0,46590.0,46699.0,93797.0,79834.0,43459.0,56566.0,42225.0,44757.0,27387.0,20176.0
2026-05-06 16:29:05.997804,849210,1609507209406581,4809319035,0.298656,-0.86864,-0.573888,4.41875,48.2125,-46.08625,-11.496,-3.584,-100.73601,eccentric,9,5.0,46590.0,46699.0,93797.0,79834.0,43459.0,56566.0,42225.0,44757.0,27387.0,20176.0
2026-05-06 16:29:06.029072,849221,1609507209415768,4809327837,0.281088,-0.806176,-0.519232,4.06,47.9675,-46.05125,-12.76,-5.424,-99.136,eccentric,9,5.0,46746.0,46774.0,93746.0,80268.0,43529.0,56635.0,42213.0,45015.0,27488.0,20235.0
2026-05-06 16:29:06.031594,849222,1609507209430470,4809342904,0.296704,-0.778848,-0.609024,-0.70875,48.65,-44.3275,-13.624001,-5.496,-98.992004,eccentric,9,5.0,46746.0,46774.0,93746.0,80268.0,43529.0,56635.0,42213.0,45015.0,27488.0,20235.0
2026-05-06 16:29:06.034105,849223,1609507209439444,4809351621,0.296704,-0.778848,-0.609024,-5.67875,49.98,-44.8175,-13.624001,-5.496,-98.992004,eccentric,9,5.0,46746.0,46774.0,93746.0,80268.0,43529.0,56635.0,42213.0,45015.0,27488.0,20235.0
2026-05-06 16:29:06.048799,849224,1609507209454090,4809366543,0.343552,-0.905728,-0.593408,-10.2725,52.28125,-49.02625,-13.992001,-4.744,-100.36001,eccentric,9,5.0,46746.0,46774.0,93746.0,80268.0,43529.0,56635.0,42213.0,45015.0,27488.0,20235.0
2026-05-06 16:29:06.055118,849225,1609507209463132,4809375275,0.343552,-0.905728,-0.593408,-14.11375,55.8425,-50.6625,-13.992001,-4.744,-100.36001,eccentric,9,5.0,46746.0,46774.0,93746.0,80268.0,43529.0,56635.0,42213.0,45015.0,27488.0,20235.0
2026-05-06 16:29:06.061430,849226,1609507209472041,4809384055,0.37088,-0.864736,-0.49776,-14.21,58.2575,-51.10875,-15.584001,-5.672,-98.136,eccentric,9,5.0,46746.0,46774.0,93746.0,80268.0,43529.0,56635.0,42213.0,45015.0,27488.0,20235.0
2026-05-06 16:29:06.095273,849227,1609507209486632,4809398966,0.37088,-0.864736,-0.49776,-4.36625,57.84625,-51.9575,-15.584001,-5.672,-98.136,eccentric,9,5.0,46746.0,46774.0,93746.0,80268.0,43529.0,56635.0,42213.0,45015.0,27488.0,20235.0
2026-05-06 16:29:06.097854,849228,1609507209495568,4809407683,0.368928,-0.710528,-0.49776,3.40375,56.37625,-50.93375,-16.688002,-6.624001,-98.600006,eccentric,9,5.0,46746.0,46774.0,93746.0,80268.0,43529.0,56635.0,42213.0,45015.0,27488.0,20235.0
2026-05-06 16:29:06.100131,849229,1609507209510074,4809422626,0.355264,-0.733952,-0.523136,4.48875,56.67375,-50.74125,-17.28,-5.088,-99.07201,eccentric,9,5.0,46746.0,46774.0,93746.0,80268.0,43529.0,56635.0,42213.0,45015.0,27488.0,20235.0
2026-05-06 16:29:06.133936,849240,1609507209519219,4809431430,0.355264,-0.733952,-0.523136,-0.35875,58.135002,-51.9925,-17.28,-5.088,-99.07201,eccentric,9,5.0,46788.0,46759.0,93475.0,80894.0,43448.0,56575.0,42030.0,45412.0,27574.0,20249.0
2026-05-06 16:29:06.139173,849241,1609507209528209,4809440189,0.402112,-0.833504,-0.542656,-8.155,61.39,-52.4475,-17.28,-7.136,-97.408005,eccentric,9,5.0,46788.0,46759.0,93475.0,80894.0,43448.0,56575.0,42030.0,45412.0,27574.0,20249.0
2026-05-06 16:29:06.139323,849242,1609507209542781,4809455271,0.402112,-0.833504,-0.542656,-13.15125,65.2225,-51.12625,-18.264,-6.16,-97.408005,eccentric,9,5.0,46788.0,46759.0,93475.0,80894.0,43448.0,56575.0,42030.0,45412.0,27574.0,20249.0
2026-05-06 16:29:06.142038,849243,1609507209551742,4809464015,0.421632,-0.804224,-0.407968,-11.305,67.71625,-51.3975,-19.712002,-6.304,-96.90401,eccentric,9,5.0,46788.0,46759.0,93475.0,80894.0,43448.0,56575.0,42030.0,45412.0,27574.0,20249.0
2026-05-06 16:29:06.175380,849244,1609507209566242,4809478948,0.421632,-0.804224,-0.407968,-9.12625,66.84125,-51.42375,-19.712002,-6.304,-96.90401,eccentric,9,5.0,46788.0,46759.0,93475.0,80894.0,43448.0,56575.0,42030.0,45412.0,27574.0,20249.0
2026-05-06 16:29:06.177627,849245,1609507209575196,4809487731,0.447008,-0.60512,-0.411872,-1.19875,63.2975,-49.875,-20.384,-6.752,-97.200005,eccentric,9,5.0,46788.0,46759.0,93475.0,80894.0,43448.0,56575.0,42030.0,45412.0,27574.0,20249.0
2026-05-06 16:29:06.180128,849246,1609507209589695,4809500604,0.3904,-0.6832,-0.491904,-1.16375,61.04875,-50.9425,-21.152,-7.496,-96.68001,eccentric,9,5.0,46788.0,46759.0,93475.0,80894.0,43448.0,56575.0,42030.0,45412.0,27574.0,20249.0
2026-05-06 16:29:06.207449,849247,1609507209599075,4809511409,0.3904,-0.6832,-0.491904,-6.7025,60.8125,-51.96625,-21.152,-7.496,-96.68001,eccentric,9,5.0,46788.0,46759.0,93475.0,80894.0,43448.0,56575.0,42030.0,45412.0,27574.0,20249.0
2026-05-06 16:29:06.232720,849248,1609507209608026,4809520199,0.3904,-0.6832,-0.491904,-17.045,62.510002,-50.44375,-21.152,-7.496,-96.68001,eccentric,9,5.0,46788.0,46759.0,93475.0,80894.0,43448.0,56575.0,42030.0,45412.0,27574.0,20249.0
2026-05-06 16:29:06.266484,849259,1609507209622730,4809535307,0.44896,-0.776896,-0.47824,-28.9975,64.3825,-49.70875,-22.408,-7.752,-96.688,eccentric,9,5.0,46469.0,46762.0,92860.0,82123.0,43132.0,56570.0,41677.0,46155.0,27498.0,20258.0
2026-05-06 16:29:06.269105,849260,1609507209631673,4809544023,0.472384,-0.706624,-0.388448,-20.65,63.30625,-49.4025,-23.016,-8.360001,-95.976006,eccentric,9,5.0,46469.0,46762.0,92860.0,82123.0,43132.0,56570.0,41677.0,46155.0,27498.0,20258.0
2026-05-06 16:29:06.271585,849261,1609507209646256,4809558940,0.472384,-0.706624,-0.388448,-9.6075,60.541252,-49.8925,-23.016,-8.360001,-95.976006,eccentric,9,5.0,46469.0,46762.0,92860.0,82123.0,43132.0,56570.0,41677.0,46155.0,27498.0,20258.0
2026-05-06 16:29:06.274048,849262,1609507209655285,4809567658,0.47824,-0.5856,-0.386496,-3.03625,57.96875,-49.245,-23.488,-9.360001,-94.90401,eccentric,9,5.0,46469.0,46762.0,92860.0,82123.0,43132.0,56570.0,41677.0,46155.0,27498.0,20258.0
2026-05-06 16:29:06.276562,849263,1609507209664270,4809576522,0.47824,-0.5856,-0.386496,-5.5475,57.77625,-46.62875,-23.488,-9.360001,-94.90401,eccentric,9,5.0,46469.0,46762.0,92860.0,82123.0,43132.0,56570.0,41677.0,46155.0,27498.0,20258.0
2026-05-06 16:29:06.279122,849264,1609507209678792,4809591477,0.466528,-0.59536,-0.413824,-14.93625,57.7675,-44.51125,-24.512001,-13.648001,-92.504005,eccentric,9,5.0,46469.0,46762.0,92860.0,82123.0,43132.0,56570.0,41677.0,46155.0,27498.0,20258.0
2026-05-06 16:29:06.281557,849265,1609507209687765,4809600223,0.466528,-0.59536,-0.413824,-24.43875,58.5025,-42.93625,-24.512001,-13.648001,-92.504005,eccentric,9,5.0,46469.0,46762.0,92860.0,82123.0,43132.0,56570.0,41677.0,46155.0,27498.0,20258.0
2026-05-06 16:29:06.295303,849266,1609507209702272,4809613203,0.50752,-0.650016,-0.368928,-26.15375,58.6425,-41.62375,-25.136002,-12.448001,-93.552,eccentric,9,5.0,46469.0,46762.0,92860.0,82123.0,43132.0,56570.0,41677.0,46155.0,27498.0,20258.0
2026-05-06 16:29:06.328937,849267,1609507209711623,4809623962,0.488,-0.601216,-0.388448,-26.17125,58.2575,-40.39875,-25.960001,-10.896001,-93.496,eccentric,9,5.0,46469.0,46762.0,92860.0,82123.0,43132.0,56570.0,41677.0,46155.0,27498.0,20258.0
2026-05-06 16:29:06.356424,849278,1609507209720696,4809633284,0.488,-0.601216,-0.388448,-22.46125,56.39375,-37.17875,-25.960001,-10.896001,-93.496,eccentric,9,5.0,46008.0,46634.0,92336.0,82772.0,42678.0,56479.0,41389.0,46507.0,27322.0,20219.0
2026-05-06 16:29:06.359070,849279,1609507209735339,4809646134,0.530944,-0.671488,-0.470432,-16.8,54.075,-34.20375,-26.304,-11.192,-92.912,eccentric,9,5.0,46008.0,46634.0,92336.0,82772.0,42678.0,56479.0,41389.0,46507.0,27322.0,20219.0
2026-05-06 16:29:06.361590,849280,1609507209744724,4809656942,0.530944,-0.671488,-0.470432,-17.675,54.285,-33.03125,-26.304,-11.192,-92.912,eccentric,9,5.0,46008.0,46634.0,92336.0,82772.0,42678.0,56479.0,41389.0,46507.0,27322.0,20219.0
2026-05-06 16:29:06.367871,849281,1609507209759366,4809671969,0.610976,-0.618784,-0.30256,-22.49625,54.73125,-31.08875,-27.064001,-13.840001,-91.568,eccentric,9,5.0,46008.0,46634.0,92336.0,82772.0,42678.0,56479.0,41389.0,46507.0,27322.0,20219.0
2026-05-06 16:29:06.370344,849282,1609507209768297,4809680687,0.610976,-0.618784,-0.30256,-24.52625,53.55,-29.95125,-27.064001,-13.840001,-91.568,eccentric,9,5.0,46008.0,46634.0,92336.0,82772.0,42678.0,56479.0,41389.0,46507.0,27322.0,20219.0
2026-05-06 16:29:06.372828,849283,1609507209777278,4809689404,0.544608,-0.55632,-0.325984,-19.241251,50.1725,-30.00375,-27.832,-14.360001,-93.54401,eccentric,9,5.0,46008.0,46634.0,92336.0,82772.0,42678.0,56479.0,41389.0,46507.0,27322.0,20219.0
2026-05-06 16:29:06.386457,849284,1609507209791779,4809704313,0.55632,-0.65392,-0.38064,-20.39625,47.635,-30.51125,-28.424002,-14.672001,-90.48801,eccentric,9,5.0,46008.0,46634.0,92336.0,82772.0,42678.0,56479.0,41389.0,46507.0,27322.0,20219.0
2026-05-06 16:29:06.391508,849285,1609507209800708,4809713042,0.55632,-0.65392,-0.38064,-19.29375,46.62,-28.455,-28.424002,-14.672001,-90.48801,eccentric,9,5.0,46008.0,46634.0,92336.0,82772.0,42678.0,56479.0,41389.0,46507.0,27322.0,20219.0
2026-05-06 16:29:06.405237,849286,1609507209815223,4809725976,0.687104,-0.694912,-0.396256,-18.305,47.46,-26.6,-28.528002,-13.224001,-91.08,eccentric,9,5.0,46008.0,46634.0,92336.0,82772.0,42678.0,56479.0,41389.0,46507.0,27322.0,20219.0
2026-05-06 16:29:06.446286,849297,1609507209824569,4809736829,0.687104,-0.694912,-0.396256,-19.285,48.29125,-24.6575,-28.528002,-13.224001,-91.08,eccentric,9,5.0,44176.0,45560.0,91324.0,82360.0,40916.0,55356.0,40801.0,46316.0,26370.0,19713.0
2026-05-06 16:29:06.449118,849298,1609507209833707,4809745580,0.630496,-0.55632,-0.290848,-14.84,47.5125,-25.4975,-28.792002,-13.672001,-90.896,eccentric,9,5.0,44176.0,45560.0,91324.0,82360.0,40916.0,55356.0,40801.0,46316.0,26370.0,19713.0
2026-05-06 16:29:06.451658,849299,1609507209848282,4809760517,0.630496,-0.55632,-0.290848,-12.5125,45.01,-26.8275,-28.792002,-13.672001,-90.896,eccentric,9,5.0,44176.0,45560.0,91324.0,82360.0,40916.0,55356.0,40801.0,46316.0,26370.0,19713.0
2026-05-06 16:29:06.454122,849300,1609507209857229,4809769281,0.528992,-0.45872,-0.304512,-7.56,40.1975,-26.39,-29.624,-17.072,-88.48801,eccentric,9,5.0,44176.0,45560.0,91324.0,82360.0,40916.0,55356.0,40801.0,46316.0,26370.0,19713.0
2026-05-06 16:29:06.462835,849301,1609507209871916,4809784212,0.609024,-0.67344,-0.413824,-8.155,36.58375,-24.9725,-29.712002,-14.280001,-90.47201,eccentric,9,5.0,44176.0,45560.0,91324.0,82360.0,40916.0,55356.0,40801.0,46316.0,26370.0,19713.0
2026-05-06 16:29:06.471619,849302,1609507209880889,4809792916,0.609024,-0.67344,-0.413824,-7.84875,35.90125,-20.76375,-29.712002,-14.280001,-90.47201,eccentric,9,5.0,44176.0,45560.0,91324.0,82360.0,40916.0,55356.0,40801.0,46316.0,26370.0,19713.0
2026-05-06 16:29:06.505330,849303,1609507209895582,4809807845,0.938912,-0.77104,-0.265472,-8.49625,39.8825,-17.7625,-30.2,-15.200001,-88.43201,eccentric,9,5.0,44176.0,45560.0,91324.0,82360.0,40916.0,55356.0,40801.0,46316.0,26370.0,19713.0
2026-05-06 16:29:06.507856,849304,1609507209904549,4809816587,0.938912,-0.77104,-0.265472,-9.59875,46.4275,-19.66125,-30.2,-15.200001,-88.43201,eccentric,9,5.0,44176.0,45560.0,91324.0,82360.0,40916.0,55356.0,40801.0,46316.0,26370.0,19713.0
2026-05-06 16:29:06.512421,849305,1609507209913457,4809825285,0.550464,-0.40016,-0.1464,-10.9375,48.4925,-23.38,-30.488,-14.984001,-88.784004,eccentric,9,5.0,44176.0,45560.0,91324.0,82360.0,40916.0,55356.0,40801.0,46316.0,26370.0,19713.0
2026-05-06 16:29:06.543978,849316,1609507209928085,4809840585,0.550464,-0.40016,-0.1464,-0.76125,42.1575,-24.63125,-30.488,-14.984001,-88.784004,eccentric,9,5.0,42853.0,44489.0,90537.0,81359.0,39685.0,54261.0,40397.0,45837.0,25709.0,19310.0
2026-05-06 16:29:06.546474,849317,1609507209937068,4809849416,0.491904,-0.513376,-0.242048,-1.26875,34.6325,-26.7925,-30.752,-16.904001,-87.384,eccentric,9,5.0,42853.0,44489.0,90537.0,81359.0,39685.0,54261.0,40397.0,45837.0,25709.0,19310.0
2026-05-06 16:29:06.548956,849318,1609507209951673,4809864361,0.733952,-0.730048,-0.33184,-9.1175,29.741251,-23.0125,-30.864002,-15.248001,-88.26401,eccentric,9,5.0,42853.0,44489.0,90537.0,81359.0,39685.0,54261.0,40397.0,45837.0,25709.0,19310.0
2026-05-06 16:29:06.574169,849319,1609507209960646,4809873093,0.733952,-0.730048,-0.33184,-10.36875,27.02,-13.72,-30.864002,-15.248001,-88.26401,eccentric,9,5.0,42853.0,44489.0,90537.0,81359.0,39685.0,54261.0,40397.0,45837.0,25709.0,19310.0
2026-05-06 16:29:06.599105,849320,1609507209969712,4809881812,0.733952,-0.730048,-0.33184,-8.0325,27.7375,-12.74875,-30.864002,-15.248001,-88.26401,eccentric,9,5.0,42853.0,44489.0,90537.0,81359.0,39685.0,54261.0,40397.0,45837.0,25709.0,19310.0
2026-05-06 16:29:06.606326,849321,1609507209984231,4809896800,0.706624,-0.544608,-0.242048,-3.73625,27.685,-15.98625,-31.352001,-15.368001,-87.968,eccentric,9,5.0,42853.0,44489.0,90537.0,81359.0,39685.0,54261.0,40397.0,45837.0,25709.0,19310.0
2026-05-06 16:29:06.607604,849322,1609507209993189,4809905496,0.427488,-0.425536,-0.181536,0.3675,26.022501,-15.575,-31.512001,-19.208,-85.704,eccentric,9,5.0,42853.0,44489.0,90537.0,81359.0,39685.0,54261.0,40397.0,45837.0,25709.0,19310.0
2026-05-06 16:29:06.614524,849323,1609507210007681,4809920406,0.427488,-0.425536,-0.181536,-1.16375,22.95125,-12.64375,-31.512001,-19.208,-85.704,eccentric,9,5.0,42853.0,44489.0,90537.0,81359.0,39685.0,54261.0,40397.0,45837.0,25709.0,19310.0
2026-05-06 16:29:06.640266,849334,1609507210016697,4809929084,0.493856,-0.54656,-0.226432,-8.295,19.241251,-8.04125,-31.736002,-16.0,-87.47201,eccentric,9,5.0,42541.0,43642.0,90202.0,80354.0,39385.0,53418.0,40279.0,45290.0,25613.0,18994.0
2026-05-06 16:29:06.645293,849335,1609507210031291,4809944030,0.493856,-0.54656,-0.226432,-10.59625,14.1575,-1.40875,-31.736002,-16.0,-87.47201,eccentric,9,5.0,42541.0,43642.0,90202.0,80354.0,39385.0,53418.0,40279.0,45290.0,25613.0,18994.0
2026-05-06 16:29:06.647719,849336,1609507210040267,4809952816,0.607072,-0.579744,-0.22448,-5.915,8.7325,3.87625,-31.456001,-15.264001,-88.4,eccentric,9,5.0,42541.0,43642.0,90202.0,80354.0,39385.0,53418.0,40279.0,45290.0,25613.0,18994.0
2026-05-06 16:29:06.650280,849337,1609507210049192,4809961550,0.607072,-0.579744,-0.22448,1.96,4.9175,6.825,-31.456001,-15.264001,-88.4,eccentric,9,5.0,42541.0,43642.0,90202.0,80354.0,39385.0,53418.0,40279.0,45290.0,25613.0,18994.0
2026-05-06 16:29:06.656559,849338,1609507210063703,4809974484,0.54656,-0.511424,-0.199104,8.61875,1.785,8.8025,-31.768002,-15.648001,-86.712006,eccentric,9,5.0,42541.0,43642.0,90202.0,80354.0,39385.0,53418.0,40279.0,45290.0,25613.0,18994.0
2026-05-06 16:29:06.664096,849339,1609507210072942,4809985303,0.6344,-0.57584,-0.245952,8.6625,-0.945,11.03375,-31.736002,-16.592001,-86.73601,eccentric,9,5.0,42541.0,43642.0,90202.0,80354.0,39385.0,53418.0,40279.0,45290.0,25613.0,18994.0
2026-05-06 16:29:06.700211,849340,1609507210087489,4810000249,0.6344,-0.57584,-0.245952,3.115,-2.73,12.67,-31.736002,-16.592001,-86.73601,eccentric,9,5.0,42541.0,43642.0,90202.0,80354.0,39385.0,53418.0,40279.0,45290.0,25613.0,18994.0
2026-05-06 16:29:06.700599,849341,1609507210096412,4810008963,0.710528,-0.591456,-0.171776,-1.9775,-4.05125,13.0375,-31.888002,-14.968,-87.52801,eccentric,9,5.0,42541.0,43642.0,90202.0,80354.0,39385.0,53418.0,40279.0,45290.0,25613.0,18994.0
2026-05-06 16:29:06.702586,849342,1609507210105516,4810017705,0.710528,-0.591456,-0.171776,-0.56,-6.08125,13.02875,-31.888002,-14.968,-87.52801,eccentric,9,5.0,42541.0,43642.0,90202.0,80354.0,39385.0,53418.0,40279.0,45290.0,25613.0,18994.0
2026-05-06 16:29:06.731466,849353,1609507210120739,4810032689,0.677344,-0.59536,-0.179584,5.32,-10.42125,12.4775,-31.576002,-14.616001,-88.152,eccentric,9,5.0,42208.0,42371.0,89760.0,78186.0,39149.0,52022.0,40037.0,44109.0,25513.0,18480.0
2026-05-06 16:29:06.733963,849354,1609507210129798,4810041449,0.677344,-0.59536,-0.179584,9.3625,-13.22125,11.3225,-31.576002,-14.616001,-88.152,eccentric,9,5.0,42208.0,42371.0,89760.0,78186.0,39149.0,52022.0,40037.0,44109.0,25513.0,18480.0
2026-05-06 16:29:06.736497,849355,1609507210144367,4810056707,0.835456,-0.720288,-0.327936,8.75875,-13.97375,9.45875,-31.616001,-14.488001,-88.26401,eccentric,9,5.0,42208.0,42371.0,89760.0,78186.0,39149.0,52022.0,40037.0,44109.0,25513.0,18480.0
2026-05-06 16:29:06.742806,849356,1609507210153470,4810065459,0.845216,-0.671488,-0.279136,6.615,-12.41625,6.51,-31.592001,-14.320001,-87.992004,eccentric,9,5.0,42208.0,42371.0,89760.0,78186.0,39149.0,52022.0,40037.0,44109.0,25513.0,18480.0
2026-05-06 16:29:06.754022,849357,1609507210162436,4810074211,0.845216,-0.671488,-0.279136,6.37875,-11.27,3.6925,-31.592001,-14.320001,-87.992004,eccentric,9,5.0,42208.0,42371.0,89760.0,78186.0,39149.0,52022.0,40037.0,44109.0,25513.0,18480.0
2026-05-06 16:29:06.767868,849358,1609507210176998,4810089186,0.802272,-0.620736,-0.247904,7.0875,-10.96375,0.8925,-31.384,-13.984,-88.504005,eccentric,9,5.0,42208.0,42371.0,89760.0,78186.0,39149.0,52022.0,40037.0,44109.0,25513.0,18480.0
2026-05-06 16:29:06.776599,849359,1609507210185937,4810097907,0.802272,-0.620736,-0.247904,2.205,-9.7825,-2.1,-31.384,-13.984,-88.504005,eccentric,9,5.0,42208.0,42371.0,89760.0,78186.0,39149.0,52022.0,40037.0,44109.0,25513.0,18480.0
2026-05-06 16:29:06.794048,849360,1609507210200471,4810112857,0.80032,-0.689056,-0.257664,-5.495,-7.16625,-4.8825,-31.664001,-14.248001,-90.096,eccentric,9,5.0,42208.0,42371.0,89760.0,78186.0,39149.0,52022.0,40037.0,44109.0,25513.0,18480.0
2026-05-06 16:29:06.804091,849361,1609507210209405,4810121572,0.80032,-0.689056,-0.257664,-9.9575,-4.62875,-7.49,-31.664001,-14.248001,-90.096,eccentric,9,5.0,42208.0,42371.0,89760.0,78186.0,39149.0,52022.0,40037.0,44109.0,25513.0,18480.0
2026-05-06 16:29:06.831463,849372,1609507210224339,4810136683,0.732,-0.638304,-0.267424,-7.7525,-3.08875,-9.84375,-30.856,-14.72,-88.240005,eccentric,9,5.0,41185.0,41616.0,89358.0,77299.0,38251.0,51199.0,39801.0,43627.0,25023.0,18126.0
2026-05-06 16:29:06.833986,849373,1609507210233278,4810145526,0.669536,-0.599264,-0.245952,-3.61375,-2.8,-11.042501,-30.856,-14.72,-88.240005,eccentric,9,5.0,41185.0,41616.0,89358.0,77299.0,38251.0,51199.0,39801.0,43627.0,25023.0,18126.0
2026-05-06 16:29:06.836508,849374,1609507210242311,4810154267,0.667584,-0.599264,-0.245952,-1.14625,-1.3825,-10.68375,-31.488,-16.400002,-89.032005,eccentric,9,5.0,41185.0,41616.0,89358.0,77299.0,38251.0,51199.0,39801.0,43627.0,25023.0,18126.0
2026-05-06 16:29:06.850334,849375,1609507210256956,4810169302,0.650016,-0.609024,-0.269376,-2.1175,-0.42875,-9.9575,-31.232002,-16.456001,-87.632,eccentric,9,5.0,41185.0,41616.0,89358.0,77299.0,38251.0,51199.0,39801.0,43627.0,25023.0,18126.0
2026-05-06 16:29:06.855280,849376,1609507210265904,4810178000,0.650016,-0.609024,-0.269376,-4.13875,-0.2275,-9.37125,-31.232002,-16.456001,-87.632,eccentric,9,5.0,41185.0,41616.0,89358.0,77299.0,38251.0,51199.0,39801.0,43627.0,25023.0,18126.0
2026-05-06 16:29:06.879108,849377,1609507210280395,4810192930,0.65392,-0.591456,-0.251808,-2.44125,-1.00625,-9.2225,-31.152002,-14.880001,-88.744,eccentric,9,5.0,41185.0,41616.0,89358.0,77299.0,38251.0,51199.0,39801.0,43627.0,25023.0,18126.0
2026-05-06 16:29:06.881583,849378,1609507210289317,4810201616,0.65392,-0.591456,-0.251808,1.0325,-2.37125,-8.86375,-31.152002,-14.880001,-88.744,eccentric,9,5.0,41185.0,41616.0,89358.0,77299.0,38251.0,51199.0,39801.0,43627.0,25023.0,18126.0
2026-05-06 16:29:06.889340,849379,1609507210298311,4810210525,0.626592,-0.589504,-0.294752,3.7275,-3.1675,-9.44125,-31.192001,-14.52,-88.448006,eccentric,9,5.0,41185.0,41616.0,89358.0,77299.0,38251.0,51199.0,39801.0,43627.0,25023.0,18126.0
2026-05-06 16:29:06.931575,849380,1609507210312823,4810225459,0.626592,-0.589504,-0.294752,4.4625,-3.28125,-8.925,-31.192001,-14.52,-88.448006,eccentric,9,5.0,41185.0,41616.0,89358.0,77299.0,38251.0,51199.0,39801.0,43627.0,25023.0,18126.0
