pc_time,serial_num,sensor_ts,host_ts,ax,ay,az,gx,gy,gz,mx,my,mz,phase,rpe,weight_kg,ppg_a,ppg_b,ppg_c,ppg_d,ppg_e,ppg_f,ppg_g,ppg_h,ppg_i,ppg_j
2026-05-06 16:29:12.671318,850470,1609507216052574,4815965004,0.603168,-0.441152,-0.179584,3.8325,8.16375,2.80875,-32.36,-15.432001,-86.296005,concentric,9,5.0,42478.0,43169.0,88644.0,79941.0,39369.0,52567.0,39312.0,44830.0,25477.0,18609.0
2026-05-06 16:29:12.673847,850471,1609507216061735,4815973784,0.976,-0.735904,-0.167872,-5.39875,8.26,2.87875,-32.304,-15.832001,-86.344,concentric,9,5.0,42478.0,43169.0,88644.0,79941.0,39369.0,52567.0,39312.0,44830.0,25477.0,18609.0
2026-05-06 16:29:12.676388,850472,1609507216076312,4815988771,0.976,-0.735904,-0.13664,-11.0075,12.9325,-1.5925,-32.304,-15.832001,-86.344,concentric,9,5.0,42478.0,43169.0,88644.0,79941.0,39369.0,52567.0,39312.0,44830.0,25477.0,18609.0
2026-05-06 16:29:12.678931,850473,1609507216085282,4815997518,0.798368,-0.550464,-0.13664,-5.2325,14.21,-6.055,-32.296,-17.208,-82.728004,concentric,9,5.0,42478.0,43169.0,88644.0,79941.0,39369.0,52567.0,39312.0,44830.0,25477.0,18609.0
2026-05-06 16:29:12.692596,850474,1609507216099840,4816012486,0.724192,-0.489952,-0.179584,5.45125,11.55875,-8.30375,-32.928,-17.464,-85.712006,concentric,9,5.0,42478.0,43169.0,88644.0,79941.0,39369.0,52567.0,39312.0,44830.0,25477.0,18609.0
2026-05-06 16:29:12.727676,850475,1609507216108764,4816021183,0.724192,-0.489952,-0.179584,3.38625,8.95125,-7.14875,-32.928,-17.464,-85.712006,concentric,9,5.0,42478.0,43169.0,88644.0,79941.0,39369.0,52567.0,39312.0,44830.0,25477.0,18609.0
2026-05-06 16:29:12.730177,850476,1609507216117690,4816029931,0.767136,-0.583648,-0.187392,-5.0925,8.8025,-4.9175,-32.688,-15.776001,-87.824005,concentric,9,5.0,42478.0,43169.0,88644.0,79941.0,39369.0,52567.0,39312.0,44830.0,25477.0,18609.0
2026-05-06 16:29:12.732693,850477,1609507216132359,4816044901,0.767136,-0.583648,-0.187392,-10.36875,9.765,-4.795,-32.688,-15.776001,-87.824005,concentric,9,5.0,42478.0,43169.0,88644.0,79941.0,39369.0,52567.0,39312.0,44830.0,25477.0,18609.0
2026-05-06 16:29:12.735206,850478,1609507216141278,4816053603,0.650016,-0.55632,-0.18544,-10.255,10.115,-5.03125,-32.976,-15.968,-86.04,concentric,9,5.0,42478.0,43169.0,88644.0,79941.0,39369.0,52567.0,39312.0,44830.0,25477.0,18609.0
2026-05-06 16:29:12.770377,850489,1609507216156242,4816067109,0.650016,-0.55632,-0.18544,-7.18375,8.8375,-3.00125,-32.976,-15.968,-86.04,concentric,9,5.0,41609.0,42527.0,88363.0,79501.0,38634.0,51793.0,39137.0,44580.0,25103.0,18319.0
2026-05-06 16:29:12.772808,850490,1609507216165755,4816077967,0.609024,-0.54656,-0.11712,-7.98,6.85125,-0.11375,-32.584003,-16.056002,-87.456,concentric,9,5.0,41609.0,42527.0,88363.0,79501.0,38634.0,51793.0,39137.0,44580.0,25103.0,18319.0
2026-05-06 16:29:12.775057,850491,1609507216174771,4816086724,0.609024,-0.54656,-0.11712,-8.54,4.45375,2.79125,-32.584003,-16.056002,-87.456,concentric,9,5.0,41609.0,42527.0,88363.0,79501.0,38634.0,51793.0,39137.0,44580.0,25103.0,18319.0
2026-05-06 16:29:12.781264,850492,1609507216189304,4816101670,0.65392,-0.562176,-0.16592,-7.81375,1.46125,5.32,-32.84,-18.952002,-83.912,concentric,9,5.0,41609.0,42527.0,88363.0,79501.0,38634.0,51793.0,39137.0,44580.0,25103.0,18319.0
2026-05-06 16:29:12.787894,850493,1609507216198353,4816110422,0.70272,-0.530944,-0.154208,-4.48875,-1.26875,5.6175,-33.2,-15.6,-86.200005,concentric,9,5.0,41609.0,42527.0,88363.0,79501.0,38634.0,51793.0,39137.0,44580.0,25103.0,18319.0
2026-05-06 16:29:12.822643,850494,1609507216212853,4816125357,0.70272,-0.530944,-0.154208,-2.54625,-3.98125,4.38375,-33.2,-15.6,-86.200005,concentric,9,5.0,41609.0,42527.0,88363.0,79501.0,38634.0,51793.0,39137.0,44580.0,25103.0,18319.0
2026-05-06 16:29:12.847582,850495,1609507216221857,4816134073,0.675392,-0.548512,-0.171776,1.30375,-6.93875,5.80125,-32.864002,-15.648001,-86.296005,concentric,9,5.0,41609.0,42527.0,88363.0,79501.0,38634.0,51793.0,39137.0,44580.0,25103.0,18319.0
2026-05-06 16:29:12.872682,850496,1609507216236364,4816148971,0.675392,-0.548512,-0.171776,0.14,-8.6975,5.46,-32.864002,-15.648001,-86.296005,concentric,9,5.0,41609.0,42527.0,88363.0,79501.0,38634.0,51793.0,39137.0,44580.0,25103.0,18319.0
2026-05-06 16:29:12.886598,850497,1609507216245283,4816157783,0.757376,-0.591456,-0.193248,-1.04125,-10.045,6.685,-32.648003,-15.120001,-87.216,concentric,9,5.0,41609.0,42527.0,88363.0,79501.0,38634.0,51793.0,39137.0,44580.0,25103.0,18319.0
2026-05-06 16:29:12.920241,850508,1609507216254255,4816166565,0.757376,-0.591456,-0.193248,-0.14,-10.91125,6.86,-32.648003,-15.120001,-87.216,concentric,9,5.0,40853.0,41887.0,87654.0,78189.0,37976.0,51130.0,38809.0,43854.0,24750.0,18026.0
2026-05-06 16:29:12.922626,850509,1609507216269164,4816181579,0.833504,-0.5856,-0.152256,1.6625,-10.54375,4.3925,-32.672,-15.400001,-86.288,concentric,9,5.0,40853.0,41887.0,87654.0,78189.0,37976.0,51130.0,38809.0,43854.0,24750.0,18026.0
2026-05-06 16:29:12.925189,850510,1609507216278092,4816190295,0.833504,-0.601216,-0.162016,3.0275,-10.01875,1.7675,-32.672,-15.400001,-86.288,concentric,9,5.0,40853.0,41887.0,87654.0,78189.0,37976.0,51130.0,38809.0,43854.0,24750.0,18026.0
2026-05-06 16:29:12.927722,850511,1609507216292629,4816205229,0.769088,-0.59536,-0.162016,4.89125,-9.0475,0.7,-33.016003,-14.904,-85.728004,concentric,9,5.0,40853.0,41887.0,87654.0,78189.0,37976.0,51130.0,38809.0,43854.0,24750.0,18026.0
2026-05-06 16:29:12.932719,850512,1609507216301545,4816214015,0.802272,-0.632448,-0.240096,4.69875,-8.0325,0.30625,-32.832,-14.864,-86.600006,concentric,9,5.0,40853.0,41887.0,87654.0,78189.0,37976.0,51130.0,38809.0,43854.0,24750.0,18026.0
2026-05-06 16:29:12.937816,850513,1609507216310601,4816222737,0.802272,-0.632448,-0.240096,3.98125,-6.85125,-0.09625,-32.832,-14.864,-86.600006,concentric,9,5.0,40853.0,41887.0,87654.0,78189.0,37976.0,51130.0,38809.0,43854.0,24750.0,18026.0
2026-05-06 16:29:12.940268,850514,1609507216325286,4816237766,0.774944,-0.583648,-0.208864,2.5025,-4.80375,-0.72625,-32.68,-17.536001,-84.52801,concentric,9,5.0,40853.0,41887.0,87654.0,78189.0,37976.0,51130.0,38809.0,43854.0,24750.0,18026.0
2026-05-06 16:29:12.942803,850515,1609507216334285,4816246518,0.774944,-0.583648,-0.208864,1.26875,-2.2225,-1.60125,-32.68,-17.536001,-84.52801,concentric,9,5.0,40853.0,41887.0,87654.0,78189.0,37976.0,51130.0,38809.0,43854.0,24750.0,18026.0
2026-05-06 16:29:12.949103,850516,1609507216348830,4816261497,0.720288,-0.573888,-0.162016,-1.07625,0.4375,-2.8,-32.632,-14.960001,-86.600006,concentric,9,5.0,40853.0,41887.0,87654.0,78189.0,37976.0,51130.0,38809.0,43854.0,24750.0,18026.0
2026-05-06 16:29:12.976244,850527,1609507216358439,4816270301,0.720288,-0.573888,-0.162016,-3.29875,2.2925,-3.19375,-32.632,-14.960001,-86.600006,concentric,9,5.0,40848.0,41930.0,87440.0,77403.0,37999.0,51198.0,38714.0,43387.0,24758.0,18053.0
2026-05-06 16:29:12.978901,850528,1609507216367445,4816279095,0.6832,-0.589504,-0.18544,-3.57875,3.1325,-3.2025,-32.664,-15.072001,-86.54401,concentric,9,5.0,40848.0,41930.0,87440.0,77403.0,37999.0,51198.0,38714.0,43387.0,24758.0,18053.0
2026-05-06 16:29:12.981489,850529,1609507216382017,4816294103,0.687104,-0.571936,-0.179584,-1.6275,2.975,-2.765,-32.864002,-18.288,-85.76,concentric,9,5.0,40848.0,41930.0,87440.0,77403.0,37999.0,51198.0,38714.0,43387.0,24758.0,18053.0
2026-05-06 16:29:12.984076,850530,1609507216390956,4816302835,0.687104,-0.571936,-0.179584,0.65625,1.8025,-1.39125,-32.864002,-18.288,-85.76,concentric,9,5.0,40848.0,41930.0,87440.0,77403.0,37999.0,51198.0,38714.0,43387.0,24758.0,18053.0
2026-05-06 16:29:12.997553,850531,1609507216405473,4816317796,0.675392,-0.534848,-0.162016,1.82875,0.46375,-0.13125,-32.648003,-16.104,-85.768005,concentric,9,5.0,40848.0,41930.0,87440.0,77403.0,37999.0,51198.0,38714.0,43387.0,24758.0,18053.0
2026-05-06 16:29:13.006411,850532,1609507216414425,4816326534,0.675392,-0.534848,-0.162016,1.54875,-0.74375,1.61,-32.648003,-16.104,-85.768005,concentric,9,5.0,40848.0,41930.0,87440.0,77403.0,37999.0,51198.0,38714.0,43387.0,24758.0,18053.0
2026-05-06 16:29:13.012723,850533,1609507216423369,4816335320,0.622688,-0.564128,-0.160064,0.06125,-1.95125,2.28375,-32.896,-14.912001,-86.568,concentric,9,5.0,40848.0,41930.0,87440.0,77403.0,37999.0,51198.0,38714.0,43387.0,24758.0,18053.0
2026-05-06 16:29:13.046575,850534,1609507216437866,4816350267,0.622688,-0.564128,-0.160064,-1.05,-4.12125,2.485,-32.896,-14.912001,-86.568,concentric,9,5.0,40848.0,41930.0,87440.0,77403.0,37999.0,51198.0,38714.0,43387.0,24758.0,18053.0
2026-05-06 16:29:13.049015,850535,1609507216446761,4816359031,0.675392,-0.583648,-0.1464,1.96,-7.2625,3.5,-32.424,-14.536,-87.37601,concentric,9,5.0,40848.0,41930.0,87440.0,77403.0,37999.0,51198.0,38714.0,43387.0,24758.0,18053.0
2026-05-06 16:29:13.076649,850546,1609507216461443,4816373967,0.646112,-0.528992,-0.150304,5.81875,-10.17625,4.76875,-32.352,-14.440001,-87.52801,concentric,9,5.0,41021.0,42018.0,87291.0,76689.0,38229.0,51298.0,38674.0,43001.0,24874.0,18115.0
2026-05-06 16:29:13.079101,850547,1609507216470438,4816382902,0.646112,-0.528992,-0.150304,7.84,-13.448751,6.37,-32.352,-14.440001,-87.52801,concentric,9,5.0,41021.0,42018.0,87291.0,76689.0,38229.0,51298.0,38674.0,43001.0,24874.0,18115.0
2026-05-06 16:29:13.083747,850548,1609507216485048,4816395817,0.632448,-0.56608,-0.183488,7.49875,-15.6625,7.74375,-32.256,-13.976001,-86.936005,concentric,9,5.0,41021.0,42018.0,87291.0,76689.0,38229.0,51298.0,38674.0,43001.0,24874.0,18115.0
2026-05-06 16:29:13.084259,850549,1609507216494296,4816406633,0.632448,-0.56608,-0.183488,6.01125,-17.75375,9.05625,-32.256,-13.976001,-86.936005,concentric,9,5.0,41021.0,42018.0,87291.0,76689.0,38229.0,51298.0,38674.0,43001.0,24874.0,18115.0
2026-05-06 16:29:13.097674,850550,1609507216503334,4816415364,0.69296,-0.628544,-0.177632,5.76625,-19.60875,11.095,-32.016003,-13.408001,-87.632,concentric,9,5.0,41021.0,42018.0,87291.0,76689.0,38229.0,51298.0,38674.0,43001.0,24874.0,18115.0
2026-05-06 16:29:13.111418,850551,1609507216517852,4816430302,0.69296,-0.628544,-0.177632,7.42,-21.91875,11.76875,-32.016003,-13.408001,-87.632,concentric,9,5.0,41021.0,42018.0,87291.0,76689.0,38229.0,51298.0,38674.0,43001.0,24874.0,18115.0
2026-05-06 16:29:13.117471,850552,1609507216526770,4816439158,0.675392,-0.573888,-0.160064,10.9375,-24.78,12.136251,-31.880001,-13.064001,-87.240005,concentric,9,5.0,41021.0,42018.0,87291.0,76689.0,38229.0,51298.0,38674.0,43001.0,24874.0,18115.0
2026-05-06 16:29:13.131504,850553,1609507216541267,4816452047,0.657824,-0.562176,-0.142496,12.425,-28.0175,12.15375,-31.368002,-12.52,-87.840004,concentric,9,5.0,41021.0,42018.0,87291.0,76689.0,38229.0,51298.0,38674.0,43001.0,24874.0,18115.0
2026-05-06 16:29:13.159126,850554,1609507216550590,4816462934,0.657824,-0.562176,-0.142496,12.06625,-31.045,12.43375,-31.368002,-12.52,-87.840004,concentric,9,5.0,41021.0,42018.0,87291.0,76689.0,38229.0,51298.0,38674.0,43001.0,24874.0,18115.0
2026-05-06 16:29:13.242793,850565,1609507216560113,4816471735,0.657824,-0.562176,-0.15616,9.135,-32.7775,13.4925,-31.368002,-12.52,-87.840004,concentric,9,5.0,41326.0,42290.0,87082.0,75613.0,38546.0,51632.0,38603.0,42376.0,25067.0,18243.0
2026-05-06 16:29:13.245348,850566,1609507216574848,4816486605,0.665632,-0.581696,-0.15616,7.41125,-33.80125,14.315001,-31.112001,-12.896001,-87.44,concentric,9,5.0,41326.0,42290.0,87082.0,75613.0,38546.0,51632.0,38603.0,42376.0,25067.0,18243.0
2026-05-06 16:29:13.254153,850567,1609507216584012,4816495328,0.64416,-0.573888,-0.220576,7.735,-35.7175,14.9625,-30.848001,-13.496,-87.992004,concentric,9,5.0,41326.0,42290.0,87082.0,75613.0,38546.0,51632.0,38603.0,42376.0,25067.0,18243.0
2026-05-06 16:29:13.256393,850568,1609507216598502,4816510287,0.64416,-0.573888,-0.220576,8.5925,-38.29875,17.31625,-30.848001,-13.496,-87.992004,concentric,9,5.0,41326.0,42290.0,87082.0,75613.0,38546.0,51632.0,38603.0,42376.0,25067.0,18243.0
2026-05-06 16:29:13.258779,850569,1609507216607431,4816518991,0.609024,-0.562176,-0.20496,7.83125,-40.67875,19.50375,-30.512001,-11.824,-90.008,concentric,9,5.0,41326.0,42290.0,87082.0,75613.0,38546.0,51632.0,38603.0,42376.0,25067.0,18243.0
2026-05-06 16:29:13.261141,850570,1609507216616333,4816527721,0.609024,-0.562176,-0.20496,7.455,-42.665,21.0875,-30.512001,-11.824,-90.008,concentric,9,5.0,41326.0,42290.0,87082.0,75613.0,38546.0,51632.0,38603.0,42376.0,25067.0,18243.0
2026-05-06 16:29:13.264265,850571,1609507216630828,4816542622,0.620736,-0.609024,-0.210816,7.39375,-44.94,23.45,-29.928001,-11.704,-89.664,concentric,9,5.0,41326.0,42290.0,87082.0,75613.0,38546.0,51632.0,38603.0,42376.0,25067.0,18243.0
2026-05-06 16:29:13.266147,850572,1609507216639789,4816551371,0.620736,-0.609024,-0.210816,9.02125,-46.47125,25.55875,-29.928001,-11.704,-89.664,concentric,9,5.0,41326.0,42290.0,87082.0,75613.0,38546.0,51632.0,38603.0,42376.0,25067.0,18243.0
2026-05-06 16:29:13.268539,850573,1609507216654317,4816566353,0.661728,-0.620736,-0.23424,10.47375,-48.545002,25.725,-29.976002,-10.968,-88.712006,concentric,9,5.0,41326.0,42290.0,87082.0,75613.0,38546.0,51632.0,38603.0,42376.0,25067.0,18243.0
2026-05-06 16:29:13.296453,850584,1609507216663478,4816575152,0.61488,-0.59536,-0.187392,13.2825,-51.8,26.1975,-29.016,-10.856001,-90.824005,concentric,9,5.0,41525.0,42387.0,87308.0,75166.0,38721.0,51707.0,38717.0,42153.0,25126.0,18264.0
2026-05-06 16:29:13.298939,850585,1609507216677995,4816590218,0.61488,-0.59536,-0.187392,16.28375,-55.02,26.62625,-29.016,-10.856001,-90.824005,concentric,9,5.0,41525.0,42387.0,87308.0,75166.0,38721.0,51707.0,38717.0,42153.0,25126.0,18264.0
2026-05-06 16:29:13.301464,850586,1609507216686968,4816598994,0.60512,-0.612928,-0.271328,14.27125,-57.86375,26.3025,-28.472002,-13.256001,-89.648,concentric,9,5.0,41525.0,42387.0,87308.0,75166.0,38721.0,51707.0,38717.0,42153.0,25126.0,18264.0
2026-05-06 16:29:13.307724,850587,1609507216695992,4816607727,0.60512,-0.612928,-0.271328,12.355001,-61.3025,28.0,-28.472002,-13.256001,-89.648,concentric,9,5.0,41525.0,42387.0,87308.0,75166.0,38721.0,51707.0,38717.0,42153.0,25126.0,18264.0
2026-05-06 16:29:13.310222,850588,1609507216710511,4816622703,0.636352,-0.665632,-0.28304,9.63375,-61.888752,27.78125,-27.848001,-13.608001,-89.856,concentric,9,5.0,41525.0,42387.0,87308.0,75166.0,38721.0,51707.0,38717.0,42153.0,25126.0,18264.0
2026-05-06 16:29:13.312748,850589,1609507216719486,4816631445,0.636352,-0.665632,-0.28304,9.5025,-62.18625,26.92375,-27.848001,-13.608001,-89.856,concentric,9,5.0,41525.0,42387.0,87308.0,75166.0,38721.0,51707.0,38717.0,42153.0,25126.0,18264.0
2026-05-06 16:29:13.326580,850590,1609507216734138,4816646340,0.64416,-0.6832,-0.300608,13.43125,-62.982502,26.41625,-27.152,-8.904,-93.176,concentric,9,5.0,41525.0,42387.0,87308.0,75166.0,38721.0,51707.0,38717.0,42153.0,25126.0,18264.0
2026-05-06 16:29:13.332854,850591,1609507216743251,4816655086,0.59536,-0.636352,-0.325984,17.19375,-64.00625,25.935,-26.328001,-8.472,-93.872,concentric,9,5.0,41525.0,42387.0,87308.0,75166.0,38721.0,51707.0,38717.0,42153.0,25126.0,18264.0
2026-05-06 16:29:13.369147,850592,1609507216752204,4816663802,0.59536,-0.636352,-0.325984,20.53625,-65.77375,27.29125,-26.328001,-8.472,-93.872,concentric,9,5.0,41525.0,42387.0,87308.0,75166.0,38721.0,51707.0,38717.0,42153.0,25126.0,18264.0
2026-05-06 16:29:13.396511,850603,1609507216766822,4816678938,0.597312,-0.685152,-0.333792,19.3375,-65.65125,27.85125,-25.064001,-8.200001,-94.16801,concentric,9,5.0,41846.0,42643.0,87862.0,74834.0,39051.0,52070.0,38993.0,41963.0,25215.0,18412.0
2026-05-06 16:29:13.399002,850604,1609507216775742,4816687709,0.597312,-0.685152,-0.333792,14.49,-64.9075,28.16625,-25.064001,-8.200001,-94.16801,concentric,9,5.0,41846.0,42643.0,87862.0,74834.0,39051.0,52070.0,38993.0,41963.0,25215.0,18412.0
2026-05-06 16:29:13.401545,850605,1609507216790251,4816702665,0.560224,-0.679296,-0.384544,10.36875,-64.12,29.11125,-24.560001,-7.176,-94.96001,concentric,9,5.0,41846.0,42643.0,87862.0,74834.0,39051.0,52070.0,38993.0,41963.0,25215.0,18412.0
2026-05-06 16:29:13.404036,850606,1609507216799257,4816711403,0.560224,-0.679296,-0.384544,11.01625,-63.53375,29.3125,-24.560001,-7.176,-94.96001,concentric,9,5.0,41846.0,42643.0,87862.0,74834.0,39051.0,52070.0,38993.0,41963.0,25215.0,18412.0
2026-05-06 16:29:13.406491,850607,1609507216813822,4816726440,0.568032,-0.696864,-0.329888,11.34875,-63.201252,29.53125,-23.784,-8.128,-95.48801,concentric,9,5.0,41846.0,42643.0,87862.0,74834.0,39051.0,52070.0,38993.0,41963.0,25215.0,18412.0
2026-05-06 16:29:13.412639,850608,1609507216822759,4816735187,0.55632,-0.726144,-0.398208,8.77625,-62.09,31.928751,-23.056002,-6.248,-94.728004,concentric,9,5.0,41846.0,42643.0,87862.0,74834.0,39051.0,52070.0,38993.0,41963.0,25215.0,18412.0
2026-05-06 16:29:13.423879,850609,1609507216831795,4816743906,0.55632,-0.726144,-0.398208,9.24875,-60.55,33.1275,-23.056002,-6.248,-94.728004,concentric,9,5.0,41846.0,42643.0,87862.0,74834.0,39051.0,52070.0,38993.0,41963.0,25215.0,18412.0
2026-05-06 16:29:13.440233,850610,1609507216846281,4816758809,0.55632,-0.72224,-0.37088,13.055,-60.305,31.17625,-22.552002,-5.688,-96.16801,concentric,9,5.0,41846.0,42643.0,87862.0,74834.0,39051.0,52070.0,38993.0,41963.0,25215.0,18412.0
2026-05-06 16:29:13.446567,850611,1609507216855256,4816767573,0.55632,-0.72224,-0.37088,17.0975,-59.5875,30.415,-22.552002,-5.688,-96.16801,concentric,9,5.0,41846.0,42643.0,87862.0,74834.0,39051.0,52070.0,38993.0,41963.0,25215.0,18412.0
2026-05-06 16:29:13.480182,850622,1609507216869884,4816782654,0.525088,-0.689056,-0.40992,19.88875,-57.925,32.0775,-21.472,-5.152,-96.44,concentric,9,5.0,42437.0,43465.0,88322.0,74604.0,39686.0,53022.0,39246.0,41869.0,25431.0,18722.0
2026-05-06 16:29:13.486366,850623,1609507216878910,4816791389,0.525088,-0.689056,-0.40992,18.2525,-56.32375,34.5625,-21.472,-5.152,-96.44,concentric,9,5.0,42437.0,43465.0,88322.0,74604.0,39686.0,53022.0,39246.0,41869.0,25431.0,18722.0
2026-05-06 16:29:13.487816,850624,1609507216887828,4816800225,0.495808,-0.724192,-0.431392,15.81125,-53.89125,36.1725,-20.984001,-4.48,-97.04,concentric,9,5.0,42437.0,43465.0,88322.0,74604.0,39686.0,53022.0,39246.0,41869.0,25431.0,18722.0
2026-05-06 16:29:13.491322,850625,1609507216902309,4816813111,0.495808,-0.724192,-0.431392,12.27625,-51.44125,36.37375,-20.984001,-4.48,-97.04,concentric,9,5.0,42437.0,43465.0,88322.0,74604.0,39686.0,53022.0,39246.0,41869.0,25431.0,18722.0
2026-05-06 16:29:13.504830,850626,1609507216911552,4816823890,0.505568,-0.765184,-0.443104,11.15625,-49.98,37.3275,-20.056002,-5.832,-97.73601,concentric,9,5.0,42437.0,43465.0,88322.0,74604.0,39686.0,53022.0,39246.0,41869.0,25431.0,18722.0
2026-05-06 16:29:13.518983,850627,1609507216926272,4816838797,0.513376,-0.755424,-0.372832,11.20875,-48.18625,36.26875,-19.136002,-4.944,-96.744,concentric,9,5.0,42437.0,43465.0,88322.0,74604.0,39686.0,53022.0,39246.0,41869.0,25431.0,18722.0
2026-05-06 16:29:13.525333,850628,1609507216935201,4816847659,0.513376,-0.755424,-0.372832,10.9025,-47.71375,35.23625,-19.136002,-4.944,-96.744,concentric,9,5.0,42437.0,43465.0,88322.0,74604.0,39686.0,53022.0,39246.0,41869.0,25431.0,18722.0
2026-05-06 16:29:13.566391,850629,1609507216949709,4816860555,0.472384,-0.788608,-0.462624,10.15,-49.0525,35.9275,-18.656,-4.776,-98.4,concentric,9,5.0,42437.0,43465.0,88322.0,74604.0,39686.0,53022.0,39246.0,41869.0,25431.0,18722.0
2026-05-06 16:29:13.606223,850640,1609507216959038,4816871819,0.472384,-0.788608,-0.462624,9.03,-48.9125,37.35375,-18.656,-4.776,-98.4,concentric,9,5.0,42957.0,44271.0,89043.0,74941.0,40258.0,53934.0,39649.0,42076.0,25591.0,19026.0
2026-05-06 16:29:13.608818,850641,1609507216968093,4816880574,0.466528,-0.837408,-0.447008,6.60625,-48.405,36.14625,-17.616001,-2.888,-98.304,concentric,9,5.0,42957.0,44271.0,89043.0,74941.0,40258.0,53934.0,39649.0,42076.0,25591.0,19026.0
2026-05-06 16:29:13.611458,850642,1609507216982584,4816893530,0.466528,-0.837408,-0.447008,5.94125,-47.39875,35.74375,-17.616001,-2.888,-98.304,concentric,9,5.0,42957.0,44271.0,89043.0,74941.0,40258.0,53934.0,39649.0,42076.0,25591.0,19026.0
2026-05-06 16:29:13.613958,850643,1609507216991971,4816904317,0.501664,-0.782752,-0.411872,10.36875,-46.375,36.1375,-17.128,-3.928,-98.26401,concentric,9,5.0,42957.0,44271.0,89043.0,74941.0,40258.0,53934.0,39649.0,42076.0,25591.0,19026.0
2026-05-06 16:29:13.616467,850644,1609507217000962,4816913061,0.501664,-0.782752,-0.411872,15.225,-44.9575,34.86,-17.128,-3.928,-98.26401,concentric,9,5.0,42957.0,44271.0,89043.0,74941.0,40258.0,53934.0,39649.0,42076.0,25591.0,19026.0
2026-05-06 16:29:13.618918,850645,1609507217015520,4816928013,0.44896,-0.776896,-0.413824,16.16125,-43.26,32.795002,-16.304,-4.672,-96.576004,concentric,9,5.0,42957.0,44271.0,89043.0,74941.0,40258.0,53934.0,39649.0,42076.0,25591.0,19026.0
2026-05-06 16:29:13.621474,850646,1609507217024487,4816936796,0.376736,-0.778848,-0.41968,13.545,-41.41375,33.4075,-15.480001,-4.968,-94.880005,concentric,9,5.0,42957.0,44271.0,89043.0,74941.0,40258.0,53934.0,39649.0,42076.0,25591.0,19026.0
2026-05-06 16:29:13.630368,850647,1609507217039017,4816951728,0.376736,-0.778848,-0.41968,8.04125,-40.03125,37.8,-15.480001,-4.968,-94.880005,concentric,9,5.0,42957.0,44271.0,89043.0,74941.0,40258.0,53934.0,39649.0,42076.0,25591.0,19026.0
2026-05-06 16:29:13.638968,850648,1609507217047951,4816960481,0.365024,-0.806176,-0.445056,2.03875,-38.8325,40.888752,-14.936001,-1.24,-99.456,concentric,9,5.0,42957.0,44271.0,89043.0,74941.0,40258.0,53934.0,39649.0,42076.0,25591.0,19026.0
2026-05-06 16:29:13.681462,850659,1609507217063142,4816975435,0.365024,-0.806176,-0.445056,-3.7625,-39.025,40.2675,-14.936001,-1.24,-99.456,concentric,9,5.0,43511.0,44753.0,89745.0,75479.0,40689.0,54418.0,39983.0,42334.0,25758.0,19176.0
2026-05-06 16:29:13.686487,850660,1609507217072182,4816984238,0.417728,-0.81008,-0.37088,-6.62375,-39.34875,38.85,-13.976001,-1.224,-101.272,concentric,9,5.0,43511.0,44753.0,89745.0,75479.0,40689.0,54418.0,39983.0,42334.0,25758.0,19176.0
2026-05-06 16:29:13.688887,850661,1609507217081136,4816993001,0.417728,-0.81008,-0.37088,-3.94625,-40.25,38.71,-13.976001,-1.224,-101.272,concentric,9,5.0,43511.0,44753.0,89745.0,75479.0,40689.0,54418.0,39983.0,42334.0,25758.0,19176.0
2026-05-06 16:29:13.691556,850662,1609507217095681,4817007925,0.374784,-0.80032,-0.343552,-2.65125,-41.475,39.87375,-13.320001,-1.04,-99.688,concentric,9,5.0,43511.0,44753.0,89745.0,75479.0,40689.0,54418.0,39983.0,42334.0,25758.0,19176.0
2026-05-06 16:29:13.695292,850663,1609507217104775,4817016667,0.269376,-0.845216,-0.435296,-3.15,-42.9275,40.232502,-12.480001,-2.536,-101.920006,concentric,9,5.0,43511.0,44753.0,89745.0,75479.0,40689.0,54418.0,39983.0,42334.0,25758.0,19176.0
2026-05-06 16:29:13.708905,850664,1609507217119260,4817031640,0.269376,-0.845216,-0.435296,-4.165,-45.07125,41.85125,-12.480001,-2.536,-101.920006,concentric,9,5.0,43511.0,44753.0,89745.0,75479.0,40689.0,54418.0,39983.0,42334.0,25758.0,19176.0
2026-05-06 16:29:13.722656,850665,1609507217128201,4817040374,0.277184,-0.808128,-0.443104,-7.91875,-47.565,43.61875,-11.312,-0.144,-100.600006,concentric,9,5.0,43511.0,44753.0,89745.0,75479.0,40689.0,54418.0,39983.0,42334.0,25758.0,19176.0
2026-05-06 16:29:13.729024,850666,1609507217137115,4817049081,0.277184,-0.808128,-0.443104,-6.85125,-50.72375,44.16125,-11.312,-0.144,-100.600006,concentric,9,5.0,43511.0,44753.0,89745.0,75479.0,40689.0,54418.0,39983.0,42334.0,25758.0,19176.0
2026-05-06 16:29:13.742873,850667,1609507217151775,4817064154,0.30256,-0.815936,-0.392352,-3.73625,-53.33125,43.3475,-10.552,0.336,-100.648,concentric,9,5.0,43511.0,44753.0,89745.0,75479.0,40689.0,54418.0,39983.0,42334.0,25758.0,19176.0
2026-05-06 16:29:13.773900,850678,1609507217161286,4817073051,0.30256,-0.815936,-0.392352,-3.80625,-54.29375,43.33875,-10.552,0.336,-100.648,concentric,9,5.0,43912.0,45059.0,90193.0,76076.0,41041.0,54666.0,40211.0,42635.0,25904.0,19253.0
2026-05-06 16:29:13.778982,850679,1609507217176142,4817088095,0.247904,-0.851072,-0.431392,-5.29375,-54.915,44.33625,-9.696,-0.104,-100.920006,concentric,9,5.0,43912.0,45059.0,90193.0,76076.0,41041.0,54666.0,40211.0,42635.0,25904.0,19253.0
2026-05-06 16:29:13.781466,850680,1609507217185275,4817096874,0.232288,-0.837408,-0.486048,-7.5425,-56.63,45.3775,-9.696,0.128,-101.728004,concentric,9,5.0,43912.0,45059.0,90193.0,76076.0,41041.0,54666.0,40211.0,42635.0,25904.0,19253.0
2026-05-06 16:29:13.784001,850681,1609507217194261,4817105552,0.232288,-0.837408,-0.486048,-8.61875,-58.00375,47.005,-8.752001,0.128,-101.728004,concentric,9,5.0,43912.0,45059.0,90193.0,76076.0,41041.0,54666.0,40211.0,42635.0,25904.0,19253.0
2026-05-06 16:29:13.822667,850682,1609507217208767,4817120498,0.25376,-0.856928,-0.47824,-11.33125,-58.905,48.13375,-6.968,0.416,-102.128006,concentric,9,5.0,43912.0,45059.0,90193.0,76076.0,41041.0,54666.0,40211.0,42635.0,25904.0,19253.0
2026-05-06 16:29:13.825384,850683,1609507217217660,4817129203,0.25376,-0.856928,-0.47824,-14.07875,-60.06,48.685,-6.968,0.416,-102.128006,concentric,9,5.0,43912.0,45059.0,90193.0,76076.0,41041.0,54666.0,40211.0,42635.0,25904.0,19253.0
2026-05-06 16:29:13.827873,850684,1609507217232171,4817144249,0.199104,-0.909632,-0.54656,-17.57,-60.20875,47.85375,-6.36,0.52,-101.96001,concentric,9,5.0,43912.0,45059.0,90193.0,76076.0,41041.0,54666.0,40211.0,42635.0,25904.0,19253.0
2026-05-06 16:29:13.830379,850685,1609507217241105,4817152982,0.199104,-0.909632,-0.54656,-21.2625,-59.010002,45.955,-6.36,0.52,-101.96001,concentric,9,5.0,43912.0,45059.0,90193.0,76076.0,41041.0,54666.0,40211.0,42635.0,25904.0,19253.0
2026-05-06 16:29:13.840163,850686,1609507217250061,4817161738,0.199104,-0.925248,-0.511424,-21.39375,-57.46125,44.87,-5.816001,-1.816,-101.232,concentric,9,5.0,43912.0,45059.0,90193.0,76076.0,41041.0,54666.0,40211.0,42635.0,25904.0,19253.0
2026-05-06 16:29:13.887744,850697,1609507217264716,4817176711,0.199104,-0.925248,-0.511424,-18.9875,-56.55125,45.185,-5.816001,-1.816,-101.232,concentric,9,5.0,44228.0,45514.0,90890.0,76927.0,41324.0,55179.0,40526.0,43097.0,25947.0,19394.0
2026-05-06 16:29:13.890142,850698,1609507217273719,4817185546,0.18544,-0.9272,-0.54656,-15.77625,-54.32875,45.40375,-4.472,-1.752,-102.352005,concentric,9,5.0,44228.0,45514.0,90890.0,76927.0,41324.0,55179.0,40526.0,43097.0,25947.0,19394.0
2026-05-06 16:29:13.892736,850699,1609507217288303,4817200516,0.148352,-0.911584,-0.573888,-14.6825,-51.70375,44.14375,-3.4,-1.648,-101.424,concentric,9,5.0,44228.0,45514.0,90890.0,76927.0,41324.0,55179.0,40526.0,43097.0,25947.0,19394.0
2026-05-06 16:29:13.895196,850700,1609507217297233,4817209221,0.148352,-0.911584,-0.573888,-13.92125,-48.58,42.857502,-3.4,-1.648,-101.424,concentric,9,5.0,44228.0,45514.0,90890.0,76927.0,41324.0,55179.0,40526.0,43097.0,25947.0,19394.0
2026-05-06 16:29:13.926623,850701,1609507217311756,4817224126,0.132736,-0.903776,-0.60512,-14.805,-45.31625,41.44875,-2.664,0.336,-102.632,concentric,9,5.0,44228.0,45514.0,90890.0,76927.0,41324.0,55179.0,40526.0,43097.0,25947.0,19394.0
2026-05-06 16:29:13.951124,850702,1609507217320754,4817232884,0.132736,-0.903776,-0.60512,-16.45,-41.755,41.85125,-2.664,0.336,-102.632,concentric,9,5.0,44228.0,45514.0,90890.0,76927.0,41324.0,55179.0,40526.0,43097.0,25947.0,19394.0
2026-05-06 16:29:13.953985,850703,1609507217329686,4817241611,0.121024,-0.94672,-0.5856,-20.58875,-38.01875,40.9675,-2.448,-0.128,-102.77601,concentric,9,5.0,44228.0,45514.0,90890.0,76927.0,41324.0,55179.0,40526.0,43097.0,25947.0,19394.0
2026-05-06 16:29:13.954822,850704,1609507217344288,4817256548,0.121024,-0.94672,-0.5856,-28.20125,-35.44625,37.45,-2.448,-0.128,-102.77601,concentric,9,5.0,44228.0,45514.0,90890.0,76927.0,41324.0,55179.0,40526.0,43097.0,25947.0,19394.0
2026-05-06 16:29:13.957689,850705,1609507217353212,4817265259,0.128832,-0.98576,-0.640256,-29.1375,-32.138752,34.195,-1.416,-0.568,-103.672005,concentric,9,5.0,44228.0,45514.0,90890.0,76927.0,41324.0,55179.0,40526.0,43097.0,25947.0,19394.0
2026-05-06 16:29:14.016269,850716,1609507217367874,4817280452,0.105408,-0.981856,-0.626592,-23.31875,-28.69125,31.38625,-1.112,-0.992,-105.496,concentric,9,5.0,44516.0,45896.0,91644.0,77647.0,41597.0,55558.0,40887.0,43417.0,26038.0,19517.0
2026-05-06 16:29:14.018983,850717,1609507217376823,4817289216,0.105408,-0.981856,-0.626592,-18.05125,-24.8675,29.37375,-1.112,-0.992,-105.496,concentric,9,5.0,44516.0,45896.0,91644.0,77647.0,41597.0,55558.0,40887.0,43417.0,26038.0,19517.0
2026-05-06 16:29:14.021579,850718,1609507217391377,4817302133,0.070272,-0.919392,-0.67344,-11.1475,-19.97625,28.2975,-0.688,-0.832,-102.952,concentric,9,5.0,44516.0,45896.0,91644.0,77647.0,41597.0,55558.0,40887.0,43417.0,26038.0,19517.0
2026-05-06 16:29:14.023801,850719,1609507217400758,4817312946,0.070272,-0.919392,-0.67344,-5.0575,-14.46375,27.755001,-0.688,-0.832,-102.952,concentric,9,5.0,44516.0,45896.0,91644.0,77647.0,41597.0,55558.0,40887.0,43417.0,26038.0,19517.0
2026-05-06 16:29:14.026500,850720,1609507217409811,4817321671,0.05856,-0.874496,-0.677344,-5.145,-10.64875,27.06375,-0.6,-0.96,-102.712006,concentric,9,5.0,44516.0,45896.0,91644.0,77647.0,41597.0,55558.0,40887.0,43417.0,26038.0,19517.0
2026-05-06 16:29:14.028955,850721,1609507217424412,4817336608,0.05856,-0.874496,-0.677344,-10.9725,-7.7875,25.83875,-0.6,-0.96,-102.712006,concentric,9,5.0,44516.0,45896.0,91644.0,77647.0,41597.0,55558.0,40887.0,43417.0,26038.0,19517.0
2026-05-06 16:29:14.031523,850722,1609507217433348,4817345323,0.040992,-0.919392,-0.64416,-17.29875,-4.6025,23.02125,-0.44,-0.856,-102.984,concentric,9,5.0,44516.0,45896.0,91644.0,77647.0,41597.0,55558.0,40887.0,43417.0,26038.0,19517.0
2026-05-06 16:29:14.042191,850723,1609507217447880,4817360281,0.027328,-0.970144,-0.651968,-20.0725,-2.0475,18.795,-0.304,-2.576,-104.288,concentric,9,5.0,44516.0,45896.0,91644.0,77647.0,41597.0,55558.0,40887.0,43417.0,26038.0,19517.0
2026-05-06 16:29:14.049601,850724,1609507217456988,4817369011,0.027328,-0.970144,-0.651968,-14.84,0.6125,14.74375,-0.304,-2.576,-104.288,concentric,9,5.0,44516.0,45896.0,91644.0,77647.0,41597.0,55558.0,40887.0,43417.0,26038.0,19517.0
2026-05-06 16:29:14.075300,850735,1609507217466076,4817377764,0.027328,-0.970144,-0.651968,-3.71875,2.1,13.2825,-0.304,-2.576,-104.288,concentric,9,5.0,44983.0,46100.0,92054.0,78032.0,41962.0,55728.0,41094.0,43550.0,26252.0,19590.0
2026-05-06 16:29:14.077598,850736,1609507217480630,4817392892,0.013664,-0.905728,-0.622688,5.32875,4.05125,13.72875,-0.632,-2.704,-101.72,concentric,9,5.0,44983.0,46100.0,92054.0,78032.0,41962.0,55728.0,41094.0,43550.0,26252.0,19590.0
2026-05-06 16:29:14.080040,850737,1609507217489619,4817401623,0.02928,-0.841312,-0.607072,7.86625,5.20625,13.51,-0.592,-2.56,-101.520004,concentric,9,5.0,44983.0,46100.0,92054.0,78032.0,41962.0,55728.0,41094.0,43550.0,26252.0,19590.0
2026-05-06 16:29:14.104006,850738,1609507217504100,4817416728,0.02928,-0.841312,-0.607072,5.7575,5.71375,10.57,-0.592,-2.56,-101.520004,concentric,9,5.0,44983.0,46100.0,92054.0,78032.0,41962.0,55728.0,41094.0,43550.0,26252.0,19590.0
2026-05-06 16:29:14.106477,850739,1609507217513013,4817425431,0.00976,-0.909632,-0.552416,2.68625,4.9875,6.055,-0.52,-1.112,-103.144005,concentric,9,5.0,44983.0,46100.0,92054.0,78032.0,41962.0,55728.0,41094.0,43550.0,26252.0,19590.0
2026-05-06 16:29:14.112844,850740,1609507217522031,4817434127,0.00976,-0.909632,-0.552416,-1.56625,4.2875,2.45875,-0.52,-1.112,-103.144005,concentric,9,5.0,44983.0,46100.0,92054.0,78032.0,41962.0,55728.0,41094.0,43550.0,26252.0,19590.0
2026-05-06 16:29:14.126616,850741,1609507217536683,4817449013,0.00976,-0.950624,-0.597312,-1.855,4.41875,-0.95375,-0.384,-1.008,-103.288,concentric,9,5.0,44983.0,46100.0,92054.0,78032.0,41962.0,55728.0,41094.0,43550.0,26252.0,19590.0
2026-05-06 16:29:14.140383,850742,1609507217545629,4817457717,0.00976,-0.950624,-0.597312,3.73625,3.89375,-2.065,-0.384,-1.008,-103.288,concentric,9,5.0,44983.0,46100.0,92054.0,78032.0,41962.0,55728.0,41094.0,43550.0,26252.0,19590.0
2026-05-06 16:29:14.178994,850753,1609507217560086,4817473154,0.03904,-0.909632,-0.525088,10.36875,3.77125,-2.75625,-0.568,-0.376,-103.28001,concentric,9,5.0,45186.0,46181.0,91941.0,78229.0,42165.0,55804.0,41026.0,43654.0,26350.0,19604.0
2026-05-06 16:29:14.181425,850754,1609507217569146,4817481876,0.037088,-0.895968,-0.548512,12.1625,2.8525,-4.13,-0.704,-0.736,-104.05601,concentric,9,5.0,45186.0,46181.0,91941.0,78229.0,42165.0,55804.0,41026.0,43654.0,26350.0,19604.0
2026-05-06 16:29:14.183857,850755,1609507217583742,4817494821,0.037088,-0.895968,-0.548512,10.47375,2.21375,-5.2675,-0.704,-0.736,-104.05601,concentric,9,5.0,45186.0,46181.0,91941.0,78229.0,42165.0,55804.0,41026.0,43654.0,26350.0,19604.0
2026-05-06 16:29:14.186412,850756,1609507217593023,4817505618,0.042944,-0.892064,-0.540704,8.88125,1.33,-5.29375,-1.0,-1.144,-101.76,concentric,9,5.0,45186.0,46181.0,91941.0,78229.0,42165.0,55804.0,41026.0,43654.0,26350.0,19604.0
2026-05-06 16:29:14.192677,850757,1609507217602163,4817514428,0.042944,-0.892064,-0.540704,7.805,1.16375,-6.58875,-1.0,-1.144,-101.76,concentric,9,5.0,45186.0,46181.0,91941.0,78229.0,42165.0,55804.0,41026.0,43654.0,26350.0,19604.0
2026-05-06 16:29:14.208986,850758,1609507217616827,4817529337,0.013664,-0.89792,-0.562176,7.39375,1.67125,-6.92125,-0.232,-0.264,-103.424,concentric,9,5.0,45186.0,46181.0,91941.0,78229.0,42165.0,55804.0,41026.0,43654.0,26350.0,19604.0
2026-05-06 16:29:14.217804,850759,1609507217625830,4817538067,0.013664,-0.89792,-0.562176,8.4875,2.59875,-7.525,-0.232,-0.264,-103.424,concentric,9,5.0,45186.0,46181.0,91941.0,78229.0,42165.0,55804.0,41026.0,43654.0,26350.0,19604.0
2026-05-06 16:29:14.237653,850760,1609507217640366,4817553003,0.035136,-0.88816,-0.564128,10.49125,2.96625,-7.16625,-0.592,0.2,-103.104004,concentric,9,5.0,45186.0,46181.0,91941.0,78229.0,42165.0,55804.0,41026.0,43654.0,26350.0,19604.0
2026-05-06 16:29:14.243139,850761,1609507217649285,4817561733,0.017568,-0.872544,-0.542656,11.83875,2.89625,-6.39625,-0.328,0.288,-103.07201,concentric,9,5.0,45186.0,46181.0,91941.0,78229.0,42165.0,55804.0,41026.0,43654.0,26350.0,19604.0
2026-05-06 16:29:14.250146,850762,1609507217658235,4817570451,0.017568,-0.872544,-0.542656,11.165,2.205,-6.90375,-0.328,0.288,-103.07201,concentric,9,5.0,45186.0,46181.0,91941.0,78229.0,42165.0,55804.0,41026.0,43654.0,26350.0,19604.0
2026-05-06 16:29:14.331387,850773,1609507217672992,4817585515,0.00976,-0.886208,-0.548512,11.22625,1.58375,-8.2075,-0.544,0.368,-103.00001,eccentric,9,5.0,45393.0,46399.0,91847.0,78595.0,42352.0,56002.0,40988.0,43823.0,26429.0,19667.0
2026-05-06 16:29:14.332885,850774,1609507217682046,4817594299,0.00976,-0.886208,-0.548512,11.2525,1.53125,-9.0125,-0.544,0.368,-103.00001,eccentric,9,5.0,45393.0,46399.0,91847.0,78595.0,42352.0,56002.0,40988.0,43823.0,26429.0,19667.0
2026-05-06 16:29:14.334872,850775,1609507217696689,4817609230,0.013664,-0.862784,-0.528992,11.8125,1.54875,-8.9775,-0.656,1.136,-102.984,eccentric,9,5.0,45393.0,46399.0,91847.0,78595.0,42352.0,56002.0,40988.0,43823.0,26429.0,19667.0
2026-05-06 16:29:14.337743,850776,1609507217705788,4817617965,0.013664,-0.862784,-0.528992,11.64625,1.63625,-9.4675,-0.656,1.136,-102.984,eccentric,9,5.0,45393.0,46399.0,91847.0,78595.0,42352.0,56002.0,40988.0,43823.0,26429.0,19667.0
2026-05-06 16:29:14.339989,850777,1609507217714889,4817626722,0.027328,-0.870592,-0.521184,9.073751,1.63625,-9.9225,-0.424,0.552,-102.704,eccentric,9,5.0,45393.0,46399.0,91847.0,78595.0,42352.0,56002.0,40988.0,43823.0,26429.0,19667.0
2026-05-06 16:29:14.342705,850778,1609507217729380,4817641714,0.037088,-0.895968,-0.50752,4.8475,1.49625,-9.8175,-0.424,0.52,-101.54401,eccentric,9,5.0,45393.0,46399.0,91847.0,78595.0,42352.0,56002.0,40988.0,43823.0,26429.0,19667.0
2026-05-06 16:29:14.345168,850779,1609507217738316,4817650429,0.037088,-0.895968,-0.50752,1.54875,1.75,-9.73875,-0.96,0.52,-101.54401,eccentric,9,5.0,45393.0,46399.0,91847.0,78595.0,42352.0,56002.0,40988.0,43823.0,26429.0,19667.0
2026-05-06 16:29:14.347651,850780,1609507217752889,4817665340,0.0488,-0.88816,-0.52704,0.7,1.53125,-9.80875,-0.8,0.16,-101.79201,eccentric,9,5.0,45393.0,46399.0,91847.0,78595.0,42352.0,56002.0,40988.0,43823.0,26429.0,19667.0
2026-05-06 16:29:14.379083,850791,1609507217761905,4817674293,0.0488,-0.88816,-0.52704,1.46125,1.93375,-10.36,-0.8,0.16,-101.79201,eccentric,9,5.0,45584.0,46622.0,91947.0,79014.0,42491.0,56191.0,40991.0,44024.0,26536.0,19732.0
2026-05-06 16:29:14.381585,850792,1609507217770902,4817683016,0.031232,-0.91744,-0.562176,2.09125,3.22,-11.095,-0.952,0.464,-103.80801,eccentric,9,5.0,45584.0,46622.0,91947.0,79014.0,42491.0,56191.0,40991.0,44024.0,26536.0,19732.0
2026-05-06 16:29:14.384030,850793,1609507217785441,4817698014,0.031232,-0.91744,-0.562176,1.75,5.27625,-12.136251,-0.952,0.464,-103.80801,eccentric,9,5.0,45584.0,46622.0,91947.0,79014.0,42491.0,56191.0,40991.0,44024.0,26536.0,19732.0
2026-05-06 16:29:14.386641,850794,1609507217794384,4817706781,0.06832,-0.923296,-0.569984,-0.91875,6.8075,-11.78625,-1.36,-1.216,-101.768005,eccentric,9,5.0,45584.0,46622.0,91947.0,79014.0,42491.0,56191.0,40991.0,44024.0,26536.0,19732.0
2026-05-06 16:29:14.400366,850795,1609507217808905,4817719680,0.06832,-0.923296,-0.569984,-3.24625,8.09375,-11.75125,-1.36,-1.216,-101.768005,eccentric,9,5.0,45584.0,46622.0,91947.0,79014.0,42491.0,56191.0,40991.0,44024.0,26536.0,19732.0
2026-05-06 16:29:14.409097,850796,1609507217818090,4817730483,0.07808,-0.935008,-0.577792,-7.3675,9.52,-12.845,-1.624,0.704,-102.552,eccentric,9,5.0,45584.0,46622.0,91947.0,79014.0,42491.0,56191.0,40991.0,44024.0,26536.0,19732.0
2026-05-06 16:29:14.422781,850797,1609507217832706,4817745424,0.081984,-0.954528,-0.56608,-10.17625,10.92,-14.81375,-1.984,-0.424,-101.68001,eccentric,9,5.0,45584.0,46622.0,91947.0,79014.0,42491.0,56191.0,40991.0,44024.0,26536.0,19732.0
2026-05-06 16:29:14.436345,850798,1609507217841651,4817754126,0.081984,-0.954528,-0.56608,-10.98125,12.792501,-17.36875,-1.984,-0.424,-101.68001,eccentric,9,5.0,45584.0,46622.0,91947.0,79014.0,42491.0,56191.0,40991.0,44024.0,26536.0,19732.0
2026-05-06 16:29:14.442565,850799,1609507217850679,4817762843,0.083936,-0.944768,-0.558272,-10.9025,14.971251,-19.10125,-1.944,0.248,-103.200005,eccentric,9,5.0,45584.0,46622.0,91947.0,79014.0,42491.0,56191.0,40991.0,44024.0,26536.0,19732.0
2026-05-06 16:29:14.486573,850810,1609507217865453,4817777846,0.083936,-0.944768,-0.558272,-9.6425,17.0275,-20.29125,-1.944,0.248,-103.200005,eccentric,9,5.0,45592.0,46561.0,92171.0,79260.0,42529.0,56112.0,41136.0,44161.0,26532.0,19727.0
2026-05-06 16:29:14.488944,850811,1609507217874442,4817786606,0.113216,-0.923296,-0.591456,-7.93625,18.366251,-20.79,-2.712,0.352,-102.48,eccentric,9,5.0,45592.0,46561.0,92171.0,79260.0,42529.0,56112.0,41136.0,44161.0,26532.0,19727.0
2026-05-06 16:29:14.491594,850812,1609507217889098,4817801642,0.113216,-0.923296,-0.591456,-6.60625,19.67,-20.83375,-2.712,0.352,-102.48,eccentric,9,5.0,45592.0,46561.0,92171.0,79260.0,42529.0,56112.0,41136.0,44161.0,26532.0,19727.0
2026-05-06 16:29:14.493924,850813,1609507217898016,4817810386,0.122976,-0.929152,-0.569984,-4.89125,20.8775,-22.05875,-3.056,0.368,-102.22401,eccentric,9,5.0,45592.0,46561.0,92171.0,79260.0,42529.0,56112.0,41136.0,44161.0,26532.0,19727.0
2026-05-06 16:29:14.497888,850814,1609507217907062,4817819104,0.122976,-0.929152,-0.569984,-4.59375,21.79625,-23.54625,-3.056,0.368,-102.22401,eccentric,9,5.0,45592.0,46561.0,92171.0,79260.0,42529.0,56112.0,41136.0,44161.0,26532.0,19727.0
2026-05-06 16:29:14.520711,850815,1609507217921575,4817834129,0.089792,-0.931104,-0.593408,-4.22625,22.89875,-25.3575,-3.592,-0.184,-101.632,eccentric,9,5.0,45592.0,46561.0,92171.0,79260.0,42529.0,56112.0,41136.0,44161.0,26532.0,19727.0
2026-05-06 16:29:14.522492,850816,1609507217930515,4817842812,0.089792,-0.923296,-0.577792,0.13125,24.08,-27.22125,-3.592,-0.184,-103.68001,eccentric,9,5.0,45592.0,46561.0,92171.0,79260.0,42529.0,56112.0,41136.0,44161.0,26532.0,19727.0
2026-05-06 16:29:14.536491,850817,1609507217945159,4817857709,0.105408,-0.923296,-0.577792,5.53875,25.97,-27.965,-4.256,0.712,-103.288,eccentric,9,5.0,45592.0,46561.0,92171.0,79260.0,42529.0,56112.0,41136.0,44161.0,26532.0,19727.0
2026-05-06 16:29:14.545241,850818,1609507217954070,4817866512,0.134688,-0.899872,-0.587552,10.78875,26.11875,-27.83375,-4.672,0.32,-102.16801,eccentric,9,5.0,45592.0,46561.0,92171.0,79260.0,42529.0,56112.0,41136.0,44161.0,26532.0,19727.0
2026-05-06 16:29:14.583948,850829,1609507217968809,4817879834,0.134688,-0.899872,-0.587552,12.20625,26.13625,-26.87125,-4.672,0.32,-102.16801,eccentric,9,5.0,45567.0,46425.0,92208.0,79323.0,42486.0,55987.0,41181.0,44199.0,26505.0,19656.0
2026-05-06 16:29:14.586472,850830,1609507217978484,4817890733,0.154208,-0.901824,-0.593408,9.70375,26.565,-27.36125,-5.224001,-1.472,-101.05601,eccentric,9,5.0,45567.0,46425.0,92208.0,79323.0,42486.0,55987.0,41181.0,44199.0,26505.0,19656.0
2026-05-06 16:29:14.588841,850831,1609507217987445,4817899608,0.154208,-0.901824,-0.593408,7.8225,26.87125,-29.741251,-5.224001,-1.472,-101.05601,eccentric,9,5.0,45567.0,46425.0,92208.0,79323.0,42486.0,55987.0,41181.0,44199.0,26505.0,19656.0
2026-05-06 16:29:14.592808,850832,1609507218001984,4817914555,0.15616,-0.923296,-0.583648,7.5775,27.51875,-31.70125,-5.792,-1.672,-100.088005,eccentric,9,5.0,45567.0,46425.0,92208.0,79323.0,42486.0,55987.0,41181.0,44199.0,26505.0,19656.0
2026-05-06 16:29:14.609394,850833,1609507218010924,4817923264,0.15616,-0.954528,-0.568032,11.6375,27.7375,-31.491251,-5.792,-1.672,-100.088005,eccentric,9,5.0,45567.0,46425.0,92208.0,79323.0,42486.0,55987.0,41181.0,44199.0,26505.0,19656.0
2026-05-06 16:29:14.619465,850834,1609507218025428,4817936206,0.179584,-0.962336,-0.568032,18.4975,28.28875,-32.38375,-6.264,1.456,-101.928,eccentric,9,5.0,45567.0,46425.0,92208.0,79323.0,42486.0,55987.0,41181.0,44199.0,26505.0,19656.0
2026-05-06 16:29:14.645196,850835,1609507218034644,4817947094,0.220576,-0.958432,-0.525088,21.65625,30.28375,-33.95875,-6.8,1.616,-101.80801,eccentric,9,5.0,45567.0,46425.0,92208.0,79323.0,42486.0,55987.0,41181.0,44199.0,26505.0,19656.0
2026-05-06 16:29:14.670278,850836,1609507218043572,4817955790,0.220576,-0.958432,-0.525088,20.3175,32.43625,-34.475,-6.8,1.616,-101.80801,eccentric,9,5.0,45567.0,46425.0,92208.0,79323.0,42486.0,55987.0,41181.0,44199.0,26505.0,19656.0
2026-05-06 16:29:14.695354,850837,1609507218058071,4817970706,0.26352,-0.929152,-0.56608,22.00625,33.9675,-35.16625,-7.544,1.36,-101.176,eccentric,9,5.0,45567.0,46425.0,92208.0,79323.0,42486.0,55987.0,41181.0,44199.0,26505.0,19656.0
2026-05-06 16:29:14.731420,850849,1609507218067496,4817979511,0.26352,-0.929152,-0.56608,26.897501,35.81375,-37.24,-7.544,1.36,-101.176,eccentric,9,5.0,45453.0,46496.0,92113.0,79571.0,42382.0,56045.0,41094.0,44351.0,26451.0,19700.0
2026-05-06 16:29:14.734001,850850,1609507218082058,4817994483,0.25376,-0.948672,-0.49776,29.303751,37.485,-39.4975,-8.272,1.68,-100.96001,eccentric,9,5.0,45453.0,46496.0,92113.0,79571.0,42382.0,56045.0,41094.0,44351.0,26451.0,19700.0
2026-05-06 16:29:14.736467,850851,1609507218090998,4818003206,0.25376,-0.948672,-0.49776,28.4725,38.91125,-40.32875,-8.272,1.68,-100.96001,eccentric,9,5.0,45453.0,46496.0,92113.0,79571.0,42382.0,56045.0,41094.0,44351.0,26451.0,19700.0
2026-05-06 16:29:14.738857,850852,1609507218099911,4818011923,0.222528,-0.89792,-0.509472,25.01625,40.36375,-40.53,-8.848001,2.168,-101.256004,eccentric,9,5.0,45453.0,46496.0,92113.0,79571.0,42382.0,56045.0,41094.0,44351.0,26451.0,19700.0
2026-05-06 16:29:14.741494,850853,1609507218114459,4818026809,0.251808,-0.890112,-0.51728,25.55,42.5075,-40.66125,-10.160001,0.256,-99.43201,eccentric,9,5.0,45453.0,46496.0,92113.0,79571.0,42382.0,56045.0,41094.0,44351.0,26451.0,19700.0
2026-05-06 16:29:14.743985,850854,1609507218123401,4818035578,0.251808,-0.890112,-0.51728,22.505,44.63375,-43.1725,-10.160001,0.256,-99.43201,eccentric,9,5.0,45453.0,46496.0,92113.0,79571.0,42382.0,56045.0,41094.0,44351.0,26451.0,19700.0
2026-05-06 16:29:14.746430,850855,1609507218137931,4818050543,0.267424,-0.8296,-0.460672,17.61375,46.585,-43.5225,-10.952001,2.52,-100.496,eccentric,9,5.0,45453.0,46496.0,92113.0,79571.0,42382.0,56045.0,41094.0,44351.0,26451.0,19700.0
2026-05-06 16:29:14.749110,850856,1609507218146940,4818059376,0.267424,-0.8296,-0.460672,16.2225,47.78375,-40.7575,-10.952001,2.52,-100.496,eccentric,9,5.0,45453.0,46496.0,92113.0,79571.0,42382.0,56045.0,41094.0,44351.0,26451.0,19700.0
2026-05-06 16:29:14.751570,850857,1609507218155908,4818068126,0.249856,-0.841312,-0.443104,13.69375,49.34125,-39.3225,-11.368001,1.872,-100.12,eccentric,9,5.0,45453.0,46496.0,92113.0,79571.0,42382.0,56045.0,41094.0,44351.0,26451.0,19700.0
2026-05-06 16:29:14.780360,850868,1609507218170642,4818083230,0.249856,-0.841312,-0.443104,4.01625,49.42875,-41.763752,-11.368001,1.872,-100.12,eccentric,9,5.0,45835.0,46751.0,91968.0,79927.0,42658.0,56240.0,41026.0,44536.0,26676.0,19786.0
2026-05-06 16:29:14.782781,850869,1609507218179693,4818092103,0.269376,-0.860832,-0.425536,-3.31625,49.58625,-43.35625,-12.912001,-2.008,-96.704,eccentric,9,5.0,45835.0,46751.0,91968.0,79927.0,42658.0,56240.0,41026.0,44536.0,26676.0,19786.0
2026-05-06 16:29:14.785300,850870,1609507218194181,4818105018,0.288896,-0.894016,-0.42944,-5.53,50.33875,-43.925,-13.584001,-2.288,-97.80801,eccentric,9,5.0,45835.0,46751.0,91968.0,79927.0,42658.0,56240.0,41026.0,44536.0,26676.0,19786.0
2026-05-06 16:29:14.798929,850871,1609507218203532,4818115789,0.288896,-0.894016,-0.42944,-3.465,50.225,-45.08,-13.584001,-2.288,-97.80801,eccentric,9,5.0,45835.0,46751.0,91968.0,79927.0,42658.0,56240.0,41026.0,44536.0,26676.0,19786.0
2026-05-06 16:29:14.803573,850872,1609507218212475,4818124502,0.288896,-0.90768,-0.415776,-1.3825,49.735,-45.5875,-13.584001,-2.288,-97.80801,eccentric,9,5.0,45835.0,46751.0,91968.0,79927.0,42658.0,56240.0,41026.0,44536.0,26676.0,19786.0
2026-05-06 16:29:14.819002,850873,1609507218226980,4818139411,0.2928,-0.90768,-0.415776,-1.19,48.95625,-46.69,-14.280001,1.384,-98.4,eccentric,9,5.0,45835.0,46751.0,91968.0,79927.0,42658.0,56240.0,41026.0,44536.0,26676.0,19786.0
2026-05-06 16:29:14.827822,850874,1609507218235923,4818148122,0.32208,-0.880352,-0.396256,-2.52875,48.9125,-50.75,-15.416,0.584,-98.968,eccentric,9,5.0,45835.0,46751.0,91968.0,79927.0,42658.0,56240.0,41026.0,44536.0,26676.0,19786.0
2026-05-06 16:29:14.841544,850875,1609507218250441,4818163081,0.32208,-0.880352,-0.396256,-1.51375,47.73125,-54.29375,-15.416,0.584,-98.968,eccentric,9,5.0,45835.0,46751.0,91968.0,79927.0,42658.0,56240.0,41026.0,44536.0,26676.0,19786.0
2026-05-06 16:29:14.851602,850876,1609507218259335,4818171793,0.392352,-0.8296,-0.443104,3.43875,48.326252,-53.2525,-16.176,-0.392,-97.36001,eccentric,9,5.0,45835.0,46751.0,91968.0,79927.0,42658.0,56240.0,41026.0,44536.0,26676.0,19786.0
2026-05-06 16:29:14.880344,850887,1609507218273905,4818184831,0.404064,-0.808128,-0.4392,4.8475,49.32375,-51.77375,-17.184,-1.368,-95.8,eccentric,9,5.0,45665.0,46642.0,91387.0,79907.0,42511.0,56226.0,40747.0,44557.0,26629.0,19773.0
2026-05-06 16:29:14.885481,850888,1609507218283640,4818195717,0.404064,-0.808128,-0.4392,-0.49875,50.81125,-52.35125,-17.184,-1.368,-95.8,eccentric,9,5.0,45665.0,46642.0,91387.0,79907.0,42511.0,56226.0,40747.0,44557.0,26629.0,19773.0
2026-05-06 16:29:14.885866,850889,1609507218292632,4818204469,0.404064,-0.808128,-0.4392,-6.23875,52.59625,-53.64625,-17.184,-1.368,-95.8,eccentric,9,5.0,45665.0,46642.0,91387.0,79907.0,42511.0,56226.0,40747.0,44557.0,26629.0,19773.0
2026-05-06 16:29:14.899087,850890,1609507218307325,4818219551,0.415776,-0.821792,-0.347456,-11.585,53.7775,-55.53625,-18.552,-2.28,-97.00001,eccentric,9,5.0,45665.0,46642.0,91387.0,79907.0,42511.0,56226.0,40747.0,44557.0,26629.0,19773.0
2026-05-06 16:29:14.907796,850891,1609507218316379,4818228276,0.44896,-0.792512,-0.36112,-13.0025,54.11875,-56.14875,-19.224,-0.984,-97.744,eccentric,9,5.0,45665.0,46642.0,91387.0,79907.0,42511.0,56226.0,40747.0,44557.0,26629.0,19773.0
2026-05-06 16:29:14.931604,850892,1609507218330896,4818243172,0.44896,-0.792512,-0.36112,-9.96625,53.865,-55.88625,-19.224,-0.984,-97.744,eccentric,9,5.0,45665.0,46642.0,91387.0,79907.0,42511.0,56226.0,40747.0,44557.0,26629.0,19773.0
2026-05-06 16:29:14.934097,850893,1609507218339835,4818251918,0.486048,-0.81984,-0.388448,-8.7675,54.4425,-53.978752,-20.224,-2.736,-95.520004,eccentric,9,5.0,45665.0,46642.0,91387.0,79907.0,42511.0,56226.0,40747.0,44557.0,26629.0,19773.0
2026-05-06 16:29:14.941618,850894,1609507218348733,4818260646,0.486048,-0.81984,-0.388448,-8.33875,54.915,-51.8525,-20.224,-2.736,-95.520004,eccentric,9,5.0,45665.0,46642.0,91387.0,79907.0,42511.0,56226.0,40747.0,44557.0,26629.0,19773.0
2026-05-06 16:29:14.955225,850895,1609507218363223,4818275623,0.525088,-0.856928,-0.347456,-13.7025,55.79,-52.28125,-21.072,-3.576,-96.784004,eccentric,9,5.0,45665.0,46642.0,91387.0,79907.0,42511.0,56226.0,40747.0,44557.0,26629.0,19773.0
2026-05-06 16:29:14.982653,850906,1609507218372301,4818284404,0.525088,-0.856928,-0.347456,-14.42875,56.56875,-52.99875,-21.072,-3.576,-96.784004,eccentric,9,5.0,45870.0,46946.0,90939.0,80272.0,42645.0,56417.0,40483.0,44760.0,26786.0,19896.0
2026-05-06 16:29:14.986679,850907,1609507218386898,4818299430,0.587552,-0.845216,-0.2928,-13.5975,57.47,-55.39625,-21.784,-2.24,-96.200005,eccentric,9,5.0,45870.0,46946.0,90939.0,80272.0,42645.0,56417.0,40483.0,44760.0,26786.0,19896.0
2026-05-06 16:29:14.988318,850908,1609507218395858,4818308168,0.5856,-0.700768,-0.31232,-15.07625,58.63375,-56.49,-22.472,-3.512,-96.576004,eccentric,9,5.0,45870.0,46946.0,90939.0,80272.0,42645.0,56417.0,40483.0,44760.0,26786.0,19896.0
2026-05-06 16:29:15.027699,850909,1609507218410345,4818323056,0.5856,-0.700768,-0.31232,-15.60125,60.43625,-56.04375,-22.472,-3.512,-96.576004,eccentric,9,5.0,45870.0,46946.0,90939.0,80272.0,42645.0,56417.0,40483.0,44760.0,26786.0,19896.0
2026-05-06 16:29:15.052856,850910,1609507218419269,4818331778,0.552416,-0.769088,-0.320128,-18.87375,61.99375,-56.595,-23.464,-4.04,-94.94401,eccentric,9,5.0,45870.0,46946.0,90939.0,80272.0,42645.0,56417.0,40483.0,44760.0,26786.0,19896.0
2026-05-06 16:29:15.066608,850911,1609507218428203,4818340492,0.552416,-0.769088,-0.320128,-25.83875,63.77875,-56.04375,-23.464,-4.04,-94.94401,eccentric,9,5.0,45870.0,46946.0,90939.0,80272.0,42645.0,56417.0,40483.0,44760.0,26786.0,19896.0
2026-05-06 16:29:15.068971,850912,1609507218442701,4818355544,0.593408,-0.769088,-0.337696,-30.817501,65.45875,-52.52625,-24.784,-5.032,-94.616005,eccentric,9,5.0,45870.0,46946.0,90939.0,80272.0,42645.0,56417.0,40483.0,44760.0,26786.0,19896.0
2026-05-06 16:29:15.073250,850913,1609507218451645,4818364242,0.593408,-0.769088,-0.337696,-25.515,67.22625,-51.765,-24.784,-5.032,-94.616005,eccentric,9,5.0,45870.0,46946.0,90939.0,80272.0,42645.0,56417.0,40483.0,44760.0,26786.0,19896.0
2026-05-06 16:29:15.073824,850914,1609507218466139,4818377142,0.610976,-0.739808,-0.249856,-22.39125,70.21875,-54.32875,-25.36,-5.56,-93.936005,eccentric,9,5.0,45870.0,46946.0,90939.0,80272.0,42645.0,56417.0,40483.0,44760.0,26786.0,19896.0
2026-05-06 16:29:15.105100,850925,1609507218475384,4818387966,0.495808,-0.706624,-0.32208,-21.14,73.07125,-52.185,-26.272001,-6.32,-95.216,eccentric,9,5.0,45705.0,47295.0,90226.0,81182.0,42423.0,56735.0,40084.0,45277.0,26816.0,20098.0
2026-05-06 16:29:15.107717,850926,1609507218484320,4818396717,0.495808,-0.706624,-0.32208,-11.97875,72.8525,-49.37625,-26.272001,-6.32,-95.216,eccentric,9,5.0,45705.0,47295.0,90226.0,81182.0,42423.0,56735.0,40084.0,45277.0,26816.0,20098.0
2026-05-06 16:29:15.110286,850927,1609507218499106,4818411683,0.568032,-0.667584,-0.181536,-7.98875,71.16375,-52.3775,-27.304,-6.64,-92.664,eccentric,9,5.0,45705.0,47295.0,90226.0,81182.0,42423.0,56735.0,40084.0,45277.0,26816.0,20098.0
2026-05-06 16:29:15.112781,850928,1609507218508233,4818420419,0.568032,-0.667584,-0.181536,-4.6375,66.22875,-52.4125,-27.304,-6.64,-92.664,eccentric,9,5.0,45705.0,47295.0,90226.0,81182.0,42423.0,56735.0,40084.0,45277.0,26816.0,20098.0
2026-05-06 16:29:15.115309,850929,1609507218522843,4818435434,0.564128,-0.454816,-0.245952,-5.9675,62.67625,-47.73125,-28.264002,-10.76,-89.872,eccentric,9,5.0,45705.0,47295.0,90226.0,81182.0,42423.0,56735.0,40084.0,45277.0,26816.0,20098.0
2026-05-06 16:29:15.127887,850930,1609507218531763,4818444147,0.564128,-0.454816,-0.245952,-9.4325,63.18375,-45.99875,-28.264002,-10.76,-89.872,eccentric,9,5.0,45705.0,47295.0,90226.0,81182.0,42423.0,56735.0,40084.0,45277.0,26816.0,20098.0
2026-05-06 16:29:15.141505,850931,1609507218546314,4818459057,0.437248,-0.57584,-0.259616,-23.94875,65.47625,-48.60625,-28.296001,-8.472,-91.128006,eccentric,9,5.0,45705.0,47295.0,90226.0,81182.0,42423.0,56735.0,40084.0,45277.0,26816.0,20098.0
2026-05-06 16:29:15.145307,850932,1609507218555242,4818467851,0.54656,-0.65392,-0.22448,-38.07125,66.7975,-47.85375,-28.296001,-8.472,-92.20801,eccentric,9,5.0,45705.0,47295.0,90226.0,81182.0,42423.0,56735.0,40084.0,45277.0,26816.0,20098.0
2026-05-06 16:29:15.159079,850933,1609507218564224,4818476571,0.55632,-0.65392,-0.22448,-40.34625,65.3275,-45.0625,-29.416002,-8.952001,-92.20801,eccentric,9,5.0,45705.0,47295.0,90226.0,81182.0,42423.0,56735.0,40084.0,45277.0,26816.0,20098.0
2026-05-06 16:29:15.186439,850944,1609507218578779,4818489670,0.525088,-0.607072,-0.173728,-34.99125,63.420002,-42.665,-29.784002,-9.776,-89.064,eccentric,9,5.0,45086.0,46887.0,89284.0,81769.0,41813.0,56357.0,39555.0,45614.0,26615.0,19994.0
2026-05-06 16:29:15.188815,850945,1609507218588339,4818500518,0.525088,-0.607072,-0.173728,-18.935,60.62,-39.50625,-29.784002,-9.776,-89.064,eccentric,9,5.0,45086.0,46887.0,89284.0,81769.0,41813.0,56357.0,39555.0,45614.0,26615.0,19994.0
2026-05-06 16:29:15.195147,850946,1609507218602886,4818515480,0.5368,-0.538752,-0.0976,-6.22125,57.28625,-38.68375,-30.744001,-11.648001,-88.44,eccentric,9,5.0,45086.0,46887.0,89284.0,81769.0,41813.0,56357.0,39555.0,45614.0,26615.0,19994.0
2026-05-06 16:29:15.203994,850947,1609507218611926,4818524229,0.5368,-0.538752,-0.0976,-5.76625,53.6375,-36.39125,-30.744001,-11.648001,-88.44,eccentric,9,5.0,45086.0,46887.0,89284.0,81769.0,41813.0,56357.0,39555.0,45614.0,26615.0,19994.0
2026-05-06 16:29:15.212866,850948,1609507218620846,4818532937,0.59536,-0.6344,-0.267424,-9.1525,50.98625,-30.4325,-31.048002,-11.952001,-88.864006,eccentric,9,5.0,45086.0,46887.0,89284.0,81769.0,41813.0,56357.0,39555.0,45614.0,26615.0,19994.0
2026-05-06 16:29:15.226519,850949,1609507218635290,4818547896,0.59536,-0.6344,-0.142496,-11.83,51.19625,-29.7325,-31.048002,-11.952001,-88.864006,eccentric,9,5.0,45086.0,46887.0,89284.0,81769.0,41813.0,56357.0,39555.0,45614.0,26615.0,19994.0
2026-05-06 16:29:15.235289,850950,1609507218644188,4818556644,0.679296,-0.591456,-0.15616,-18.83875,50.40875,-32.10375,-31.488,-10.776001,-86.832,eccentric,9,5.0,45086.0,46887.0,89284.0,81769.0,41813.0,56357.0,39555.0,45614.0,26615.0,19994.0
2026-05-06 16:29:15.250350,850951,1609507218658834,4818571572,0.568032,-0.542656,-0.17568,-13.02,44.6775,-29.741251,-31.952002,-11.488001,-87.952,eccentric,9,5.0,45086.0,46887.0,89284.0,81769.0,41813.0,56357.0,39555.0,45614.0,26615.0,19994.0
2026-05-06 16:29:15.315300,850962,1609507218667801,4818580356,0.568032,-0.542656,-0.17568,-1.74125,40.39,-30.0475,-31.952002,-11.488001,-87.952,eccentric,9,5.0,44204.0,45750.0,88313.0,80190.0,40919.0,55245.0,39093.0,44804.0,26136.0,19540.0
2026-05-06 16:29:15.317848,850963,1609507218676800,4818589094,0.603168,-0.609024,-0.101504,-1.32125,39.4975,-28.98,-32.824,-15.056001,-85.94401,eccentric,9,5.0,44204.0,45750.0,88313.0,80190.0,40919.0,55245.0,39093.0,44804.0,26136.0,19540.0
2026-05-06 16:29:15.320299,850964,1609507218691321,4818604043,0.603168,-0.609024,-0.101504,-6.16,38.64,-23.17,-32.824,-15.056001,-85.94401,eccentric,9,5.0,44204.0,45750.0,88313.0,80190.0,40919.0,55245.0,39093.0,44804.0,26136.0,19540.0
2026-05-06 16:29:15.322780,850965,1609507218700258,4818612767,0.597312,-0.622688,-0.23424,-8.68,36.8725,-17.395,-32.688,-11.704,-87.12,eccentric,9,5.0,44204.0,45750.0,88313.0,80190.0,40919.0,55245.0,39093.0,44804.0,26136.0,19540.0
2026-05-06 16:29:15.325310,850966,1609507218714774,4818625687,0.597312,-0.622688,-0.23424,-7.28875,35.11375,-13.57125,-32.688,-11.704,-87.12,eccentric,9,5.0,44204.0,45750.0,88313.0,80190.0,40919.0,55245.0,39093.0,44804.0,26136.0,19540.0
2026-05-06 16:29:15.327845,850967,1609507218724131,4818636535,0.81008,-0.5856,-0.093696,-6.615,36.39125,-13.8075,-32.816,-12.248,-86.712006,eccentric,9,5.0,44204.0,45750.0,88313.0,80190.0,40919.0,55245.0,39093.0,44804.0,26136.0,19540.0
2026-05-06 16:29:15.330337,850968,1609507218738675,4818649428,0.528992,-0.454816,-0.052704,-7.18375,36.015,-15.225,-33.296,-12.632001,-86.28001,eccentric,9,5.0,44204.0,45750.0,88313.0,80190.0,40919.0,55245.0,39093.0,44804.0,26136.0,19540.0
2026-05-06 16:29:15.338966,850969,1609507218747970,4818660262,0.528992,-0.454816,-0.052704,-2.16125,32.9525,-14.63,-33.296,-12.632001,-86.28001,eccentric,9,5.0,44204.0,45750.0,88313.0,80190.0,40919.0,55245.0,39093.0,44804.0,26136.0,19540.0
2026-05-06 16:29:15.347880,850970,1609507218756900,4818668996,0.513376,-0.665632,-0.124928,-3.92875,30.12625,-14.11375,-33.296,-14.464001,-83.552,eccentric,9,5.0,44204.0,45750.0,88313.0,80190.0,40919.0,55245.0,39093.0,44804.0,26136.0,19540.0
2026-05-06 16:29:15.448766,850981,1609507218771757,4818683972,0.513376,-0.665632,-0.124928,-7.105,25.935,-9.72125,-33.416,-14.464001,-83.552,eccentric,9,5.0,43561.0,44603.0,87907.0,79017.0,40275.0,54037.0,38837.0,44143.0,25824.0,19080.0
2026-05-06 16:29:15.451230,850982,1609507218780840,4818692833,0.698816,-0.706624,-0.154208,-6.58875,22.00625,-1.25125,-33.448,-12.880001,-85.592,eccentric,9,5.0,43561.0,44603.0,87907.0,79017.0,40275.0,54037.0,38837.0,44143.0,25824.0,19080.0
2026-05-06 16:29:15.454411,850983,1609507218795351,4818707796,0.698816,-0.706624,-0.154208,-3.7975,18.73375,2.14375,-33.448,-12.880001,-85.592,eccentric,9,5.0,43561.0,44603.0,87907.0,79017.0,40275.0,54037.0,38837.0,44143.0,25824.0,19080.0
2026-05-06 16:29:15.462674,850984,1609507218804272,4818716541,0.64416,-0.452864,-0.033184,0.42875,16.17,3.64875,-33.72,-12.016001,-86.47201,eccentric,9,5.0,43561.0,44603.0,87907.0,79017.0,40275.0,54037.0,38837.0,44143.0,25824.0,19080.0
2026-05-06 16:29:15.465255,850985,1609507218813321,4818725255,0.64416,-0.452864,-0.033184,0.88375,12.87125,5.11,-33.72,-12.016001,-86.47201,eccentric,9,5.0,43561.0,44603.0,87907.0,79017.0,40275.0,54037.0,38837.0,44143.0,25824.0,19080.0
2026-05-06 16:29:15.467686,850986,1609507218828011,4818740256,0.51728,-0.501664,-0.062464,-4.7775,10.36,6.71125,-33.72,-11.6,-85.68,eccentric,9,5.0,43561.0,44603.0,87907.0,79017.0,40275.0,54037.0,38837.0,44143.0,25824.0,19080.0
2026-05-06 16:29:15.470209,850987,1609507218837114,4818748993,0.51728,-0.501664,-0.115168,-11.85625,8.0325,8.8025,-33.72,-11.6,-85.68,eccentric,9,5.0,43561.0,44603.0,87907.0,79017.0,40275.0,54037.0,38837.0,44143.0,25824.0,19080.0
2026-05-06 16:29:15.472671,850988,1609507218851640,4818763951,0.70272,-0.720288,-0.115168,-15.408751,4.9875,10.59625,-33.704002,-15.128,-83.58401,eccentric,9,5.0,43561.0,44603.0,87907.0,79017.0,40275.0,54037.0,38837.0,44143.0,25824.0,19080.0
2026-05-06 16:29:15.475084,850989,1609507218860671,4818772668,0.747616,-0.6344,-0.056608,-11.515,2.16125,11.52375,-33.888,-11.416,-85.856,eccentric,9,5.0,43561.0,44603.0,87907.0,79017.0,40275.0,54037.0,38837.0,44143.0,25824.0,19080.0
2026-05-06 16:29:15.505268,851000,1609507218869615,4818781592,0.747616,-0.6344,-0.056608,-3.54375,-0.77875,11.89125,-33.888,-11.416,-85.856,eccentric,9,5.0,42883.0,43335.0,87566.0,77658.0,39781.0,52617.0,38620.0,43343.0,25608.0,18606.0
2026-05-06 16:29:15.507736,851001,1609507218885010,4818796704,0.691008,-0.562176,0.02928,2.4325,-4.19125,10.28125,-33.864002,-13.976001,-85.048004,eccentric,9,5.0,42883.0,43335.0,87566.0,77658.0,39781.0,52617.0,38620.0,43343.0,25608.0,18606.0
2026-05-06 16:29:15.510287,851002,1609507218893925,4818805476,0.691008,-0.562176,0.02928,1.4175,-6.69375,7.455,-33.864002,-13.976001,-85.048004,eccentric,9,5.0,42883.0,43335.0,87566.0,77658.0,39781.0,52617.0,38620.0,43343.0,25608.0,18606.0
2026-05-06 16:29:15.512857,851003,1609507218908602,4818820495,0.69296,-0.69296,-0.050752,-2.38875,-8.58375,5.66125,-34.008003,-14.696001,-84.856,eccentric,9,5.0,42883.0,43335.0,87566.0,77658.0,39781.0,52617.0,38620.0,43343.0,25608.0,18606.0
2026-05-06 16:29:15.515349,851004,1609507218917635,4818829236,0.69296,-0.69296,-0.060512,-4.33125,-10.91125,4.38375,-34.008003,-14.696001,-84.856,eccentric,9,5.0,42883.0,43335.0,87566.0,77658.0,39781.0,52617.0,38620.0,43343.0,25608.0,18606.0
2026-05-06 16:29:15.517810,851005,1609507218926585,4818837941,0.776896,-0.704672,-0.060512,-1.93375,-13.5625,3.57875,-33.728,-13.472001,-83.920006,eccentric,9,5.0,42883.0,43335.0,87566.0,77658.0,39781.0,52617.0,38620.0,43343.0,25608.0,18606.0
2026-05-06 16:29:15.534050,851006,1609507218941121,4818852898,0.737856,-0.607072,-0.017568,1.70625,-15.12875,2.87,-33.368,-13.208,-85.44,eccentric,9,5.0,42883.0,43335.0,87566.0,77658.0,39781.0,52617.0,38620.0,43343.0,25608.0,18606.0
2026-05-06 16:29:15.542489,851007,1609507218950016,4818861595,0.737856,-0.607072,-0.017568,2.485,-15.75,1.7675,-33.368,-13.208,-85.44,eccentric,9,5.0,42883.0,43335.0,87566.0,77658.0,39781.0,52617.0,38620.0,43343.0,25608.0,18606.0
2026-05-06 16:29:15.558709,851008,1609507218964513,4818876688,0.716384,-0.657824,-0.027328,-1.54875,-15.33,-1.54875,-33.120003,-12.128,-86.496,eccentric,9,5.0,42883.0,43335.0,87566.0,77658.0,39781.0,52617.0,38620.0,43343.0,25608.0,18606.0
2026-05-06 16:29:15.596597,851019,1609507218974018,4818885926,0.716384,-0.657824,-0.027328,-6.46625,-13.8075,-3.50875,-33.120003,-12.128,-86.496,eccentric,9,5.0,42173.0,42978.0,86904.0,76208.0,39273.0,52228.0,38344.0,42609.0,25311.0,18443.0
2026-05-06 16:29:15.599135,851020,1609507218983116,4818894750,0.72224,-0.6832,-0.062464,-9.02125,-12.74,-3.6575,-33.264,-13.72,-85.464005,eccentric,9,5.0,42173.0,42978.0,86904.0,76208.0,39273.0,52228.0,38344.0,42609.0,25311.0,18443.0
2026-05-06 16:29:15.601601,851021,1609507218997666,4818909714,0.72224,-0.6832,-0.062464,-6.99125,-13.685,-3.2725,-33.264,-13.72,-85.464005,eccentric,9,5.0,42173.0,42978.0,86904.0,76208.0,39273.0,52228.0,38344.0,42609.0,25311.0,18443.0
2026-05-06 16:29:15.604059,851022,1609507219006728,4818918532,0.716384,-0.646112,-0.091744,-4.68125,-14.8225,-2.1,-32.808002,-11.472,-84.75201,eccentric,9,5.0,42173.0,42978.0,86904.0,76208.0,39273.0,52228.0,38344.0,42609.0,25311.0,18443.0
2026-05-06 16:29:15.612846,851023,1609507219021212,4818933489,0.716384,-0.65392,-0.081984,-3.49125,-15.18125,-0.63,-33.128002,-15.360001,-84.704,eccentric,9,5.0,42173.0,42978.0,86904.0,76208.0,39273.0,52228.0,38344.0,42609.0,25311.0,18443.0
2026-05-06 16:29:15.624085,851024,1609507219030143,4818942223,0.716384,-0.65392,-0.081984,-3.29875,-15.7675,-0.42,-33.128002,-15.360001,-84.704,eccentric,9,5.0,42173.0,42978.0,86904.0,76208.0,39273.0,52228.0,38344.0,42609.0,25311.0,18443.0
