pc_time,serial_num,sensor_ts,host_ts,ax,ay,az,gx,gy,gz,mx,my,mz,phase,rpe,weight_kg,ppg_a,ppg_b,ppg_c,ppg_d,ppg_e
2026-04-08 21:39:24.053317,123620,1609503536290609,1136257315,-1.026752,0.011712,-0.052704,15.995,-9.7825,14.735,26.328001,-16.552,5.632,concentric,5,3.0,21685.0,152636.0,244423.0,292609.0,269628.0
2026-04-08 21:39:24.085658,123631,1609503536299502,1136266045,-1.026752,0.011712,-0.052704,15.3825,-9.30125,15.23375,26.328001,-16.552,5.632,concentric,5,3.0,21681.0,152605.0,244397.0,292607.0,269615.0
2026-04-08 21:39:24.088126,123632,1609503536314023,1136280967,-1.018944,0.035136,-0.027328,12.92375,-9.073751,16.00375,26.240002,-16.768002,2.472,concentric,5,3.0,21681.0,152605.0,244397.0,292607.0,269615.0
2026-04-08 21:39:24.090616,123633,1609503536323010,1136289672,-1.018944,0.035136,-0.042944,11.29625,-10.01875,17.4475,26.240002,-16.768002,2.472,concentric,5,3.0,21681.0,152605.0,244397.0,292607.0,269615.0
2026-04-08 21:39:24.093091,123634,1609503536331922,1136298406,-1.057984,0.00976,-0.037088,13.3175,-10.80625,18.57625,26.160002,-16.816,2.12,concentric,5,3.0,21681.0,152605.0,244397.0,292607.0,269615.0
2026-04-08 21:39:24.095613,123635,1609503536346479,1136313310,-0.915488,0.003904,0.132736,15.47875,-11.38375,18.62,25.368002,-17.312,4.384,concentric,5,3.0,21681.0,152605.0,244397.0,292607.0,269615.0
2026-04-08 21:39:24.101883,123636,1609503536355422,1136322000,-0.915488,0.003904,0.132736,15.37375,-12.45125,21.3325,25.368002,-17.312,4.384,concentric,5,3.0,21681.0,152605.0,244397.0,292607.0,269615.0
2026-04-08 21:39:24.134554,123637,1609503536369966,1136336879,-0.90768,0.060512,0.06832,13.79875,-12.6875,24.6225,25.472002,-17.960001,2.384,concentric,5,3.0,21681.0,152605.0,244397.0,292607.0,269615.0
2026-04-08 21:39:24.138126,123638,1609503536378893,1136345528,-0.90768,0.060512,0.06832,11.62875,-12.95875,28.35875,25.472002,-17.960001,2.384,concentric,5,3.0,21681.0,152605.0,244397.0,292607.0,269615.0
2026-04-08 21:39:24.141821,123639,1609503536393340,1136360411,-0.952576,0.099552,0.070272,9.511251,-13.86875,32.33125,25.2,-17.984001,2.328,concentric,5,3.0,21681.0,152605.0,244397.0,292607.0,269615.0
2026-04-08 21:39:24.171830,123650,1609503536402320,1136369197,-0.952576,0.099552,0.070272,9.073751,-13.18625,36.6975,25.2,-17.984001,2.328,concentric,5,3.0,21943.0,153731.0,245736.0,293430.0,270107.0
2026-04-08 21:39:24.176854,123651,1609503536411347,1136377906,-0.991616,0.050752,-0.033184,11.97875,-13.405,40.50375,24.880001,-18.656,4.016,concentric,5,3.0,21943.0,153731.0,245736.0,293430.0,270107.0
2026-04-08 21:39:24.179333,123652,1609503536425922,1136392807,-0.899872,0.101504,0.201056,14.7875,-16.05625,45.43,24.12,-18.92,2.232,concentric,5,3.0,21943.0,153731.0,245736.0,293430.0,270107.0
2026-04-08 21:39:24.181910,123653,1609503536434863,1136401506,-0.899872,0.101504,0.201056,19.845,-18.6375,49.55125,24.12,-18.92,2.232,concentric,5,3.0,21943.0,153731.0,245736.0,293430.0,270107.0
2026-04-08 21:39:24.212050,123654,1609503536449356,1136416366,-0.884256,0.105408,0.148352,25.8825,-19.88875,51.56375,23.744001,-19.408,2.368,concentric,5,3.0,21943.0,153731.0,245736.0,293430.0,270107.0
2026-04-08 21:39:24.215687,123655,1609503536458280,1136425024,-0.884256,0.105408,0.148352,27.44,-22.26,52.89375,23.744001,-19.408,2.368,concentric,5,3.0,21943.0,153731.0,245736.0,293430.0,270107.0
2026-04-08 21:39:24.218172,123656,1609503536467203,1136433682,-0.901824,0.099552,-0.095648,24.42125,-23.00375,54.31125,23.704,-20.352001,2.264,concentric,5,3.0,21943.0,153731.0,245736.0,293430.0,270107.0
2026-04-08 21:39:24.248277,123657,1609503536481705,1136448610,-0.901824,0.099552,-0.095648,16.905,-20.8775,55.01125,23.704,-20.352001,2.264,concentric,5,3.0,21943.0,153731.0,245736.0,293430.0,270107.0
2026-04-08 21:39:24.251851,123658,1609503536490597,1136457279,-0.921344,0.10736,0.105408,3.9725,-20.43125,58.2225,23.52,-20.696001,2.616,concentric,5,3.0,21943.0,153731.0,245736.0,293430.0,270107.0
2026-04-08 21:39:24.279393,123669,1609503536505379,1136472159,-1.05408,0.199104,0.105408,-5.11,-22.00625,61.18875,22.36,-21.12,2.448,concentric,5,3.0,22012.0,153992.0,245985.0,293562.0,270194.0
2026-04-08 21:39:24.281992,123670,1609503536514462,1136480908,-1.05408,0.199104,0.105408,0.455,-23.68625,60.725,22.36,-21.12,2.448,concentric,5,3.0,22012.0,153992.0,245985.0,293562.0,270194.0
2026-04-08 21:39:24.284376,123671,1609503536528959,1136495811,-0.997472,0.130784,0.080032,13.2125,-21.53375,56.63,21.736002,-21.488,4.032,concentric,5,3.0,22012.0,153992.0,245985.0,293562.0,270194.0
2026-04-08 21:39:24.286897,123672,1609503536537936,1136504503,-0.997472,0.130784,0.080032,17.17625,-18.803751,54.04,21.736002,-21.488,4.032,concentric,5,3.0,22012.0,153992.0,245985.0,293562.0,270194.0
2026-04-08 21:39:24.317074,123673,1609503536546885,1136513192,-0.919392,0.1952,0.101504,9.44125,-18.7775,55.90375,20.888,-22.240002,3.72,concentric,5,3.0,22012.0,153992.0,245985.0,293562.0,270194.0
2026-04-08 21:39:24.320640,123674,1609503536561361,1136528064,-0.919392,0.1952,0.101504,-1.225,-18.97875,57.09375,20.888,-22.240002,3.72,concentric,5,3.0,22012.0,153992.0,245985.0,293562.0,270194.0
2026-04-08 21:39:24.323132,123675,1609503536570259,1136536713,-0.991616,0.275232,0.076128,-11.06875,-20.1075,57.365,20.928001,-22.744001,3.288,concentric,5,3.0,22012.0,153992.0,245985.0,293562.0,270194.0
2026-04-08 21:39:24.353486,123676,1609503536584752,1136551599,-0.991616,0.275232,0.044896,-19.241251,-22.18125,58.415,20.928001,-22.744001,3.288,concentric,5,3.0,22012.0,153992.0,245985.0,293562.0,270194.0
2026-04-08 21:39:24.359495,123677,1609503536593693,1136560287,-0.979904,0.230336,0.035136,-13.51875,-20.97375,56.21,20.656,-23.136002,3.52,concentric,5,3.0,22012.0,153992.0,245985.0,293562.0,270194.0
2026-04-08 21:39:24.390652,123688,1609503536608215,1136575220,-0.979904,0.13664,0.021472,-3.99,-18.13875,50.89,19.824001,-23.640001,3.552,concentric,5,3.0,22274.0,155099.0,247247.0,294369.0,270634.0
2026-04-08 21:39:24.393138,123689,1609503536617153,1136583954,-0.979904,0.13664,0.021472,-6.83375,-17.6925,52.255,19.824001,-23.640001,3.552,concentric,5,3.0,22274.0,155099.0,247247.0,294369.0,270634.0
2026-04-08 21:39:24.395650,123690,1609503536626264,1136592650,-0.993568,0.216672,0.101504,-9.05625,-17.63125,55.85125,19.488,-24.008001,3.792,concentric,5,3.0,22274.0,155099.0,247247.0,294369.0,270634.0
2026-04-08 21:39:24.398136,123691,1609503536640816,1136607504,-0.993568,0.216672,0.101504,-6.93875,-18.01625,56.25375,19.488,-24.008001,3.792,concentric,5,3.0,22274.0,155099.0,247247.0,294369.0,270634.0
2026-04-08 21:39:24.400638,123692,1609503536649792,1136616197,-0.86864,0.269376,0.140544,-4.48875,-15.2075,53.31375,18.856,-24.536001,4.36,concentric,5,3.0,22274.0,155099.0,247247.0,294369.0,270634.0
2026-04-08 21:39:24.432093,123693,1609503536664295,1136631091,-0.86864,0.269376,0.140544,-4.6725,-14.9975,51.1,18.856,-24.536001,4.36,concentric,5,3.0,22274.0,155099.0,247247.0,294369.0,270634.0
2026-04-08 21:39:24.434810,123694,1609503536673201,1136639745,-0.938912,0.33184,0.197152,-3.115,-15.855001,47.81875,18.800001,-24.712002,3.024,concentric,5,3.0,22274.0,155099.0,247247.0,294369.0,270634.0
2026-04-08 21:39:24.437218,123695,1609503536687674,1136654626,-1.028704,0.247904,0.31232,-2.205,-15.79375,44.00375,18.04,-25.160002,4.416,concentric,5,3.0,22274.0,155099.0,247247.0,294369.0,270634.0
2026-04-08 21:39:24.443162,123696,1609503536696611,1136663330,-1.028704,0.247904,0.31232,-10.01875,-19.48625,44.3275,18.04,-25.160002,4.416,concentric,5,3.0,22274.0,155099.0,247247.0,294369.0,270634.0
2026-04-08 21:39:24.473164,123707,1609503536706165,1136672170,-0.856928,0.244,0.2928,-12.88875,-24.6575,48.57125,18.04,-25.160002,4.576,concentric,5,3.0,22377.0,155477.0,247637.0,294689.0,270867.0
2026-04-08 21:39:24.475865,123708,1609503536720677,1136687063,-0.851072,0.244,0.2928,-7.0525,-25.935,47.90625,17.560001,-25.6,4.576,concentric,5,3.0,22377.0,155477.0,247637.0,294689.0,270867.0
2026-04-08 21:39:24.485751,123709,1609503536729662,1136695774,-0.8296,0.324032,0.228384,-0.13125,-24.29,41.335,16.712,-26.104002,5.672,concentric,5,3.0,22377.0,155477.0,247637.0,294689.0,270867.0
2026-04-08 21:39:24.490656,123710,1609503536744154,1136710691,-0.8296,0.324032,0.228384,2.87,-21.90125,37.61625,16.712,-26.104002,5.672,concentric,5,3.0,22377.0,155477.0,247637.0,294689.0,270867.0
2026-04-08 21:39:24.520854,123711,1609503536753064,1136719353,-0.954528,0.337696,0.033184,-2.1,-18.68125,37.10875,16.2,-26.224,5.088,concentric,5,3.0,22377.0,155477.0,247637.0,294689.0,270867.0
2026-04-08 21:39:24.524439,123712,1609503536761954,1136728025,-0.954528,0.337696,0.033184,-13.02,-17.92,36.67125,16.2,-26.224,5.088,concentric,5,3.0,22377.0,155477.0,247637.0,294689.0,270867.0
2026-04-08 21:39:24.526892,123713,1609503536776404,1136742959,-1.003328,0.259616,0.3904,-20.27375,-19.3725,38.15,16.304,-26.240002,4.24,concentric,5,3.0,22377.0,155477.0,247637.0,294689.0,270867.0
2026-04-08 21:39:24.531990,123714,1609503536785378,1136751666,-1.003328,0.259616,0.3904,-22.67125,-18.8125,39.7425,16.304,-26.240002,4.24,concentric,5,3.0,22377.0,155477.0,247637.0,294689.0,270867.0
2026-04-08 21:39:24.562206,123715,1609503536799841,1136766555,-0.983808,0.28304,0.124928,-18.17375,-16.73,33.80125,16.112001,-26.888,4.928001,concentric,5,3.0,22377.0,155477.0,247637.0,294689.0,270867.0
2026-04-08 21:39:24.592033,123726,1609503536808857,1136775314,-0.847168,0.3416,0.158112,-10.00125,-11.87375,27.13375,15.976001,-26.784,4.288,concentric,5,3.0,22608.0,156416.0,248708.0,295346.0,271220.0
2026-04-08 21:39:24.594899,123727,1609503536823308,1136790189,-0.847168,0.3416,0.158112,-9.21375,-8.77625,25.54125,15.976001,-26.784,4.288,concentric,5,3.0,22608.0,156416.0,248708.0,295346.0,271220.0
2026-04-08 21:39:24.595947,123728,1609503536832224,1136798913,-0.976,0.316224,0.212768,-11.9525,-9.10875,23.66,15.584001,-27.2,4.92,concentric,5,3.0,22608.0,156416.0,248708.0,295346.0,271220.0
2026-04-08 21:39:24.598158,123729,1609503536841161,1136807573,-0.976,0.316224,0.212768,-14.4025,-13.886251,23.07375,15.584001,-27.2,4.92,concentric,5,3.0,22608.0,156416.0,248708.0,295346.0,271220.0
2026-04-08 21:39:24.603185,123730,1609503536855659,1136822514,-0.895968,0.316224,0.32208,-14.91875,-21.44625,26.565,14.976001,-27.296001,4.784,concentric,5,3.0,22608.0,156416.0,248708.0,295346.0,271220.0
2026-04-08 21:39:24.634509,123731,1609503536864604,1136831228,-0.895968,0.316224,0.32208,-9.135,-26.20625,24.84125,14.976001,-27.296001,4.784,concentric,5,3.0,22608.0,156416.0,248708.0,295346.0,271220.0
2026-04-08 21:39:24.636936,123732,1609503536879104,1136846072,-0.93696,0.30256,0.191296,-5.90625,-29.522501,21.58625,15.144001,-27.672,5.0,concentric,5,3.0,22608.0,156416.0,248708.0,295346.0,271220.0
2026-04-08 21:39:24.639537,123733,1609503536888028,1136854719,-0.837408,0.31232,0.054656,-7.41125,-33.25,21.428751,15.096001,-27.632002,5.64,concentric,5,3.0,22608.0,156416.0,248708.0,295346.0,271220.0
2026-04-08 21:39:24.695638,123744,1609503536902550,1136869621,-0.837408,0.31232,0.054656,-11.89125,-34.62375,18.8125,15.096001,-27.632002,5.64,concentric,5,3.0,22863.0,157380.0,249757.0,295946.0,271496.0
2026-04-08 21:39:24.698135,123745,1609503536911446,1136878319,-0.851072,0.38064,0.366976,-17.15,-36.74125,12.67,14.72,-27.992,5.12,concentric,5,3.0,22863.0,157380.0,249757.0,295946.0,271496.0
2026-04-08 21:39:24.700663,123746,1609503536920376,1136886974,-0.851072,0.38064,0.366976,-14.6475,-38.185,5.36375,14.72,-27.992,5.12,concentric,5,3.0,22863.0,157380.0,249757.0,295946.0,271496.0
2026-04-08 21:39:24.703206,123747,1609503536934972,1136901840,-0.923296,0.325984,0.27328,-12.1275,-38.465,3.045,14.928,-28.152,5.664,concentric,5,3.0,22863.0,157380.0,249757.0,295946.0,271496.0
2026-04-08 21:39:24.705656,123748,1609503536943995,1136910542,-0.923296,0.325984,0.27328,-12.01375,-37.59,5.90625,14.928,-28.152,5.664,concentric,5,3.0,22863.0,157380.0,249757.0,295946.0,271496.0
2026-04-08 21:39:24.708158,123749,1609503536958503,1136925519,-0.872544,0.353312,0.279136,-7.7,-33.62625,5.425,14.752001,-28.52,5.08,concentric,5,3.0,22863.0,157380.0,249757.0,295946.0,271496.0
2026-04-08 21:39:24.714410,123750,1609503536967463,1136934222,-0.872544,0.363072,0.238144,-6.5625,-26.18,0.74375,14.752001,-28.52,5.08,concentric,5,3.0,22863.0,157380.0,249757.0,295946.0,271496.0
2026-04-08 21:39:24.744646,123751,1609503536981983,1136949091,-0.960384,0.363072,0.238144,-14.70875,-20.06375,-3.9025,14.688001,-28.224,6.024,concentric,5,3.0,22863.0,157380.0,249757.0,295946.0,271496.0
2026-04-08 21:39:24.748200,123752,1609503536990929,1136957732,-0.944768,0.359168,0.193248,-28.46375,-16.8175,-8.47,14.888001,-28.064001,6.272,concentric,5,3.0,22863.0,157380.0,249757.0,295946.0,271496.0
2026-04-08 21:39:24.751018,123753,1609503536999840,1136966406,-0.944768,0.359168,0.193248,-38.675,-17.19375,-10.99,14.888001,-28.064001,6.272,concentric,5,3.0,22863.0,157380.0,249757.0,295946.0,271496.0
2026-04-08 21:39:24.779969,123764,1609503537014391,1136981428,-0.899872,0.3416,0.540704,-38.12375,-16.07375,-12.792501,15.024001,-28.104002,7.28,concentric,5,3.0,23085.0,158241.0,250626.0,296431.0,271774.0
2026-04-08 21:39:24.782400,123765,1609503537023339,1136990149,-0.899872,0.3416,0.540704,-35.945,-16.09125,-13.76375,15.024001,-28.104002,7.28,concentric,5,3.0,23085.0,158241.0,250626.0,296431.0,271774.0
2026-04-08 21:39:24.786026,123766,1609503537037857,1137003034,-0.93696,0.255712,0.388448,-25.4275,-12.71375,-15.0325,15.152,-28.192001,7.408001,concentric,5,3.0,23085.0,158241.0,250626.0,296431.0,271774.0
2026-04-08 21:39:24.814593,123767,1609503537047135,1137013860,-0.93696,0.255712,0.388448,-18.3575,-7.42875,-16.695,15.152,-28.192001,7.408001,concentric,5,3.0,23085.0,158241.0,250626.0,296431.0,271774.0
2026-04-08 21:39:24.819100,123768,1609503537056061,1137022560,-0.993568,0.290848,0.435296,-17.115,-1.68,-19.32875,15.488001,-28.352001,4.624,concentric,5,3.0,23085.0,158241.0,250626.0,296431.0,271774.0
2026-04-08 21:39:24.820640,123769,1609503537070545,1137037418,-0.989664,0.394304,0.281088,-20.62375,1.28625,-22.505,15.888001,-27.968,6.536,concentric,5,3.0,23085.0,158241.0,250626.0,296431.0,271774.0
2026-04-08 21:39:24.828574,123770,1609503537079470,1137046083,-0.989664,0.394304,0.281088,-25.48875,2.065,-26.15375,15.888001,-27.968,6.536,concentric,5,3.0,23085.0,158241.0,250626.0,296431.0,271774.0
2026-04-08 21:39:24.857210,123771,1609503537093973,1137060952,-1.14192,0.40992,0.447008,-17.3775,3.43,-29.25125,16.400002,-28.376001,6.592001,concentric,5,3.0,23085.0,158241.0,250626.0,296431.0,271774.0
2026-04-08 21:39:24.891211,123782,1609503537102897,1137069943,-1.14192,0.40992,0.447008,-2.12625,9.37125,-28.848751,16.400002,-28.376001,6.592001,concentric,5,3.0,23018.0,157862.0,250083.0,296047.0,271548.0
2026-04-08 21:39:24.892920,123783,1609503537117420,1137082796,-1.282464,0.425536,0.316224,-1.855,9.26625,-22.81125,16.848001,-28.248001,6.512,concentric,5,3.0,23018.0,157862.0,250083.0,296047.0,271548.0
2026-04-08 21:39:24.894479,123784,1609503537126876,1137093597,-1.282464,0.425536,0.316224,-9.26625,7.0175,-23.135,16.848001,-28.248001,6.512,concentric,5,3.0,23018.0,157862.0,250083.0,296047.0,271548.0
2026-04-08 21:39:24.898699,123785,1609503537135926,1137102364,-1.116544,0.392352,0.491904,-16.65125,6.95625,-34.7375,16.536001,-27.480001,7.504,concentric,5,3.0,23018.0,157862.0,250083.0,296047.0,271548.0
2026-04-08 21:39:24.900303,123786,1609503537150411,1137117250,-1.108736,0.433344,0.513376,-21.02625,7.30625,-45.52625,18.288,-27.256,6.528,concentric,5,3.0,23018.0,157862.0,250083.0,296047.0,271548.0
2026-04-08 21:39:24.930566,123787,1609503537159376,1137125982,-1.108736,0.433344,0.513376,-20.88625,6.3875,-48.5625,18.288,-27.256,6.528,concentric,5,3.0,23018.0,157862.0,250083.0,296047.0,271548.0
2026-04-08 21:39:24.932824,123788,1609503537173901,1137140876,-1.177056,0.413824,0.612928,-19.15375,6.4925,-50.785,18.432001,-27.408,7.152,concentric,5,3.0,23018.0,157862.0,250083.0,296047.0,271548.0
2026-04-08 21:39:24.937408,123789,1609503537182808,1137149526,-1.177056,0.413824,0.612928,-22.84625,3.21125,-46.33125,18.432001,-27.408,7.152,concentric,5,3.0,23018.0,157862.0,250083.0,296047.0,271548.0
2026-04-08 21:39:24.939436,123790,1609503537191719,1137158183,-1.163392,0.333792,0.423584,-29.91625,-5.24125,-38.43875,19.080002,-27.176,7.248,concentric,5,3.0,23018.0,157862.0,250083.0,296047.0,271548.0
2026-04-08 21:39:24.995650,123801,1609503537206601,1137173299,-1.163392,0.333792,0.423584,-34.50125,-10.77125,-42.7,19.080002,-27.176,7.248,concentric,5,3.0,22712.0,156478.0,248380.0,295023.0,271003.0
2026-04-08 21:39:24.999948,123802,1609503537215634,1137182008,-1.134112,0.265472,0.544608,-32.19125,-13.15125,-48.93875,19.728,-27.000002,7.64,concentric,5,3.0,22712.0,156478.0,248380.0,295023.0,271003.0
2026-04-08 21:39:25.001627,123803,1609503537230156,1137196860,-1.059936,0.31232,0.509472,-23.54625,-11.2,-49.7875,19.936,-26.616001,8.6,concentric,5,3.0,22712.0,156478.0,248380.0,295023.0,271003.0
2026-04-08 21:39:25.003454,123804,1609503537239088,1137205586,-1.059936,0.31232,0.509472,-15.8725,-8.19,-47.8625,19.936,-26.616001,8.6,concentric,5,3.0,22712.0,156478.0,248380.0,295023.0,271003.0
2026-04-08 21:39:25.011148,123805,1609503537253592,1137220546,-1.087264,0.314272,0.505568,-14.04375,-5.53875,-47.04875,20.608002,-25.976002,7.448,concentric,5,3.0,22712.0,156478.0,248380.0,295023.0,271003.0
2026-04-08 21:39:25.012867,123806,1609503537262507,1137229279,-1.087264,0.314272,0.505568,-18.76,-5.83625,-45.395,20.608002,-25.976002,7.448,concentric,5,3.0,22712.0,156478.0,248380.0,295023.0,271003.0
2026-04-08 21:39:25.019835,123807,1609503537271443,1137237989,-1.08336,0.222528,0.460672,-25.48875,-7.0175,-44.86125,21.056002,-25.864,8.824,concentric,5,3.0,22712.0,156478.0,248380.0,295023.0,271003.0
2026-04-08 21:39:25.048571,123808,1609503537285972,1137252890,-1.08336,0.222528,0.460672,-28.18375,-7.805,-45.6575,21.056002,-25.864,8.824,concentric,5,3.0,22712.0,156478.0,248380.0,295023.0,271003.0
2026-04-08 21:39:25.052058,123809,1609503537294878,1137261546,-1.020896,0.1464,0.437248,-22.98625,-7.175,-46.34,21.616001,-25.480001,8.240001,concentric,5,3.0,22712.0,156478.0,248380.0,295023.0,271003.0
2026-04-08 21:39:25.115771,123820,1609503537309608,1137276517,-1.020896,0.1464,0.474336,-14.525,-3.91125,-47.1975,21.616001,-25.480001,8.240001,concentric,5,3.0,22635.0,156168.0,247982.0,294682.0,270792.0
2026-04-08 21:39:25.119980,123821,1609503537318558,1137285230,-1.009184,0.216672,0.474336,-6.86,0.55125,-47.04,21.712002,-25.112001,10.176001,concentric,5,3.0,22635.0,156168.0,247982.0,294682.0,270792.0
2026-04-08 21:39:25.121651,123822,1609503537327503,1137293910,-1.009184,0.216672,0.474336,-2.49375,3.87625,-45.08875,21.712002,-25.112001,10.176001,concentric,5,3.0,22635.0,156168.0,247982.0,294682.0,270792.0
2026-04-08 21:39:25.123209,123823,1609503537342008,1137308775,-0.958432,0.199104,0.44896,-2.66875,4.165,-43.53125,22.568,-24.528002,8.128,concentric,5,3.0,22635.0,156168.0,247982.0,294682.0,270792.0
2026-04-08 21:39:25.127465,123824,1609503537350892,1137317408,-1.061888,0.128832,0.30256,-4.6375,2.765,-44.835,23.184002,-24.656002,10.576,concentric,5,3.0,22635.0,156168.0,247982.0,294682.0,270792.0
2026-04-08 21:39:25.129204,123825,1609503537365373,1137332317,-1.061888,0.128832,0.30256,-4.45375,2.345,-46.22625,23.184002,-24.656002,10.576,concentric,5,3.0,22635.0,156168.0,247982.0,294682.0,270792.0
2026-04-08 21:39:25.131503,123826,1609503537374292,1137340989,-1.10288,0.191296,0.38064,-2.2575,2.89625,-45.9725,23.728,-24.768002,8.592,concentric,5,3.0,22635.0,156168.0,247982.0,294682.0,270792.0
2026-04-08 21:39:25.138532,123827,1609503537388799,1137355882,-1.10288,0.191296,0.38064,3.89375,2.24875,-44.485,23.728,-24.768002,8.592,concentric,5,3.0,22635.0,156168.0,247982.0,294682.0,270792.0
2026-04-08 21:39:25.167103,123828,1609503537397818,1137364557,-1.108736,0.226432,0.4392,8.6975,1.53125,-44.84375,23.960001,-24.096,8.096001,concentric,5,3.0,22635.0,156168.0,247982.0,294682.0,270792.0
2026-04-08 21:39:25.195710,123839,1609503537407334,1137373769,-1.108736,0.226432,0.4392,9.5375,0.74375,-45.535,23.960001,-24.096,8.096001,concentric,5,3.0,22456.0,155402.0,247099.0,294091.0,270469.0
2026-04-08 21:39:25.200173,123840,1609503537421848,1137388663,-1.089216,0.177632,0.374784,9.73875,-2.31875,-43.951252,24.608002,-24.240002,7.824,concentric,5,3.0,22456.0,155402.0,247099.0,294091.0,270469.0
2026-04-08 21:39:25.206187,123841,1609503537430775,1137397337,-1.159488,0.132736,0.28304,9.16125,-5.97625,-40.97625,24.608002,-24.240002,9.432,concentric,5,3.0,22456.0,155402.0,247099.0,294091.0,270469.0
2026-04-08 21:39:25.207967,123842,1609503537445250,1137412220,-1.159488,0.132736,0.28304,8.39125,-8.636251,-39.2875,24.328001,-23.696001,9.432,concentric,5,3.0,22456.0,155402.0,247099.0,294091.0,270469.0
2026-04-08 21:39:25.209510,123843,1609503537454185,1137420902,-1.10288,0.199104,0.491904,10.92875,-10.185,-38.325,25.008001,-23.840002,8.424001,concentric,5,3.0,22456.0,155402.0,247099.0,294091.0,270469.0
2026-04-08 21:39:25.217403,123844,1609503537468700,1137435793,-1.10288,0.199104,0.491904,15.715,-9.58125,-37.8525,25.008001,-23.840002,8.424001,concentric,5,3.0,22456.0,155402.0,247099.0,294091.0,270469.0
2026-04-08 21:39:25.245895,123845,1609503537477660,1137444484,-1.245376,0.216672,0.277184,18.9175,-7.4725,-37.31,25.968,-23.504002,7.248,concentric,5,3.0,22456.0,155402.0,247099.0,294091.0,270469.0
2026-04-08 21:39:25.249471,123846,1609503537486603,1137453147,-1.245376,0.216672,0.277184,19.8625,-5.81875,-32.7425,25.968,-23.504002,7.248,concentric,5,3.0,22456.0,155402.0,247099.0,294091.0,270469.0
2026-04-08 21:39:25.251899,123847,1609503537501079,1137467996,-1.251232,0.230336,0.38064,18.01625,-3.9725,-26.215,25.904001,-23.248001,7.248,concentric,5,3.0,22456.0,155402.0,247099.0,294091.0,270469.0
2026-04-08 21:39:25.279427,123858,1609503537510594,1137476725,-1.251232,0.230336,0.38064,16.87875,-2.75625,-21.48125,25.904001,-23.248001,7.248,concentric,5,3.0,22339.0,154881.0,246430.0,293723.0,270272.0
2026-04-08 21:39:25.281939,123859,1609503537525191,1137491771,-1.194624,0.189344,0.21472,17.3075,-1.015,-20.265,26.28,-23.352001,7.272,concentric,5,3.0,22339.0,154881.0,246430.0,293723.0,270272.0
2026-04-08 21:39:25.284536,123860,1609503537534098,1137500433,-1.184864,0.197152,0.363072,15.70625,0.665,-17.10625,25.816002,-23.592001,7.312,concentric,5,3.0,22339.0,154881.0,246430.0,293723.0,270272.0
2026-04-08 21:39:25.291317,123861,1609503537543021,1137509132,-1.184864,0.197152,0.363072,13.685,0.4025,-13.4575,25.816002,-23.592001,7.312,eccentric,5,3.0,22339.0,154881.0,246430.0,293723.0,270272.0
2026-04-08 21:39:25.322233,123862,1609503537557500,1137524042,-1.184864,0.113216,0.21472,13.440001,0.3675,-11.90875,26.104002,-23.616001,8.024,eccentric,5,3.0,22339.0,154881.0,246430.0,293723.0,270272.0
2026-04-08 21:39:25.325660,123863,1609503537566421,1137532701,-1.184864,0.113216,0.21472,14.035,0.4025,-11.59375,26.104002,-23.616001,8.024,eccentric,5,3.0,22339.0,154881.0,246430.0,293723.0,270272.0
2026-04-08 21:39:25.328140,123864,1609503537580920,1137547554,-1.163392,0.140544,0.25376,14.06125,0.91875,-10.3075,26.52,-23.592001,6.76,eccentric,5,3.0,22339.0,154881.0,246430.0,293723.0,270272.0
2026-04-08 21:39:25.358401,123865,1609503537589878,1137556246,-1.163392,0.140544,0.25376,13.877501,0.6125,-7.9975,26.52,-23.592001,6.76,eccentric,5,3.0,22339.0,154881.0,246430.0,293723.0,270272.0
2026-04-08 21:39:25.361887,123866,1609503537604336,1137571139,-1.091168,0.144448,0.368928,12.25875,0.62125,-6.51875,25.880001,-23.256,7.064,eccentric,5,3.0,22339.0,154881.0,246430.0,293723.0,270272.0
2026-04-08 21:39:25.389377,123877,1609503537613333,1137579848,-0.96624,0.056608,0.31232,10.52625,-0.9275,-5.46875,25.920002,-23.480001,7.424,eccentric,5,3.0,22525.0,155462.0,247121.0,294149.0,270548.0
2026-04-08 21:39:25.392747,123878,1609503537622249,1137588587,-0.96624,0.056608,0.31232,9.0825,-2.4675,-4.795,25.920002,-23.480001,7.424,eccentric,5,3.0,22525.0,155462.0,247121.0,294149.0,270548.0
2026-04-08 21:39:25.394549,123879,1609503537636740,1137603485,-1.022848,0.060512,0.171776,9.00375,-3.43875,-4.095,25.808,-23.384,7.496,eccentric,5,3.0,22525.0,155462.0,247121.0,294149.0,270548.0
2026-04-08 21:39:25.396867,123880,1609503537645656,1137612172,-1.022848,0.060512,0.171776,10.64,-3.7275,-2.31875,25.808,-23.384,7.496,eccentric,5,3.0,22525.0,155462.0,247121.0,294149.0,270548.0
2026-04-08 21:39:25.427154,123881,1609503537660172,1137627050,-1.048224,0.056608,0.1952,12.5125,-4.55,0.56,25.832,-23.424002,8.112,eccentric,5,3.0,22525.0,155462.0,247121.0,294149.0,270548.0
2026-04-08 21:39:25.430672,123882,1609503537669125,1137635710,-1.048224,0.056608,0.1952,13.265,-4.89125,2.28375,25.832,-23.424002,8.112,eccentric,5,3.0,22525.0,155462.0,247121.0,294149.0,270548.0
2026-04-08 21:39:25.433508,123883,1609503537683590,1137650481,-1.077504,0.0976,0.45872,11.480001,-4.935,3.31625,26.128002,-23.512001,6.408001,eccentric,5,3.0,22525.0,155462.0,247121.0,294149.0,270548.0
2026-04-08 21:39:25.439430,123884,1609503537692504,1137659179,-1.196576,0.20496,0.333792,10.8675,-4.27,4.8475,26.128002,-23.544,7.416,eccentric,5,3.0,22525.0,155462.0,247121.0,294149.0,270548.0
2026-04-08 21:39:25.448173,123885,1609503537701427,1137667859,-1.196576,0.20496,0.333792,14.02625,-1.02375,3.57875,25.704,-23.544,7.416,eccentric,5,3.0,22525.0,155462.0,247121.0,294149.0,270548.0
2026-04-08 21:39:25.479003,123896,1609503537715937,1137682890,-1.206336,0.154208,0.337696,16.94,2.38,2.02125,25.968,-23.536001,6.12,eccentric,5,3.0,22482.0,155368.0,247003.0,294070.0,270510.0
2026-04-08 21:39:25.487405,123897,1609503537724905,1137691569,-1.206336,0.154208,0.337696,17.675,4.515,6.125,25.968,-23.536001,6.12,eccentric,5,3.0,22482.0,155368.0,247003.0,294070.0,270510.0
2026-04-08 21:39:25.489875,123898,1609503537739474,1137706505,-1.253184,0.220576,0.327936,16.695,4.445,12.36375,25.224,-24.160002,6.4,eccentric,5,3.0,22482.0,155368.0,247003.0,294070.0,270510.0
2026-04-08 21:39:25.520603,123899,1609503537748426,1137715199,-1.253184,0.220576,0.327936,19.5825,4.29625,14.98875,25.224,-24.160002,6.4,eccentric,5,3.0,22482.0,155368.0,247003.0,294070.0,270510.0
2026-04-08 21:39:25.525061,123900,1609503537762913,1137730078,-1.360544,0.238144,0.42944,26.1625,3.28125,18.366251,25.456001,-24.408,6.544,eccentric,5,3.0,22482.0,155368.0,247003.0,294070.0,270510.0
2026-04-08 21:39:25.526664,123901,1609503537771821,1137738751,-1.360544,0.238144,0.42944,34.685,4.1125,22.28625,25.456001,-24.408,6.544,eccentric,5,3.0,22482.0,155368.0,247003.0,294070.0,270510.0
2026-04-08 21:39:25.528520,123902,1609503537780741,1137747407,-1.436672,0.388448,0.460672,37.5375,7.74375,20.7025,25.144001,-24.248001,3.448,eccentric,5,3.0,22482.0,155368.0,247003.0,294070.0,270510.0
2026-04-08 21:39:25.559391,123903,1609503537795213,1137762282,-1.333216,0.40992,0.52704,31.6225,9.0475,19.95875,24.136002,-24.384,4.608,eccentric,5,3.0,22482.0,155368.0,247003.0,294070.0,270510.0
2026-04-08 21:39:25.561555,123904,1609503537804108,1137770940,-1.333216,0.40992,0.52704,19.215,8.60125,21.315,24.136002,-24.384,4.608,eccentric,5,3.0,22482.0,155368.0,247003.0,294070.0,270510.0
2026-04-08 21:39:25.589468,123915,1609503537818766,1137785821,-1.167296,0.2928,0.571936,3.115,6.5275,19.78375,23.944,-24.840002,5.296001,eccentric,5,3.0,22102.0,153985.0,245477.0,293155.0,270011.0
2026-04-08 21:39:25.593673,123916,1609503537827730,1137794501,-1.167296,0.2928,0.571936,-9.03,2.7825,19.565,23.944,-24.840002,5.296001,eccentric,5,3.0,22102.0,153985.0,245477.0,293155.0,270011.0
2026-04-08 21:39:25.595338,123917,1609503537842240,1137809386,-1.18096,0.259616,0.464576,-11.305,0.35875,18.7425,23.704,-24.464,5.408001,eccentric,5,3.0,22102.0,153985.0,245477.0,293155.0,270011.0
2026-04-08 21:39:25.598967,123918,1609503537851160,1137818075,-1.18096,0.259616,0.464576,-11.5325,-1.435,16.37125,23.704,-24.464,5.408001,eccentric,5,3.0,22102.0,153985.0,245477.0,293155.0,270011.0
2026-04-08 21:39:25.629288,123919,1609503537860154,1137826746,-1.216096,0.208864,0.181536,-13.055,-2.35375,15.05875,23.488,-24.952002,5.904,eccentric,5,3.0,22102.0,153985.0,245477.0,293155.0,270011.0
2026-04-08 21:39:25.632952,123920,1609503537874614,1137841608,-1.1224,0.206912,0.474336,-13.23875,-3.91125,15.32125,23.064001,-24.920002,6.512,eccentric,5,3.0,22102.0,153985.0,245477.0,293155.0,270011.0
2026-04-08 21:39:25.636467,123921,1609503537883554,1137850273,-1.1224,0.206912,0.474336,-10.255,-5.01375,13.76375,23.064001,-24.920002,6.512,eccentric,5,3.0,22102.0,153985.0,245477.0,293155.0,270011.0
2026-04-08 21:39:25.664671,123922,1609503537898064,1137865220,-1.077504,0.177632,0.402112,-7.7,-6.3525,10.29875,23.232,-24.504002,6.408001,eccentric,5,3.0,22102.0,153985.0,245477.0,293155.0,270011.0
2026-04-08 21:39:25.695623,123933,1609503537906988,1137874295,-1.077504,0.177632,0.402112,-6.27375,-7.035,6.09,23.232,-24.504002,6.408001,eccentric,5,3.0,22204.0,154293.0,245836.0,293315.0,270076.0
2026-04-08 21:39:25.698145,123934,1609503537921510,1137887085,-1.095072,0.181536,0.347456,-4.80375,-7.665,2.94875,22.816002,-24.584002,6.312,eccentric,5,3.0,22204.0,154293.0,245836.0,293315.0,270076.0
2026-04-08 21:39:25.700610,123935,1609503537930890,1137897868,-1.095072,0.181536,0.347456,-4.34,-8.95125,1.58375,22.816002,-24.584002,6.312,eccentric,5,3.0,22204.0,154293.0,245836.0,293315.0,270076.0
2026-04-08 21:39:25.703155,123936,1609503537939981,1137906546,-1.011136,0.11712,0.325984,-8.5225,-9.38875,-0.76125,22.152,-24.68,7.352,eccentric,5,3.0,22204.0,154293.0,245836.0,293315.0,270076.0
2026-04-08 21:39:25.705717,123937,1609503537954503,1137921413,-0.977952,0.121024,0.470432,-11.0775,-8.4875,-2.51125,22.248001,-24.016,8.368,eccentric,5,3.0,22204.0,154293.0,245836.0,293315.0,270076.0
2026-04-08 21:39:25.712152,123938,1609503537963482,1137930158,-0.977952,0.121024,0.470432,-15.51375,-6.0025,-3.815,22.248001,-24.016,8.368,eccentric,5,3.0,22204.0,154293.0,245836.0,293315.0,270076.0
2026-04-08 21:39:25.740962,123939,1609503537977918,1137943078,-0.993568,0.132736,0.415776,-15.645,-3.8675,-4.78625,21.768002,-23.808,6.672,eccentric,5,3.0,22204.0,154293.0,245836.0,293315.0,270076.0
2026-04-08 21:39:25.744412,123940,1609503537987086,1137953795,-0.993568,0.132736,0.415776,-8.46125,-0.25375,-7.35875,21.768002,-23.808,6.672,eccentric,5,3.0,22204.0,154293.0,245836.0,293315.0,270076.0
2026-04-08 21:39:25.746989,123941,1609503537996045,1137962476,-0.962336,0.111264,0.251808,-2.30125,4.095,-9.0825,22.088001,-24.504002,5.424,eccentric,5,3.0,22204.0,154293.0,245836.0,293315.0,270076.0
2026-04-08 21:39:25.780556,123952,1609503538010796,1137977412,-0.962336,0.111264,0.251808,5.97625,9.730001,-7.98875,22.088001,-24.504002,5.424,eccentric,5,3.0,22065.0,153665.0,245074.0,292851.0,269795.0
2026-04-08 21:39:25.783171,123953,1609503538019906,1137986134,-1.177056,0.0488,0.222528,6.58,13.93,-4.9175,22.000002,-24.064001,6.928001,eccentric,5,3.0,22065.0,153665.0,245074.0,292851.0,269795.0
2026-04-08 21:39:25.786998,123954,1609503538034525,1138001108,-1.177056,0.162016,0.396256,-7.48125,11.62875,-0.4375,22.000002,-24.064001,6.928001,eccentric,5,3.0,22065.0,153665.0,245074.0,292851.0,269795.0
2026-04-08 21:39:25.789355,123955,1609503538043457,1138009802,-1.040416,0.162016,0.396256,-20.09,11.698751,0.37625,21.728,-23.744001,7.616,eccentric,5,3.0,22065.0,153665.0,245074.0,292851.0,269795.0
2026-04-08 21:39:25.819744,123956,1609503538052382,1138018475,-1.040416,0.162016,0.396256,-13.886251,14.3325,-7.09625,21.728,-23.744001,7.616,eccentric,5,3.0,22065.0,153665.0,245074.0,292851.0,269795.0
2026-04-08 21:39:25.823135,123957,1609503538066849,1138033382,-0.974048,0.11712,0.349408,-2.66,19.76625,-17.52625,21.856,-24.024002,8.320001,eccentric,5,3.0,22065.0,153665.0,245074.0,292851.0,269795.0
2026-04-08 21:39:25.825624,123958,1609503538075699,1138042032,-1.157536,0.177632,0.290848,3.3075,22.89875,-19.8275,21.768002,-23.608002,8.592,eccentric,5,3.0,22065.0,153665.0,245074.0,292851.0,269795.0
2026-04-08 21:39:25.857183,123959,1609503538090203,1138056959,-1.157536,0.177632,0.290848,3.26375,19.6175,-9.89625,21.768002,-23.608002,8.592,eccentric,5,3.0,22065.0,153665.0,245074.0,292851.0,269795.0
2026-04-08 21:39:25.860666,123960,1609503538099205,1138065649,-0.997472,0.16592,0.210816,-1.47,15.417501,-1.295,22.000002,-23.504002,6.552001,eccentric,5,3.0,22065.0,153665.0,245074.0,292851.0,269795.0
2026-04-08 21:39:25.888247,123971,1609503538113886,1138080574,-0.997472,0.16592,0.210816,-13.4925,15.1025,-2.4325,22.000002,-23.504002,6.552001,eccentric,5,3.0,21823.0,152706.0,244096.0,292225.0,269426.0
2026-04-08 21:39:25.892445,123972,1609503538122830,1138089321,-0.948672,0.074176,0.206912,-27.04625,18.55875,-7.9975,21.52,-22.920002,6.776001,eccentric,5,3.0,21823.0,152706.0,244096.0,292225.0,269426.0
2026-04-08 21:39:25.894184,123973,1609503538131807,1138098062,-0.948672,0.074176,0.206912,-37.00375,20.44875,-10.1325,21.52,-22.920002,6.776001,eccentric,5,3.0,21823.0,152706.0,244096.0,292225.0,269426.0
2026-04-08 21:39:25.895732,123974,1609503538146327,1138113030,-1.040416,0.085888,0.267424,-37.93125,19.99375,-7.02625,21.752,-22.888,7.928001,eccentric,5,3.0,21823.0,152706.0,244096.0,292225.0,269426.0
2026-04-08 21:39:25.926791,123975,1609503538155242,1138121755,-1.040416,-0.007808,0.232288,-30.178751,15.91625,-5.39,21.752,-22.888,7.928001,eccentric,5,3.0,21823.0,152706.0,244096.0,292225.0,269426.0
2026-04-08 21:39:25.929101,123976,1609503538169684,1138136603,-0.979904,-0.007808,0.232288,-25.27875,11.06,-11.1125,21.536001,-22.752,7.816001,eccentric,5,3.0,21823.0,152706.0,244096.0,292225.0,269426.0
2026-04-08 21:39:25.933689,123977,1609503538178610,1138145341,-0.909632,-0.02928,0.343552,-27.6325,8.79375,-18.29625,21.728,-22.448002,7.24,eccentric,5,3.0,21823.0,152706.0,244096.0,292225.0,269426.0
2026-04-08 21:39:25.962104,123978,1609503538193109,1138160262,-0.909632,-0.02928,0.343552,-31.885,11.22625,-22.3125,21.728,-22.448002,7.24,eccentric,5,3.0,21823.0,152706.0,244096.0,292225.0,269426.0
2026-04-08 21:39:25.965714,123979,1609503538202019,1138168916,-0.864736,0.070272,0.427488,-27.7375,13.3,-23.86125,22.112001,-22.112001,7.096,eccentric,5,3.0,21823.0,152706.0,244096.0,292225.0,269426.0
2026-04-08 21:39:25.993101,123990,1609503538211001,1138178050,-0.864736,0.070272,0.427488,-13.58,14.096251,-26.13625,22.112001,-22.112001,7.096,eccentric,5,3.0,21834.0,152718.0,244168.0,292328.0,269467.0
2026-04-08 21:39:25.995649,123991,1609503538225536,1138190857,-1.00528,0.070272,0.384544,-2.4675,11.8475,-25.76,22.12,-21.872002,7.064,eccentric,5,3.0,21834.0,152718.0,244168.0,292328.0,269467.0
2026-04-08 21:39:26.001830,123992,1609503538234912,1138201679,-1.00528,0.070272,0.384544,-7.735,7.07875,-22.5925,22.12,-21.872002,7.064,eccentric,5,3.0,21834.0,152718.0,244168.0,292328.0,269467.0
2026-04-08 21:39:26.004372,123993,1609503538249446,1138216610,-0.993568,-0.003904,0.115168,-21.735,8.44375,-23.345,21.76,-21.496,6.672,eccentric,5,3.0,21834.0,152718.0,244168.0,292328.0,269467.0
2026-04-08 21:39:26.006870,123994,1609503538258427,1138225283,-0.944768,-0.035136,0.495808,-28.848751,13.25625,-29.5925,22.096,-20.888,8.952001,eccentric,5,3.0,21834.0,152718.0,244168.0,292328.0,269467.0
2026-04-08 21:39:26.037017,123995,1609503538267414,1138233967,-0.944768,-0.035136,0.495808,-31.22,15.96875,-32.095,22.096,-20.888,8.952001,eccentric,5,3.0,21834.0,152718.0,244168.0,292328.0,269467.0
2026-04-08 21:39:26.040605,123996,1609503538281884,1138248841,-0.938912,0.007808,0.269376,-28.1575,16.2225,-30.9925,22.616001,-21.072,7.408001,eccentric,5,3.0,21834.0,152718.0,244168.0,292328.0,269467.0
2026-04-08 21:39:26.043106,123997,1609503538290799,1138257505,-0.938912,0.007808,0.269376,-21.4375,16.07375,-32.47125,22.616001,-21.072,7.408001,eccentric,5,3.0,21834.0,152718.0,244168.0,292328.0,269467.0
2026-04-08 21:39:26.075938,123998,1609503538305293,1138272385,-0.954528,-0.060512,0.210816,-18.13875,16.52,-35.2275,22.376001,-20.240002,7.352,eccentric,5,3.0,21834.0,152718.0,244168.0,292328.0,269467.0
2026-04-08 21:39:26.104439,124009,1609503538314575,1138281055,-0.954528,-0.060512,0.210816,-18.9,18.05125,-37.19625,22.376001,-20.240002,7.352,eccentric,5,3.0,21883.0,152939.0,244477.0,292496.0,269533.0
2026-04-08 21:39:26.107652,124010,1609503538329054,1138296019,-0.970144,-0.0976,0.435296,-23.51125,22.575,-37.59875,22.984001,-19.928001,7.76,eccentric,5,3.0,21883.0,152939.0,244477.0,292496.0,269533.0
2026-04-08 21:39:26.109424,124011,1609503538337965,1138304735,-0.960384,0.027328,0.394304,-27.04625,23.485,-35.95375,23.000002,-19.256,7.968,eccentric,5,3.0,21883.0,152939.0,244477.0,292496.0,269533.0
2026-04-08 21:39:26.113982,124012,1609503538346882,1138313462,-0.960384,0.027328,0.394304,-22.02375,23.10875,-36.085,23.000002,-19.256,7.968,eccentric,5,3.0,21883.0,152939.0,244477.0,292496.0,269533.0
2026-04-08 21:39:26.115816,124013,1609503538361385,1138328349,-0.979904,0.007808,0.160064,-10.29,22.70625,-40.39875,23.552002,-19.168001,7.888001,eccentric,5,3.0,21883.0,152939.0,244477.0,292496.0,269533.0
2026-04-08 21:39:26.118643,124014,1609503538370403,1138337017,-0.979904,0.007808,0.160064,-7.035,20.685,-41.1775,23.552002,-19.168001,7.888001,eccentric,5,3.0,21883.0,152939.0,244477.0,292496.0,269533.0
2026-04-08 21:39:26.149542,124015,1609503538384894,1138351927,-1.030656,-0.03904,0.1952,-9.0475,19.85375,-40.6,23.904001,-18.560001,7.152,eccentric,5,3.0,21883.0,152939.0,244477.0,292496.0,269533.0
2026-04-08 21:39:26.151959,124016,1609503538393836,1138360625,-1.030656,-0.03904,0.1952,-17.77125,19.5125,-39.5675,23.904001,-18.560001,7.152,eccentric,5,3.0,21883.0,152939.0,244477.0,292496.0,269533.0
2026-04-08 21:39:26.154419,124017,1609503538408288,1138373436,-0.948672,-0.163968,0.33184,-31.43,18.4275,-39.54125,24.408,-18.096,7.136,eccentric,5,3.0,21883.0,152939.0,244477.0,292496.0,269533.0
2026-04-08 21:39:26.181923,124028,1609503538417760,1138384276,-0.962336,-0.070272,0.236192,-35.857502,15.627501,-42.69125,24.184002,-17.400002,9.296001,eccentric,5,3.0,21783.0,152525.0,243999.0,292131.0,269267.0
2026-04-08 21:39:26.184420,124029,1609503538426744,1138393039,-0.962336,-0.070272,0.236192,-24.9375,14.14,-47.5125,24.184002,-17.400002,9.296001,eccentric,5,3.0,21783.0,152525.0,243999.0,292131.0,269267.0
2026-04-08 21:39:26.188239,124030,1609503538441225,1138407936,-0.968192,0.005856,0.089792,-3.9025,15.190001,-51.54625,24.312,-17.28,8.84,eccentric,5,3.0,21783.0,152525.0,243999.0,292131.0,269267.0
2026-04-08 21:39:26.218372,124031,1609503538450218,1138416642,-0.968192,0.005856,0.089792,12.81,15.46125,-49.875,24.312,-17.28,8.84,eccentric,5,3.0,21783.0,152525.0,243999.0,292131.0,269267.0
2026-04-08 21:39:26.221977,124032,1609503538464705,1138431517,-0.808128,-0.080032,0.284992,13.27375,14.0,-46.17375,25.064001,-17.016,6.912,eccentric,5,3.0,21783.0,152525.0,243999.0,292131.0,269267.0
2026-04-08 21:39:26.224467,124033,1609503538473613,1138440196,-0.808128,-0.080032,0.284992,0.55125,13.55375,-42.28,25.064001,-17.016,6.912,eccentric,5,3.0,21783.0,152525.0,243999.0,292131.0,269267.0
2026-04-08 21:39:26.233198,124034,1609503538482531,1138448875,-0.862784,-0.070272,0.122976,-12.71375,14.42875,-40.1975,25.128,-16.560001,6.968,eccentric,5,3.0,21783.0,152525.0,243999.0,292131.0,269267.0
2026-04-08 21:39:26.263559,124035,1609503538497018,1138463807,-0.862784,-0.070272,0.122976,-19.5825,13.7025,-36.015,25.128,-16.560001,6.968,eccentric,5,3.0,21783.0,152525.0,243999.0,292131.0,269267.0
2026-04-08 21:39:26.267056,124036,1609503538505945,1138472485,-0.95648,0.023424,0.249856,-16.8175,11.75125,-30.94875,25.456001,-16.416,6.128,eccentric,5,3.0,21783.0,152525.0,243999.0,292131.0,269267.0
2026-04-08 21:39:26.301890,124047,1609503538520859,1138487877,-0.86864,-0.142496,0.3416,-10.2025,8.225,-28.00875,25.568,-16.04,6.520001,eccentric,5,3.0,21794.0,152403.0,243824.0,292100.0,269281.0
2026-04-08 21:39:26.304397,124048,1609503538530006,1138496582,-0.86864,-0.142496,0.3416,-4.75125,4.38375,-27.9125,25.568,-16.04,6.520001,eccentric,5,3.0,21794.0,152403.0,243824.0,292100.0,269281.0
2026-04-08 21:39:26.306917,124049,1609503538538881,1138505278,-0.825696,-0.148352,0.25376,1.35625,6.265,-27.965,25.400002,-15.912001,7.392,eccentric,5,3.0,21794.0,152403.0,243824.0,292100.0,269281.0
2026-04-08 21:39:26.309469,124050,1609503538553471,1138520200,-0.825696,-0.148352,0.25376,7.3675,12.005,-28.30625,25.400002,-15.912001,7.392,eccentric,5,3.0,21794.0,152403.0,243824.0,292100.0,269281.0
2026-04-08 21:39:26.315696,124051,1609503538562427,1138528900,-0.880352,0.056608,0.244,6.02875,15.408751,-25.52375,25.36,-15.624001,6.784,eccentric,5,3.0,21794.0,152403.0,243824.0,292100.0,269281.0
2026-04-08 21:39:26.356978,124052,1609503538576908,1138543797,-0.880352,0.056608,0.244,-3.395,15.1725,-20.46625,25.36,-15.624001,6.784,eccentric,5,3.0,21794.0,152403.0,243824.0,292100.0,269281.0
2026-04-08 21:39:26.359050,124053,1609503538585830,1138552452,-0.901824,-0.005856,0.199104,-11.12125,10.91125,-14.533751,25.824001,-15.120001,8.504001,eccentric,5,3.0,21794.0,152403.0,243824.0,292100.0,269281.0
2026-04-08 21:39:26.363754,124054,1609503538600349,1138567348,-0.979904,-0.189344,0.101504,-8.9775,6.92125,-12.94125,26.136002,-15.312,6.864,eccentric,5,3.0,21794.0,152403.0,243824.0,292100.0,269281.0
2026-04-08 21:39:26.365455,124055,1609503538609258,1138576012,-0.979904,-0.189344,0.101504,-2.14375,6.57125,-13.62375,26.136002,-15.312,6.864,eccentric,5,3.0,21794.0,152403.0,243824.0,292100.0,269281.0
2026-04-08 21:39:26.393679,124066,1609503538618271,1138584763,-0.979904,-0.060512,0.062464,0.86625,6.72,-14.48125,26.136002,-15.312,6.864,eccentric,5,3.0,21893.0,152769.0,244242.0,292380.0,269467.0
2026-04-08 21:39:26.395411,124067,1609503538632850,1138599711,-0.952576,-0.060512,0.062464,4.17375,7.60375,-12.425,25.880001,-15.112,7.464,eccentric,5,3.0,21893.0,152769.0,244242.0,292380.0,269467.0
2026-04-08 21:39:26.397819,124068,1609503538641843,1138608426,-0.919392,0.062464,0.37088,2.31875,6.48375,-9.05625,26.088001,-15.024001,6.416,eccentric,5,3.0,21893.0,152769.0,244242.0,292380.0,269467.0
2026-04-08 21:39:26.428207,124069,1609503538656344,1138623305,-0.919392,0.062464,0.37088,-2.31,3.10625,-6.08125,26.088001,-15.024001,6.416,eccentric,5,3.0,21893.0,152769.0,244242.0,292380.0,269467.0
2026-04-08 21:39:26.433605,124070,1609503538665288,1138631953,-1.009184,-0.01952,0.22448,-2.59,-1.435,-2.30125,26.032001,-14.920001,6.576,eccentric,5,3.0,21893.0,152769.0,244242.0,292380.0,269467.0
2026-04-08 21:39:26.435370,124071,1609503538679749,1138646835,-1.00528,-0.095648,0.103456,4.0075,-2.12625,-0.90125,26.016,-14.888001,7.136,eccentric,5,3.0,21893.0,152769.0,244242.0,292380.0,269467.0
2026-04-08 21:39:26.437201,124072,1609503538688645,1138655548,-1.00528,-0.095648,0.103456,14.44625,2.6425,-1.54,26.016,-14.888001,7.136,eccentric,5,3.0,21893.0,152769.0,244242.0,292380.0,269467.0
2026-04-08 21:39:26.466846,124073,1609503538697553,1138664219,-1.00528,-0.095648,0.103456,11.585,6.67625,-1.00625,26.016,-14.888001,7.136,eccentric,5,3.0,21893.0,152769.0,244242.0,292380.0,269467.0
2026-04-08 21:39:26.498730,124085,1609503538712042,1138679080,-0.950624,0.0,0.304512,-0.77875,7.7,1.05875,26.28,-15.016001,6.064,eccentric,5,3.0,21959.0,152920.0,244413.0,292556.0,269567.0
2026-04-08 21:39:26.500413,124086,1609503538721043,1138687829,-1.01504,0.02928,0.404064,-9.03875,5.38125,2.6775,26.056002,-14.832001,6.208,eccentric,5,3.0,21959.0,152920.0,244413.0,292556.0,269567.0
2026-04-08 21:39:26.501960,124087,1609503538735534,1138700697,-1.01504,0.02928,0.404064,-8.25125,0.65625,3.22,26.056002,-14.832001,6.208,eccentric,5,3.0,21959.0,152920.0,244413.0,292556.0,269567.0
2026-04-08 21:39:26.506165,124088,1609503538744696,1138711450,-0.997472,-0.091744,0.142496,0.67375,-1.04125,3.52625,25.744001,-15.072001,7.520001,eccentric,5,3.0,21959.0,152920.0,244413.0,292556.0,269567.0
2026-04-08 21:39:26.507795,124089,1609503538759194,1138724350,-0.997472,-0.064416,0.140544,8.37375,-0.6475,4.41875,25.744001,-15.072001,7.520001,eccentric,5,3.0,21959.0,152920.0,244413.0,292556.0,269567.0
2026-04-08 21:39:26.540113,124090,1609503538768341,1138735137,-1.020896,-0.064416,0.140544,7.69125,-1.0675,5.78375,25.808,-15.424001,9.056001,eccentric,5,3.0,21959.0,152920.0,244413.0,292556.0,269567.0
2026-04-08 21:39:26.541725,124091,1609503538777260,1138743809,-1.020896,-0.064416,0.140544,3.84125,-1.60125,6.25625,25.808,-15.424001,9.056001,eccentric,5,3.0,21959.0,152920.0,244413.0,292556.0,269567.0
2026-04-08 21:39:26.543221,124092,1609503538791728,1138758663,-1.030656,0.007808,0.189344,0.86625,-1.855,6.3,25.976002,-15.432001,6.376,eccentric,5,3.0,21959.0,152920.0,244413.0,292556.0,269567.0
2026-04-08 21:39:26.550204,124093,1609503538800692,1138767326,-0.98576,-0.060512,0.22448,-2.75625,-2.5725,8.1375,25.944002,-15.256001,4.512,eccentric,5,3.0,21959.0,152920.0,244413.0,292556.0,269567.0
2026-04-08 21:39:26.614152,124104,1609503538815232,1138782252,-0.98576,-0.060512,0.22448,-3.03625,-3.28125,10.42125,25.944002,-15.256001,4.512,eccentric,5,3.0,22089.0,153497.0,245079.0,292971.0,269779.0
2026-04-08 21:39:26.615723,124105,1609503538824190,1138790940,-1.018944,-0.081984,0.162016,2.12625,-3.49125,9.5725,25.728,-15.608001,6.272,eccentric,5,3.0,22089.0,153497.0,245079.0,292971.0,269779.0
2026-04-08 21:39:26.619959,124106,1609503538833166,1138799633,-1.018944,-0.081984,0.162016,6.44875,-3.01875,7.58625,25.728,-15.608001,6.272,eccentric,5,3.0,22089.0,153497.0,245079.0,292971.0,269779.0
2026-04-08 21:39:26.621642,124107,1609503538847700,1138814530,-1.038464,-0.074176,0.080032,9.0125,-0.09625,4.27,25.6,-15.624001,6.344,eccentric,5,3.0,22089.0,153497.0,245079.0,292971.0,269779.0
2026-04-08 21:39:26.624069,124108,1609503538856631,1138823285,-1.038464,-0.074176,0.080032,4.69875,1.14625,1.56625,25.6,-15.624001,6.344,eccentric,5,3.0,22089.0,153497.0,245079.0,292971.0,269779.0
2026-04-08 21:39:26.625655,124109,1609503538871143,1138838252,-0.983808,-0.01952,0.218624,-3.7975,1.3475,1.28625,25.896002,-15.584001,6.312,eccentric,5,3.0,22089.0,153497.0,245079.0,292971.0,269779.0
2026-04-08 21:39:26.629783,124110,1609503538880064,1138846945,-0.983808,-0.037088,0.244,-7.42875,-0.34125,1.60125,25.896002,-15.584001,4.264,eccentric,5,3.0,22089.0,153497.0,245079.0,292971.0,269779.0
2026-04-08 21:39:26.658317,124111,1609503538894548,1138859756,-1.020896,-0.037088,0.244,-6.8425,-2.835,1.39125,25.592001,-15.696001,5.176,eccentric,5,3.0,22089.0,153497.0,245079.0,292971.0,269779.0
2026-04-08 21:39:26.662873,124112,1609503538903722,1138870474,-0.983808,-0.052704,0.27328,-1.19875,-5.11875,2.065,25.880001,-15.800001,6.496,eccentric,5,3.0,22089.0,153497.0,245079.0,292971.0,269779.0
2026-04-08 21:39:26.664437,124113,1609503538912635,1138879161,-0.983808,-0.052704,0.27328,6.55375,-5.3375,3.00125,25.880001,-15.800001,6.496,eccentric,5,3.0,22089.0,153497.0,245079.0,292971.0,269779.0
2026-04-08 21:39:26.693785,124124,1609503538927208,1138894090,-0.952576,-0.013664,0.288896,9.765,-5.36375,4.27875,25.128,-15.656001,5.552,eccentric,5,3.0,22133.0,153682.0,245315.0,293124.0,269864.0
2026-04-08 21:39:26.695360,124125,1609503538936173,1138902773,-0.952576,-0.013664,0.288896,7.525,-4.7425,7.2625,25.128,-15.656001,5.552,eccentric,5,3.0,22133.0,153682.0,245315.0,293124.0,269864.0
2026-04-08 21:39:26.698151,124126,1609503538950665,1138917648,-0.991616,0.001952,0.130784,1.53125,-5.11,10.54375,24.920002,-16.28,6.408001,eccentric,5,3.0,22133.0,153682.0,245315.0,293124.0,269864.0
2026-04-08 21:39:26.728388,124127,1609503538959589,1138926310,-0.991616,0.001952,0.130784,-1.28625,-6.6325,13.1425,24.920002,-16.28,6.408001,eccentric,5,3.0,22133.0,153682.0,245315.0,293124.0,269864.0
2026-04-08 21:39:26.731940,124128,1609503538974079,1138941194,-0.950624,-0.08784,0.154208,1.04125,-7.525,14.385,25.632002,-16.152,7.344,eccentric,5,3.0,22133.0,153682.0,245315.0,293124.0,269864.0
2026-04-08 21:39:26.734367,124129,1609503538983014,1138949865,-0.940864,-0.062464,0.28304,6.34375,-8.855001,14.90125,25.192001,-16.448,6.76,eccentric,5,3.0,22133.0,153682.0,245315.0,293124.0,269864.0
2026-04-08 21:39:26.739415,124130,1609503538992010,1138958566,-0.940864,-0.062464,0.28304,11.85625,-10.64875,15.26875,25.192001,-16.448,6.76,eccentric,5,3.0,22133.0,153682.0,245315.0,293124.0,269864.0
2026-04-08 21:39:26.769569,124131,1609503539006518,1138973441,-0.860832,0.001952,0.210816,15.35625,-12.25875,16.7475,25.024002,-16.912,6.416,eccentric,5,3.0,22133.0,153682.0,245315.0,293124.0,269864.0
