pc_time,serial_num,sensor_ts,host_ts,ax,ay,az,gx,gy,gz,mx,my,mz,phase,rpe,weight_kg,ppg_a,ppg_b,ppg_c,ppg_d,ppg_e
2026-04-08 21:39:44.560929,127476,1609503556790032,1156756781,-0.964288,-0.109312,0.357216,9.835,-6.88625,16.80875,24.840002,-15.416,7.784,concentric,5,3.0,22629.0,154161.0,245199.0,292949.0,269616.0
2026-04-08 21:39:44.564148,127477,1609503556804511,1156771624,-1.013088,-0.08784,0.148352,9.2575,-6.20375,17.63125,24.496,-15.664001,7.76,concentric,5,3.0,22629.0,154161.0,245199.0,292949.0,269616.0
2026-04-08 21:39:44.592375,127488,1609503556813738,1156780385,-1.013088,-0.08784,0.148352,9.3975,-5.7225,17.82375,24.496,-15.664001,7.76,concentric,5,3.0,22603.0,154160.0,245201.0,292991.0,269636.0
2026-04-08 21:39:44.594911,127489,1609503556822712,1156789051,-1.020896,-0.025376,0.30256,10.35125,-6.62375,18.9175,24.168001,-16.0,7.872,concentric,5,3.0,22603.0,154160.0,245201.0,292991.0,269636.0
2026-04-08 21:39:44.596677,127490,1609503556837238,1156803943,-1.020896,-0.025376,0.30256,13.27375,-7.16625,19.1275,24.168001,-16.0,7.872,concentric,5,3.0,22603.0,154160.0,245201.0,292991.0,269636.0
2026-04-08 21:39:44.598144,127491,1609503556846202,1156812636,-1.022848,-0.064416,0.25376,14.65625,-7.14875,19.18,23.928001,-16.296001,9.04,concentric,5,3.0,22603.0,154160.0,245201.0,292991.0,269636.0
2026-04-08 21:39:44.628262,127492,1609503556860806,1156827570,-0.987712,-0.023424,0.308416,13.86,-7.245,20.16875,23.504002,-16.144001,9.0,concentric,5,3.0,22603.0,154160.0,245201.0,292991.0,269636.0
2026-04-08 21:39:44.631477,127493,1609503556869699,1156836246,-0.987712,-0.023424,0.308416,13.93875,-7.1225,20.9825,23.504002,-16.144001,9.0,concentric,5,3.0,22603.0,154160.0,245201.0,292991.0,269636.0
2026-04-08 21:39:44.636088,127494,1609503556878633,1156844893,-0.925248,-0.017568,0.269376,13.30875,-8.365,22.4175,23.864,-16.768002,7.984,concentric,5,3.0,22603.0,154160.0,245201.0,292991.0,269636.0
2026-04-08 21:39:44.644776,127495,1609503556893129,1156859754,-0.925248,-0.017568,0.269376,12.11875,-9.625,23.7125,23.864,-16.768002,7.984,concentric,5,3.0,22603.0,154160.0,245201.0,292991.0,269636.0
2026-04-08 21:39:44.650999,127496,1609503556902067,1156868498,-0.890112,-0.064416,0.275232,11.4275,-10.29875,24.91125,23.856,-16.776001,7.856,concentric,5,3.0,22603.0,154160.0,245201.0,292991.0,269636.0
2026-04-08 21:39:44.682580,127507,1609503556916595,1156883462,-0.890112,-0.064416,0.275232,10.3075,-10.01,26.32,23.856,-16.776001,7.856,concentric,5,3.0,22632.0,154226.0,245261.0,292982.0,269633.0
2026-04-08 21:39:44.684908,127508,1609503556925623,1156892227,-0.9272,-0.066368,0.181536,10.955,-9.6775,26.4075,23.368002,-17.36,8.440001,concentric,5,3.0,22632.0,154226.0,245261.0,292982.0,269633.0
2026-04-08 21:39:44.690249,127509,1609503556940112,1156907083,-0.870592,0.003904,0.365024,11.64625,-9.52875,27.32625,22.784,-17.544,7.024,concentric,5,3.0,22632.0,154226.0,245261.0,292982.0,269633.0
2026-04-08 21:39:44.728694,127510,1609503556949046,1156915858,-0.870592,0.003904,0.365024,13.04625,-9.9225,29.4,22.784,-17.544,7.024,concentric,5,3.0,22632.0,154226.0,245261.0,292982.0,269633.0
2026-04-08 21:39:44.730388,127511,1609503556957950,1156924516,-0.870592,0.003904,0.365024,15.3125,-10.85,33.25875,22.784,-17.544,7.024,concentric,5,3.0,22632.0,154226.0,245261.0,292982.0,269633.0
2026-04-08 21:39:44.732080,127512,1609503556972412,1156939364,-0.825696,0.035136,0.333792,17.7625,-12.88875,38.1325,23.088001,-17.992,7.568,concentric,5,3.0,22632.0,154226.0,245261.0,292982.0,269633.0
2026-04-08 21:39:44.735979,127513,1609503556981348,1156948029,-0.894016,0.056608,0.279136,21.9625,-15.1025,42.53375,22.576,-18.44,8.104,concentric,5,3.0,22632.0,154226.0,245261.0,292982.0,269633.0
2026-04-08 21:39:44.767474,127514,1609503556995869,1156962883,-0.894016,0.056608,0.279136,25.19125,-16.31875,44.765,22.576,-18.44,8.104,concentric,5,3.0,22632.0,154226.0,245261.0,292982.0,269633.0
2026-04-08 21:39:44.769184,127515,1609503557004790,1156971539,-0.854976,0.007808,0.37088,22.84625,-16.58125,45.3075,22.288,-19.336,8.368,concentric,5,3.0,22632.0,154226.0,245261.0,292982.0,269633.0
2026-04-08 21:39:44.804099,127526,1609503557019726,1156986769,-0.753472,0.013664,0.28304,17.465,-16.07375,45.64875,21.832,-19.584002,7.552001,concentric,5,3.0,22685.0,154433.0,245548.0,293189.0,269733.0
2026-04-08 21:39:44.805665,127527,1609503557028664,1156995472,-0.753472,0.013664,0.28304,12.92375,-15.4525,48.86,21.832,-19.584002,7.552001,concentric,5,3.0,22685.0,154433.0,245548.0,293189.0,269733.0
2026-04-08 21:39:44.808073,127528,1609503557037644,1157004169,-0.753472,0.013664,0.28304,12.88,-15.4525,52.33375,21.832,-19.584002,7.552001,concentric,5,3.0,22685.0,154433.0,245548.0,293189.0,269733.0
2026-04-08 21:39:44.812457,127529,1609503557052128,1157019112,-0.755424,0.093696,0.3904,15.925,-17.29,57.1725,21.28,-20.144001,7.888001,concentric,5,3.0,22685.0,154433.0,245548.0,293189.0,269733.0
2026-04-08 21:39:44.814042,127530,1609503557061026,1157027774,-0.7808,0.083936,0.281088,18.62,-20.1425,63.07875,20.544,-20.488,7.6,concentric,5,3.0,22685.0,154433.0,245548.0,293189.0,269733.0
2026-04-08 21:39:44.843355,127531,1609503557075556,1157042648,-0.7808,0.083936,0.281088,23.89625,-20.0025,65.94875,20.544,-20.488,7.6,concentric,5,3.0,22685.0,154433.0,245548.0,293189.0,269733.0
2026-04-08 21:39:44.846934,127532,1609503557084507,1157051309,-0.7808,0.017568,0.244,26.6175,-19.41625,66.66625,19.944,-21.152,7.408001,concentric,5,3.0,22685.0,154433.0,245548.0,293189.0,269733.0
2026-04-08 21:39:44.849501,127533,1609503557099000,1157066140,-0.7808,0.017568,0.244,23.065,-17.2375,66.2375,19.944,-21.152,7.408001,concentric,5,3.0,22685.0,154433.0,245548.0,293189.0,269733.0
2026-04-08 21:39:44.855693,127534,1609503557107940,1157074849,-0.80032,0.093696,0.277184,18.585001,-15.7325,67.13875,19.352001,-21.920002,8.440001,concentric,5,3.0,22685.0,154433.0,245548.0,293189.0,269733.0
2026-04-08 21:39:44.883161,127545,1609503557117014,1157083577,-0.80032,0.093696,0.277184,16.28375,-14.8575,70.7875,19.352001,-21.920002,8.440001,concentric,5,3.0,22794.0,154977.0,246174.0,293562.0,269982.0
2026-04-08 21:39:44.885673,127546,1609503557131541,1157098488,-0.841312,0.18544,0.327936,18.10375,-15.715,73.77125,18.792002,-22.264002,8.368,concentric,5,3.0,22794.0,154977.0,246174.0,293562.0,269982.0
2026-04-08 21:39:44.888152,127547,1609503557140478,1157107207,-0.909632,0.134688,0.304512,23.205,-15.60125,73.6575,18.160002,-23.208,10.376,concentric,5,3.0,22794.0,154977.0,246174.0,293562.0,269982.0
2026-04-08 21:39:44.918311,127548,1609503557154971,1157122111,-0.909632,0.134688,0.304512,24.07125,-12.83625,70.48125,18.160002,-23.208,10.376,concentric,5,3.0,22794.0,154977.0,246174.0,293562.0,269982.0
2026-04-08 21:39:44.921991,127549,1609503557163942,1157130787,-0.847168,0.138592,0.316224,19.67,-10.36875,69.11625,17.960001,-23.704,7.192,concentric,5,3.0,22794.0,154977.0,246174.0,293562.0,269982.0
2026-04-08 21:39:44.924400,127550,1609503557172845,1157139433,-0.847168,0.138592,0.316224,17.0275,-7.39375,69.1075,17.960001,-23.704,7.192,concentric,5,3.0,22794.0,154977.0,246174.0,293562.0,269982.0
2026-04-08 21:39:44.954636,127551,1609503557187348,1157154339,-0.935008,0.249856,0.290848,17.43,-5.92375,67.935,17.304,-24.456001,6.864,concentric,5,3.0,22794.0,154977.0,246174.0,293562.0,269982.0
2026-04-08 21:39:44.958237,127552,1609503557196293,1157163011,-0.935008,0.249856,0.290848,20.39625,-3.77125,64.0325,17.304,-24.456001,6.864,concentric,5,3.0,22794.0,154977.0,246174.0,293562.0,269982.0
2026-04-08 21:39:44.987007,127563,1609503557210755,1157177820,-0.929152,0.247904,0.480192,20.4925,-4.585,62.25625,16.768002,-24.880001,6.704001,concentric,5,3.0,22859.0,155391.0,246625.0,293886.0,270179.0
2026-04-08 21:39:44.988135,127564,1609503557219745,1157186525,-0.929152,0.247904,0.480192,16.275,-4.9175,61.48625,16.768002,-24.880001,6.704001,concentric,5,3.0,22859.0,155391.0,246625.0,293886.0,270179.0
2026-04-08 21:39:44.992018,127565,1609503557234268,1157199423,-0.882304,0.240096,0.277184,12.03125,-3.61375,58.52,16.008001,-25.152,7.864,concentric,5,3.0,22859.0,155391.0,246625.0,293886.0,270179.0
2026-04-08 21:39:44.995310,127566,1609503557243598,1157210198,-0.940864,0.28304,0.228384,7.58625,-1.225,54.4075,15.816001,-25.608002,7.224001,concentric,5,3.0,22859.0,155391.0,246625.0,293886.0,270179.0
2026-04-08 21:39:45.028399,127567,1609503557252540,1157218889,-0.940864,0.28304,0.228384,3.99,3.2725,47.5475,15.816001,-25.608002,7.224001,concentric,5,3.0,22859.0,155391.0,246625.0,293886.0,270179.0
2026-04-08 21:39:45.031998,127568,1609503557267016,1157233749,-0.964288,0.310368,0.296704,-2.065,5.5125,41.3175,15.896001,-26.104002,6.184001,concentric,5,3.0,22859.0,155391.0,246625.0,293886.0,270179.0
2026-04-08 21:39:45.034384,127569,1609503557275938,1157242423,-0.964288,0.310368,0.296704,-8.715,5.94125,38.85875,15.896001,-26.104002,6.184001,concentric,5,3.0,22859.0,155391.0,246625.0,293886.0,270179.0
2026-04-08 21:39:45.039471,127570,1609503557290418,1157257277,-0.876448,0.310368,0.35136,-8.04125,3.07125,39.935,15.488001,-26.376001,7.000001,concentric,5,3.0,22859.0,155391.0,246625.0,293886.0,270179.0
2026-04-08 21:39:45.072599,127571,1609503557299352,1157265971,-0.876448,0.310368,0.35136,-4.20875,-0.60375,39.375,15.488001,-26.376001,7.000001,concentric,5,3.0,22859.0,155391.0,246625.0,293886.0,270179.0
2026-04-08 21:39:45.101197,127582,1609503557313886,1157280971,-0.784704,0.255712,0.269376,-0.62125,-3.22875,36.32125,15.160001,-26.112001,7.496,concentric,5,3.0,23215.0,157039.0,248419.0,294900.0,270755.0
2026-04-08 21:39:45.102931,127583,1609503557322885,1157289691,-0.75152,0.238144,0.275232,0.18375,-4.5325,32.08625,15.136001,-26.816002,6.232,concentric,5,3.0,23215.0,157039.0,248419.0,294900.0,270755.0
2026-04-08 21:39:45.104423,127584,1609503557331835,1157298349,-0.75152,0.238144,0.275232,1.33875,-2.555,28.2275,15.136001,-26.816002,6.232,concentric,5,3.0,23215.0,157039.0,248419.0,294900.0,270755.0
2026-04-08 21:39:45.108672,127585,1609503557346348,1157313304,-0.866688,0.318176,0.40992,-0.1925,-1.68,27.79,14.816001,-27.216002,7.296001,concentric,5,3.0,23215.0,157039.0,248419.0,294900.0,270755.0
2026-04-08 21:39:45.111135,127586,1609503557355309,1157322009,-0.866688,0.318176,0.40992,-6.39625,-3.84125,27.8425,14.816001,-27.216002,7.296001,concentric,5,3.0,23215.0,157039.0,248419.0,294900.0,270755.0
2026-04-08 21:39:45.142593,127587,1609503557369796,1157336908,-0.854976,0.28304,0.417728,-6.22125,-4.1825,21.27125,14.952001,-27.016,7.712,concentric,5,3.0,23215.0,157039.0,248419.0,294900.0,270755.0
2026-04-08 21:39:45.144185,127588,1609503557378692,1157345547,-0.854976,0.28304,0.417728,-3.75375,-1.23375,13.667501,14.952001,-27.016,7.712,concentric,5,3.0,23215.0,157039.0,248419.0,294900.0,270755.0
2026-04-08 21:39:45.146928,127589,1609503557393134,1157358377,-0.853024,0.2928,0.325984,-3.6925,2.5025,9.555,15.216001,-27.616001,6.384,concentric,5,3.0,23215.0,157039.0,248419.0,294900.0,270755.0
2026-04-08 21:39:45.152693,127590,1609503557402449,1157369143,-0.931104,0.304512,0.310368,-1.9425,7.91,6.5975,15.632001,-27.720001,6.088,concentric,5,3.0,23215.0,157039.0,248419.0,294900.0,270755.0
2026-04-08 21:39:45.180912,127591,1609503557411342,1157377820,-0.931104,0.304512,0.310368,-3.1325,9.63375,5.39875,15.632001,-27.720001,6.088,concentric,5,3.0,23215.0,157039.0,248419.0,294900.0,270755.0
2026-04-08 21:39:45.211953,127602,1609503557425897,1157392706,-0.999424,0.2928,0.454816,-2.905,9.205,2.58125,15.488001,-27.928001,5.992,concentric,5,3.0,23213.0,157016.0,248328.0,294803.0,270728.0
2026-04-08 21:39:45.214425,127603,1609503557434848,1157401376,-0.999424,0.2928,0.454816,1.77625,9.09125,-3.03625,15.488001,-27.928001,5.992,concentric,5,3.0,23213.0,157016.0,248328.0,294803.0,270728.0
2026-04-08 21:39:45.217873,127604,1609503557449409,1157416330,-0.997472,0.306464,0.30256,1.53125,7.20125,-8.785,15.712001,-28.264002,7.624001,concentric,5,3.0,23213.0,157016.0,248328.0,294803.0,270728.0
2026-04-08 21:39:45.219425,127605,1609503557458329,1157425021,-0.997472,0.306464,0.30256,5.36375,7.91,-21.32375,15.712001,-28.264002,7.624001,concentric,5,3.0,23213.0,157016.0,248328.0,294803.0,270728.0
2026-04-08 21:39:45.223781,127606,1609503557467344,1157433722,-1.05408,0.279136,0.396256,3.745,10.28125,-30.275,16.192001,-28.192001,6.872,concentric,5,3.0,23213.0,157016.0,248328.0,294803.0,270728.0
2026-04-08 21:39:45.252182,127607,1609503557481822,1157448590,-1.05408,0.279136,0.349408,-1.085,10.73625,-27.83375,16.192001,-28.192001,6.872,concentric,5,3.0,23213.0,157016.0,248328.0,294803.0,270728.0
2026-04-08 21:39:45.256605,127608,1609503557490731,1157457265,-1.173152,0.413824,0.349408,-3.87625,11.4975,-25.66375,16.528,-28.056002,5.376,concentric,5,3.0,23213.0,157016.0,248328.0,294803.0,270728.0
2026-04-08 21:39:45.258121,127609,1609503557505233,1157472138,-1.257088,0.366976,0.347456,1.12875,13.48375,-26.8275,17.328001,-28.2,5.432,concentric,5,3.0,23213.0,157016.0,248328.0,294803.0,270728.0
2026-04-08 21:39:45.286677,127620,1609503557514169,1157481352,-1.257088,0.366976,0.347456,4.83,14.51625,-31.5525,17.328001,-28.2,5.432,concentric,5,3.0,22941.0,155709.0,246709.0,293817.0,270209.0
2026-04-08 21:39:45.288222,127621,1609503557528746,1157494197,-1.23952,0.425536,0.499712,0.72625,14.34125,-37.59,17.928001,-28.176,6.376,concentric,5,3.0,22941.0,155709.0,246709.0,293817.0,270209.0
2026-04-08 21:39:45.292264,127622,1609503557537966,1157504996,-1.23952,0.425536,0.499712,0.1225,14.21,-44.38,17.928001,-28.176,6.376,concentric,5,3.0,22941.0,155709.0,246709.0,293817.0,270209.0
2026-04-08 21:39:45.296300,127623,1609503557546914,1157513684,-1.225856,0.437248,0.288896,2.94,14.35875,-49.98875,18.776001,-27.952002,6.176,concentric,5,3.0,22941.0,155709.0,246709.0,293817.0,270209.0
2026-04-08 21:39:45.332522,127624,1609503557561413,1157526554,-1.225856,0.437248,0.288896,2.9925,14.79625,-51.91375,18.776001,-27.952002,6.176,concentric,5,3.0,22941.0,155709.0,246709.0,293817.0,270209.0
2026-04-08 21:39:45.345029,127625,1609503557570525,1157537269,-1.311744,0.515328,0.337696,-3.56125,13.9825,-48.982502,19.576,-27.888,4.024,concentric,5,3.0,22941.0,155709.0,246709.0,293817.0,270209.0
2026-04-08 21:39:45.346728,127626,1609503557584995,1157550167,-1.266848,0.450912,0.374784,-14.58625,7.7525,-43.58375,20.016,-27.656002,5.456,concentric,5,3.0,22941.0,155709.0,246709.0,293817.0,270209.0
2026-04-08 21:39:45.348219,127627,1609503557594210,1157560989,-1.266848,0.450912,0.374784,-22.6625,1.40875,-45.3075,20.016,-27.656002,5.456,concentric,5,3.0,22941.0,155709.0,246709.0,293817.0,270209.0
2026-04-08 21:39:45.356023,127628,1609503557603114,1157569696,-1.223904,0.406016,0.431392,-26.92375,-3.29875,-51.8,20.016,-27.656002,6.808,concentric,5,3.0,22941.0,155709.0,246709.0,293817.0,270209.0
2026-04-08 21:39:45.387531,127639,1609503557618203,1157584611,-1.223904,0.406016,0.431392,-24.35125,-5.85375,-53.89125,20.2,-27.064001,6.808,concentric,5,3.0,22653.0,154408.0,245092.0,292776.0,269651.0
2026-04-08 21:39:45.392539,127640,1609503557627166,1157593348,-1.22,0.398208,0.41968,-19.94125,-6.265,-51.065,21.032001,-26.936,6.440001,concentric,5,3.0,22653.0,154408.0,245092.0,292776.0,269651.0
2026-04-08 21:39:45.395898,127641,1609503557641679,1157608273,-1.22,0.398208,0.41968,-18.69,-8.12875,-48.09,21.032001,-26.936,6.440001,concentric,5,3.0,22653.0,154408.0,245092.0,292776.0,269651.0
2026-04-08 21:39:45.399705,127642,1609503557650616,1157617007,-1.165344,0.372832,0.41968,-23.24875,-10.22875,-48.57125,21.648,-26.536001,8.112,concentric,5,3.0,22653.0,154408.0,245092.0,292776.0,269651.0
2026-04-08 21:39:45.428407,127643,1609503557659551,1157625706,-1.165344,0.372832,0.41968,-27.83375,-10.85,-49.21875,21.648,-26.536001,8.112,concentric,5,3.0,22653.0,154408.0,245092.0,292776.0,269651.0
2026-04-08 21:39:45.432904,127644,1609503557674041,1157640637,-1.143872,0.36112,0.335744,-21.105,-9.66875,-48.06375,22.288,-26.632002,7.024,concentric,5,3.0,22653.0,154408.0,245092.0,292776.0,269651.0
2026-04-08 21:39:45.434426,127645,1609503557682947,1157649312,-1.143872,0.36112,0.335744,-11.69,-5.3375,-45.115,22.288,-26.632002,7.024,concentric,5,3.0,22653.0,154408.0,245092.0,292776.0,269651.0
2026-04-08 21:39:45.466858,127646,1609503557697381,1157664191,-1.196576,0.3416,0.286944,-8.40875,-1.65375,-40.0575,22.76,-26.000002,5.064,concentric,5,3.0,22653.0,154408.0,245092.0,292776.0,269651.0
2026-04-08 21:39:45.467812,127647,1609503557706321,1157672865,-1.159488,0.339648,0.345504,-7.90125,0.37625,-35.98875,23.224,-25.976002,6.088,concentric,5,3.0,22653.0,154408.0,245092.0,292776.0,269651.0
2026-04-08 21:39:45.495689,127658,1609503557720930,1157687793,-1.159488,0.339648,0.345504,-5.5475,3.05375,-33.46,23.224,-25.976002,6.088,concentric,5,3.0,22489.0,153597.0,244093.0,292090.0,269254.0
2026-04-08 21:39:45.499171,127659,1609503557729917,1157696441,-1.14192,0.286944,0.281088,-3.08875,5.81,-31.0625,23.392,-25.624,6.2,concentric,5,3.0,22489.0,153597.0,244093.0,292090.0,269254.0
2026-04-08 21:39:45.500697,127660,1609503557738861,1157705121,-1.14192,0.286944,0.281088,-1.1725,8.68,-27.23,23.392,-25.624,6.2,concentric,5,3.0,22489.0,153597.0,244093.0,292090.0,269254.0
2026-04-08 21:39:45.503131,127661,1609503557753323,1157720114,-1.149728,0.324032,0.349408,1.26875,10.815,-21.46375,23.728,-25.728,5.952,concentric,5,3.0,22489.0,153597.0,244093.0,292090.0,269254.0
2026-04-08 21:39:45.509418,127662,1609503557762222,1157728790,-1.149728,0.324032,0.349408,3.6225,11.235,-17.56125,23.728,-25.728,5.952,concentric,5,3.0,22489.0,153597.0,244093.0,292090.0,269254.0
2026-04-08 21:39:45.556868,127663,1609503557776707,1157743635,-1.145824,0.298656,0.294752,3.85875,11.62,-16.24875,24.136002,-25.560001,5.736,concentric,5,3.0,22489.0,153597.0,244093.0,292090.0,269254.0
2026-04-08 21:39:45.559331,127664,1609503557785619,1157752316,-1.188768,0.300608,0.265472,3.885,11.6375,-14.41125,24.328001,-25.408,4.008,concentric,5,3.0,22489.0,153597.0,244093.0,292090.0,269254.0
2026-04-08 21:39:45.561858,127665,1609503557800086,1157767176,-1.188768,0.300608,0.265472,4.025,11.75125,-11.6375,24.328001,-25.408,4.008,concentric,5,3.0,22489.0,153597.0,244093.0,292090.0,269254.0
2026-04-08 21:39:45.564368,127666,1609503557808980,1157775831,-1.159488,0.288896,0.296704,1.56625,11.06,-9.38,24.056002,-25.752,5.888001,concentric,5,3.0,22489.0,153597.0,244093.0,292090.0,269254.0
2026-04-08 21:39:45.594468,127677,1609503557823649,1157789114,-1.159488,0.288896,0.296704,-2.54625,9.415,-7.805,24.056002,-25.752,5.888001,concentric,5,3.0,22459.0,153503.0,243915.0,291907.0,269154.0
2026-04-08 21:39:45.632186,127678,1609503557832914,1157799960,-1.091168,0.212768,0.236192,-6.44,6.4225,-7.11375,23.76,-25.52,6.288,concentric,5,3.0,22459.0,153503.0,243915.0,291907.0,269154.0
2026-04-08 21:39:45.637346,127679,1609503557841830,1157808665,-1.091168,0.212768,0.236192,-9.17875,3.325,-6.8075,23.76,-25.52,6.288,concentric,5,3.0,22459.0,153503.0,243915.0,291907.0,269154.0
2026-04-08 21:39:45.640039,127680,1609503557856347,1157821555,-1.081408,0.171776,0.242048,-8.995,0.91,-6.95625,24.184002,-25.056002,6.448,eccentric,5,3.0,22459.0,153503.0,243915.0,291907.0,269154.0
2026-04-08 21:39:45.641884,127681,1609503557865550,1157832278,-1.011136,0.124928,0.218624,-7.63875,-0.32375,-5.9675,24.312,-25.2,3.888,eccentric,5,3.0,22459.0,153503.0,243915.0,291907.0,269154.0
2026-04-08 21:39:45.644330,127682,1609503557880027,1157847128,-1.011136,0.124928,0.218624,-6.3,-0.37625,-5.6525,24.312,-25.2,3.888,eccentric,5,3.0,22459.0,153503.0,243915.0,291907.0,269154.0
2026-04-08 21:39:45.646935,127683,1609503557888937,1157855803,-1.00528,0.173728,0.425536,-3.045,-0.18375,-5.87125,24.296001,-24.984001,5.776001,eccentric,5,3.0,22459.0,153503.0,243915.0,291907.0,269154.0
2026-04-08 21:39:45.649352,127684,1609503557897894,1157864465,-1.00528,0.173728,0.425536,0.525,0.20125,-6.11625,24.296001,-24.984001,5.776001,eccentric,5,3.0,22459.0,153503.0,243915.0,291907.0,269154.0
2026-04-08 21:39:45.679617,127685,1609503557912392,1157879341,-1.081408,0.193248,0.316224,3.5,2.12625,-6.46625,24.464,-24.952002,5.2,eccentric,5,3.0,22459.0,153503.0,243915.0,291907.0,269154.0
2026-04-08 21:39:45.708168,127696,1609503557921440,1157888039,-1.081408,0.193248,0.316224,2.51125,3.92875,-4.34875,24.464,-24.952002,5.2,eccentric,5,3.0,22472.0,153428.0,243841.0,291839.0,269088.0
2026-04-08 21:39:45.711450,127697,1609503557935930,1157902945,-1.08336,0.230336,0.363072,0.13125,5.425,-1.84625,24.112001,-25.416,5.552,eccentric,5,3.0,22472.0,153428.0,243841.0,291839.0,269088.0
2026-04-08 21:39:45.713868,127698,1609503557944905,1157911664,-1.08336,0.230336,0.269376,-1.3825,6.195,-0.14,24.112001,-25.416,5.552,eccentric,5,3.0,22472.0,153428.0,243841.0,291839.0,269088.0
2026-04-08 21:39:45.716001,127699,1609503557953932,1157920353,-1.08336,0.167872,0.27328,-6.1425,6.195,0.735,23.840002,-24.928001,6.104,eccentric,5,3.0,22472.0,153428.0,243841.0,291839.0,269088.0
2026-04-08 21:39:45.719752,127700,1609503557968424,1157935286,-1.05408,0.124928,0.304512,-10.66625,5.81,1.6975,23.312,-24.872002,7.384,eccentric,5,3.0,22472.0,153428.0,243841.0,291839.0,269088.0
2026-04-08 21:39:45.725226,127701,1609503557977369,1157943986,-1.05408,0.124928,0.304512,-8.19,5.565,3.8675,23.312,-24.872002,7.384,eccentric,5,3.0,22472.0,153428.0,243841.0,291839.0,269088.0
2026-04-08 21:39:45.755532,127702,1609503557991845,1157958848,-1.15168,0.189344,0.18544,-3.50875,5.88875,5.31125,23.800001,-25.104002,5.936,eccentric,5,3.0,22472.0,153428.0,243841.0,291839.0,269088.0
2026-04-08 21:39:45.757783,127703,1609503558000782,1157967495,-1.15168,0.189344,0.18544,-0.315,7.53375,5.25,23.800001,-25.104002,5.936,eccentric,5,3.0,22472.0,153428.0,243841.0,291839.0,269088.0
2026-04-08 21:39:45.792627,127714,1609503558015227,1157982389,-1.089216,0.232288,0.355264,-1.75875,9.00375,5.2325,23.720001,-25.160002,5.696,eccentric,5,3.0,22376.0,153082.0,243420.0,291554.0,268926.0
2026-04-08 21:39:45.794536,127715,1609503558024187,1157991139,-1.089216,0.232288,0.355264,-3.29,9.765,6.74625,23.720001,-25.160002,5.696,eccentric,5,3.0,22376.0,153082.0,243420.0,291554.0,268926.0
2026-04-08 21:39:45.795702,127716,1609503558033182,1157999857,-1.20048,0.242048,0.41968,-3.80625,11.025,7.1575,23.184002,-25.000002,7.464,eccentric,5,3.0,22376.0,153082.0,243420.0,291554.0,268926.0
2026-04-08 21:39:45.799721,127717,1609503558047683,1158014803,-1.214144,0.189344,0.267424,-5.81875,10.42125,8.68,23.328001,-25.400002,6.456,eccentric,5,3.0,22376.0,153082.0,243420.0,291554.0,268926.0
2026-04-08 21:39:45.828395,127718,1609503558056630,1158023474,-1.214144,0.189344,0.267424,-6.08125,8.47875,11.2875,23.328001,-25.400002,6.456,eccentric,5,3.0,22376.0,153082.0,243420.0,291554.0,268926.0
2026-04-08 21:39:45.831972,127719,1609503558071118,1158036310,-1.212192,0.245952,0.310368,-2.94,7.11375,12.2325,23.472002,-25.456001,5.6,eccentric,5,3.0,22376.0,153082.0,243420.0,291554.0,268926.0
2026-04-08 21:39:45.834400,127720,1609503558080282,1158047058,-1.212192,0.245952,0.310368,0.0875,7.23625,11.10375,23.472002,-25.456001,5.6,eccentric,5,3.0,22376.0,153082.0,243420.0,291554.0,268926.0
2026-04-08 21:39:45.864694,127721,1609503558094797,1158061947,-1.257088,0.329888,0.368928,-0.58625,7.23625,11.10375,22.640001,-25.192001,5.784,eccentric,5,3.0,22376.0,153082.0,243420.0,291554.0,268926.0
2026-04-08 21:39:45.868130,127722,1609503558103708,1158070615,-1.257088,0.329888,0.368928,-4.48,5.775,13.85125,22.640001,-25.192001,5.784,eccentric,5,3.0,22376.0,153082.0,243420.0,291554.0,268926.0
2026-04-08 21:39:45.870635,127723,1609503558112601,1158079253,-1.130208,0.236192,0.347456,-7.7175,4.55875,15.21625,22.880001,-25.376001,5.992,eccentric,5,3.0,22376.0,153082.0,243420.0,291554.0,268926.0
2026-04-08 21:39:45.937758,127734,1609503558127176,1158094196,-1.169248,0.181536,0.376736,-10.59625,2.2925,14.84875,22.256,-25.400002,5.848,eccentric,5,3.0,22217.0,152312.0,242394.0,290828.0,268543.0
2026-04-08 21:39:45.940708,127735,1609503558136138,1158102956,-1.169248,0.181536,0.376736,-11.12125,-0.49875,16.8525,22.256,-25.400002,5.848,eccentric,5,3.0,22217.0,152312.0,242394.0,290828.0,268543.0
2026-04-08 21:39:45.943120,127736,1609503558150690,1158117830,-1.163392,0.183488,0.22448,-6.4225,-1.79375,19.495,22.376001,-25.448002,6.096,eccentric,5,3.0,22217.0,152312.0,242394.0,290828.0,268543.0
2026-04-08 21:39:45.946332,127737,1609503558159595,1158126489,-1.163392,0.183488,0.22448,-1.225,-0.77,18.4625,22.376001,-25.448002,6.096,eccentric,5,3.0,22217.0,152312.0,242394.0,290828.0,268543.0
2026-04-08 21:39:45.948113,127738,1609503558174060,1158139282,-1.138016,0.261568,0.376736,0.62125,0.62125,15.23375,21.744001,-25.320002,6.328,eccentric,5,3.0,22217.0,152312.0,242394.0,290828.0,268543.0
2026-04-08 21:39:45.951065,127739,1609503558183253,1158150052,-1.138016,0.261568,0.376736,3.2375,1.56625,15.4,21.744001,-25.320002,6.328,eccentric,5,3.0,22217.0,152312.0,242394.0,290828.0,268543.0
2026-04-08 21:39:45.953810,127740,1609503558192149,1158158704,-1.143872,0.22448,0.245952,3.0275,1.53125,17.22,21.400002,-25.824001,5.816001,eccentric,5,3.0,22217.0,152312.0,242394.0,290828.0,268543.0
2026-04-08 21:39:45.955923,127741,1609503558206651,1158173621,-1.143872,0.22448,0.257664,-0.02625,0.3675,18.20875,21.400002,-25.824001,5.816001,eccentric,5,3.0,22217.0,152312.0,242394.0,290828.0,268543.0
2026-04-08 21:39:45.987151,127742,1609503558215603,1158182303,-1.089216,0.162016,0.257664,-1.61875,-0.83125,18.5675,21.472,-25.744001,6.736001,eccentric,5,3.0,22217.0,152312.0,242394.0,290828.0,268543.0
2026-04-08 21:39:46.015620,127753,1609503558230113,1158197189,-1.159488,0.163968,0.210816,-2.84375,-0.72625,16.2925,21.048,-25.928001,5.808,eccentric,5,3.0,22197.0,152121.0,242134.0,290637.0,268397.0
2026-04-08 21:39:46.018125,127754,1609503558239068,1158205845,-1.159488,0.163968,0.210816,3.955,1.88125,15.79375,21.048,-25.928001,5.808,eccentric,5,3.0,22197.0,152121.0,242134.0,290637.0,268397.0
2026-04-08 21:39:46.021154,127755,1609503558253606,1158220782,-1.11264,0.226432,0.288896,10.5875,4.96125,15.6625,20.400002,-25.576002,6.704001,eccentric,5,3.0,22197.0,152121.0,242134.0,290637.0,268397.0
2026-04-08 21:39:46.023208,127756,1609503558262523,1158229500,-1.11264,0.226432,0.288896,12.95875,7.7525,14.665,20.400002,-25.576002,6.704001,eccentric,5,3.0,22197.0,152121.0,242134.0,290637.0,268397.0
2026-04-08 21:39:46.026663,127757,1609503558271501,1158238208,-1.061888,0.203008,0.353312,9.52,8.07625,13.5625,20.448002,-25.624,6.744,eccentric,5,3.0,22197.0,152121.0,242134.0,290637.0,268397.0
2026-04-08 21:39:46.055970,127758,1609503558285992,1158253067,-1.061888,0.203008,0.353312,4.89125,7.5075,13.4575,20.448002,-25.624,6.744,eccentric,5,3.0,22197.0,152121.0,242134.0,290637.0,268397.0
2026-04-08 21:39:46.059443,127759,1609503558294909,1158261790,-1.04432,0.148352,0.388448,3.5,6.51875,14.16625,20.2,-25.888,4.216,eccentric,5,3.0,22197.0,152121.0,242134.0,290637.0,268397.0
2026-04-08 21:39:46.061933,127760,1609503558309411,1158274607,-1.052128,0.160064,0.368928,6.5275,6.64125,12.635,20.024,-25.6,5.648,eccentric,5,3.0,22197.0,152121.0,242134.0,290637.0,268397.0
2026-04-08 21:39:46.089393,127771,1609503558318668,1158285742,-1.052128,0.160064,0.368928,10.22,7.27125,10.80625,20.024,-25.6,5.648,eccentric,5,3.0,22124.0,151911.0,241909.0,290499.0,268354.0
2026-04-08 21:39:46.091894,127772,1609503558327620,1158294540,-1.052128,0.269376,0.359168,12.81,7.74375,8.785,20.024,-25.6,5.648,eccentric,5,3.0,22124.0,151911.0,241909.0,290499.0,268354.0
2026-04-08 21:39:46.094457,127773,1609503558342164,1158307388,-1.091168,0.269376,0.359168,16.17,8.4525,6.60625,19.712002,-25.696001,5.496,eccentric,5,3.0,22124.0,151911.0,241909.0,290499.0,268354.0
2026-04-08 21:39:46.099462,127774,1609503558351431,1158318132,-1.04432,0.230336,0.402112,18.865,8.8725,5.8625,19.448002,-25.584002,5.256,eccentric,5,3.0,22124.0,151911.0,241909.0,290499.0,268354.0
2026-04-08 21:39:46.129624,127775,1609503558365891,1158332984,-1.04432,0.230336,0.402112,13.04625,5.88,5.46875,19.448002,-25.584002,5.256,eccentric,5,3.0,22124.0,151911.0,241909.0,290499.0,268354.0
2026-04-08 21:39:46.133133,127776,1609503558374820,1158341640,-1.05408,0.163968,0.2928,6.545,2.73875,4.9,19.368,-25.880001,5.376,eccentric,5,3.0,22124.0,151911.0,241909.0,290499.0,268354.0
2026-04-08 21:39:46.135603,127777,1609503558389297,1158354467,-0.99552,0.189344,0.415776,3.6225,1.19,2.8175,19.272001,-25.176,5.536,eccentric,5,3.0,22124.0,151911.0,241909.0,290499.0,268354.0
2026-04-08 21:39:46.165897,127778,1609503558398511,1158365205,-0.99552,0.189344,0.415776,3.21125,1.58375,0.945,19.272001,-25.176,5.536,eccentric,5,3.0,22124.0,151911.0,241909.0,290499.0,268354.0
2026-04-08 21:39:46.169426,127779,1609503558407498,1158373866,-0.99552,0.189344,0.415776,6.44875,2.07375,-1.70625,19.272001,-25.176,5.536,eccentric,5,3.0,22124.0,151911.0,241909.0,290499.0,268354.0
2026-04-08 21:39:46.235651,127790,1609503558422515,1158388761,-0.935008,0.230336,0.261568,9.7125,2.5025,-4.89125,19.008001,-25.768002,4.08,eccentric,5,3.0,22112.0,151942.0,241992.0,290574.0,268377.0
2026-04-08 21:39:46.238117,127791,1609503558431510,1158397460,-1.016992,0.228384,0.216672,12.81875,2.065,-6.93875,18.728,-25.36,6.08,eccentric,5,3.0,22112.0,151942.0,241992.0,290574.0,268377.0
2026-04-08 21:39:46.240629,127792,1609503558445981,1158412375,-1.016992,0.228384,0.216672,13.825,0.42875,-8.56625,18.728,-25.36,6.08,eccentric,5,3.0,22112.0,151942.0,241992.0,290574.0,268377.0
2026-04-08 21:39:46.244075,127793,1609503558454940,1158421042,-1.087264,0.148352,0.05856,11.2,-0.7525,-9.275,18.896002,-25.336,5.128,eccentric,5,3.0,22112.0,151942.0,241992.0,290574.0,268377.0
2026-04-08 21:39:46.245640,127794,1609503558463824,1158429714,-1.087264,0.148352,0.05856,5.66125,0.245,-10.885,18.896002,-25.336,5.128,eccentric,5,3.0,22112.0,151942.0,241992.0,290574.0,268377.0
2026-04-08 21:39:46.248133,127795,1609503558478281,1158444576,-1.016992,0.222528,0.134688,-4.15625,1.70625,-10.2725,18.992,-24.928001,5.224001,eccentric,5,3.0,22112.0,151942.0,241992.0,290574.0,268377.0
2026-04-08 21:39:46.250603,127796,1609503558487206,1158453234,-1.016992,0.222528,0.134688,-7.07875,3.80625,-15.46125,18.992,-24.928001,5.224001,eccentric,5,3.0,22112.0,151942.0,241992.0,290574.0,268377.0
2026-04-08 21:39:46.253121,127797,1609503558501728,1158468112,-0.903776,0.212768,0.337696,-0.09625,7.49,-24.45625,18.960001,-24.448002,5.096,eccentric,5,3.0,22112.0,151942.0,241992.0,290574.0,268377.0
2026-04-08 21:39:46.258128,127798,1609503558510709,1158476812,-0.987712,0.236192,0.306464,1.91625,7.945,-26.17125,19.336,-24.368002,4.824,eccentric,5,3.0,22112.0,151942.0,241992.0,290574.0,268377.0
2026-04-08 21:39:46.289361,127809,1609503558525314,1158491826,-0.987712,0.236192,0.306464,1.49625,6.44,-23.9225,19.336,-24.368002,4.824,eccentric,5,3.0,22207.0,152366.0,242680.0,291121.0,268676.0
2026-04-08 21:39:46.291841,127810,1609503558534311,1158500503,-0.972096,0.197152,0.083936,2.72125,6.6325,-24.15875,18.656,-24.000002,6.528,eccentric,5,3.0,22207.0,152366.0,242680.0,291121.0,268676.0
2026-04-08 21:39:46.294361,127811,1609503558543238,1158509189,-0.972096,0.197152,0.083936,-0.56,8.19,-26.17125,18.656,-24.000002,6.528,eccentric,5,3.0,22207.0,152366.0,242680.0,291121.0,268676.0
2026-04-08 21:39:46.324678,127812,1609503558557734,1158524123,-0.989664,0.21472,0.119072,-2.485,10.4825,-29.75,19.096,-23.840002,5.84,eccentric,5,3.0,22207.0,152366.0,242680.0,291121.0,268676.0
2026-04-08 21:39:46.328243,127813,1609503558566651,1158532791,-0.989664,0.21472,0.119072,-3.73625,11.025,-32.6025,19.096,-23.840002,5.84,eccentric,5,3.0,22207.0,152366.0,242680.0,291121.0,268676.0
2026-04-08 21:39:46.330644,127814,1609503558581203,1158547638,-0.960384,0.216672,0.304512,-4.31375,9.94,-34.97375,20.264002,-23.816002,5.08,eccentric,5,3.0,22207.0,152366.0,242680.0,291121.0,268676.0
2026-04-08 21:39:46.360808,127815,1609503558590202,1158556312,-0.989664,0.113216,0.130784,-2.14375,7.91875,-36.4875,19.784,-23.664001,4.768,eccentric,5,3.0,22207.0,152366.0,242680.0,291121.0,268676.0
2026-04-08 21:39:46.364394,127816,1609503558599162,1158565033,-0.989664,0.113216,0.130784,-3.0625,5.04875,-37.35375,19.784,-23.664001,4.768,eccentric,5,3.0,22207.0,152366.0,242680.0,291121.0,268676.0
2026-04-08 21:39:46.366861,127817,1609503558613646,1158579880,-0.901824,0.181536,0.286944,-7.60375,3.99,-38.815,20.392,-22.808,5.312,eccentric,5,3.0,22207.0,152366.0,242680.0,291121.0,268676.0
2026-04-08 21:39:46.394391,127828,1609503558623111,1158588652,-0.901824,0.181536,0.286944,-6.93,6.81625,-43.37375,20.392,-22.808,5.312,eccentric,5,3.0,22315.0,152866.0,243429.0,291643.0,268951.0
2026-04-08 21:39:46.396949,127829,1609503558638074,1158603589,-0.90768,0.179584,0.171776,-1.75,11.31375,-50.19875,20.12,-22.168001,5.272,eccentric,5,3.0,22315.0,152866.0,243429.0,291643.0,268951.0
2026-04-08 21:39:46.399726,127830,1609503558647389,1158614420,-0.90768,0.179584,0.171776,-0.8225,13.615,-52.815,20.12,-22.168001,5.272,eccentric,5,3.0,22315.0,152866.0,243429.0,291643.0,268951.0
2026-04-08 21:39:46.404372,127831,1609503558656334,1158623095,-0.95648,0.113216,0.206912,-7.20125,9.26625,-49.13125,20.904001,-22.016,5.056,eccentric,5,3.0,22315.0,152866.0,243429.0,291643.0,268951.0
2026-04-08 21:39:46.435303,127832,1609503558670814,1158637950,-0.851072,0.054656,0.257664,-11.06875,5.27625,-46.4625,21.424002,-21.448002,4.368,eccentric,5,3.0,22315.0,152866.0,243429.0,291643.0,268951.0
2026-04-08 21:39:46.438178,127833,1609503558679758,1158646599,-0.851072,0.054656,0.257664,-9.5375,5.8275,-49.0875,21.424002,-21.448002,4.368,eccentric,5,3.0,22315.0,152866.0,243429.0,291643.0,268951.0
2026-04-08 21:39:46.441894,127834,1609503558694219,1158659383,-0.884256,0.17568,0.320128,-6.36125,10.08875,-52.955,21.584002,-21.032001,4.952,eccentric,5,3.0,22315.0,152866.0,243429.0,291643.0,268951.0
2026-04-08 21:39:46.450693,127835,1609503558703427,1158670173,-0.884256,0.17568,0.320128,-5.38125,12.67,-53.10375,21.584002,-21.032001,4.952,eccentric,5,3.0,22315.0,152866.0,243429.0,291643.0,268951.0
2026-04-08 21:39:46.483350,127836,1609503558717890,1158683054,-0.987712,0.138592,0.173728,-4.9875,12.0225,-51.84375,21.784,-20.608002,7.104001,eccentric,5,3.0,22315.0,152866.0,243429.0,291643.0,268951.0
2026-04-08 21:39:46.546893,127847,1609503558727143,1158694094,-0.987712,0.138592,0.173728,-10.08875,8.33,-50.7675,21.784,-20.608002,7.104001,eccentric,5,3.0,22346.0,153040.0,243682.0,291806.0,269020.0
2026-04-08 21:39:46.549346,127848,1609503558736131,1158702787,-0.88816,-0.035136,0.142496,-11.31375,5.83625,-51.5725,22.480001,-20.04,4.856,eccentric,5,3.0,22346.0,153040.0,243682.0,291806.0,269020.0
2026-04-08 21:39:46.551830,127849,1609503558750618,1158717688,-0.935008,0.083936,0.244,-8.155,6.92125,-51.87875,22.480001,-20.04,5.136,eccentric,5,3.0,22346.0,153040.0,243682.0,291806.0,269020.0
2026-04-08 21:39:46.554265,127850,1609503558759592,1158726352,-0.931104,0.083936,0.244,-4.9,12.55625,-51.0825,22.936,-19.824001,5.136,eccentric,5,3.0,22346.0,153040.0,243682.0,291806.0,269020.0
2026-04-08 21:39:46.556813,127851,1609503558774077,1158741225,-0.880352,0.144448,0.288896,-3.19375,17.9375,-50.995,23.400002,-19.792002,4.784,eccentric,5,3.0,22346.0,153040.0,243682.0,291806.0,269020.0
2026-04-08 21:39:46.559346,127852,1609503558782974,1158749872,-0.880352,0.144448,0.288896,-7.1575,18.62,-51.6425,23.400002,-19.792002,4.784,eccentric,5,3.0,22346.0,153040.0,243682.0,291806.0,269020.0
2026-04-08 21:39:46.561857,127853,1609503558791877,1158758591,-0.9272,0.0976,0.44896,-14.16625,14.34125,-49.63,23.568,-18.84,4.472,eccentric,5,3.0,22346.0,153040.0,243682.0,291806.0,269020.0
2026-04-08 21:39:46.564339,127854,1609503558806419,1158773494,-0.9272,0.0976,0.44896,-16.72125,7.35875,-47.0225,23.568,-18.84,4.472,eccentric,5,3.0,22346.0,153040.0,243682.0,291806.0,269020.0
2026-04-08 21:39:46.566823,127855,1609503558815371,1158782160,-0.86864,-0.021472,0.167872,-9.415,1.56625,-47.52125,23.608002,-18.6,5.960001,eccentric,5,3.0,22346.0,153040.0,243682.0,291806.0,269020.0
2026-04-08 21:39:46.594364,127866,1609503558830244,1158797126,-0.86864,-0.021472,0.167872,3.17625,0.735,-47.60875,23.608002,-18.6,5.960001,eccentric,5,3.0,22312.0,152777.0,243302.0,291501.0,268804.0
2026-04-08 21:39:46.596818,127867,1609503558839295,1158805855,-0.866688,0.158112,0.232288,12.18,6.36125,-44.59,23.776001,-18.256,5.496,eccentric,5,3.0,22312.0,152777.0,243302.0,291501.0,268804.0
2026-04-08 21:39:46.599309,127868,1609503558848257,1158814564,-0.866688,0.158112,0.232288,5.565,10.675,-40.5125,23.776001,-18.256,5.496,eccentric,5,3.0,22312.0,152777.0,243302.0,291501.0,268804.0
2026-04-08 21:39:46.629866,127869,1609503558862832,1158829433,-0.938912,0.101504,0.091744,-11.27875,9.79125,-36.63625,24.080002,-17.720001,5.68,eccentric,5,3.0,22312.0,152777.0,243302.0,291501.0,268804.0
2026-04-08 21:39:46.633163,127870,1609503558871767,1158838117,-0.854976,-0.017568,0.386496,-25.9175,5.9675,-33.24125,24.496,-17.376001,6.28,eccentric,5,3.0,22312.0,152777.0,243302.0,291501.0,268804.0
2026-04-08 21:39:46.635709,127871,1609503558886308,1158853006,-0.854976,-0.017568,0.386496,-30.5725,3.5525,-32.2875,24.496,-17.376001,6.28,eccentric,5,3.0,22312.0,152777.0,243302.0,291501.0,268804.0
2026-04-08 21:39:46.666005,127872,1609503558895231,1158861674,-0.950624,0.046848,0.122976,-20.0025,4.12125,-31.96375,24.44,-17.320002,4.832,eccentric,5,3.0,22312.0,152777.0,243302.0,291501.0,268804.0
2026-04-08 21:39:46.669477,127873,1609503558909739,1158876543,-0.950624,0.046848,0.122976,-1.56625,7.315,-28.4025,24.44,-17.320002,4.832,eccentric,5,3.0,22312.0,152777.0,243302.0,291501.0,268804.0
2026-04-08 21:39:46.671936,127874,1609503558918732,1158885202,-0.874496,0.111264,0.271328,6.9125,10.885,-25.2875,24.664001,-17.256,4.552,eccentric,5,3.0,22312.0,152777.0,243302.0,291501.0,268804.0
2026-04-08 21:39:46.699419,127885,1609503558927702,1158893976,-0.874496,0.111264,0.271328,-0.27125,11.50625,-22.645,24.664001,-17.256,4.552,eccentric,5,3.0,22300.0,152729.0,243255.0,291469.0,268796.0
2026-04-08 21:39:46.701918,127886,1609503558942336,1158908891,-0.954528,0.099552,0.349408,-14.34125,8.12,-15.54875,24.528002,-16.52,5.912,eccentric,5,3.0,22300.0,152729.0,243255.0,291469.0,268796.0
2026-04-08 21:39:46.704432,127887,1609503558951259,1158917556,-0.954528,0.099552,0.349408,-21.13125,3.7625,-11.01625,24.528002,-16.52,5.912,eccentric,5,3.0,22300.0,152729.0,243255.0,291469.0,268796.0
2026-04-08 21:39:46.738613,127888,1609503558965756,1158932444,-0.974048,0.015616,0.314272,-16.03,2.87,-11.935,24.704,-17.048,4.04,eccentric,5,3.0,22300.0,152729.0,243255.0,291469.0,268796.0
2026-04-08 21:39:46.741938,127889,1609503558974676,1158941100,-1.022848,0.007808,0.23424,-9.5025,5.27625,-12.55625,25.088001,-16.936,4.624,eccentric,5,3.0,22300.0,152729.0,243255.0,291469.0,268796.0
2026-04-08 21:39:46.744568,127890,1609503558989176,1158956025,-1.022848,0.007808,0.23424,-6.55375,8.40875,-13.69375,25.088001,-16.936,4.624,eccentric,5,3.0,22300.0,152729.0,243255.0,291469.0,268796.0
2026-04-08 21:39:46.747054,127891,1609503558998100,1158964686,-1.003328,0.033184,0.193248,-6.37875,9.61625,-15.00625,25.400002,-16.832,4.72,eccentric,5,3.0,22300.0,152729.0,243255.0,291469.0,268796.0
2026-04-08 21:39:46.777210,127892,1609503559007059,1158973367,-1.003328,0.033184,0.193248,-8.49625,8.1725,-14.323751,25.400002,-16.832,4.72,eccentric,5,3.0,22300.0,152729.0,243255.0,291469.0,268796.0
2026-04-08 21:39:46.861835,127904,1609503559021544,1158988178,-1.059936,0.072224,0.13664,-11.59375,6.93,-11.042501,25.464,-16.288,5.088,eccentric,5,3.0,22365.0,152922.0,243492.0,291648.0,268896.0
2026-04-08 21:39:46.864353,127905,1609503559031000,1158996896,-1.059936,0.072224,0.13664,-11.69,7.63875,-7.8225,25.464,-16.288,5.088,eccentric,5,3.0,22365.0,152922.0,243492.0,291648.0,268896.0
2026-04-08 21:39:46.866848,127906,1609503559045573,1159011831,-1.013088,-0.070272,0.265472,-8.785,10.5875,-10.15875,25.44,-16.456001,3.816,eccentric,5,3.0,22365.0,152922.0,243492.0,291648.0,268896.0
2026-04-08 21:39:46.869488,127907,1609503559054494,1159020497,-1.0736,-0.054656,0.0488,-9.4325,11.96125,-13.7025,25.512001,-16.336,5.848,eccentric,5,3.0,22365.0,152922.0,243492.0,291648.0,268896.0
2026-04-08 21:39:46.871942,127908,1609503559063427,1159029150,-1.0736,-0.054656,0.0488,-13.37,10.92,-14.83125,25.512001,-16.336,5.848,eccentric,5,3.0,22365.0,152922.0,243492.0,291648.0,268896.0
2026-04-08 21:39:46.874410,127909,1609503559077888,1159044039,-1.10288,0.044896,0.07808,-13.55375,9.6775,-14.542501,25.688002,-16.424002,5.048,eccentric,5,3.0,22365.0,152922.0,243492.0,291648.0,268896.0
2026-04-08 21:39:46.876849,127910,1609503559086816,1159052721,-1.10288,0.044896,0.07808,-12.34625,5.7225,-11.76875,25.688002,-16.424002,5.048,eccentric,5,3.0,22365.0,152922.0,243492.0,291648.0,268896.0
2026-04-08 21:39:46.879340,127911,1609503559101307,1159067566,-0.954528,-0.01952,0.32208,-8.02375,2.38875,-9.625,25.656002,-15.800001,4.464,eccentric,5,3.0,22365.0,152922.0,243492.0,291648.0,268896.0
2026-04-08 21:39:46.881858,127912,1609503559110234,1159076301,-0.954528,-0.01952,0.32208,-5.075,2.21375,-8.49625,25.656002,-15.800001,4.464,eccentric,5,3.0,22365.0,152922.0,243492.0,291648.0,268896.0
2026-04-08 21:39:46.911993,127923,1609503559124927,1159091368,-1.03456,-0.070272,0.015616,-6.23,4.2,-5.46875,25.584002,-16.288,4.808,eccentric,5,3.0,22378.0,153033.0,243630.0,291680.0,268905.0
2026-04-08 21:39:46.914321,127924,1609503559133934,1159100103,-1.032608,-0.011712,0.093696,-10.92875,4.43625,-0.84,25.776001,-16.024,5.704001,eccentric,5,3.0,22378.0,153033.0,243630.0,291680.0,268905.0
2026-04-08 21:39:46.916803,127925,1609503559142869,1159108841,-1.032608,-0.011712,0.093696,-15.505,2.79125,2.52875,25.776001,-16.024,5.704001,eccentric,5,3.0,22378.0,153033.0,243630.0,291680.0,268905.0
2026-04-08 21:39:46.919311,127926,1609503559157366,1159123720,-1.079456,-0.025376,0.210816,-14.4375,1.14625,2.7475,25.872002,-16.056002,4.72,eccentric,5,3.0,22378.0,153033.0,243630.0,291680.0,268905.0
2026-04-08 21:39:46.921810,127927,1609503559166286,1159132390,-1.079456,-0.025376,0.210816,-9.8875,0.35875,1.96,25.872002,-16.056002,4.72,eccentric,5,3.0,22378.0,153033.0,243630.0,291680.0,268905.0
2026-04-08 21:39:46.928067,127928,1609503559180776,1159147343,-1.032608,-0.10736,0.0976,-4.1825,1.51375,-0.37625,25.872002,-16.08,5.792,eccentric,5,3.0,22378.0,153033.0,243630.0,291680.0,268905.0
