pc_time,serial_num,sensor_ts,host_ts,ax,ay,az,gx,gy,gz,mx,my,mz,phase,rpe,weight_kg,ppg_a,ppg_b,ppg_c,ppg_d,ppg_e
2026-04-14 17:13:12.481117,143575,1609504286123762,1886093275,0.630496,-0.355264,-0.384544,-11.375,10.955,-19.11,-21.36,-12.136001,-16.688002,concentric,2,3.0,31011.0,170706.0,74971.0,172126.0,84623.0
2026-04-14 17:13:12.483540,143576,1609504286132723,1886101988,0.630496,-0.355264,-0.384544,-5.845,9.0125,-24.92,-21.36,-12.136001,-16.688002,concentric,2,3.0,31011.0,170706.0,74971.0,172126.0,84623.0
2026-04-14 17:13:12.485995,143577,1609504286147160,1886116840,0.7808,-0.191296,-0.201056,-8.1725,6.20375,-28.192501,-22.176,-12.544001,-15.544001,concentric,2,3.0,31011.0,170706.0,74971.0,172126.0,84623.0
2026-04-14 17:13:12.488371,143578,1609504286156092,1886125543,0.776896,-0.267424,-0.337696,-14.525,6.43125,-26.6,-21.640001,-12.952001,-13.152,concentric,2,3.0,31011.0,170706.0,74971.0,172126.0,84623.0
2026-04-14 17:13:12.491076,143579,1609504286170569,1886140466,0.776896,-0.267424,-0.337696,-21.32375,9.9225,-27.25625,-21.640001,-12.952001,-13.152,concentric,2,3.0,31011.0,170706.0,74971.0,172126.0,84623.0
2026-04-14 17:13:12.493574,143580,1609504286179461,1886149160,0.737856,-0.247904,-0.220576,-24.885,13.97375,-35.32375,-22.312,-13.744,-13.920001,concentric,2,3.0,31011.0,170706.0,74971.0,172126.0,84623.0
2026-04-14 17:13:12.496077,143581,1609504286193947,1886164033,0.737856,-0.247904,-0.220576,-23.975,16.397501,-39.445,-22.312,-13.744,-13.920001,concentric,2,3.0,31011.0,170706.0,74971.0,172126.0,84623.0
2026-04-14 17:13:12.498526,143582,1609504286202887,1886172717,0.640256,-0.325984,-0.45872,-19.85375,16.31875,-42.5075,-22.312,-14.064001,-17.136002,concentric,2,3.0,31011.0,170706.0,74971.0,172126.0,84623.0
2026-04-14 17:13:12.501116,143583,1609504286211818,1886181362,0.640256,-0.325984,-0.45872,-12.775,10.85,-45.5525,-22.312,-14.064001,-17.136002,concentric,2,3.0,31011.0,170706.0,74971.0,172126.0,84623.0
2026-04-14 17:13:12.528704,143594,1609504286226386,1886196321,0.84912,-0.310368,-0.294752,-13.83375,9.3275,-45.77125,-21.944,-14.584001,-14.920001,concentric,2,3.0,32957.0,170873.0,77923.0,172151.0,87127.0
2026-04-14 17:13:12.530649,143595,1609504286235348,1886205056,0.84912,-0.310368,-0.294752,-18.17375,9.0125,-43.4525,-21.944,-14.584001,-14.920001,concentric,2,3.0,32957.0,170873.0,77923.0,172151.0,87127.0
2026-04-14 17:13:12.533705,143596,1609504286249851,1886220038,0.833504,-0.30256,-0.07808,-8.2425,17.43,-41.64125,-21.312,-15.360001,-13.904,concentric,2,3.0,32957.0,170873.0,77923.0,172151.0,87127.0
2026-04-14 17:13:12.535822,143597,1609504286258878,1886228844,0.691008,-0.261568,-0.320128,1.12,24.6225,-53.92625,-21.352001,-15.904,-14.6,concentric,2,3.0,32957.0,170873.0,77923.0,172151.0,87127.0
2026-04-14 17:13:12.543682,143598,1609504286273352,1886241747,0.691008,-0.261568,-0.320128,7.7175,26.90625,-62.16,-21.352001,-15.904,-14.6,concentric,2,3.0,32957.0,170873.0,77923.0,172151.0,87127.0
2026-04-14 17:13:12.546253,143599,1609504286282606,1886252497,0.786656,-0.288896,-0.456768,8.77625,30.73,-60.305,-20.952002,-16.256,-14.672001,concentric,2,3.0,32957.0,170873.0,77923.0,172151.0,87127.0
2026-04-14 17:13:12.552462,143600,1609504286291525,1886261199,0.786656,-0.288896,-0.456768,8.6625,29.77625,-59.00125,-20.952002,-16.256,-14.672001,concentric,2,3.0,32957.0,170873.0,77923.0,172151.0,87127.0
2026-04-14 17:13:12.568791,143601,1609504286306004,1886276073,0.905728,-0.345504,-0.31232,-3.77125,30.397501,-58.66875,-20.616001,-17.264,-15.184001,concentric,2,3.0,32957.0,170873.0,77923.0,172151.0,87127.0
2026-04-14 17:13:12.575006,143602,1609504286314957,1886284780,0.905728,-0.345504,-0.31232,-11.2,30.96625,-53.935,-20.616001,-17.264,-15.184001,concentric,2,3.0,32957.0,170873.0,77923.0,172151.0,87127.0
2026-04-14 17:13:12.604627,143613,1609504286329843,1886300042,0.854976,-0.240096,0.005856,-7.88375,36.19,-51.14375,-19.728,-17.52,-17.480001,concentric,2,3.0,36759.0,184236.0,84499.0,185540.0,93136.0
2026-04-14 17:13:12.607064,143614,1609504286338793,1886308731,0.685152,-0.1952,0.115168,-0.56875,40.075,-55.02,-20.552,-17.776001,-13.192,concentric,2,3.0,36759.0,184236.0,84499.0,185540.0,93136.0
2026-04-14 17:13:12.610110,143615,1609504286347723,1886317422,0.685152,-0.1952,0.115168,13.230001,45.78875,-57.295002,-20.552,-17.776001,-13.192,concentric,2,3.0,36759.0,184236.0,84499.0,185540.0,93136.0
2026-04-14 17:13:12.624621,143616,1609504286362220,1886332351,0.698816,-0.259616,-0.739808,22.505,46.20875,-57.05875,-20.552,-17.880001,-13.000001,concentric,2,3.0,36759.0,184236.0,84499.0,185540.0,93136.0
2026-04-14 17:13:12.634027,143617,1609504286371127,1886341038,0.698816,-0.259616,-0.739808,25.06,43.4875,-52.61375,-20.552,-17.880001,-13.000001,concentric,2,3.0,36759.0,184236.0,84499.0,185540.0,93136.0
2026-04-14 17:13:12.646226,143618,1609504286385613,1886355941,0.854976,-0.255712,-0.021472,13.545,41.41375,-55.57125,-19.864,-18.36,-14.840001,concentric,2,3.0,36759.0,184236.0,84499.0,185540.0,93136.0
2026-04-14 17:13:12.655831,143619,1609504286394565,1886364644,0.854976,-0.255712,-0.021472,14.14,41.7025,-50.39125,-19.864,-18.36,-14.840001,concentric,2,3.0,36759.0,184236.0,84499.0,185540.0,93136.0
2026-04-14 17:13:12.668603,143620,1609504286409050,1886377449,0.661728,-0.109312,-0.189344,25.12125,44.61625,-48.13375,-18.848001,-19.224,-14.800001,concentric,2,3.0,36759.0,184236.0,84499.0,185540.0,93136.0
2026-04-14 17:13:12.678552,143621,1609504286418251,1886388261,0.628544,-0.177632,-0.480192,22.7325,45.45625,-57.35625,-18.816,-19.712002,-15.56,concentric,2,3.0,36759.0,184236.0,84499.0,185540.0,93136.0
2026-04-14 17:13:12.706028,143632,1609504286427307,1886397020,0.628544,-0.177632,-0.480192,20.09875,45.91125,-53.9525,-18.816,-19.712002,-15.56,concentric,2,3.0,46222.0,240538.0,101437.0,235959.0,111164.0
2026-04-14 17:13:12.708819,143633,1609504286441857,1886412071,0.642208,-0.0976,-0.16592,14.42875,43.33875,-51.72125,-18.824001,-19.84,-14.112,concentric,2,3.0,46222.0,240538.0,101437.0,235959.0,111164.0
2026-04-14 17:13:12.711333,143634,1609504286450787,1886420746,0.642208,-0.0976,-0.16592,19.20625,38.605,-48.02875,-18.824001,-19.84,-14.112,concentric,2,3.0,46222.0,240538.0,101437.0,235959.0,111164.0
2026-04-14 17:13:12.725949,143635,1609504286465325,1886435644,0.591456,0.017568,-0.353312,22.44375,37.58125,-48.475,-18.92,-19.784,-13.160001,concentric,2,3.0,46222.0,240538.0,101437.0,235959.0,111164.0
2026-04-14 17:13:12.734420,143636,1609504286474316,1886444349,0.591456,0.017568,-0.353312,15.04125,36.19,-48.265,-18.92,-19.784,-13.160001,concentric,2,3.0,46222.0,240538.0,101437.0,235959.0,111164.0
2026-04-14 17:13:12.748774,143637,1609504286488780,1886457187,0.523136,-0.023424,-0.08784,5.24125,36.42625,-45.71,-17.864,-20.544,-14.528001,concentric,2,3.0,46222.0,240538.0,101437.0,235959.0,111164.0
2026-04-14 17:13:12.758255,143638,1609504286498003,1886467991,0.554368,-0.105408,-0.406016,0.0525,34.895,-43.23375,-17.864,-20.544,-14.168,concentric,2,3.0,46222.0,240538.0,101437.0,235959.0,111164.0
2026-04-14 17:13:12.768759,143639,1609504286506933,1886476682,0.55632,-0.105408,-0.406016,4.69875,30.87,-48.326252,-18.128,-20.68,-14.168,concentric,2,3.0,46222.0,240538.0,101437.0,235959.0,111164.0
2026-04-14 17:13:12.838119,143650,1609504286521408,1886491553,0.657824,-0.222528,-0.206912,13.62375,26.1275,-51.12625,-17.648,-21.048,-14.68,concentric,2,3.0,59471.0,280305.0,123859.0,265090.0,136165.0
2026-04-14 17:13:12.841216,143651,1609504286530862,1886500316,0.657824,-0.222528,-0.206912,24.053751,21.91875,-40.32875,-17.648,-21.048,-14.68,concentric,2,3.0,59471.0,280305.0,123859.0,265090.0,136165.0
2026-04-14 17:13:12.843732,143652,1609504286545371,1886515233,0.685152,0.103456,0.027328,32.80375,16.94,-28.77875,-18.208,-20.688002,-12.952001,concentric,2,3.0,59471.0,280305.0,123859.0,265090.0,136165.0
2026-04-14 17:13:12.845834,143653,1609504286554289,1886523905,0.685152,0.103456,0.027328,22.6975,14.02625,-28.69125,-18.208,-20.688002,-12.952001,concentric,2,3.0,59471.0,280305.0,123859.0,265090.0,136165.0
2026-04-14 17:13:12.848714,143654,1609504286563215,1886532600,0.661728,0.091744,-0.025376,5.22375,14.49,-24.92,-18.896002,-20.552,-12.432,concentric,2,3.0,59471.0,280305.0,123859.0,265090.0,136165.0
2026-04-14 17:13:12.851200,143655,1609504286577813,1886547580,0.661728,0.091744,-0.025376,-1.1025,14.23625,-23.82625,-18.896002,-20.552,-12.432,concentric,2,3.0,59471.0,280305.0,123859.0,265090.0,136165.0
2026-04-14 17:13:12.853643,143656,1609504286586725,1886556262,0.749568,-0.134688,-0.154208,3.08875,10.45625,-25.375,-18.984001,-20.488,-14.312,concentric,2,3.0,59471.0,280305.0,123859.0,265090.0,136165.0
2026-04-14 17:13:12.866397,143657,1609504286601418,1886571188,0.81984,-0.10736,-0.355264,17.053751,3.24625,-21.385,-17.984001,-20.704,-13.632001,concentric,2,3.0,59471.0,280305.0,123859.0,265090.0,136165.0
2026-04-14 17:13:12.870887,143658,1609504286610329,1886579899,0.81984,-0.10736,-0.355264,30.415,-6.0725,-15.8025,-17.984001,-20.704,-13.632001,concentric,2,3.0,59471.0,280305.0,123859.0,265090.0,136165.0
2026-04-14 17:13:12.878856,143659,1609504286619242,1886588632,0.866688,-0.007808,-0.033184,30.77375,-12.635,-6.8075,-17.968,-20.696001,-13.104001,concentric,2,3.0,59471.0,280305.0,123859.0,265090.0,136165.0
2026-04-14 17:13:12.905914,143670,1609504286633826,1886603739,0.866688,-0.007808,-0.033184,18.3225,-13.55375,1.81125,-17.968,-20.696001,-13.104001,concentric,2,3.0,63684.0,287412.0,130922.0,270892.0,144004.0
2026-04-14 17:13:12.908466,143671,1609504286642764,1886612448,0.841312,0.005856,-0.00976,4.55,-10.99875,5.67875,-18.136002,-20.864,-13.896001,concentric,2,3.0,63684.0,287412.0,130922.0,270892.0,144004.0
2026-04-14 17:13:12.916349,143672,1609504286657279,1886627381,0.841312,0.005856,-0.00976,-1.95125,-8.4875,7.0,-18.136002,-20.864,-13.896001,concentric,2,3.0,63684.0,287412.0,130922.0,270892.0,144004.0
2026-04-14 17:13:12.927127,143673,1609504286666202,1886636106,0.864736,-0.15616,-0.435296,2.1875,-10.01,7.04375,-17.984001,-20.44,-12.200001,concentric,2,3.0,63684.0,287412.0,130922.0,270892.0,144004.0
2026-04-14 17:13:12.940795,143674,1609504286680696,1886650986,0.90768,0.0488,-0.085888,12.94125,-14.0525,7.53375,-17.08,-20.608002,-15.512001,concentric,2,3.0,63684.0,287412.0,130922.0,270892.0,144004.0
2026-04-14 17:13:12.951177,143675,1609504286689621,1886659648,0.90768,0.0488,-0.085888,20.125,-16.94,8.74125,-17.08,-20.608002,-15.512001,concentric,2,3.0,63684.0,287412.0,130922.0,270892.0,144004.0
2026-04-14 17:13:12.957025,143676,1609504286698546,1886668342,0.90768,0.0488,-0.085888,14.07,-16.345,8.61875,-17.08,-20.608002,-15.512001,concentric,2,3.0,63684.0,287412.0,130922.0,270892.0,144004.0
2026-04-14 17:13:12.972573,143677,1609504286713038,1886683212,0.9272,-0.062464,-0.265472,2.58125,-13.08125,8.26875,-17.672,-20.672,-15.944001,concentric,2,3.0,63684.0,287412.0,130922.0,270892.0,144004.0
2026-04-14 17:13:13.008339,143688,1609504286721952,1886691879,0.979904,-0.062464,-0.007808,-1.68,-9.70375,8.14625,-18.016,-20.432001,-14.232,concentric,2,3.0,65293.0,291525.0,133559.0,274626.0,146867.0
2026-04-14 17:13:13.010832,143689,1609504286736474,1886706817,0.979904,-0.062464,-0.007808,2.9575,-7.385,4.34,-18.016,-20.432001,-14.232,concentric,2,3.0,65293.0,291525.0,133559.0,274626.0,146867.0
2026-04-14 17:13:13.018618,143690,1609504286745476,1886715575,0.851072,-0.00976,-0.244,7.3325,-6.4925,2.23125,-17.096,-20.352001,-15.848001,concentric,2,3.0,65293.0,291525.0,133559.0,274626.0,146867.0
2026-04-14 17:13:13.020091,143691,1609504286760020,1886728417,0.977952,-0.109312,-0.140544,8.60125,-6.475,2.7125,-17.232,-20.256,-15.816001,concentric,2,3.0,65293.0,291525.0,133559.0,274626.0,146867.0
2026-04-14 17:13:13.046351,143692,1609504286769218,1886739206,0.977952,-0.109312,-0.140544,7.11375,-7.41125,3.8675,-17.232,-20.256,-15.816001,concentric,2,3.0,65293.0,291525.0,133559.0,274626.0,146867.0
2026-04-14 17:13:13.048790,143693,1609504286778130,1886747884,0.977952,-0.109312,-0.140544,2.94875,-9.0475,6.1425,-17.232,-20.256,-15.816001,concentric,2,3.0,65293.0,291525.0,133559.0,274626.0,146867.0
2026-04-14 17:13:13.053886,143694,1609504286792588,1886762762,0.862784,-0.035136,-0.162016,-1.225,-9.66875,8.25125,-17.528002,-20.448002,-16.352001,concentric,2,3.0,65293.0,291525.0,133559.0,274626.0,146867.0
2026-04-14 17:13:13.062553,143695,1609504286801509,1886771457,0.876448,0.01952,0.025376,-3.64875,-9.625,8.67125,-17.528002,-20.256,-17.08,concentric,2,3.0,65293.0,291525.0,133559.0,274626.0,146867.0
2026-04-14 17:13:13.073840,143696,1609504286816017,1886784384,0.876448,0.01952,0.025376,-5.8625,-9.24875,8.155,-17.528002,-20.256,-17.08,concentric,2,3.0,65293.0,291525.0,133559.0,274626.0,146867.0
2026-04-14 17:13:13.106661,143707,1609504286825805,1886795232,0.81008,-0.042944,-0.265472,-5.4425,-8.02375,6.60625,-17.728,-20.552,-15.744,concentric,2,3.0,65162.0,288347.0,133787.0,271899.0,147281.0
2026-04-14 17:13:13.108061,143708,1609504286834800,1886804046,0.81008,-0.042944,-0.265472,-3.2025,-6.195,3.22875,-17.728,-20.552,-15.744,concentric,2,3.0,65162.0,288347.0,133787.0,271899.0,147281.0
2026-04-14 17:13:13.110872,143709,1609504286849289,1886818964,0.93696,-0.074176,-0.119072,-1.1025,-5.635,0.91,-17.480001,-20.168001,-14.920001,concentric,2,3.0,65162.0,288347.0,133787.0,271899.0,147281.0
2026-04-14 17:13:13.117460,143710,1609504286858250,1886827704,0.93696,-0.074176,-0.119072,-1.42625,-4.83,0.2625,-17.480001,-20.168001,-14.920001,concentric,2,3.0,65162.0,288347.0,133787.0,271899.0,147281.0
2026-04-14 17:13:13.133686,143711,1609504286872800,1886842560,0.903776,-0.042944,-0.21472,-4.725,-3.96375,0.0175,-18.192001,-20.04,-15.656001,concentric,2,3.0,65162.0,288347.0,133787.0,271899.0,147281.0
2026-04-14 17:13:13.170145,143712,1609504286881699,1886851258,0.942816,-0.124928,-0.181536,-9.2225,-1.89,-1.2775,-18.264,-20.448002,-12.576,concentric,2,3.0,65162.0,288347.0,133787.0,271899.0,147281.0
2026-04-14 17:13:13.194734,143713,1609504286896227,1886866145,0.942816,-0.124928,-0.181536,-10.84125,-1.365,-1.2775,-18.264,-20.448002,-12.576,concentric,2,3.0,65162.0,288347.0,133787.0,271899.0,147281.0
2026-04-14 17:13:13.197096,143714,1609504286905150,1886874832,0.89792,-0.083936,-0.228384,-7.62125,-2.485,-1.435,-17.528002,-20.584002,-15.776001,concentric,2,3.0,65162.0,288347.0,133787.0,271899.0,147281.0
2026-04-14 17:13:13.204312,143715,1609504286914074,1886883518,0.89792,-0.083936,-0.228384,-3.61375,-4.865,-2.56375,-17.528002,-20.584002,-15.776001,concentric,2,3.0,65162.0,288347.0,133787.0,271899.0,147281.0
2026-04-14 17:13:13.227421,143726,1609504286928660,1886898436,0.952576,-0.0488,-0.052704,-2.66875,-5.13625,-2.16125,-17.320002,-20.416,-15.928,concentric,2,3.0,61419.0,278895.0,128643.0,264571.0,142042.0
2026-04-14 17:13:13.230175,143727,1609504286937616,1886907155,0.952576,-0.0488,-0.052704,-5.2325,-4.17375,-1.28625,-17.320002,-20.416,-15.928,concentric,2,3.0,61419.0,278895.0,128643.0,264571.0,142042.0
2026-04-14 17:13:13.232522,143728,1609504286952120,1886922094,0.919392,-0.02928,-0.119072,-8.4525,-2.21375,-2.61625,-17.52,-20.384,-15.592001,concentric,2,3.0,61419.0,278895.0,128643.0,264571.0,142042.0
2026-04-14 17:13:13.234516,143729,1609504286961067,1886930789,0.91744,-0.1464,-0.296704,-11.68125,0.30625,-4.61125,-17.52,-22.432001,-13.56,concentric,2,3.0,61419.0,278895.0,128643.0,264571.0,142042.0
2026-04-14 17:13:13.237373,143730,1609504286975533,1886945717,0.91744,-0.1464,-0.296704,-12.9325,1.75875,-5.27625,-17.352001,-20.536001,-13.56,concentric,2,3.0,61419.0,278895.0,128643.0,264571.0,142042.0
2026-04-14 17:13:13.243456,143731,1609504286984458,1886954457,0.860832,-0.085888,-0.343552,-9.96625,1.855,-5.34625,-17.480001,-20.736,-15.480001,concentric,2,3.0,61419.0,278895.0,128643.0,264571.0,142042.0
2026-04-14 17:13:13.253321,143732,1609504286993401,1886963119,0.860832,-0.085888,-0.343552,-4.59375,1.365,-5.775,-17.480001,-20.736,-15.480001,concentric,2,3.0,61419.0,278895.0,128643.0,264571.0,142042.0
2026-04-14 17:13:13.270910,143733,1609504287007875,1886978016,0.929152,-0.119072,-0.306464,-4.29625,0.41125,-6.5275,-18.232,-20.224,-14.568001,concentric,2,3.0,61419.0,278895.0,128643.0,264571.0,142042.0
2026-04-14 17:13:13.277606,143734,1609504287016792,1886986746,0.929152,-0.119072,-0.306464,-6.83375,1.015,-4.45375,-18.232,-20.224,-14.568001,concentric,2,3.0,61419.0,278895.0,128643.0,264571.0,142042.0
2026-04-14 17:13:13.308358,143745,1609504287031342,1886999761,0.831552,-0.02928,-0.265472,-9.0125,1.60125,-2.87,-17.328001,-20.728,-15.344001,concentric,2,3.0,58772.0,270787.0,124941.0,258648.0,138212.0
2026-04-14 17:13:13.311212,143746,1609504287040614,1887010605,0.831552,-0.02928,-0.265472,-10.59625,2.24,-4.13,-17.328001,-20.728,-15.344001,concentric,2,3.0,58772.0,270787.0,124941.0,258648.0,138212.0
2026-04-14 17:13:13.313737,143747,1609504287049538,1887019331,0.915488,-0.093696,-0.113216,-12.0575,2.87,-3.465,-18.224,-20.496,-14.648001,concentric,2,3.0,58772.0,270787.0,124941.0,258648.0,138212.0
2026-04-14 17:13:13.326254,143748,1609504287064129,1887034278,0.843264,-0.093696,-0.296704,-10.54375,2.54625,-2.09125,-18.2,-20.584002,-15.528001,concentric,2,3.0,58772.0,270787.0,124941.0,258648.0,138212.0
2026-04-14 17:13:13.332210,143749,1609504287073058,1887042964,0.843264,-0.093696,-0.296704,-7.07,1.085,-2.0825,-18.2,-20.584002,-15.528001,concentric,2,3.0,58772.0,270787.0,124941.0,258648.0,138212.0
2026-04-14 17:13:13.348867,143750,1609504287087556,1887057829,0.825696,-0.035136,-0.187392,-4.08625,0.035,-1.16375,-17.408,-20.768002,-15.6,concentric,2,3.0,58772.0,270787.0,124941.0,258648.0,138212.0
2026-04-14 17:13:13.356356,143751,1609504287096518,1887066528,0.825696,-0.035136,-0.187392,-5.2675,-0.44625,1.12,-17.408,-20.768002,-15.6,concentric,2,3.0,58772.0,270787.0,124941.0,258648.0,138212.0
2026-04-14 17:13:13.373831,143752,1609504287111007,1887079367,0.895968,-0.062464,-0.160064,-7.53375,-0.9625,3.10625,-17.456001,-20.712002,-15.376,concentric,2,3.0,58772.0,270787.0,124941.0,258648.0,138212.0
2026-04-14 17:13:13.381765,143753,1609504287120154,1887090143,0.895968,-0.062464,-0.160064,-9.065,-1.7325,4.27,-17.456001,-20.712002,-15.376,concentric,2,3.0,58772.0,270787.0,124941.0,258648.0,138212.0
2026-04-14 17:13:13.409697,143764,1609504287129269,1887098950,0.847168,-0.091744,-0.318176,-9.905,-2.98375,5.3375,-17.848001,-20.616001,-15.312,concentric,2,3.0,56175.0,264092.0,120876.0,253419.0,133879.0
2026-04-14 17:13:13.412478,143765,1609504287143801,1887113908,0.882304,-0.111264,-0.17568,-9.30125,-4.445,6.09,-18.896002,-20.192001,-13.512001,concentric,2,3.0,56175.0,264092.0,120876.0,253419.0,133879.0
2026-04-14 17:13:13.415075,143766,1609504287152741,1887122591,0.882304,-0.111264,-0.17568,-8.61,-6.125,7.02625,-18.896002,-20.192001,-13.512001,concentric,2,3.0,56175.0,264092.0,120876.0,253419.0,133879.0
2026-04-14 17:13:13.430116,143767,1609504287167267,1887137485,0.876448,-0.101504,-0.130784,-6.195,-7.98,8.0675,-19.256,-19.936,-14.496,concentric,2,3.0,56175.0,264092.0,120876.0,253419.0,133879.0
2026-04-14 17:13:13.436348,143768,1609504287176188,1887146210,0.876448,-0.101504,-0.130784,-3.395,-8.9775,9.135,-19.256,-19.936,-14.496,concentric,2,3.0,56175.0,264092.0,120876.0,253419.0,133879.0
2026-04-14 17:13:13.448838,143769,1609504287190654,1887159051,0.874496,-0.101504,-0.105408,-4.0075,-10.10625,11.5325,-17.672,-20.448002,-15.584001,concentric,2,3.0,56175.0,264092.0,120876.0,253419.0,133879.0
2026-04-14 17:13:13.460137,143770,1609504287199829,1887169791,0.874496,-0.101504,-0.105408,-4.7425,-10.85875,14.2625,-17.672,-20.448002,-15.584001,concentric,2,3.0,56175.0,264092.0,120876.0,253419.0,133879.0
2026-04-14 17:13:13.468882,143771,1609504287208767,1887178460,0.776896,-0.042944,-0.124928,-4.90875,-10.7625,15.46125,-17.688002,-20.480001,-15.128,concentric,2,3.0,56175.0,264092.0,120876.0,253419.0,133879.0
2026-04-14 17:13:13.484793,143772,1609504287223254,1887193268,0.786656,-0.122976,-0.284992,-4.655,-10.19375,13.440001,-17.656,-20.008001,-14.704,concentric,2,3.0,56175.0,264092.0,120876.0,253419.0,133879.0
2026-04-14 17:13:13.556547,143783,1609504287232272,1887201977,0.786656,-0.122976,-0.284992,-4.55,-9.975,11.76,-17.656,-20.008001,-14.704,concentric,2,3.0,50702.0,248510.0,112068.0,241415.0,124164.0
2026-04-14 17:13:13.561403,143784,1609504287246807,1887216970,0.749568,-0.11712,-0.021472,-5.03125,-10.71,12.775,-19.0,-19.584002,-14.784,concentric,2,3.0,50702.0,248510.0,112068.0,241415.0,124164.0
2026-04-14 17:13:13.563941,143785,1609504287255726,1887225671,0.749568,-0.11712,-0.021472,-2.47625,-12.8975,14.245,-19.0,-19.584002,-14.784,concentric,2,3.0,50702.0,248510.0,112068.0,241415.0,124164.0
2026-04-14 17:13:13.569255,143786,1609504287264655,1887234345,0.730048,-0.152256,-0.564128,3.75375,-17.17625,14.63,-18.856,-19.376001,-15.224001,concentric,2,3.0,50702.0,248510.0,112068.0,241415.0,124164.0
2026-04-14 17:13:13.569655,143787,1609504287279137,1887249225,0.730048,-0.152256,-0.564128,10.0975,-22.4175,14.58625,-18.856,-19.376001,-15.224001,concentric,2,3.0,50702.0,248510.0,112068.0,241415.0,124164.0
2026-04-14 17:13:13.570792,143788,1609504287288095,1887257899,0.854976,-0.11712,-0.247904,6.60625,-25.45375,18.03375,-18.808,-19.576,-14.936001,concentric,2,3.0,50702.0,248510.0,112068.0,241415.0,124164.0
2026-04-14 17:13:13.573916,143789,1609504287302557,1887272762,0.854976,-0.11712,-0.247904,-2.835,-23.8875,26.3025,-18.808,-19.576,-14.936001,concentric,2,3.0,50702.0,248510.0,112068.0,241415.0,124164.0
2026-04-14 17:13:13.575745,143790,1609504287311505,1887281468,0.689056,-0.031232,-0.056608,-7.035,-21.60375,23.9575,-18.976002,-19.168001,-14.568001,concentric,2,3.0,50702.0,248510.0,112068.0,241415.0,124164.0
2026-04-14 17:13:13.585057,143791,1609504287326005,1887294390,0.636352,-0.16592,-0.310368,-7.65625,-21.76125,15.0675,-19.336,-18.640001,-14.080001,concentric,2,3.0,50702.0,248510.0,112068.0,241415.0,124164.0
2026-04-14 17:13:13.612596,143802,1609504287335837,1887305259,0.636352,-0.16592,-0.310368,-6.79875,-21.55125,15.7675,-19.336,-18.640001,-14.080001,concentric,2,3.0,43105.0,219740.0,98453.0,218225.0,108629.0
2026-04-14 17:13:13.614789,143803,1609504287344839,1887314034,0.62464,-0.189344,-0.460672,-4.15625,-21.7525,21.1575,-18.256,-19.048,-15.688001,concentric,2,3.0,43105.0,219740.0,98453.0,218225.0,108629.0
2026-04-14 17:13:13.620129,143804,1609504287359348,1887328916,0.62464,-0.189344,-0.460672,1.02375,-26.22375,21.32375,-18.256,-19.048,-15.688001,concentric,2,3.0,43105.0,219740.0,98453.0,218225.0,108629.0
2026-04-14 17:13:13.627564,143805,1609504287368369,1887337647,0.69296,-0.10736,-0.187392,0.735,-29.7325,22.54,-18.192001,-18.696001,-16.176,concentric,2,3.0,43105.0,219740.0,98453.0,218225.0,108629.0
2026-04-14 17:13:13.643796,143806,1609504287382809,1887352584,0.69296,-0.10736,-0.187392,-0.7525,-31.0625,28.428751,-18.192001,-18.696001,-16.176,concentric,2,3.0,43105.0,219740.0,98453.0,218225.0,108629.0
2026-04-14 17:13:13.651358,143807,1609504287391726,1887361257,0.706624,-0.017568,-0.066368,2.44125,-31.465,29.54875,-18.52,-18.152,-16.456001,concentric,2,3.0,43105.0,219740.0,98453.0,218225.0,108629.0
2026-04-14 17:13:13.683419,143808,1609504287400653,1887369927,0.706624,-0.017568,-0.066368,2.5025,-32.06,24.2025,-18.52,-18.152,-16.456001,concentric,2,3.0,43105.0,219740.0,98453.0,218225.0,108629.0
2026-04-14 17:13:13.698561,143809,1609504287415142,1887384888,0.667584,-0.1464,-0.244,-7.74375,-34.0375,21.315,-18.152,-17.952002,-15.736001,concentric,2,3.0,43105.0,219740.0,98453.0,218225.0,108629.0
2026-04-14 17:13:13.701076,143810,1609504287424042,1887393570,0.710528,-0.212768,-0.427488,-20.545,-36.225,22.4175,-18.152,-17.952002,-15.144001,concentric,2,3.0,43105.0,219740.0,98453.0,218225.0,108629.0
2026-04-14 17:13:13.728550,143821,1609504287438609,1887408541,0.710528,-0.212768,-0.427488,-23.73,-35.91,25.865,-19.112001,-17.792002,-15.144001,concentric,2,3.0,38362.0,193877.0,89294.0,194773.0,99140.0
2026-04-14 17:13:13.731119,143822,1609504287447534,1887417257,0.776896,-0.158112,-0.343552,-27.8425,-35.69125,19.74,-19.152,-17.52,-17.008001,concentric,2,3.0,38362.0,193877.0,89294.0,194773.0,99140.0
2026-04-14 17:13:13.733589,143823,1609504287462062,1887432164,0.776896,-0.158112,-0.343552,-26.66125,-35.62125,20.29125,-19.152,-17.52,-17.008001,concentric,2,3.0,38362.0,193877.0,89294.0,194773.0,99140.0
2026-04-14 17:13:13.736136,143824,1609504287470972,1887440834,0.720288,-0.119072,-0.128832,-20.09875,-30.03875,23.5725,-18.528002,-17.552,-16.744001,concentric,2,3.0,38362.0,193877.0,89294.0,194773.0,99140.0
2026-04-14 17:13:13.739887,143825,1609504287479962,1887449578,0.720288,-0.119072,-0.128832,-14.3325,-23.9925,16.6075,-18.528002,-17.552,-16.744001,concentric,2,3.0,38362.0,193877.0,89294.0,194773.0,99140.0
2026-04-14 17:13:13.756134,143826,1609504287494522,1887464471,0.706624,-0.316224,-0.275232,-6.85125,-22.89,15.6625,-18.76,-17.008001,-16.560001,concentric,2,3.0,38362.0,193877.0,89294.0,194773.0,99140.0
2026-04-14 17:13:13.763562,143827,1609504287503426,1887473158,0.706624,-0.316224,-0.275232,-1.1725,-24.272501,21.81375,-18.76,-17.008001,-16.560001,concentric,2,3.0,38362.0,193877.0,89294.0,194773.0,99140.0
2026-04-14 17:13:13.778393,143828,1609504287517924,1887488063,0.689056,-0.271328,-0.484096,4.85625,-30.24,33.87125,-18.448,-16.928001,-17.064001,concentric,2,3.0,38362.0,193877.0,89294.0,194773.0,99140.0
2026-04-14 17:13:13.813491,143839,1609504287526826,1887496710,0.851072,-0.228384,-0.154208,0.63875,-30.5725,36.98625,-18.728,-16.696001,-17.096,concentric,2,3.0,37992.0,189919.0,88505.0,191115.0,98925.0
2026-04-14 17:13:13.816115,143840,1609504287541394,1887511632,0.851072,-0.228384,-0.154208,-3.22,-26.66125,27.3875,-18.728,-16.696001,-17.096,concentric,2,3.0,37992.0,189919.0,88505.0,191115.0,98925.0
2026-04-14 17:13:13.818528,143841,1609504287550280,1887520311,0.747616,-0.242048,-0.300608,0.49875,-21.9975,25.83,-18.944,-16.048,-16.968,concentric,2,3.0,37992.0,189919.0,88505.0,191115.0,98925.0
2026-04-14 17:13:13.821013,143842,1609504287559280,1887528997,0.747616,-0.242048,-0.300608,-0.3675,-14.8575,22.63625,-18.944,-16.048,-16.968,concentric,2,3.0,37992.0,189919.0,88505.0,191115.0,98925.0
2026-04-14 17:13:13.833543,143843,1609504287573780,1887543902,0.698816,-0.163968,-0.271328,-3.2725,-15.53125,23.0825,-18.792002,-15.712001,-17.400002,concentric,2,3.0,37992.0,189919.0,88505.0,191115.0,98925.0
2026-04-14 17:13:13.843586,143844,1609504287582747,1887552580,0.698816,-0.163968,-0.271328,-8.7675,-12.87125,26.71375,-18.792002,-15.712001,-17.400002,concentric,2,3.0,37992.0,189919.0,88505.0,191115.0,98925.0
2026-04-14 17:13:13.857272,143845,1609504287597218,1887567444,0.726144,-0.130784,-0.357216,-15.11125,-18.62,26.241251,-19.096,-15.208001,-16.76,concentric,2,3.0,37992.0,189919.0,88505.0,191115.0,98925.0
2026-04-14 17:13:13.865987,143846,1609504287606161,1887576120,0.827648,-0.261568,-0.199104,-27.116251,-17.045,22.0325,-19.560001,-14.856001,-16.376001,concentric,2,3.0,37992.0,189919.0,88505.0,191115.0,98925.0
2026-04-14 17:13:13.897063,143847,1609504287620665,1887591009,0.827648,-0.261568,-0.199104,-30.6425,-21.875,20.69375,-19.560001,-14.856001,-16.376001,concentric,2,3.0,37992.0,189919.0,88505.0,191115.0,98925.0
2026-04-14 17:13:13.947584,143858,1609504287629623,1887599807,0.808128,-0.286944,-0.218624,-29.14625,-14.4025,25.5325,-19.960001,-14.360001,-16.656,concentric,2,3.0,35261.0,179783.0,83820.0,180800.0,94469.0
2026-04-14 17:13:13.950082,143859,1609504287638609,1887608521,0.808128,-0.286944,-0.218624,-27.57125,-5.915,23.72125,-19.960001,-14.360001,-16.656,concentric,2,3.0,35261.0,179783.0,83820.0,180800.0,94469.0
2026-04-14 17:13:13.952581,143860,1609504287653106,1887621455,0.69296,-0.277184,-0.15616,-14.56,-2.61625,24.815,-19.288,-14.352,-17.096,concentric,2,3.0,35261.0,179783.0,83820.0,180800.0,94469.0
2026-04-14 17:13:13.956788,143861,1609504287662232,1887632232,0.69296,-0.277184,-0.15616,-1.785,5.6,25.445,-19.288,-14.352,-17.096,concentric,2,3.0,35261.0,179783.0,83820.0,180800.0,94469.0
2026-04-14 17:13:13.957283,143862,1609504287676741,1887645093,0.737856,-0.216672,-0.474336,9.68625,4.03375,19.88,-19.424002,-13.576,-16.704,concentric,2,3.0,35261.0,179783.0,83820.0,180800.0,94469.0
2026-04-14 17:13:13.959552,143863,1609504287686060,1887655884,0.911584,-0.154208,-0.4392,9.54625,-0.18375,18.55875,-19.616001,-13.968,-16.904001,concentric,2,3.0,35261.0,179783.0,83820.0,180800.0,94469.0
2026-04-14 17:13:13.965018,143864,1609504287694974,1887664573,0.911584,-0.154208,-0.4392,-5.1275,1.28625,19.6,-19.616001,-13.968,-16.904001,concentric,2,3.0,35261.0,179783.0,83820.0,180800.0,94469.0
2026-04-14 17:13:13.968324,143865,1609504287709490,1887679507,0.905728,-0.33184,-0.199104,-20.51,9.77375,15.25125,-19.984001,-13.320001,-16.256,concentric,2,3.0,35261.0,179783.0,83820.0,180800.0,94469.0
2026-04-14 17:13:13.979948,143866,1609504287718502,1887688186,0.905728,-0.33184,-0.199104,-26.2325,19.53875,12.53875,-19.984001,-13.320001,-16.256,concentric,2,3.0,35261.0,179783.0,83820.0,180800.0,94469.0
2026-04-14 17:13:14.015055,143877,1609504287733191,1887703141,0.733952,-0.339648,-0.220576,-17.605,26.55625,12.80125,-20.016,-13.232,-14.6,concentric,2,3.0,34690.0,176404.0,82873.0,177531.0,93430.0
2026-04-14 17:13:14.017316,143878,1609504287742140,1887711957,0.733952,-0.339648,-0.220576,-3.77125,29.2075,13.46625,-20.016,-13.232,-14.6,concentric,2,3.0,34690.0,176404.0,82873.0,177531.0,93430.0
2026-04-14 17:13:14.022825,143879,1609504287756672,1887726856,0.866688,-0.236192,-0.245952,8.18125,28.69125,16.23125,-20.704,-12.216001,-16.184,eccentric,2,3.0,34690.0,176404.0,82873.0,177531.0,93430.0
2026-04-14 17:13:14.026960,143880,1609504287765594,1887735570,0.866688,-0.236192,-0.245952,16.065,28.866251,21.58625,-20.704,-12.216001,-16.184,eccentric,2,3.0,34690.0,176404.0,82873.0,177531.0,93430.0
2026-04-14 17:13:14.039669,143881,1609504287774499,1887744254,0.968192,-0.18544,-0.179584,15.67125,30.66875,22.155,-20.528002,-11.872001,-16.912,eccentric,2,3.0,34690.0,176404.0,82873.0,177531.0,93430.0
2026-04-14 17:13:14.048614,143882,1609504287789106,1887759171,0.931104,-0.089792,-0.329888,5.6175,31.85875,11.445,-20.76,-11.144,-15.008,eccentric,2,3.0,34690.0,176404.0,82873.0,177531.0,93430.0
2026-04-14 17:13:14.058369,143883,1609504287798047,1887767874,0.931104,-0.089792,-0.329888,-3.1675,37.52875,2.33625,-20.76,-11.144,-15.008,eccentric,2,3.0,34690.0,176404.0,82873.0,177531.0,93430.0
2026-04-14 17:13:14.074557,143884,1609504287812538,1887782762,0.962336,-0.228384,-0.138592,-12.8975,43.75875,-2.00375,-21.912,-11.016001,-15.000001,eccentric,2,3.0,34690.0,176404.0,82873.0,177531.0,93430.0
2026-04-14 17:13:14.082256,143885,1609504287821469,1887791438,0.962336,-0.228384,-0.138592,-19.74875,47.17125,-3.6925,-21.912,-11.016001,-15.000001,eccentric,2,3.0,34690.0,176404.0,82873.0,177531.0,93430.0
2026-04-14 17:13:14.117361,143896,1609504287836037,1887804432,0.974048,-0.365024,-0.169824,-18.7425,46.235,-3.98125,-21.320002,-10.864,-15.240001,eccentric,2,3.0,32508.0,171898.0,79054.0,173259.0,89304.0
2026-04-14 17:13:14.119728,143897,1609504287845240,1887815198,0.974048,-0.365024,-0.169824,-11.55875,42.6825,-4.82125,-21.320002,-10.864,-15.240001,eccentric,2,3.0,32508.0,171898.0,79054.0,173259.0,89304.0
2026-04-14 17:13:14.122086,143898,1609504287854221,1887823884,1.106784,-0.23424,-0.245952,-1.82,44.8,-4.83875,-22.344002,-10.328,-13.864,eccentric,2,3.0,32508.0,171898.0,79054.0,173259.0,89304.0
2026-04-14 17:13:14.130572,143899,1609504287868708,1887838805,1.16144,-0.150304,-0.189344,3.85,45.1325,-11.1475,-22.792002,-10.096001,-12.824,eccentric,2,3.0,32508.0,171898.0,79054.0,173259.0,89304.0
2026-04-14 17:13:14.140165,143900,1609504287877626,1887847549,1.16144,-0.150304,-0.189344,3.19375,49.9275,-15.9775,-22.792002,-10.096001,-12.824,eccentric,2,3.0,32508.0,171898.0,79054.0,173259.0,89304.0
2026-04-14 17:13:14.152163,143901,1609504287892127,1887862425,1.030656,-0.290848,-0.349408,3.61375,57.40875,-16.345,-23.248001,-9.544001,-12.52,eccentric,2,3.0,32508.0,171898.0,79054.0,173259.0,89304.0
2026-04-14 17:13:14.161026,143902,1609504287901070,1887871104,1.030656,-0.290848,-0.349408,11.41,60.0075,-22.4175,-23.248001,-9.544001,-12.52,eccentric,2,3.0,32508.0,171898.0,79054.0,173259.0,89304.0
2026-04-14 17:13:14.170830,143903,1609504287910002,1887879792,1.046272,-0.197152,-0.003904,17.29875,56.420002,-32.06875,-23.064001,-9.352,-14.384001,eccentric,2,3.0,32508.0,171898.0,79054.0,173259.0,89304.0
2026-04-14 17:13:14.187235,143904,1609504287924470,1887894640,1.046272,-0.197152,-0.003904,16.7825,53.82125,-34.25625,-23.064001,-9.352,-14.384001,eccentric,2,3.0,32508.0,171898.0,79054.0,173259.0,89304.0
2026-04-14 17:13:14.219699,143915,1609504287933606,1887903427,1.167296,-0.290848,-0.08784,16.2575,53.0425,-33.34625,-22.424002,-9.752001,-14.184001,eccentric,2,3.0,33681.0,172661.0,80249.0,174042.0,89923.0
2026-04-14 17:13:14.221963,143916,1609504287948247,1887918313,1.13216,-0.255712,-0.113216,20.9475,52.6925,-34.3525,-23.656002,-9.336,-12.544001,eccentric,2,3.0,33681.0,172661.0,80249.0,174042.0,89923.0
2026-04-14 17:13:14.224799,143917,1609504287957169,1887927045,1.13216,-0.255712,-0.113216,25.06875,53.24375,-38.395,-23.656002,-9.336,-12.544001,eccentric,2,3.0,33681.0,172661.0,80249.0,174042.0,89923.0
2026-04-14 17:13:14.231048,143918,1609504287971686,1887941862,1.139968,-0.249856,-0.189344,25.20875,53.31375,-42.5425,-23.736002,-9.192,-12.928,eccentric,2,3.0,33681.0,172661.0,80249.0,174042.0,89923.0
2026-04-14 17:13:14.242090,143919,1609504287980637,1887950558,1.139968,-0.249856,-0.189344,23.695,53.1125,-44.14375,-23.736002,-9.192,-12.928,eccentric,2,3.0,33681.0,172661.0,80249.0,174042.0,89923.0
2026-04-14 17:13:14.264828,143920,1609504287989569,1887959239,1.294176,-0.353312,-0.070272,20.2125,52.91125,-42.91,-23.480001,-9.024,-13.464001,eccentric,2,3.0,33681.0,172661.0,80249.0,174042.0,89923.0
2026-04-14 17:13:14.287475,143921,1609504288004063,1887974119,1.294176,-0.353312,-0.070272,18.0075,53.305,-40.69625,-23.480001,-9.024,-13.464001,eccentric,2,3.0,33681.0,172661.0,80249.0,174042.0,89923.0
2026-04-14 17:13:14.290111,143922,1609504288013034,1887982791,1.296128,-0.38064,-0.122976,16.9925,55.08125,-42.28,-23.624,-9.032001,-13.656001,eccentric,2,3.0,33681.0,172661.0,80249.0,174042.0,89923.0
2026-04-14 17:13:14.292603,143923,1609504288027517,1887997710,1.296128,-0.38064,-0.099552,20.09875,55.18625,-45.701252,-23.624,-9.032001,-13.656001,eccentric,2,3.0,33681.0,172661.0,80249.0,174042.0,89923.0
2026-04-14 17:13:14.347464,143934,1609504288036520,1888006457,1.237568,-0.306464,-0.099552,19.34625,55.25625,-44.68625,-23.072,-9.296001,-14.656001,eccentric,2,3.0,36056.0,183127.0,84179.0,184674.0,93791.0
2026-04-14 17:13:14.349978,143935,1609504288051026,1888021357,1.399584,-0.44896,-0.1952,17.57875,49.39375,-42.30625,-23.208,-9.52,-13.208,eccentric,2,3.0,36056.0,183127.0,84179.0,184674.0,93791.0
2026-04-14 17:13:14.352481,143936,1609504288059950,1888030066,1.399584,-0.44896,-0.1952,15.14625,46.06,-33.71375,-23.208,-9.52,-13.208,eccentric,2,3.0,36056.0,183127.0,84179.0,184674.0,93791.0
2026-04-14 17:13:14.354569,143937,1609504288068881,1888038756,1.257088,-0.296704,-0.203008,23.47625,41.7025,-27.79875,-23.152,-8.856,-13.096001,eccentric,2,3.0,36056.0,183127.0,84179.0,184674.0,93791.0
2026-04-14 17:13:14.357463,143938,1609504288083402,1888053625,1.257088,-0.296704,-0.203008,31.61375,36.88125,-24.5,-23.152,-8.856,-13.096001,eccentric,2,3.0,36056.0,183127.0,84179.0,184674.0,93791.0
2026-04-14 17:13:14.359551,143939,1609504288092382,1888062302,1.262944,-0.1952,-0.013664,32.48875,32.83,-19.2325,-22.968,-9.152,-12.792001,eccentric,2,3.0,36056.0,183127.0,84179.0,184674.0,93791.0
2026-04-14 17:13:14.367616,143940,1609504288106878,1888077225,1.262944,-0.1952,-0.013664,26.7225,28.7525,-12.9325,-22.968,-9.152,-12.792001,eccentric,2,3.0,36056.0,183127.0,84179.0,184674.0,93791.0
2026-04-14 17:13:14.376281,143941,1609504288115798,1888085914,1.118496,-0.232288,-0.060512,18.57625,23.58125,-8.28625,-22.992,-9.432,-14.816001,eccentric,2,3.0,36056.0,183127.0,84179.0,184674.0,93791.0
2026-04-14 17:13:14.388801,143942,1609504288130289,1888098751,1.159488,-0.240096,-0.01952,12.46,18.795,-5.95875,-22.952002,-9.288,-11.080001,eccentric,2,3.0,36056.0,183127.0,84179.0,184674.0,93791.0
2026-04-14 17:13:14.415999,143953,1609504288140017,1888109594,1.159488,-0.240096,-0.01952,10.9025,13.8075,-2.8875,-22.952002,-9.288,-11.080001,eccentric,2,3.0,48699.0,224890.0,106861.0,224310.0,119087.0
2026-04-14 17:13:14.424464,143954,1609504288148951,1888118305,1.020896,-0.144448,0.03904,10.8675,10.73625,-0.39375,-22.952002,-8.8,-11.688001,eccentric,2,3.0,48699.0,224890.0,106861.0,224310.0,119087.0
2026-04-14 17:13:14.425891,143955,1609504288163543,1888133269,1.020896,-0.144448,0.03904,14.58625,6.50125,0.74375,-24.168001,-8.8,-11.688001,eccentric,2,3.0,48699.0,224890.0,106861.0,224310.0,119087.0
2026-04-14 17:13:14.431758,143956,1609504288172517,1888141953,0.882304,-0.056608,0.064416,15.09375,4.13,3.36,-23.752,-8.64,-11.216001,eccentric,2,3.0,48699.0,224890.0,106861.0,224310.0,119087.0
2026-04-14 17:13:14.441257,143957,1609504288181443,1888150640,0.882304,-0.056608,0.064416,13.4925,2.4325,4.8125,-23.752,-8.64,-11.216001,eccentric,2,3.0,48699.0,224890.0,106861.0,224310.0,119087.0
2026-04-14 17:13:14.457578,143958,1609504288195945,1888165514,0.899872,-0.105408,0.06832,11.62875,0.37625,2.14375,-23.984001,-8.936001,-11.776001,eccentric,2,3.0,48699.0,224890.0,106861.0,224310.0,119087.0
2026-04-14 17:13:14.465066,143959,1609504288204860,1888174178,0.899872,-0.105408,0.06832,9.44125,-2.17875,-1.11125,-23.984001,-8.936001,-11.776001,eccentric,2,3.0,48699.0,224890.0,106861.0,224310.0,119087.0
2026-04-14 17:13:14.480079,143960,1609504288219341,1888189123,0.864736,-0.056608,-0.062464,7.3675,-3.8325,3.35125,-22.808,-9.128,-12.688001,eccentric,2,3.0,48699.0,224890.0,106861.0,224310.0,119087.0
2026-04-14 17:13:14.487429,143961,1609504288228265,1888197797,0.864736,-0.056608,-0.062464,3.84125,-5.76625,3.47375,-22.808,-9.128,-12.688001,eccentric,2,3.0,48699.0,224890.0,106861.0,224310.0,119087.0
2026-04-14 17:13:14.518435,143972,1609504288243018,1888212741,0.940864,-0.140544,-0.056608,-0.76125,-8.155,3.57,-23.024,-8.864,-11.448001,eccentric,2,3.0,52735.0,238174.0,114051.0,235997.0,126835.0
2026-04-14 17:13:14.519493,143973,1609504288252032,1888221478,0.979904,-0.1464,0.040992,-4.27875,-9.31875,9.0475,-23.960001,-8.480001,-11.480001,eccentric,2,3.0,52735.0,238174.0,114051.0,235997.0,126835.0
2026-04-14 17:13:14.524494,143974,1609504288260958,1888230207,0.979904,-0.1464,0.040992,-4.33125,-10.63125,11.1475,-23.960001,-8.480001,-11.480001,eccentric,2,3.0,52735.0,238174.0,114051.0,235997.0,126835.0
2026-04-14 17:13:14.537194,143975,1609504288275412,1888245151,0.913536,-0.083936,0.119072,-2.70375,-11.655,11.025,-23.744001,-8.352,-10.64,eccentric,2,3.0,52735.0,238174.0,114051.0,235997.0,126835.0
2026-04-14 17:13:14.543331,143976,1609504288284313,1888253831,0.913536,-0.083936,0.119072,-2.38,-12.34625,12.08375,-23.744001,-8.352,-10.64,eccentric,2,3.0,52735.0,238174.0,114051.0,235997.0,126835.0
2026-04-14 17:13:14.559852,143977,1609504288298779,1888268712,0.940864,-0.1464,-0.085888,-2.03875,-12.83625,13.69375,-23.632002,-8.672001,-12.552001,eccentric,2,3.0,52735.0,238174.0,114051.0,235997.0,126835.0
2026-04-14 17:13:14.567187,143978,1609504288307689,1888277393,0.940864,-0.1464,-0.085888,-2.05625,-14.7175,15.015,-23.632002,-8.672001,-12.552001,eccentric,2,3.0,52735.0,238174.0,114051.0,235997.0,126835.0
2026-04-14 17:13:14.582180,143979,1609504288322224,1888292286,1.124352,-0.193248,0.064416,-3.6925,-18.165,16.5025,-23.328001,-9.04,-13.216001,eccentric,2,3.0,52735.0,238174.0,114051.0,235997.0,126835.0
2026-04-14 17:13:14.661092,143990,1609504288331102,1888300906,1.061888,-0.244,-0.132736,-7.93625,-21.04375,21.13125,-24.272001,-8.552,-12.184001,eccentric,2,3.0,47332.0,211048.0,105127.0,212524.0,116763.0
2026-04-14 17:13:14.670922,143991,1609504288340139,1888309793,1.061888,-0.244,-0.132736,-10.7275,-24.5875,21.28,-24.272001,-8.552,-12.184001,eccentric,2,3.0,47332.0,211048.0,105127.0,212524.0,116763.0
2026-04-14 17:13:14.673354,143992,1609504288354742,1888324736,1.069696,-0.257664,-0.1464,-14.595,-27.055,25.73375,-23.12,-8.792001,-13.344001,eccentric,2,3.0,47332.0,211048.0,105127.0,212524.0,116763.0
2026-04-14 17:13:14.676050,143993,1609504288363670,1888333408,1.069696,-0.257664,-0.1464,-18.7425,-29.8025,25.2,-23.12,-8.792001,-13.344001,eccentric,2,3.0,47332.0,211048.0,105127.0,212524.0,116763.0
2026-04-14 17:13:14.678532,143994,1609504288378190,1888348263,1.186816,-0.310368,0.007808,-20.67625,-32.15625,28.02625,-22.920002,-8.52,-12.64,eccentric,2,3.0,47332.0,211048.0,105127.0,212524.0,116763.0
2026-04-14 17:13:14.681105,143995,1609504288387074,1888356929,1.186816,-0.310368,0.007808,-20.3,-37.065,32.4625,-22.920002,-8.52,-12.64,eccentric,2,3.0,47332.0,211048.0,105127.0,212524.0,116763.0
2026-04-14 17:13:14.683535,143996,1609504288401541,1888371780,1.16144,-0.32208,-0.257664,-23.54625,-39.64625,34.86875,-23.880001,-8.464001,-12.624001,eccentric,2,3.0,47332.0,211048.0,105127.0,212524.0,116763.0
2026-04-14 17:13:14.686069,143997,1609504288410493,1888380456,1.204384,-0.376736,-0.216672,-27.46625,-43.16375,35.735,-23.880001,-8.464001,-13.088,eccentric,2,3.0,47332.0,211048.0,105127.0,212524.0,116763.0
2026-04-14 17:13:14.688331,143998,1609504288419522,1888389178,1.204384,-0.376736,-0.216672,-28.67375,-47.53875,41.99125,-24.024002,-8.624001,-13.088,eccentric,2,3.0,47332.0,211048.0,105127.0,212524.0,116763.0
2026-04-14 17:13:14.716056,144009,1609504288434104,1888404144,1.138016,-0.308416,-0.046848,-25.8825,-50.04125,44.8525,-23.856,-8.248,-13.000001,eccentric,2,3.0,43130.0,193908.0,97388.0,195268.0,107561.0
2026-04-14 17:13:14.718377,144010,1609504288443160,1888412865,1.138016,-0.308416,-0.046848,-25.165,-50.54875,42.6825,-23.856,-8.248,-13.000001,eccentric,2,3.0,43130.0,193908.0,97388.0,195268.0,107561.0
2026-04-14 17:13:14.720729,144011,1609504288457686,1888427826,1.188768,-0.407968,-0.212768,-23.6075,-52.43,41.51875,-24.096,-8.472,-12.864,eccentric,2,3.0,43130.0,193908.0,97388.0,195268.0,107561.0
2026-04-14 17:13:14.728415,144012,1609504288466633,1888436508,1.188768,-0.407968,-0.212768,-19.03125,-54.38125,45.7975,-24.096,-8.472,-12.864,eccentric,2,3.0,43130.0,193908.0,97388.0,195268.0,107561.0
2026-04-14 17:13:14.742130,144013,1609504288481133,1888451422,1.173152,-0.339648,-0.216672,-14.37625,-55.93,45.115,-23.296001,-8.200001,-13.424001,eccentric,2,3.0,43130.0,193908.0,97388.0,195268.0,107561.0
2026-04-14 17:13:14.752226,144014,1609504288490039,1888460182,1.173152,-0.339648,-0.216672,-13.51875,-54.4775,42.04375,-23.296001,-8.200001,-13.424001,eccentric,2,3.0,43130.0,193908.0,97388.0,195268.0,107561.0
2026-04-14 17:13:14.758525,144015,1609504288498945,1888468877,1.095072,-0.38064,-0.363072,-10.71,-53.89125,40.13625,-22.720001,-8.728001,-12.856001,eccentric,2,3.0,43130.0,193908.0,97388.0,195268.0,107561.0
2026-04-14 17:13:14.773370,144016,1609504288513416,1888483740,1.118496,-0.4392,-0.320128,-6.615,-53.34875,40.8625,-22.536001,-8.992001,-15.264001,eccentric,2,3.0,43130.0,193908.0,97388.0,195268.0,107561.0
2026-04-14 17:13:14.785095,144017,1609504288522365,1888492428,1.118496,-0.4392,-0.320128,-3.94625,-53.05125,41.3875,-22.536001,-8.992001,-15.264001,eccentric,2,3.0,43130.0,193908.0,97388.0,195268.0,107561.0
2026-04-14 17:13:14.817163,144028,1609504288537016,1888505424,1.114592,-0.339648,-0.054656,0.91,-52.0625,43.67125,-22.688002,-8.8,-15.832001,eccentric,2,3.0,35724.0,175159.0,83566.0,176817.0,93296.0
2026-04-14 17:13:14.819711,144029,1609504288546287,1888516223,1.114592,-0.339648,-0.054656,3.96375,-48.53625,45.07125,-22.688002,-8.8,-15.832001,eccentric,2,3.0,35724.0,175159.0,83566.0,176817.0,93296.0
2026-04-14 17:13:14.821951,144030,1609504288555218,1888524958,1.056032,-0.2928,-0.169824,-2.4675,-43.82,43.35625,-22.624,-8.544001,-14.952001,eccentric,2,3.0,35724.0,175159.0,83566.0,176817.0,93296.0
2026-04-14 17:13:14.832155,144031,1609504288569670,1888539846,1.056032,-0.2928,-0.169824,-12.95,-40.03125,37.765,-22.624,-8.544001,-14.952001,eccentric,2,3.0,35724.0,175159.0,83566.0,176817.0,93296.0
2026-04-14 17:13:14.838415,144032,1609504288578572,1888548567,0.98576,-0.286944,-0.1464,-18.20875,-38.0975,35.30625,-22.920002,-8.376,-15.208001,eccentric,2,3.0,35724.0,175159.0,83566.0,176817.0,93296.0
2026-04-14 17:13:14.855918,144033,1609504288593138,1888563425,0.929152,-0.347456,-0.22448,-15.995,-35.13125,31.473751,-23.144001,-8.888001,-13.920001,eccentric,2,3.0,35724.0,175159.0,83566.0,176817.0,93296.0
2026-04-14 17:13:14.862322,144034,1609504288602082,1888572118,0.929152,-0.347456,-0.22448,-15.12875,-33.1975,26.15375,-23.144001,-8.888001,-13.920001,eccentric,2,3.0,35724.0,175159.0,83566.0,176817.0,93296.0
2026-04-14 17:13:14.876117,144035,1609504288616546,1888584948,0.895968,-0.30256,-0.30256,-15.085,-30.70375,22.28625,-22.136002,-9.320001,-16.264,eccentric,2,3.0,35724.0,175159.0,83566.0,176817.0,93296.0
2026-04-14 17:13:14.886128,144036,1609504288625755,1888595692,0.895968,-0.30256,-0.30256,-17.64875,-26.81875,19.9675,-22.136002,-9.320001,-16.264,eccentric,2,3.0,35724.0,175159.0,83566.0,176817.0,93296.0
2026-04-14 17:13:14.918430,144047,1609504288635145,1888604468,0.894016,-0.38064,-0.38064,-25.33125,-22.88125,16.09125,-22.240002,-9.944,-15.872001,eccentric,2,3.0,33972.0,172222.0,79926.0,173758.0,89808.0
2026-04-14 17:13:14.919956,144048,1609504288649782,1888619504,0.894016,-0.38064,-0.38064,-30.17,-19.78375,12.27625,-22.240002,-9.944,-15.872001,eccentric,2,3.0,33972.0,172222.0,79926.0,173758.0,89808.0
2026-04-14 17:13:14.921954,144049,1609504288658707,1888628160,0.944768,-0.329888,-0.08784,-35.49875,-17.98125,8.47875,-22.984001,-10.064,-13.352,eccentric,2,3.0,33972.0,172222.0,79926.0,173758.0,89808.0
2026-04-14 17:13:14.933480,144050,1609504288673206,1888643046,0.954528,-0.425536,-0.349408,-38.94625,-16.52,5.6875,-22.712002,-10.296001,-17.376001,eccentric,2,3.0,33972.0,172222.0,79926.0,173758.0,89808.0
2026-04-14 17:13:14.969790,144051,1609504288682155,1888651760,0.954528,-0.425536,-0.349408,-35.42875,-14.07,6.55375,-22.712002,-10.296001,-17.376001,eccentric,2,3.0,33972.0,172222.0,79926.0,173758.0,89808.0
2026-04-14 17:13:14.974078,144052,1609504288691075,1888660442,0.954528,-0.425536,-0.349408,-34.02,-12.04875,3.9725,-22.712002,-10.296001,-17.376001,eccentric,2,3.0,33972.0,172222.0,79926.0,173758.0,89808.0
2026-04-14 17:13:14.974529,144053,1609504288705602,1888675425,0.862784,-0.396256,-0.372832,-33.46875,-10.01,-2.17875,-23.52,-10.616,-15.064001,eccentric,2,3.0,33972.0,172222.0,79926.0,173758.0,89808.0
2026-04-14 17:13:14.999643,144054,1609504288714539,1888684106,0.851072,-0.411872,-0.20496,-27.3,-5.81875,-6.0725,-23.072,-11.376,-14.880001,eccentric,2,3.0,33972.0,172222.0,79926.0,173758.0,89808.0
2026-04-14 17:13:15.025005,144055,1609504288729005,1888699005,0.851072,-0.411872,-0.20496,-21.41125,-1.995,-7.2975,-23.072,-11.376,-14.880001,eccentric,2,3.0,33972.0,172222.0,79926.0,173758.0,89808.0
2026-04-14 17:13:15.062247,144066,1609504288738088,1888707685,0.823744,-0.345504,-0.18544,-13.72875,-3.57,-12.136251,-22.952002,-11.752001,-14.776001,eccentric,2,3.0,32550.0,171147.0,77728.0,172237.0,87451.0
2026-04-14 17:13:15.067317,144067,1609504288752594,1888722638,0.792512,-0.277184,-0.404064,-5.45125,-1.89,-14.1925,-22.952002,-11.752001,-14.480001,eccentric,2,3.0,32550.0,171147.0,77728.0,172237.0,87451.0
2026-04-14 17:13:15.069807,144068,1609504288761522,1888731308,0.794464,-0.277184,-0.404064,-3.14125,2.14375,-17.99,-22.712002,-12.144001,-14.480001,eccentric,2,3.0,32550.0,171147.0,77728.0,172237.0,87451.0
2026-04-14 17:13:15.073785,144069,1609504288770425,1888739968,0.794464,-0.277184,-0.404064,-6.0375,4.87375,-28.60375,-22.712002,-12.144001,-14.480001,eccentric,2,3.0,32550.0,171147.0,77728.0,172237.0,87451.0
2026-04-14 17:13:15.074532,144070,1609504288784948,1888754871,0.825696,-0.365024,-0.271328,-7.315,8.54875,-35.18375,-22.488,-12.696001,-14.704,eccentric,2,3.0,32550.0,171147.0,77728.0,172237.0,87451.0
2026-04-14 17:13:15.079103,144071,1609504288793938,1888763607,0.72224,-0.359168,-0.060512,-5.74,11.2175,-37.26625,-22.608002,-13.648001,-15.096001,eccentric,2,3.0,32550.0,171147.0,77728.0,172237.0,87451.0
2026-04-14 17:13:15.081741,144072,1609504288808494,1888778549,0.72224,-0.359168,-0.060512,1.70625,14.6125,-38.263752,-22.608002,-13.648001,-15.096001,eccentric,2,3.0,32550.0,171147.0,77728.0,172237.0,87451.0
2026-04-14 17:13:15.081866,144073,1609504288817439,1888787237,0.6344,-0.277184,-0.150304,11.8475,16.94875,-39.0425,-21.872002,-14.064001,-15.6,eccentric,2,3.0,32550.0,171147.0,77728.0,172237.0,87451.0
2026-04-14 17:13:15.093439,144074,1609504288831918,1888802133,0.6344,-0.277184,-0.150304,17.325,19.495,-41.755,-21.872002,-14.064001,-15.6,eccentric,2,3.0,32550.0,171147.0,77728.0,172237.0,87451.0
2026-04-14 17:13:15.120954,144085,1609504288840902,1888810909,0.735904,-0.1952,-0.30256,15.4875,20.5975,-44.45875,-21.800001,-15.056001,-15.360001,eccentric,2,3.0,33790.0,173565.0,79615.0,175116.0,89417.0
2026-04-14 17:13:15.123502,144086,1609504288849917,1888819604,0.735904,-0.1952,-0.30256,2.8525,21.95375,-47.90625,-21.800001,-15.056001,-15.360001,eccentric,2,3.0,33790.0,173565.0,79615.0,175116.0,89417.0
2026-04-14 17:13:15.126105,144087,1609504288864464,1888834478,0.7808,-0.267424,-0.257664,-6.965,26.880001,-51.30125,-22.6,-15.016001,-13.064001,eccentric,2,3.0,33790.0,173565.0,79615.0,175116.0,89417.0
2026-04-14 17:13:15.133568,144088,1609504288873410,1888843178,0.609024,-0.310368,-0.119072,-11.41875,36.4175,-57.3125,-22.6,-15.016001,-13.208,eccentric,2,3.0,33790.0,173565.0,79615.0,175116.0,89417.0
2026-04-14 17:13:15.147270,144089,1609504288887967,1888858087,0.618784,-0.310368,-0.119072,-4.2,40.13625,-61.775,-23.056002,-15.536001,-13.208,eccentric,2,3.0,33790.0,173565.0,79615.0,175116.0,89417.0
2026-04-14 17:13:15.157291,144090,1609504288896880,1888866773,0.76128,-0.345504,-0.396256,6.83375,46.7425,-65.625,-21.080002,-16.576,-14.344001,eccentric,2,3.0,33790.0,173565.0,79615.0,175116.0,89417.0
2026-04-14 17:13:15.174175,144091,1609504288911368,1888881642,0.76128,-0.345504,-0.396256,16.68625,44.42375,-69.06375,-21.080002,-16.576,-14.344001,eccentric,2,3.0,33790.0,173565.0,79615.0,175116.0,89417.0
2026-04-14 17:13:15.184517,144092,1609504288920277,1888890305,0.833504,-0.183488,-0.011712,14.805,43.8375,-66.78,-20.896002,-16.960001,-14.912001,eccentric,2,3.0,33790.0,173565.0,79615.0,175116.0,89417.0
2026-04-14 17:13:15.188308,144093,1609504288929253,1888898997,0.833504,-0.183488,-0.011712,4.24375,46.62875,-59.5,-20.896002,-16.960001,-14.912001,eccentric,2,3.0,33790.0,173565.0,79615.0,175116.0,89417.0
2026-04-14 17:13:15.220933,144105,1609504288944257,1888914423,0.655872,-0.269376,-0.122976,9.59,56.83125,-56.875,-20.800001,-17.536001,-13.64,eccentric,2,3.0,34637.0,173734.0,80954.0,175099.0,90541.0
2026-04-14 17:13:15.223506,144106,1609504288953261,1888923133,0.655872,-0.269376,-0.122976,10.955,59.05375,-72.9925,-20.800001,-17.536001,-13.64,eccentric,2,3.0,34637.0,173734.0,80954.0,175099.0,90541.0
2026-04-14 17:13:15.228557,144107,1609504288967749,1888938029,0.743712,-0.339648,-0.38064,16.05625,56.6125,-69.67625,-21.456001,-18.296001,-12.336,eccentric,2,3.0,34637.0,173734.0,80954.0,175099.0,90541.0
2026-04-14 17:13:15.236098,144108,1609504288976656,1888946729,0.733952,-0.20496,-0.571936,10.5175,55.1425,-56.945,-20.480001,-18.904001,-13.656001,eccentric,2,3.0,34637.0,173734.0,80954.0,175099.0,90541.0
2026-04-14 17:13:15.246077,144109,1609504288985628,1888955412,0.733952,-0.20496,-0.571936,0.56875,56.945,-56.9625,-20.480001,-18.904001,-13.656001,eccentric,2,3.0,34637.0,173734.0,80954.0,175099.0,90541.0
2026-04-14 17:13:15.259752,144110,1609504289000120,1888970301,0.767136,-0.12688,0.154208,-5.94125,61.6175,-63.70875,-19.976002,-19.104,-13.160001,eccentric,2,3.0,34637.0,173734.0,80954.0,175099.0,90541.0
2026-04-14 17:13:15.275036,144111,1609504289009021,1888978966,0.767136,-0.12688,0.154208,-21.20125,67.71625,-67.865,-19.976002,-19.104,-13.160001,eccentric,2,3.0,34637.0,173734.0,80954.0,175099.0,90541.0
2026-04-14 17:13:15.287295,144112,1609504289023500,1888993812,0.610976,-0.17568,0.02928,0.18375,72.10875,-65.1875,-19.944,-19.632002,-12.928,eccentric,2,3.0,34637.0,173734.0,80954.0,175099.0,90541.0
2026-04-14 17:13:15.292707,144113,1609504289032440,1889002507,0.610976,-0.17568,0.02928,10.87625,74.59375,-71.84625,-19.944,-19.632002,-12.928,eccentric,2,3.0,34637.0,173734.0,80954.0,175099.0,90541.0
2026-04-14 17:13:15.320167,144124,1609504289046989,1889015439,0.431392,-0.066368,-0.181536,16.7825,75.9675,-67.45375,-20.568,-19.856,-10.768001,eccentric,2,3.0,48491.0,248105.0,105758.0,242053.0,116690.0
2026-04-14 17:13:15.322142,144125,1609504289056327,1889026209,0.52704,-0.158112,-0.306464,19.20625,72.205,-63.79625,-20.640001,-20.168001,-10.856001,eccentric,2,3.0,48491.0,248105.0,105758.0,242053.0,116690.0
2026-04-14 17:13:15.325095,144126,1609504289065275,1889034925,0.52704,-0.158112,-0.306464,17.185,63.035,-65.24875,-20.640001,-20.168001,-10.856001,eccentric,2,3.0,48491.0,248105.0,105758.0,242053.0,116690.0
2026-04-14 17:13:15.339619,144127,1609504289079779,1889049804,0.45872,-0.056608,-0.052704,14.533751,54.99375,-58.61625,-19.784,-20.824001,-11.984,eccentric,2,3.0,48491.0,248105.0,105758.0,242053.0,116690.0
2026-04-14 17:13:15.373289,144128,1609504289088727,1889058487,0.45872,-0.056608,-0.052704,11.10375,50.4525,-45.07125,-19.784,-20.824001,-11.984,eccentric,2,3.0,48491.0,248105.0,105758.0,242053.0,116690.0
2026-04-14 17:13:15.393293,144129,1609504289103229,1889073362,0.394304,0.040992,0.003904,5.18,43.855,-38.92875,-19.136002,-21.480001,-12.136001,eccentric,2,3.0,48491.0,248105.0,105758.0,242053.0,116690.0
2026-04-14 17:13:15.395812,144130,1609504289112160,1889082055,0.394304,0.040992,0.003904,-6.50125,36.4525,-37.79125,-19.136002,-21.480001,-12.136001,eccentric,2,3.0,48491.0,248105.0,105758.0,242053.0,116690.0
2026-04-14 17:13:15.398755,144131,1609504289121069,1889090734,0.49776,-0.167872,-0.17568,-8.14625,31.31625,-34.22125,-19.112001,-21.52,-11.912001,eccentric,2,3.0,48491.0,248105.0,105758.0,242053.0,116690.0
2026-04-14 17:13:15.426344,144142,1609504289135536,1889105617,0.597312,-0.081984,-0.261568,3.9725,24.42125,-32.48875,-18.704,-21.168001,-9.512,eccentric,2,3.0,63142.0,281833.0,130652.0,266979.0,143931.0
2026-04-14 17:13:15.428853,144143,1609504289144515,1889114416,0.597312,-0.081984,-0.261568,20.85125,16.52,-29.65375,-18.704,-21.168001,-9.512,eccentric,2,3.0,63142.0,281833.0,130652.0,266979.0,143931.0
2026-04-14 17:13:15.431624,144144,1609504289159082,1889129356,0.739808,-0.042944,-0.007808,28.9975,7.51625,-23.5025,-19.368,-20.960001,-11.096001,eccentric,2,3.0,63142.0,281833.0,130652.0,266979.0,143931.0
2026-04-14 17:13:15.433859,144145,1609504289168007,1889138026,0.739808,-0.042944,-0.007808,19.59125,-0.0875,-14.84,-19.368,-20.960001,-11.096001,eccentric,2,3.0,63142.0,281833.0,130652.0,266979.0,143931.0
2026-04-14 17:13:15.442609,144146,1609504289182568,1889152952,0.724192,-0.140544,-0.062464,6.0725,-7.4375,-4.96125,-19.456001,-21.088001,-11.144,eccentric,2,3.0,63142.0,281833.0,130652.0,266979.0,143931.0
2026-04-14 17:13:15.452589,144147,1609504289191492,1889161619,0.724192,-0.140544,-0.062464,-1.02375,-14.84875,3.255,-19.456001,-21.088001,-11.144,eccentric,2,3.0,63142.0,281833.0,130652.0,266979.0,143931.0
2026-04-14 17:13:15.464217,144148,1609504289200437,1889170298,0.718336,-0.037088,-0.095648,1.74125,-22.4875,9.70375,-18.648,-21.168001,-12.320001,eccentric,2,3.0,63142.0,281833.0,130652.0,266979.0,143931.0
2026-04-14 17:13:15.478673,144149,1609504289214933,1889185169,0.718336,-0.037088,-0.095648,10.823751,-28.67375,14.13125,-18.648,-21.168001,-12.320001,eccentric,2,3.0,63142.0,281833.0,130652.0,266979.0,143931.0
2026-04-14 17:13:15.484473,144150,1609504289223908,1889193864,0.983808,-0.035136,-0.027328,10.92,-31.2375,14.65625,-18.960001,-20.648,-11.184001,eccentric,2,3.0,63142.0,281833.0,130652.0,266979.0,143931.0
2026-04-14 17:13:15.520808,144161,1609504289238447,1889206851,0.950624,-0.052704,-0.05856,2.96625,-29.21625,16.5725,-19.376001,-20.400002,-11.744,eccentric,2,3.0,60692.0,281953.0,127203.0,268234.0,140296.0
2026-04-14 17:13:15.523279,144162,1609504289247775,1889217635,0.950624,-0.052704,-0.05856,-3.15,-25.2,18.64625,-19.376001,-20.400002,-11.744,eccentric,2,3.0,60692.0,281953.0,127203.0,268234.0,140296.0
2026-04-14 17:13:15.525774,144163,1609504289262276,1889232600,1.069696,-0.124928,-0.003904,-2.52875,-20.545,14.752501,-20.720001,-20.232,-10.976001,eccentric,2,3.0,60692.0,281953.0,127203.0,268234.0,140296.0
2026-04-14 17:13:15.531247,144164,1609504289271197,1889241294,1.069696,-0.124928,-0.003904,1.1375,-18.12125,10.59625,-20.720001,-20.232,-10.976001,eccentric,2,3.0,60692.0,281953.0,127203.0,268234.0,140296.0
2026-04-14 17:13:15.541582,144165,1609504289280122,1889249975,1.108736,-0.111264,-0.11712,3.745,-16.765,10.17625,-19.016,-20.488,-12.72,eccentric,2,3.0,60692.0,281953.0,127203.0,268234.0,140296.0
2026-04-14 17:13:15.557087,144166,1609504289294640,1889264887,1.108736,-0.111264,-0.11712,2.51125,-16.17,8.82875,-19.016,-20.488,-12.72,eccentric,2,3.0,60692.0,281953.0,127203.0,268234.0,140296.0
2026-04-14 17:13:15.564914,144167,1609504289303657,1889273552,0.99552,-0.023424,0.054656,0.735,-12.95,8.33,-19.016,-20.368,-14.896001,eccentric,2,3.0,60692.0,281953.0,127203.0,268234.0,140296.0
2026-04-14 17:13:15.608837,144168,1609504289318140,1889288456,0.923296,0.005856,0.003904,-1.63625,-7.09625,7.4025,-18.928001,-20.376001,-12.232,eccentric,2,3.0,60692.0,281953.0,127203.0,268234.0,140296.0
2026-04-14 17:13:15.610958,144169,1609504289327038,1889297154,0.923296,0.005856,0.003904,-4.54125,-1.56625,4.0425,-18.928001,-20.376001,-12.232,eccentric,2,3.0,60692.0,281953.0,127203.0,268234.0,140296.0
2026-04-14 17:13:15.638782,144180,1609504289341667,1889310317,0.940864,-0.040992,0.007808,-3.75375,2.45,1.14625,-19.784,-20.400002,-11.856001,eccentric,2,3.0,57558.0,277582.0,122190.0,263600.0,134930.0
2026-04-14 17:13:15.641330,144181,1609504289350873,1889321089,0.940864,-0.040992,0.007808,0.5075,4.01625,-1.61875,-19.784,-20.400002,-11.856001,eccentric,2,3.0,57558.0,277582.0,122190.0,263600.0,134930.0
2026-04-14 17:13:15.645233,144182,1609504289359815,1889329798,0.899872,-0.044896,-0.150304,4.80375,2.93125,-3.2375,-19.92,-20.288,-13.152,eccentric,2,3.0,57558.0,277582.0,122190.0,263600.0,134930.0
2026-04-14 17:13:15.645927,144183,1609504289374334,1889342713,0.899872,-0.044896,-0.150304,6.37875,0.2975,-3.255,-19.92,-20.288,-13.152,eccentric,2,3.0,57558.0,277582.0,122190.0,263600.0,134930.0
2026-04-14 17:13:15.648315,144184,1609504289383547,1889353502,0.864736,-0.052704,-0.308416,3.82375,-2.87,-2.485,-19.84,-20.472,-12.608001,eccentric,2,3.0,57558.0,277582.0,122190.0,263600.0,134930.0
2026-04-14 17:13:15.655852,144185,1609504289398026,1889366389,0.903776,-0.007808,0.099552,-3.29,-4.62875,-1.44375,-19.0,-20.624,-13.216001,eccentric,2,3.0,57558.0,277582.0,122190.0,263600.0,134930.0
2026-04-14 17:13:15.667444,144186,1609504289407187,1889377125,0.903776,-0.007808,0.099552,-8.04125,-4.795,0.5775,-19.0,-20.624,-13.216001,eccentric,2,3.0,57558.0,277582.0,122190.0,263600.0,134930.0
2026-04-14 17:13:15.674517,144187,1609504289416194,1889385827,0.903776,-0.007808,0.099552,-7.16625,-4.165,0.455,-19.0,-20.624,-13.216001,eccentric,2,3.0,57558.0,277582.0,122190.0,263600.0,134930.0
2026-04-14 17:13:15.691323,144188,1609504289430675,1889400695,0.843264,0.001952,-0.083936,-6.60625,-1.9775,-2.45,-18.976002,-20.488,-10.456,eccentric,2,3.0,57558.0,277582.0,122190.0,263600.0,134930.0
2026-04-14 17:13:15.789605,144199,1609504289440113,1889409390,0.96624,-0.111264,-0.1464,-4.22625,0.595,-3.21125,-19.296001,-20.480001,-13.184001,eccentric,2,3.0,56487.0,273295.0,120712.0,259959.0,133756.0
2026-04-14 17:13:15.794877,144200,1609504289454770,1889424369,0.96624,-0.111264,-0.1464,-0.1925,1.18125,-3.29,-19.296001,-20.480001,-13.184001,eccentric,2,3.0,56487.0,273295.0,120712.0,259959.0,133756.0
2026-04-14 17:13:15.797473,144201,1609504289463710,1889433072,0.977952,-0.095648,-0.173728,2.65125,0.91,-3.2025,-20.552,-19.720001,-10.912001,eccentric,2,3.0,56487.0,273295.0,120712.0,259959.0,133756.0
2026-04-14 17:13:15.799616,144202,1609504289472662,1889441792,0.977952,-0.095648,-0.173728,2.33625,0.4025,-2.625,-20.552,-19.720001,-10.912001,eccentric,2,3.0,56487.0,273295.0,120712.0,259959.0,133756.0
2026-04-14 17:13:15.802602,144203,1609504289487125,1889456665,0.979904,-0.119072,-0.160064,0.00875,0.42,-1.54,-20.776001,-20.216002,-11.856001,eccentric,2,3.0,56487.0,273295.0,120712.0,259959.0,133756.0
2026-04-14 17:13:15.804710,144204,1609504289496068,1889465398,0.979904,-0.119072,-0.160064,-0.9625,0.595,-1.26,-20.776001,-20.216002,-11.856001,eccentric,2,3.0,56487.0,273295.0,120712.0,259959.0,133756.0
2026-04-14 17:13:15.807364,144205,1609504289510598,1889480335,0.952576,-0.074176,-0.093696,0.30625,0.665,-2.275,-19.696001,-20.104,-8.704,eccentric,2,3.0,56487.0,273295.0,120712.0,259959.0,133756.0
2026-04-14 17:13:15.810099,144206,1609504289519492,1889488997,0.919392,-0.046848,-0.003904,1.995,1.61875,-4.54125,-19.968,-20.168001,-12.616,eccentric,2,3.0,56487.0,273295.0,120712.0,259959.0,133756.0
2026-04-14 17:13:15.812626,144207,1609504289534014,1889503869,0.919392,-0.046848,-0.003904,1.58375,2.415,-6.15125,-19.968,-20.168001,-12.616,eccentric,2,3.0,56487.0,273295.0,120712.0,259959.0,133756.0
2026-04-14 17:13:15.839747,144218,1609504289543071,1889512643,0.911584,-0.122976,-0.187392,0.18375,4.13875,-6.6675,-19.928001,-20.248001,-12.136001,eccentric,2,3.0,55406.0,267686.0,119391.0,257135.0,132335.0
2026-04-14 17:13:15.842469,144219,1609504289552035,1889521416,0.911584,-0.122976,-0.187392,-1.5575,5.6525,-6.58,-19.928001,-20.248001,-12.136001,eccentric,2,3.0,55406.0,267686.0,119391.0,257135.0,132335.0
2026-04-14 17:13:15.846370,144220,1609504289566582,1889536324,0.95648,-0.121024,-0.037088,-1.49625,7.02625,-6.46625,-19.712002,-20.824001,-13.152,eccentric,2,3.0,55406.0,267686.0,119391.0,257135.0,132335.0
2026-04-14 17:13:15.846871,144221,1609504289575517,1889545019,0.95648,-0.121024,-0.037088,-0.21875,6.8425,-6.79875,-19.712002,-20.824001,-13.152,eccentric,2,3.0,55406.0,267686.0,119391.0,257135.0,132335.0
