pc_time,serial_num,sensor_ts,host_ts,ax,ay,az,gx,gy,gz,mx,my,mz,phase,rpe,weight_kg,ppg_a,ppg_b,ppg_c,ppg_d,ppg_e
2026-04-07 17:42:09.884887,145499,800211998,800213197,0.815936,-0.072224,-0.02928,16.66875,-20.30875,13.755,-10.632001,-16.816,20.064001,concentric,2,3.0,28559.0,383413.0,345958.0,403431.0,352764.0
2026-04-07 17:42:09.886617,145500,800220890,800221911,0.815936,-0.072224,-0.02928,15.37375,-20.34375,14.84,-10.296001,-16.816,20.064001,concentric,2,3.0,28559.0,383413.0,345958.0,403431.0,352764.0
2026-04-07 17:42:09.890693,145501,800235401,800236834,0.753472,-0.115168,-0.081984,14.0525,-18.8125,14.72625,-11.096001,-16.056002,19.528002,concentric,2,3.0,28559.0,383413.0,345958.0,403431.0,352764.0
2026-04-07 17:42:09.892354,145502,800244383,800245605,0.753472,-0.115168,-0.081984,11.19125,-17.9725,16.415,-11.096001,-16.056002,19.528002,concentric,2,3.0,28559.0,383413.0,345958.0,403431.0,352764.0
2026-04-07 17:42:09.894126,145503,800253274,800254340,0.730048,-0.1952,-0.158112,10.185,-18.10375,18.69875,-10.8,-16.352001,19.816002,concentric,2,3.0,28559.0,383413.0,345958.0,403431.0,352764.0
2026-04-07 17:42:09.900765,145504,800262236,800263017,0.730048,-0.1952,-0.158112,12.4425,-20.8775,20.36125,-10.8,-16.352001,19.816002,concentric,2,3.0,28559.0,383413.0,345958.0,403431.0,352764.0
2026-04-07 17:42:09.902438,145505,800276705,800277942,0.804224,-0.124928,-0.101504,16.8875,-24.68375,23.6075,-10.960001,-16.016,19.44,concentric,2,3.0,28559.0,383413.0,345958.0,403431.0,352764.0
2026-04-07 17:42:09.903914,145506,800285610,800286689,0.804224,-0.124928,-0.101504,19.11,-27.08125,25.43625,-10.960001,-16.016,19.44,concentric,2,3.0,28559.0,383413.0,345958.0,403431.0,352764.0
2026-04-07 17:42:09.909529,145507,800294532,800295389,0.794464,-0.113216,-0.052704,18.6725,-25.59375,22.6975,-11.224001,-15.944001,21.328001,concentric,2,3.0,28559.0,383413.0,345958.0,403431.0,352764.0
2026-04-07 17:42:09.935227,145517,800309035,800310301,0.794464,-0.113216,-0.052704,17.22875,-23.38,20.553751,-11.224001,-15.944001,21.328001,concentric,2,3.0,29153.0,388194.0,349804.0,403431.0,356316.0
2026-04-07 17:42:09.938636,145518,800318455,800319291,0.786656,-0.187392,-0.095648,18.31375,-22.0675,20.475,-11.176001,-15.608001,21.216002,concentric,2,3.0,29153.0,388194.0,349804.0,403431.0,356316.0
2026-04-07 17:42:09.940133,145519,800328071,800330180,0.786656,-0.187392,-0.095648,17.14125,-21.91,20.8075,-11.176001,-15.608001,21.216002,concentric,2,3.0,29153.0,388194.0,349804.0,403431.0,356316.0
2026-04-07 17:42:09.944316,145520,800337025,800338891,0.70272,-0.197152,-0.160064,17.22875,-24.75375,22.12,-11.280001,-14.912001,18.84,concentric,2,3.0,29153.0,388194.0,349804.0,403431.0,356316.0
2026-04-07 17:42:09.950664,145521,800351814,800352176,0.70272,-0.197152,-0.160064,19.5825,-30.14375,26.32,-11.280001,-14.912001,18.84,concentric,2,3.0,29153.0,388194.0,349804.0,403431.0,356316.0
2026-04-07 17:42:09.955535,145522,800361079,800363016,0.739808,-0.148352,-0.18544,19.18,-35.34125,30.2925,-10.912001,-14.960001,20.104,concentric,2,3.0,29153.0,388194.0,349804.0,403431.0,356316.0
2026-04-07 17:42:09.984150,145523,800369979,800371838,0.739808,-0.148352,-0.18544,16.91375,-37.00375,30.84375,-10.912001,-14.960001,20.104,concentric,2,3.0,29153.0,388194.0,349804.0,403431.0,356316.0
2026-04-07 17:42:09.989141,145524,800384465,800386740,0.841312,-0.130784,0.00976,14.945,-34.16,25.6025,-11.304001,-14.424001,17.496,concentric,2,3.0,29153.0,388194.0,349804.0,403431.0,356316.0
2026-04-07 17:42:09.991258,145525,800393384,800395423,0.845216,-0.191296,-0.121024,16.80875,-29.4875,21.2975,-10.312,-14.016001,17.448,concentric,2,3.0,29153.0,388194.0,349804.0,403431.0,356316.0
2026-04-07 17:42:09.996794,145526,800402306,800404229,0.845216,-0.191296,-0.121024,20.09875,-27.86,19.39875,-10.312,-14.016001,17.448,concentric,2,3.0,29153.0,388194.0,349804.0,403431.0,356316.0
2026-04-07 17:42:10.028798,145537,800411327,800413019,0.845216,-0.191296,-0.121024,20.195,-27.1075,18.75125,-10.312,-14.016001,17.448,concentric,2,3.0,29631.0,391925.0,352884.0,403431.0,359006.0
2026-04-07 17:42:10.031100,145538,800425918,800427988,0.774944,-0.1952,-0.203008,21.42,-27.475,21.49875,-10.888001,-14.000001,16.624,concentric,2,3.0,29631.0,391925.0,352884.0,403431.0,359006.0
2026-04-07 17:42:10.032621,145539,800434839,800436700,0.79056,-0.22448,-0.15616,18.83875,-30.49375,25.62875,-11.080001,-13.544001,17.024,concentric,2,3.0,29631.0,391925.0,352884.0,403431.0,359006.0
2026-04-07 17:42:10.036030,145540,800443772,800445364,0.79056,-0.22448,-0.15616,13.79875,-33.36375,27.1425,-11.080001,-13.544001,17.024,concentric,2,3.0,29631.0,391925.0,352884.0,403431.0,359006.0
2026-04-07 17:42:10.068255,145541,800458247,800460314,0.83936,-0.230336,-0.10736,11.54125,-33.04875,26.11,-10.816001,-13.232,18.136002,concentric,2,3.0,29631.0,391925.0,352884.0,403431.0,359006.0
2026-04-07 17:42:10.070892,145542,800467152,800469044,0.83936,-0.230336,-0.10736,14.02625,-30.51125,24.3075,-10.816001,-13.232,18.136002,concentric,2,3.0,29631.0,391925.0,352884.0,403431.0,359006.0
2026-04-07 17:42:10.071892,145543,800476054,800477756,0.772992,-0.197152,-0.128832,17.0275,-27.7375,21.06125,-10.952001,-12.896001,16.568,concentric,2,3.0,29631.0,391925.0,352884.0,403431.0,359006.0
2026-04-07 17:42:10.113768,145544,800490535,800492716,0.772992,-0.197152,-0.128832,20.04625,-26.52125,19.53,-10.952001,-12.896001,16.568,concentric,2,3.0,29631.0,391925.0,352884.0,403431.0,359006.0
2026-04-07 17:42:10.118253,145545,800499448,800501414,0.796416,-0.23424,-0.167872,20.81625,-26.32875,18.5675,-11.384001,-13.072001,17.456001,concentric,2,3.0,29631.0,391925.0,352884.0,403431.0,359006.0
2026-04-07 17:42:10.151262,145555,800508356,800510164,0.796416,-0.23424,-0.167872,18.17375,-26.4775,18.865,-11.384001,-13.072001,17.456001,concentric,2,3.0,30190.0,396706.0,356976.0,403431.0,362851.0
2026-04-07 17:42:10.153570,145556,800522892,800525091,0.815936,-0.271328,-0.109312,14.63,-25.5325,19.5125,-10.624001,-12.008,15.736001,concentric,2,3.0,30190.0,396706.0,356976.0,403431.0,362851.0
2026-04-07 17:42:10.155265,145557,800531869,800533793,0.815936,-0.271328,-0.109312,12.5825,-23.2575,19.62625,-10.624001,-12.008,15.736001,concentric,2,3.0,30190.0,396706.0,356976.0,403431.0,362851.0
2026-04-07 17:42:10.159393,145558,800540823,800542526,0.812032,-0.27328,-0.140544,11.83,-21.25375,21.5075,-10.856001,-11.688001,15.176001,concentric,2,3.0,30190.0,396706.0,356976.0,403431.0,362851.0
2026-04-07 17:42:10.161205,145559,800549762,800551256,0.812032,-0.27328,-0.140544,10.045,-19.460001,21.30625,-10.856001,-11.688001,15.176001,concentric,2,3.0,30190.0,396706.0,356976.0,403431.0,362851.0
2026-04-07 17:42:10.162896,145560,800564281,800566149,0.786656,-0.242048,-0.17568,11.725,-18.08625,20.86875,-10.84,-11.632001,15.480001,concentric,2,3.0,30190.0,396706.0,356976.0,403431.0,362851.0
2026-04-07 17:42:10.166816,145561,800573202,800574867,0.802272,-0.242048,-0.12688,13.72875,-17.675,20.4925,-10.84,-11.632001,17.528002,concentric,2,3.0,30190.0,396706.0,356976.0,403431.0,362851.0
2026-04-07 17:42:10.195335,145562,800582210,800583592,0.81008,-0.242048,-0.12688,12.4775,-17.0625,17.84125,-11.744,-11.736001,17.12,concentric,2,3.0,30190.0,396706.0,356976.0,403431.0,362851.0
2026-04-07 17:42:10.199997,145563,800596675,800598522,0.812032,-0.304512,-0.206912,14.14,-15.77625,15.408751,-11.232,-11.296001,15.400001,concentric,2,3.0,30190.0,396706.0,356976.0,403431.0,362851.0
2026-04-07 17:42:10.206997,145564,800605557,800607198,0.812032,-0.304512,-0.206912,13.37,-14.72625,14.21,-11.232,-11.296001,15.400001,concentric,2,3.0,30190.0,396706.0,356976.0,403431.0,362851.0
2026-04-07 17:42:10.231036,145574,800614659,800615974,0.778848,-0.279136,-0.150304,10.98125,-13.886251,13.685,-11.136001,-11.200001,15.136001,concentric,2,3.0,30777.0,401035.0,360981.0,403431.0,366204.0
2026-04-07 17:42:10.232677,145575,800629138,800630868,0.778848,-0.279136,-0.150304,11.935,-13.405,14.7175,-11.136001,-11.200001,15.136001,concentric,2,3.0,30777.0,401035.0,360981.0,403431.0,366204.0
2026-04-07 17:42:10.237119,145576,800638076,800639560,0.815936,-0.277184,-0.144448,12.66125,-13.7375,16.24,-12.256001,-11.400001,17.424002,concentric,2,3.0,30777.0,401035.0,360981.0,403431.0,366204.0
2026-04-07 17:42:10.242297,145577,800647022,800648276,0.815936,-0.277184,-0.144448,8.636251,-12.80125,15.5575,-12.256001,-11.400001,17.424002,concentric,2,3.0,30777.0,401035.0,360981.0,403431.0,366204.0
2026-04-07 17:42:10.272637,145578,800661511,800663216,0.782752,-0.31232,-0.1952,8.0675,-11.10375,15.60125,-11.776001,-10.584001,14.952001,concentric,2,3.0,30777.0,401035.0,360981.0,403431.0,366204.0
2026-04-07 17:42:10.274827,145579,800670417,800671917,0.782752,-0.31232,-0.1952,9.0475,-10.14125,15.75875,-11.776001,-10.584001,14.952001,concentric,2,3.0,30777.0,401035.0,360981.0,403431.0,366204.0
2026-04-07 17:42:10.278682,145580,800679346,800680625,0.804224,-0.296704,-0.18544,10.22,-9.835,13.7725,-10.928,-9.784,14.656001,concentric,2,3.0,30777.0,401035.0,360981.0,403431.0,366204.0
2026-04-07 17:42:10.280039,145581,800688264,800689344,0.804224,-0.296704,-0.18544,11.06875,-8.79375,11.6725,-10.928,-9.784,14.656001,concentric,2,3.0,30777.0,401035.0,360981.0,403431.0,366204.0
2026-04-07 17:42:10.311340,145582,800702755,800704224,0.831552,-0.329888,-0.203008,10.7975,-7.5425,10.185,-12.224001,-10.320001,16.216002,concentric,2,3.0,30777.0,401035.0,360981.0,403431.0,366204.0
2026-04-07 17:42:10.339866,145593,800712047,800713384,0.831552,-0.329888,-0.203008,8.26875,-5.64375,10.17625,-12.224001,-10.320001,16.216002,concentric,2,3.0,30927.0,401794.0,362272.0,403431.0,367357.0
2026-04-07 17:42:10.341398,145594,800721119,800722100,0.812032,-0.36112,-0.18544,8.81125,-3.68375,12.31125,-11.960001,-9.712001,14.840001,concentric,2,3.0,30927.0,401794.0,362272.0,403431.0,367357.0
2026-04-07 17:42:10.344870,145595,800735627,800737101,0.79056,-0.335744,-0.189344,5.95,-2.345,13.72,-11.864,-9.856001,14.848001,concentric,2,3.0,30927.0,401794.0,362272.0,403431.0,367357.0
2026-04-07 17:42:10.346711,145596,800744604,800745809,0.79056,-0.335744,-0.189344,4.50625,-0.525,13.79875,-11.864,-9.856001,14.848001,concentric,2,3.0,30927.0,401794.0,362272.0,403431.0,367357.0
2026-04-07 17:42:10.350571,145597,800753523,800754534,0.79056,-0.335744,-0.20496,5.43375,0.39375,13.55375,-11.864,-9.856001,14.848001,concentric,2,3.0,30927.0,401794.0,362272.0,403431.0,367357.0
2026-04-07 17:42:10.379092,145598,800768013,800769499,0.796416,-0.32208,-0.206912,4.33125,1.37375,12.60875,-12.448001,-9.200001,17.960001,concentric,2,3.0,30927.0,401794.0,362272.0,403431.0,367357.0
2026-04-07 17:42:10.415008,145599,800776923,800778195,0.804224,-0.339648,-0.216672,4.095,2.77375,9.6425,-12.096001,-8.936001,14.408001,concentric,2,3.0,30927.0,401794.0,362272.0,403431.0,367357.0
2026-04-07 17:42:10.417279,145600,800785840,800786922,0.804224,-0.339648,-0.216672,6.195,4.4275,6.04625,-12.096001,-8.936001,14.408001,concentric,2,3.0,30927.0,401794.0,362272.0,403431.0,367357.0
2026-04-07 17:42:10.421885,145601,800794756,800795599,0.798368,-0.353312,-0.206912,4.69,4.73375,6.125,-11.952001,-8.616,14.360001,concentric,2,3.0,30927.0,401794.0,362272.0,403431.0,367357.0
2026-04-07 17:42:10.423614,145602,800809237,800810493,0.798368,-0.353312,-0.206912,1.015,5.635,5.67,-11.952001,-8.616,14.360001,concentric,2,3.0,30927.0,401794.0,362272.0,403431.0,367357.0
2026-04-07 17:42:10.453336,145612,800818228,800819258,0.80032,-0.394304,-0.218624,2.065,5.9325,5.6875,-12.048,-8.576,14.656001,concentric,2,3.0,31493.0,403431.0,366165.0,403431.0,371053.0
2026-04-07 17:42:10.459218,145613,800827175,800827960,0.80032,-0.394304,-0.218624,2.66,7.1575,5.38125,-12.048,-8.576,14.656001,concentric,2,3.0,31493.0,403431.0,366165.0,403431.0,371053.0
2026-04-07 17:42:10.468152,145614,800841919,800842912,0.806176,-0.363072,-0.220576,1.84625,9.1,4.82125,-12.424001,-9.064,14.688001,concentric,2,3.0,31493.0,403431.0,366165.0,403431.0,371053.0
2026-04-07 17:42:10.471774,145615,800850927,800851667,0.806176,-0.363072,-0.220576,5.01375,10.42125,4.1825,-12.424001,-9.064,14.688001,concentric,2,3.0,31493.0,403431.0,366165.0,403431.0,371053.0
2026-04-07 17:42:10.472270,145616,800860282,800862449,0.79056,-0.32208,-0.226432,6.15125,10.6575,3.59625,-12.872001,-9.280001,14.472001,concentric,2,3.0,31493.0,403431.0,366165.0,403431.0,371053.0
2026-04-07 17:42:10.473887,145617,800869296,800871155,0.79056,-0.32208,-0.226432,6.32625,10.42125,2.30125,-12.872001,-9.280001,14.472001,concentric,2,3.0,31493.0,403431.0,366165.0,403431.0,371053.0
2026-04-07 17:42:10.478068,145618,800883835,800886130,0.802272,-0.32208,-0.212768,6.09875,9.79125,-1.16375,-13.216001,-8.656,14.736001,concentric,2,3.0,31493.0,403431.0,366165.0,403431.0,371053.0
2026-04-07 17:42:10.506708,145619,800892991,800894847,0.802272,-0.32208,-0.212768,7.72625,9.3275,-4.59375,-13.216001,-8.656,14.736001,concentric,2,3.0,31493.0,403431.0,366165.0,403431.0,371053.0
2026-04-07 17:42:10.511160,145620,800901949,800903540,0.813984,-0.36112,-0.183488,6.81625,9.84375,-5.25875,-13.432001,-9.344001,16.824001,concentric,2,3.0,31493.0,403431.0,366165.0,403431.0,371053.0
2026-04-07 17:42:10.544431,145630,800916541,800918499,0.79056,-0.366976,-0.18544,4.94375,11.8125,-5.69625,-13.744,-8.624001,14.632001,concentric,2,3.0,31835.0,403431.0,368638.0,403431.0,373396.0
2026-04-07 17:42:10.546137,145631,800925501,800927232,0.79056,-0.366976,-0.18544,5.67,14.46375,-6.8425,-13.744,-8.624001,14.632001,concentric,2,3.0,31835.0,403431.0,368638.0,403431.0,373396.0
2026-04-07 17:42:10.547678,145632,800934472,800935930,0.79056,-0.366976,-0.17568,8.1025,16.19625,-8.02375,-13.744,-8.624001,14.632001,concentric,2,3.0,31835.0,403431.0,368638.0,403431.0,373396.0
2026-04-07 17:42:10.551333,145633,800949013,800950857,0.817888,-0.374784,-0.17568,12.38125,17.33375,-6.69375,-13.704,-8.568001,13.64,concentric,2,3.0,31835.0,403431.0,368638.0,403431.0,373396.0
2026-04-07 17:42:10.553436,145634,800957989,800959556,0.81008,-0.31232,-0.121024,15.47,18.69,-8.32125,-13.576,-8.480001,14.936001,concentric,2,3.0,31835.0,403431.0,368638.0,403431.0,373396.0
2026-04-07 17:42:10.559261,145635,800966949,800968292,0.81008,-0.31232,-0.121024,18.31375,20.30875,-11.55,-13.576,-8.480001,14.936001,concentric,2,3.0,31835.0,403431.0,368638.0,403431.0,373396.0
2026-04-07 17:42:10.587954,145636,800975894,800977008,0.81008,-0.376736,-0.158112,19.425,21.83125,-11.54125,-13.784,-8.776,15.088,concentric,2,3.0,31835.0,403431.0,368638.0,403431.0,373396.0
2026-04-07 17:42:10.592533,145637,800990362,800991892,0.81008,-0.376736,-0.158112,17.33375,23.2225,-12.845,-13.784,-8.776,15.088,concentric,2,3.0,31835.0,403431.0,368638.0,403431.0,373396.0
2026-04-07 17:42:10.593919,145638,800999280,801000567,0.796416,-0.320128,-0.173728,19.25,23.86125,-13.685,-13.976001,-9.064,15.432001,concentric,2,3.0,31835.0,403431.0,368638.0,403431.0,373396.0
2026-04-07 17:42:10.600721,145639,801008219,801009376,0.796416,-0.320128,-0.173728,19.4425,23.9925,-15.085,-13.976001,-9.064,15.432001,concentric,2,3.0,31835.0,403431.0,368638.0,403431.0,373396.0
2026-04-07 17:42:10.626486,145650,801022808,801024367,0.856928,-0.286944,-0.152256,13.71125,22.70625,-17.815,-14.880001,-8.68,17.688002,concentric,2,3.0,31913.0,403431.0,369104.0,403431.0,373543.0
2026-04-07 17:42:10.630997,145651,801031783,801033121,0.856928,-0.286944,-0.152256,8.56625,22.07625,-18.29625,-14.880001,-8.68,17.688002,concentric,2,3.0,31913.0,403431.0,369104.0,403431.0,373543.0
2026-04-07 17:42:10.633580,145652,801040744,801041845,0.80032,-0.386496,-0.134688,10.5525,21.55125,-18.38375,-14.944,-8.416,17.272001,concentric,2,3.0,31913.0,403431.0,369104.0,403431.0,373543.0
2026-04-07 17:42:10.666215,145653,801055270,801056811,0.80032,-0.284992,-0.081984,15.35625,21.805,-20.44875,-14.944,-8.416,17.272001,concentric,2,3.0,31913.0,403431.0,369104.0,403431.0,373543.0
2026-04-07 17:42:10.674449,145654,801064221,801065551,0.864736,-0.284992,-0.081984,21.175,20.3875,-21.16625,-15.064001,-9.064,17.36,concentric,2,3.0,31913.0,403431.0,369104.0,403431.0,373543.0
2026-04-07 17:42:10.676881,145655,801073160,801074239,0.864736,-0.284992,-0.081984,22.58375,20.16875,-15.785,-15.064001,-9.064,17.36,concentric,2,3.0,31913.0,403431.0,369104.0,403431.0,373543.0
2026-04-07 17:42:10.680958,145656,801087623,801089112,0.835456,-0.277184,-0.113216,16.21375,18.31375,-19.08375,-15.56,-8.744,15.936001,concentric,2,3.0,31913.0,403431.0,369104.0,403431.0,373543.0
2026-04-07 17:42:10.716353,145657,801096576,801097811,0.845216,-0.345504,-0.081984,12.81875,16.8525,-21.02625,-15.408001,-8.744,17.560001,concentric,2,3.0,31913.0,403431.0,369104.0,403431.0,373543.0
2026-04-07 17:42:10.718541,145658,801105568,801106506,0.845216,-0.345504,-0.081984,12.425,15.505,-24.395,-15.408001,-8.744,17.560001,concentric,2,3.0,31913.0,403431.0,369104.0,403431.0,373543.0
2026-04-07 17:42:10.748717,145668,801114912,801115585,0.845216,-0.345504,-0.081984,13.877501,13.97375,-26.46875,-15.408001,-8.744,17.560001,concentric,2,3.0,30682.0,401332.0,361833.0,403431.0,366807.0
2026-04-07 17:42:10.750165,145669,801129813,801130511,0.901824,-0.343552,-0.093696,17.7275,14.23625,-27.475,-15.192,-8.328,16.344,concentric,2,3.0,30682.0,401332.0,361833.0,403431.0,366807.0
2026-04-07 17:42:10.753640,145670,801139131,801141299,0.890112,-0.294752,-0.033184,17.325,14.035,-27.48375,-15.832001,-9.016001,16.512001,concentric,2,3.0,30682.0,401332.0,361833.0,403431.0,366807.0
2026-04-07 17:42:10.755166,145671,801148039,801149991,0.890112,-0.294752,-0.033184,18.165,13.08125,-26.8625,-15.832001,-9.016001,16.512001,concentric,2,3.0,30682.0,401332.0,361833.0,403431.0,366807.0
2026-04-07 17:42:10.758419,145672,801157126,801158735,0.933056,-0.296704,-0.072224,20.86875,10.465,-27.30875,-15.984001,-9.552,14.712001,concentric,2,3.0,30682.0,401332.0,361833.0,403431.0,366807.0
2026-04-07 17:42:10.764317,145673,801171705,801173708,0.933056,-0.296704,-0.072224,20.8075,9.52,-29.2775,-15.984001,-9.552,14.712001,concentric,2,3.0,30682.0,401332.0,361833.0,403431.0,366807.0
2026-04-07 17:42:10.792745,145674,801180630,801182408,0.976,-0.320128,-0.060512,19.005,8.75875,-29.23375,-16.216002,-9.976001,17.976002,concentric,2,3.0,30682.0,401332.0,361833.0,403431.0,366807.0
2026-04-07 17:42:10.813209,145675,801189576,801191093,0.976,-0.320128,-0.060512,18.69,8.54875,-26.3375,-16.216002,-9.976001,17.976002,concentric,2,3.0,30682.0,401332.0,361833.0,403431.0,366807.0
2026-04-07 17:42:10.814941,145676,801204056,801205965,0.870592,-0.3904,-0.105408,18.8125,9.555,-25.13,-16.392,-9.752001,16.92,concentric,2,3.0,30682.0,401332.0,361833.0,403431.0,366807.0
2026-04-07 17:42:10.842348,145686,801212967,801214643,0.870592,-0.3904,-0.105408,15.09375,11.29625,-25.64625,-16.392,-9.752001,16.92,concentric,2,3.0,30336.0,399510.0,359859.0,403431.0,365108.0
2026-04-07 17:42:10.843918,145687,801222475,801223337,0.952576,-0.232288,-0.040992,15.855001,10.78875,-22.75875,-16.328001,-9.704,16.944,concentric,2,3.0,30336.0,399510.0,359859.0,403431.0,365108.0
2026-04-07 17:42:10.848198,145688,801236953,801238260,0.89792,-0.284992,-0.054656,17.21125,11.2,-21.35875,-15.720001,-9.184,16.84,concentric,2,3.0,30336.0,399510.0,359859.0,403431.0,365108.0
2026-04-07 17:42:10.849890,145689,801245880,801247021,0.89792,-0.284992,-0.054656,12.705,11.20875,-19.565,-15.720001,-9.184,16.84,concentric,2,3.0,30336.0,399510.0,359859.0,403431.0,365108.0
2026-04-07 17:42:10.851430,145690,801254852,801255733,0.89792,-0.284992,-0.054656,6.5625,11.1825,-16.3625,-15.720001,-9.184,16.84,concentric,2,3.0,30336.0,399510.0,359859.0,403431.0,365108.0
2026-04-07 17:42:10.855567,145691,801263755,801264529,0.944768,-0.32208,-0.064416,6.86,10.84125,-16.24875,-16.168001,-9.544001,18.136002,concentric,2,3.0,30336.0,399510.0,359859.0,403431.0,365108.0
2026-04-07 17:42:10.884157,145692,801278777,801279450,0.935008,-0.261568,-0.089792,6.78125,9.9575,-15.085,-16.800001,-9.888001,16.84,concentric,2,3.0,30336.0,399510.0,359859.0,403431.0,365108.0
2026-04-07 17:42:10.888612,145693,801288054,801290229,0.935008,-0.261568,-0.089792,4.5675,9.17,-13.86875,-16.800001,-9.888001,16.84,concentric,2,3.0,30336.0,399510.0,359859.0,403431.0,365108.0
2026-04-07 17:42:10.890912,145694,801297026,801298887,0.93696,-0.28304,-0.081984,0.385,7.6125,-14.0175,-16.912,-9.752001,17.08,concentric,2,3.0,30336.0,399510.0,359859.0,403431.0,365108.0
2026-04-07 17:42:10.897970,145695,801305998,801307614,0.93696,-0.28304,-0.081984,-3.885,6.6325,-12.573751,-16.912,-9.752001,17.08,concentric,2,3.0,30336.0,399510.0,359859.0,403431.0,365108.0
2026-04-07 17:42:10.953645,145706,801320539,801320878,0.903776,-0.279136,-0.101504,-5.5825,4.80375,-11.41875,-16.584002,-9.744,17.024,concentric,2,3.0,29700.0,394757.0,356038.0,403431.0,362023.0
2026-04-07 17:42:10.955141,145707,801329817,801331658,0.903776,-0.279136,-0.101504,-6.3175,3.4825,-10.66625,-16.584002,-9.744,17.024,concentric,2,3.0,29700.0,394757.0,356038.0,403431.0,362023.0
2026-04-07 17:42:10.958609,145708,801338750,801340379,0.929152,-0.290848,-0.089792,-7.07,1.26875,-9.59,-16.568,-9.768001,17.240002,concentric,2,3.0,29700.0,394757.0,356038.0,403431.0,362023.0
2026-04-07 17:42:10.960156,145709,801353210,801355324,0.929152,-0.290848,-0.089792,-5.775,-0.63875,-7.04375,-16.568,-9.768001,17.240002,concentric,2,3.0,29700.0,394757.0,356038.0,403431.0,362023.0
2026-04-07 17:42:10.964394,145710,801362159,801364154,0.915488,-0.255712,-0.099552,-4.6025,-1.98625,-6.55375,-17.320002,-10.216001,17.712,concentric,2,3.0,29700.0,394757.0,356038.0,403431.0,362023.0
2026-04-07 17:42:10.965987,145711,801371117,801372868,0.915488,-0.255712,-0.099552,-6.3525,-3.9025,-7.0525,-17.320002,-10.216001,17.712,concentric,2,3.0,29700.0,394757.0,356038.0,403431.0,362023.0
2026-04-07 17:42:11.016382,145712,801385606,801387817,0.935008,-0.26352,-0.085888,-9.77375,-5.3725,-6.37,-17.016,-9.616,16.784,concentric,2,3.0,29700.0,394757.0,356038.0,403431.0,362023.0
2026-04-07 17:42:11.018922,145713,801394545,801396514,0.935008,-0.26352,-0.085888,-14.4375,-6.7725,-6.48375,-17.016,-9.616,16.784,concentric,2,3.0,29700.0,394757.0,356038.0,403431.0,362023.0
2026-04-07 17:42:11.027311,145714,801403490,801405224,0.929152,-0.308416,-0.099552,-14.875,-8.40875,-6.02,-16.256,-9.928,17.048,concentric,2,3.0,29700.0,394757.0,356038.0,403431.0,362023.0
2026-04-07 17:42:11.054407,145724,801418322,801420211,0.954528,-0.275232,-0.105408,-14.11375,-9.4325,-4.31375,-16.568,-9.776,16.408,concentric,2,3.0,30161.0,397897.0,358449.0,403431.0,364396.0
2026-04-07 17:42:11.056807,145725,801427287,801428955,0.954528,-0.275232,-0.105408,-13.055,-9.9925,-3.36875,-16.568,-9.776,16.408,concentric,2,3.0,30161.0,397897.0,358449.0,403431.0,364396.0
2026-04-07 17:42:11.057615,145726,801436243,801437635,0.954528,-0.275232,-0.105408,-13.0025,-10.3075,-2.00375,-16.568,-9.776,16.408,concentric,2,3.0,30161.0,397897.0,358449.0,403431.0,364396.0
2026-04-07 17:42:11.061138,145727,801445208,801446384,0.95648,-0.294752,-0.128832,-12.845,-10.255,-1.33,-16.392,-10.504001,15.816001,concentric,2,3.0,30161.0,397897.0,358449.0,403431.0,364396.0
2026-04-07 17:42:11.062662,145728,801459794,801461409,0.968192,-0.30256,-0.142496,-15.26875,-10.87625,-0.3675,-16.232,-9.440001,16.312,concentric,2,3.0,30161.0,397897.0,358449.0,403431.0,364396.0
2026-04-07 17:42:11.065120,145729,801468722,801470159,0.968192,-0.30256,-0.142496,-15.8375,-10.7625,0.5775,-16.232,-9.440001,16.312,concentric,2,3.0,30161.0,397897.0,358449.0,403431.0,364396.0
2026-04-07 17:42:11.070920,145730,801477650,801478854,0.952576,-0.306464,-0.163968,-15.0325,-10.61375,1.2425,-16.656,-9.872001,16.056002,concentric,2,3.0,30161.0,397897.0,358449.0,403431.0,364396.0
2026-04-07 17:42:11.102535,145731,801492137,801493757,0.952576,-0.306464,-0.163968,-15.015,-10.8675,1.51375,-16.656,-9.872001,16.056002,concentric,2,3.0,30161.0,397897.0,358449.0,403431.0,364396.0
2026-04-07 17:42:11.107383,145732,801501050,801502503,0.940864,-0.32208,-0.181536,-14.0175,-11.27,2.205,-15.856001,-10.136001,16.28,concentric,2,3.0,30161.0,397897.0,358449.0,403431.0,364396.0
2026-04-07 17:42:11.109562,145733,801509953,801511204,0.940864,-0.32208,-0.181536,-14.5775,-11.13,1.60125,-15.856001,-10.136001,16.28,concentric,2,3.0,30161.0,397897.0,358449.0,403431.0,364396.0
2026-04-07 17:42:11.167337,145743,801524471,801526251,0.942816,-0.308416,-0.183488,-13.1075,-10.85,2.2575,-16.528,-10.344001,15.752001,concentric,2,3.0,30771.0,401593.0,362214.0,403431.0,367575.0
2026-04-07 17:42:11.168841,145744,801533387,801534982,0.942816,-0.308416,-0.183488,-10.9025,-10.00125,2.87875,-16.528,-10.344001,15.752001,concentric,2,3.0,30771.0,401593.0,362214.0,403431.0,367575.0
2026-04-07 17:42:11.173128,145745,801542322,801543671,0.935008,-0.314272,-0.1952,-9.4675,-8.74125,2.345,-16.2,-9.736,15.584001,concentric,2,3.0,30771.0,401593.0,362214.0,403431.0,367575.0
2026-04-07 17:42:11.174870,145746,801551231,801552366,0.935008,-0.314272,-0.1952,-8.6275,-8.02375,1.54875,-16.2,-9.736,15.584001,concentric,2,3.0,30771.0,401593.0,362214.0,403431.0,367575.0
2026-04-07 17:42:11.176607,145747,801565768,801567277,0.954528,-0.310368,-0.20496,-6.46625,-7.5775,1.54875,-15.64,-9.592,15.864,concentric,2,3.0,30771.0,401593.0,362214.0,403431.0,367575.0
2026-04-07 17:42:11.180634,145748,801574693,801576022,0.954528,-0.310368,-0.20496,-4.235,-7.39375,1.9775,-15.64,-9.592,15.864,concentric,2,3.0,30771.0,401593.0,362214.0,403431.0,367575.0
2026-04-07 17:42:11.182232,145749,801583666,801584739,0.944768,-0.304512,-0.212768,-4.2875,-7.07875,2.98375,-16.376001,-10.496,17.344002,concentric,2,3.0,30771.0,401593.0,362214.0,403431.0,367575.0
2026-04-07 17:42:11.212475,145750,801598191,801599630,0.950624,-0.327936,-0.203008,-4.6025,-6.755,4.50625,-16.240002,-10.056001,17.024,concentric,2,3.0,30771.0,401593.0,362214.0,403431.0,367575.0
2026-04-07 17:42:11.216958,145751,801607133,801608295,0.950624,-0.327936,-0.203008,-4.34,-6.545,4.36625,-16.240002,-10.056001,17.024,concentric,2,3.0,30771.0,401593.0,362214.0,403431.0,367575.0
2026-04-07 17:42:11.241907,145761,801616070,801617026,0.950624,-0.327936,-0.203008,-4.025,-6.7725,5.22375,-16.240002,-10.056001,17.024,concentric,2,3.0,31176.0,403133.0,364740.0,403431.0,369895.0
2026-04-07 17:42:11.243737,145762,801630614,801631918,0.950624,-0.294752,-0.201056,-3.22875,-5.60875,6.755,-15.688001,-9.856001,16.992,concentric,2,3.0,31176.0,403133.0,364740.0,403431.0,369895.0
2026-04-07 17:42:11.245389,145763,801639610,801640717,0.95648,-0.32208,-0.218624,-2.8875,-5.1625,6.71125,-15.920001,-9.808001,16.424002,concentric,2,3.0,31176.0,403133.0,364740.0,403431.0,369895.0
2026-04-07 17:42:11.249402,145764,801648587,801649469,0.95648,-0.32208,-0.218624,-3.0275,-5.39,6.44875,-15.920001,-9.808001,16.424002,concentric,2,3.0,31176.0,403133.0,364740.0,403431.0,369895.0
2026-04-07 17:42:11.251085,145765,801657525,801658208,0.95648,-0.353312,-0.21472,-2.72125,-5.83625,6.1775,-15.920001,-9.808001,16.424002,concentric,2,3.0,31176.0,403133.0,364740.0,403431.0,369895.0
2026-04-07 17:42:11.316335,145766,801672501,801673129,0.942816,-0.347456,-0.21472,-1.05,-6.23875,6.5625,-15.208001,-9.68,18.912,concentric,2,3.0,31176.0,403133.0,364740.0,403431.0,369895.0
2026-04-07 17:42:11.318528,145767,801681753,801683970,0.935008,-0.327936,-0.20496,0.62125,-7.14,7.14875,-15.232,-9.240001,15.088,concentric,2,3.0,31176.0,403133.0,364740.0,403431.0,369895.0
2026-04-07 17:42:11.326942,145768,801690671,801692701,0.935008,-0.327936,-0.20496,2.275,-7.32375,8.11125,-15.232,-9.240001,15.088,concentric,2,3.0,31176.0,403133.0,364740.0,403431.0,369895.0
2026-04-07 17:42:11.328716,145769,801705207,801705565,0.933056,-0.347456,-0.212768,3.26375,-7.42,7.385,-15.224001,-8.896001,15.328001,concentric,2,3.0,31176.0,403133.0,364740.0,403431.0,369895.0
2026-04-07 17:42:11.360683,145780,801714457,801716676,0.933056,-0.347456,-0.212768,4.27875,-7.09625,6.4925,-15.224001,-8.896001,15.328001,concentric,2,3.0,31358.0,403431.0,365848.0,403431.0,370862.0
2026-04-07 17:42:11.362464,145781,801723423,801725385,0.919392,-0.333792,-0.212768,4.76,-7.00875,5.57375,-15.128,-9.512,15.048,concentric,2,3.0,31358.0,403431.0,365848.0,403431.0,370862.0
2026-04-07 17:42:11.363885,145782,801732412,801734079,0.919392,-0.333792,-0.212768,6.265,-5.80125,5.34625,-15.128,-9.512,15.048,concentric,2,3.0,31358.0,403431.0,365848.0,403431.0,370862.0
2026-04-07 17:42:11.367331,145783,801747072,801749121,0.894016,-0.368928,-0.179584,6.86875,-3.47375,6.16875,-15.128,-9.384001,16.496,eccentric,2,3.0,31358.0,403431.0,365848.0,403431.0,370862.0
2026-04-07 17:42:11.368961,145784,801755994,801757821,0.894016,-0.368928,-0.179584,8.79375,-2.3625,6.65875,-15.128,-9.384001,16.496,eccentric,2,3.0,31358.0,403431.0,365848.0,403431.0,370862.0
2026-04-07 17:42:11.372311,145785,801764949,801766713,0.8784,-0.363072,-0.20496,12.45125,-1.30375,8.4875,-14.960001,-9.424001,15.840001,eccentric,2,3.0,31358.0,403431.0,365848.0,403431.0,370862.0
2026-04-07 17:42:11.373849,145786,801779480,801781640,0.890112,-0.300608,-0.18544,13.97375,-0.035,8.1375,-14.912001,-8.672001,15.232,eccentric,2,3.0,31358.0,403431.0,365848.0,403431.0,370862.0
2026-04-07 17:42:11.382125,145787,801788413,801790339,0.890112,-0.300608,-0.18544,13.79,1.8025,6.9125,-14.912001,-8.672001,15.232,eccentric,2,3.0,31358.0,403431.0,365848.0,403431.0,370862.0
2026-04-07 17:42:11.412549,145788,801797373,801799059,0.890112,-0.300608,-0.18544,11.76,3.01,5.81875,-14.912001,-8.672001,15.232,eccentric,2,3.0,31358.0,403431.0,365848.0,403431.0,370862.0
2026-04-07 17:42:11.414844,145789,801811885,801813969,0.86864,-0.343552,-0.17568,9.94,5.18,5.4775,-14.512001,-9.048,14.312,eccentric,2,3.0,31358.0,403431.0,365848.0,403431.0,370862.0
2026-04-07 17:42:11.441901,145799,801820959,801822789,0.84912,-0.335744,-0.134688,9.77375,6.99125,4.50625,-14.096001,-8.68,14.816001,eccentric,2,3.0,30973.0,402337.0,363371.0,403431.0,368486.0
2026-04-07 17:42:11.443647,145800,801829934,801831551,0.84912,-0.335744,-0.134688,10.675,8.9075,4.7425,-14.096001,-8.68,14.816001,eccentric,2,3.0,30973.0,402337.0,363371.0,403431.0,368486.0
2026-04-07 17:42:11.445253,145801,801838996,801840266,0.823744,-0.308416,-0.16592,10.7975,10.42125,5.76625,-14.992001,-8.88,18.640001,eccentric,2,3.0,30973.0,402337.0,363371.0,403431.0,368486.0
2026-04-07 17:42:11.448551,145802,801853573,801855276,0.823744,-0.308416,-0.16592,10.675,11.55,4.8825,-14.992001,-8.88,18.640001,eccentric,2,3.0,30973.0,402337.0,363371.0,403431.0,368486.0
2026-04-07 17:42:11.455541,145803,801862522,801864059,0.841312,-0.32208,-0.169824,10.94625,11.6375,3.465,-15.024001,-8.568001,16.648,eccentric,2,3.0,30973.0,402337.0,363371.0,403431.0,368486.0
2026-04-07 17:42:11.484124,145804,801871482,801872766,0.841312,-0.32208,-0.169824,10.2025,11.06,2.30125,-15.024001,-8.568001,16.648,eccentric,2,3.0,30973.0,402337.0,363371.0,403431.0,368486.0
2026-04-07 17:42:11.488667,145805,801886102,801887693,0.823744,-0.30256,-0.163968,11.03375,11.9525,3.01,-13.904,-8.448,16.016,eccentric,2,3.0,30973.0,402337.0,363371.0,403431.0,368486.0
2026-04-07 17:42:11.490151,145806,801895050,801896417,0.823744,-0.30256,-0.163968,9.82625,12.99375,2.24,-13.904,-8.448,16.016,eccentric,2,3.0,30973.0,402337.0,363371.0,403431.0,368486.0
2026-04-07 17:42:11.496770,145807,801903991,801905115,0.81984,-0.320128,-0.1464,8.575,14.28875,1.21625,-13.6,-8.440001,15.688001,eccentric,2,3.0,30973.0,402337.0,363371.0,403431.0,368486.0
2026-04-07 17:42:11.550778,145817,801918609,801920074,0.81984,-0.320128,-0.150304,7.67375,15.5225,0.35875,-13.6,-8.440001,15.688001,eccentric,2,3.0,30414.0,399770.0,359930.0,403431.0,365330.0
2026-04-07 17:42:11.552473,145818,801927602,801928859,0.813984,-0.32208,-0.150304,7.49875,16.84375,-0.1925,-13.480001,-8.584001,16.056002,eccentric,2,3.0,30414.0,399770.0,359930.0,403431.0,365330.0
2026-04-07 17:42:11.553962,145819,801936529,801937579,0.813984,-0.32208,-0.150304,8.16375,17.605,-1.33875,-13.480001,-8.584001,16.056002,eccentric,2,3.0,30414.0,399770.0,359930.0,403431.0,365330.0
2026-04-07 17:42:11.558192,145820,801945487,801946257,0.796416,-0.298656,-0.121024,9.12625,17.6925,-1.58375,-13.72,-8.616,15.456,eccentric,2,3.0,30414.0,399770.0,359930.0,403431.0,365330.0
2026-04-07 17:42:11.559929,145821,801959951,801961163,0.802272,-0.32208,-0.130784,8.56625,18.54125,-3.2375,-13.968,-8.376,15.576001,eccentric,2,3.0,30414.0,399770.0,359930.0,403431.0,365330.0
2026-04-07 17:42:11.561434,145822,801968964,801969857,0.802272,-0.32208,-0.130784,7.88375,19.32875,-4.6025,-13.968,-8.376,15.576001,eccentric,2,3.0,30414.0,399770.0,359930.0,403431.0,365330.0
2026-04-07 17:42:11.569313,145823,801977920,801978635,0.802272,-0.32208,-0.130784,6.0725,20.545,-5.8625,-13.968,-8.376,15.576001,eccentric,2,3.0,30414.0,399770.0,359930.0,403431.0,365330.0
2026-04-07 17:42:11.614475,145824,801992839,801993546,0.792512,-0.325984,-0.144448,7.2275,21.49,-5.635,-13.176001,-8.496,17.160002,eccentric,2,3.0,30414.0,399770.0,359930.0,403431.0,365330.0
2026-04-07 17:42:11.616153,145825,802002196,802004301,0.7808,-0.300608,-0.128832,7.97125,21.91,-6.09,-13.448001,-8.328,16.568,eccentric,2,3.0,30414.0,399770.0,359930.0,403431.0,365330.0
2026-04-07 17:42:11.618676,145826,802011113,802012977,0.7808,-0.300608,-0.128832,7.63,21.866251,-8.35625,-13.448001,-8.328,16.568,eccentric,2,3.0,30414.0,399770.0,359930.0,403431.0,365330.0
2026-04-07 17:42:11.649173,145837,802020133,802021695,0.765184,-0.316224,-0.085888,8.00625,22.12875,-9.56375,-12.912001,-8.584001,16.76,eccentric,2,3.0,29473.0,392480.0,353907.0,403431.0,360350.0
2026-04-07 17:42:11.653197,145838,802034750,802036706,0.765184,-0.316224,-0.085888,6.53625,22.32125,-10.0275,-12.912001,-8.584001,16.76,eccentric,2,3.0,29473.0,392480.0,353907.0,403431.0,360350.0
2026-04-07 17:42:11.654869,145839,802043781,802045401,0.778848,-0.32208,-0.076128,3.63125,22.295,-9.91375,-13.408001,-9.160001,16.616001,eccentric,2,3.0,29473.0,392480.0,353907.0,403431.0,360350.0
2026-04-07 17:42:11.656444,145840,802052752,802054154,0.778848,-0.32208,-0.076128,0.805,23.47625,-10.29875,-13.408001,-9.160001,16.616001,eccentric,2,3.0,29473.0,392480.0,353907.0,403431.0,360350.0
2026-04-07 17:42:11.660546,145841,802067274,802069110,0.774944,-0.316224,-0.101504,-0.46375,24.15875,-10.50875,-14.048,-9.168,18.448,eccentric,2,3.0,29473.0,392480.0,353907.0,403431.0,360350.0
2026-04-07 17:42:11.689063,145842,802076202,802077821,0.774944,-0.316224,-0.101504,-0.1925,24.96375,-11.13,-14.048,-9.168,18.448,eccentric,2,3.0,29473.0,392480.0,353907.0,403431.0,360350.0
2026-04-07 17:42:11.693776,145843,802085126,802086501,0.763232,-0.316224,-0.093696,0.07875,24.85875,-12.59125,-13.216001,-8.848001,17.064001,eccentric,2,3.0,29473.0,392480.0,353907.0,403431.0,360350.0
2026-04-07 17:42:11.699469,145844,802099600,802101437,0.77104,-0.327936,-0.06832,1.8725,23.68625,-12.4425,-13.216001,-8.848001,17.256,eccentric,2,3.0,29473.0,392480.0,353907.0,403431.0,360350.0
2026-04-07 17:42:11.701846,145845,802108537,802110163,0.77104,-0.327936,-0.06832,0.1925,23.345,-12.792501,-13.480001,-8.944,17.256,eccentric,2,3.0,29473.0,392480.0,353907.0,403431.0,360350.0
2026-04-07 17:42:11.757724,145855,802117465,802118865,0.77104,-0.327936,-0.06832,-1.05875,23.4675,-12.10125,-13.480001,-8.944,17.256,eccentric,2,3.0,29002.0,388851.0,351143.0,403431.0,358428.0
2026-04-07 17:42:11.762019,145856,802126388,802127632,0.778848,-0.314272,-0.066368,-2.61625,23.8875,-11.97875,-12.992001,-8.8,18.400002,eccentric,2,3.0,29002.0,388851.0,351143.0,403431.0,358428.0
2026-04-07 17:42:11.763661,145857,802140859,802142557,0.79056,-0.325984,-0.066368,-3.325,24.3775,-13.04625,-13.208,-9.280001,16.968,eccentric,2,3.0,29002.0,388851.0,351143.0,403431.0,358428.0
2026-04-07 17:42:11.765256,145858,802149793,802151241,0.79056,-0.325984,-0.066368,-3.75375,25.54125,-14.88375,-13.208,-9.280001,16.968,eccentric,2,3.0,29002.0,388851.0,351143.0,403431.0,358428.0
2026-04-07 17:42:11.769411,145859,802158752,802159971,0.79056,-0.325984,-0.066368,-0.91,26.62625,-15.30375,-13.208,-9.280001,16.968,eccentric,2,3.0,29002.0,388851.0,351143.0,403431.0,358428.0
2026-04-07 17:42:11.771823,145860,802173237,802174952,0.786656,-0.318176,-0.089792,-0.00875,26.32,-14.6475,-13.648001,-9.784,20.52,eccentric,2,3.0,29002.0,388851.0,351143.0,403431.0,358428.0
2026-04-07 17:42:11.775508,145861,802182195,802183656,0.794464,-0.325984,-0.074176,-1.645,25.75125,-15.09375,-13.280001,-9.312,18.08,eccentric,2,3.0,29002.0,388851.0,351143.0,403431.0,358428.0
2026-04-07 17:42:11.804127,145862,802191112,802192368,0.794464,-0.325984,-0.074176,-2.03,25.235,-15.23375,-13.280001,-9.312,18.08,eccentric,2,3.0,29002.0,388851.0,351143.0,403431.0,358428.0
2026-04-07 17:42:11.808609,145863,802205585,802207293,0.792512,-0.325984,-0.052704,-4.5675,24.52625,-15.51375,-12.808001,-9.368,18.176,eccentric,2,3.0,29002.0,388851.0,351143.0,403431.0,358428.0
2026-04-07 17:42:11.810134,145864,802214534,802215989,0.792512,-0.325984,-0.052704,-5.38125,25.2525,-16.6425,-12.808001,-9.368,18.176,eccentric,2,3.0,29002.0,388851.0,351143.0,403431.0,358428.0
2026-04-07 17:42:11.836765,145874,802223560,802224810,0.794464,-0.3416,-0.040992,-4.515,26.36375,-17.0625,-12.976001,-9.896001,18.296001,eccentric,2,3.0,28678.0,386084.0,348780.0,403431.0,356547.0
2026-04-07 17:42:11.841104,145875,802238085,802239760,0.794464,-0.3416,-0.040992,-5.7225,27.18625,-17.3075,-12.976001,-9.896001,18.296001,eccentric,2,3.0,28678.0,386084.0,348780.0,403431.0,356547.0
2026-04-07 17:42:11.842595,145876,802247041,802248477,0.782752,-0.324032,-0.066368,-6.0375,28.04375,-16.89625,-13.144001,-9.92,19.28,eccentric,2,3.0,28678.0,386084.0,348780.0,403431.0,356547.0
2026-04-07 17:42:11.851775,145877,802255948,802257167,0.782752,-0.324032,-0.066368,-6.11625,28.67375,-17.22875,-13.144001,-9.92,19.28,eccentric,2,3.0,28678.0,386084.0,348780.0,403431.0,356547.0
2026-04-07 17:42:11.857997,145878,802264898,802265863,0.794464,-0.286944,-0.021472,-7.3675,28.875,-18.165,-13.328001,-9.728001,20.216002,eccentric,2,3.0,28678.0,386084.0,348780.0,403431.0,356547.0
2026-04-07 17:42:11.920075,145879,802279476,802280753,0.794464,-0.286944,-0.021472,-6.23875,29.65375,-18.40125,-13.328001,-9.728001,20.216002,eccentric,2,3.0,28678.0,386084.0,348780.0,403431.0,356547.0
2026-04-07 17:42:11.924420,145880,802288371,802289477,0.767136,-0.314272,-0.025376,-8.5925,29.5575,-19.36375,-12.84,-10.616,20.768002,eccentric,2,3.0,28678.0,386084.0,348780.0,403431.0,356547.0
2026-04-07 17:42:11.926128,145881,802297298,802298172,0.767136,-0.314272,-0.025376,-10.66625,29.23375,-20.553751,-12.84,-10.616,20.768002,eccentric,2,3.0,28678.0,386084.0,348780.0,403431.0,356547.0
2026-04-07 17:42:11.927795,145882,802311771,802313052,0.782752,-0.33184,-0.02928,-9.2575,28.25375,-21.21875,-13.392,-10.376,19.768002,eccentric,2,3.0,28678.0,386084.0,348780.0,403431.0,356547.0
2026-04-07 17:42:11.958627,145893,802320754,802322096,0.769088,-0.314272,-0.050752,-8.26875,26.9675,-23.135,-13.392,-10.376,20.160002,eccentric,2,3.0,28365.0,383193.0,346356.0,403431.0,355068.0
2026-04-07 17:42:11.960339,145894,802329731,802330858,0.769088,-0.314272,-0.050752,-5.7225,26.04,-23.86125,-12.704,-11.352,20.160002,eccentric,2,3.0,28365.0,383193.0,346356.0,403431.0,355068.0
2026-04-07 17:42:11.964416,145895,802344231,802345841,0.732,-0.27328,-0.025376,-7.32375,24.5,-26.27625,-13.552001,-11.512,20.792002,eccentric,2,3.0,28365.0,383193.0,346356.0,403431.0,355068.0
2026-04-07 17:42:11.966227,145896,802353172,802354559,0.732,-0.27328,-0.025376,-4.83,23.09125,-27.39625,-13.552001,-11.512,20.792002,eccentric,2,3.0,28365.0,383193.0,346356.0,403431.0,355068.0
2026-04-07 17:42:11.967805,145897,802362207,802363281,0.74176,-0.31232,0.011712,-6.99125,20.72,-28.42,-13.248001,-11.512,21.672,eccentric,2,3.0,28365.0,383193.0,346356.0,403431.0,355068.0
2026-04-07 17:42:11.971805,145898,802376685,802378236,0.74176,-0.31232,0.011712,-9.5725,18.6725,-29.09375,-13.248001,-11.512,21.672,eccentric,2,3.0,28365.0,383193.0,346356.0,403431.0,355068.0
2026-04-07 17:42:11.978090,145899,802385634,802387013,0.813984,-0.2928,-0.033184,-10.17625,17.4825,-28.48125,-13.344001,-11.776001,21.208,eccentric,2,3.0,28365.0,383193.0,346356.0,403431.0,355068.0
2026-04-07 17:42:12.008681,145900,802394578,802395744,0.813984,-0.2928,-0.033184,-10.77125,17.2375,-30.5025,-13.344001,-11.776001,21.208,eccentric,2,3.0,28365.0,383193.0,346356.0,403431.0,355068.0
2026-04-07 17:42:12.010958,145901,802403483,802404451,0.80032,-0.230336,-0.017568,-6.37,19.10125,-32.1825,-12.56,-12.280001,19.432001,eccentric,2,3.0,28365.0,383193.0,346356.0,403431.0,355068.0
2026-04-07 17:42:12.015701,145902,802417964,802419353,0.80032,-0.230336,-0.017568,-3.84125,19.94125,-33.83625,-12.56,-12.280001,19.432001,eccentric,2,3.0,28365.0,383193.0,346356.0,403431.0,355068.0
2026-04-07 17:42:12.039032,145912,802426948,802428103,0.765184,-0.27328,-0.001952,-4.06,19.53875,-35.0525,-12.84,-12.000001,19.744001,eccentric,2,3.0,28180.0,381246.0,344607.0,403431.0,353378.0
2026-04-07 17:42:12.043208,145913,802435935,802436853,0.765184,-0.27328,-0.001952,-4.50625,18.7425,-33.845,-12.84,-12.000001,19.744001,eccentric,2,3.0,28180.0,381246.0,344607.0,403431.0,353378.0
2026-04-07 17:42:12.044718,145914,802450445,802451828,0.80032,-0.279136,0.005856,-5.915,15.8375,-32.76,-12.736001,-12.696001,20.208,eccentric,2,3.0,28180.0,381246.0,344607.0,403431.0,353378.0
2026-04-07 17:42:12.051814,145915,802459402,802460579,0.80032,-0.279136,0.005856,-5.06625,15.75875,-33.38125,-12.736001,-12.696001,20.208,eccentric,2,3.0,28180.0,381246.0,344607.0,403431.0,353378.0
2026-04-07 17:42:12.080362,145916,802468331,802469290,0.802272,-0.212768,0.011712,-2.3975,18.13875,-33.38125,-12.816001,-12.76,18.888,eccentric,2,3.0,28180.0,381246.0,344607.0,403431.0,353378.0
2026-04-07 17:42:12.084016,145917,802482820,802484177,0.796416,-0.238144,0.0,-5.3375,19.285,-33.5825,-12.68,-13.368001,20.432001,eccentric,2,3.0,28180.0,381246.0,344607.0,403431.0,353378.0
2026-04-07 17:42:12.086454,145918,802491752,802492808,0.796416,-0.238144,0.0,-9.19625,19.99375,-33.50375,-12.68,-13.368001,20.432001,eccentric,2,3.0,28180.0,381246.0,344607.0,403431.0,353378.0
2026-04-07 17:42:12.092149,145919,802500664,802501556,0.796416,-0.238144,0.0,-6.9125,20.405,-32.445,-12.68,-13.368001,20.432001,eccentric,2,3.0,28180.0,381246.0,344607.0,403431.0,353378.0
2026-04-07 17:42:12.122495,145920,802515157,802516506,0.847168,-0.25376,0.033184,-6.16875,20.32625,-32.7425,-12.696001,-13.488001,19.352001,eccentric,2,3.0,28180.0,381246.0,344607.0,403431.0,353378.0
2026-04-07 17:42:12.151990,145930,802524222,802525242,0.815936,-0.203008,-0.003904,-6.9125,21.7,-34.16,-12.280001,-14.208001,20.776001,eccentric,2,3.0,27489.0,375693.0,340235.0,402911.0,349669.0
2026-04-07 17:42:12.153625,145931,802533246,802533953,0.815936,-0.203008,-0.003904,-5.565,23.40625,-35.09625,-12.280001,-14.208001,20.776001,eccentric,2,3.0,27489.0,375693.0,340235.0,402911.0,349669.0
2026-04-07 17:42:12.155237,145932,802542672,802544746,0.831552,-0.210816,0.035136,-7.9275,24.54375,-33.635,-13.208,-14.944,22.048,eccentric,2,3.0,27489.0,375693.0,340235.0,402911.0,349669.0
2026-04-07 17:42:12.159394,145933,802557375,802559676,0.831552,-0.210816,0.035136,-11.38375,25.4625,-32.54125,-13.208,-14.944,22.048,eccentric,2,3.0,27489.0,375693.0,340235.0,402911.0,349669.0
2026-04-07 17:42:12.161925,145934,802566353,802568398,0.817888,-0.220576,0.040992,-11.9525,24.78,-33.48625,-12.376,-14.584001,21.872002,eccentric,2,3.0,27489.0,375693.0,340235.0,402911.0,349669.0
2026-04-07 17:42:12.215135,145935,802575327,802577106,0.817888,-0.220576,0.040992,-9.56375,24.2025,-34.25625,-12.376,-14.584001,21.872002,eccentric,2,3.0,27489.0,375693.0,340235.0,402911.0,349669.0
2026-04-07 17:42:12.218716,145936,802589882,802592016,0.823744,-0.222528,0.037088,-5.34625,22.7675,-34.62375,-12.360001,-15.120001,22.768002,eccentric,2,3.0,27489.0,375693.0,340235.0,402911.0,349669.0
2026-04-07 17:42:12.221055,145937,802598792,802600710,0.823744,-0.222528,0.037088,-3.01,22.3825,-35.84875,-12.360001,-15.120001,22.768002,eccentric,2,3.0,27489.0,375693.0,340235.0,402911.0,349669.0
2026-04-07 17:42:12.223600,145938,802607724,802609402,0.81984,-0.169824,0.054656,-3.1325,22.0675,-36.96,-12.672001,-15.184001,21.568,eccentric,2,3.0,27489.0,375693.0,340235.0,402911.0,349669.0
2026-04-07 17:42:12.225052,145939,802616648,802618081,0.81984,-0.169824,0.054656,-2.51125,21.76125,-37.59875,-12.672001,-15.184001,21.568,eccentric,2,3.0,27489.0,375693.0,340235.0,402911.0,349669.0
2026-04-07 17:42:12.253552,145950,802631209,802633025,0.804224,-0.173728,0.080032,-1.82,21.35875,-38.64,-12.128,-15.344001,21.184002,eccentric,2,3.0,27054.0,372328.0,337795.0,401233.0,347424.0
2026-04-07 17:42:12.255134,145951,802640263,802641760,0.804224,-0.173728,0.080032,-2.2225,20.405,-39.69875,-12.128,-15.344001,21.184002,eccentric,2,3.0,27054.0,372328.0,337795.0,401233.0,347424.0
2026-04-07 17:42:12.259420,145952,802649314,802650531,0.7808,-0.218624,0.037088,-0.3675,18.69,-38.00125,-11.928,-15.760001,21.432001,eccentric,2,3.0,27054.0,372328.0,337795.0,401233.0,347424.0
2026-04-07 17:42:12.261849,145953,802663819,802665544,0.7808,-0.17568,0.064416,-1.39125,17.2375,-36.81125,-12.240001,-16.272001,21.496,eccentric,2,3.0,27054.0,372328.0,337795.0,401233.0,347424.0
2026-04-07 17:42:12.274477,145954,802672832,802674248,0.7808,-0.17568,0.064416,0.72625,16.96625,-35.14875,-12.240001,-16.272001,21.496,eccentric,2,3.0,27054.0,372328.0,337795.0,401233.0,347424.0
2026-04-07 17:42:12.276873,145955,802681764,802682930,0.7808,-0.128832,0.046848,2.345,15.47875,-33.74875,-12.240001,-16.272001,21.496,eccentric,2,3.0,27054.0,372328.0,337795.0,401233.0,347424.0
2026-04-07 17:42:12.305290,145956,802696360,802697887,0.772992,-0.128832,0.046848,2.58125,14.315001,-31.73625,-12.176001,-15.344001,22.256,eccentric,2,3.0,27054.0,372328.0,337795.0,401233.0,347424.0
2026-04-07 17:42:12.310250,145957,802705279,802706611,0.782752,-0.124928,0.083936,3.70125,13.965,-29.741251,-11.632001,-16.312,21.728,eccentric,2,3.0,27054.0,372328.0,337795.0,401233.0,347424.0
2026-04-07 17:42:12.315692,145958,802714263,802715296,0.782752,-0.124928,0.083936,3.605,14.11375,-29.11125,-11.632001,-16.312,21.728,eccentric,2,3.0,27054.0,372328.0,337795.0,401233.0,347424.0
2026-04-07 17:42:12.342341,145968,802723567,802724287,0.823744,-0.12688,0.091744,3.535,14.13125,-28.7875,-12.544001,-17.04,24.536001,eccentric,2,3.0,26814.0,370530.0,336666.0,400302.0,346258.0
2026-04-07 17:42:12.343900,145969,802738669,802739316,0.823744,-0.12688,0.091744,2.51125,14.8575,-29.6275,-12.544001,-17.04,24.536001,eccentric,2,3.0,26814.0,370530.0,336666.0,400302.0,346258.0
2026-04-07 17:42:12.348393,145970,802747943,802750151,0.821792,-0.101504,0.095648,2.17875,16.94,-30.6775,-12.584001,-17.192001,24.720001,eccentric,2,3.0,26814.0,370530.0,336666.0,400302.0,346258.0
2026-04-07 17:42:12.350663,145971,802756907,802758862,0.821792,-0.101504,0.095648,0.21875,18.29625,-30.485,-12.584001,-17.192001,24.720001,eccentric,2,3.0,26814.0,370530.0,336666.0,400302.0,346258.0
2026-04-07 17:42:12.379122,145972,802765861,802767551,0.806176,-0.144448,0.064416,-4.36625,18.235,-28.98,-12.576,-17.408,23.688002,eccentric,2,3.0,26814.0,370530.0,336666.0,400302.0,346258.0
2026-04-07 17:42:12.383570,145973,802780361,802782372,0.806176,-0.144448,0.064416,-6.9825,16.19625,-26.075,-12.576,-17.408,23.688002,eccentric,2,3.0,26814.0,370530.0,336666.0,400302.0,346258.0
2026-04-07 17:42:12.385248,145974,802789314,802791084,0.8296,-0.140544,0.074176,-7.35,13.92125,-24.675,-11.768001,-17.232,22.216002,eccentric,2,3.0,26814.0,370530.0,336666.0,400302.0,346258.0
2026-04-07 17:42:12.424991,145975,802798238,802799773,0.8296,-0.140544,0.074176,-5.99375,12.97625,-23.205,-11.768001,-17.232,22.216002,eccentric,2,3.0,26814.0,370530.0,336666.0,400302.0,346258.0
2026-04-07 17:42:12.427460,145976,802812785,802814664,0.804224,-0.0976,0.05856,-5.2675,10.66625,-21.53375,-11.392,-17.488,22.576,eccentric,2,3.0,26814.0,370530.0,336666.0,400302.0,346258.0
2026-04-07 17:42:12.458992,145986,802821823,802823429,0.804224,-0.0976,0.05856,-4.7775,9.56375,-19.3725,-11.392,-17.488,22.576,eccentric,2,3.0,26673.0,369718.0,336253.0,400095.0,346219.0
2026-04-07 17:42:12.466917,145987,802831158,802832247,0.81984,-0.06832,0.044896,-2.58125,9.7475,-19.1275,-11.728001,-18.032001,22.688002,eccentric,2,3.0,26673.0,369718.0,336253.0,400095.0,346219.0
2026-04-07 17:42:12.468865,145988,802840093,802840929,0.81984,-0.06832,0.044896,-0.6475,10.01,-20.335001,-11.728001,-18.032001,22.688002,eccentric,2,3.0,26673.0,369718.0,336253.0,400095.0,346219.0
2026-04-07 17:42:12.470529,145989,802854647,802855848,0.815936,-0.062464,0.046848,1.14625,8.82875,-21.6125,-11.072001,-17.656,23.304,eccentric,2,3.0,26673.0,369718.0,336253.0,400095.0,346219.0
2026-04-07 17:42:12.476956,145990,802863654,802864539,0.84912,-0.10736,0.066368,1.21625,7.5775,-22.65375,-11.064,-17.6,22.968,eccentric,2,3.0,26673.0,369718.0,336253.0,400095.0,346219.0
2026-04-07 17:42:12.478729,145991,802872655,802873267,0.84912,-0.10736,0.066368,0.70875,6.79,-22.505,-11.064,-17.6,22.968,eccentric,2,3.0,26673.0,369718.0,336253.0,400095.0,346219.0
2026-04-07 17:42:12.480158,145992,802887427,802888235,0.83936,-0.1464,0.025376,2.9925,6.0025,-22.12,-11.704,-18.064001,23.712002,eccentric,2,3.0,26673.0,369718.0,336253.0,400095.0,346219.0
2026-04-07 17:42:12.517566,145993,802896984,802899027,0.83936,-0.1464,0.025376,4.99625,4.76,-19.845,-11.704,-18.064001,23.712002,eccentric,2,3.0,26673.0,369718.0,336253.0,400095.0,346219.0
2026-04-07 17:42:12.519781,145994,802905914,802907720,0.841312,-0.095648,0.033184,5.76625,3.21125,-16.91375,-11.456,-17.992,22.36,eccentric,2,3.0,26673.0,369718.0,336253.0,400095.0,346219.0
2026-04-07 17:42:12.528309,145995,802914816,802916397,0.841312,-0.095648,0.033184,7.14875,1.7675,-15.14625,-11.456,-17.992,22.36,eccentric,2,3.0,26673.0,369718.0,336253.0,400095.0,346219.0
2026-04-07 17:42:12.553939,146006,802929401,802931510,0.847168,-0.10736,0.03904,5.94125,0.37625,-13.195,-11.448001,-17.952002,22.624,eccentric,2,3.0,26664.0,369137.0,335570.0,399004.0,345527.0
2026-04-07 17:42:12.558139,146007,802938383,802940267,0.847168,-0.10736,0.03904,3.56125,-0.44625,-10.98125,-11.448001,-17.952002,22.624,eccentric,2,3.0,26664.0,369137.0,335570.0,399004.0,345527.0
2026-04-07 17:42:12.559874,146008,802947334,802948974,0.81984,-0.144448,0.005856,2.38875,-0.97125,-8.46125,-10.904,-18.392,22.728,eccentric,2,3.0,26664.0,369137.0,335570.0,399004.0,345527.0
2026-04-07 17:42:12.561440,146009,802961958,802963869,0.81984,-0.144448,0.005856,2.1875,-2.02125,-4.87375,-10.904,-18.392,22.728,eccentric,2,3.0,26664.0,369137.0,335570.0,399004.0,345527.0
2026-04-07 17:42:12.565494,146010,802970892,802972619,0.80032,-0.083936,0.017568,1.5925,-2.80875,-2.10875,-11.288,-18.144001,22.400002,eccentric,2,3.0,26664.0,369137.0,335570.0,399004.0,345527.0
2026-04-07 17:42:12.594108,146011,802979805,802981308,0.80032,-0.083936,0.017568,3.87625,-3.675,-1.68,-11.288,-18.144001,22.400002,eccentric,2,3.0,26664.0,369137.0,335570.0,399004.0,345527.0
2026-04-07 17:42:12.597847,146012,802994321,802996219,0.782752,-0.0976,0.025376,5.845,-3.85,-1.46125,-11.152,-18.216002,22.552002,eccentric,2,3.0,26664.0,369137.0,335570.0,399004.0,345527.0
2026-04-07 17:42:12.600970,146013,803003233,803004922,0.782752,-0.144448,0.0,6.5275,-3.70125,-1.3825,-11.152,-18.216002,22.552002,eccentric,2,3.0,26664.0,369137.0,335570.0,399004.0,345527.0
2026-04-07 17:42:12.604671,146014,803012144,803013621,0.79056,-0.144448,0.0,6.9475,-4.5675,-0.25375,-11.464001,-17.904001,22.576,eccentric,2,3.0,26664.0,369137.0,335570.0,399004.0,345527.0
2026-04-07 17:42:12.659443,146024,803027025,803028632,0.827648,-0.091744,0.035136,5.92375,-5.92375,2.205,-11.864,-17.480001,22.392,eccentric,2,3.0,27091.0,371982.0,337387.0,400168.0,346821.0
2026-04-07 17:42:12.661158,146025,803035957,803037388,0.827648,-0.091744,0.035136,3.6225,-5.8275,3.66625,-11.864,-17.480001,22.392,eccentric,2,3.0,27091.0,371982.0,337387.0,400168.0,346821.0
2026-04-07 17:42:12.662776,146026,803044906,803046071,0.808128,-0.150304,0.007808,-0.98875,-5.5825,5.0575,-11.400001,-17.464,21.080002,eccentric,2,3.0,27091.0,371982.0,337387.0,400168.0,346821.0
2026-04-07 17:42:12.667036,146027,803053989,803054779,0.808128,-0.150304,0.007808,-4.15625,-6.615,7.35875,-11.400001,-17.464,21.080002,eccentric,2,3.0,27091.0,371982.0,337387.0,400168.0,346821.0
2026-04-07 17:42:12.668767,146028,803068503,803069661,0.784704,-0.128832,-0.007808,-1.47875,-7.7875,8.79375,-12.416,-17.632,23.544,eccentric,2,3.0,27091.0,371982.0,337387.0,400168.0,346821.0
2026-04-07 17:42:12.670883,146029,803077438,803078373,0.784704,-0.128832,-0.007808,4.64625,-9.0825,8.86375,-12.416,-17.632,23.544,eccentric,2,3.0,27091.0,371982.0,337387.0,400168.0,346821.0
2026-04-07 17:42:12.679374,146030,803086398,803087089,0.786656,-0.105408,-0.03904,10.3425,-11.0075,9.975,-12.248,-18.208,23.232,eccentric,2,3.0,27091.0,371982.0,337387.0,400168.0,346821.0
2026-04-07 17:42:12.711522,146031,803095711,803097848,0.786656,-0.105408,-0.03904,14.90125,-12.7225,11.71625,-12.248,-18.208,23.232,eccentric,2,3.0,27091.0,371982.0,337387.0,400168.0,346821.0
2026-04-07 17:42:12.712344,146032,803110172,803110647,0.821792,-0.095648,0.027328,15.8725,-13.615,11.235,-11.544001,-17.576,21.608002,eccentric,2,3.0,27091.0,371982.0,337387.0,400168.0,346821.0
2026-04-07 17:42:12.713995,146033,803119501,803121419,0.821792,-0.095648,0.027328,14.805,-13.055,11.12125,-11.544001,-17.576,21.608002,eccentric,2,3.0,27091.0,371982.0,337387.0,400168.0,346821.0
2026-04-07 17:42:12.743666,146043,803128612,803130587,0.753472,-0.130784,0.007808,12.3375,-13.30875,13.11625,-11.592001,-17.248001,21.992,eccentric,2,3.0,27397.0,374440.0,339217.0,401661.0,347989.0
2026-04-07 17:42:12.745297,146044,803143166,803143483,0.753472,-0.130784,0.007808,11.2875,-16.135,16.7125,-11.592001,-17.248001,21.992,eccentric,2,3.0,27397.0,374440.0,339217.0,401661.0,347989.0
2026-04-07 17:42:12.749397,146045,803152403,803154244,0.74176,-0.124928,-0.017568,12.25,-19.678751,19.95875,-11.448001,-16.2,25.104002,eccentric,2,3.0,27397.0,374440.0,339217.0,401661.0,347989.0
2026-04-07 17:42:12.754293,146046,803161421,803163059,0.74176,-0.124928,-0.017568,14.60375,-23.63375,22.960001,-11.448001,-16.2,25.104002,eccentric,2,3.0,27397.0,374440.0,339217.0,401661.0,347989.0
2026-04-07 17:42:12.815014,146047,803170366,803171769,0.749568,-0.113216,-0.062464,17.29,-27.50125,26.5825,-12.208,-16.376001,22.512001,eccentric,2,3.0,27397.0,374440.0,339217.0,401661.0,347989.0
2026-04-07 17:42:12.819448,146048,803184883,803186662,0.763232,-0.06832,-0.013664,19.73125,-29.61875,27.125,-11.728001,-16.072,20.128,eccentric,2,3.0,27397.0,374440.0,339217.0,401661.0,347989.0
2026-04-07 17:42:12.821078,146049,803193870,803195348,0.763232,-0.06832,-0.013664,21.30625,-28.84,24.22875,-11.728001,-16.072,20.128,eccentric,2,3.0,27397.0,374440.0,339217.0,401661.0,347989.0
2026-04-07 17:42:12.822643,146050,803202806,803204030,0.763232,-0.06832,-0.013664,23.49375,-29.1025,24.3425,-11.728001,-16.072,20.128,eccentric,2,3.0,27397.0,374440.0,339217.0,401661.0,347989.0
2026-04-07 17:42:12.827083,146051,803217271,803218967,0.74176,-0.124928,-0.01952,23.19625,-29.4525,28.28875,-11.176001,-15.744,21.136002,eccentric,2,3.0,27397.0,374440.0,339217.0,401661.0,347989.0
