pc_time,serial_num,sensor_ts,host_ts,ax,ay,az,gx,gy,gz,mx,my,mz,phase,rpe,weight_kg,ppg_a,ppg_b,ppg_c,ppg_d,ppg_e
2026-04-07 17:42:12.858145,146062,803226628,803227698,0.808128,-0.163968,-0.037088,20.23875,-30.07375,30.40625,-11.864,-15.096001,19.960001,concentric,2,3.0,28462.0,382619.0,345408.0,403431.0,352734.0
2026-04-07 17:42:12.859851,146063,803235636,803236430,0.808128,-0.163968,-0.037088,18.375,-30.5725,30.31875,-11.864,-15.096001,19.960001,concentric,2,3.0,28462.0,382619.0,345408.0,403431.0,352734.0
2026-04-07 17:42:12.861538,146064,803245027,803247265,0.83936,-0.171776,-0.064416,17.36,-29.96875,29.53125,-12.088,-15.080001,21.128,concentric,2,3.0,28462.0,382619.0,345408.0,403431.0,352734.0
2026-04-07 17:42:12.865607,146065,803259591,803260202,0.83936,-0.171776,-0.064416,21.525,-29.12,28.81375,-12.088,-15.080001,21.128,concentric,2,3.0,28462.0,382619.0,345408.0,403431.0,352734.0
2026-04-07 17:42:12.867242,146066,803268858,803270994,0.823744,-0.140544,-0.042944,26.32875,-29.1725,28.69125,-12.208,-14.296001,21.288,concentric,2,3.0,28462.0,382619.0,345408.0,403431.0,352734.0
2026-04-07 17:42:12.870413,146067,803277818,803279698,0.823744,-0.140544,-0.042944,29.70625,-29.3825,28.09625,-12.208,-14.296001,21.288,concentric,2,3.0,28462.0,382619.0,345408.0,403431.0,352734.0
2026-04-07 17:42:12.904043,146068,803292331,803294583,0.786656,-0.179584,-0.031232,30.4675,-29.9075,28.20125,-11.616,-14.048,20.168001,concentric,2,3.0,28462.0,382619.0,345408.0,403431.0,352734.0
2026-04-07 17:42:12.907794,146069,803301256,803303334,0.786656,-0.179584,-0.031232,27.72875,-29.723751,31.115,-11.616,-14.048,20.168001,concentric,2,3.0,28462.0,382619.0,345408.0,403431.0,352734.0
2026-04-07 17:42:12.910391,146070,803310163,803312031,0.821792,-0.171776,-0.003904,20.72,-29.995,34.44875,-11.856001,-13.752001,19.232,concentric,2,3.0,28462.0,382619.0,345408.0,403431.0,352734.0
2026-04-07 17:42:12.937608,146080,803324660,803326973,0.821792,-0.173728,-0.050752,12.55625,-28.8925,34.23,-11.856001,-13.752001,19.232,concentric,2,3.0,29340.0,389539.0,350807.0,403431.0,357230.0
2026-04-07 17:42:12.940130,146081,803333973,803335736,0.831552,-0.173728,-0.050752,11.48875,-28.14,33.0575,-11.432,-13.224001,18.968,concentric,2,3.0,29340.0,389539.0,350807.0,403431.0,357230.0
2026-04-07 17:42:12.942613,146082,803342960,803344505,0.831552,-0.173728,-0.050752,14.18375,-27.4225,31.185,-11.432,-13.224001,18.968,concentric,2,3.0,29340.0,389539.0,350807.0,403431.0,357230.0
2026-04-07 17:42:12.945094,146083,803351978,803353228,0.804224,-0.183488,-0.040992,18.45375,-27.95625,28.62125,-11.568001,-12.632001,18.480001,concentric,2,3.0,29340.0,389539.0,350807.0,403431.0,357230.0
2026-04-07 17:42:12.975271,146084,803366545,803368138,0.806176,-0.23424,-0.080032,21.13125,-29.365,27.50125,-11.904,-12.736001,17.384,concentric,2,3.0,29340.0,389539.0,350807.0,403431.0,357230.0
2026-04-07 17:42:12.978902,146085,803375463,803376861,0.806176,-0.23424,-0.080032,19.92375,-31.31625,28.8925,-11.904,-12.736001,17.384,concentric,2,3.0,29340.0,389539.0,350807.0,403431.0,357230.0
2026-04-07 17:42:12.981386,146086,803384391,803385558,0.806176,-0.23424,-0.080032,14.74375,-31.98125,31.535,-11.904,-12.736001,17.384,concentric,2,3.0,29340.0,389539.0,350807.0,403431.0,357230.0
2026-04-07 17:42:13.011603,146087,803398918,803400461,0.864736,-0.236192,0.007808,7.48125,-29.61875,32.62,-11.904,-12.104001,17.368,concentric,2,3.0,29340.0,389539.0,350807.0,403431.0,357230.0
2026-04-07 17:42:13.015231,146088,803407832,803409164,0.823744,-0.23424,-0.062464,4.08625,-26.565,31.66625,-12.144001,-11.920001,17.720001,concentric,2,3.0,29340.0,389539.0,350807.0,403431.0,357230.0
2026-04-07 17:42:13.021349,146089,803416768,803417836,0.823744,-0.23424,-0.062464,5.8975,-25.095,29.68,-12.144001,-11.920001,17.720001,concentric,2,3.0,29340.0,389539.0,350807.0,403431.0,357230.0
2026-04-07 17:42:13.046403,146099,803431496,803432852,0.765184,-0.236192,-0.089792,10.3425,-24.59625,27.20375,-11.864,-11.296001,17.28,concentric,2,3.0,29746.0,392994.0,353757.0,403431.0,359864.0
2026-04-07 17:42:13.048894,146100,803440504,803441680,0.765184,-0.236192,-0.089792,16.555,-26.04,26.11875,-11.864,-11.296001,17.28,concentric,2,3.0,29746.0,392994.0,353757.0,403431.0,359864.0
2026-04-07 17:42:13.051344,146101,803449428,803450377,0.817888,-0.249856,-0.06832,19.705,-28.0525,25.62875,-12.000001,-11.112,18.28,concentric,2,3.0,29746.0,392994.0,353757.0,403431.0,359864.0
2026-04-07 17:42:13.053810,146102,803458363,803459080,0.817888,-0.249856,-0.06832,15.925,-27.76375,25.05125,-12.000001,-11.112,18.28,concentric,2,3.0,29746.0,392994.0,353757.0,403431.0,359864.0
2026-04-07 17:42:13.112933,146103,803473435,803474033,0.7808,-0.300608,-0.03904,10.535,-26.241251,27.2475,-12.704,-10.952001,16.720001,concentric,2,3.0,29746.0,392994.0,353757.0,403431.0,359864.0
2026-04-07 17:42:13.117336,146104,803482713,803484794,0.7808,-0.300608,-0.03904,5.74875,-24.59625,29.65375,-12.704,-10.952001,16.720001,concentric,2,3.0,29746.0,392994.0,353757.0,403431.0,359864.0
2026-04-07 17:42:13.118835,146105,803491648,803493488,0.733952,-0.281088,-0.046848,-0.18375,-24.08,31.21125,-11.672001,-11.104,16.648,concentric,2,3.0,29746.0,392994.0,353757.0,403431.0,359864.0
2026-04-07 17:42:13.123192,146106,803500570,803502181,0.733952,-0.281088,-0.046848,0.77,-25.0775,31.928751,-11.672001,-11.104,16.648,concentric,2,3.0,29746.0,392994.0,353757.0,403431.0,359864.0
2026-04-07 17:42:13.124839,146107,803515056,803517044,0.76128,-0.275232,-0.109312,3.255,-27.1425,30.94,-12.024,-10.376,16.192001,concentric,2,3.0,29746.0,392994.0,353757.0,403431.0,359864.0
2026-04-07 17:42:13.127352,146108,803523992,803525735,0.76128,-0.275232,-0.109312,3.57,-28.56,27.772501,-12.024,-10.376,16.192001,concentric,2,3.0,29746.0,392994.0,353757.0,403431.0,359864.0
2026-04-07 17:42:13.155656,146119,803533051,803534534,0.772992,-0.269376,-0.128832,5.4425,-29.47875,24.92,-12.112,-9.696,16.368,concentric,2,3.0,29960.0,394712.0,355229.0,403431.0,361240.0
2026-04-07 17:42:13.157304,146120,803547761,803549533,0.847168,-0.345504,-0.091744,4.97,-29.3125,23.178751,-11.808001,-9.464001,15.6,concentric,2,3.0,29960.0,394712.0,355229.0,403431.0,361240.0
2026-04-07 17:42:13.159035,146121,803556731,803558240,0.847168,-0.345504,-0.091744,-1.7675,-28.30625,21.1225,-11.808001,-9.464001,15.6,concentric,2,3.0,29960.0,394712.0,355229.0,403431.0,361240.0
2026-04-07 17:42:13.162996,146122,803565658,803566935,0.847168,-0.407968,-0.12688,-2.59875,-26.2325,21.3675,-11.808001,-9.464001,15.6,concentric,2,3.0,29960.0,394712.0,355229.0,403431.0,361240.0
2026-04-07 17:42:13.191892,146123,803580187,803581928,0.786656,-0.407968,-0.12688,0.93625,-25.445,23.9925,-11.544001,-8.976001,16.08,concentric,2,3.0,29960.0,394712.0,355229.0,403431.0,361240.0
2026-04-07 17:42:13.196094,146124,803589120,803590638,0.7808,-0.335744,-0.091744,0.7175,-25.6375,25.147501,-11.704,-8.792001,14.840001,concentric,2,3.0,29960.0,394712.0,355229.0,403431.0,361240.0
2026-04-07 17:42:13.197650,146125,803598060,803599331,0.7808,-0.335744,-0.091744,-0.16625,-24.68375,24.535,-11.704,-8.792001,14.840001,concentric,2,3.0,29960.0,394712.0,355229.0,403431.0,361240.0
2026-04-07 17:42:13.229204,146126,803612577,803614290,0.812032,-0.30256,-0.154208,3.57,-24.98125,25.97875,-12.456,-9.056001,14.896001,concentric,2,3.0,29960.0,394712.0,355229.0,403431.0,361240.0
2026-04-07 17:42:13.236476,146127,803621524,803622983,0.812032,-0.30256,-0.154208,3.2025,-25.9,25.8825,-12.456,-9.056001,14.896001,concentric,2,3.0,29960.0,394712.0,355229.0,403431.0,361240.0
2026-04-07 17:42:13.264824,146137,803630581,803631764,0.812032,-0.320128,-0.206912,1.33875,-26.48625,23.905,-11.656,-8.832001,14.984001,concentric,2,3.0,30450.0,398714.0,358584.0,403431.0,364184.0
2026-04-07 17:42:13.267304,146138,803639495,803640479,0.812032,-0.320128,-0.206912,1.77625,-26.87125,19.845,-11.656,-8.832001,14.984001,concentric,2,3.0,30450.0,398714.0,358584.0,403431.0,364184.0
2026-04-07 17:42:13.270888,146139,803653993,803655413,0.825696,-0.404064,-0.162016,-1.8375,-26.95,15.68875,-11.84,-8.744,15.808001,concentric,2,3.0,30450.0,398714.0,358584.0,403431.0,364184.0
2026-04-07 17:42:13.271348,146140,803663019,803664142,0.825696,-0.404064,-0.162016,-3.05375,-25.6025,15.60125,-11.84,-8.744,15.808001,concentric,2,3.0,30450.0,398714.0,358584.0,403431.0,364184.0
2026-04-07 17:42:13.275524,146141,803671985,803672822,0.804224,-0.415776,-0.1464,-1.25125,-24.61375,16.77375,-11.728001,-8.04,14.304001,concentric,2,3.0,30450.0,398714.0,358584.0,403431.0,364184.0
2026-04-07 17:42:13.279249,146142,803686494,803687736,0.784704,-0.388448,-0.169824,-4.27875,-25.165,16.765,-11.728001,-8.04,15.704,concentric,2,3.0,30450.0,398714.0,358584.0,403431.0,364184.0
2026-04-07 17:42:13.308216,146143,803695399,803696469,0.784704,-0.388448,-0.169824,-4.97875,-25.55875,16.52,-11.688001,-8.160001,15.704,concentric,2,3.0,30450.0,398714.0,358584.0,403431.0,364184.0
2026-04-07 17:42:13.312485,146144,803704306,803705158,0.784704,-0.388448,-0.169824,-1.04125,-26.18875,19.145,-11.688001,-8.160001,15.704,concentric,2,3.0,30450.0,398714.0,358584.0,403431.0,364184.0
2026-04-07 17:42:13.313915,146145,803718801,803720167,0.772992,-0.333792,-0.179584,-1.02375,-27.25625,18.83875,-11.296001,-7.672,13.592001,concentric,2,3.0,30450.0,398714.0,358584.0,403431.0,364184.0
2026-04-07 17:42:13.339915,146155,803728272,803728894,0.77104,-0.404064,-0.232288,-2.28375,-27.9475,14.44625,-11.136001,-7.192,13.864,concentric,2,3.0,31353.0,402987.0,364009.0,403431.0,369116.0
2026-04-07 17:42:13.342318,146156,803737664,803739835,0.77104,-0.404064,-0.232288,-0.525,-28.245,15.07625,-11.136001,-7.192,13.864,concentric,2,3.0,31353.0,402987.0,364009.0,403431.0,369116.0
2026-04-07 17:42:13.343877,146157,803746623,803748570,0.802272,-0.427488,-0.152256,-3.815,-28.3675,13.76375,-11.136001,-7.192,16.464,concentric,2,3.0,31353.0,402987.0,364009.0,403431.0,369116.0
2026-04-07 17:42:13.375024,146158,803761130,803761449,0.796416,-0.427488,-0.152256,-8.25125,-27.055,9.68625,-11.784,-7.920001,16.464,concentric,2,3.0,31353.0,402987.0,364009.0,403431.0,369116.0
2026-04-07 17:42:13.379448,146159,803770288,803772205,0.7808,-0.489952,-0.23424,-7.51625,-25.6025,11.45375,-11.152,-7.880001,12.136001,concentric,2,3.0,31353.0,402987.0,364009.0,403431.0,369116.0
2026-04-07 17:42:13.382021,146160,803779211,803780905,0.7808,-0.489952,-0.23424,-5.8275,-24.85875,13.99125,-11.152,-7.880001,12.136001,concentric,2,3.0,31353.0,402987.0,364009.0,403431.0,369116.0
2026-04-07 17:42:13.415141,146161,803788097,803789582,0.745664,-0.423584,-0.236192,-2.65125,-24.94625,14.735,-10.984,-7.104001,11.832001,concentric,2,3.0,31353.0,402987.0,364009.0,403431.0,369116.0
2026-04-07 17:42:13.416512,146162,803802572,803804507,0.745664,-0.423584,-0.236192,1.575,-25.59375,13.886251,-10.984,-7.104001,11.832001,concentric,2,3.0,31353.0,402987.0,364009.0,403431.0,369116.0
2026-04-07 17:42:13.421066,146163,803811506,803813232,0.778848,-0.3416,-0.240096,1.4,-26.39,10.465,-11.120001,-6.64,11.872001,concentric,2,3.0,31353.0,402987.0,364009.0,403431.0,369116.0
2026-04-07 17:42:13.422614,146164,803820413,803821934,0.778848,-0.3416,-0.240096,-3.08,-26.36375,6.965,-11.120001,-6.64,11.872001,concentric,2,3.0,31353.0,402987.0,364009.0,403431.0,369116.0
2026-04-07 17:42:13.453565,146175,803834962,803836896,0.825696,-0.392352,-0.259616,-8.23375,-26.66125,6.09875,-10.816001,-6.68,11.76,concentric,2,3.0,32929.0,403431.0,373471.0,403431.0,378556.0
2026-04-07 17:42:13.455087,146176,803843924,803845680,0.825696,-0.392352,-0.259616,-13.97375,-26.005,6.5275,-10.816001,-6.68,11.76,concentric,2,3.0,32929.0,403431.0,373471.0,403431.0,378556.0
2026-04-07 17:42:13.459412,146177,803852928,803854434,0.75152,-0.462624,-0.269376,-15.3125,-25.1125,7.385,-11.112,-6.696,11.192,concentric,2,3.0,32929.0,403431.0,373471.0,403431.0,378556.0
2026-04-07 17:42:13.461831,146178,803867480,803869405,0.745664,-0.447008,-0.28304,-14.0175,-23.70375,5.81,-11.112,-6.24,10.672001,concentric,2,3.0,32929.0,403431.0,373471.0,403431.0,378556.0
2026-04-07 17:42:13.490342,146179,803876401,803878093,0.745664,-0.447008,-0.28304,-7.86625,-23.07375,10.00125,-10.504001,-6.24,10.672001,concentric,2,3.0,32929.0,403431.0,373471.0,403431.0,378556.0
2026-04-07 17:42:13.494902,146180,803885307,803886795,0.745664,-0.447008,-0.28304,-6.64125,-22.68,10.12375,-10.504001,-6.24,10.672001,concentric,2,3.0,32929.0,403431.0,373471.0,403431.0,378556.0
2026-04-07 17:42:13.496425,146181,803899790,803901716,0.745664,-0.454816,-0.281088,-2.66875,-22.12875,7.84875,-11.152,-6.616,9.008,concentric,2,3.0,32929.0,403431.0,373471.0,403431.0,378556.0
2026-04-07 17:42:13.501796,146182,803908701,803910408,0.763232,-0.366976,-0.314272,0.3325,-21.04375,8.49625,-11.064,-6.784,11.336,concentric,2,3.0,32929.0,403431.0,373471.0,403431.0,378556.0
2026-04-07 17:42:13.530271,146183,803917622,803919127,0.763232,-0.366976,-0.314272,0.63,-19.8625,6.29125,-11.064,-6.784,11.336,concentric,2,3.0,32929.0,403431.0,373471.0,403431.0,378556.0
2026-04-07 17:42:13.561101,146193,803932228,803934141,0.765184,-0.435296,-0.308416,-2.6075,-18.1125,2.45,-11.264001,-6.440001,10.512,concentric,2,3.0,33695.0,403431.0,378263.0,403431.0,383757.0
2026-04-07 17:42:13.562681,146194,803941180,803942834,0.765184,-0.435296,-0.308416,-6.2125,-17.4125,3.38625,-11.264001,-6.440001,10.512,concentric,2,3.0,33695.0,403431.0,378263.0,403431.0,383757.0
2026-04-07 17:42:13.566890,146195,803950105,803951531,0.75152,-0.484096,-0.316224,-7.8925,-16.10875,4.99625,-11.192,-6.928001,11.824,concentric,2,3.0,33695.0,403431.0,378263.0,403431.0,383757.0
2026-04-07 17:42:13.568598,146196,803959084,803960315,0.75152,-0.484096,-0.316224,-6.37,-15.05875,5.53875,-11.192,-6.928001,11.824,concentric,2,3.0,33695.0,403431.0,378263.0,403431.0,383757.0
2026-04-07 17:42:13.570843,146197,803973618,803975319,0.749568,-0.462624,-0.304512,-3.87625,-13.3,7.56,-11.048,-6.584,9.992001,concentric,2,3.0,33695.0,403431.0,378263.0,403431.0,383757.0
2026-04-07 17:42:13.578343,146198,803982548,803984058,0.749568,-0.462624,-0.304512,-1.47875,-10.9375,7.875,-11.048,-6.584,9.992001,concentric,2,3.0,33695.0,403431.0,378263.0,403431.0,383757.0
2026-04-07 17:42:13.584332,146199,803991487,803992745,0.778848,-0.482144,-0.343552,2.12625,-8.84625,9.275,-10.904,-6.496,10.496,concentric,2,3.0,33695.0,403431.0,378263.0,403431.0,383757.0
2026-04-07 17:42:13.612798,146200,804005945,804007673,0.778848,-0.482144,-0.343552,1.86375,-8.4875,11.34,-10.904,-6.496,10.496,concentric,2,3.0,33695.0,403431.0,378263.0,403431.0,383757.0
2026-04-07 17:42:13.617248,146201,804014852,804016371,0.776896,-0.406016,-0.357216,-0.97125,-6.8775,9.24875,-10.376,-5.856,9.768001,concentric,2,3.0,33695.0,403431.0,378263.0,403431.0,383757.0
2026-04-07 17:42:13.618811,146202,804023761,804025088,0.776896,-0.406016,-0.357216,-4.27,-7.1925,5.80125,-10.376,-5.856,9.768001,concentric,2,3.0,33695.0,403431.0,378263.0,403431.0,383757.0
2026-04-07 17:42:13.648181,146212,804038352,804040139,0.784704,-0.452864,-0.359168,-10.56125,-7.245,6.57125,-10.864,-5.624,9.776,concentric,2,3.0,34251.0,403431.0,381593.0,403431.0,387338.0
2026-04-07 17:42:13.649886,146213,804047287,804048878,0.784704,-0.452864,-0.359168,-15.7325,-6.44875,6.37,-10.864,-5.624,9.776,concentric,2,3.0,34251.0,403431.0,381593.0,403431.0,387338.0
2026-04-07 17:42:13.651439,146214,804056272,804057614,0.759328,-0.480192,-0.372832,-15.9425,-5.60875,5.52125,-11.320001,-5.896,9.016001,concentric,2,3.0,34251.0,403431.0,381593.0,403431.0,387338.0
2026-04-07 17:42:13.658002,146215,804065306,804066319,0.759328,-0.480192,-0.372832,-15.44375,-4.48,4.45375,-11.320001,-5.896,9.016001,concentric,2,3.0,34251.0,403431.0,381593.0,403431.0,387338.0
2026-04-07 17:42:13.725242,146216,804079791,804081226,0.753472,-0.476288,-0.345504,-12.50375,-3.535,4.20875,-10.768001,-5.744,9.232,concentric,2,3.0,34251.0,403431.0,381593.0,403431.0,387338.0
2026-04-07 17:42:13.729498,146217,804088771,804089919,0.763232,-0.470432,-0.406016,-7.28875,-3.3425,4.305,-10.728001,-5.56,9.448001,concentric,2,3.0,34251.0,403431.0,381593.0,403431.0,387338.0
2026-04-07 17:42:13.731074,146218,804097666,804098639,0.763232,-0.470432,-0.406016,-1.4875,-3.71,4.38375,-10.728001,-5.56,9.448001,concentric,2,3.0,34251.0,403431.0,381593.0,403431.0,387338.0
2026-04-07 17:42:13.732699,146219,804112137,804113597,0.76128,-0.4392,-0.40992,-0.93625,-3.99875,3.10625,-10.576,-5.704001,9.184,concentric,2,3.0,34251.0,403431.0,381593.0,403431.0,387338.0
2026-04-07 17:42:13.736939,146220,804121097,804122289,0.76128,-0.4392,-0.40992,-0.39375,-3.50875,2.75625,-10.576,-5.704001,9.184,concentric,2,3.0,34251.0,403431.0,381593.0,403431.0,387338.0
2026-04-07 17:42:13.761145,146230,804130467,804131049,0.772992,-0.464576,-0.386496,-1.8375,-3.8325,2.24,-10.84,-5.672,9.056001,concentric,2,3.0,34554.0,403431.0,383551.0,403431.0,389531.0
2026-04-07 17:42:13.762710,146231,804140119,804141786,0.772992,-0.464576,-0.386496,-7.46375,-3.45625,0.11375,-10.84,-5.672,9.056001,concentric,2,3.0,34554.0,403431.0,383551.0,403431.0,389531.0
2026-04-07 17:42:13.766971,146232,804154647,804156711,0.778848,-0.530944,-0.378688,-8.37375,-2.09125,-0.5425,-11.280001,-5.592001,11.408001,concentric,2,3.0,34554.0,403431.0,383551.0,403431.0,389531.0
2026-04-07 17:42:13.768696,146233,804163629,804165482,0.778848,-0.530944,-0.378688,-4.235,-1.225,-0.455,-11.280001,-5.592001,11.408001,concentric,2,3.0,34554.0,403431.0,383551.0,403431.0,389531.0
2026-04-07 17:42:13.770227,146234,804172549,804174182,0.772992,-0.474336,-0.404064,-0.32375,-0.9625,0.02625,-11.160001,-5.776001,11.184001,concentric,2,3.0,34554.0,403431.0,383551.0,403431.0,389531.0
2026-04-07 17:42:13.801279,146235,804187064,804189076,0.772992,-0.474336,-0.404064,3.115,-1.575,0.6825,-11.160001,-5.776001,11.184001,concentric,2,3.0,34554.0,403431.0,383551.0,403431.0,389531.0
2026-04-07 17:42:13.803591,146236,804196057,804197796,0.788608,-0.452864,-0.402112,1.00625,-1.7675,-2.2925,-11.536,-5.584,9.672001,concentric,2,3.0,34554.0,403431.0,383551.0,403431.0,389531.0
2026-04-07 17:42:13.808138,146237,804204983,804206524,0.788608,-0.452864,-0.402112,-2.59875,-0.93625,-6.6325,-11.536,-5.584,9.672001,concentric,2,3.0,34554.0,403431.0,383551.0,403431.0,389531.0
2026-04-07 17:42:13.812282,146238,804219503,804221491,0.823744,-0.493856,-0.427488,-3.08,-1.04125,-7.84875,-10.936001,-5.792,8.360001,concentric,2,3.0,34554.0,403431.0,383551.0,403431.0,389531.0
2026-04-07 17:42:13.872338,146249,804228474,804230392,0.823744,-0.489952,-0.407968,-2.54625,-0.245,-6.3525,-10.936001,-5.792,8.360001,concentric,2,3.0,35188.0,403431.0,387253.0,403431.0,393015.0
2026-04-07 17:42:13.873828,146250,804237432,804239064,0.747616,-0.489952,-0.407968,-2.975,0.2975,-6.13375,-11.264001,-5.368,8.736,concentric,2,3.0,35188.0,403431.0,387253.0,403431.0,393015.0
2026-04-07 17:42:13.878184,146251,804246421,804247812,0.747616,-0.489952,-0.407968,-1.5925,0.595,-8.2775,-11.264001,-5.368,8.736,concentric,2,3.0,35188.0,403431.0,387253.0,403431.0,393015.0
2026-04-07 17:42:13.879813,146252,804260956,804262825,0.794464,-0.503616,-0.40992,0.70875,0.07,-7.65625,-11.072001,-5.68,8.712001,concentric,2,3.0,35188.0,403431.0,387253.0,403431.0,393015.0
2026-04-07 17:42:13.881351,146253,804269871,804271563,0.79056,-0.491904,-0.435296,0.23625,0.4025,-8.77625,-10.72,-5.544,8.488001,concentric,2,3.0,35188.0,403431.0,387253.0,403431.0,393015.0
2026-04-07 17:42:13.885613,146254,804278837,804280315,0.79056,-0.491904,-0.435296,1.8025,0.53375,-9.98375,-10.72,-5.544,8.488001,concentric,2,3.0,35188.0,403431.0,387253.0,403431.0,393015.0
2026-04-07 17:42:13.887210,146255,804293384,804295204,0.7808,-0.499712,-0.417728,0.95375,0.06125,-9.87,-10.584001,-5.528,9.320001,concentric,2,3.0,35188.0,403431.0,387253.0,403431.0,393015.0
2026-04-07 17:42:13.916586,146256,804302392,804303946,0.7808,-0.499712,-0.417728,0.81375,0.21,-10.4475,-10.584001,-5.528,9.320001,concentric,2,3.0,35188.0,403431.0,387253.0,403431.0,393015.0
2026-04-07 17:42:13.920160,146257,804311338,804312684,0.796416,-0.501664,-0.40016,2.4675,0.51625,-12.67875,-10.336,-5.584,8.256001,concentric,2,3.0,35188.0,403431.0,387253.0,403431.0,393015.0
2026-04-07 17:42:13.922568,146258,804325826,804327556,0.796416,-0.501664,-0.40016,2.52,0.63875,-12.66125,-10.336,-5.584,8.256001,concentric,2,3.0,35188.0,403431.0,387253.0,403431.0,393015.0
2026-04-07 17:42:13.947714,146268,804334998,804336368,0.79056,-0.511424,-0.398208,3.77125,1.26,-13.195,-11.472,-5.912,8.176001,concentric,2,3.0,35272.0,403431.0,387748.0,403431.0,393465.0
2026-04-07 17:42:13.950119,146269,804343961,804345059,0.79056,-0.511424,-0.398208,3.70125,1.645,-13.6325,-11.472,-5.912,8.176001,concentric,2,3.0,35272.0,403431.0,387748.0,403431.0,393465.0
2026-04-07 17:42:13.952616,146270,804352953,804353752,0.7808,-0.49776,-0.421632,3.57,1.715,-12.78375,-11.432,-6.024,8.216001,concentric,2,3.0,35272.0,403431.0,387748.0,403431.0,393465.0
2026-04-07 17:42:13.958871,146271,804367552,804368653,0.7808,-0.49776,-0.421632,3.05375,1.42625,-12.1275,-11.432,-6.024,8.216001,concentric,2,3.0,35272.0,403431.0,387748.0,403431.0,393465.0
2026-04-07 17:42:14.015229,146272,804376571,804377369,0.80032,-0.488,-0.40016,0.11375,1.46125,-12.915,-10.784,-6.256001,8.664001,concentric,2,3.0,35272.0,403431.0,387748.0,403431.0,393465.0
2026-04-07 17:42:14.018837,146273,804385492,804386117,0.80032,-0.488,-0.40016,-2.17875,2.12625,-13.64125,-10.784,-6.256001,8.664001,concentric,2,3.0,35272.0,403431.0,387748.0,403431.0,393465.0
2026-04-07 17:42:14.021342,146274,804400315,804401024,0.796416,-0.523136,-0.404064,0.1925,2.66,-12.3025,-11.088,-5.816001,8.472,concentric,2,3.0,35272.0,403431.0,387748.0,403431.0,393465.0
2026-04-07 17:42:14.023814,146275,804409671,804411768,0.774944,-0.519232,-0.378688,3.14125,3.12375,-11.698751,-11.088,-6.344,10.648001,concentric,2,3.0,35272.0,403431.0,387748.0,403431.0,393465.0
2026-04-07 17:42:14.026495,146276,804418613,804420470,0.774944,-0.519232,-0.378688,7.8575,4.235,-10.42125,-11.008,-6.344,10.648001,concentric,2,3.0,35272.0,403431.0,387748.0,403431.0,393465.0
2026-04-07 17:42:14.029060,146277,804427521,804429092,0.774944,-0.519232,-0.378688,11.15625,4.375,-9.485,-11.008,-6.344,10.648001,concentric,2,3.0,35272.0,403431.0,387748.0,403431.0,393465.0
2026-04-07 17:42:14.053837,146287,804442139,804444156,0.765184,-0.472384,-0.363072,11.31375,4.27,-8.575,-11.008,-5.520001,8.448,concentric,2,3.0,34976.0,403431.0,386145.0,403431.0,391432.0
2026-04-07 17:42:14.056304,146288,804451165,804452885,0.753472,-0.452864,-0.363072,9.61625,4.0075,-7.2625,-11.328,-5.480001,11.024,concentric,2,3.0,34976.0,403431.0,386145.0,403431.0,391432.0
2026-04-07 17:42:14.059181,146289,804460117,804461617,0.753472,-0.452864,-0.363072,5.18875,2.89625,-6.41375,-11.328,-5.480001,11.024,concentric,2,3.0,34976.0,403431.0,386145.0,403431.0,391432.0
2026-04-07 17:42:14.089032,146290,804474684,804476568,0.753472,-0.480192,-0.384544,3.0625,2.56375,-6.76375,-12.000001,-5.712,10.080001,concentric,2,3.0,34976.0,403431.0,386145.0,403431.0,391432.0
2026-04-07 17:42:14.092542,146291,804483621,804485267,0.753472,-0.480192,-0.384544,1.89875,2.135,-8.505,-12.000001,-5.712,10.080001,concentric,2,3.0,34976.0,403431.0,386145.0,403431.0,391432.0
2026-04-07 17:42:14.095095,146292,804492631,804493957,0.76128,-0.466528,-0.376736,-0.86625,2.3275,-9.6775,-11.168,-6.104,8.448,concentric,2,3.0,34976.0,403431.0,386145.0,403431.0,391432.0
2026-04-07 17:42:14.098905,146293,804507132,804508854,0.76128,-0.466528,-0.376736,-1.96875,2.79125,-10.10625,-11.168,-6.104,8.448,eccentric,2,3.0,34976.0,403431.0,386145.0,403431.0,391432.0
2026-04-07 17:42:14.132479,146294,804516118,804517519,0.769088,-0.503616,-0.3904,-1.28625,2.87875,-9.6775,-10.984,-5.664,8.232,eccentric,2,3.0,34976.0,403431.0,386145.0,403431.0,391432.0
2026-04-07 17:42:14.135280,146295,804525048,804526156,0.769088,-0.503616,-0.3904,0.84875,3.22,-10.87625,-10.984,-5.664,8.232,eccentric,2,3.0,34976.0,403431.0,386145.0,403431.0,391432.0
2026-04-07 17:42:14.163590,146306,804534548,804534969,0.7808,-0.466528,-0.388448,2.94,3.7975,-10.955,-10.808001,-6.12,8.544001,eccentric,2,3.0,34822.0,403431.0,385353.0,403431.0,390540.0
2026-04-07 17:42:14.165237,146307,804549433,804549935,0.7808,-0.466528,-0.388448,2.9925,4.5675,-9.3975,-10.808001,-6.12,8.544001,eccentric,2,3.0,34822.0,403431.0,385353.0,403431.0,390540.0
2026-04-07 17:42:14.169360,146308,804559019,804560830,0.765184,-0.521184,-0.378688,4.55,6.29125,-7.11375,-10.672001,-5.936,8.808001,eccentric,2,3.0,34822.0,403431.0,385353.0,403431.0,390540.0
2026-04-07 17:42:14.171086,146309,804567981,804569533,0.765184,-0.521184,-0.378688,7.595,7.5075,-5.13625,-10.672001,-5.936,8.808001,eccentric,2,3.0,34822.0,403431.0,385353.0,403431.0,390540.0
2026-04-07 17:42:14.172650,146310,804576912,804578240,0.759328,-0.466528,-0.386496,9.59,8.505,-3.92875,-11.016001,-5.896,10.032001,eccentric,2,3.0,34822.0,403431.0,385353.0,403431.0,390540.0
2026-04-07 17:42:14.203769,146311,804591423,804593158,0.759328,-0.460672,-0.38064,9.21375,9.1,-2.3975,-10.872001,-5.824,5.856,eccentric,2,3.0,34822.0,403431.0,385353.0,403431.0,390540.0
2026-04-07 17:42:14.206096,146312,804600324,804601849,0.759328,-0.460672,-0.38064,6.78125,9.44125,-2.2925,-10.872001,-5.824,5.856,eccentric,2,3.0,34822.0,403431.0,385353.0,403431.0,390540.0
2026-04-07 17:42:14.210525,146313,804609251,804610554,0.759328,-0.460672,-0.38064,3.7975,9.8875,-2.72125,-10.872001,-5.824,5.856,eccentric,2,3.0,34822.0,403431.0,385353.0,403431.0,390540.0
2026-04-07 17:42:14.240020,146314,804623749,804625492,0.759328,-0.46848,-0.384544,2.12625,10.17625,-3.9375,-10.976001,-5.592001,7.824,eccentric,2,3.0,34822.0,403431.0,385353.0,403431.0,390540.0
2026-04-07 17:42:14.269485,146324,804633109,804634733,0.769088,-0.456768,-0.372832,1.2425,9.49375,-4.375,-11.784,-6.368001,8.632,eccentric,2,3.0,34681.0,403431.0,384055.0,403431.0,388960.0
2026-04-07 17:42:14.271106,146325,804642099,804643451,0.769088,-0.456768,-0.372832,-0.20125,9.91375,-4.69,-11.784,-6.368001,8.632,eccentric,2,3.0,34681.0,403431.0,384055.0,403431.0,388960.0
2026-04-07 17:42:14.272628,146326,804651051,804652167,0.769088,-0.46848,-0.384544,-0.595,10.386251,-5.88875,-11.6,-5.928001,8.376,eccentric,2,3.0,34681.0,403431.0,384055.0,403431.0,388960.0
2026-04-07 17:42:14.276905,146327,804665545,804667133,0.769088,-0.46848,-0.384544,-0.07,10.10625,-6.4925,-11.6,-5.928001,8.376,eccentric,2,3.0,34681.0,403431.0,384055.0,403431.0,388960.0
2026-04-07 17:42:14.278620,146328,804674546,804675860,0.774944,-0.482144,-0.376736,0.0175,10.28125,-6.99125,-11.384001,-6.752,10.488001,eccentric,2,3.0,34681.0,403431.0,384055.0,403431.0,388960.0
2026-04-07 17:42:14.280141,146329,804683479,804684588,0.774944,-0.482144,-0.376736,0.98875,10.61375,-7.5775,-11.384001,-6.752,10.488001,eccentric,2,3.0,34681.0,403431.0,384055.0,403431.0,388960.0
2026-04-07 17:42:14.316283,146330,804697992,804699500,0.794464,-0.474336,-0.382592,3.31625,11.13875,-7.665,-11.664001,-6.344,10.632001,eccentric,2,3.0,34681.0,403431.0,384055.0,403431.0,388960.0
2026-04-07 17:42:14.320625,146331,804706887,804708154,0.794464,-0.474336,-0.382592,5.7925,11.71625,-8.085,-11.664001,-6.344,10.632001,eccentric,2,3.0,34681.0,403431.0,384055.0,403431.0,388960.0
2026-04-07 17:42:14.322317,146332,804715775,804716897,0.796416,-0.464576,-0.37088,7.2275,12.27625,-8.98625,-10.656,-6.304,9.416,eccentric,2,3.0,34681.0,403431.0,384055.0,403431.0,388960.0
2026-04-07 17:42:14.323958,146333,804730253,804731859,0.796416,-0.464576,-0.37088,7.6125,13.11625,-8.79375,-10.656,-6.304,9.416,eccentric,2,3.0,34681.0,403431.0,384055.0,403431.0,388960.0
2026-04-07 17:42:14.353560,146343,804739323,804740694,0.804224,-0.495808,-0.37088,8.9425,14.07,-7.21,-10.480001,-6.016,9.168,eccentric,2,3.0,33937.0,403431.0,379977.0,403431.0,384106.0
2026-04-07 17:42:14.355023,146344,804748290,804749391,0.804224,-0.495808,-0.37088,10.49125,13.667501,-6.335,-10.480001,-6.016,9.168,eccentric,2,3.0,33937.0,403431.0,379977.0,403431.0,384106.0
2026-04-07 17:42:14.359249,146345,804762818,804764362,0.804224,-0.437248,-0.372832,9.16125,14.1225,-7.32375,-11.064,-6.128,9.968,eccentric,2,3.0,33937.0,403431.0,379977.0,403431.0,384106.0
2026-04-07 17:42:14.364268,146346,804771767,804773163,0.821792,-0.472384,-0.349408,7.88375,14.83125,-8.4875,-11.920001,-6.816001,12.272,eccentric,2,3.0,33937.0,403431.0,379977.0,403431.0,384106.0
2026-04-07 17:42:14.397534,146347,804780690,804781852,0.821792,-0.472384,-0.349408,5.88,15.3475,-8.435,-11.920001,-6.816001,12.272,eccentric,2,3.0,33937.0,403431.0,379977.0,403431.0,384106.0
2026-04-07 17:42:14.399772,146348,804789612,804790537,0.821792,-0.472384,-0.349408,5.46,16.205,-8.51375,-11.920001,-6.816001,12.272,eccentric,2,3.0,33937.0,403431.0,379977.0,403431.0,384106.0
2026-04-07 17:42:14.404447,146349,804804081,804805470,0.804224,-0.450912,-0.347456,5.92375,16.7825,-9.47625,-11.256001,-6.312,9.872001,eccentric,2,3.0,33937.0,403431.0,379977.0,403431.0,384106.0
2026-04-07 17:42:14.406030,146350,804812984,804814159,0.794464,-0.480192,-0.339648,7.14875,17.1675,-10.12375,-11.008,-5.976,10.312,eccentric,2,3.0,33937.0,403431.0,379977.0,403431.0,384106.0
2026-04-07 17:42:14.414284,146351,804821960,804822874,0.794464,-0.480192,-0.339648,9.10875,17.4125,-9.21375,-11.008,-5.976,10.312,eccentric,2,3.0,33937.0,403431.0,379977.0,403431.0,384106.0
2026-04-07 17:42:14.473684,146362,804836879,804837908,0.778848,-0.460672,-0.296704,11.01625,18.366251,-9.345,-11.400001,-6.528,10.552,eccentric,2,3.0,32808.0,403431.0,373289.0,403431.0,376636.0
2026-04-07 17:42:14.476117,146363,804845820,804846601,0.778848,-0.460672,-0.296704,11.34875,19.1975,-10.5525,-11.400001,-6.528,10.552,eccentric,2,3.0,32808.0,403431.0,373289.0,403431.0,376636.0
2026-04-07 17:42:14.477624,146364,804854734,804855297,0.782752,-0.445056,-0.329888,11.62875,19.705,-11.34,-10.936001,-5.944,10.696,eccentric,2,3.0,32808.0,403431.0,373289.0,403431.0,376636.0
2026-04-07 17:42:14.481882,146365,804869507,804870300,0.782752,-0.445056,-0.329888,10.6575,21.175,-12.41625,-10.936001,-5.944,10.696,eccentric,2,3.0,32808.0,403431.0,373289.0,403431.0,376636.0
2026-04-07 17:42:14.483608,146366,804879063,804881076,0.763232,-0.4392,-0.281088,7.58625,22.9425,-12.45125,-11.104,-6.6,12.216001,eccentric,2,3.0,32808.0,403431.0,373289.0,403431.0,376636.0
2026-04-07 17:42:14.485226,146367,804888031,804889796,0.763232,-0.4392,-0.281088,7.86625,23.7825,-12.22375,-11.104,-6.6,12.216001,eccentric,2,3.0,32808.0,403431.0,373289.0,403431.0,376636.0
2026-04-07 17:42:14.489206,146368,804896965,804898534,0.757376,-0.441152,-0.296704,6.57125,24.52625,-11.917501,-10.976001,-5.712,12.032001,eccentric,2,3.0,32808.0,403431.0,373289.0,403431.0,376636.0
2026-04-07 17:42:14.517849,146369,804911523,804913464,0.757376,-0.427488,-0.304512,5.66125,25.13,-11.87375,-10.976001,-5.712,12.032001,eccentric,2,3.0,32808.0,403431.0,373289.0,403431.0,376636.0
2026-04-07 17:42:14.522282,146370,804920538,804922149,0.755424,-0.427488,-0.304512,6.02,26.22375,-12.9675,-11.088,-6.704001,10.976001,eccentric,2,3.0,32808.0,403431.0,373289.0,403431.0,376636.0
2026-04-07 17:42:14.524623,146371,804929529,804930862,0.755424,-0.427488,-0.304512,7.0525,27.27375,-13.8425,-11.088,-6.704001,10.976001,eccentric,2,3.0,32808.0,403431.0,373289.0,403431.0,376636.0
2026-04-07 17:42:14.550397,146381,804944149,804945860,0.77104,-0.435296,-0.333792,7.665,28.315,-14.25375,-11.384001,-6.584,11.68,eccentric,2,3.0,31563.0,403431.0,365800.0,403431.0,368929.0
2026-04-07 17:42:14.551381,146382,804953103,804954565,0.76128,-0.415776,-0.298656,8.26,29.6975,-15.4875,-12.016001,-6.928001,12.424001,eccentric,2,3.0,31563.0,403431.0,365800.0,403431.0,368929.0
2026-04-07 17:42:14.553826,146383,804962035,804963273,0.76128,-0.415776,-0.298656,9.56375,30.54625,-14.91875,-12.016001,-6.928001,12.424001,eccentric,2,3.0,31563.0,403431.0,365800.0,403431.0,368929.0
2026-04-07 17:42:14.613797,146384,804970928,804972014,0.76128,-0.415776,-0.298656,9.073751,31.4475,-14.39375,-12.016001,-6.928001,12.424001,eccentric,2,3.0,31563.0,403431.0,365800.0,403431.0,368929.0
2026-04-07 17:42:14.618253,146385,804985404,804986895,0.75152,-0.423584,-0.255712,8.58375,31.15,-14.86625,-11.76,-7.152,10.736,eccentric,2,3.0,31563.0,403431.0,365800.0,403431.0,368929.0
2026-04-07 17:42:14.619851,146386,804994988,804995628,0.76128,-0.404064,-0.286944,7.98875,30.30125,-14.8575,-11.248,-6.952,12.576,eccentric,2,3.0,31563.0,403431.0,365800.0,403431.0,368929.0
2026-04-07 17:42:14.621625,146387,805004243,805006391,0.76128,-0.404064,-0.286944,9.3975,30.14375,-15.645,-11.248,-6.952,12.576,eccentric,2,3.0,31563.0,403431.0,365800.0,403431.0,368929.0
2026-04-07 17:42:14.625872,146388,805018830,805019291,0.743712,-0.38064,-0.279136,8.435,30.616251,-17.07125,-11.624001,-6.488,12.888001,eccentric,2,3.0,31563.0,403431.0,365800.0,403431.0,368929.0
2026-04-07 17:42:14.631703,146389,805028130,805030084,0.743712,-0.38064,-0.279136,7.7875,31.01875,-18.03375,-11.624001,-6.488,12.888001,eccentric,2,3.0,31563.0,403431.0,365800.0,403431.0,368929.0
2026-04-07 17:42:14.659083,146399,805037614,805039022,0.794464,-0.417728,-0.290848,5.67875,30.1525,-20.685,-11.752001,-6.872,15.824,eccentric,2,3.0,30532.0,399808.0,359773.0,403431.0,363913.0
2026-04-07 17:42:14.663143,146400,805046611,805047773,0.794464,-0.417728,-0.290848,5.2675,31.84125,-21.76125,-11.752001,-6.872,15.824,eccentric,2,3.0,30532.0,399808.0,359773.0,403431.0,363913.0
2026-04-07 17:42:14.664848,146401,805061155,805062769,0.782752,-0.437248,-0.189344,4.9,34.37,-20.965,-12.440001,-7.592001,17.776001,eccentric,2,3.0,30532.0,399808.0,359773.0,403431.0,363913.0
2026-04-07 17:42:14.667349,146402,805070139,805071475,0.782752,-0.437248,-0.189344,4.7075,36.2425,-19.06625,-12.440001,-7.592001,17.776001,eccentric,2,3.0,30532.0,399808.0,359773.0,403431.0,363913.0
2026-04-07 17:42:14.673036,146403,805079053,805080260,0.782752,-0.392352,-0.22448,7.9625,37.84375,-16.47625,-12.744,-7.336,15.272,eccentric,2,3.0,30532.0,399808.0,359773.0,403431.0,363913.0
2026-04-07 17:42:14.680874,146404,805088016,805088968,0.782752,-0.392352,-0.22448,10.29875,37.26625,-15.98625,-12.744,-7.336,15.272,eccentric,2,3.0,30532.0,399808.0,359773.0,403431.0,363913.0
2026-04-07 17:42:14.715073,146405,805102513,805103854,0.739808,-0.335744,-0.25376,13.230001,37.3625,-17.08875,-11.384001,-7.568,14.432001,eccentric,2,3.0,30532.0,399808.0,359773.0,403431.0,363913.0
2026-04-07 17:42:14.719451,146406,805111413,805112602,0.739808,-0.335744,-0.25376,13.50125,36.995,-19.81,-11.384001,-7.568,14.432001,eccentric,2,3.0,30532.0,399808.0,359773.0,403431.0,363913.0
2026-04-07 17:42:14.720971,146407,805120394,805121303,0.812032,-0.33184,-0.216672,10.00125,36.75875,-21.23625,-12.224001,-7.576,13.456,eccentric,2,3.0,30532.0,399808.0,359773.0,403431.0,363913.0
2026-04-07 17:42:14.754844,146418,805135134,805136287,0.749568,-0.40016,-0.203008,2.84375,37.91375,-21.28,-12.360001,-7.544,15.024001,eccentric,2,3.0,29599.0,392909.0,354267.0,403431.0,359933.0
2026-04-07 17:42:14.756895,146419,805144174,805145105,0.749568,-0.40016,-0.203008,0.5075,38.47375,-20.02875,-12.360001,-7.544,15.024001,eccentric,2,3.0,29599.0,392909.0,354267.0,403431.0,359933.0
2026-04-07 17:42:14.767036,146420,805153123,805153878,0.724192,-0.36112,-0.167872,0.51625,38.7275,-20.9825,-11.904,-8.104,16.544,eccentric,2,3.0,29599.0,392909.0,354267.0,403431.0,359933.0
2026-04-07 17:42:14.768697,146421,805162660,805164662,0.724192,-0.36112,-0.167872,5.0925,38.263752,-22.00625,-11.904,-8.104,16.544,eccentric,2,3.0,29599.0,392909.0,354267.0,403431.0,359933.0
2026-04-07 17:42:14.770259,146422,805177181,805177524,0.757376,-0.343552,-0.17568,8.6975,36.225,-22.53125,-12.64,-8.384001,17.288,eccentric,2,3.0,29599.0,392909.0,354267.0,403431.0,359933.0
2026-04-07 17:42:14.801261,146423,805186476,805188336,0.757376,-0.343552,-0.17568,8.89,35.7175,-24.9025,-12.64,-8.384001,17.288,eccentric,2,3.0,29599.0,392909.0,354267.0,403431.0,359933.0
2026-04-07 17:42:14.805683,146424,805195476,805197051,0.759328,-0.368928,-0.191296,8.67125,34.69375,-25.515,-13.712001,-8.944,19.464,eccentric,2,3.0,29599.0,392909.0,354267.0,403431.0,359933.0
2026-04-07 17:42:14.807266,146425,805210032,805211967,0.759328,-0.368928,-0.191296,8.12875,34.34375,-26.7925,-13.712001,-8.944,19.464,eccentric,2,3.0,29599.0,392909.0,354267.0,403431.0,359933.0
2026-04-07 17:42:14.815517,146426,805218955,805220672,0.75152,-0.355264,-0.142496,9.7125,34.02875,-28.56875,-12.56,-8.512,16.344,eccentric,2,3.0,29599.0,392909.0,354267.0,403431.0,359933.0
2026-04-07 17:42:14.821772,146427,805227888,805229380,0.75152,-0.355264,-0.142496,11.917501,33.7925,-29.12875,-12.56,-8.512,16.344,eccentric,2,3.0,29599.0,392909.0,354267.0,403431.0,359933.0
2026-04-07 17:42:14.851494,146437,805242490,805244447,0.743712,-0.32208,-0.130784,12.10125,33.04,-28.93625,-13.000001,-9.008,16.256,eccentric,2,3.0,28517.0,384849.0,348114.0,403431.0,356252.0
2026-04-07 17:42:14.856446,146438,805251435,805253175,0.743712,-0.32208,-0.130784,11.795,32.82125,-29.04125,-13.000001,-9.008,16.256,eccentric,2,3.0,28517.0,384849.0,348114.0,403431.0,356252.0
2026-04-07 17:42:14.857890,146439,805260455,805261886,0.778848,-0.347456,-0.113216,9.16125,32.9175,-30.54625,-12.304001,-8.768001,16.368,eccentric,2,3.0,28517.0,384849.0,348114.0,403431.0,356252.0
2026-04-07 17:42:14.862998,146440,805269420,805270578,0.778848,-0.347456,-0.113216,6.895,33.92375,-31.52625,-12.304001,-8.768001,16.368,eccentric,2,3.0,28517.0,384849.0,348114.0,403431.0,356252.0
2026-04-07 17:42:14.916328,146441,805283923,805285507,0.77104,-0.384544,-0.134688,6.7025,35.11375,-30.94875,-12.424001,-9.128,17.04,eccentric,2,3.0,28517.0,384849.0,348114.0,403431.0,356252.0
2026-04-07 17:42:14.918533,146442,805292914,805294188,0.77104,-0.384544,-0.08784,5.94125,35.875,-32.22625,-12.424001,-9.128,17.04,eccentric,2,3.0,28517.0,384849.0,348114.0,403431.0,356252.0
2026-04-07 17:42:14.923130,146443,805301831,805302912,0.776896,-0.35136,-0.08784,6.7725,36.715,-32.38375,-12.496,-9.248,14.848001,eccentric,2,3.0,28517.0,384849.0,348114.0,403431.0,356252.0
2026-04-07 17:42:14.924777,146444,805316362,805317849,0.776896,-0.308416,-0.099552,8.04125,37.555,-32.29625,-12.496,-9.368,17.424002,eccentric,2,3.0,28517.0,384849.0,348114.0,403431.0,356252.0
2026-04-07 17:42:14.927302,146445,805325311,805326615,0.776896,-0.308416,-0.099552,8.9075,37.8875,-32.36625,-12.496,-9.368,17.424002,eccentric,2,3.0,28517.0,384849.0,348114.0,403431.0,356252.0
2026-04-07 17:42:14.928888,146446,805334251,805335326,0.812032,-0.335744,-0.124928,6.825,38.5875,-33.11,-12.696001,-10.296001,17.656,eccentric,2,3.0,28517.0,384849.0,348114.0,403431.0,356252.0
2026-04-07 17:42:14.983821,146456,805348795,805350289,0.812032,-0.335744,-0.124928,6.09,39.9875,-33.10125,-12.696001,-10.296001,17.656,eccentric,2,3.0,28033.0,381425.0,345586.0,403431.0,354944.0
2026-04-07 17:42:14.986291,146457,805357834,805359002,0.823744,-0.327936,-0.076128,4.2875,40.3725,-33.4075,-14.176001,-10.552,22.048,eccentric,2,3.0,28033.0,381425.0,345586.0,403431.0,354944.0
2026-04-07 17:42:14.988947,146458,805366775,805367702,0.823744,-0.327936,-0.076128,3.2725,41.34375,-33.915,-14.176001,-10.552,22.048,eccentric,2,3.0,28033.0,381425.0,345586.0,403431.0,354944.0
2026-04-07 17:42:14.991597,146459,805375664,805376418,0.7808,-0.31232,-0.050752,5.04,41.30875,-32.935,-12.616,-10.68,18.832,eccentric,2,3.0,28033.0,381425.0,345586.0,403431.0,354944.0
2026-04-07 17:42:14.993917,146460,805390165,805391354,0.7808,-0.31232,-0.050752,2.70375,39.97875,-32.235,-12.616,-10.68,18.832,eccentric,2,3.0,28033.0,381425.0,345586.0,403431.0,354944.0
2026-04-07 17:42:14.996305,146461,805399132,805400079,0.772992,-0.286944,-0.081984,1.855,37.3975,-29.4875,-12.912001,-10.672001,19.024,eccentric,2,3.0,28033.0,381425.0,345586.0,403431.0,354944.0
2026-04-07 17:42:14.998829,146462,805408043,805408794,0.772992,-0.286944,-0.081984,0.5425,35.105,-27.3875,-12.912001,-10.672001,19.024,eccentric,2,3.0,28033.0,381425.0,345586.0,403431.0,354944.0
2026-04-07 17:42:15.029410,146463,805422989,805423776,0.812032,-0.25376,-0.035136,-1.2775,33.71375,-28.866251,-13.144001,-11.120001,19.176,eccentric,2,3.0,28033.0,381425.0,345586.0,403431.0,354944.0
2026-04-07 17:42:15.032581,146464,805432501,805434566,0.812032,-0.25376,-0.035136,2.79125,32.92625,-30.66,-13.144001,-11.120001,19.176,eccentric,2,3.0,28033.0,381425.0,345586.0,403431.0,354944.0
2026-04-07 17:42:15.068991,146475,805441575,805443314,0.813984,-0.275232,-0.060512,5.915,31.955,-30.765,-13.248001,-11.648001,18.848001,eccentric,2,3.0,27661.0,378283.0,343053.0,403431.0,353108.0
2026-04-07 17:42:15.071642,146476,805450794,805452018,0.813984,-0.275232,-0.060512,3.9025,30.5025,-31.71875,-13.248001,-11.648001,18.848001,eccentric,2,3.0,27661.0,378283.0,343053.0,403431.0,353108.0
2026-04-07 17:42:15.073932,146477,805465251,805466993,0.798368,-0.257664,0.013664,3.8675,30.695,-29.995,-13.128,-11.584001,20.592001,eccentric,2,3.0,27661.0,378283.0,343053.0,403431.0,353108.0
2026-04-07 17:42:15.076412,146478,805474173,805475711,0.782752,-0.249856,-0.02928,-0.58625,29.18125,-28.3325,-13.128,-11.584001,20.536001,eccentric,2,3.0,27661.0,378283.0,343053.0,403431.0,353108.0
2026-04-07 17:42:15.078868,146479,805483191,805484377,0.782752,-0.249856,-0.02928,-2.1525,27.85125,-28.9275,-13.312,-11.192,20.536001,eccentric,2,3.0,27661.0,378283.0,343053.0,403431.0,353108.0
2026-04-07 17:42:15.110110,146480,805497693,805499317,0.81008,-0.249856,0.007808,-0.1575,25.3925,-29.82,-13.552001,-11.896001,21.464,eccentric,2,3.0,27661.0,378283.0,343053.0,403431.0,353108.0
2026-04-07 17:42:15.112715,146481,805506663,805508002,0.81008,-0.249856,0.007808,1.58375,23.9225,-31.5875,-13.552001,-11.896001,21.464,eccentric,2,3.0,27661.0,378283.0,343053.0,403431.0,353108.0
2026-04-07 17:42:15.115212,146482,805515588,805516711,0.813984,-0.232288,0.013664,5.74875,23.63375,-30.9225,-14.040001,-12.8,24.296001,eccentric,2,3.0,27661.0,378283.0,343053.0,403431.0,353108.0
2026-04-07 17:42:15.121443,146483,805530142,805531707,0.813984,-0.232288,0.013664,2.7475,23.73875,-30.975,-14.040001,-12.8,24.296001,eccentric,2,3.0,27661.0,378283.0,343053.0,403431.0,353108.0
2026-04-07 17:42:15.151427,146493,805539230,805540467,0.749568,-0.210816,0.060512,-2.1525,24.43,-32.34,-13.216001,-12.704,22.248001,eccentric,2,3.0,27325.0,375092.0,340401.0,403310.0,350767.0
2026-04-07 17:42:15.153926,146494,805548259,805549388,0.749568,-0.210816,0.060512,-2.5025,24.73625,-31.61375,-13.216001,-12.704,22.248001,eccentric,2,3.0,27325.0,375092.0,340401.0,403310.0,350767.0
2026-04-07 17:42:15.156391,146495,805557193,805558087,0.747616,-0.259616,0.003904,-3.85875,22.28625,-29.44375,-12.816001,-13.248001,21.720001,eccentric,2,3.0,27325.0,375092.0,340401.0,403310.0,350767.0
2026-04-07 17:42:15.162785,146496,805571767,805573135,0.747616,-0.259616,0.003904,-3.5875,19.66125,-27.991251,-12.816001,-13.248001,21.720001,eccentric,2,3.0,27325.0,375092.0,340401.0,403310.0,350767.0
2026-04-07 17:42:15.216219,146497,805580712,805581799,0.782752,-0.251808,0.001952,-0.6825,18.52375,-27.58875,-12.72,-13.184001,20.352001,eccentric,2,3.0,27325.0,375092.0,340401.0,403310.0,350767.0
2026-04-07 17:42:15.218548,146498,805589611,805590485,0.782752,-0.251808,0.001952,2.8,17.7975,-27.23,-12.72,-13.184001,20.352001,eccentric,2,3.0,27325.0,375092.0,340401.0,403310.0,350767.0
2026-04-07 17:42:15.222275,146499,805604078,805605330,0.772992,-0.177632,0.031232,4.2175,17.92,-26.99375,-12.664001,-13.160001,20.616001,eccentric,2,3.0,27325.0,375092.0,340401.0,403310.0,350767.0
2026-04-07 17:42:15.223837,146500,805612983,805614043,0.772992,-0.177632,0.031232,1.6975,17.491251,-26.897501,-12.664001,-13.160001,20.616001,eccentric,2,3.0,27325.0,375092.0,340401.0,403310.0,350767.0
2026-04-07 17:42:15.228147,146501,805621885,805622727,0.792512,-0.203008,0.033184,-2.135,16.625,-26.01375,-12.352,-13.216001,19.816002,eccentric,2,3.0,27325.0,375092.0,340401.0,403310.0,350767.0
2026-04-07 17:42:15.256856,146511,805636354,805638009,0.804224,-0.240096,0.033184,-6.27375,15.68,-23.37125,-13.52,-14.120001,24.968,eccentric,2,3.0,27080.0,372939.0,338622.0,402354.0,348947.0
2026-04-07 17:42:15.258589,146512,805645312,805646765,0.804224,-0.240096,0.033184,-9.8175,13.51,-21.2625,-13.52,-14.120001,24.968,eccentric,2,3.0,27080.0,372939.0,338622.0,402354.0,348947.0
2026-04-07 17:42:15.260319,146513,805654236,805655527,0.804224,-0.240096,0.001952,-12.18875,11.52375,-19.13625,-13.52,-14.120001,24.968,eccentric,2,3.0,27080.0,372939.0,338622.0,402354.0,348947.0
2026-04-07 17:42:15.263457,146514,805663201,805664276,0.815936,-0.230336,0.003904,-9.24875,10.08875,-17.1675,-13.464001,-14.104001,21.024,eccentric,2,3.0,27080.0,372939.0,338622.0,402354.0,348947.0
2026-04-07 17:42:15.271108,146515,805677679,805679135,0.813984,-0.183488,0.015616,-8.8375,8.95125,-16.5025,-12.608001,-14.056001,20.752,eccentric,2,3.0,27080.0,372939.0,338622.0,402354.0,348947.0
2026-04-07 17:42:15.299043,146516,805686609,805687888,0.813984,-0.183488,0.015616,-6.4925,8.74125,-14.51625,-12.608001,-14.056001,20.752,eccentric,2,3.0,27080.0,372939.0,338622.0,402354.0,348947.0
2026-04-07 17:42:15.303553,146517,805695522,805696597,0.792512,-0.187392,0.035136,-3.5175,8.09375,-12.5825,-12.496,-13.920001,24.072,eccentric,2,3.0,27080.0,372939.0,338622.0,402354.0,348947.0
2026-04-07 17:42:15.305079,146518,805709962,805711500,0.792512,-0.187392,0.035136,-4.8825,6.65875,-11.76875,-12.496,-13.920001,24.072,eccentric,2,3.0,27080.0,372939.0,338622.0,402354.0,348947.0
2026-04-07 17:42:15.311954,146519,805718899,805720221,0.804224,-0.21472,0.066368,-6.48375,6.11625,-10.52625,-12.272,-13.960001,20.808,eccentric,2,3.0,27080.0,372939.0,338622.0,402354.0,348947.0
2026-04-07 17:42:15.340306,146520,805727841,805728959,0.804224,-0.21472,0.066368,-8.18125,6.0725,-8.82875,-12.272,-13.960001,20.808,eccentric,2,3.0,27080.0,372939.0,338622.0,402354.0,348947.0
2026-04-07 17:42:15.368938,146531,805742476,805743937,0.825696,-0.20496,0.056608,-10.5,7.0,-7.595,-12.824,-13.816001,20.832,eccentric,2,3.0,27313.0,374028.0,339051.0,402198.0,348988.0
2026-04-07 17:42:15.370919,146532,805751422,805752618,0.825696,-0.20496,0.056608,-9.485,8.61,-7.105,-12.824,-13.816001,20.832,eccentric,2,3.0,27313.0,374028.0,339051.0,402198.0,348988.0
2026-04-07 17:42:15.374024,146533,805760391,805761336,0.813984,-0.191296,0.10736,-7.42,10.05375,-6.7375,-12.400001,-13.848001,20.960001,eccentric,2,3.0,27313.0,374028.0,339051.0,402198.0,348988.0
2026-04-07 17:42:15.375945,146534,805774891,805776266,0.813984,-0.191296,0.050752,-4.3575,10.87625,-6.64125,-12.400001,-13.848001,20.960001,eccentric,2,3.0,27313.0,374028.0,339051.0,402198.0,348988.0
2026-04-07 17:42:15.379783,146535,805783825,805784969,0.788608,-0.20496,0.050752,-1.74125,10.7975,-6.4225,-12.992001,-14.368001,22.456001,eccentric,2,3.0,27313.0,374028.0,339051.0,402198.0,348988.0
2026-04-07 17:42:15.383499,146536,805792816,805793697,0.788608,-0.20496,0.050752,-3.07125,10.0275,-5.34625,-12.992001,-14.368001,22.456001,eccentric,2,3.0,27313.0,374028.0,339051.0,402198.0,348988.0
2026-04-07 17:42:15.414381,146537,805801766,805802420,0.77104,-0.1952,0.081984,-5.94125,9.345,-4.59375,-12.72,-14.448001,20.568,eccentric,2,3.0,27313.0,374028.0,339051.0,402198.0,348988.0
2026-04-07 17:42:15.417591,146538,805816566,805817302,0.788608,-0.21472,0.070272,-6.76375,8.715,-3.5875,-12.752001,-14.320001,19.592001,eccentric,2,3.0,27313.0,374028.0,339051.0,402198.0,348988.0
2026-04-07 17:42:15.419655,146539,805825891,805828056,0.788608,-0.21472,0.070272,-6.79875,7.5425,-2.93125,-12.752001,-14.320001,19.592001,eccentric,2,3.0,27313.0,374028.0,339051.0,402198.0,348988.0
2026-04-07 17:42:15.450235,146540,805834822,805836831,0.788608,-0.21472,0.070272,-6.195,6.72,-2.19625,-12.752001,-14.320001,19.592001,eccentric,2,3.0,27313.0,374028.0,339051.0,402198.0,348988.0
2026-04-07 17:42:15.510311,146550,805849458,805851744,0.767136,-0.206912,0.07808,-4.48,5.06625,-1.435,-12.616,-14.280001,20.424002,eccentric,2,3.0,27338.0,373998.0,338837.0,401621.0,348220.0
2026-04-07 17:42:15.514860,146551,805858370,805860461,0.81984,-0.251808,0.095648,-4.62,3.15,-0.385,-12.200001,-13.792001,20.896002,eccentric,2,3.0,27338.0,373998.0,338837.0,401621.0,348220.0
2026-04-07 17:42:15.516494,146552,805867283,805869160,0.81984,-0.251808,0.095648,-8.995,1.35625,1.155,-12.200001,-13.792001,20.896002,eccentric,2,3.0,27338.0,373998.0,338837.0,401621.0,348220.0
2026-04-07 17:42:15.523143,146553,805876323,805877913,0.825696,-0.222528,0.081984,-11.01625,1.365,2.44125,-12.712001,-13.784,22.984001,eccentric,2,3.0,27338.0,373998.0,338837.0,401621.0,348220.0
2026-04-07 17:42:15.525095,146554,805890951,805892834,0.825696,-0.222528,0.081984,-10.815,1.12,3.36875,-12.712001,-13.784,22.984001,eccentric,2,3.0,27338.0,373998.0,338837.0,401621.0,348220.0
2026-04-07 17:42:15.526455,146555,805899875,805901532,0.837408,-0.220576,0.07808,-13.13375,1.2775,3.03625,-12.224001,-14.048,21.344002,eccentric,2,3.0,27338.0,373998.0,338837.0,401621.0,348220.0
2026-04-07 17:42:15.530871,146556,805908898,805910254,0.837408,-0.220576,0.07808,-14.41125,1.54,2.77375,-12.224001,-14.048,21.344002,eccentric,2,3.0,27338.0,373998.0,338837.0,401621.0,348220.0
2026-04-07 17:42:15.536859,146557,805923544,805925186,0.815936,-0.232288,0.064416,-12.705,1.5225,2.33625,-12.912001,-13.624001,21.352001,eccentric,2,3.0,27338.0,373998.0,338837.0,401621.0,348220.0
2026-04-07 17:42:15.538587,146558,805932597,805933948,0.815936,-0.232288,0.064416,-10.535,0.42875,1.60125,-12.912001,-13.624001,21.352001,eccentric,2,3.0,27338.0,373998.0,338837.0,401621.0,348220.0
2026-04-07 17:42:15.562325,146568,805942223,805942709,0.823744,-0.240096,0.033184,-9.1175,-1.61875,0.81375,-12.728001,-13.752001,20.36,eccentric,2,3.0,27414.0,374615.0,339323.0,402078.0,348649.0
2026-04-07 17:42:15.566607,146569,805951606,805953540,0.823744,-0.240096,0.033184,-8.61875,-3.6575,0.84875,-12.728001,-13.752001,20.36,eccentric,2,3.0,27414.0,374615.0,339323.0,402078.0,348649.0
2026-04-07 17:42:15.567680,146570,805966157,805966475,0.851072,-0.22448,0.076128,-10.71,-4.48,1.085,-13.696001,-14.496,22.048,eccentric,2,3.0,27414.0,374615.0,339323.0,402078.0,348649.0
2026-04-07 17:42:15.570968,146571,805975368,805977270,0.851072,-0.22448,0.076128,-12.6875,-4.59375,0.65625,-13.696001,-14.496,22.048,eccentric,2,3.0,27414.0,374615.0,339323.0,402078.0,348649.0
2026-04-07 17:42:15.577992,146572,805984413,805985987,0.792512,-0.25376,0.040992,-11.9,-4.24375,-0.7875,-12.792001,-13.992001,21.368002,eccentric,2,3.0,27414.0,374615.0,339323.0,402078.0,348649.0
2026-04-07 17:42:15.606525,146573,805993437,805994689,0.792512,-0.25376,0.040992,-10.07125,-4.99625,-2.24,-12.792001,-13.992001,21.368002,eccentric,2,3.0,27414.0,374615.0,339323.0,402078.0,348649.0
2026-04-07 17:42:15.611100,146574,806007945,806009645,0.786656,-0.261568,0.013664,-6.97375,-6.9125,-2.9925,-12.456,-13.624001,20.720001,eccentric,2,3.0,27414.0,374615.0,339323.0,402078.0,348649.0
2026-04-07 17:42:15.612564,146575,806016845,806018333,0.769088,-0.236192,0.021472,-5.22375,-8.67125,-3.5175,-12.648001,-13.744,22.256,eccentric,2,3.0,27414.0,374615.0,339323.0,402078.0,348649.0
2026-04-07 17:42:15.619256,146576,806025787,806027033,0.769088,-0.236192,0.021472,-5.6175,-10.255,-3.38625,-12.648001,-13.744,22.256,eccentric,2,3.0,27414.0,374615.0,339323.0,402078.0,348649.0
2026-04-07 17:42:15.675721,146587,806040806,806042417,0.7808,-0.247904,0.005856,-5.97625,-11.47125,-2.65125,-12.648001,-13.872001,21.544,eccentric,2,3.0,27531.0,375699.0,340264.0,402761.0,349683.0
2026-04-07 17:42:15.677333,146588,806049854,806051148,0.7808,-0.247904,0.005856,-6.23875,-12.792501,-2.8525,-12.648001,-13.872001,21.544,eccentric,2,3.0,27531.0,375699.0,340264.0,402761.0,349683.0
2026-04-07 17:42:15.678916,146589,806058813,806059889,0.694912,-0.249856,0.005856,-5.59125,-12.285,-3.91125,-12.456,-13.8,20.288,eccentric,2,3.0,27531.0,375699.0,340264.0,402761.0,349683.0
2026-04-07 17:42:15.683190,146590,806073305,806074855,0.694912,-0.249856,0.005856,-3.85875,-11.76875,-3.3075,-12.456,-13.8,20.288,eccentric,2,3.0,27531.0,375699.0,340264.0,402761.0,349683.0
2026-04-07 17:42:15.684923,146591,806082324,806083586,0.716384,-0.267424,0.007808,-3.325,-11.9,-2.87875,-12.856001,-14.512001,21.672,eccentric,2,3.0,27531.0,375699.0,340264.0,402761.0,349683.0
2026-04-07 17:42:15.686405,146592,806091270,806092345,0.716384,-0.267424,0.007808,-5.13625,-12.215,-2.56375,-12.856001,-14.512001,21.672,eccentric,2,3.0,27531.0,375699.0,340264.0,402761.0,349683.0
2026-04-07 17:42:15.694236,146593,806100257,806101055,0.677344,-0.271328,-0.060512,-6.4925,-12.6175,-2.485,-13.320001,-13.968,21.856,eccentric,2,3.0,27531.0,375699.0,340264.0,402761.0,349683.0
2026-04-07 17:42:15.731397,146594,806114736,806115977,0.677344,-0.271328,-0.060512,-6.9475,-13.81625,-2.31,-13.320001,-13.968,21.856,eccentric,2,3.0,27531.0,375699.0,340264.0,402761.0,349683.0
2026-04-07 17:42:15.733512,146595,806123636,806124705,0.71248,-0.27328,-0.070272,-7.1225,-14.35875,-3.115,-11.904,-14.144001,19.6,eccentric,2,3.0,27531.0,375699.0,340264.0,402761.0,349683.0
2026-04-07 17:42:15.738209,146596,806132556,806133393,0.71248,-0.27328,-0.070272,-5.06625,-14.60375,-3.63125,-11.904,-14.144001,19.6,eccentric,2,3.0,27531.0,375699.0,340264.0,402761.0,349683.0
2026-04-07 17:42:15.762434,146606,806147168,806148292,0.757376,-0.304512,-0.03904,-2.66875,-13.79875,-4.24375,-12.440001,-13.960001,19.944,eccentric,2,3.0,28169.0,380650.0,344273.0,403431.0,352891.0
2026-04-07 17:42:15.763906,146607,806156105,806157079,0.757376,-0.304512,-0.03904,-4.90875,-12.22375,-3.92875,-12.440001,-13.960001,19.944,eccentric,2,3.0,28169.0,380650.0,344273.0,403431.0,352891.0
2026-04-07 17:42:15.768702,146608,806165097,806165852,0.67344,-0.318176,-0.076128,-5.95875,-11.06,-2.19625,-12.864,-13.976001,20.912,eccentric,2,3.0,28169.0,380650.0,344273.0,403431.0,352891.0
