pc_time,serial_num,sensor_ts,host_ts,ax,ay,az,gx,gy,gz,mx,my,mz,phase,rpe,weight_kg,ppg_a,ppg_b,ppg_c,ppg_d,ppg_e
2026-04-14 18:06:44.594304,747406,1609507498192860,5098162709,-0.154208,-0.798368,-1.03456,39.2,89.9325,-65.695,27.488,14.744,-16.424002,inter_set_rest,8,3.0,33524.0,194993.0,76492.0,201989.0,77950.0
2026-04-14 18:06:44.606964,747407,1609507498201912,5098171415,-0.033184,-0.925248,-0.958432,31.0975,93.24,-71.0675,27.168001,15.616001,-17.144001,inter_set_rest,8,3.0,33524.0,194993.0,76492.0,201989.0,77950.0
2026-04-14 18:06:44.609154,747408,1609507498216440,5098186394,-0.033184,-0.925248,-0.958432,31.5525,97.265,-73.64875,27.168001,15.616001,-17.144001,inter_set_rest,8,3.0,33524.0,194993.0,76492.0,201989.0,77950.0
2026-04-14 18:06:44.621420,747409,1609507498225358,5098195114,0.001952,-0.940864,-0.864736,38.33375,103.53,-74.5325,26.552002,16.480001,-17.856,inter_set_rest,8,3.0,33524.0,194993.0,76492.0,201989.0,77950.0
2026-04-14 18:06:44.621700,747410,1609507498234383,5098203827,0.001952,-0.940864,-0.864736,53.41,112.07875,-79.00375,26.552002,16.480001,-17.856,inter_set_rest,8,3.0,33524.0,194993.0,76492.0,201989.0,77950.0
2026-04-14 18:06:44.621880,747411,1609507498248915,5098218724,-0.144448,-0.772992,-1.00528,66.246254,117.5125,-80.675,25.328001,17.272001,-18.232,inter_set_rest,8,3.0,33524.0,194993.0,76492.0,201989.0,77950.0
2026-04-14 18:06:44.622034,747412,1609507498257885,5098227450,-0.144448,-0.648064,-0.812032,66.87625,116.36625,-83.39625,25.328001,17.272001,-22.328001,inter_set_rest,8,3.0,33524.0,194993.0,76492.0,201989.0,77950.0
2026-04-14 18:06:44.633128,747413,1609507498272407,5098242399,-0.122976,-0.648064,-0.812032,56.638752,113.7675,-85.32125,24.68,18.272001,-21.800001,inter_set_rest,8,3.0,33524.0,194993.0,76492.0,201989.0,77950.0
2026-04-14 18:06:44.643231,747414,1609507498281454,5098251086,-0.011712,-0.757376,-0.88816,42.28,113.74125,-84.945,23.616001,19.264002,-19.736,inter_set_rest,8,3.0,33524.0,194993.0,76492.0,201989.0,77950.0
2026-04-14 18:06:44.670416,747425,1609507498290480,5098259888,-0.011712,-0.757376,-0.88816,23.1,112.2975,-85.015,23.616001,19.264002,-19.736,inter_set_rest,8,3.0,35484.0,191205.0,79553.0,197736.0,81818.0
2026-04-14 18:06:44.673038,747426,1609507498305015,5098274826,0.132736,-0.794464,-0.636352,11.99625,113.2425,-81.76875,22.256,20.12,-20.480001,inter_set_rest,8,3.0,35484.0,191205.0,79553.0,197736.0,81818.0
2026-04-14 18:06:44.675420,747427,1609507498313989,5098283536,0.132736,-0.794464,-0.636352,14.56,120.16375,-78.277504,22.256,20.12,-20.480001,inter_set_rest,8,3.0,35484.0,191205.0,79553.0,197736.0,81818.0
2026-04-14 18:06:44.690431,747428,1609507498328474,5098298432,0.150304,-0.80032,-0.577792,20.65,126.81375,-78.77625,21.104,20.68,-20.320002,inter_set_rest,8,3.0,35484.0,191205.0,79553.0,197736.0,81818.0
2026-04-14 18:06:44.698269,747429,1609507498337415,5098307083,0.150304,-0.80032,-0.577792,32.89125,134.26875,-76.5975,21.104,20.68,-20.320002,inter_set_rest,8,3.0,35484.0,191205.0,79553.0,197736.0,81818.0
2026-04-14 18:06:44.714396,747430,1609507498351913,5098322169,0.099552,-0.620736,-0.55632,41.895,139.81625,-71.68875,20.528002,21.344002,-19.552,inter_set_rest,8,3.0,35484.0,191205.0,79553.0,197736.0,81818.0
2026-04-14 18:06:44.723129,747431,1609507498360870,5098330883,0.10736,-0.657824,-0.591456,38.045002,140.32375,-68.8625,20.104,21.424002,-23.104002,inter_set_rest,8,3.0,35484.0,191205.0,79553.0,197736.0,81818.0
2026-04-14 18:06:44.733103,747432,1609507498369941,5098339574,0.10736,-0.657824,-0.591456,24.0275,139.895,-66.54375,20.104,21.424002,-23.104002,inter_set_rest,8,3.0,35484.0,191205.0,79553.0,197736.0,81818.0
2026-04-14 18:06:44.825800,747443,1609507498384896,5098354420,0.329888,-0.804224,-0.433344,12.0575,139.8775,-62.4575,16.632,22.424002,-22.752,inter_set_rest,8,3.0,38435.0,188135.0,84743.0,194323.0,87756.0
2026-04-14 18:06:44.828264,747444,1609507498393911,5098363239,0.329888,-0.804224,-0.433344,6.6675,138.11,-60.47125,16.632,22.424002,-22.752,inter_set_rest,8,3.0,38435.0,188135.0,84743.0,194323.0,87756.0
2026-04-14 18:06:44.830665,747445,1609507498408395,5098378198,0.433344,-0.70272,-0.488,15.65375,139.8425,-56.1225,15.968,22.712002,-23.128,inter_set_rest,8,3.0,38435.0,188135.0,84743.0,194323.0,87756.0
2026-04-14 18:06:44.833268,747446,1609507498417338,5098386912,0.433344,-0.70272,-0.488,21.70875,141.54,-54.13625,15.968,22.712002,-23.128,inter_set_rest,8,3.0,38435.0,188135.0,84743.0,194323.0,87756.0
2026-04-14 18:06:44.838949,747447,1609507498426264,5098395656,0.320128,-0.542656,-0.554368,19.04875,140.28876,-56.11375,14.472001,23.12,-24.776001,inter_set_rest,8,3.0,38435.0,188135.0,84743.0,194323.0,87756.0
2026-04-14 18:06:44.839524,747448,1609507498440739,5098410538,0.265472,-0.630496,-0.50752,6.265,139.01125,-56.0525,13.368001,23.048,-24.44,inter_set_rest,8,3.0,38435.0,188135.0,84743.0,194323.0,87756.0
2026-04-14 18:06:44.840498,747449,1609507498449847,5098419279,0.265472,-0.630496,-0.50752,-13.965,133.63,-52.9375,13.368001,23.048,-24.44,inter_set_rest,8,3.0,38435.0,188135.0,84743.0,194323.0,87756.0
2026-04-14 18:06:44.843008,747450,1609507498464540,5098434325,0.327936,-0.698816,-0.366976,-24.6225,128.79124,-47.60875,12.048,23.272001,-25.072,inter_set_rest,8,3.0,38435.0,188135.0,84743.0,194323.0,87756.0
2026-04-14 18:06:44.846829,747451,1609507498473553,5098443071,0.327936,-0.698816,-0.366976,-24.115,126.35,-42.04375,12.048,23.272001,-25.072,inter_set_rest,8,3.0,38435.0,188135.0,84743.0,194323.0,87756.0
2026-04-14 18:06:44.873483,747462,1609507498488617,5098458098,0.396256,-0.677344,-0.329888,-18.83,124.81875,-37.8175,11.616,23.2,-26.552002,inter_set_rest,8,3.0,45173.0,242656.0,97011.0,243591.0,100307.0
2026-04-14 18:06:44.875931,747463,1609507498497592,5098466923,0.396256,-0.677344,-0.329888,-10.59625,123.38375,-33.53,11.616,23.2,-26.552002,inter_set_rest,8,3.0,45173.0,242656.0,97011.0,243591.0,100307.0
2026-04-14 18:06:44.878497,747464,1609507498506517,5098475683,0.298656,-0.54656,-0.378688,-2.12625,123.3225,-28.65625,10.688001,22.800001,-27.264002,inter_set_rest,8,3.0,45173.0,242656.0,97011.0,243591.0,100307.0
2026-04-14 18:06:44.884816,747465,1609507498521057,5098490819,0.257664,-0.579744,-0.466528,-3.94625,123.3575,-22.53125,9.648001,23.048,-27.616001,inter_set_rest,8,3.0,45173.0,242656.0,97011.0,243591.0,100307.0
2026-04-14 18:06:44.890613,747466,1609507498530048,5098499516,0.257664,-0.579744,-0.466528,-6.88625,123.3925,-19.32,9.648001,23.048,-27.616001,inter_set_rest,8,3.0,45173.0,242656.0,97011.0,243591.0,100307.0
2026-04-14 18:06:44.909824,747467,1609507498544760,5098514560,0.210816,-0.515328,-0.505568,-5.7925,120.00625,-15.0325,8.104,23.320002,-26.544,inter_set_rest,8,3.0,45173.0,242656.0,97011.0,243591.0,100307.0
2026-04-14 18:06:44.915553,747468,1609507498553830,5098523342,0.210816,-0.515328,-0.505568,-5.53875,114.70375,-12.06625,8.104,23.320002,-26.544,inter_set_rest,8,3.0,45173.0,242656.0,97011.0,243591.0,100307.0
2026-04-14 18:06:44.924353,747469,1609507498562914,5098532028,0.242048,-0.573888,-0.38064,-8.0325,109.9175,-8.225,8.208,22.784,-28.192001,inter_set_rest,8,3.0,45173.0,242656.0,97011.0,243591.0,100307.0
2026-04-14 18:06:44.939572,747470,1609507498577429,5098546977,0.242048,-0.573888,-0.38064,-16.82625,105.86625,-1.9425,8.208,22.784,-28.192001,inter_set_rest,8,3.0,45173.0,242656.0,97011.0,243591.0,100307.0
2026-04-14 18:06:44.970662,747481,1609507498586776,5098555682,0.392352,-0.628544,-0.411872,-14.7,102.0425,7.23625,7.192,22.776001,-28.52,inter_set_rest,8,3.0,64029.0,293222.0,131623.0,284644.0,138651.0
2026-04-14 18:06:44.973658,747482,1609507498601502,5098570694,0.320128,-0.571936,-0.359168,-13.50125,99.32125,12.99375,6.456,22.816002,-30.072,inter_set_rest,8,3.0,64029.0,293222.0,131623.0,284644.0,138651.0
2026-04-14 18:06:44.975723,747483,1609507498610519,5098579408,0.320128,-0.571936,-0.359168,-10.115,97.65875,14.175,6.456,22.816002,-30.072,inter_set_rest,8,3.0,64029.0,293222.0,131623.0,284644.0,138651.0
2026-04-14 18:06:44.980556,747484,1609507498619474,5098588147,0.320128,-0.571936,-0.359168,-2.59,94.96375,10.36,6.456,22.816002,-30.072,inter_set_rest,8,3.0,64029.0,293222.0,131623.0,284644.0,138651.0
2026-04-14 18:06:44.995249,747485,1609507498634337,5098603179,0.339648,-0.589504,-0.298656,-0.84,91.51625,9.59875,5.896,22.576,-27.888,inter_set_rest,8,3.0,64029.0,293222.0,131623.0,284644.0,138651.0
2026-04-14 18:06:45.002751,747486,1609507498643430,5098611928,0.363072,-0.685152,-0.579744,0.7875,86.79125,14.21875,4.76,23.048,-27.784,inter_set_rest,8,3.0,64029.0,293222.0,131623.0,284644.0,138651.0
2026-04-14 18:06:45.014184,747487,1609507498652810,5098622686,0.363072,-0.685152,-0.579744,-0.90125,83.29125,19.53875,4.76,23.048,-27.784,inter_set_rest,8,3.0,64029.0,293222.0,131623.0,284644.0,138651.0
2026-04-14 18:06:45.030624,747488,1609507498667315,5098637694,0.388448,-0.61488,-0.447008,-0.1225,81.78625,26.95875,4.072,22.76,-28.640001,inter_set_rest,8,3.0,64029.0,293222.0,131623.0,284644.0,138651.0
2026-04-14 18:06:45.040361,747489,1609507498676300,5098646406,0.388448,-0.61488,-0.447008,15.35625,79.17,31.2375,4.072,22.76,-28.640001,inter_set_rest,8,3.0,64029.0,293222.0,131623.0,284644.0,138651.0
2026-04-14 18:06:45.072096,747500,1609507498690965,5098659350,0.417728,-0.505568,-0.421632,24.78,78.015,30.1875,4.376,23.28,-28.800001,inter_set_rest,8,3.0,107355.0,309528.0,194842.0,297843.0,203704.0
2026-04-14 18:06:45.074415,747501,1609507498700257,5098670148,0.417728,-0.505568,-0.421632,16.1175,76.195,27.2825,4.376,23.28,-28.800001,inter_set_rest,8,3.0,107355.0,309528.0,194842.0,297843.0,203704.0
2026-04-14 18:06:45.077081,747502,1609507498709222,5098678865,0.38064,-0.650016,-0.421632,3.17625,74.89125,24.89375,3.992,23.232,-29.984001,inter_set_rest,8,3.0,107355.0,309528.0,194842.0,297843.0,203704.0
2026-04-14 18:06:45.087090,747503,1609507498723767,5098693822,0.456768,-0.70272,-0.249856,-4.515,73.246254,26.8625,3.568,23.568,-29.136002,inter_set_rest,8,3.0,107355.0,309528.0,194842.0,297843.0,203704.0
2026-04-14 18:06:45.094491,747504,1609507498732797,5098702472,0.456768,-0.70272,-0.249856,-0.315,73.683754,29.82875,3.568,23.568,-29.136002,inter_set_rest,8,3.0,107355.0,309528.0,194842.0,297843.0,203704.0
2026-04-14 18:06:45.109554,747505,1609507498747313,5098717392,0.464576,-0.628544,-0.179584,19.95875,75.10125,28.67375,3.384,23.632002,-28.856,inter_set_rest,8,3.0,107355.0,309528.0,194842.0,297843.0,203704.0
2026-04-14 18:06:45.134419,747506,1609507498756279,5098726088,0.464576,-0.628544,-0.179584,37.51125,76.475,23.1175,3.384,23.632002,-28.856,inter_set_rest,8,3.0,107355.0,309528.0,194842.0,297843.0,203704.0
2026-04-14 18:06:45.160595,747507,1609507498770811,5098741053,0.40992,-0.632448,-0.181536,44.58125,77.525,21.84,1.664,23.912,-28.768002,inter_set_rest,8,3.0,107355.0,309528.0,194842.0,297843.0,203704.0
2026-04-14 18:06:45.165288,747508,1609507498779736,5098749811,0.40992,-0.632448,-0.181536,42.65625,73.115,27.5625,1.664,23.912,-28.768002,inter_set_rest,8,3.0,107355.0,309528.0,194842.0,297843.0,203704.0
2026-04-14 18:06:45.191951,747519,1609507498789116,5098758577,0.36112,-0.745664,-0.148352,36.42625,67.9,32.34,2.496,24.144001,-29.592001,inter_set_rest,8,3.0,136991.0,326522.0,229386.0,312741.0,237951.0
2026-04-14 18:06:45.194507,747520,1609507498803714,5098773541,0.359168,-0.530944,-0.21472,31.89375,63.4375,34.72875,2.384,24.688002,-28.080002,inter_set_rest,8,3.0,136991.0,326522.0,229386.0,312741.0,237951.0
2026-04-14 18:06:45.196959,747521,1609507498812729,5098782301,0.359168,-0.530944,-0.21472,54.0575,60.40125,36.575,2.384,24.688002,-28.080002,inter_set_rest,8,3.0,136991.0,326522.0,229386.0,312741.0,237951.0
2026-04-14 18:06:45.199778,747522,1609507498827404,5098797222,0.324032,-0.314272,-0.01952,82.48625,58.388752,29.522501,2.488,26.008001,-26.512001,inter_set_rest,8,3.0,136991.0,326522.0,229386.0,312741.0,237951.0
2026-04-14 18:06:45.202341,747523,1609507498836560,5098805955,0.324032,-0.314272,-0.01952,89.11,56.735,21.735,2.488,26.008001,-26.512001,inter_set_rest,8,3.0,136991.0,326522.0,229386.0,312741.0,237951.0
2026-04-14 18:06:45.233438,747524,1609507498845535,5098814671,0.284992,-0.452864,-0.0976,79.82625,56.525,19.915,1.072,26.672,-25.968,inter_set_rest,8,3.0,136991.0,326522.0,229386.0,312741.0,237951.0
2026-04-14 18:06:45.235913,747525,1609507498860002,5098829543,0.284992,-0.452864,-0.0976,64.75875,55.62375,18.4275,1.072,26.672,-25.968,inter_set_rest,8,3.0,136991.0,326522.0,229386.0,312741.0,237951.0
2026-04-14 18:06:45.238329,747526,1609507498868902,5098838214,0.314272,-0.59536,-0.099552,62.69375,55.2125,15.14625,1.032,26.680002,-26.632002,inter_set_rest,8,3.0,136991.0,326522.0,229386.0,312741.0,237951.0
2026-04-14 18:06:45.244680,747527,1609507498883431,5098853224,0.288896,-0.568032,0.085888,73.17625,53.80375,8.96,1.952,27.728,-25.952002,inter_set_rest,8,3.0,136991.0,326522.0,229386.0,312741.0,237951.0
2026-04-14 18:06:45.273376,747538,1609507498892599,5098862214,0.288896,-0.568032,0.085888,91.8225,52.52625,4.13875,1.952,27.728,-25.952002,inter_set_rest,8,3.0,148303.0,333297.0,243574.0,319672.0,252330.0
2026-04-14 18:06:45.275544,747539,1609507498907217,5098877138,0.177632,-0.542656,-0.001952,113.54875,50.085,2.56375,1.488,28.968002,-24.424002,inter_set_rest,8,3.0,148303.0,333297.0,243574.0,319672.0,252330.0
2026-04-14 18:06:45.278565,747540,1609507498916378,5098885942,0.177632,-0.542656,-0.001952,132.78125,46.515,0.735,1.488,28.968002,-24.424002,inter_set_rest,8,3.0,148303.0,333297.0,243574.0,319672.0,252330.0
2026-04-14 18:06:45.286079,747541,1609507498925433,5098894643,0.144448,-0.359168,-0.040992,147.6475,46.13,-3.99875,0.976,30.024002,-23.016,inter_set_rest,8,3.0,148303.0,333297.0,243574.0,319672.0,252330.0
2026-04-14 18:06:45.302376,747542,1609507498939974,5098909531,0.144448,-0.359168,-0.040992,157.99,47.57375,-9.1875,0.976,30.024002,-23.016,inter_set_rest,8,3.0,148303.0,333297.0,243574.0,319672.0,252330.0
2026-04-14 18:06:45.310761,747543,1609507498948899,5098918300,0.142496,-0.316224,0.296704,159.55624,50.00625,-16.12625,-0.024,31.304,-21.904001,inter_set_rest,8,3.0,148303.0,333297.0,243574.0,319672.0,252330.0
2026-04-14 18:06:45.325523,747544,1609507498963423,5098933219,-0.031232,-0.40016,0.325984,152.0575,50.4175,-20.16875,-0.584,31.952002,-20.488,inter_set_rest,8,3.0,148303.0,333297.0,243574.0,319672.0,252330.0
2026-04-14 18:06:45.334732,747545,1609507498972385,5098941960,-0.031232,-0.40016,0.325984,136.3075,44.79125,-22.3125,-0.584,31.952002,-20.488,inter_set_rest,8,3.0,148303.0,333297.0,243574.0,319672.0,252330.0
2026-04-14 18:06:45.343099,747546,1609507498981339,5098950642,-0.031232,-0.40016,0.325984,121.65125,40.451252,-26.03125,-0.584,31.952002,-20.488,inter_set_rest,8,3.0,148303.0,333297.0,243574.0,319672.0,252330.0
2026-04-14 18:06:45.373577,747557,1609507498995911,5098965644,0.171776,-0.495808,0.23424,127.435,41.195,-31.045,-0.176,32.440002,-19.224,inter_set_rest,8,3.0,145007.0,333811.0,239837.0,322758.0,248726.0
2026-04-14 18:06:45.375656,747558,1609507499005010,5098974417,0.158112,-0.456768,0.413824,147.76125,43.6625,-35.65625,-0.784,33.288002,-17.552,inter_set_rest,8,3.0,145007.0,333811.0,239837.0,322758.0,248726.0
2026-04-14 18:06:45.382399,747559,1609507499019498,5098989362,0.158112,-0.456768,0.413824,167.27376,48.67625,-37.02125,-0.784,33.288002,-17.552,inter_set_rest,8,3.0,145007.0,333811.0,239837.0,322758.0,248726.0
2026-04-14 18:06:45.391927,747560,1609507499028486,5098998055,-0.02928,-0.353312,0.57584,180.6875,51.84375,-35.77875,-1.28,33.968002,-14.152,inter_set_rest,8,3.0,145007.0,333811.0,239837.0,322758.0,248726.0
2026-04-14 18:06:45.398545,747561,1609507499037429,5099006772,-0.02928,-0.353312,0.57584,187.94125,52.82375,-40.232502,-1.28,33.968002,-14.152,inter_set_rest,8,3.0,145007.0,333811.0,239837.0,322758.0,248726.0
2026-04-14 18:06:45.414205,747562,1609507499051933,5099021722,0.197152,-0.308416,0.720288,195.405,48.9125,-52.64875,-3.208,35.096,-12.072001,inter_set_rest,8,3.0,145007.0,333811.0,239837.0,322758.0,248726.0
2026-04-14 18:06:45.423625,747563,1609507499060883,5099030441,0.197152,-0.308416,0.720288,199.03625,45.33375,-68.39,-3.208,35.096,-12.072001,inter_set_rest,8,3.0,145007.0,333811.0,239837.0,322758.0,248726.0
2026-04-14 18:06:45.438429,747564,1609507499075390,5099045326,0.374784,-0.208864,0.515328,199.96375,46.1125,-78.1025,-4.152,35.008003,-10.176001,inter_set_rest,8,3.0,145007.0,333811.0,239837.0,322758.0,248726.0
2026-04-14 18:06:45.447329,747565,1609507499084321,5099054049,0.222528,-0.226432,0.837408,190.1025,52.2375,-82.95,-5.192,35.568,-6.872,inter_set_rest,8,3.0,145007.0,333811.0,239837.0,322758.0,248726.0
2026-04-14 18:06:45.474445,747576,1609507499098973,5099067371,0.222528,-0.226432,0.837408,173.215,63.28875,-82.81,-5.192,35.568,-6.872,inter_set_rest,8,3.0,127257.0,303325.0,219072.0,300082.0,227994.0
2026-04-14 18:06:45.477006,747577,1609507499108292,5099078215,0.101504,-0.353312,0.696864,163.87,74.0775,-81.41875,-5.528,35.368,-7.000001,inter_set_rest,8,3.0,127257.0,303325.0,219072.0,300082.0,227994.0
2026-04-14 18:06:45.503950,747578,1609507499117285,5099086902,0.101504,-0.353312,0.696864,168.69125,79.765,-85.2425,-5.528,35.368,-7.000001,inter_set_rest,8,3.0,127257.0,303325.0,219072.0,300082.0,227994.0
2026-04-14 18:06:45.505411,747579,1609507499131792,5099101821,0.25376,-0.035136,0.665632,192.325,80.19375,-94.6925,-7.016,34.688004,-4.336,inter_set_rest,8,3.0,127257.0,303325.0,219072.0,300082.0,227994.0
2026-04-14 18:06:45.507946,747580,1609507499140742,5099110520,0.25376,-0.035136,0.665632,212.33626,81.62875,-110.50375,-7.016,34.688004,-4.336,inter_set_rest,8,3.0,127257.0,303325.0,219072.0,300082.0,227994.0
2026-04-14 18:06:45.533979,747581,1609507499155280,5099125397,0.32208,0.101504,0.876448,209.86,83.3175,-120.4175,-10.432,35.24,-0.536,inter_set_rest,8,3.0,127257.0,303325.0,219072.0,300082.0,227994.0
2026-04-14 18:06:45.540565,747582,1609507499164302,5099134112,0.1952,-0.070272,1.253184,176.72375,91.11375,-120.4175,-11.392,34.344,1.848,inter_set_rest,8,3.0,127257.0,303325.0,219072.0,300082.0,227994.0
2026-04-14 18:06:45.543128,747583,1609507499178817,5099149045,0.1952,-0.070272,1.253184,135.905,104.055,-114.66875,-11.392,34.344,1.848,inter_set_rest,8,3.0,127257.0,303325.0,219072.0,300082.0,227994.0
2026-04-14 18:06:45.577076,747594,1609507499187925,5099157698,0.169824,0.013664,1.130208,123.85625,115.22,-116.68125,-12.160001,33.24,2.952,inter_set_rest,8,3.0,114368.0,285923.0,202447.0,285832.0,211093.0
2026-04-14 18:06:45.579856,747595,1609507499196907,5099166428,0.169824,0.013664,1.130208,150.535,122.395004,-127.925,-12.160001,33.24,2.952,inter_set_rest,8,3.0,114368.0,285923.0,202447.0,285832.0,211093.0
2026-04-14 18:06:45.582351,747596,1609507499211441,5099181343,0.316224,0.070272,0.895968,182.8575,126.91,-140.4725,-12.512001,31.712002,4.984,inter_set_rest,8,3.0,114368.0,285923.0,202447.0,285832.0,211093.0
2026-04-14 18:06:45.584915,747597,1609507499220419,5099190104,0.316224,0.070272,0.895968,182.63,130.59375,-142.8,-12.512001,31.712002,4.984,inter_set_rest,8,3.0,114368.0,285923.0,202447.0,285832.0,211093.0
2026-04-14 18:06:45.596901,747598,1609507499235020,5099205038,0.1952,0.206912,1.237568,154.98,133.7525,-131.22375,-14.280001,30.920002,7.264,inter_set_rest,8,3.0,114368.0,285923.0,202447.0,285832.0,211093.0
2026-04-14 18:06:45.606614,747599,1609507499243982,5099213730,0.1952,0.316224,1.547936,129.4125,139.58875,-120.09375,-14.280001,30.920002,7.264,inter_set_rest,8,3.0,114368.0,285923.0,202447.0,285832.0,211093.0
2026-04-14 18:06:45.614140,747600,1609507499253042,5099222424,0.06832,0.318176,1.547936,116.1125,150.3075,-120.207504,-15.304001,29.656002,7.520001,inter_set_rest,8,3.0,114368.0,285923.0,202447.0,285832.0,211093.0
2026-04-14 18:06:45.629627,747601,1609507499267581,5099237406,0.074176,0.406016,1.28832,128.24875,157.535,-126.525,-15.544001,27.680002,10.232,inter_set_rest,8,3.0,114368.0,285923.0,202447.0,285832.0,211093.0
2026-04-14 18:06:45.638427,747602,1609507499276693,5099246143,0.074176,0.406016,1.28832,154.88374,158.99625,-136.91125,-15.544001,27.680002,10.232,inter_set_rest,8,3.0,114368.0,285923.0,202447.0,285832.0,211093.0
2026-04-14 18:06:45.677105,747613,1609507499291815,5099261058,-0.040992,0.454816,1.260992,157.08,157.57,-140.90125,-16.04,26.184002,11.144,inter_set_rest,8,3.0,115902.0,299720.0,202957.0,293808.0,212112.0
2026-04-14 18:06:45.679282,747614,1609507499300799,5099269872,-0.040992,0.454816,1.260992,133.84875,152.36375,-135.12625,-16.04,26.184002,11.144,inter_set_rest,8,3.0,115902.0,299720.0,202957.0,293808.0,212112.0
2026-04-14 18:06:45.683339,747615,1609507499309733,5099278594,-0.031232,0.550464,1.426912,112.385,148.82875,-132.23,-17.008001,25.288002,16.304,inter_set_rest,8,3.0,115902.0,299720.0,202957.0,293808.0,212112.0
2026-04-14 18:06:45.685838,747616,1609507499324257,5099293561,-0.031232,0.550464,1.364448,112.21,149.065,-135.6775,-17.008001,25.288002,16.304,inter_set_rest,8,3.0,115902.0,299720.0,202957.0,293808.0,212112.0
2026-04-14 18:06:45.696083,747617,1609507499333305,5099302325,-0.099552,0.737856,1.368352,121.31,148.21625,-144.2,-18.2,23.056002,18.832,inter_set_rest,8,3.0,115902.0,299720.0,202957.0,293808.0,212112.0
2026-04-14 18:06:45.709519,747618,1609507499347833,5099317351,-0.152256,0.685152,1.221952,133.7875,143.92,-150.54375,-17.352001,20.76,17.488,inter_set_rest,8,3.0,115902.0,299720.0,202957.0,293808.0,212112.0
2026-04-14 18:06:45.719848,747619,1609507499356988,5099326045,-0.152256,0.685152,1.221952,129.22874,138.48625,-149.63374,-17.352001,20.76,17.488,inter_set_rest,8,3.0,115902.0,299720.0,202957.0,293808.0,212112.0
2026-04-14 18:06:45.727361,747620,1609507499366067,5099334746,-0.181536,0.648064,1.2688,108.2725,131.11874,-140.80501,-17.576,18.944,19.504002,inter_set_rest,8,3.0,115902.0,299720.0,202957.0,293808.0,212112.0
2026-04-14 18:06:45.741989,747621,1609507499380909,5099349691,-0.181536,0.648064,1.2688,98.84875,124.6175,-133.83125,-17.576,18.944,19.504002,inter_set_rest,8,3.0,115902.0,299720.0,202957.0,293808.0,212112.0
2026-04-14 18:06:45.782992,747632,1609507499390504,5099360875,-0.20496,0.831552,1.186816,105.58625,119.735,-132.7025,-16.672,17.016,20.104,inter_set_rest,8,3.0,125463.0,311365.0,213031.0,300608.0,222839.0
2026-04-14 18:06:45.783128,747633,1609507499405160,5099373860,-0.20496,0.847168,1.007232,107.6775,116.82125,-133.5075,-16.672,17.016,20.104,inter_set_rest,8,3.0,125463.0,311365.0,213031.0,300608.0,222839.0
2026-04-14 18:06:45.785329,747634,1609507499414521,5099384697,-0.142496,0.851072,1.007232,101.246254,113.4,-135.9575,-16.696001,15.56,21.928001,inter_set_rest,8,3.0,125463.0,311365.0,213031.0,300608.0,222839.0
2026-04-14 18:06:45.788422,747635,1609507499423634,5099393505,-0.142496,0.851072,1.007232,93.00375,107.6775,-134.89,-16.696001,15.56,21.928001,inter_set_rest,8,3.0,125463.0,311365.0,213031.0,300608.0,222839.0
2026-04-14 18:06:45.801756,747636,1609507499438329,5099408470,-0.134688,0.661728,1.167296,82.67875,101.26375,-128.84375,-17.152,14.176001,23.952002,inter_set_rest,8,3.0,125463.0,311365.0,213031.0,300608.0,222839.0
2026-04-14 18:06:45.810402,747637,1609507499447281,5099417163,-0.160064,0.679296,1.16144,77.72625,95.3925,-118.99125,-17.192001,12.312,23.824001,inter_set_rest,8,3.0,125463.0,311365.0,213031.0,300608.0,222839.0
2026-04-14 18:06:45.823167,747638,1609507499461784,5099430197,-0.160064,0.679296,1.16144,88.655,88.80375,-112.13125,-17.192001,12.312,23.824001,inter_set_rest,8,3.0,125463.0,311365.0,213031.0,300608.0,222839.0
2026-04-14 18:06:45.833241,747639,1609507499471092,5099440982,-0.12688,0.894016,1.036512,108.176254,84.77875,-108.5525,-16.344,10.320001,23.320002,inter_set_rest,8,3.0,125463.0,311365.0,213031.0,300608.0,222839.0
2026-04-14 18:06:45.871089,747640,1609507499480025,5099449665,-0.12688,0.894016,1.036512,116.305,80.885,-106.33,-16.344,10.320001,23.320002,inter_set_rest,8,3.0,125463.0,311365.0,213031.0,300608.0,222839.0
2026-04-14 18:06:45.948087,747651,1609507499494717,5099464625,-0.10736,0.940864,0.804224,109.97,75.005,-106.04125,-15.904,8.472,24.096,inter_set_rest,8,3.0,113694.0,299728.0,199005.0,289758.0,208375.0
2026-04-14 18:06:45.951019,747652,1609507499503689,5099473317,-0.10736,0.940864,0.804224,90.0025,67.7075,-104.615,-15.904,8.472,24.096,inter_set_rest,8,3.0,113694.0,299728.0,199005.0,289758.0,208375.0
2026-04-14 18:06:45.953661,747653,1609507499518228,5099488223,-0.222528,0.714432,0.837408,69.69375,64.3475,-98.3675,-16.480001,8.360001,26.064001,inter_set_rest,8,3.0,113694.0,299728.0,199005.0,289758.0,208375.0
2026-04-14 18:06:45.956068,747654,1609507499527261,5099496930,-0.210816,0.739808,1.026752,63.4025,62.34375,-85.96,-16.888,7.032001,26.984001,inter_set_rest,8,3.0,113694.0,299728.0,199005.0,289758.0,208375.0
2026-04-14 18:06:45.958272,747655,1609507499536330,5099505607,-0.210816,0.739808,1.026752,72.5725,59.0275,-79.065,-16.888,7.032001,26.984001,inter_set_rest,8,3.0,113694.0,299728.0,199005.0,289758.0,208375.0
2026-04-14 18:06:45.960605,747656,1609507499550805,5099520554,-0.27328,0.813984,0.8296,91.175,55.67625,-77.665,-16.824001,5.088,26.560001,inter_set_rest,8,3.0,113694.0,299728.0,199005.0,289758.0,208375.0
2026-04-14 18:06:45.964738,747657,1609507499559715,5099529248,-0.27328,0.813984,0.8296,107.625,54.55625,-72.8,-16.824001,5.088,26.560001,inter_set_rest,8,3.0,113694.0,299728.0,199005.0,289758.0,208375.0
2026-04-14 18:06:45.965538,747658,1609507499574538,5099544193,-0.33184,0.987712,0.659776,108.96375,51.87,-65.6425,-15.760001,3.616,26.896002,inter_set_rest,8,3.0,113694.0,299728.0,199005.0,289758.0,208375.0
2026-04-14 18:06:45.968052,747659,1609507499583544,5099552943,-0.33184,0.987712,0.659776,88.33125,42.9975,-63.55125,-15.760001,3.616,26.896002,inter_set_rest,8,3.0,113694.0,299728.0,199005.0,289758.0,208375.0
2026-04-14 18:06:45.998567,747670,1609507499592657,5099561940,-0.284992,0.882304,0.901824,61.0925,37.30125,-58.30125,-15.536001,2.768,27.232,inter_set_rest,8,3.0,104263.0,286812.0,186998.0,278075.0,196240.0
2026-04-14 18:06:46.001041,747671,1609507499607321,5099576881,-0.31232,0.628544,0.70272,42.14,36.16375,-53.80375,-15.160001,1.672,27.376001,inter_set_rest,8,3.0,104263.0,286812.0,186998.0,278075.0,196240.0
2026-04-14 18:06:46.003551,747672,1609507499616330,5099585577,-0.31232,0.628544,0.70272,36.63625,32.87375,-50.68875,-15.160001,1.672,27.376001,inter_set_rest,8,3.0,104263.0,286812.0,186998.0,278075.0,196240.0
2026-04-14 18:06:46.005581,747673,1609507499630849,5099600625,-0.345504,0.802272,0.671488,50.44375,28.44625,-48.41375,-15.016001,0.8,26.960001,inter_set_rest,8,3.0,104263.0,286812.0,186998.0,278075.0,196240.0
2026-04-14 18:06:46.008009,747674,1609507499639869,5099609356,-0.345504,0.802272,0.671488,70.35875,27.06375,-44.17875,-15.016001,0.8,26.960001,inter_set_rest,8,3.0,104263.0,286812.0,186998.0,278075.0,196240.0
2026-04-14 18:06:46.010968,747675,1609507499648943,5099618051,-0.388448,0.899872,0.620736,74.15625,25.795,-38.17625,-14.088,-0.776,25.392002,inter_set_rest,8,3.0,104263.0,286812.0,186998.0,278075.0,196240.0
2026-04-14 18:06:46.024334,747676,1609507499663469,5099633082,-0.388448,0.899872,0.620736,66.61375,26.11875,-35.91875,-14.088,-0.776,25.392002,inter_set_rest,8,3.0,104263.0,286812.0,186998.0,278075.0,196240.0
2026-04-14 18:06:46.034817,747677,1609507499672390,5099641766,-0.427488,0.8784,0.636352,54.8975,26.62625,-35.32375,-13.64,-0.936,27.128002,inter_set_rest,8,3.0,104263.0,286812.0,186998.0,278075.0,196240.0
2026-04-14 18:06:46.051084,747678,1609507499686914,5099656681,-0.427488,0.80032,0.755424,41.93,25.78625,-34.44875,-13.64,-0.936,27.128002,inter_set_rest,8,3.0,104263.0,286812.0,186998.0,278075.0,196240.0
2026-04-14 18:06:46.083019,747689,1609507499695967,5099665442,-0.437248,0.798368,0.755424,32.61125,27.0025,-33.55625,-13.072001,-1.808,27.112001,inter_set_rest,8,3.0,92679.0,274493.0,172420.0,266763.0,180825.0
2026-04-14 18:06:46.085967,747690,1609507499710626,5099680403,-0.47824,0.569984,0.480192,29.49625,29.70625,-31.78,-12.52,-2.576,27.592001,inter_set_rest,8,3.0,92679.0,274493.0,172420.0,266763.0,180825.0
2026-04-14 18:06:46.088469,747691,1609507499719732,5099689104,-0.47824,0.569984,0.480192,29.77625,34.06375,-28.97125,-12.52,-2.576,27.592001,inter_set_rest,8,3.0,92679.0,274493.0,172420.0,266763.0,180825.0
2026-04-14 18:06:46.090517,747692,1609507499728665,5099697791,-0.581696,0.659776,0.454816,34.74625,37.695,-24.5175,-12.096001,-3.312,27.2,inter_set_rest,8,3.0,92679.0,274493.0,172420.0,266763.0,180825.0
2026-04-14 18:06:46.106067,747693,1609507499743178,5099712956,-0.581696,0.659776,0.454816,50.05875,34.125,-18.585001,-12.096001,-3.312,27.2,inter_set_rest,8,3.0,92679.0,274493.0,172420.0,266763.0,180825.0
2026-04-14 18:06:46.113376,747694,1609507499752117,5099721677,-0.363072,0.94672,0.792512,63.1575,32.47125,-13.60625,-11.656,-4.208,28.136002,inter_set_rest,8,3.0,92679.0,274493.0,172420.0,266763.0,180825.0
2026-04-14 18:06:46.128541,747695,1609507499766622,5099736571,-0.363072,0.94672,0.792512,51.56375,35.21,-12.845,-11.656,-4.208,28.136002,inter_set_rest,8,3.0,92679.0,274493.0,172420.0,266763.0,180825.0
2026-04-14 18:06:46.139798,747696,1609507499775652,5099745255,-0.452864,0.745664,0.454816,28.455,37.4325,-14.23625,-11.176001,-4.264,28.104002,inter_set_rest,8,3.0,92679.0,274493.0,172420.0,266763.0,180825.0
2026-04-14 18:06:46.154786,747697,1609507499790140,5099760143,-0.46848,0.659776,0.5856,14.06125,38.43875,-15.30375,-10.64,-4.8,29.104002,inter_set_rest,8,3.0,92679.0,274493.0,172420.0,266763.0,180825.0
2026-04-14 18:06:46.179787,747708,1609507499799288,5099769107,-0.46848,0.659776,0.5856,11.59375,38.6225,-16.12625,-10.64,-4.8,29.104002,inter_set_rest,8,3.0,104803.0,278443.0,187035.0,269692.0,196338.0
2026-04-14 18:06:46.184801,747709,1609507499808290,5099777870,-0.462624,0.718336,0.488,17.64,38.64875,-15.53125,-11.000001,-4.52,29.248001,inter_set_rest,8,3.0,104803.0,278443.0,187035.0,269692.0,196338.0
2026-04-14 18:06:46.187344,747710,1609507499822833,5099792761,-0.462624,0.718336,0.488,24.22875,37.7475,-16.77375,-11.000001,-4.52,29.248001,inter_set_rest,8,3.0,104803.0,278443.0,187035.0,269692.0,196338.0
2026-04-14 18:06:46.193140,747711,1609507499831800,5099801484,-0.57584,0.864736,0.460672,26.95,35.23625,-18.15625,-10.288,-5.848,28.912,inter_set_rest,8,3.0,104803.0,278443.0,187035.0,269692.0,196338.0
2026-04-14 18:06:46.208284,747712,1609507499846315,5099816370,-0.57584,0.864736,0.460672,18.97875,31.6225,-19.25875,-10.288,-5.848,28.912,inter_set_rest,8,3.0,104803.0,278443.0,187035.0,269692.0,196338.0
2026-04-14 18:06:46.256933,747713,1609507499855446,5099825061,-0.484096,0.739808,0.493856,9.09125,29.75,-19.2325,-9.112,-5.568,29.056002,inter_set_rest,8,3.0,104803.0,278443.0,187035.0,269692.0,196338.0
2026-04-14 18:06:46.259661,747714,1609507499864391,5099833745,-0.484096,0.739808,0.493856,1.77625,27.90375,-17.78,-9.112,-5.568,29.056002,inter_set_rest,8,3.0,104803.0,278443.0,187035.0,269692.0,196338.0
2026-04-14 18:06:46.262235,747715,1609507499878934,5099848674,-0.50752,0.685152,0.628544,0.035,26.4775,-19.36375,-8.408,-6.048,29.04,inter_set_rest,8,3.0,104803.0,278443.0,187035.0,269692.0,196338.0
2026-04-14 18:06:46.264696,747716,1609507499887855,5099857377,-0.50752,0.685152,0.628544,5.285,26.41625,-20.055,-8.408,-6.048,29.04,inter_set_rest,8,3.0,104803.0,278443.0,187035.0,269692.0,196338.0
2026-04-14 18:06:46.294813,747727,1609507499902576,5099872287,-0.573888,0.724192,0.5368,14.4025,26.95875,-20.3525,-7.880001,-6.464,29.768002,inter_set_rest,8,3.0,110739.0,280964.0,193815.0,271936.0,203611.0
2026-04-14 18:06:46.297277,747728,1609507499911518,5099881024,-0.669536,0.782752,0.324032,15.14625,25.54125,-21.32375,-7.656,-7.16,29.832,inter_set_rest,8,3.0,110739.0,280964.0,193815.0,271936.0,203611.0
2026-04-14 18:06:46.299792,747729,1609507499920616,5099889804,-0.669536,0.782752,0.324032,9.765,21.2275,-19.145,-7.656,-7.16,29.832,inter_set_rest,8,3.0,110739.0,280964.0,193815.0,271936.0,203611.0
2026-04-14 18:06:46.302065,747730,1609507499935143,5099904716,-0.61488,0.755424,0.433344,4.68125,18.3575,-18.515,-7.128,-7.168,29.544,inter_set_rest,8,3.0,110739.0,280964.0,193815.0,271936.0,203611.0
2026-04-14 18:06:46.307018,747731,1609507499944092,5099913423,-0.61488,0.755424,0.433344,-3.12375,17.675,-18.52375,-7.128,-7.168,29.544,inter_set_rest,8,3.0,110739.0,280964.0,193815.0,271936.0,203611.0
2026-04-14 18:06:46.319477,747732,1609507499958743,5099928337,-0.552416,0.685152,0.552416,-5.78375,16.70375,-17.03625,-6.920001,-7.400001,30.168001,inter_set_rest,8,3.0,110739.0,280964.0,193815.0,271936.0,203611.0
2026-04-14 18:06:46.329800,747733,1609507499967832,5099937031,-0.552416,0.685152,0.552416,-3.99,16.555,-16.86125,-6.920001,-7.400001,30.168001,inter_set_rest,8,3.0,110739.0,280964.0,193815.0,271936.0,203611.0
2026-04-14 18:06:46.345646,747734,1609507499982361,5099951982,-0.733952,0.872544,0.679296,-2.54625,15.30375,-15.9425,-6.568,-7.544,31.488,inter_set_rest,8,3.0,110739.0,280964.0,193815.0,271936.0,203611.0
2026-04-14 18:06:46.352899,747735,1609507499991284,5099960677,-0.876448,1.16144,0.632448,-4.4625,4.83,-12.7575,-6.904,-7.424,30.704002,inter_set_rest,8,3.0,110739.0,280964.0,193815.0,271936.0,203611.0
2026-04-14 18:06:46.380554,747746,1609507500000234,5099969427,-0.876448,1.16144,0.632448,-9.87875,-7.67375,0.2625,-6.904,-7.424,30.704002,inter_set_rest,8,3.0,115756.0,289636.0,199304.0,278771.0,209619.0
2026-04-14 18:06:46.383020,747747,1609507500014776,5099984372,-0.964288,0.841312,0.464576,-18.1125,-13.9125,11.17375,-7.8,-6.808,31.536001,inter_set_rest,8,3.0,115756.0,289636.0,199304.0,278771.0,209619.0
2026-04-14 18:06:46.385418,747748,1609507500023757,5099993122,-0.964288,0.841312,0.464576,-29.49625,-14.27125,7.49875,-7.8,-6.808,31.536001,inter_set_rest,8,3.0,115756.0,289636.0,199304.0,278771.0,209619.0
2026-04-14 18:06:46.403223,747749,1609507500038314,5100008121,-0.583648,0.6344,0.4392,-32.27,-9.0825,15.636251,-7.304,-6.776001,30.36,inter_set_rest,8,3.0,115756.0,289636.0,199304.0,278771.0,209619.0
2026-04-14 18:06:46.409308,747750,1609507500047398,5100016850,-0.583648,0.6344,0.4392,-25.305,-7.86625,19.80125,-7.304,-6.776001,30.36,inter_set_rest,8,3.0,115756.0,289636.0,199304.0,278771.0,209619.0
2026-04-14 18:06:46.418152,747751,1609507500056357,5100025530,-0.49776,0.675392,0.433344,-16.52875,-5.215,14.88375,-7.104001,-6.728,30.800001,inter_set_rest,8,3.0,115756.0,289636.0,199304.0,278771.0,209619.0
2026-04-14 18:06:46.433067,747752,1609507500070844,5100040395,-0.437248,0.661728,0.45872,-12.4075,-3.1325,11.29625,-7.016,-6.392,30.304,inter_set_rest,8,3.0,115756.0,289636.0,199304.0,278771.0,209619.0
2026-04-14 18:06:46.440453,747753,1609507500079832,5100049135,-0.437248,0.661728,0.45872,-13.09875,-0.1575,7.4025,-7.016,-6.392,30.304,inter_set_rest,8,3.0,115756.0,289636.0,199304.0,278771.0,209619.0
2026-04-14 18:06:46.479506,747764,1609507500094329,5100064712,-0.599264,0.698816,0.445056,-14.971251,1.3825,3.36,-6.704001,-6.408001,30.456001,inter_set_rest,8,3.0,116753.0,289476.0,200685.0,278447.0,210760.0
2026-04-14 18:06:46.482000,747765,1609507500103397,5100073433,-0.599264,0.698816,0.445056,-15.715,1.95125,0.63,-6.704001,-6.408001,30.456001,inter_set_rest,8,3.0,116753.0,289476.0,200685.0,278447.0,210760.0
2026-04-14 18:06:46.512050,747766,1609507500117918,5100086487,-0.597312,0.69296,0.462624,-15.1025,1.11125,-1.30375,-8.792001,-5.496,33.008003,inter_set_rest,8,3.0,116753.0,289476.0,200685.0,278447.0,210760.0
2026-04-14 18:06:46.514508,747767,1609507500127313,5100097258,-0.597312,0.69296,0.462624,-13.440001,0.0,-2.765,-8.792001,-5.496,33.008003,inter_set_rest,8,3.0,116753.0,289476.0,200685.0,278447.0,210760.0
2026-04-14 18:06:46.516996,747768,1609507500136352,5100105995,-0.630496,0.739808,0.5856,-11.4975,-1.1725,-2.7475,-7.888001,-5.904,31.512001,inter_set_rest,8,3.0,116753.0,289476.0,200685.0,278447.0,210760.0
2026-04-14 18:06:46.521176,747769,1609507500150841,5100120886,-0.691008,0.7808,0.571936,-8.96875,-2.37125,-1.61,-7.896,-5.928001,32.336002,inter_set_rest,8,3.0,116753.0,289476.0,200685.0,278447.0,210760.0
2026-04-14 18:06:46.521799,747770,1609507500159839,5100129632,-0.691008,0.7808,0.571936,-6.29125,-3.29,-1.1725,-7.896,-5.928001,32.336002,inter_set_rest,8,3.0,116753.0,289476.0,200685.0,278447.0,210760.0
2026-04-14 18:06:46.536784,747771,1609507500174311,5100144546,-0.679296,0.735904,0.402112,-4.48875,-3.43875,0.5425,-7.352,-6.288,30.728,inter_set_rest,8,3.0,116753.0,289476.0,200685.0,278447.0,210760.0
2026-04-14 18:06:46.545617,747772,1609507500183251,5100153234,-0.679296,0.735904,0.402112,-4.76875,-2.66875,1.98625,-7.352,-6.288,30.728,inter_set_rest,8,3.0,116753.0,289476.0,200685.0,278447.0,210760.0
2026-04-14 18:06:46.553129,747773,1609507500192225,5100161898,-0.562176,0.685152,0.513376,-7.6475,-1.47875,2.75625,-7.616,-5.776001,32.056,inter_set_rest,8,3.0,116753.0,289476.0,200685.0,278447.0,210760.0
2026-04-14 18:06:46.604814,747784,1609507500206972,5100176859,-0.562176,0.685152,0.513376,-8.8025,-1.015,3.8325,-7.616,-5.776001,32.056,inter_set_rest,8,3.0,114942.0,292558.0,199693.0,282232.0,209953.0
2026-04-14 18:06:46.629638,747785,1609507500215963,5100185604,-0.64416,0.696864,0.466528,-10.80625,-0.385,4.4625,-8.08,-5.552,30.856,inter_set_rest,8,3.0,114942.0,292558.0,199693.0,282232.0,209953.0
2026-04-14 18:06:46.632190,747786,1609507500230635,5100200566,-0.64416,0.708576,0.505568,-10.77125,0.1575,4.87375,-8.08,-5.552,30.536001,inter_set_rest,8,3.0,114942.0,292558.0,199693.0,282232.0,209953.0
2026-04-14 18:06:46.641887,747787,1609507500239558,5100209254,-0.651968,0.708576,0.505568,-9.2575,1.0675,5.74,-7.448,-5.344,30.536001,inter_set_rest,8,3.0,114942.0,292558.0,199693.0,282232.0,209953.0
2026-04-14 18:06:46.644301,747788,1609507500254049,5100224135,-0.607072,0.698816,0.40992,-6.2125,0.97125,6.6675,-7.408001,-5.928001,31.024002,inter_set_rest,8,3.0,114942.0,292558.0,199693.0,282232.0,209953.0
2026-04-14 18:06:46.646879,747789,1609507500263059,5100232871,-0.607072,0.698816,0.40992,-2.45,0.02625,6.93,-7.408001,-5.928001,31.024002,inter_set_rest,8,3.0,114942.0,292558.0,199693.0,282232.0,209953.0
2026-04-14 18:06:46.649792,747790,1609507500272042,5100241579,-0.609024,0.72224,0.482144,-0.49,-0.9975,8.33,-7.392,-6.176,29.896002,inter_set_rest,8,3.0,114942.0,292558.0,199693.0,282232.0,209953.0
2026-04-14 18:06:46.652363,747791,1609507500286654,5100256530,-0.609024,0.72224,0.482144,1.98625,-0.53375,8.32125,-7.392,-6.176,29.896002,inter_set_rest,8,3.0,114942.0,292558.0,199693.0,282232.0,209953.0
2026-04-14 18:06:46.681046,747802,1609507500296221,5100265835,-0.57584,0.691008,0.488,4.9,-0.4025,6.72,-7.304,-6.000001,30.792002,inter_set_rest,8,3.0,99386.0,285661.0,181417.0,277571.0,191246.0
2026-04-14 18:06:46.683554,747803,1609507500311066,5100280853,-0.57584,0.718336,0.44896,9.2575,-2.40625,7.5425,-7.304,-6.000001,30.792002,inter_set_rest,8,3.0,99386.0,285661.0,181417.0,277571.0,191246.0
2026-04-14 18:06:46.686063,747804,1609507500320030,5100289571,-0.581696,0.718336,0.44896,12.87125,-4.80375,9.14375,-9.272,-5.6,31.480001,inter_set_rest,8,3.0,99386.0,285661.0,181417.0,277571.0,191246.0
2026-04-14 18:06:46.692355,747805,1609507500329101,5100298259,-0.581696,0.718336,0.44896,14.18375,-6.39625,9.1525,-9.272,-5.6,31.480001,inter_set_rest,8,3.0,99386.0,285661.0,181417.0,277571.0,191246.0
2026-04-14 18:06:46.708964,747806,1609507500343645,5100313188,-0.603168,0.70272,0.42944,13.25625,-8.04125,7.84875,-8.352,-6.784,30.160002,inter_set_rest,8,3.0,99386.0,285661.0,181417.0,277571.0,191246.0
2026-04-14 18:06:46.714883,747807,1609507500352599,5100321906,-0.579744,0.704672,0.423584,11.2175,-10.395,7.84875,-8.64,-6.552001,30.648,inter_set_rest,8,3.0,99386.0,285661.0,181417.0,277571.0,191246.0
2026-04-14 18:06:46.728395,747808,1609507500367183,5100336856,-0.579744,0.704672,0.423584,10.2725,-13.1775,10.63125,-8.64,-6.552001,30.648,inter_set_rest,8,3.0,99386.0,285661.0,181417.0,277571.0,191246.0
2026-04-14 18:06:46.737936,747809,1609507500376169,5100345557,-0.620736,0.784704,0.525088,11.7075,-14.323751,11.725,-7.864,-6.76,31.744001,inter_set_rest,8,3.0,99386.0,285661.0,181417.0,277571.0,191246.0
2026-04-14 18:06:46.746884,747810,1609507500385111,5100354246,-0.620736,0.784704,0.525088,12.4075,-13.7375,10.9025,-7.864,-6.76,31.744001,inter_set_rest,8,3.0,99386.0,285661.0,181417.0,277571.0,191246.0
2026-04-14 18:06:46.782271,747821,1609507500399780,5100369354,-0.616832,0.759328,0.581696,11.725,-12.565,9.66875,-8.856,-6.808,31.480001,inter_set_rest,8,3.0,82434.0,273487.0,159598.0,265660.0,168651.0
2026-04-14 18:06:46.784367,747822,1609507500408786,5100378106,-0.616832,0.759328,0.581696,10.6225,-11.90875,10.35125,-8.856,-6.808,31.480001,inter_set_rest,8,3.0,82434.0,273487.0,159598.0,265660.0,168651.0
2026-04-14 18:06:46.787361,747823,1609507500423411,5100393255,-0.636352,0.747616,0.398208,7.7,-10.0975,10.99875,-9.320001,-6.920001,31.512001,inter_set_rest,8,3.0,82434.0,273487.0,159598.0,265660.0,168651.0
2026-04-14 18:06:46.794821,747824,1609507500432438,5100402048,-0.534848,0.75152,0.486048,5.43375,-7.77875,10.71,-9.568001,-6.920001,31.824001,inter_set_rest,8,3.0,82434.0,273487.0,159598.0,265660.0,168651.0
2026-04-14 18:06:46.802998,747825,1609507500441399,5100410755,-0.534848,0.75152,0.486048,3.45625,-6.08125,8.9775,-9.568001,-6.920001,31.824001,inter_set_rest,8,3.0,82434.0,273487.0,159598.0,265660.0,168651.0
2026-04-14 18:06:46.817989,747826,1609507500455897,5100425645,-0.568032,0.743712,0.366976,-0.875,-5.38125,7.84,-8.272,-7.400001,31.208002,inter_set_rest,8,3.0,82434.0,273487.0,159598.0,265660.0,168651.0
2026-04-14 18:06:46.829656,747827,1609507500464843,5100434333,-0.568032,0.743712,0.366976,-5.5825,-4.85625,8.00625,-8.272,-7.400001,31.208002,inter_set_rest,8,3.0,82434.0,273487.0,159598.0,265660.0,168651.0
2026-04-14 18:06:46.840634,747828,1609507500479371,5100449264,-0.56608,0.753472,0.489952,-10.42125,-4.12125,6.72875,-10.024,-6.616,32.032,inter_set_rest,8,3.0,82434.0,273487.0,159598.0,265660.0,168651.0
2026-04-14 18:06:46.851032,747829,1609507500488333,5100457964,-0.56608,0.753472,0.489952,-11.917501,-4.2175,5.80125,-10.024,-6.616,32.032,inter_set_rest,8,3.0,82434.0,273487.0,159598.0,265660.0,168651.0
2026-04-14 18:06:46.884382,747840,1609507500503069,5100473194,-0.597312,0.788608,0.577792,-11.865,-3.89375,6.29125,-9.136001,-7.184001,30.44,inter_set_rest,8,3.0,74463.0,265133.0,148833.0,258127.0,157606.0
2026-04-14 18:06:46.887332,747841,1609507500512216,5100481940,-0.597312,0.726144,0.519232,-13.1425,-3.49125,5.34625,-9.136001,-7.184001,30.44,inter_set_rest,8,3.0,74463.0,265133.0,148833.0,258127.0,157606.0
2026-04-14 18:06:46.889818,747842,1609507500521185,5100490684,-0.550464,0.730048,0.519232,-14.13125,-1.95125,4.62875,-10.216001,-6.76,30.2,inter_set_rest,8,3.0,74463.0,265133.0,148833.0,258127.0,157606.0
2026-04-14 18:06:46.896919,747843,1609507500535681,5100505709,-0.622688,0.757376,0.472384,-16.3275,0.02625,3.84125,-9.104,-6.616,31.408,inter_set_rest,8,3.0,74463.0,265133.0,148833.0,258127.0,157606.0
2026-04-14 18:06:46.907664,747844,1609507500544619,5100514459,-0.622688,0.757376,0.472384,-15.11125,1.37375,5.0225,-9.104,-6.616,31.408,inter_set_rest,8,3.0,74463.0,265133.0,148833.0,258127.0,157606.0
2026-04-14 18:06:46.923457,747845,1609507500559179,5100529365,-0.568032,0.76128,0.597312,-14.56875,1.9775,5.38125,-9.112,-6.312,31.440002,inter_set_rest,8,3.0,74463.0,265133.0,148833.0,258127.0,157606.0
2026-04-14 18:06:46.933179,747846,1609507500568148,5100538045,-0.568032,0.76128,0.597312,-16.73,3.40375,5.24125,-9.112,-6.312,31.440002,inter_set_rest,8,3.0,74463.0,265133.0,148833.0,258127.0,157606.0
2026-04-14 18:06:46.938402,747847,1609507500577109,5100546782,-0.61488,0.74176,0.472384,-20.65875,5.425,4.865,-8.168,-6.048,30.312002,inter_set_rest,8,3.0,74463.0,265133.0,148833.0,258127.0,157606.0
2026-04-14 18:06:46.973608,747848,1609507500591604,5100561699,-0.61488,0.74176,0.472384,-22.82875,7.23625,4.96125,-8.168,-6.048,30.312002,inter_set_rest,8,3.0,74463.0,265133.0,148833.0,258127.0,157606.0
2026-04-14 18:06:47.023531,747859,1609507500600736,5100570462,-0.587552,0.724192,0.349408,-22.2775,8.575,4.2525,-7.832,-6.192,31.168001,inter_set_rest,8,3.0,76787.0,262167.0,152181.0,255787.0,161264.0
2026-04-14 18:06:47.025975,747860,1609507500615247,5100585403,-0.573888,0.755424,0.38064,-20.2475,8.96875,3.40375,-8.8,-5.168,31.144001,inter_set_rest,8,3.0,76787.0,262167.0,152181.0,255787.0,161264.0
2026-04-14 18:06:47.028419,747861,1609507500624180,5100594137,-0.573888,0.755424,0.38064,-20.9125,8.575,3.5875,-8.8,-5.168,31.144001,inter_set_rest,8,3.0,76787.0,262167.0,152181.0,255787.0,161264.0
2026-04-14 18:06:47.031013,747862,1609507500638806,5100609012,-0.603168,0.806176,0.460672,-26.25875,9.00375,4.69875,-8.696,-4.904,31.392002,inter_set_rest,8,3.0,76787.0,262167.0,152181.0,255787.0,161264.0
2026-04-14 18:06:47.036065,747863,1609507500647910,5100617842,-0.603168,0.806176,0.460672,-34.65,9.65125,6.51875,-8.696,-4.904,31.392002,inter_set_rest,8,3.0,76787.0,262167.0,152181.0,255787.0,161264.0
2026-04-14 18:06:47.038568,747864,1609507500656904,5100626574,-0.560224,0.724192,0.56608,-42.83125,9.4325,7.02625,-8.616,-3.784,32.36,inter_set_rest,8,3.0,76787.0,262167.0,152181.0,255787.0,161264.0
2026-04-14 18:06:47.040561,747865,1609507500671579,5100641478,-0.560224,0.724192,0.56608,-46.75125,9.38875,6.3175,-8.616,-3.784,32.36,inter_set_rest,8,3.0,76787.0,262167.0,152181.0,255787.0,161264.0
2026-04-14 18:06:47.043537,747866,1609507500680595,5100650232,-0.587552,0.657824,0.462624,-46.6375,8.5575,6.685,-9.064,-3.32,30.128002,inter_set_rest,8,3.0,76787.0,262167.0,152181.0,255787.0,161264.0
2026-04-14 18:06:47.058540,747867,1609507500695164,5100665202,-0.49776,0.659776,0.599264,-43.39125,8.12,7.6125,-7.304,-3.736,30.704002,inter_set_rest,8,3.0,76787.0,262167.0,152181.0,255787.0,161264.0
2026-04-14 18:06:47.085556,747878,1609507500704110,5100673930,-0.49776,0.659776,0.599264,-39.2175,8.12875,7.98,-7.304,-3.736,30.704002,inter_set_rest,8,3.0,85786.0,266826.0,163869.0,260131.0,173448.0
2026-04-14 18:06:47.088056,747879,1609507500713237,5100682634,-0.49776,0.659776,0.599264,-32.59375,7.27125,7.02625,-7.304,-3.736,30.704002,inter_set_rest,8,3.0,85786.0,266826.0,163869.0,260131.0,173448.0
2026-04-14 18:06:47.098942,747880,1609507500727775,5100697613,-0.581696,0.691008,0.413824,-25.795,6.1075,6.30875,-7.728,-2.792,30.384,inter_set_rest,8,3.0,85786.0,266826.0,163869.0,260131.0,173448.0
2026-04-14 18:06:47.099765,747881,1609507500736813,5100706358,-0.493856,0.718336,0.538752,-24.1325,5.3725,6.3,-7.504,-2.472,31.256002,inter_set_rest,8,3.0,85786.0,266826.0,163869.0,260131.0,173448.0
2026-04-14 18:06:47.114755,747882,1609507500751335,5100721273,-0.493856,0.718336,0.538752,-26.95,4.83,7.28875,-7.504,-2.472,31.256002,inter_set_rest,8,3.0,85786.0,266826.0,163869.0,260131.0,173448.0
2026-04-14 18:06:47.122294,747883,1609507500760253,5100730045,-0.488,0.681248,0.62464,-31.98125,3.92,7.1575,-7.352,-2.392,30.880001,inter_set_rest,8,3.0,85786.0,266826.0,163869.0,260131.0,173448.0
2026-04-14 18:06:47.147377,747884,1609507500774857,5100744967,-0.597312,0.626592,0.571936,-35.09625,2.09125,4.585,-7.56,-1.768,29.632002,inter_set_rest,8,3.0,85786.0,266826.0,163869.0,260131.0,173448.0
2026-04-14 18:06:47.157007,747885,1609507500783765,5100753664,-0.597312,0.626592,0.571936,-34.18625,0.18375,1.95125,-7.56,-1.768,29.632002,inter_set_rest,8,3.0,85786.0,266826.0,163869.0,260131.0,173448.0
2026-04-14 18:06:47.159375,747886,1609507500792766,5100762513,-0.597312,0.626592,0.571936,-29.295,-1.96875,0.27125,-7.56,-1.768,29.632002,inter_set_rest,8,3.0,85786.0,266826.0,163869.0,260131.0,173448.0
2026-04-14 18:06:47.186578,747897,1609507500807334,5100777512,-0.501664,0.562176,0.622688,-21.4725,-2.87,-0.77875,-7.744,-1.32,32.256,inter_set_rest,8,3.0,82950.0,263727.0,159921.0,258624.0,168948.0
2026-04-14 18:06:47.189130,747898,1609507500816380,5100786291,-0.550464,0.626592,0.628544,-12.495,-3.75375,-2.23125,-7.936,-1.24,31.112001,inter_set_rest,8,3.0,82950.0,263727.0,159921.0,258624.0,168948.0
2026-04-14 18:06:47.191853,747899,1609507500831104,5100801216,-0.550464,0.626592,0.628544,-3.255,-4.50625,-3.4825,-7.936,-1.24,31.112001,inter_set_rest,8,3.0,82950.0,263727.0,159921.0,258624.0,168948.0
2026-04-14 18:06:47.202221,747900,1609507500840197,5100809916,-0.51728,0.655872,0.698816,3.87625,-5.55625,-4.68125,-7.944,-1.248,32.208,inter_set_rest,8,3.0,82950.0,263727.0,159921.0,258624.0,168948.0
2026-04-14 18:06:47.212228,747901,1609507500849148,5100818667,-0.51728,0.655872,0.698816,7.35875,-7.035,-5.5125,-7.944,-1.248,32.208,inter_set_rest,8,3.0,82950.0,263727.0,159921.0,258624.0,168948.0
2026-04-14 18:06:47.225659,747902,1609507500863669,5100833556,-0.532896,0.667584,0.689056,8.417501,-7.8225,-5.87125,-7.752,-1.6,30.608002,inter_set_rest,8,3.0,82950.0,263727.0,159921.0,258624.0,168948.0
2026-04-14 18:06:47.234791,747903,1609507500872621,5100842217,-0.532896,0.667584,0.689056,7.4725,-7.5075,-6.44,-7.752,-1.6,30.608002,inter_set_rest,8,3.0,82950.0,263727.0,159921.0,258624.0,168948.0
2026-04-14 18:06:47.249637,747904,1609507500887113,5100857165,-0.5856,0.655872,0.583648,6.02875,-7.56,-6.99125,-7.744,-2.224,29.976002,inter_set_rest,8,3.0,82950.0,263727.0,159921.0,258624.0,168948.0
2026-04-14 18:06:47.259808,747905,1609507500896057,5100865859,-0.509472,0.609024,0.56608,6.6675,-6.83375,-7.14,-8.512,-1.704,32.976,inter_set_rest,8,3.0,82950.0,263727.0,159921.0,258624.0,168948.0
2026-04-14 18:06:47.287173,747916,1609507500910606,5100880881,-0.509472,0.609024,0.56608,9.765,-6.5975,-7.07,-8.512,-1.704,32.976,inter_set_rest,8,3.0,72686.0,256082.0,146346.0,253131.0,154932.0
2026-04-14 18:06:47.289646,747917,1609507500919568,5100889561,-0.519232,0.646112,0.6344,13.195,-5.915,-7.30625,-8.376,-2.184,30.872002,inter_set_rest,8,3.0,72686.0,256082.0,146346.0,253131.0,154932.0
2026-04-14 18:06:47.292203,747918,1609507500928521,5100898288,-0.519232,0.646112,0.6344,16.26625,-5.04875,-7.14875,-8.376,-2.184,30.872002,inter_set_rest,8,3.0,72686.0,256082.0,146346.0,253131.0,154932.0
2026-04-14 18:06:47.306879,747919,1609507500943144,5100913196,-0.558272,0.667584,0.552416,16.94,-4.7075,-6.8775,-8.568001,-2.616,31.160002,inter_set_rest,8,3.0,72686.0,256082.0,146346.0,253131.0,154932.0
2026-04-14 18:06:47.314810,747920,1609507500952093,5100921929,-0.558272,0.667584,0.552416,18.13,-4.96125,-6.055,-8.568001,-2.616,31.160002,inter_set_rest,8,3.0,72686.0,256082.0,146346.0,253131.0,154932.0
2026-04-14 18:06:47.343562,747921,1609507500966600,5100936855,-0.55632,0.691008,0.560224,19.11875,-4.12125,-5.48625,-8.400001,-2.752,30.776001,inter_set_rest,8,3.0,72686.0,256082.0,146346.0,253131.0,154932.0
2026-04-14 18:06:47.346062,747922,1609507500975547,5100945558,-0.587552,0.669536,0.407968,18.025,-2.3625,-6.685,-8.400001,-2.752,32.552002,inter_set_rest,8,3.0,72686.0,256082.0,146346.0,253131.0,154932.0
2026-04-14 18:06:47.375032,747923,1609507500990051,5100958412,-0.593408,0.669536,0.407968,17.3075,-1.89,-7.42,-8.416,-2.944,32.552002,inter_set_rest,8,3.0,72686.0,256082.0,146346.0,253131.0,154932.0
2026-04-14 18:06:47.403021,747934,1609507500999453,5100969668,-0.612928,0.689056,0.441152,16.07375,-1.61875,-6.58,-8.728001,-3.312,31.344002,inter_set_rest,8,3.0,66983.0,247499.0,138270.0,246250.0,146812.0
2026-04-14 18:06:47.405518,747935,1609507501008419,5100978417,-0.612928,0.689056,0.441152,14.86625,-0.13125,-5.95,-8.728001,-3.312,31.344002,inter_set_rest,8,3.0,66983.0,247499.0,138270.0,246250.0,146812.0
2026-04-14 18:06:47.407985,747936,1609507501022982,5100991349,-0.558272,0.694912,0.609024,15.715,0.81375,-5.005,-8.784,-3.296,32.288002,inter_set_rest,8,3.0,66983.0,247499.0,138270.0,246250.0,146812.0
2026-04-14 18:06:47.410459,747937,1609507501032260,5101002139,-0.558272,0.694912,0.609024,16.47625,1.04125,-4.40125,-8.784,-3.296,32.288002,inter_set_rest,8,3.0,66983.0,247499.0,138270.0,246250.0,146812.0
2026-04-14 18:06:47.413411,747938,1609507501041211,5101010834,-0.54656,0.704672,0.62464,17.29875,1.26875,-4.5675,-9.368,-3.424,32.624,inter_set_rest,8,3.0,66983.0,247499.0,138270.0,246250.0,146812.0
2026-04-14 18:06:47.418399,747939,1609507501055767,5101025776,-0.54656,0.704672,0.474336,16.94,1.1025,-5.01375,-9.368,-3.424,32.624,inter_set_rest,8,3.0,66983.0,247499.0,138270.0,246250.0,146812.0
2026-04-14 18:06:47.426930,747940,1609507501064710,5101034479,-0.579744,0.71248,0.474336,16.38,1.5925,-4.8125,-9.464001,-3.432,33.088,inter_set_rest,8,3.0,66983.0,247499.0,138270.0,246250.0,146812.0
2026-04-14 18:06:47.442238,747941,1609507501079210,5101049357,-0.597312,0.714432,0.493856,14.86625,1.75875,-4.92625,-8.008,-4.328,30.688002,inter_set_rest,8,3.0,66983.0,247499.0,138270.0,246250.0,146812.0
2026-04-14 18:06:47.452231,747942,1609507501088199,5101058096,-0.597312,0.714432,0.493856,13.230001,1.89,-5.20625,-8.008,-4.328,30.688002,inter_set_rest,8,3.0,66983.0,247499.0,138270.0,246250.0,146812.0
2026-04-14 18:06:47.485590,747953,1609507501103363,5101073029,-0.589504,0.70272,0.49776,11.8825,1.77625,-5.25,-8.368,-4.632,30.576002,inter_set_rest,8,3.0,67880.0,244302.0,139596.0,243809.0,148058.0
2026-04-14 18:06:47.488108,747954,1609507501112394,5101081823,-0.589504,0.70272,0.49776,10.96375,1.40875,-4.8825,-8.368,-4.632,30.576002,inter_set_rest,8,3.0,67880.0,244302.0,139596.0,243809.0,148058.0
2026-04-14 18:06:47.490635,747955,1609507501121342,5101090531,-0.532896,0.710528,0.571936,9.2225,1.14625,-4.9175,-8.888001,-4.272,31.608002,inter_set_rest,8,3.0,67880.0,244302.0,139596.0,243809.0,148058.0
2026-04-14 18:06:47.498583,747956,1609507501135866,5101105426,-0.532896,0.710528,0.571936,8.07625,1.33,-4.7775,-8.888001,-4.272,31.608002,inter_set_rest,8,3.0,67880.0,244302.0,139596.0,243809.0,148058.0
2026-04-14 18:06:47.506970,747957,1609507501144865,5101114119,-0.530944,0.6832,0.437248,7.77875,0.6825,-5.0575,-8.88,-4.816001,30.528002,inter_set_rest,8,3.0,67880.0,244302.0,139596.0,243809.0,148058.0
2026-04-14 18:06:47.520527,747958,1609507501159460,5101129103,-0.56608,0.720288,0.622688,7.805,-1.65375,-3.71875,-8.624001,-4.92,30.576002,inter_set_rest,8,3.0,67880.0,244302.0,139596.0,243809.0,148058.0
2026-04-14 18:06:47.531068,747959,1609507501168396,5101137823,-0.56608,0.720288,0.622688,8.6275,-1.435,-3.9025,-8.624001,-4.92,30.576002,inter_set_rest,8,3.0,67880.0,244302.0,139596.0,243809.0,148058.0
2026-04-14 18:06:47.539808,747960,1609507501177310,5101146591,-0.562176,0.700768,0.513376,8.12875,-0.525,-7.44625,-8.112,-5.392,27.320002,inter_set_rest,8,3.0,67880.0,244302.0,139596.0,243809.0,148058.0
2026-04-14 18:06:47.553172,747961,1609507501191876,5101161563,-0.562176,0.700768,0.513376,9.68625,-0.67375,-7.7175,-8.112,-5.392,27.320002,inter_set_rest,8,3.0,67880.0,244302.0,139596.0,243809.0,148058.0
2026-04-14 18:06:47.584757,747972,1609507501201511,5101170793,-0.573888,0.718336,0.49776,11.4275,-0.98875,-6.8425,-8.200001,-5.232,31.056002,inter_set_rest,8,3.0,65946.0,241884.0,136728.0,241646.0,145178.0
2026-04-14 18:06:47.587196,747973,1609507501216179,5101185823,-0.573888,0.718336,0.49776,13.4225,-1.26875,-7.63,-8.200001,-5.232,31.056002,inter_set_rest,8,3.0,65946.0,241884.0,136728.0,241646.0,145178.0
2026-04-14 18:06:47.589833,747974,1609507501225155,5101194577,-0.538752,0.730048,0.573888,14.805,-1.88125,-8.00625,-8.936001,-5.08,32.232002,inter_set_rest,8,3.0,65946.0,241884.0,136728.0,241646.0,145178.0
2026-04-14 18:06:47.594799,747975,1609507501234195,5101203292,-0.538752,0.730048,0.573888,15.25125,-2.44125,-7.7175,-8.936001,-5.08,32.232002,inter_set_rest,8,3.0,65946.0,241884.0,136728.0,241646.0,145178.0
2026-04-14 18:06:47.611067,747976,1609507501248673,5101218187,-0.593408,0.757376,0.550464,14.91875,-3.0275,-7.42,-9.248,-5.496,31.416002,inter_set_rest,8,3.0,65946.0,241884.0,136728.0,241646.0,145178.0
2026-04-14 18:06:47.619793,747977,1609507501257589,5101226867,-0.552416,0.732,0.437248,12.27625,-3.21125,-7.93625,-9.248,-6.208,31.752,inter_set_rest,8,3.0,65946.0,241884.0,136728.0,241646.0,145178.0
2026-04-14 18:06:47.633571,747978,1609507501272197,5101241817,-0.552416,0.732,0.437248,9.3625,-3.77125,-7.20125,-8.280001,-6.208,31.752,inter_set_rest,8,3.0,65946.0,241884.0,136728.0,241646.0,145178.0
2026-04-14 18:06:47.643572,747979,1609507501281136,5101250526,-0.544608,0.714432,0.40992,8.575,-4.29625,-6.5625,-8.400001,-6.4,30.824001,inter_set_rest,8,3.0,65946.0,241884.0,136728.0,241646.0,145178.0
2026-04-14 18:06:47.658183,747980,1609507501295684,5101265445,-0.544608,0.714432,0.40992,7.93625,-4.38375,-6.79875,-8.400001,-6.4,30.824001,inter_set_rest,8,3.0,65946.0,241884.0,136728.0,241646.0,145178.0
2026-04-14 18:06:47.707965,747991,1609507501304849,5101274232,-0.573888,0.76128,0.564128,8.09375,-4.235,-6.895,-8.216001,-6.624001,30.832,inter_set_rest,8,3.0,63215.0,239064.0,132568.0,238753.0,140932.0
2026-04-14 18:06:47.733252,747992,1609507501313836,5101282967,-0.573888,0.76128,0.564128,9.6425,-4.445,-6.51,-8.216001,-6.624001,30.832,inter_set_rest,8,3.0,63215.0,239064.0,132568.0,238753.0,140932.0
2026-04-14 18:06:47.735819,747993,1609507501328359,5101298000,-0.519232,0.743712,0.542656,12.3025,-5.145,-6.02,-8.160001,-6.448,32.048,inter_set_rest,8,3.0,63215.0,239064.0,132568.0,238753.0,140932.0
2026-04-14 18:06:47.738166,747994,1609507501337312,5101306734,-0.519232,0.743712,0.542656,13.886251,-4.69875,-5.83625,-8.160001,-6.448,32.048,inter_set_rest,8,3.0,63215.0,239064.0,132568.0,238753.0,140932.0
2026-04-14 18:06:47.740716,747995,1609507501351809,5101321673,-0.607072,0.767136,0.376736,14.25375,-4.095,-6.93,-9.408,-6.896,32.072002,inter_set_rest,8,3.0,63215.0,239064.0,132568.0,238753.0,140932.0
2026-04-14 18:06:47.743302,747996,1609507501360796,5101330388,-0.609024,0.7808,0.44896,13.99125,-3.7275,-6.545,-9.128,-7.24,31.808,inter_set_rest,8,3.0,63215.0,239064.0,132568.0,238753.0,140932.0
2026-04-14 18:06:47.747956,747997,1609507501369753,5101339075,-0.609024,0.7808,0.44896,15.0325,-3.91125,-6.6675,-9.128,-7.24,31.808,inter_set_rest,8,3.0,63215.0,239064.0,132568.0,238753.0,140932.0
2026-04-14 18:06:47.748499,747998,1609507501384311,5101354022,-0.60512,0.7808,0.44896,15.8725,-4.20875,-6.20375,-9.384001,-7.208,31.896002,inter_set_rest,8,3.0,63215.0,239064.0,132568.0,238753.0,140932.0
2026-04-14 18:06:47.756848,747999,1609507501393262,5101362800,-0.60512,0.7808,0.44896,15.417501,-4.5325,-5.6525,-9.384001,-7.208,31.896002,inter_set_rest,8,3.0,63215.0,239064.0,132568.0,238753.0,140932.0
2026-04-14 18:06:47.812049,748010,1609507501407785,5101378040,-0.513376,0.757376,0.52704,14.56,-4.50625,-5.25,-8.464001,-8.04,31.520002,inter_set_rest,8,3.0,59388.0,233565.0,126637.0,233701.0,134865.0
2026-04-14 18:06:47.814500,748011,1609507501416739,5101386774,-0.513376,0.757376,0.52704,13.22125,-3.465,-5.11875,-8.464001,-8.04,31.520002,inter_set_rest,8,3.0,59388.0,233565.0,126637.0,233701.0,134865.0
2026-04-14 18:06:47.817078,748012,1609507501431219,5101399622,-0.593408,0.774944,0.42944,11.655,-3.08875,-4.76875,-8.272,-8.328,30.512001,inter_set_rest,8,3.0,59388.0,233565.0,126637.0,233701.0,134865.0
2026-04-14 18:06:47.819361,748013,1609507501440465,5101410379,-0.554368,0.75152,0.433344,10.255,-2.94,-4.36625,-8.200001,-8.448,29.384,inter_set_rest,8,3.0,59388.0,233565.0,126637.0,233701.0,134865.0
2026-04-14 18:06:47.822062,748014,1609507501449401,5101419200,-0.554368,0.75152,0.433344,9.205,-2.31,-3.63125,-8.200001,-8.448,29.384,inter_set_rest,8,3.0,59388.0,233565.0,126637.0,233701.0,134865.0
2026-04-14 18:06:47.827066,748015,1609507501464032,5101434107,-0.560224,0.774944,0.542656,8.855001,-1.68,-3.5,-8.416,-8.408,30.896002,inter_set_rest,8,3.0,59388.0,233565.0,126637.0,233701.0,134865.0
2026-04-14 18:06:47.835803,748016,1609507501473259,5101442868,-0.560224,0.774944,0.542656,9.4675,-0.9625,-3.5875,-8.416,-8.408,30.896002,inter_set_rest,8,3.0,59388.0,233565.0,126637.0,233701.0,134865.0
2026-04-14 18:06:47.851905,748017,1609507501487804,5101457814,-0.515328,0.739808,0.45872,10.21125,-1.28625,-3.24625,-8.288,-8.976001,30.696001,inter_set_rest,8,3.0,59388.0,233565.0,126637.0,233701.0,134865.0
2026-04-14 18:06:47.858112,748018,1609507501496711,5101466569,-0.515328,0.739808,0.45872,11.0075,-1.0325,-2.89625,-8.288,-8.976001,30.696001,inter_set_rest,8,3.0,59388.0,233565.0,126637.0,233701.0,134865.0
2026-04-14 18:06:47.893232,748029,1609507501505936,5101475313,-0.534848,0.763232,0.52704,10.57875,-0.77875,-2.49375,-8.400001,-8.728001,31.664001,inter_set_rest,8,3.0,56448.0,229223.0,121778.0,229767.0,129879.0
2026-04-14 18:06:47.895754,748030,1609507501520495,5101490301,-0.589504,0.76128,0.407968,9.4325,-0.48125,-2.5375,-9.024,-8.808001,33.024002,inter_set_rest,8,3.0,56448.0,229223.0,121778.0,229767.0,129879.0
2026-04-14 18:06:47.898261,748031,1609507501529438,5101499039,-0.589504,0.76128,0.407968,9.40625,-0.4025,-2.77375,-9.024,-8.808001,33.024002,inter_set_rest,8,3.0,56448.0,229223.0,121778.0,229767.0,129879.0
2026-04-14 18:06:47.906731,748032,1609507501543943,5101513961,-0.60512,0.778848,0.392352,9.135,0.09625,-3.00125,-8.464001,-9.272,30.552002,inter_set_rest,8,3.0,56448.0,229223.0,121778.0,229767.0,129879.0
2026-04-14 18:06:47.914403,748033,1609507501552890,5101522688,-0.60512,0.778848,0.392352,8.82875,0.14,-2.21375,-8.464001,-9.272,30.552002,inter_set_rest,8,3.0,56448.0,229223.0,121778.0,229767.0,129879.0
2026-04-14 18:06:47.930752,748034,1609507501567387,5101537604,-0.610976,0.769088,0.374784,8.26875,-0.02625,-2.58125,-8.872001,-9.320001,31.744001,inter_set_rest,8,3.0,56448.0,229223.0,121778.0,229767.0,129879.0
2026-04-14 18:06:47.938082,748035,1609507501576281,5101546287,-0.610976,0.769088,0.374784,7.805,-0.07875,-3.36875,-8.872001,-9.320001,31.744001,inter_set_rest,8,3.0,56448.0,229223.0,121778.0,229767.0,129879.0
2026-04-14 18:06:47.948117,748036,1609507501585255,5101554966,-0.577792,0.776896,0.544608,7.49,-0.46375,-3.64875,-8.256001,-9.664001,31.160002,inter_set_rest,8,3.0,56448.0,229223.0,121778.0,229767.0,129879.0
2026-04-14 18:06:47.962239,748037,1609507501599726,5101569899,-0.552416,0.753472,0.41968,8.47,-0.455,-3.36,-8.256001,-9.664001,29.584002,inter_set_rest,8,3.0,56448.0,229223.0,121778.0,229767.0,129879.0
2026-04-14 18:06:47.992352,748048,1609507501608707,5101578738,-0.552416,0.753472,0.41968,9.87,-0.63875,-3.78875,-8.256001,-9.328,29.584002,inter_set_rest,8,3.0,52651.0,223347.0,115433.0,224709.0,123028.0
2026-04-14 18:06:47.994721,748049,1609507501623222,5101591755,-0.616832,0.802272,0.411872,10.56125,-1.2775,-3.7275,-9.584001,-9.472,32.632,inter_set_rest,8,3.0,52651.0,223347.0,115433.0,224709.0,123028.0
2026-04-14 18:06:47.997346,748050,1609507501632586,5101602471,-0.616832,0.802272,0.411872,10.22875,-1.6275,-3.64,-9.584001,-9.472,32.632,inter_set_rest,8,3.0,52651.0,223347.0,115433.0,224709.0,123028.0
2026-04-14 18:06:48.003341,748051,1609507501641684,5101611288,-0.593408,0.767136,0.372832,9.0125,-1.68,-3.78875,-9.624001,-10.040001,30.864002,inter_set_rest,8,3.0,52651.0,223347.0,115433.0,224709.0,123028.0
2026-04-14 18:06:48.018494,748052,1609507501656368,5101626191,-0.593408,0.767136,0.372832,7.20125,-1.47,-3.80625,-9.624001,-10.040001,30.864002,inter_set_rest,8,3.0,52651.0,223347.0,115433.0,224709.0,123028.0
2026-04-14 18:06:48.029436,748053,1609507501665377,5101634882,-0.587552,0.765184,0.386496,6.48375,-1.58375,-3.87625,-8.224,-10.488001,30.504002,inter_set_rest,8,3.0,52651.0,223347.0,115433.0,224709.0,123028.0
2026-04-14 18:06:48.041641,748054,1609507501679865,5101649859,-0.587552,0.765184,0.488,7.32375,-1.19875,-4.17375,-8.224,-10.488001,30.504002,inter_set_rest,8,3.0,52651.0,223347.0,115433.0,224709.0,123028.0
2026-04-14 18:06:48.077349,748055,1609507501688795,5101658602,-0.603168,0.798368,0.488,8.16375,-1.32125,-3.92,-8.0,-10.56,30.584002,inter_set_rest,8,3.0,52651.0,223347.0,115433.0,224709.0,123028.0
2026-04-14 18:06:48.151964,748066,1609507501703927,5101673514,-0.534848,0.774944,0.52704,8.68,-1.33,-4.2875,-8.944,-10.552,31.392002,inter_set_rest,8,3.0,49589.0,217225.0,110048.0,219639.0,117098.0
2026-04-14 18:06:48.154755,748067,1609507501713006,5101682266,-0.534848,0.774944,0.52704,9.4325,-1.21625,-4.29625,-8.944,-10.552,31.392002,inter_set_rest,8,3.0,49589.0,217225.0,110048.0,219639.0,117098.0
2026-04-14 18:06:48.156949,748068,1609507501721979,5101690988,-0.597312,0.774944,0.353312,9.5025,-1.49625,-4.27875,-9.024,-11.072001,30.712002,inter_set_rest,8,3.0,49589.0,217225.0,110048.0,219639.0,117098.0
2026-04-14 18:06:48.159415,748069,1609507501736601,5101705889,-0.597312,0.774944,0.353312,9.765,-1.365,-4.655,-9.024,-11.072001,30.712002,inter_set_rest,8,3.0,49589.0,217225.0,110048.0,219639.0,117098.0
2026-04-14 18:06:48.162014,748070,1609507501745541,5101714601,-0.528992,0.767136,0.482144,10.045,-1.6975,-4.61125,-7.76,-11.168,30.456001,inter_set_rest,8,3.0,49589.0,217225.0,110048.0,219639.0,117098.0
2026-04-14 18:06:48.164804,748071,1609507501754490,5101723304,-0.528992,0.767136,0.482144,10.59625,-1.295,-4.31375,-7.76,-11.168,30.456001,inter_set_rest,8,3.0,49589.0,217225.0,110048.0,219639.0,117098.0
2026-04-14 18:06:48.166919,748072,1609507501769402,5101738230,-0.562176,0.772992,0.42944,11.725,-1.0675,-4.4275,-8.024,-11.184001,30.768002,inter_set_rest,8,3.0,49589.0,217225.0,110048.0,219639.0,117098.0
2026-04-14 18:06:48.169382,748073,1609507501778806,5101749016,-0.562176,0.772992,0.42944,11.8125,-0.77875,-4.17375,-8.024,-11.184001,30.768002,inter_set_rest,8,3.0,49589.0,217225.0,110048.0,219639.0,117098.0
2026-04-14 18:06:48.172351,748074,1609507501793565,5101763916,-0.560224,0.794464,0.544608,11.2175,-0.525,-3.84125,-8.016001,-11.384001,28.216002,inter_set_rest,8,3.0,49589.0,217225.0,110048.0,219639.0,117098.0
2026-04-14 18:06:48.202462,748085,1609507501802502,5101772620,-0.52704,0.75152,0.466528,10.77125,-0.14875,-4.17375,-7.984,-11.624001,31.264002,inter_set_rest,8,3.0,47516.0,211597.0,106229.0,215223.0,112725.0
2026-04-14 18:06:48.204828,748086,1609507501811514,5101781366,-0.52704,0.75152,0.466528,11.165,0.60375,-4.03375,-7.984,-11.624001,31.264002,inter_set_rest,8,3.0,47516.0,211597.0,106229.0,215223.0,112725.0
2026-04-14 18:06:48.207026,748087,1609507501826053,5101796394,-0.5856,0.80032,0.454816,12.215,0.42,-1.9425,-7.712,-11.848001,30.232002,inter_set_rest,8,3.0,47516.0,211597.0,106229.0,215223.0,112725.0
2026-04-14 18:06:48.209886,748088,1609507501835010,5101805135,-0.5856,0.80032,0.454816,12.66125,0.665,-0.63875,-7.712,-11.848001,30.232002,inter_set_rest,8,3.0,47516.0,211597.0,106229.0,215223.0,112725.0
2026-04-14 18:06:48.212465,748089,1609507501849513,5101818018,-0.569984,0.772992,0.406016,11.47125,1.645,-3.4125,-7.704001,-12.240001,30.408,inter_set_rest,8,3.0,47516.0,211597.0,106229.0,215223.0,112725.0
2026-04-14 18:06:48.223016,748090,1609507501858915,5101828856,-0.569984,0.772992,0.406016,11.34875,1.46125,-3.8325,-7.704001,-12.240001,30.408,inter_set_rest,8,3.0,47516.0,211597.0,106229.0,215223.0,112725.0
2026-04-14 18:06:48.231625,748091,1609507501867865,5101837544,-0.616832,0.806176,0.427488,11.10375,1.7325,-3.6225,-7.808001,-12.200001,30.352001,inter_set_rest,8,3.0,47516.0,211597.0,106229.0,215223.0,112725.0
2026-04-14 18:06:48.244419,748092,1609507501882381,5101852562,-0.552416,0.802272,0.484096,10.6925,1.855,-3.68375,-7.64,-12.032001,30.904001,inter_set_rest,8,3.0,47516.0,211597.0,106229.0,215223.0,112725.0
2026-04-14 18:06:48.254740,748093,1609507501891320,5101861258,-0.552416,0.802272,0.484096,10.167501,1.9775,-3.73625,-7.64,-12.032001,30.904001,inter_set_rest,8,3.0,47516.0,211597.0,106229.0,215223.0,112725.0
2026-04-14 18:06:48.295906,748105,1609507501906519,5101874912,-0.57584,0.782752,0.349408,9.63375,1.70625,-4.33125,-8.648001,-12.624001,30.480001,inter_set_rest,8,3.0,46764.0,212417.0,104469.0,215908.0,110862.0
2026-04-14 18:06:48.298598,748106,1609507501915907,5101885766,-0.57584,0.782752,0.349408,8.35625,1.39125,-4.96125,-8.648001,-12.624001,30.480001,inter_set_rest,8,3.0,46764.0,212417.0,104469.0,215908.0,110862.0
2026-04-14 18:06:48.301070,748107,1609507501925076,5101894447,-0.632448,0.79056,0.271328,7.035,1.015,-5.1975,-8.152,-12.784,30.328001,inter_set_rest,8,3.0,46764.0,212417.0,104469.0,215908.0,110862.0
2026-04-14 18:06:48.303601,748108,1609507501939636,5101909447,-0.632448,0.79056,0.271328,6.195,0.5075,-5.0225,-8.152,-12.784,30.328001,inter_set_rest,8,3.0,46764.0,212417.0,104469.0,215908.0,110862.0
2026-04-14 18:06:48.312483,748109,1609507501948575,5101918157,-0.550464,0.75152,0.376736,5.32,0.4025,-5.9325,-7.232,-12.856001,30.952002,inter_set_rest,8,3.0,46764.0,212417.0,104469.0,215908.0,110862.0
2026-04-14 18:06:48.325601,748110,1609507501963079,5101933051,-0.618784,0.769088,0.249856,5.81875,0.175,-5.43375,-7.272,-13.104001,31.344002,inter_set_rest,8,3.0,46764.0,212417.0,104469.0,215908.0,110862.0
2026-04-14 18:06:48.334681,748111,1609507501972022,5101941734,-0.618784,0.769088,0.249856,6.65875,-0.00875,-4.76875,-7.272,-13.104001,31.344002,inter_set_rest,8,3.0,46764.0,212417.0,104469.0,215908.0,110862.0
2026-04-14 18:06:48.342219,748112,1609507501980968,5101950458,-0.618784,0.769088,0.249856,8.47875,0.09625,-5.46875,-7.272,-13.104001,31.344002,inter_set_rest,8,3.0,46764.0,212417.0,104469.0,215908.0,110862.0
2026-04-14 18:06:48.357007,748113,1609507501995473,5101965374,-0.593408,0.812032,0.3904,9.66,-0.84,-5.13625,-7.952,-13.424001,30.472002,inter_set_rest,8,3.0,46764.0,212417.0,104469.0,215908.0,110862.0
2026-04-14 18:06:48.394823,748124,1609507502004443,5101974092,-0.62464,0.81008,0.281088,8.82875,-1.44375,-4.3225,-8.896001,-13.360001,31.36,inter_set_rest,8,3.0,46629.0,217155.0,103751.0,219291.0,110339.0
2026-04-14 18:06:48.397350,748125,1609507502019456,5101989116,-0.62464,0.81008,0.281088,7.63,-1.54875,-4.8125,-8.896001,-13.360001,31.36,inter_set_rest,8,3.0,46629.0,217155.0,103751.0,219291.0,110339.0
2026-04-14 18:06:48.399385,748126,1609507502028403,5101997831,-0.583648,0.778848,0.324032,6.48375,-1.225,-5.005,-8.112,-13.736001,31.264002,inter_set_rest,8,3.0,46629.0,217155.0,103751.0,219291.0,110339.0
2026-04-14 18:06:48.402414,748127,1609507502037458,5102006563,-0.583648,0.778848,0.324032,5.90625,-1.02375,-5.1975,-8.112,-13.736001,31.264002,inter_set_rest,8,3.0,46629.0,217155.0,103751.0,219291.0,110339.0
2026-04-14 18:06:48.430944,748128,1609507502051917,5102021500,-0.55632,0.778848,0.38064,6.6325,-1.12,-5.0925,-7.472,-13.848001,31.528002,inter_set_rest,8,3.0,46629.0,217155.0,103751.0,219291.0,110339.0
2026-04-14 18:06:48.433509,748129,1609507502060877,5102030213,-0.55632,0.778848,0.38064,8.26,-0.79625,-4.41,-7.472,-13.848001,31.528002,inter_set_rest,8,3.0,46629.0,217155.0,103751.0,219291.0,110339.0
2026-04-14 18:06:48.461052,748130,1609507502075406,5102045214,-0.544608,0.812032,0.489952,9.00375,-0.665,-4.34,-6.936,-14.696001,31.28,inter_set_rest,8,3.0,46629.0,217155.0,103751.0,219291.0,110339.0
2026-04-14 18:06:48.480690,748131,1609507502084560,5102053930,-0.62464,0.84912,0.366976,9.45,-0.27125,-4.515,-7.496,-14.744,30.720001,inter_set_rest,8,3.0,46629.0,217155.0,103751.0,219291.0,110339.0
2026-04-14 18:06:48.483575,748132,1609507502099066,5102068832,-0.62464,0.84912,0.366976,8.855001,-0.2975,-4.9175,-7.496,-14.744,30.720001,inter_set_rest,8,3.0,46629.0,217155.0,103751.0,219291.0,110339.0
2026-04-14 18:06:48.513088,748143,1609507502108574,5102077553,-0.560224,0.84912,0.31232,5.145,-1.855,-5.25875,-6.960001,-14.904,31.072002,inter_set_rest,8,3.0,46888.0,222953.0,103825.0,224088.0,110602.0
2026-04-14 18:06:48.515952,748144,1609507502117565,5102086269,-0.560224,0.84912,0.31232,-0.16625,-3.22,-5.27625,-6.960001,-14.904,31.072002,inter_set_rest,8,3.0,46888.0,222953.0,103825.0,224088.0,110602.0
2026-04-14 18:06:48.518348,748145,1609507502132417,5102101255,-0.597312,0.831552,0.40992,-6.36125,-2.59875,-5.3375,-7.032001,-14.736001,30.768002,inter_set_rest,8,3.0,46888.0,222953.0,103825.0,224088.0,110602.0
2026-04-14 18:06:48.520949,748146,1609507502141369,5102110044,-0.597312,0.831552,0.40992,-10.57,-2.10875,-6.86875,-7.032001,-14.736001,30.768002,inter_set_rest,8,3.0,46888.0,222953.0,103825.0,224088.0,110602.0
2026-04-14 18:06:48.523534,748147,1609507502150671,5102120823,-0.550464,0.739808,0.347456,-9.33625,-1.3825,-6.755,-6.904,-14.888001,29.856,inter_set_rest,8,3.0,46888.0,222953.0,103825.0,224088.0,110602.0
2026-04-14 18:06:48.527384,748148,1609507502165507,5102135827,-0.568032,0.792512,0.486048,-3.01875,-1.12,-6.195,-7.144001,-14.824,31.264002,inter_set_rest,8,3.0,46888.0,222953.0,103825.0,224088.0,110602.0
2026-04-14 18:06:48.537323,748149,1609507502174467,5102144535,-0.568032,0.792512,0.486048,4.13,-0.60375,-5.215,-7.144001,-14.824,31.264002,inter_set_rest,8,3.0,46888.0,222953.0,103825.0,224088.0,110602.0
2026-04-14 18:06:48.549786,748150,1609507502189074,5102157430,-0.622688,0.808128,0.247904,9.05625,0.0175,-4.2175,-5.752,-15.776001,29.960001,inter_set_rest,8,3.0,46888.0,222953.0,103825.0,224088.0,110602.0
2026-04-14 18:06:48.561051,748151,1609507502198319,5102168171,-0.622688,0.808128,0.247904,10.17625,0.55125,-4.05125,-5.752,-15.776001,29.960001,inter_set_rest,8,3.0,46888.0,222953.0,103825.0,224088.0,110602.0
2026-04-14 18:06:48.593533,748162,1609507502207356,5102176912,-0.573888,0.8296,0.474336,9.9575,1.1025,-3.7625,-5.608,-16.08,30.016,inter_set_rest,8,3.0,46336.0,223193.0,102664.0,224625.0,109317.0
2026-04-14 18:06:48.593788,748163,1609507502222054,5102191886,-0.573888,0.8296,0.474336,9.21375,1.23375,-3.22875,-5.608,-16.08,30.016,inter_set_rest,8,3.0,46336.0,223193.0,102664.0,224625.0,109317.0
2026-04-14 18:06:48.600361,748164,1609507502231006,5102200587,-0.544608,0.815936,0.337696,7.56,0.13125,-3.6925,-6.232,-15.880001,31.808,inter_set_rest,8,3.0,46336.0,223193.0,102664.0,224625.0,109317.0
2026-04-14 18:06:48.606867,748165,1609507502245524,5102215519,-0.628544,0.831552,0.366976,4.75125,-0.23625,-3.36,-6.008,-15.736001,29.560001,inter_set_rest,8,3.0,46336.0,223193.0,102664.0,224625.0,109317.0
2026-04-14 18:06:48.615935,748166,1609507502254473,5102224228,-0.628544,0.831552,0.366976,1.32125,0.3325,-3.7975,-6.008,-15.736001,29.560001,inter_set_rest,8,3.0,46336.0,223193.0,102664.0,224625.0,109317.0
2026-04-14 18:06:48.632314,748167,1609507502269101,5102239157,-0.612928,0.765184,0.222528,-0.4725,0.53375,-4.0425,-5.464,-16.224,30.024002,inter_set_rest,8,3.0,46336.0,223193.0,102664.0,224625.0,109317.0
2026-04-14 18:06:48.641953,748168,1609507502278156,5102247859,-0.612928,0.765184,0.222528,0.35,0.41125,-4.025,-5.464,-16.224,30.024002,inter_set_rest,8,3.0,46336.0,223193.0,102664.0,224625.0,109317.0
2026-04-14 18:06:48.648589,748169,1609507502287161,5102256566,-0.650016,0.806176,0.240096,3.03625,0.18375,-4.06875,-6.352,-16.336,29.848001,inter_set_rest,8,3.0,46336.0,223193.0,102664.0,224625.0,109317.0
2026-04-14 18:06:48.664796,748170,1609507502301665,5102271477,-0.650016,0.806176,0.240096,6.58,0.44625,-4.585,-6.352,-16.336,29.848001,inter_set_rest,8,3.0,46336.0,223193.0,102664.0,224625.0,109317.0
2026-04-14 18:06:48.692641,748181,1609507502310791,5102280372,-0.554368,0.831552,0.450912,7.63,0.00875,-4.87375,-5.168,-16.632,29.944002,inter_set_rest,8,3.0,45690.0,220280.0,101297.0,222730.0,107733.0
2026-04-14 18:06:48.694035,748182,1609507502325367,5102295333,-0.646112,0.83936,0.349408,6.7025,-0.44625,-5.285,-5.888001,-16.488,31.864002,inter_set_rest,8,3.0,45690.0,220280.0,101297.0,222730.0,107733.0
2026-04-14 18:06:48.702208,748183,1609507502334342,5102304129,-0.646112,0.83936,0.349408,3.71,0.1225,-5.11875,-5.888001,-16.488,31.864002,inter_set_rest,8,3.0,45690.0,220280.0,101297.0,222730.0,107733.0
2026-04-14 18:06:48.704690,748184,1609507502343307,5102312842,-0.646112,0.83936,0.349408,0.7525,0.28875,-4.99625,-5.888001,-16.488,31.864002,inter_set_rest,8,3.0,45690.0,220280.0,101297.0,222730.0,107733.0
2026-04-14 18:06:48.720914,748185,1609507502357854,5102327869,-0.630496,0.796416,0.335744,-0.3325,1.21625,-4.515,-5.656,-16.352001,31.784002,inter_set_rest,8,3.0,45690.0,220280.0,101297.0,222730.0,107733.0
2026-04-14 18:06:48.729810,748186,1609507502366778,5102336570,-0.579744,0.804224,0.472384,0.55125,2.0475,-4.05125,-5.064,-16.928001,29.984001,inter_set_rest,8,3.0,45690.0,220280.0,101297.0,222730.0,107733.0
2026-04-14 18:06:48.744823,748187,1609507502381279,5102351536,-0.579744,0.804224,0.472384,2.1875,2.14375,-3.8675,-5.064,-16.928001,29.984001,inter_set_rest,8,3.0,45690.0,220280.0,101297.0,222730.0,107733.0
2026-04-14 18:06:48.752021,748188,1609507502390188,5102360346,-0.542656,0.782752,0.355264,4.2875,2.3275,-3.4125,-5.856,-17.216002,29.864002,inter_set_rest,8,3.0,45690.0,220280.0,101297.0,222730.0,107733.0
2026-04-14 18:06:48.767346,748189,1609507502404744,5102373188,-0.542656,0.792512,0.304512,4.57625,2.40625,-2.98375,-5.856,-17.216002,29.864002,inter_set_rest,8,3.0,45690.0,220280.0,101297.0,222730.0,107733.0
2026-04-14 18:06:48.856894,748200,1609507502414114,5102384090,-0.571936,0.792512,0.304512,3.9725,2.28375,-3.01,-4.736,-17.064001,29.808,inter_set_rest,8,3.0,45972.0,221486.0,101566.0,223839.0,108182.0
2026-04-14 18:06:48.859225,748201,1609507502423166,5102392946,-0.571936,0.792512,0.304512,2.8875,2.415,-3.5,-4.736,-17.064001,29.808,inter_set_rest,8,3.0,45972.0,221486.0,101566.0,223839.0,108182.0
2026-04-14 18:06:48.862372,748202,1609507502437659,5102407850,-0.562176,0.792512,0.318176,2.59875,2.0825,-3.6225,-5.480001,-17.032001,31.04,inter_set_rest,8,3.0,45972.0,221486.0,101566.0,223839.0,108182.0
2026-04-14 18:06:48.864810,748203,1609507502446749,5102416534,-0.564128,0.784704,0.284992,2.19625,1.56625,-3.33375,-5.68,-16.744001,29.768002,inter_set_rest,8,3.0,45972.0,221486.0,101566.0,223839.0,108182.0
2026-04-14 18:06:48.867362,748204,1609507502461240,5102431526,-0.564128,0.784704,0.284992,1.16375,1.04125,-3.7275,-5.68,-16.744001,29.768002,inter_set_rest,8,3.0,45972.0,221486.0,101566.0,223839.0,108182.0
2026-04-14 18:06:48.869387,748205,1609507502470141,5102440392,-0.636352,0.796416,0.193248,0.84,0.6475,-3.45625,-5.88,-17.12,30.704002,inter_set_rest,8,3.0,45972.0,221486.0,101566.0,223839.0,108182.0
2026-04-14 18:06:48.874719,748206,1609507502479272,5102449098,-0.636352,0.796416,0.193248,0.39375,0.7,-3.22,-5.88,-17.12,30.704002,inter_set_rest,8,3.0,45972.0,221486.0,101566.0,223839.0,108182.0
2026-04-14 18:06:48.875157,748207,1609507502493768,5102464003,-0.638304,0.837408,0.345504,-0.13125,0.315,-3.115,-5.376,-16.984001,29.952002,inter_set_rest,8,3.0,45972.0,221486.0,101566.0,223839.0,108182.0
2026-04-14 18:06:48.876821,748208,1609507502502746,5102472701,-0.638304,0.837408,0.345504,-1.18125,0.175,-2.45875,-5.376,-16.984001,29.952002,inter_set_rest,8,3.0,45972.0,221486.0,101566.0,223839.0,108182.0
2026-04-14 18:06:48.906914,748219,1609507502517312,5102487640,-0.648064,0.827648,0.314272,-1.4875,-0.02625,-2.135,-4.328,-17.504002,29.424002,inter_set_rest,8,3.0,46171.0,223083.0,101646.0,224741.0,108377.0
2026-04-14 18:06:48.909726,748220,1609507502526284,5102496487,-0.646112,0.804224,0.206912,-1.21625,0.2625,-2.45875,-4.648,-17.248001,29.664001,inter_set_rest,8,3.0,46171.0,223083.0,101646.0,224741.0,108377.0
2026-04-14 18:06:48.912174,748221,1609507502540859,5102509362,-0.646112,0.804224,0.206912,-0.49875,0.34125,-2.02125,-4.648,-17.248001,29.664001,inter_set_rest,8,3.0,46171.0,223083.0,101646.0,224741.0,108377.0
2026-04-14 18:06:48.914788,748222,1609507502550217,5102520146,-0.632448,0.823744,0.245952,0.4025,0.00875,-2.03,-4.76,-17.728,29.912,inter_set_rest,8,3.0,46171.0,223083.0,101646.0,224741.0,108377.0
2026-04-14 18:06:48.921067,748223,1609507502559157,5102528918,-0.632448,0.823744,0.245952,0.32375,0.16625,-1.75,-4.76,-17.728,29.912,inter_set_rest,8,3.0,46171.0,223083.0,101646.0,224741.0,108377.0
2026-04-14 18:06:48.936060,748224,1609507502573663,5102543817,-0.61488,0.854976,0.417728,-0.39375,0.11375,-1.91625,-6.152,-16.720001,31.936,inter_set_rest,8,3.0,46171.0,223083.0,101646.0,224741.0,108377.0
2026-04-14 18:06:48.947318,748225,1609507502582603,5102552500,-0.61488,0.854976,0.417728,-2.49375,-0.20125,-2.0475,-6.152,-16.720001,31.936,inter_set_rest,8,3.0,46171.0,223083.0,101646.0,224741.0,108377.0
2026-04-14 18:06:48.958580,748226,1609507502597261,5102567416,-0.646112,0.827648,0.320128,-3.9025,-0.3325,-2.275,-4.344,-17.512001,29.736002,inter_set_rest,8,3.0,46171.0,223083.0,101646.0,224741.0,108377.0
2026-04-14 18:06:48.980534,748227,1609507502606345,5102576135,-0.632448,0.798368,0.20496,-3.52625,-0.3325,-2.80875,-4.344,-17.512001,29.912,inter_set_rest,8,3.0,46171.0,223083.0,101646.0,224741.0,108377.0
2026-04-14 18:06:49.008075,748238,1609507502615369,5102584893,-0.632448,0.798368,0.20496,-3.045,-0.62125,-2.66875,-4.456,-17.224,29.912,inter_set_rest,8,3.0,46085.0,222310.0,101314.0,223908.0,108061.0
2026-04-14 18:06:49.010545,748239,1609507502629914,5102599789,-0.560224,0.81984,0.456768,-2.02125,-0.14875,-2.28375,-5.672,-17.176,31.056002,inter_set_rest,8,3.0,46085.0,222310.0,101314.0,223908.0,108061.0
2026-04-14 18:06:49.015993,748240,1609507502638883,5102608516,-0.560224,0.81984,0.456768,-1.89875,-0.175,-2.975,-5.672,-17.176,31.056002,inter_set_rest,8,3.0,46085.0,222310.0,101314.0,223908.0,108061.0
2026-04-14 18:06:49.018493,748241,1609507502653385,5102623463,-0.636352,0.812032,0.222528,-2.3275,-0.1225,-2.8525,-5.624,-16.864,30.568,inter_set_rest,8,3.0,46085.0,222310.0,101314.0,223908.0,108061.0
2026-04-14 18:06:49.024733,748242,1609507502662361,5102632166,-0.636352,0.812032,0.222528,-3.22875,-0.34125,-2.86125,-5.624,-16.864,30.568,inter_set_rest,8,3.0,46085.0,222310.0,101314.0,223908.0,108061.0
2026-04-14 18:06:49.039308,748243,1609507502676875,5102647088,-0.630496,0.802272,0.23424,-3.24625,-0.11375,-2.905,-5.608,-17.064001,30.304,inter_set_rest,8,3.0,46085.0,222310.0,101314.0,223908.0,108061.0
2026-04-14 18:06:49.079287,748244,1609507502685913,5102655798,-0.630496,0.802272,0.23424,-3.255,0.07875,-3.22875,-5.608,-17.064001,30.304,inter_set_rest,8,3.0,46085.0,222310.0,101314.0,223908.0,108061.0
2026-04-14 18:06:49.079545,748245,1609507502695035,5102664490,-0.552416,0.788608,0.353312,-3.28125,0.13125,-3.22875,-5.2,-17.176,28.328001,inter_set_rest,8,3.0,46085.0,222310.0,101314.0,223908.0,108061.0
2026-04-14 18:06:49.104526,748256,1609507502710003,5102679644,-0.583648,0.774944,0.236192,-3.22875,0.5425,-2.89625,-5.568,-17.176,30.744001,inter_set_rest,8,3.0,45759.0,220805.0,100573.0,222501.0,107232.0
2026-04-14 18:06:49.106872,748257,1609507502719018,5102688437,-0.583648,0.774944,0.236192,-2.93125,0.7875,-2.68625,-5.568,-17.176,30.744001,inter_set_rest,8,3.0,45759.0,220805.0,100573.0,222501.0,107232.0
2026-04-14 18:06:49.109506,748258,1609507502728033,5102697183,-0.54656,0.80032,0.450912,-2.73,0.76125,-2.8175,-5.336,-16.6,32.464,inter_set_rest,8,3.0,45759.0,220805.0,100573.0,222501.0,107232.0
2026-04-14 18:06:49.111915,748259,1609507502742553,5102712165,-0.54656,0.80032,0.450912,-2.7475,0.8575,-2.44125,-5.336,-16.6,32.464,inter_set_rest,8,3.0,45759.0,220805.0,100573.0,222501.0,107232.0
2026-04-14 18:06:49.114249,748260,1609507502751524,5102720861,-0.612928,0.825696,0.40992,-2.3975,0.65625,-2.33625,-6.104,-16.592001,32.136,inter_set_rest,8,3.0,45759.0,220805.0,100573.0,222501.0,107232.0
2026-04-14 18:06:49.128291,748261,1609507502766069,5102735843,-0.612928,0.825696,0.40992,-2.07375,1.14625,-2.1175,-6.104,-16.592001,32.136,inter_set_rest,8,3.0,45759.0,220805.0,100573.0,222501.0,107232.0
2026-04-14 18:06:49.137092,748262,1609507502775075,5102744617,-0.562176,0.782752,0.2928,-1.6975,0.805,-2.4325,-5.408001,-17.184,29.544,inter_set_rest,8,3.0,45759.0,220805.0,100573.0,222501.0,107232.0
2026-04-14 18:06:49.153320,748263,1609507502789586,5102759523,-0.542656,0.798368,0.417728,-1.6275,0.91,-2.4675,-4.4,-17.368,29.536001,inter_set_rest,8,3.0,45759.0,220805.0,100573.0,222501.0,107232.0
2026-04-14 18:06:49.178218,748264,1609507502798669,5102768218,-0.542656,0.798368,0.417728,-1.5575,0.88375,-2.7825,-4.4,-17.368,29.536001,inter_set_rest,8,3.0,45759.0,220805.0,100573.0,222501.0,107232.0
2026-04-14 18:06:49.180711,748265,1609507502807755,5102776889,-0.558272,0.776896,0.2928,-1.63625,0.86625,-2.80875,-4.4,-17.368,30.912,inter_set_rest,8,3.0,45759.0,220805.0,100573.0,222501.0,107232.0
2026-04-14 18:06:49.235771,748276,1609507502822257,5102791913,-0.558272,0.776896,0.2928,-1.70625,0.69125,-2.7825,-4.272,-17.248001,30.912,inter_set_rest,8,3.0,45543.0,219462.0,100057.0,221342.0,106724.0
2026-04-14 18:06:49.241180,748277,1609507502831339,5102800666,-0.564128,0.776896,0.269376,-1.65375,0.48125,-2.93125,-4.584,-17.424002,30.632002,inter_set_rest,8,3.0,45543.0,219462.0,100057.0,221342.0,106724.0
2026-04-14 18:06:49.241552,748278,1609507502845828,5102815588,-0.564128,0.776896,0.269376,-1.42625,0.315,-2.87875,-4.584,-17.424002,30.632002,inter_set_rest,8,3.0,45543.0,219462.0,100057.0,221342.0,106724.0
2026-04-14 18:06:49.243055,748279,1609507502854969,5102824317,-0.573888,0.81984,0.46848,-1.2425,0.7,-2.72125,-4.92,-16.92,30.480001,inter_set_rest,8,3.0,45543.0,219462.0,100057.0,221342.0,106724.0
2026-04-14 18:06:49.250166,748280,1609507502863922,5102833019,-0.573888,0.81984,0.46848,-0.95375,0.5075,-3.47375,-4.92,-16.92,30.480001,inter_set_rest,8,3.0,45543.0,219462.0,100057.0,221342.0,106724.0
2026-04-14 18:06:49.250271,748281,1609507502878496,5102848074,-0.55632,0.81008,0.447008,-0.4725,0.21875,-3.605,-5.256,-16.776001,30.824001,inter_set_rest,8,3.0,45543.0,219462.0,100057.0,221342.0,106724.0
2026-04-14 18:06:49.250341,748282,1609507502887459,5102856799,-0.55632,0.81008,0.447008,-0.5425,0.0525,-4.2175,-5.256,-16.776001,30.824001,inter_set_rest,8,3.0,45543.0,219462.0,100057.0,221342.0,106724.0
2026-04-14 18:06:49.265639,748283,1609507502901985,5102871860,-0.548512,0.7808,0.329888,-0.83125,-0.07,-4.31375,-5.056,-16.808,30.960001,inter_set_rest,8,3.0,45543.0,219462.0,100057.0,221342.0,106724.0
2026-04-14 18:06:49.297054,748294,1609507502911284,5102880642,-0.589504,0.782752,0.230336,-1.5575,-0.245,-4.305,-4.568,-17.104,29.608002,inter_set_rest,8,3.0,45329.0,218581.0,99601.0,220687.0,106222.0
2026-04-14 18:06:49.299524,748295,1609507502926078,5102895757,-0.589504,0.782752,0.230336,-2.07375,-0.55125,-4.445,-4.568,-17.104,29.608002,inter_set_rest,8,3.0,45329.0,218581.0,99601.0,220687.0,106222.0
2026-04-14 18:06:49.302048,748296,1609507502935072,5102904463,-0.640256,0.798368,0.206912,-2.38,-1.09375,-4.27,-4.336,-17.592001,29.664001,inter_set_rest,8,3.0,45329.0,218581.0,99601.0,220687.0,106222.0
2026-04-14 18:06:49.305752,748297,1609507502944071,5102913201,-0.640256,0.798368,0.206912,-2.47625,-1.12,-4.57625,-4.336,-17.592001,29.664001,inter_set_rest,8,3.0,45329.0,218581.0,99601.0,220687.0,106222.0
2026-04-14 18:06:49.322054,748298,1609507502958584,5102928302,-0.6344,0.806176,0.300608,-2.33625,-0.97125,-4.725,-4.768,-17.6,30.008001,inter_set_rest,8,3.0,45329.0,218581.0,99601.0,220687.0,106222.0
2026-04-14 18:06:49.328260,748299,1609507502967622,5102937012,-0.6344,0.806176,0.300608,-1.9775,-1.435,-4.69875,-4.768,-17.6,30.008001,inter_set_rest,8,3.0,45329.0,218581.0,99601.0,220687.0,106222.0
2026-04-14 18:06:49.345773,748300,1609507502982149,5102951910,-0.571936,0.794464,0.423584,-1.16375,-1.4175,-4.57625,-4.376,-17.352001,28.624,inter_set_rest,8,3.0,45329.0,218581.0,99601.0,220687.0,106222.0
2026-04-14 18:06:49.353145,748301,1609507502991081,5102960622,-0.564128,0.7808,0.316224,-0.245,-1.2075,-4.7425,-5.312,-17.28,30.504002,inter_set_rest,8,3.0,45329.0,218581.0,99601.0,220687.0,106222.0
2026-04-14 18:06:49.361951,748302,1609507503000012,5102969331,-0.564128,0.7808,0.316224,0.56875,-1.4525,-4.48875,-5.312,-17.28,30.504002,inter_set_rest,8,3.0,45329.0,218581.0,99601.0,220687.0,106222.0
2026-04-14 18:06:49.396921,748313,1609507503014676,5102984358,-0.554368,0.786656,0.363072,-0.175,-1.715,-4.48875,-4.528,-17.408,29.800001,inter_set_rest,8,3.0,44670.0,215060.0,98316.0,217972.0,104775.0
2026-04-14 18:06:49.399558,748314,1609507503023644,5102993189,-0.554368,0.786656,0.363072,-0.07875,-1.96875,-4.4625,-4.528,-17.408,29.800001,inter_set_rest,8,3.0,44670.0,215060.0,98316.0,217972.0,104775.0
2026-04-14 18:06:49.402089,748315,1609507503038140,5103008118,-0.55632,0.7808,0.394304,-0.6825,-2.07375,-4.43625,-4.328,-17.12,31.032001,inter_set_rest,8,3.0,44670.0,215060.0,98316.0,217972.0,104775.0
2026-04-14 18:06:49.409540,748316,1609507503047104,5103016818,-0.55632,0.7808,0.394304,-0.65625,-2.10875,-4.45375,-4.328,-17.12,31.032001,inter_set_rest,8,3.0,44670.0,215060.0,98316.0,217972.0,104775.0
2026-04-14 18:06:49.423654,748317,1609507503061625,5103031725,-0.628544,0.812032,0.365024,-0.63,-1.6625,-4.0075,-5.752,-17.512001,31.184002,inter_set_rest,8,3.0,44670.0,215060.0,98316.0,217972.0,104775.0
2026-04-14 18:06:49.431797,748318,1609507503070592,5103040436,-0.64416,0.821792,0.345504,-0.525,-1.61,-3.535,-4.856,-17.512001,28.960001,inter_set_rest,8,3.0,44670.0,215060.0,98316.0,217972.0,104775.0
2026-04-14 18:06:49.442202,748319,1609507503079666,5103049173,-0.64416,0.821792,0.345504,-0.9625,-1.39125,-3.99,-4.856,-17.512001,28.960001,inter_set_rest,8,3.0,44670.0,215060.0,98316.0,217972.0,104775.0
2026-04-14 18:06:49.458110,748320,1609507503094146,5103064068,-0.65392,0.808128,0.236192,-1.645,-1.2775,-3.43,-4.744,-17.376001,29.792002,inter_set_rest,8,3.0,44670.0,215060.0,98316.0,217972.0,104775.0
2026-04-14 18:06:49.464670,748321,1609507503103098,5103072893,-0.65392,0.808128,0.236192,-2.485,-1.02375,-2.6425,-4.744,-17.376001,29.792002,inter_set_rest,8,3.0,44670.0,215060.0,98316.0,217972.0,104775.0
2026-04-14 18:06:49.497370,748332,1609507503117787,5103088057,-0.60512,0.815936,0.417728,-3.0275,-0.4375,-2.1875,-5.368,-17.320002,31.520002,inter_set_rest,8,3.0,44405.0,213709.0,97589.0,216938.0,104034.0
2026-04-14 18:06:49.499381,748333,1609507503126927,5103096764,-0.60512,0.815936,0.417728,-2.96625,-0.245,-2.1525,-5.368,-17.320002,31.520002,inter_set_rest,8,3.0,44405.0,213709.0,97589.0,216938.0,104034.0
2026-04-14 18:06:49.502361,748334,1609507503135931,5103105478,-0.569984,0.812032,0.464576,-2.8175,-0.1575,-2.1525,-5.824,-17.04,31.720001,inter_set_rest,8,3.0,44405.0,213709.0,97589.0,216938.0,104034.0
2026-04-14 18:06:49.512304,748335,1609507503150504,5103120476,-0.607072,0.825696,0.411872,-3.07125,-0.07875,-2.17,-5.32,-17.400002,29.800001,inter_set_rest,8,3.0,44405.0,213709.0,97589.0,216938.0,104034.0
2026-04-14 18:06:49.522207,748336,1609507503159452,5103129207,-0.607072,0.825696,0.411872,-3.0975,0.42,-2.135,-5.32,-17.400002,29.800001,inter_set_rest,8,3.0,44405.0,213709.0,97589.0,216938.0,104034.0
2026-04-14 18:06:49.549681,748337,1609507503173949,5103144088,-0.648064,0.808128,0.20496,-3.3425,0.2625,-2.6425,-4.36,-17.544,29.720001,inter_set_rest,8,3.0,44405.0,213709.0,97589.0,216938.0,104034.0
2026-04-14 18:06:49.552210,748338,1609507503182864,5103152926,-0.648064,0.808128,0.20496,-4.15625,0.105,-2.75625,-4.36,-17.544,29.720001,inter_set_rest,8,3.0,44405.0,213709.0,97589.0,216938.0,104034.0
2026-04-14 18:06:49.581108,748339,1609507503197416,5103165785,-0.632448,0.81008,0.265472,-4.7425,-0.3325,-2.1525,-5.432,-17.096,30.912,inter_set_rest,8,3.0,44405.0,213709.0,97589.0,216938.0,104034.0
2026-04-14 18:06:49.583248,748340,1609507503206646,5103176713,-0.632448,0.81008,0.265472,-4.8475,0.04375,-2.45,-5.432,-17.096,30.912,inter_set_rest,8,3.0,44405.0,213709.0,97589.0,216938.0,104034.0
2026-04-14 18:06:49.630943,748351,1609507503215686,5103185441,-0.622688,0.784704,0.201056,-5.11,-0.0525,-2.625,-4.32,-17.616001,30.456001,inter_set_rest,8,3.0,44776.0,215778.0,98037.0,218420.0,104654.0
2026-04-14 18:06:49.633443,748352,1609507503230271,5103200355,-0.622688,0.79056,0.210816,-5.11875,-0.13125,-2.5725,-4.32,-17.616001,30.456001,inter_set_rest,8,3.0,44776.0,215778.0,98037.0,218420.0,104654.0
2026-04-14 18:06:49.635503,748353,1609507503239258,5103209062,-0.626592,0.79056,0.210816,-5.0925,0.21875,-2.065,-5.336,-16.808,28.784002,inter_set_rest,8,3.0,44776.0,215778.0,98037.0,218420.0,104654.0
2026-04-14 18:06:49.638473,748354,1609507503253816,5103223972,-0.651968,0.823744,0.325984,-5.06625,0.67375,-2.415,-5.296001,-17.36,31.032001,inter_set_rest,8,3.0,44776.0,215778.0,98037.0,218420.0,104654.0
2026-04-14 18:06:49.640538,748355,1609507503262859,5103232700,-0.651968,0.823744,0.325984,-4.52375,0.32375,-2.555,-5.296001,-17.36,31.032001,inter_set_rest,8,3.0,44776.0,215778.0,98037.0,218420.0,104654.0
2026-04-14 18:06:49.643447,748356,1609507503271879,5103241383,-0.651968,0.804224,0.236192,-4.22625,-0.09625,-2.275,-5.24,-16.856,31.136002,inter_set_rest,8,3.0,44776.0,215778.0,98037.0,218420.0,104654.0
2026-04-14 18:06:49.649723,748357,1609507503286438,5103256336,-0.651968,0.804224,0.236192,-3.98125,0.245,-2.38875,-5.24,-16.856,31.136002,inter_set_rest,8,3.0,44776.0,215778.0,98037.0,218420.0,104654.0
2026-04-14 18:06:49.656975,748358,1609507503295373,5103265032,-0.5856,0.7808,0.261568,-4.03375,0.58625,-2.17875,-4.36,-17.352001,29.872002,inter_set_rest,8,3.0,44776.0,215778.0,98037.0,218420.0,104654.0
2026-04-14 18:06:49.673654,748359,1609507503309886,5103279920,-0.5856,0.7808,0.261568,-3.82375,0.5425,-1.995,-4.36,-17.352001,29.872002,inter_set_rest,8,3.0,44776.0,215778.0,98037.0,218420.0,104654.0
2026-04-14 18:06:49.725977,748370,1609507503318968,5103288801,-0.571936,0.776896,0.281088,-3.71875,0.07,-2.17,-4.288,-17.296001,28.736002,inter_set_rest,8,3.0,44909.0,216625.0,98119.0,218929.0,104814.0
2026-04-14 18:06:49.728560,748371,1609507503327963,5103297565,-0.571936,0.776896,0.281088,-4.235,0.1575,-2.205,-4.288,-17.296001,28.736002,inter_set_rest,8,3.0,44909.0,216625.0,98119.0,218929.0,104814.0
2026-04-14 18:06:49.730955,748372,1609507503342471,5103312474,-0.650016,0.798368,0.226432,-4.0075,0.28875,-2.56375,-5.84,-16.136002,31.816002,inter_set_rest,8,3.0,44909.0,216625.0,98119.0,218929.0,104814.0
2026-04-14 18:06:49.733299,748373,1609507503351447,5103321131,-0.558272,0.804224,0.464576,-3.4825,-0.0875,-2.59875,-5.976,-16.768002,31.976002,inter_set_rest,8,3.0,44909.0,216625.0,98119.0,218929.0,104814.0
2026-04-14 18:06:49.735948,748374,1609507503365994,5103336080,-0.558272,0.804224,0.464576,-3.00125,-0.09625,-2.63375,-5.976,-16.768002,31.976002,inter_set_rest,8,3.0,44909.0,216625.0,98119.0,218929.0,104814.0
2026-04-14 18:06:49.738067,748375,1609507503374973,5103344798,-0.599264,0.815936,0.4392,-2.75625,-0.0175,-3.1675,-5.616,-16.952002,31.080002,inter_set_rest,8,3.0,44909.0,216625.0,98119.0,218929.0,104814.0
2026-04-14 18:06:49.752268,748376,1609507503389574,5103359788,-0.599264,0.815936,0.4392,-2.26625,-0.0175,-3.22,-5.616,-16.952002,31.080002,inter_set_rest,8,3.0,44909.0,216625.0,98119.0,218929.0,104814.0
2026-04-14 18:06:49.763431,748377,1609507503398532,5103368513,-0.54656,0.772992,0.372832,-2.37125,0.14875,-3.29,-4.536,-17.184,30.2,inter_set_rest,8,3.0,44909.0,216625.0,98119.0,218929.0,104814.0
2026-04-14 18:06:49.769289,748378,1609507503407576,5103377223,-0.54656,0.772992,0.372832,-2.09125,-0.0875,-2.73,-4.536,-17.184,30.2,inter_set_rest,8,3.0,44909.0,216625.0,98119.0,218929.0,104814.0
2026-04-14 18:06:49.797249,748389,1609507503422296,5103392178,-0.6344,0.835456,0.402112,-1.81125,-0.42875,-3.24625,-4.536,-17.016,30.920002,inter_set_rest,8,3.0,44779.0,216258.0,97816.0,218625.0,104528.0
2026-04-14 18:06:49.799859,748390,1609507503431283,5103400914,-0.6344,0.835456,0.226432,-1.95125,-0.46375,-2.93125,-4.536,-17.016,30.920002,inter_set_rest,8,3.0,44779.0,216258.0,97816.0,218625.0,104528.0
2026-04-14 18:06:49.813078,748391,1609507503445787,5103415836,-0.597312,0.778848,0.226432,-2.33625,-0.49875,-3.22875,-5.272,-16.76,30.768002,inter_set_rest,8,3.0,44779.0,216258.0,97816.0,218625.0,104528.0
2026-04-14 18:06:49.816613,748392,1609507503454743,5103424544,-0.554368,0.7808,0.407968,-2.3975,-0.0525,-3.36875,-5.112001,-17.128,29.968002,inter_set_rest,8,3.0,44779.0,216258.0,97816.0,218625.0,104528.0
2026-04-14 18:06:49.832166,748393,1609507503469374,5103439790,-0.554368,0.7808,0.407968,-2.3625,-0.35,-3.115,-5.112001,-17.128,29.968002,inter_set_rest,8,3.0,44779.0,216258.0,97816.0,218625.0,104528.0
2026-04-14 18:06:49.840457,748394,1609507503478800,5103448590,-0.661728,0.808128,0.275232,-2.03,-0.25375,-3.22875,-4.568,-17.312,29.728,inter_set_rest,8,3.0,44779.0,216258.0,97816.0,218625.0,104528.0
2026-04-14 18:06:49.851066,748395,1609507503487837,5103457275,-0.661728,0.808128,0.275232,-1.5925,-0.3325,-3.01,-4.568,-17.312,29.728,inter_set_rest,8,3.0,44779.0,216258.0,97816.0,218625.0,104528.0
2026-04-14 18:06:49.866860,748396,1609507503502684,5103472285,-0.646112,0.821792,0.306464,-1.37375,-0.34125,-2.9925,-4.504,-16.968,29.840002,inter_set_rest,8,3.0,44779.0,216258.0,97816.0,218625.0,104528.0
2026-04-14 18:06:49.873183,748397,1609507503511717,5103481313,-0.646112,0.821792,0.25376,-1.09375,-0.56,-3.22,-4.504,-16.968,29.840002,inter_set_rest,8,3.0,44779.0,216258.0,97816.0,218625.0,104528.0
2026-04-14 18:06:49.975776,748408,1609507503520725,5103490167,-0.657824,0.812032,0.25376,-1.5225,-0.46375,-3.61375,-5.4,-16.808,33.032,inter_set_rest,8,3.0,44466.0,214584.0,97201.0,217413.0,103900.0
2026-04-14 18:06:49.978576,748409,1609507503535263,5103505150,-0.642208,0.823744,0.384544,-2.05625,-0.665,-3.98125,-4.216,-16.984001,29.728,inter_set_rest,8,3.0,44466.0,214584.0,97201.0,217413.0,103900.0
2026-04-14 18:06:49.980974,748410,1609507503544179,5103513843,-0.642208,0.823744,0.384544,-2.59875,-0.65625,-3.66625,-4.216,-16.984001,29.728,inter_set_rest,8,3.0,44466.0,214584.0,97201.0,217413.0,103900.0
2026-04-14 18:06:49.983604,748411,1609507503558713,5103528738,-0.587552,0.786656,0.36112,-3.36875,-0.41125,-3.7625,-4.088,-17.024,29.680002,inter_set_rest,8,3.0,44466.0,214584.0,97201.0,217413.0,103900.0
2026-04-14 18:06:49.986091,748412,1609507503567692,5103537438,-0.587552,0.786656,0.36112,-2.91375,-0.14,-3.59625,-4.088,-17.024,29.680002,inter_set_rest,8,3.0,44466.0,214584.0,97201.0,217413.0,103900.0
2026-04-14 18:06:49.988582,748413,1609507503582331,5103552369,-0.616832,0.806176,0.335744,-2.45875,-0.11375,-3.01,-4.296,-17.024,29.608002,inter_set_rest,8,3.0,44466.0,214584.0,97201.0,217413.0,103900.0
2026-04-14 18:06:49.990612,748414,1609507503591271,5103561064,-0.616832,0.806176,0.335744,-2.54625,0.35,-2.98375,-4.296,-17.024,29.608002,inter_set_rest,8,3.0,44466.0,214584.0,97201.0,217413.0,103900.0
2026-04-14 18:06:49.993597,748415,1609507503600197,5103569745,-0.622688,0.823744,0.404064,-1.98625,0.2975,-3.07125,-4.32,-17.176,30.136002,inter_set_rest,8,3.0,44466.0,214584.0,97201.0,217413.0,103900.0
2026-04-14 18:06:50.020399,748426,1609507503615460,5103584816,-0.636352,0.815936,0.37088,-2.79125,0.46375,-2.7825,-4.608,-16.944,31.976002,inter_set_rest,8,3.0,44173.0,213533.0,96625.0,216522.0,103345.0
2026-04-14 18:06:50.022926,748427,1609507503624469,5103593702,-0.636352,0.815936,0.37088,-3.0625,0.28875,-2.625,-4.608,-16.944,31.976002,inter_set_rest,8,3.0,44173.0,213533.0,96625.0,216522.0,103345.0
2026-04-14 18:06:50.026657,748428,1609507503639024,5103608684,-0.61488,0.782752,0.249856,-3.07125,0.48125,-2.765,-5.112001,-16.904001,30.680002,inter_set_rest,8,3.0,44173.0,213533.0,96625.0,216522.0,103345.0
2026-04-14 18:06:50.029227,748429,1609507503648157,5103617432,-0.61488,0.782752,0.249856,-2.59875,0.32375,-2.47625,-5.112001,-16.904001,30.680002,inter_set_rest,8,3.0,44173.0,213533.0,96625.0,216522.0,103345.0
2026-04-14 18:06:50.031280,748430,1609507503657106,5103626211,-0.650016,0.794464,0.210816,-2.6075,0.44625,-2.12625,-4.92,-16.776001,30.968002,inter_set_rest,8,3.0,44173.0,213533.0,96625.0,216522.0,103345.0
2026-04-14 18:06:50.034343,748431,1609507503671764,5103641159,-0.650016,0.794464,0.210816,-2.65125,0.14875,-2.47625,-4.92,-16.776001,30.968002,inter_set_rest,8,3.0,44173.0,213533.0,96625.0,216522.0,103345.0
2026-04-14 18:06:50.041748,748432,1609507503680824,5103649854,-0.564128,0.806176,0.474336,-2.6075,0.0525,-3.00125,-5.152,-16.744001,33.056,inter_set_rest,8,3.0,44173.0,213533.0,96625.0,216522.0,103345.0
2026-04-14 18:06:50.056699,748433,1609507503695320,5103664778,-0.5856,0.806176,0.433344,-3.2375,-0.32375,-2.625,-4.056,-17.264,30.736002,inter_set_rest,8,3.0,44173.0,213533.0,96625.0,216522.0,103345.0
2026-04-14 18:06:50.068256,748434,1609507503704305,5103673464,-0.5856,0.806176,0.433344,-3.3425,-0.1925,-2.7125,-4.056,-17.264,30.736002,inter_set_rest,8,3.0,44173.0,213533.0,96625.0,216522.0,103345.0
2026-04-14 18:06:50.077010,748435,1609507503713371,5103682183,-0.601216,0.788608,0.349408,-3.15,-0.1225,-2.87,-4.056,-17.264,32.784,inter_set_rest,8,3.0,44173.0,213533.0,96625.0,216522.0,103345.0
2026-04-14 18:06:50.104165,748446,1609507503728345,5103697161,-0.599264,0.788608,0.349408,-3.01,0.06125,-2.93125,-5.808,-16.152,33.904003,inter_set_rest,8,3.0,43907.0,213023.0,96069.0,216018.0,102858.0
2026-04-14 18:06:50.107942,748447,1609507503737769,5103707983,-0.560224,0.765184,0.335744,-2.7125,-0.245,-2.6775,-4.072,-17.144001,30.024002,inter_set_rest,8,3.0,43907.0,213023.0,96069.0,216018.0,102858.0
2026-04-14 18:06:50.111681,748448,1609507503752308,5103720880,-0.560224,0.765184,0.335744,-2.40625,-0.74375,-2.77375,-4.072,-17.144001,30.024002,inter_set_rest,8,3.0,43907.0,213023.0,96069.0,216018.0,102858.0
2026-04-14 18:06:50.123457,748449,1609507503761711,5103731647,-0.60512,0.792512,0.325984,-2.555,-0.665,-2.6075,-4.992,-16.696001,29.536001,inter_set_rest,8,3.0,43907.0,213023.0,96069.0,216018.0,102858.0
2026-04-14 18:06:50.133533,748450,1609507503770698,5103740333,-0.60512,0.792512,0.325984,-2.54625,-1.18125,-2.765,-4.992,-16.696001,29.536001,inter_set_rest,8,3.0,43907.0,213023.0,96069.0,216018.0,102858.0
2026-04-14 18:06:50.149508,748451,1609507503785359,5103755232,-0.636352,0.81984,0.378688,-2.7125,-1.1375,-2.6425,-3.96,-16.984001,29.936,inter_set_rest,8,3.0,43907.0,213023.0,96069.0,216018.0,102858.0
2026-04-14 18:06:50.156079,748452,1609507503794321,5103763978,-0.632448,0.806176,0.33184,-3.36,-1.3125,-2.765,-4.36,-16.728,29.256,inter_set_rest,8,3.0,43907.0,213023.0,96069.0,216018.0,102858.0
2026-04-14 18:06:50.172330,748453,1609507503808971,5103778891,-0.632448,0.806176,0.33184,-3.36875,-1.32125,-2.6425,-4.36,-16.728,29.256,inter_set_rest,8,3.0,43907.0,213023.0,96069.0,216018.0,102858.0
2026-04-14 18:06:50.203088,748464,1609507503818380,5103787884,-0.64416,0.806176,0.316224,-2.66,-0.81375,-2.9575,-5.0,-16.744001,30.136002,inter_set_rest,8,3.0,43783.0,212982.0,95870.0,215877.0,102767.0
2026-04-14 18:06:50.205682,748465,1609507503827381,5103796691,-0.64416,0.806176,0.316224,-2.35375,-0.60375,-2.59875,-5.0,-16.744001,30.136002,inter_set_rest,8,3.0,43783.0,212982.0,95870.0,215877.0,102767.0
2026-04-14 18:06:50.208027,748466,1609507503842016,5103811729,-0.587552,0.81008,0.460672,-2.38875,-0.27125,-2.44125,-4.88,-16.448,29.984001,inter_set_rest,8,3.0,43783.0,212982.0,95870.0,215877.0,102767.0
2026-04-14 18:06:50.213214,748467,1609507503850970,5103820442,-0.587552,0.81008,0.460672,-1.96,-0.14875,-2.82625,-4.88,-16.448,29.984001,inter_set_rest,8,3.0,43783.0,212982.0,95870.0,215877.0,102767.0
2026-04-14 18:06:50.229493,748468,1609507503865501,5103835384,-0.558272,0.806176,0.462624,-1.44375,-0.1575,-2.7825,-4.24,-16.968,29.992,inter_set_rest,8,3.0,43783.0,212982.0,95870.0,215877.0,102767.0
2026-04-14 18:06:50.237055,748469,1609507503874484,5103844064,-0.579744,0.788608,0.339648,-1.68875,0.0525,-2.4325,-4.24,-16.968,31.520002,inter_set_rest,8,3.0,43783.0,212982.0,95870.0,215877.0,102767.0
2026-04-14 18:06:50.244559,748470,1609507503883504,5103852775,-0.579744,0.788608,0.339648,-1.60125,-0.07,-2.70375,-5.024,-16.808,31.520002,inter_set_rest,8,3.0,43783.0,212982.0,95870.0,215877.0,102767.0
2026-04-14 18:06:50.284360,748471,1609507503897924,5103867732,-0.628544,0.794464,0.281088,-1.98625,-0.0525,-2.7825,-4.416,-16.864,30.848001,inter_set_rest,8,3.0,43783.0,212982.0,95870.0,215877.0,102767.0
2026-04-14 18:06:50.309538,748472,1609507503906833,5103876414,-0.628544,0.794464,0.281088,-1.88125,-0.0175,-3.0975,-4.416,-16.864,30.848001,inter_set_rest,8,3.0,43783.0,212982.0,95870.0,215877.0,102767.0
2026-04-14 18:06:50.362044,748483,1609507503921474,5103891465,-0.632448,0.817888,0.376736,-1.25125,0.23625,-3.4475,-6.064,-16.384,33.304,inter_set_rest,8,3.0,43732.0,213559.0,95794.0,216290.0,102864.0
2026-04-14 18:06:50.368322,748484,1609507503930455,5103900250,-0.632448,0.817888,0.376736,-1.3125,0.23625,-3.2025,-6.064,-16.384,33.304,inter_set_rest,8,3.0,43732.0,213559.0,95794.0,216290.0,102864.0
2026-04-14 18:06:50.368441,748485,1609507503939438,5103908947,-0.638304,0.817888,0.345504,-1.33,-0.1225,-3.54375,-5.936,-16.584002,31.104002,inter_set_rest,8,3.0,43732.0,213559.0,95794.0,216290.0,102864.0
2026-04-14 18:06:50.369145,748486,1609507503953974,5103923854,-0.638304,0.817888,0.345504,-1.4175,-0.07875,-3.3425,-5.936,-16.584002,31.104002,inter_set_rest,8,3.0,43732.0,213559.0,95794.0,216290.0,102864.0
2026-04-14 18:06:50.371787,748487,1609507503963046,5103932637,-0.665632,0.817888,0.2928,-1.70625,0.0,-3.38625,-5.256,-16.616001,30.352001,inter_set_rest,8,3.0,43732.0,213559.0,95794.0,216290.0,102864.0
2026-04-14 18:06:50.377063,748488,1609507503977572,5103947692,-0.562176,0.794464,0.452864,-1.75875,0.175,-3.6925,-5.104,-16.720001,30.656002,inter_set_rest,8,3.0,43732.0,213559.0,95794.0,216290.0,102864.0
2026-04-14 18:06:50.379293,748489,1609507503986487,5103956399,-0.562176,0.794464,0.452864,-1.715,0.07875,-3.6575,-5.104,-16.720001,30.656002,inter_set_rest,8,3.0,43732.0,213559.0,95794.0,216290.0,102864.0
2026-04-14 18:06:50.379385,748490,1609507504001013,5103971294,-0.65392,0.792512,0.216672,-1.4525,0.07,-3.66625,-5.28,-16.664001,30.888002,inter_set_rest,8,3.0,43732.0,213559.0,95794.0,216290.0,102864.0
2026-04-14 18:06:50.381888,748491,1609507504009973,5103980082,-0.65392,0.792512,0.216672,-1.11125,0.18375,-3.54375,-5.28,-16.664001,30.888002,inter_set_rest,8,3.0,43732.0,213559.0,95794.0,216290.0,102864.0
2026-04-14 18:06:50.411879,748502,1609507504019594,5103989044,-0.66368,0.81008,0.244,-1.3475,0.56,-3.15,-5.168,-16.936,30.080002,inter_set_rest,8,3.0,43544.0,213334.0,95493.0,216201.0,102656.0
2026-04-14 18:06:50.414531,748503,1609507504034357,5104004014,-0.66368,0.81008,0.244,-1.8025,0.27125,-3.4125,-5.168,-16.936,30.080002,inter_set_rest,8,3.0,43544.0,213334.0,95493.0,216201.0,102656.0
2026-04-14 18:06:50.417048,748504,1609507504043470,5104012759,-0.618784,0.798368,0.306464,-2.38,0.23625,-3.78875,-4.608,-16.688002,29.680002,inter_set_rest,8,3.0,43544.0,213334.0,95493.0,216201.0,102656.0
2026-04-14 18:06:50.419443,748505,1609507504052422,5104021560,-0.618784,0.798368,0.306464,-2.8,0.28,-3.465,-4.608,-16.688002,29.680002,inter_set_rest,8,3.0,43544.0,213334.0,95493.0,216201.0,102656.0
2026-04-14 18:06:50.428589,748506,1609507504066936,5104036519,-0.618784,0.812032,0.443104,-2.9925,0.28,-3.4825,-4.376,-16.960001,30.232002,inter_set_rest,8,3.0,43544.0,213334.0,95493.0,216201.0,102656.0
2026-04-14 18:06:50.438587,748507,1609507504075884,5104045218,-0.648064,0.813984,0.37088,-3.26375,0.28875,-3.08,-4.376,-16.960001,31.688002,inter_set_rest,8,3.0,43544.0,213334.0,95493.0,216201.0,102656.0
2026-04-14 18:06:50.454850,748508,1609507504090474,5104060291,-0.648064,0.813984,0.37088,-2.555,1.05875,-2.80875,-4.128,-16.656,31.688002,inter_set_rest,8,3.0,43544.0,213334.0,95493.0,216201.0,102656.0
2026-04-14 18:06:50.470840,748509,1609507504099402,5104068992,-0.651968,0.796416,0.206912,-1.9425,1.35625,-2.96625,-4.976,-16.632,30.880001,inter_set_rest,8,3.0,43544.0,213334.0,95493.0,216201.0,102656.0
2026-04-14 18:06:50.476994,748510,1609507504113933,5104084042,-0.651968,0.796416,0.206912,-1.86375,1.44375,-3.29875,-4.976,-16.632,30.880001,inter_set_rest,8,3.0,43544.0,213334.0,95493.0,216201.0,102656.0
2026-04-14 18:06:50.506864,748521,1609507504122925,5104092810,-0.630496,0.827648,0.41968,-2.31875,1.155,-3.29,-5.024,-17.112001,29.824001,inter_set_rest,8,3.0,43639.0,214888.0,95601.0,217611.0,102948.0
2026-04-14 18:06:50.509510,748522,1609507504131927,5104101558,-0.630496,0.827648,0.41968,-3.64,1.575,-3.38625,-5.024,-17.112001,29.824001,inter_set_rest,8,3.0,43639.0,214888.0,95601.0,217611.0,102948.0
2026-04-14 18:06:50.512012,748523,1609507504146528,5104116562,-0.67344,0.79056,0.30256,-3.85875,1.79375,-4.62875,-3.888,-17.104,29.832,inter_set_rest,8,3.0,43639.0,214888.0,95601.0,217611.0,102948.0
2026-04-14 18:06:50.516998,748524,1609507504155499,5104125264,-0.67344,0.79056,0.30256,-3.45625,1.82,-6.78125,-3.888,-17.104,29.832,inter_set_rest,8,3.0,43639.0,214888.0,95601.0,217611.0,102948.0
2026-04-14 18:06:50.533258,748525,1609507504170005,5104140182,-0.562176,0.802272,0.454816,-1.75875,2.03,-3.185,-3.992,-17.008001,34.048,inter_set_rest,8,3.0,43639.0,214888.0,95601.0,217611.0,102948.0
2026-04-14 18:06:50.540712,748526,1609507504178933,5104148999,-0.640256,0.827648,0.411872,-1.84625,1.75875,-2.75625,-4.224,-17.12,31.128002,inter_set_rest,8,3.0,43639.0,214888.0,95601.0,217611.0,102948.0
2026-04-14 18:06:50.558200,748527,1609507504193536,5104161904,-0.640256,0.827648,0.411872,-2.1525,1.68875,-3.91125,-4.224,-17.12,31.128002,inter_set_rest,8,3.0,43639.0,214888.0,95601.0,217611.0,102948.0
2026-04-14 18:06:50.564226,748528,1609507504202736,5104172657,-0.669536,0.802272,0.244,-3.45625,1.4875,-3.87625,-4.72,-16.36,30.576002,inter_set_rest,8,3.0,43639.0,214888.0,95601.0,217611.0,102948.0
2026-04-14 18:06:50.574314,748529,1609507504211667,5104181344,-0.669536,0.802272,0.244,-3.955,1.505,-3.19375,-4.72,-16.36,30.576002,inter_set_rest,8,3.0,43639.0,214888.0,95601.0,217611.0,102948.0
2026-04-14 18:06:50.604134,748540,1609507504226543,5104196308,-0.577792,0.784704,0.437248,-3.71875,1.37375,-3.15,-3.936,-16.712,30.160002,inter_set_rest,8,3.0,44105.0,218852.0,96303.0,220648.0,103967.0
2026-04-14 18:06:50.614100,748541,1609507504235526,5104205070,-0.577792,0.784704,0.437248,-3.605,1.40875,-3.07125,-3.936,-16.712,30.160002,inter_set_rest,8,3.0,44105.0,218852.0,96303.0,220648.0,103967.0
2026-04-14 18:06:50.621060,748542,1609507504250084,5104220051,-0.648064,0.784704,0.230336,-2.84375,1.2425,-2.9925,-4.84,-16.408,29.456001,inter_set_rest,8,3.0,44105.0,218852.0,96303.0,220648.0,103967.0
2026-04-14 18:06:50.621150,748543,1609507504259046,5104228710,-0.609024,0.788608,0.30256,-2.00375,1.47,-2.79125,-3.848,-16.896,30.776001,inter_set_rest,8,3.0,44105.0,218852.0,96303.0,220648.0,103967.0
2026-04-14 18:06:50.666711,748544,1609507504267984,5104237435,-0.609024,0.788608,0.30256,-1.015,0.97125,-3.465,-3.848,-16.896,30.776001,inter_set_rest,8,3.0,44105.0,218852.0,96303.0,220648.0,103967.0
2026-04-14 18:06:50.669279,748545,1609507504282462,5104252308,-0.638304,0.80032,0.284992,-1.2775,0.58625,-3.80625,-5.224001,-16.176,32.056,inter_set_rest,8,3.0,44105.0,218852.0,96303.0,220648.0,103967.0
2026-04-14 18:06:50.671730,748546,1609507504291412,5104260988,-0.638304,0.80032,0.284992,-1.9075,0.41125,-4.17375,-5.224001,-16.176,32.056,inter_set_rest,8,3.0,44105.0,218852.0,96303.0,220648.0,103967.0
2026-04-14 18:06:50.676305,748547,1609507504305907,5104275869,-0.622688,0.784704,0.318176,-2.89625,0.4725,-4.26125,-5.592001,-16.104,30.616001,inter_set_rest,8,3.0,44105.0,218852.0,96303.0,220648.0,103967.0
2026-04-14 18:06:50.676660,748548,1609507504315009,5104284550,-0.622688,0.784704,0.318176,-3.56125,0.44625,-3.80625,-5.592001,-16.104,30.616001,inter_set_rest,8,3.0,44105.0,218852.0,96303.0,220648.0,103967.0
2026-04-14 18:06:50.706580,748559,1609507504329660,5104299547,-0.610976,0.80032,0.40992,-3.185,0.56,-3.56125,-4.608,-16.752,31.000002,inter_set_rest,8,3.0,43931.0,218900.0,95951.0,220490.0,103700.0
2026-04-14 18:06:50.709415,748560,1609507504338602,5104308307,-0.577792,0.784704,0.423584,-2.75625,0.735,-3.9375,-4.528,-16.528,30.864002,inter_set_rest,8,3.0,43931.0,218900.0,95951.0,220490.0,103700.0
2026-04-14 18:06:50.711742,748561,1609507504347580,5104317049,-0.577792,0.784704,0.423584,-1.81125,0.21,-3.78,-4.528,-16.528,30.864002,inter_set_rest,8,3.0,43931.0,218900.0,95951.0,220490.0,103700.0
2026-04-14 18:06:50.724924,748562,1609507504362112,5104332019,-0.651968,0.81008,0.35136,-1.54875,0.30625,-3.92875,-4.68,-16.592001,30.936,inter_set_rest,8,3.0,43931.0,218900.0,95951.0,220490.0,103700.0
2026-04-14 18:06:50.731789,748563,1609507504371251,5104340841,-0.651968,0.81008,0.35136,-1.96,0.18375,-4.2,-4.68,-16.592001,30.936,inter_set_rest,8,3.0,43931.0,218900.0,95951.0,220490.0,103700.0
2026-04-14 18:06:50.748016,748564,1609507504385883,5104355743,-0.66368,0.815936,0.347456,-1.8025,0.175,-4.05125,-4.44,-16.464,30.856,inter_set_rest,8,3.0,43931.0,218900.0,95951.0,220490.0,103700.0
2026-04-14 18:06:50.758001,748565,1609507504394834,5104364431,-0.66368,0.815936,0.347456,-2.30125,0.06125,-4.06,-4.44,-16.464,30.856,inter_set_rest,8,3.0,43931.0,218900.0,95951.0,220490.0,103700.0
2026-04-14 18:06:50.767517,748566,1609507504403799,5104373130,-0.657824,0.786656,0.242048,-2.94,0.00875,-3.68375,-4.544,-17.2,30.192001,inter_set_rest,8,3.0,43931.0,218900.0,95951.0,220490.0,103700.0
2026-04-14 18:06:50.808123,748577,1609507504418599,5104388059,-0.677344,0.80032,0.245952,-3.15,0.14,-4.2,-2.496,-17.0,29.712002,inter_set_rest,8,3.0,43801.0,218636.0,95699.0,220213.0,103538.0
2026-04-14 18:06:50.810466,748578,1609507504427630,5104396800,-0.677344,0.80032,0.245952,-2.65125,-0.02625,-3.815,-3.688,-17.0,29.712002,inter_set_rest,8,3.0,43801.0,218636.0,95699.0,220213.0,103538.0
2026-04-14 18:06:50.813651,748579,1609507504442162,5104411780,-0.659776,0.79056,0.21472,-2.17875,0.35875,-3.56125,-4.44,-16.616001,31.696001,inter_set_rest,8,3.0,43801.0,218636.0,95699.0,220213.0,103538.0
2026-04-14 18:06:50.819672,748580,1609507504451225,5104420467,-0.659776,0.79056,0.21472,-2.66,0.315,-3.43875,-4.44,-16.616001,31.696001,inter_set_rest,8,3.0,43801.0,218636.0,95699.0,220213.0,103538.0
2026-04-14 18:06:50.830493,748581,1609507504460165,5104429217,-0.65392,0.808128,0.382592,-3.5525,0.035,-3.38625,-5.024,-16.256,32.024002,inter_set_rest,8,3.0,43801.0,218636.0,95699.0,220213.0,103538.0
2026-04-14 18:06:50.835434,748582,1609507504474789,5104444190,-0.65392,0.808128,0.382592,-3.0975,0.0875,-2.93125,-5.024,-16.256,32.024002,inter_set_rest,8,3.0,43801.0,218636.0,95699.0,220213.0,103538.0
2026-04-14 18:06:50.846002,748583,1609507504483882,5104452898,-0.67344,0.802272,0.259616,-2.1,0.2975,-3.17625,-4.744,-16.864,30.048002,inter_set_rest,8,3.0,43801.0,218636.0,95699.0,220213.0,103538.0
2026-04-14 18:06:50.859169,748584,1609507504498387,5104467801,-0.67344,0.778848,0.277184,-1.60125,0.28,-3.14125,-4.744,-16.864,30.048002,inter_set_rest,8,3.0,43801.0,218636.0,95699.0,220213.0,103538.0
2026-04-14 18:06:50.869156,748585,1609507504507313,5104476501,-0.597312,0.778848,0.277184,-1.60125,-0.035,-3.64,-3.528,-16.824001,30.04,inter_set_rest,8,3.0,43801.0,218636.0,95699.0,220213.0,103538.0
2026-04-14 18:06:50.910274,748596,1609507504522502,5104491769,-0.642208,0.772992,0.23424,-2.44125,-0.00875,-3.2725,-3.6,-16.576,29.848001,inter_set_rest,8,3.0,43547.0,217356.0,95218.0,219047.0,103069.0
2026-04-14 18:06:50.913022,748597,1609507504531556,5104500505,-0.642208,0.772992,0.23424,-3.2375,0.105,-3.66625,-3.6,-16.576,29.848001,inter_set_rest,8,3.0,43547.0,217356.0,95218.0,219047.0,103069.0
2026-04-14 18:06:50.913123,748598,1609507504540578,5104509271,-0.628544,0.806176,0.421632,-3.80625,0.00875,-3.36875,-4.536,-16.376001,33.168003,inter_set_rest,8,3.0,43547.0,217356.0,95218.0,219047.0,103069.0
2026-04-14 18:06:50.915406,748599,1609507504555482,5104524274,-0.628544,0.806176,0.421632,-3.43,0.0175,-3.01875,-4.536,-16.376001,33.168003,inter_set_rest,8,3.0,43547.0,217356.0,95218.0,219047.0,103069.0
2026-04-14 18:06:50.928802,748600,1609507504564922,5104535039,-0.583648,0.784704,0.411872,-2.625,0.1925,-3.22875,-4.592,-16.496,31.04,inter_set_rest,8,3.0,43547.0,217356.0,95218.0,219047.0,103069.0
2026-04-14 18:06:50.935394,748601,1609507504574502,5104544116,-0.583648,0.784704,0.411872,-2.10875,0.14875,-3.54375,-4.592,-16.496,31.04,inter_set_rest,8,3.0,43547.0,217356.0,95218.0,219047.0,103069.0
2026-04-14 18:06:50.953106,748602,1609507504589531,5104559146,-0.587552,0.784704,0.40016,-2.5725,-0.245,-3.1325,-4.584,-16.44,30.240002,inter_set_rest,8,3.0,43547.0,217356.0,95218.0,219047.0,103069.0
2026-04-14 18:06:50.960611,748603,1609507504598470,5104567938,-0.587552,0.784704,0.40016,-3.00125,-0.09625,-2.87875,-4.584,-16.44,30.240002,inter_set_rest,8,3.0,43547.0,217356.0,95218.0,219047.0,103069.0
2026-04-14 18:06:50.989112,748604,1609507504607417,5104576588,-0.650016,0.778848,0.257664,-3.36875,-0.11375,-2.87875,-3.648,-16.688002,31.640001,inter_set_rest,8,3.0,43547.0,217356.0,95218.0,219047.0,103069.0
2026-04-14 18:06:51.065882,748615,1609507504622506,5104591500,-0.628544,0.77104,0.259616,-3.59625,0.1575,-2.93125,-3.792,-16.848001,30.192001,inter_set_rest,8,3.0,43346.0,216603.0,94861.0,218345.0,102770.0
2026-04-14 18:06:51.072719,748616,1609507504631436,5104600298,-0.628544,0.77104,0.259616,-3.01,0.0875,-3.36875,-3.792,-16.848001,30.192001,inter_set_rest,8,3.0,43346.0,216603.0,94861.0,218345.0,102770.0
2026-04-14 18:06:51.074444,748617,1609507504646061,5104615236,-0.648064,0.798368,0.308416,-2.37125,0.5075,-3.3425,-3.52,-16.68,30.192001,inter_set_rest,8,3.0,43346.0,216603.0,94861.0,218345.0,102770.0
2026-04-14 18:06:51.083091,748618,1609507504654979,5104623940,-0.648064,0.798368,0.308416,-2.63375,0.4025,-3.50875,-3.52,-16.68,30.192001,inter_set_rest,8,3.0,43346.0,216603.0,94861.0,218345.0,102770.0
2026-04-14 18:06:51.085646,748619,1609507504664043,5104632667,-0.616832,0.782752,0.337696,-2.42375,-0.035,-3.71,-3.76,-16.264,29.968002,inter_set_rest,8,3.0,43346.0,216603.0,94861.0,218345.0,102770.0
2026-04-14 18:06:51.085748,748620,1609507504678791,5104647554,-0.616832,0.782752,0.337696,-2.135,0.07,-3.64875,-3.76,-16.264,29.968002,inter_set_rest,8,3.0,43346.0,216603.0,94861.0,218345.0,102770.0
2026-04-14 18:06:51.085913,748621,1609507504688113,5104658323,-0.638304,0.772992,0.232288,-2.1,0.13125,-3.59625,-3.92,-16.736,30.12,inter_set_rest,8,3.0,43346.0,216603.0,94861.0,218345.0,102770.0
2026-04-14 18:06:51.086017,748622,1609507504702803,5104671185,-0.568032,0.765184,0.35136,-2.2575,0.02625,-3.50875,-3.448,-16.664001,29.824001,inter_set_rest,8,3.0,43346.0,216603.0,94861.0,218345.0,102770.0
2026-04-14 18:06:51.086095,748623,1609507504712133,5104682065,-0.568032,0.765184,0.35136,-2.73,0.04375,-3.5875,-3.448,-16.664001,29.824001,inter_set_rest,8,3.0,43346.0,216603.0,94861.0,218345.0,102770.0
2026-04-14 18:06:51.134753,748634,1609507504721438,5104690831,-0.569984,0.759328,0.339648,-2.87875,0.20125,-3.54375,-3.44,-16.616001,30.576002,inter_set_rest,8,3.0,43399.0,217568.0,94929.0,219079.0,102935.0
2026-04-14 18:06:51.134907,748635,1609507504736036,5104705826,-0.569984,0.759328,0.339648,-2.89625,0.25375,-4.19125,-3.44,-16.616001,30.576002,inter_set_rest,8,3.0,43399.0,217568.0,94929.0,219079.0,102935.0
2026-04-14 18:06:51.134972,748636,1609507504745016,5104714557,-0.630496,0.772992,0.23424,-1.74125,0.63,-4.27,-3.208,-16.208,30.896002,inter_set_rest,8,3.0,43399.0,217568.0,94929.0,219079.0,102935.0
2026-04-14 18:06:51.135034,748637,1609507504759562,5104729501,-0.630496,0.772992,0.23424,-1.4175,0.4375,-4.235,-3.208,-16.208,30.896002,inter_set_rest,8,3.0,43399.0,217568.0,94929.0,219079.0,102935.0
2026-04-14 18:06:51.135092,748638,1609507504768476,5104738171,-0.651968,0.813984,0.368928,-1.51375,0.455,-4.06875,-4.248,-15.984001,30.752,inter_set_rest,8,3.0,43399.0,217568.0,94929.0,219079.0,102935.0
2026-04-14 18:06:51.140397,748639,1609507504777435,5104746857,-0.651968,0.813984,0.368928,-2.4325,0.875,-4.34875,-4.248,-15.984001,30.752,inter_set_rest,8,3.0,43399.0,217568.0,94929.0,219079.0,102935.0
2026-04-14 18:06:51.153094,748640,1609507504791976,5104761872,-0.65392,0.772992,0.222528,-2.63375,0.84875,-4.0775,-4.408,-16.784,29.848001,inter_set_rest,8,3.0,43399.0,217568.0,94929.0,219079.0,102935.0
2026-04-14 18:06:51.163152,748641,1609507504800924,5104770560,-0.655872,0.774944,0.257664,-3.325,0.88375,-3.52625,-3.272,-16.44,28.496002,inter_set_rest,8,3.0,43399.0,217568.0,94929.0,219079.0,102935.0
