pc_time,serial_num,sensor_ts,host_ts,ax,ay,az,gx,gy,gz,mx,my,mz,phase,rpe,weight_kg,ppg_a,ppg_b,ppg_c,ppg_d,ppg_e
2026-04-08 21:23:13.867166,11468,1609502566003302,165969673,-0.958432,-0.21472,0.314272,-2.47625,2.8525,2.345,26.800001,-11.496,8.432,concentric,0,3.0,20826.0,147944.0,243542.0,296984.0,275736.0
2026-04-08 21:23:13.868698,11469,1609502566017851,165984571,-0.958432,-0.21472,0.314272,-0.28,1.6625,4.4625,26.800001,-11.496,8.432,concentric,0,3.0,20826.0,147944.0,243542.0,296984.0,275736.0
2026-04-08 21:23:13.872088,11470,1609502566026799,165993228,-0.970144,-0.222528,0.265472,0.51625,0.6125,5.5125,27.320002,-11.584001,7.696001,concentric,0,3.0,20826.0,147944.0,243542.0,296984.0,275736.0
2026-04-08 21:23:13.873632,11471,1609502566035727,166001879,-0.970144,-0.222528,0.265472,-0.98,-1.18125,6.6325,27.320002,-11.584001,7.696001,concentric,0,3.0,20826.0,147944.0,243542.0,296984.0,275736.0
2026-04-08 21:23:13.877919,11472,1609502566050231,166016796,-0.987712,-0.247904,0.251808,-2.09125,-2.58125,7.44625,26.848001,-11.728001,9.52,concentric,0,3.0,20826.0,147944.0,243542.0,296984.0,275736.0
2026-04-08 21:23:13.879603,11473,1609502566059369,166025511,-0.987712,-0.247904,0.251808,-0.63875,-1.51375,6.79,26.848001,-11.728001,9.52,concentric,0,3.0,20826.0,147944.0,243542.0,296984.0,275736.0
2026-04-08 21:23:13.881233,11474,1609502566073842,166040423,-0.96624,-0.23424,0.281088,1.89875,0.77,5.87125,27.448002,-11.712001,7.568,concentric,0,3.0,20826.0,147944.0,243542.0,296984.0,275736.0
2026-04-08 21:23:13.889016,11475,1609502566082758,166049088,-0.976,-0.232288,0.255712,2.3975,2.45875,6.545,27.216002,-12.008,7.784,concentric,0,3.0,20826.0,147944.0,243542.0,296984.0,275736.0
2026-04-08 21:23:13.917611,11476,1609502566091655,166057728,-0.976,-0.232288,0.255712,1.6625,2.26625,8.30375,27.216002,-12.008,7.784,concentric,0,3.0,20826.0,147944.0,243542.0,296984.0,275736.0
2026-04-08 21:23:13.946199,11487,1609502566106216,166072665,-0.983808,-0.240096,0.310368,0.48125,0.9275,8.54875,27.248001,-12.256001,7.912,concentric,0,3.0,20809.0,147962.0,243607.0,297028.0,275762.0
2026-04-08 21:23:13.950403,11488,1609502566115164,166081350,-0.983808,-0.240096,0.310368,0.35,-1.54,8.79375,27.248001,-12.256001,7.912,concentric,0,3.0,20809.0,147962.0,243607.0,297028.0,275762.0
2026-04-08 21:23:13.953797,11489,1609502566129661,166096279,-0.933056,-0.236192,0.306464,2.8,-3.115,8.9425,27.224,-12.136001,7.808001,concentric,0,3.0,20809.0,147962.0,243607.0,297028.0,275762.0
2026-04-08 21:23:13.957929,11490,1609502566138620,166105089,-0.933056,-0.236192,0.306464,6.23,-3.15,8.75,27.224,-12.136001,7.808001,concentric,0,3.0,20809.0,147962.0,243607.0,297028.0,275762.0
2026-04-08 21:23:13.960339,11491,1609502566153062,166119949,-0.94672,-0.208864,0.261568,8.23375,-2.6425,10.78875,27.184002,-12.320001,5.968,concentric,0,3.0,20809.0,147962.0,243607.0,297028.0,275762.0
2026-04-08 21:23:13.989059,11492,1609502566162075,166128710,-0.958432,-0.26352,0.249856,6.965,-2.42375,13.79875,26.888,-12.528001,7.744,concentric,0,3.0,20809.0,147962.0,243607.0,297028.0,275762.0
2026-04-08 21:23:13.993352,11493,1609502566170992,166137375,-0.958432,-0.26352,0.249856,4.54125,-1.84625,15.7675,26.888,-12.528001,7.744,concentric,0,3.0,20809.0,147962.0,243607.0,297028.0,275762.0
2026-04-08 21:23:13.994836,11494,1609502566185514,166152240,-0.929152,-0.249856,0.279136,4.29625,-1.11125,16.10875,27.080002,-12.744,7.664001,concentric,0,3.0,20809.0,147962.0,243607.0,297028.0,275762.0
2026-04-08 21:23:14.001528,11495,1609502566194454,166160890,-0.929152,-0.249856,0.279136,9.10875,-0.37625,15.61,27.080002,-12.744,7.664001,concentric,0,3.0,20809.0,147962.0,243607.0,297028.0,275762.0
2026-04-08 21:23:14.032928,11506,1609502566209023,166175854,-0.952576,-0.199104,0.281088,12.95875,-0.4025,17.10625,27.032001,-13.008,7.928001,concentric,0,3.0,20886.0,148289.0,243998.0,297303.0,275911.0
2026-04-08 21:23:14.034669,11507,1609502566217963,166184630,-0.952576,-0.199104,0.281088,13.335,-0.63875,19.22375,27.032001,-13.008,7.928001,concentric,0,3.0,20886.0,148289.0,243998.0,297303.0,275911.0
2026-04-08 21:23:14.036159,11508,1609502566232525,166197684,-0.942816,-0.189344,0.257664,12.7225,-1.33,21.385,26.344002,-13.264001,8.608001,concentric,0,3.0,20886.0,148289.0,243998.0,297303.0,275911.0
2026-04-08 21:23:14.067281,11509,1609502566241682,166208413,-0.921344,-0.210816,0.228384,12.31125,-2.12625,23.38,26.344002,-13.264001,8.120001,concentric,0,3.0,20886.0,148289.0,243998.0,297303.0,275911.0
2026-04-08 21:23:14.069533,11510,1609502566250597,166217054,-0.921344,-0.210816,0.228384,10.605001,-3.4125,25.935,26.712002,-13.992001,8.120001,concentric,0,3.0,20886.0,148289.0,243998.0,297303.0,275911.0
2026-04-08 21:23:14.073331,11511,1609502566265125,166231951,-0.919392,-0.171776,0.2928,10.6575,-3.9725,27.4925,26.504002,-14.136001,7.336,concentric,0,3.0,20886.0,148289.0,243998.0,297303.0,275911.0
2026-04-08 21:23:14.080271,11512,1609502566274057,166240639,-0.919392,-0.171776,0.2928,14.42,-4.03375,28.2975,26.504002,-14.136001,7.336,concentric,0,3.0,20886.0,148289.0,243998.0,297303.0,275911.0
2026-04-08 21:23:14.100327,11513,1609502566288574,166255557,-0.892064,-0.132736,0.31232,17.24625,-3.6575,29.295,25.936,-14.504001,8.592,concentric,0,3.0,20886.0,148289.0,243998.0,297303.0,275911.0
2026-04-08 21:23:14.137297,11514,1609502566297504,166264237,-0.892064,-0.132736,0.31232,18.6375,-3.3775,31.28125,25.936,-14.504001,8.592,concentric,0,3.0,20886.0,148289.0,243998.0,297303.0,275911.0
2026-04-08 21:23:14.169215,11525,1609502566312033,166277363,-0.866688,-0.10736,0.339648,19.62625,-3.78,34.0025,25.560001,-14.632001,8.072001,concentric,0,3.0,20952.0,148526.0,244325.0,297520.0,276036.0
2026-04-08 21:23:14.170915,11526,1609502566321345,166288082,-0.866688,-0.10736,0.339648,20.6675,-4.165,37.65125,25.560001,-14.632001,8.072001,concentric,0,3.0,20952.0,148526.0,244325.0,297520.0,276036.0
2026-04-08 21:23:14.172663,11527,1609502566330264,166297098,-0.903776,-0.11712,0.247904,21.6125,-4.1825,39.7075,25.760002,-15.320001,7.896,concentric,0,3.0,20952.0,148526.0,244325.0,297520.0,276036.0
2026-04-08 21:23:14.173663,11528,1609502566344737,166309987,-0.90768,-0.109312,0.308416,21.805,-3.6225,40.1975,25.624,-15.832001,7.688,concentric,0,3.0,20952.0,148526.0,244325.0,297520.0,276036.0
2026-04-08 21:23:14.178283,11529,1609502566354100,166320776,-0.90768,-0.109312,0.308416,18.62875,-3.64,40.94125,25.624,-15.832001,7.688,concentric,0,3.0,20952.0,148526.0,244325.0,297520.0,276036.0
2026-04-08 21:23:14.179977,11530,1609502566368605,166335654,-0.929152,-0.089792,0.16592,15.7675,-3.115,41.27375,24.920002,-16.248001,8.112,concentric,0,3.0,20952.0,148526.0,244325.0,297520.0,276036.0
2026-04-08 21:23:14.184101,11531,1609502566377549,166344353,-0.929152,-0.089792,0.16592,16.2925,-3.185,41.97375,24.920002,-16.248001,8.112,concentric,0,3.0,20952.0,148526.0,244325.0,297520.0,276036.0
2026-04-08 21:23:14.212635,11532,1609502566386567,166353049,-0.909632,-0.046848,0.337696,17.00125,-5.075,44.65125,24.688002,-16.816,8.024,concentric,0,3.0,20952.0,148526.0,244325.0,297520.0,276036.0
2026-04-08 21:23:14.241166,11543,1609502566401040,166367897,-0.909632,-0.046848,0.337696,19.985,-6.1775,45.5875,24.688002,-16.816,8.024,concentric,0,3.0,20948.0,148543.0,244391.0,297598.0,276065.0
2026-04-08 21:23:14.245409,11544,1609502566409998,166376660,-0.950624,-0.105408,0.238144,23.765,-5.46875,45.605,24.624,-17.256,9.384001,concentric,0,3.0,20948.0,148543.0,244391.0,297598.0,276065.0
2026-04-08 21:23:14.247129,11545,1609502566424464,166391537,-0.944768,-0.031232,0.310368,22.61,-4.9875,45.6925,24.664001,-17.888,6.736001,concentric,0,3.0,20948.0,148543.0,244391.0,297598.0,276065.0
2026-04-08 21:23:14.248684,11546,1609502566433454,166400287,-0.944768,-0.031232,0.310368,19.915,-3.9725,46.2175,24.664001,-17.888,6.736001,concentric,0,3.0,20948.0,148543.0,244391.0,297598.0,276065.0
2026-04-08 21:23:14.255279,11547,1609502566448012,166415151,-0.940864,0.03904,0.226432,18.7775,-3.66625,46.935,24.288002,-18.152,6.496,concentric,0,3.0,20948.0,148543.0,244391.0,297598.0,276065.0
2026-04-08 21:23:14.283896,11548,1609502566456947,166423812,-0.940864,0.03904,0.226432,16.3625,-4.1125,48.5625,24.288002,-18.152,6.496,concentric,0,3.0,20948.0,148543.0,244391.0,297598.0,276065.0
2026-04-08 21:23:14.288643,11549,1609502566465963,166432494,-0.962336,0.00976,0.228384,15.49625,-3.87625,49.9975,23.664001,-18.688002,7.368001,concentric,0,3.0,20948.0,148543.0,244391.0,297598.0,276065.0
2026-04-08 21:23:14.290664,11550,1609502566480430,166447362,-0.962336,0.00976,0.228384,14.980001,-4.40125,50.82,23.664001,-18.688002,7.368001,concentric,0,3.0,20948.0,148543.0,244391.0,297598.0,276065.0
2026-04-08 21:23:14.296524,11551,1609502566489301,166456021,-0.935008,0.023424,0.25376,11.29625,-6.79875,50.00625,23.472002,-19.224,6.744,concentric,0,3.0,20948.0,148543.0,244391.0,297598.0,276065.0
2026-04-08 21:23:14.340460,11562,1609502566503965,166471113,-0.931104,0.021472,0.134688,12.11,-7.28875,47.495,23.2,-19.776001,5.072,concentric,0,3.0,20979.0,148702.0,244560.0,297695.0,276120.0
2026-04-08 21:23:14.342147,11563,1609502566512941,166479832,-0.931104,0.021472,0.134688,10.7275,-7.1925,47.3375,23.2,-19.776001,5.072,concentric,0,3.0,20979.0,148702.0,244560.0,297695.0,276120.0
2026-04-08 21:23:14.343695,11564,1609502566521849,166488583,-0.931104,0.021472,0.134688,8.93375,-5.8275,48.6675,23.2,-19.776001,5.072,concentric,0,3.0,20979.0,148702.0,244560.0,297695.0,276120.0
2026-04-08 21:23:14.347743,11565,1609502566536343,166503493,-0.95648,0.03904,0.187392,7.4025,-4.24375,50.3825,22.896002,-19.872002,8.992001,concentric,0,3.0,20979.0,148702.0,244560.0,297695.0,276120.0
2026-04-08 21:23:14.351533,11566,1609502566545301,166512182,-0.974048,0.105408,0.218624,6.62375,-2.68625,49.385,22.224,-20.456001,6.480001,concentric,0,3.0,20979.0,148702.0,244560.0,297695.0,276120.0
2026-04-08 21:23:14.380123,11567,1609502566559794,166525039,-0.974048,0.105408,0.218624,5.3025,-1.91625,48.62375,22.224,-20.456001,6.480001,concentric,0,3.0,20979.0,148702.0,244560.0,297695.0,276120.0
2026-04-08 21:23:14.385315,11568,1609502566568977,166535751,-0.940864,0.095648,0.281088,7.2275,-2.9925,49.0,22.048,-21.056002,6.528,concentric,0,3.0,20979.0,148702.0,244560.0,297695.0,276120.0
2026-04-08 21:23:14.389098,11569,1609502566583451,166548597,-0.940864,0.08784,0.247904,11.22625,-4.1475,49.51625,22.048,-21.056002,4.48,concentric,0,3.0,20979.0,148702.0,244560.0,297695.0,276120.0
2026-04-08 21:23:14.436047,11570,1609502566592594,166559440,-0.91744,0.08784,0.247904,12.5125,-5.41625,50.5225,21.176,-21.376001,5.888001,concentric,0,3.0,20979.0,148702.0,244560.0,297695.0,276120.0
2026-04-08 21:23:14.465165,11581,1609502566601489,166568491,-0.91744,0.08784,0.247904,10.73625,-6.2475,52.1325,21.176,-21.376001,5.888001,concentric,0,3.0,21097.0,149154.0,245059.0,298008.0,276362.0
2026-04-08 21:23:14.465223,11582,1609502566615995,166581317,-0.944768,0.16592,0.232288,6.15125,-7.79625,53.27875,21.240002,-21.928001,6.432,concentric,0,3.0,21097.0,149154.0,245059.0,298008.0,276362.0
2026-04-08 21:23:14.469592,11583,1609502566625302,166592041,-0.925248,0.150304,0.2928,2.5025,-11.5675,51.6775,21.056002,-22.552002,6.408001,concentric,0,3.0,21097.0,149154.0,245059.0,298008.0,276362.0
2026-04-08 21:23:14.471144,11584,1609502566639780,166606900,-0.925248,0.150304,0.2928,4.55875,-12.60875,46.7775,21.056002,-22.552002,6.408001,concentric,0,3.0,21097.0,149154.0,245059.0,298008.0,276362.0
2026-04-08 21:23:14.475424,11585,1609502566648807,166615632,-0.977952,0.11712,0.304512,2.33625,-12.8975,44.1525,20.240002,-22.880001,7.616,concentric,0,3.0,21097.0,149154.0,245059.0,298008.0,276362.0
2026-04-08 21:23:14.477121,11586,1609502566657800,166624335,-0.977952,0.11712,0.304512,-4.31375,-12.6525,44.5725,20.240002,-22.880001,7.616,concentric,0,3.0,21097.0,149154.0,245059.0,298008.0,276362.0
2026-04-08 21:23:14.478710,11587,1609502566672289,166639216,-0.96624,0.177632,0.26352,-7.3325,-9.8,41.6325,19.728,-23.008001,8.104,concentric,0,3.0,21097.0,149154.0,245059.0,298008.0,276362.0
2026-04-08 21:23:14.509859,11588,1609502566681231,166647885,-0.96624,0.177632,0.26352,-9.30125,-6.8075,39.27875,19.728,-23.008001,8.104,concentric,0,3.0,21097.0,149154.0,245059.0,298008.0,276362.0
2026-04-08 21:23:14.514296,11589,1609502566695667,166662736,-0.894016,0.220576,0.368928,-11.90875,-5.66125,40.3025,19.992,-23.368002,7.152,concentric,0,3.0,21097.0,149154.0,245059.0,298008.0,276362.0
2026-04-08 21:23:14.542475,11600,1609502566704982,166671488,-0.938912,0.173728,0.284992,-15.4875,-6.335,41.37,19.992,-23.6,5.144,concentric,0,3.0,21482.0,150825.0,247081.0,299247.0,277015.0
2026-04-08 21:23:14.546683,11601,1609502566719554,166686429,-0.938912,0.173728,0.284992,-14.86625,-6.16,40.25875,19.6,-23.6,5.144,concentric,0,3.0,21482.0,150825.0,247081.0,299247.0,277015.0
2026-04-08 21:23:14.548468,11602,1609502566728597,166695117,-0.952576,0.11712,0.38064,-12.69625,-3.325,38.4475,19.472,-24.080002,7.128,concentric,0,3.0,21482.0,150825.0,247081.0,299247.0,277015.0
2026-04-08 21:23:14.550027,11603,1609502566737555,166703795,-0.952576,0.11712,0.38064,-11.83,-0.6125,36.5225,19.472,-24.080002,7.128,concentric,0,3.0,21482.0,150825.0,247081.0,299247.0,277015.0
2026-04-08 21:23:14.557835,11604,1609502566752048,166718748,-0.94672,0.15616,0.304512,-7.76125,3.94625,34.37875,19.288,-24.04,5.064,concentric,0,3.0,21482.0,150825.0,247081.0,299247.0,277015.0
2026-04-08 21:23:14.586383,11605,1609502566760998,166727420,-0.94672,0.15616,0.304512,-0.07875,8.19,32.935,19.288,-24.04,5.064,concentric,0,3.0,21482.0,150825.0,247081.0,299247.0,277015.0
2026-04-08 21:23:14.590823,11606,1609502566775448,166742271,-0.993568,0.230336,0.261568,8.56625,11.6025,31.053751,18.976002,-24.6,6.728,concentric,0,3.0,21482.0,150825.0,247081.0,299247.0,277015.0
2026-04-08 21:23:14.592407,11607,1609502566784334,166750908,-0.993568,0.230336,0.30256,14.3325,11.41875,30.17,18.976002,-24.6,6.728,concentric,0,3.0,21482.0,150825.0,247081.0,299247.0,277015.0
2026-04-08 21:23:14.623544,11608,1609502566798862,166765785,-1.003328,0.255712,0.30256,18.97,9.68625,26.985,18.992,-24.664001,3.04,concentric,0,3.0,21482.0,150825.0,247081.0,299247.0,277015.0
2026-04-08 21:23:14.654971,11619,1609502566807998,166774560,-1.048224,0.222528,0.394304,20.58,9.75625,22.09375,19.168001,-24.776001,6.168,concentric,0,3.0,21607.0,151281.0,247581.0,299531.0,277189.0
2026-04-08 21:23:14.659175,11620,1609502566817016,166783250,-1.048224,0.222528,0.394304,11.96125,7.805,22.91625,19.168001,-24.776001,6.168,concentric,0,3.0,21607.0,151281.0,247581.0,299531.0,277189.0
2026-04-08 21:23:14.660901,11621,1609502566831522,166798134,-1.013088,0.257664,0.394304,8.53125,8.33,19.22375,18.944,-25.240002,5.928001,concentric,0,3.0,21607.0,151281.0,247581.0,299531.0,277189.0
2026-04-08 21:23:14.663284,11622,1609502566840538,166806794,-1.013088,0.257664,0.394304,11.48875,8.75875,10.99875,18.944,-25.240002,5.928001,concentric,0,3.0,21607.0,151281.0,247581.0,299531.0,277189.0
2026-04-08 21:23:14.665728,11623,1609502566855072,166821733,-1.124352,0.365024,0.290848,13.78125,6.1425,7.56875,18.888,-25.240002,6.368001,concentric,0,3.0,21607.0,151281.0,247581.0,299531.0,277189.0
2026-04-08 21:23:14.669479,11624,1609502566863994,166830427,-1.124352,0.365024,0.290848,12.355001,-1.4,7.2275,18.888,-25.240002,6.368001,concentric,0,3.0,21607.0,151281.0,247581.0,299531.0,277189.0
2026-04-08 21:23:14.700165,11625,1609502566872904,166839120,-1.153632,0.316224,0.329888,9.40625,-8.9775,4.57625,19.0,-25.256,6.920001,concentric,0,3.0,21607.0,151281.0,247581.0,299531.0,277189.0
2026-04-08 21:23:14.736109,11626,1609502566887377,166854040,-1.108736,0.245952,0.288896,5.55625,-13.5975,-1.2425,19.416,-25.968,4.144,concentric,0,3.0,21607.0,151281.0,247581.0,299531.0,277189.0
2026-04-08 21:23:14.738291,11627,1609502566896310,166862743,-1.108736,0.245952,0.288896,3.36875,-13.2475,-7.91,19.416,-25.968,4.144,concentric,0,3.0,21607.0,151281.0,247581.0,299531.0,277189.0
2026-04-08 21:23:14.767196,11638,1609502566910894,166877661,-1.128256,0.365024,0.431392,4.0075,-9.905,-11.57625,18.888,-25.248001,6.048,concentric,0,3.0,21498.0,150938.0,247197.0,299320.0,277089.0
2026-04-08 21:23:14.768781,11639,1609502566919821,166886320,-1.128256,0.365024,0.431392,5.1975,-5.39,-12.80125,18.888,-25.248001,6.048,concentric,0,3.0,21498.0,150938.0,247197.0,299320.0,277089.0
2026-04-08 21:23:14.772956,11640,1609502566934304,166901160,-1.159488,0.337696,0.339648,-0.62125,-2.24875,-10.01,19.568,-25.832,5.792,concentric,0,3.0,21498.0,150938.0,247197.0,299320.0,277089.0
2026-04-08 21:23:14.774645,11641,1609502566943267,166909834,-1.159488,0.337696,0.339648,-10.9025,-3.73625,-6.475,19.568,-25.832,5.792,concentric,0,3.0,21498.0,150938.0,247197.0,299320.0,277089.0
2026-04-08 21:23:14.776243,11642,1609502566952346,166918562,-1.097024,0.277184,0.396256,-17.08875,-6.5275,-6.06375,19.720001,-25.512001,7.848001,concentric,0,3.0,21498.0,150938.0,247197.0,299320.0,277089.0
2026-04-08 21:23:14.780377,11643,1609502566966881,166933493,-1.042368,0.197152,0.398208,-15.72375,-8.54875,-10.535,20.160002,-25.552002,1.88,concentric,0,3.0,21498.0,150938.0,247197.0,299320.0,277089.0
2026-04-08 21:23:14.782834,11644,1609502566975875,166942168,-1.042368,0.197152,0.398208,-7.30625,-8.04125,-18.05125,20.160002,-25.552002,1.88,concentric,0,3.0,21498.0,150938.0,247197.0,299320.0,277089.0
2026-04-08 21:23:14.811402,11645,1609502566990352,166957039,-1.138016,0.310368,0.357216,-0.11375,-5.29375,-20.67625,20.504002,-25.632002,6.520001,concentric,0,3.0,21498.0,150938.0,247197.0,299320.0,277089.0
2026-04-08 21:23:14.814956,11646,1609502566999284,166965760,-1.138016,0.310368,0.357216,3.28125,-1.63625,-18.9,20.504002,-25.632002,6.520001,concentric,0,3.0,21498.0,150938.0,247197.0,299320.0,277089.0
2026-04-08 21:23:14.843419,11657,1609502567008809,166974848,-1.147776,0.363072,0.32208,3.08875,2.45,-18.585001,20.368,-25.52,5.624,concentric,0,3.0,21522.0,151037.0,247301.0,299370.0,277136.0
2026-04-08 21:23:14.845214,11658,1609502567023330,166989740,-1.147776,0.363072,0.32208,-2.30125,2.485,-19.8625,20.368,-25.52,5.624,concentric,0,3.0,21522.0,151037.0,247301.0,299370.0,277136.0
2026-04-08 21:23:14.849441,11659,1609502567032254,166998449,-1.05408,0.267424,0.318176,-10.6575,-0.5775,-21.56875,20.68,-25.336,5.904,concentric,0,3.0,21522.0,151037.0,247301.0,299370.0,277136.0
2026-04-08 21:23:14.851597,11660,1609502567046731,167013341,-1.0248,0.25376,0.306464,-12.60875,-2.2225,-23.59,20.84,-25.104002,4.84,concentric,0,3.0,21522.0,151037.0,247301.0,299370.0,277136.0
2026-04-08 21:23:14.880118,11661,1609502567055672,167022025,-1.0248,0.25376,0.306464,-10.31625,-1.53125,-26.48625,20.84,-25.104002,4.84,concentric,0,3.0,21522.0,151037.0,247301.0,299370.0,277136.0
2026-04-08 21:23:14.884597,11662,1609502567070104,167036891,-1.0736,0.333792,0.314272,-4.82125,0.49875,-27.055,21.264002,-25.072,5.808,concentric,0,3.0,21522.0,151037.0,247301.0,299370.0,277136.0
2026-04-08 21:23:14.886135,11663,1609502567079028,167045558,-1.0736,0.333792,0.314272,-1.505,0.70875,-25.57625,21.264002,-25.072,5.808,concentric,0,3.0,21522.0,151037.0,247301.0,299370.0,277136.0
2026-04-08 21:23:14.922311,11664,1609502567088051,167054244,-1.147776,0.281088,0.257664,-4.41875,-1.5225,-22.1725,21.408,-24.608002,6.608,concentric,0,3.0,21522.0,151037.0,247301.0,299370.0,277136.0
2026-04-08 21:23:14.924925,11665,1609502567102576,167069192,-1.147776,0.281088,0.257664,-11.73375,-4.22625,-18.5325,21.408,-24.608002,6.608,concentric,0,3.0,21522.0,151037.0,247301.0,299370.0,277136.0
2026-04-08 21:23:14.952461,11676,1609502567111637,167077899,-1.106784,0.265472,0.300608,-14.971251,-4.08625,-18.34,21.848001,-24.752,6.256001,concentric,0,3.0,21562.0,151076.0,247313.0,299313.0,277111.0
2026-04-08 21:23:14.956765,11677,1609502567126127,167092788,-1.106784,0.265472,0.300608,-11.54125,0.11375,-19.74,21.848001,-24.752,6.256001,concentric,0,3.0,21562.0,151076.0,247313.0,299313.0,277111.0
2026-04-08 21:23:14.958476,11678,1609502567135049,167101606,-1.1712,0.314272,0.396256,-5.3025,4.9175,-18.57625,22.136002,-24.336,3.656,concentric,0,3.0,21562.0,151076.0,247313.0,299313.0,277111.0
2026-04-08 21:23:14.959979,11679,1609502567149576,167116498,-1.206336,0.3416,0.298656,-1.365,7.34125,-12.81,22.152,-24.696001,5.992,concentric,0,3.0,21562.0,151076.0,247313.0,299313.0,277111.0
2026-04-08 21:23:14.967843,11680,1609502567158567,167125173,-1.206336,0.3416,0.298656,-2.345,7.14,-9.292501,22.152,-24.696001,5.992,concentric,0,3.0,21562.0,151076.0,247313.0,299313.0,277111.0
2026-04-08 21:23:14.974055,11681,1609502567167494,167133855,-1.192672,0.27328,0.33184,-8.05875,5.0575,-8.89,22.608002,-24.576,5.088,concentric,0,3.0,21562.0,151076.0,247313.0,299313.0,277111.0
2026-04-08 21:23:15.033568,11682,1609502567181975,167148700,-1.192672,0.27328,0.33184,-12.17125,2.91375,-8.0325,22.608002,-24.576,5.088,concentric,0,3.0,21562.0,151076.0,247313.0,299313.0,277111.0
2026-04-08 21:23:15.038007,11683,1609502567190887,167157386,-1.198528,0.2928,0.335744,-12.94125,2.23125,-5.145,22.480001,-24.480001,6.288,concentric,0,3.0,21562.0,151076.0,247313.0,299313.0,277111.0
2026-04-08 21:23:15.064610,11694,1609502567205351,167172186,-1.198528,0.2928,0.335744,-11.655,3.17625,-2.94875,22.480001,-24.480001,6.288,concentric,0,3.0,21540.0,151023.0,247263.0,299308.0,277098.0
2026-04-08 21:23:15.066229,11695,1609502567214306,167180896,-1.169248,0.314272,0.37088,-11.27,3.68375,-3.05375,22.504002,-24.392002,7.504,concentric,0,3.0,21540.0,151023.0,247263.0,299308.0,277098.0
2026-04-08 21:23:15.070553,11696,1609502567228812,167195752,-1.05408,0.212768,0.333792,-13.685,1.67125,-1.70625,22.056002,-24.2,5.808,concentric,0,3.0,21540.0,151023.0,247263.0,299308.0,277098.0
2026-04-08 21:23:15.072142,11697,1609502567237725,167204456,-1.05408,0.212768,0.333792,-16.66,-2.07375,-0.91,22.056002,-24.2,5.808,concentric,0,3.0,21540.0,151023.0,247263.0,299308.0,277098.0
2026-04-08 21:23:15.073806,11698,1609502567246840,167213148,-1.05408,0.212768,0.333792,-18.48875,-5.59125,-0.74375,22.056002,-24.2,5.808,concentric,0,3.0,21540.0,151023.0,247263.0,299308.0,277098.0
2026-04-08 21:23:15.077941,11699,1609502567261422,167228059,-1.048224,0.1952,0.35136,-16.625,-7.37625,0.7,22.136002,-23.976002,6.952,concentric,0,3.0,21540.0,151023.0,247263.0,299308.0,277098.0
2026-04-08 21:23:15.080187,11700,1609502567270384,167236759,-1.01504,0.203008,0.413824,-12.8625,-7.63875,1.085,22.288,-24.208002,6.696,concentric,0,3.0,21540.0,151023.0,247263.0,299308.0,277098.0
2026-04-08 21:23:15.111091,11701,1609502567284875,167251682,-1.01504,0.203008,0.413824,-10.5,-7.77,0.72625,22.288,-24.208002,6.696,concentric,0,3.0,21540.0,151023.0,247263.0,299308.0,277098.0
2026-04-08 21:23:15.113264,11702,1609502567293801,167260306,-0.944768,0.163968,0.376736,-12.18,-7.875,0.74375,21.880001,-24.04,7.256001,concentric,0,3.0,21540.0,151023.0,247263.0,299308.0,277098.0
2026-04-08 21:23:15.143793,11713,1609502567308325,167275234,-0.919392,0.144448,0.38064,-12.4775,-7.9625,1.54,21.936,-24.176,6.768,concentric,0,3.0,21652.0,151380.0,247625.0,299480.0,277170.0
2026-04-08 21:23:15.147962,11714,1609502567317416,167283950,-0.919392,0.144448,0.38064,-10.255,-7.13125,0.49,21.936,-24.176,6.768,concentric,0,3.0,21652.0,151380.0,247625.0,299480.0,277170.0
2026-04-08 21:23:15.149736,11715,1609502567326338,167292615,-0.919392,0.144448,0.38064,-4.1475,-5.25,-0.49,21.936,-24.176,6.768,concentric,0,3.0,21652.0,151380.0,247625.0,299480.0,277170.0
2026-04-08 21:23:15.151344,11716,1609502567340815,167307484,-0.940864,0.121024,0.325984,3.50875,-1.9425,-1.07625,21.968,-24.096,8.288,concentric,0,3.0,21652.0,151380.0,247625.0,299480.0,277170.0
2026-04-08 21:23:15.155302,11717,1609502567349762,167316224,-0.987712,0.13664,0.335744,5.8275,0.1925,0.5425,21.864,-24.104002,7.152,concentric,0,3.0,21652.0,151380.0,247625.0,299480.0,277170.0
2026-04-08 21:23:15.183855,11718,1609502567364244,167331108,-0.987712,0.13664,0.335744,3.59625,2.1175,1.6625,21.864,-24.104002,7.152,concentric,0,3.0,21652.0,151380.0,247625.0,299480.0,277170.0
2026-04-08 21:23:15.188296,11719,1609502567373145,167339760,-0.958432,0.160064,0.329888,-0.35875,3.115,2.31,21.792002,-24.392002,6.464,concentric,0,3.0,21652.0,151380.0,247625.0,299480.0,277170.0
2026-04-08 21:23:15.197844,11720,1609502567387604,167354644,-0.958432,0.160064,0.329888,0.02625,5.1275,1.9075,21.792002,-24.392002,6.464,eccentric,0,3.0,21652.0,151380.0,247625.0,299480.0,277170.0
2026-04-08 21:23:15.201211,11721,1609502567396526,167363333,-1.05408,0.191296,0.36112,4.1125,7.91,1.82875,21.36,-24.36,9.072001,eccentric,0,3.0,21652.0,151380.0,247625.0,299480.0,277170.0
2026-04-08 21:23:15.232625,11722,1609502567405425,167372000,-1.05408,0.191296,0.36112,8.4525,10.05375,3.85875,21.36,-24.36,9.072001,eccentric,0,3.0,21652.0,151380.0,247625.0,299480.0,277170.0
2026-04-08 21:23:15.273416,11733,1609502567419882,167386895,-1.104832,0.189344,0.384544,11.917501,11.13875,6.7375,21.488,-24.336,7.064,eccentric,0,3.0,21474.0,150748.0,246884.0,299003.0,276901.0
2026-04-08 21:23:15.277109,11734,1609502567428829,167395554,-1.128256,0.222528,0.347456,11.43625,12.20625,6.5975,21.488,-24.536001,3.84,eccentric,0,3.0,21474.0,150748.0,246884.0,299003.0,276901.0
2026-04-08 21:23:15.278714,11735,1609502567443309,167410398,-1.128256,0.222528,0.347456,6.65875,11.917501,5.08375,21.832,-24.536001,3.84,eccentric,0,3.0,21474.0,150748.0,246884.0,299003.0,276901.0
2026-04-08 21:23:15.282920,11736,1609502567452252,167419098,-1.138016,0.226432,0.382592,2.19625,10.29875,2.8875,21.224,-24.192001,6.768,eccentric,0,3.0,21474.0,150748.0,246884.0,299003.0,276901.0
2026-04-08 21:23:15.284828,11737,1609502567466780,167431983,-1.138016,0.226432,0.382592,-0.6825,8.89,2.91375,21.224,-24.192001,6.768,eccentric,0,3.0,21474.0,150748.0,246884.0,299003.0,276901.0
2026-04-08 21:23:15.286164,11738,1609502567475981,167442723,-1.114592,0.216672,0.37088,0.0875,7.6825,4.655,21.336,-24.432001,6.368001,eccentric,0,3.0,21474.0,150748.0,246884.0,299003.0,276901.0
2026-04-08 21:23:15.291542,11739,1609502567484913,167451395,-1.114592,0.216672,0.37088,4.13,7.525,4.03375,21.336,-24.432001,6.368001,eccentric,0,3.0,21474.0,150748.0,246884.0,299003.0,276901.0
2026-04-08 21:23:15.333568,11740,1609502567499409,167466586,-1.167296,0.208864,0.308416,8.02375,7.28,3.9725,21.36,-24.264002,7.000001,eccentric,0,3.0,21474.0,150748.0,246884.0,299003.0,276901.0
2026-04-08 21:23:15.362177,11751,1609502567509252,167476027,-1.167296,0.208864,0.308416,10.2375,7.84875,4.57625,21.36,-24.264002,7.000001,eccentric,0,3.0,21382.0,150450.0,246549.0,298775.0,276790.0
2026-04-08 21:23:15.363805,11752,1609502567518610,167484981,-1.175104,0.251808,0.286944,9.7825,7.91,4.50625,21.416,-24.344002,5.960001,eccentric,0,3.0,21382.0,150450.0,246549.0,298775.0,276790.0
2026-04-08 21:23:15.367948,11753,1609502567533090,167499898,-1.143872,0.281088,0.37088,9.00375,8.25125,3.6925,21.232,-24.792002,5.696,eccentric,0,3.0,21382.0,150450.0,246549.0,298775.0,276790.0
2026-04-08 21:23:15.369683,11754,1609502567542089,167508764,-1.143872,0.281088,0.37088,7.44625,8.015,3.6225,21.232,-24.792002,5.696,eccentric,0,3.0,21382.0,150450.0,246549.0,298775.0,276790.0
2026-04-08 21:23:15.371176,11755,1609502567556647,167523664,-1.120448,0.259616,0.3904,8.72375,9.1525,3.10625,20.984001,-24.320002,7.032001,eccentric,0,3.0,21382.0,150450.0,246549.0,298775.0,276790.0
2026-04-08 21:23:15.375311,11756,1609502567565579,167532412,-1.120448,0.259616,0.3904,8.1025,9.14375,3.52625,20.984001,-24.320002,7.032001,eccentric,0,3.0,21382.0,150450.0,246549.0,298775.0,276790.0
2026-04-08 21:23:15.404109,11757,1609502567580061,167545300,-1.16144,0.251808,0.244,4.12125,7.0,4.725,20.880001,-24.448002,6.6,eccentric,0,3.0,21382.0,150450.0,246549.0,298775.0,276790.0
2026-04-08 21:23:15.408485,11758,1609502567589309,167556380,-1.16144,0.28304,0.255712,2.61625,5.83625,3.14125,20.880001,-24.448002,6.6,eccentric,0,3.0,21382.0,150450.0,246549.0,298775.0,276790.0
2026-04-08 21:23:15.409943,11759,1609502567598668,167565165,-1.167296,0.28304,0.255712,-0.5075,4.235,2.54625,21.288,-24.6,7.248,eccentric,0,3.0,21382.0,150450.0,246549.0,298775.0,276790.0
2026-04-08 21:23:15.437479,11770,1609502567613770,167580295,-1.116544,0.290848,0.275232,-1.96,2.555,2.66,20.944,-24.536001,6.384,eccentric,0,3.0,21260.0,149900.0,245837.0,298330.0,276557.0
2026-04-08 21:23:15.441660,11771,1609502567622816,167589013,-1.116544,0.290848,0.275232,-0.27125,2.065,2.0125,20.944,-24.536001,6.384,eccentric,0,3.0,21260.0,149900.0,245837.0,298330.0,276557.0
2026-04-08 21:23:15.444118,11772,1609502567631787,167597732,-1.118496,0.23424,0.220576,0.8925,1.63625,1.30375,20.688002,-24.552002,7.64,eccentric,0,3.0,21260.0,149900.0,245837.0,298330.0,276557.0
2026-04-08 21:23:15.459964,11773,1609502567646332,167612605,-1.118496,0.23424,0.220576,2.1,1.4875,1.33,20.688002,-24.552002,7.64,eccentric,0,3.0,21260.0,149900.0,245837.0,298330.0,276557.0
2026-04-08 21:23:15.467394,11774,1609502567655229,167621261,-1.100928,0.210816,0.28304,3.92,1.82875,0.4375,21.064001,-24.28,5.56,eccentric,0,3.0,21260.0,149900.0,245837.0,298330.0,276557.0
2026-04-08 21:23:15.498539,11775,1609502567669697,167636149,-1.100928,0.210816,0.218624,3.19375,2.26625,-0.5425,21.064001,-24.28,5.56,eccentric,0,3.0,21260.0,149900.0,245837.0,298330.0,276557.0
2026-04-08 21:23:15.500815,11776,1609502567678622,167644814,-1.1224,0.261568,0.218624,2.03,2.72125,-1.7325,20.272001,-24.080002,5.192,eccentric,0,3.0,21260.0,149900.0,245837.0,298330.0,276557.0
2026-04-08 21:23:15.505555,11777,1609502567693093,167659697,-1.077504,0.279136,0.277184,2.5725,4.78625,-2.2575,20.624,-24.384,5.664,eccentric,0,3.0,21260.0,149900.0,245837.0,298330.0,276557.0
2026-04-08 21:23:15.507019,11778,1609502567702017,167668400,-1.077504,0.279136,0.277184,2.61625,5.50375,-2.05625,20.624,-24.384,5.664,eccentric,0,3.0,21260.0,149900.0,245837.0,298330.0,276557.0
2026-04-08 21:23:15.541719,11789,1609502567711492,167677204,-1.05408,0.203008,0.374784,2.5725,4.26125,-2.17875,20.328001,-24.472002,5.912,eccentric,0,3.0,21180.0,149539.0,245364.0,297984.0,276354.0
2026-04-08 21:23:15.543343,11790,1609502567726075,167692092,-1.05408,0.203008,0.374784,4.2525,4.73375,-3.5875,20.328001,-24.472002,5.912,eccentric,0,3.0,21180.0,149539.0,245364.0,297984.0,276354.0
2026-04-08 21:23:15.544922,11791,1609502567734975,167700794,-1.057984,0.169824,0.257664,4.87375,3.92,-5.2325,19.816002,-24.312,7.032001,eccentric,0,3.0,21180.0,149539.0,245364.0,297984.0,276354.0
2026-04-08 21:23:15.576107,11792,1609502567749458,167715690,-1.057984,0.169824,0.257664,6.22125,6.34375,-9.0125,19.816002,-24.312,7.032001,eccentric,0,3.0,21180.0,149539.0,245364.0,297984.0,276354.0
2026-04-08 21:23:15.580455,11793,1609502567758398,167724348,-1.098976,0.269376,0.1952,8.47875,9.09125,-14.035,20.336,-24.136002,6.672,eccentric,0,3.0,21180.0,149539.0,245364.0,297984.0,276354.0
2026-04-08 21:23:15.582899,11794,1609502567767315,167733002,-1.098976,0.269376,0.1952,11.24375,10.36,-16.87875,20.336,-24.136002,6.672,eccentric,0,3.0,21180.0,149539.0,245364.0,297984.0,276354.0
2026-04-08 21:23:15.586995,11795,1609502567781794,167747857,-1.116544,0.259616,0.226432,11.20875,8.56625,-17.45625,20.648,-24.168001,5.44,eccentric,0,3.0,21180.0,149539.0,245364.0,297984.0,276354.0
2026-04-08 21:23:15.635583,11796,1609502567790752,167756519,-1.116544,0.15616,0.36112,2.87,1.855,-16.59,20.648,-24.168001,5.44,eccentric,0,3.0,21180.0,149539.0,245364.0,297984.0,276354.0
2026-04-08 21:23:15.637240,11797,1609502567805229,167771418,-0.981856,0.15616,0.36112,-5.46,-2.93125,-20.685,21.032001,-23.744001,5.944,eccentric,0,3.0,21180.0,149539.0,245364.0,297984.0,276354.0
2026-04-08 21:23:15.668057,11808,1609502567814260,167780160,-0.972096,0.142496,0.244,-10.31625,-4.305,-27.81625,21.104,-23.408,5.696,eccentric,0,3.0,20978.0,148640.0,244268.0,297314.0,275973.0
2026-04-08 21:23:15.669671,11809,1609502567828795,167795067,-0.972096,0.142496,0.244,-11.40125,-4.41,-31.42125,21.104,-23.408,5.696,eccentric,0,3.0,20978.0,148640.0,244268.0,297314.0,275973.0
2026-04-08 21:23:15.671278,11810,1609502567837688,167803782,-1.001376,0.206912,0.242048,-9.49375,-2.7825,-33.04875,20.824001,-23.080002,5.88,eccentric,0,3.0,20978.0,148640.0,244268.0,297314.0,275973.0
2026-04-08 21:23:15.675445,11811,1609502567846568,167812491,-1.001376,0.206912,0.242048,-3.59625,-1.6975,-32.13,20.824001,-23.080002,5.88,eccentric,0,3.0,20978.0,148640.0,244268.0,297314.0,275973.0
2026-04-08 21:23:15.677175,11812,1609502567861050,167827359,-1.065792,0.121024,0.31232,-4.76,-4.025,-27.9825,20.888,-22.672,6.776001,eccentric,0,3.0,20978.0,148640.0,244268.0,297314.0,275973.0
2026-04-08 21:23:15.679101,11813,1609502567869970,167836046,-1.065792,0.121024,0.31232,-11.92625,-5.8625,-26.9325,20.888,-22.672,6.776001,eccentric,0,3.0,20978.0,148640.0,244268.0,297314.0,275973.0
2026-04-08 21:23:15.709882,11814,1609502567884509,167850955,-0.91744,0.066368,0.27328,-17.80625,-3.45625,-31.63125,20.888,-22.36,6.08,eccentric,0,3.0,20978.0,148640.0,244268.0,297314.0,275973.0
2026-04-08 21:23:15.711287,11815,1609502567893541,167859654,-0.925248,0.162016,0.210816,-17.87625,2.65125,-38.325,21.456001,-21.992,5.904,eccentric,0,3.0,20978.0,148640.0,244268.0,297314.0,275973.0
2026-04-08 21:23:15.716596,11816,1609502567907986,167874545,-0.925248,0.162016,0.210816,-10.99875,9.96625,-42.09625,21.456001,-21.992,5.904,eccentric,0,3.0,20978.0,148640.0,244268.0,297314.0,275973.0
2026-04-08 21:23:15.747290,11827,1609502567916957,167883277,-0.960384,0.134688,0.296704,-2.30125,13.37875,-39.4625,21.84,-21.896002,6.032,eccentric,0,3.0,20836.0,147996.0,243483.0,296859.0,275653.0
2026-04-08 21:23:15.749695,11828,1609502567925958,167892015,-0.960384,0.134688,0.296704,0.06125,10.87625,-34.39625,21.84,-21.896002,6.032,eccentric,0,3.0,20836.0,147996.0,243483.0,296859.0,275653.0
2026-04-08 21:23:15.751225,11829,1609502567940389,167906971,-0.940864,0.001952,0.320128,-5.5475,6.85125,-31.14125,22.032001,-21.560001,5.952,eccentric,0,3.0,20836.0,147996.0,243483.0,296859.0,275653.0
2026-04-08 21:23:15.755396,11830,1609502567949324,167915748,-0.940864,0.001952,0.320128,-14.16625,5.83625,-32.6725,22.032001,-21.560001,5.952,eccentric,0,3.0,20836.0,147996.0,243483.0,296859.0,275653.0
2026-04-08 21:23:15.787325,11831,1609502567963872,167930661,-0.88816,0.091744,0.236192,-16.59,8.42625,-37.345,22.000002,-20.816002,6.552001,eccentric,0,3.0,20836.0,147996.0,243483.0,296859.0,275653.0
2026-04-08 21:23:15.789560,11832,1609502567972813,167939319,-0.954528,0.122976,0.242048,-11.1825,12.32875,-42.30625,22.232,-20.384,6.32,eccentric,0,3.0,20836.0,147996.0,243483.0,296859.0,275653.0
2026-04-08 21:23:15.794175,11833,1609502567987294,167954171,-0.954528,0.122976,0.242048,-7.97125,11.261251,-40.46875,22.232,-20.384,6.32,eccentric,0,3.0,20836.0,147996.0,243483.0,296859.0,275653.0
2026-04-08 21:23:15.822657,11834,1609502567996266,167962864,-0.911584,0.099552,0.271328,-10.4125,8.61875,-36.00625,22.664001,-20.096,6.512,eccentric,0,3.0,20836.0,147996.0,243483.0,296859.0,275653.0
2026-04-08 21:23:15.827219,11835,1609502568005199,167971524,-0.911584,0.099552,0.271328,-10.64,5.32,-36.6625,22.664001,-20.096,6.512,eccentric,0,3.0,20836.0,147996.0,243483.0,296859.0,275653.0
2026-04-08 21:23:15.856273,11846,1609502568019765,167986484,-0.901824,0.093696,0.197152,-5.8275,7.48125,-42.201252,22.76,-20.104,6.168,eccentric,0,3.0,20791.0,147900.0,243426.0,296836.0,275621.0
2026-04-08 21:23:15.860457,11847,1609502568028674,167995140,-0.901824,0.093696,0.197152,-6.15125,9.84375,-45.6925,22.76,-20.104,6.168,eccentric,0,3.0,20791.0,147900.0,243426.0,296836.0,275621.0
2026-04-08 21:23:15.862176,11848,1609502568043207,168010038,-0.911584,0.160064,0.1464,-7.805,12.1975,-47.6175,22.864,-19.512001,6.864,eccentric,0,3.0,20791.0,147900.0,243426.0,296836.0,275621.0
2026-04-08 21:23:15.863688,11849,1609502568052174,168018814,-0.911584,0.115168,0.249856,-16.21375,10.89375,-44.19625,22.864,-19.512001,6.864,eccentric,0,3.0,20791.0,147900.0,243426.0,296836.0,275621.0
2026-04-08 21:23:15.894806,11850,1609502568066663,168033687,-0.952576,0.115168,0.249856,-23.6775,6.79,-39.94375,23.392,-19.336,4.152,eccentric,0,3.0,20791.0,147900.0,243426.0,296836.0,275621.0
2026-04-08 21:23:15.897074,11851,1609502568075590,168042436,-0.944768,0.050752,0.300608,-20.2125,5.15375,-40.8625,23.880001,-18.912,6.336,eccentric,0,3.0,20791.0,147900.0,243426.0,296836.0,275621.0
2026-04-08 21:23:15.902026,11852,1609502568084538,168051090,-0.944768,0.050752,0.300608,-11.042501,6.79,-46.34,23.880001,-18.912,6.336,eccentric,0,3.0,20791.0,147900.0,243426.0,296836.0,275621.0
2026-04-08 21:23:15.934790,11853,1609502568099002,168065928,-0.958432,0.085888,0.072224,-0.42875,11.99625,-52.49125,24.312,-18.36,5.968,eccentric,0,3.0,20791.0,147900.0,243426.0,296836.0,275621.0
2026-04-08 21:23:15.937071,11854,1609502568107901,168074670,-0.958432,0.085888,0.072224,1.19875,16.2925,-55.57125,24.312,-18.36,5.968,eccentric,0,3.0,20791.0,147900.0,243426.0,296836.0,275621.0
2026-04-08 21:23:15.966964,11865,1609502568122495,168089587,-0.962336,0.062464,0.111264,-16.9925,15.54,-48.0375,24.552002,-18.024,6.176,eccentric,0,3.0,20701.0,147590.0,243109.0,296645.0,275489.0
2026-04-08 21:23:15.968588,11866,1609502568131415,168098231,-0.962336,0.062464,0.111264,-37.87875,10.70125,-40.78375,24.552002,-18.024,6.176,eccentric,0,3.0,20701.0,147590.0,243109.0,296645.0,275489.0
2026-04-08 21:23:15.969966,11867,1609502568145949,168113093,-0.952576,-0.062464,0.257664,-44.63375,7.42875,-40.74,24.544,-17.352001,5.24,eccentric,0,3.0,20701.0,147590.0,243109.0,296645.0,275489.0
2026-04-08 21:23:15.974235,11868,1609502568154981,168121835,-0.954528,-0.08784,0.26352,-34.55375,6.79,-43.68875,24.472002,-16.912,7.504,eccentric,0,3.0,20701.0,147590.0,243109.0,296645.0,275489.0
2026-04-08 21:23:15.976854,11869,1609502568163968,168130504,-0.954528,-0.08784,0.26352,-16.80875,6.72875,-44.86125,24.472002,-16.912,7.504,eccentric,0,3.0,20701.0,147590.0,243109.0,296645.0,275489.0
2026-04-08 21:23:16.005129,11870,1609502568178531,168145372,-0.933056,0.103456,0.197152,0.3325,8.09375,-43.35625,24.848001,-16.616001,6.968,eccentric,0,3.0,20701.0,147590.0,243109.0,296645.0,275489.0
2026-04-08 21:23:16.009627,11871,1609502568187500,168154020,-0.933056,0.103456,0.197152,9.1875,8.26875,-38.40375,24.848001,-16.616001,6.968,eccentric,0,3.0,20701.0,147590.0,243109.0,296645.0,275489.0
2026-04-08 21:23:16.011163,11872,1609502568201956,168168899,-0.93696,0.02928,0.13664,6.76375,9.03875,-32.82125,25.304,-16.36,6.176,eccentric,0,3.0,20701.0,147590.0,243109.0,296645.0,275489.0
2026-04-08 21:23:16.045028,11883,1609502568210855,168177560,-0.93696,0.02928,0.13664,-7.09625,9.0825,-29.75875,25.304,-16.36,6.176,eccentric,0,3.0,20774.0,147819.0,243426.0,296812.0,275592.0
2026-04-08 21:23:16.049382,11884,1609502568219819,168186322,-1.026752,-0.226432,0.228384,-27.72875,6.7375,-29.75,25.336,-15.584001,6.832,eccentric,0,3.0,20774.0,147819.0,243426.0,296812.0,275592.0
2026-04-08 21:23:16.050962,11885,1609502568234319,168201225,-0.98576,-0.0976,0.308416,-35.44625,7.39375,-33.24125,25.808,-15.376,6.504,eccentric,0,3.0,20774.0,147819.0,243426.0,296812.0,275592.0
2026-04-08 21:23:16.053308,11886,1609502568243313,168209913,-0.98576,-0.0976,0.308416,-19.3725,11.97875,-38.68375,25.808,-15.376,6.504,eccentric,0,3.0,20774.0,147819.0,243426.0,296812.0,275592.0
2026-04-08 21:23:16.083542,11887,1609502568257844,168224900,-0.958432,0.050752,0.310368,2.17875,16.38875,-39.71625,25.968,-15.096001,5.92,eccentric,0,3.0,20774.0,147819.0,243426.0,296812.0,275592.0
2026-04-08 21:23:16.088010,11888,1609502568266754,168233562,-0.958432,0.050752,0.310368,12.74,17.47375,-37.1875,25.968,-15.096001,5.92,eccentric,0,3.0,20774.0,147819.0,243426.0,296812.0,275592.0
2026-04-08 21:23:16.089530,11889,1609502568281182,168246357,-0.972096,-0.111264,0.259616,8.19,14.175,-34.326252,26.552002,-14.800001,5.936,eccentric,0,3.0,20774.0,147819.0,243426.0,296812.0,275592.0
2026-04-08 21:23:16.118921,11890,1609502568290354,168257092,-0.972096,-0.111264,0.259616,-0.2975,12.08375,-37.35375,26.552002,-14.800001,5.936,eccentric,0,3.0,20774.0,147819.0,243426.0,296812.0,275592.0
2026-04-08 21:23:16.122562,11891,1609502568299255,168265783,-0.950624,-0.152256,0.247904,-9.89625,11.76875,-41.01125,26.808,-14.824,6.152,eccentric,0,3.0,20774.0,147819.0,243426.0,296812.0,275592.0
2026-04-08 21:23:16.151728,11902,1609502568314238,168280742,-0.950624,-0.08784,0.177632,-9.3625,13.09,-41.2475,26.808,-14.304001,5.496,eccentric,0,3.0,20816.0,147895.0,243460.0,296875.0,275631.0
2026-04-08 21:23:16.153456,11903,1609502568323256,168289438,-1.01504,-0.08784,0.177632,-4.17375,12.38125,-37.6775,26.904001,-14.304001,5.496,eccentric,0,3.0,20816.0,147895.0,243460.0,296875.0,275631.0
2026-04-08 21:23:16.155895,11904,1609502568337776,168304337,-0.938912,-0.080032,0.288896,-1.645,9.77375,-31.98125,27.216002,-13.792001,5.568,eccentric,0,3.0,20816.0,147895.0,243460.0,296875.0,275631.0
2026-04-08 21:23:16.157459,11905,1609502568346695,168313031,-0.938912,-0.080032,0.288896,4.59375,8.2775,-30.5725,27.216002,-13.792001,5.568,eccentric,0,3.0,20816.0,147895.0,243460.0,296875.0,275631.0
2026-04-08 21:23:16.161605,11906,1609502568355648,168321712,-0.8784,-0.11712,0.181536,9.30125,8.72375,-31.9375,27.296001,-14.016001,4.664,eccentric,0,3.0,20816.0,147895.0,243460.0,296875.0,275631.0
2026-04-08 21:23:16.231196,11907,1609502568370104,168336578,-0.8784,-0.11712,0.181536,5.6875,11.05125,-31.45625,27.296001,-14.016001,4.664,eccentric,0,3.0,20816.0,147895.0,243460.0,296875.0,275631.0
2026-04-08 21:23:16.233383,11908,1609502568379038,168345229,-0.919392,-0.081984,0.162016,-3.80625,12.705,-27.685,27.288002,-13.52,5.712,eccentric,0,3.0,20816.0,147895.0,243460.0,296875.0,275631.0
2026-04-08 21:23:16.238317,11909,1609502568393510,168360122,-0.919392,-0.081984,0.162016,-11.64625,12.90625,-20.895,27.288002,-13.52,5.712,eccentric,0,3.0,20816.0,147895.0,243460.0,296875.0,275631.0
2026-04-08 21:23:16.246548,11910,1609502568402419,168368804,-0.942816,-0.095648,0.249856,-17.42125,10.2725,-13.67625,27.144001,-13.552001,6.136,eccentric,0,3.0,20816.0,147895.0,243460.0,296875.0,275631.0
2026-04-08 21:23:16.281704,11921,1609502568417062,168383721,-0.94672,-0.162016,0.316224,-14.8925,8.015,-9.835,27.352001,-13.528001,5.64,eccentric,0,3.0,20890.0,148252.0,243910.0,297165.0,275828.0
2026-04-08 21:23:16.283407,11922,1609502568426019,168392404,-0.94672,-0.162016,0.316224,-3.68375,7.49,-9.485,27.352001,-13.528001,5.64,eccentric,0,3.0,20890.0,148252.0,243910.0,297165.0,275828.0
2026-04-08 21:23:16.285686,11923,1609502568434944,168401085,-0.958432,-0.158112,0.144448,5.705,6.195,-10.5175,26.992,-13.632001,5.064,eccentric,0,3.0,20890.0,148252.0,243910.0,297165.0,275828.0
2026-04-08 21:23:16.289264,11924,1609502568449489,168415983,-0.958432,-0.158112,0.144448,10.8675,6.29125,-10.71875,26.992,-13.632001,5.064,eccentric,0,3.0,20890.0,148252.0,243910.0,297165.0,275828.0
2026-04-08 21:23:16.291175,11925,1609502568458556,168424688,-0.960384,-0.091744,0.138592,8.74125,5.7575,-9.12625,27.352001,-13.424001,5.944,eccentric,0,3.0,20890.0,148252.0,243910.0,297165.0,275828.0
2026-04-08 21:23:16.292612,11926,1609502568473046,168439662,-0.960384,-0.091744,0.138592,4.0075,5.5825,-6.16,27.352001,-13.424001,5.944,eccentric,0,3.0,20890.0,148252.0,243910.0,297165.0,275828.0
2026-04-08 21:23:16.296956,11927,1609502568481969,168448333,-0.999424,-0.138592,0.28304,-0.69125,4.33125,-2.86125,27.208002,-13.584001,5.488,eccentric,0,3.0,20890.0,148252.0,243910.0,297165.0,275828.0
2026-04-08 21:23:16.304034,11928,1609502568496491,168463188,-1.007232,-0.197152,0.244,-4.8825,0.86625,-1.65375,27.064001,-13.424001,4.616,eccentric,0,3.0,20890.0,148252.0,243910.0,297165.0,275828.0
2026-04-08 21:23:16.334842,11929,1609502568505414,168471927,-1.007232,-0.197152,0.244,1.53125,-0.0875,-4.4975,27.064001,-13.424001,4.616,eccentric,0,3.0,20890.0,148252.0,243910.0,297165.0,275828.0
2026-04-08 21:23:16.373440,11940,1609502568514620,168480782,-1.007232,-0.197152,0.244,11.94375,1.72375,-7.7,27.064001,-13.424001,4.616,eccentric,0,3.0,20927.0,148356.0,244040.0,297300.0,275932.0
2026-04-08 21:23:16.375066,11941,1609502568529167,168495711,-0.974048,-0.169824,0.22448,13.3875,3.84125,-7.98875,27.312002,-13.696001,5.2,eccentric,0,3.0,20927.0,148356.0,244040.0,297300.0,275932.0
2026-04-08 21:23:16.379226,11942,1609502568538095,168504408,-1.038464,-0.134688,0.173728,5.775,3.7625,-5.2325,27.584002,-13.368001,5.0,eccentric,0,3.0,20927.0,148356.0,244040.0,297300.0,275932.0
2026-04-08 21:23:16.380939,11943,1609502568552621,168519326,-1.038464,-0.134688,0.173728,-2.1175,2.94875,-1.9775,27.584002,-13.368001,5.0,eccentric,0,3.0,20927.0,148356.0,244040.0,297300.0,275932.0
2026-04-08 21:23:16.382616,11944,1609502568561647,168528007,-1.00528,-0.212768,0.230336,-6.0375,2.30125,-1.02375,27.624,-13.328001,6.28,eccentric,0,3.0,20927.0,148356.0,244040.0,297300.0,275932.0
2026-04-08 21:23:16.386582,11945,1609502568576151,168542859,-1.001376,-0.187392,0.232288,-4.08625,2.82625,-1.96,27.248001,-13.6,5.648,eccentric,0,3.0,20927.0,148356.0,244040.0,297300.0,275932.0
2026-04-08 21:23:16.390338,11946,1609502568585203,168551591,-1.001376,-0.187392,0.232288,3.40375,3.91125,-2.45,27.248001,-13.6,5.648,eccentric,0,3.0,20927.0,148356.0,244040.0,297300.0,275932.0
2026-04-08 21:23:16.419129,11947,1609502568594139,168560298,-1.001376,-0.187392,0.232288,8.56625,4.40125,-1.015,27.248001,-13.6,5.648,eccentric,0,3.0,20927.0,148356.0,244040.0,297300.0,275932.0
2026-04-08 21:23:16.423504,11948,1609502568608619,168575166,-1.01504,-0.13664,0.181536,6.9125,3.7975,0.55125,27.52,-13.568001,5.456,eccentric,0,3.0,20927.0,148356.0,244040.0,297300.0,275932.0
2026-04-08 21:23:16.450041,11959,1609502568617720,168583963,-1.059936,-0.240096,0.128832,2.7475,2.9925,1.25125,27.960001,-13.336,5.792,eccentric,0,3.0,20957.0,148516.0,244238.0,297471.0,276022.0
2026-04-08 21:23:16.454249,11960,1609502568632215,168598917,-1.059936,-0.240096,0.128832,-4.305,1.9425,0.97125,27.960001,-13.336,5.792,eccentric,0,3.0,20957.0,148516.0,244238.0,297471.0,276022.0
2026-04-08 21:23:16.455955,11961,1609502568641144,168607584,-1.067744,-0.236192,0.199104,-7.72625,2.23125,-2.26625,27.752,-13.448001,5.544,eccentric,0,3.0,20957.0,148516.0,244238.0,297471.0,276022.0
2026-04-08 21:23:16.457825,11962,1609502568650067,168616250,-1.067744,-0.236192,0.199104,-2.9225,5.355,-4.19125,27.752,-13.448001,5.544,eccentric,0,3.0,20957.0,148516.0,244238.0,297471.0,276022.0
2026-04-08 21:23:16.488535,11963,1609502568664545,168631161,-1.075552,-0.144448,0.189344,2.835,8.6275,-5.0925,27.688002,-13.392,5.424,eccentric,0,3.0,20957.0,148516.0,244238.0,297471.0,276022.0
2026-04-08 21:23:16.493001,11964,1609502568673454,168639818,-1.075552,-0.144448,0.189344,4.82125,9.63375,-5.005,27.688002,-13.392,5.424,eccentric,0,3.0,20957.0,148516.0,244238.0,297471.0,276022.0
2026-04-08 21:23:16.494539,11965,1609502568687935,168654694,-1.059936,-0.132736,0.216672,1.81125,8.19,-3.47375,27.864002,-13.496,5.064,eccentric,0,3.0,20957.0,148516.0,244238.0,297471.0,276022.0
2026-04-08 21:23:16.531372,11966,1609502568696952,168663376,-1.050176,-0.158112,0.162016,-1.11125,5.64375,-2.2925,27.880001,-13.368001,5.672,eccentric,0,3.0,20957.0,148516.0,244238.0,297471.0,276022.0
2026-04-08 21:23:16.536576,11967,1609502568711431,168678242,-1.050176,-0.158112,0.162016,-0.90125,2.98375,-1.9775,27.880001,-13.368001,5.672,eccentric,0,3.0,20957.0,148516.0,244238.0,297471.0,276022.0
2026-04-08 21:23:16.564218,11978,1609502568720361,168686980,-1.007232,-0.179584,0.128832,-0.525,2.6075,-2.49375,28.096,-13.64,4.776,eccentric,0,3.0,20963.0,148551.0,244335.0,297519.0,276057.0
2026-04-08 21:23:16.565905,11979,1609502568729277,168695619,-1.007232,-0.179584,0.128832,-1.67125,3.0275,-3.0975,28.096,-13.64,4.776,eccentric,0,3.0,20963.0,148551.0,244335.0,297519.0,276057.0
2026-04-08 21:23:16.567521,11980,1609502568743764,168710536,-1.016992,-0.148352,0.18544,-4.83,4.27,-3.47375,28.112001,-13.616,4.56,eccentric,0,3.0,20963.0,148551.0,244335.0,297519.0,276057.0
2026-04-08 21:23:16.571710,11981,1609502568752698,168719301,-1.016992,-0.148352,0.18544,-8.9075,5.355,-3.5875,28.112001,-13.616,4.56,eccentric,0,3.0,20963.0,148551.0,244335.0,297519.0,276057.0
2026-04-08 21:23:16.574687,11982,1609502568767188,168734163,-1.016992,-0.1464,0.142496,-9.730001,5.06625,-2.54625,27.856,-13.864,5.04,eccentric,0,3.0,20963.0,148551.0,244335.0,297519.0,276057.0
2026-04-08 21:23:16.585391,11983,1609502568776182,168742841,-1.016992,-0.1464,0.216672,-7.5425,3.98125,-2.10875,27.856,-13.864,5.04,eccentric,0,3.0,20963.0,148551.0,244335.0,297519.0,276057.0
2026-04-08 21:23:16.613889,11984,1609502568790749,168757734,-0.976,-0.160064,0.216672,-3.49125,2.77375,-1.295,27.720001,-13.512001,3.464,eccentric,0,3.0,20963.0,148551.0,244335.0,297519.0,276057.0
2026-04-08 21:23:16.618400,11985,1609502568799655,168766385,-0.989664,-0.11712,0.130784,0.56,1.42625,-0.49875,27.840002,-13.592001,4.528,eccentric,0,3.0,20963.0,148551.0,244335.0,297519.0,276057.0
2026-04-08 21:23:16.620750,11986,1609502568808552,168775035,-0.989664,-0.11712,0.130784,3.78875,0.2275,0.70875,27.840002,-13.592001,4.528,eccentric,0,3.0,20963.0,148551.0,244335.0,297519.0,276057.0
2026-04-08 21:23:16.649237,11997,1609502568823562,168790124,-0.979904,-0.122976,0.130784,3.395,0.27125,3.17625,28.016,-13.568001,4.752,eccentric,0,3.0,20955.0,148381.0,244086.0,297379.0,275972.0
2026-04-08 21:23:16.650932,11998,1609502568832500,168798829,-0.979904,-0.122976,0.130784,-0.28875,-0.13125,5.915,28.016,-13.568001,4.752,eccentric,0,3.0,20955.0,148381.0,244086.0,297379.0,275972.0
2026-04-08 21:23:16.652875,11999,1609502568846993,168813715,-0.987712,-0.142496,0.22448,-3.56125,-0.20125,8.00625,27.912,-13.696001,4.552,eccentric,0,3.0,20955.0,148381.0,244086.0,297379.0,275972.0
2026-04-08 21:23:16.685198,12000,1609502568856027,168822396,-0.987712,-0.142496,0.22448,-3.10625,0.4375,8.015,27.912,-13.696001,4.552,eccentric,0,3.0,20955.0,148381.0,244086.0,297379.0,275972.0
2026-04-08 21:23:16.689525,12001,1609502568864952,168831064,-1.0248,-0.183488,0.216672,0.7,1.26875,6.7025,27.688002,-13.64,5.2,eccentric,0,3.0,20955.0,148381.0,244086.0,297379.0,275972.0
2026-04-08 21:23:16.690914,12002,1609502568879414,168845939,-1.032608,-0.12688,0.16592,1.995,0.805,5.285,27.720001,-13.72,4.552,eccentric,0,3.0,20955.0,148381.0,244086.0,297379.0,275972.0
2026-04-08 21:23:16.692441,12003,1609502568888327,168854629,-1.032608,-0.12688,0.16592,5.64375,1.19875,3.96375,27.720001,-13.72,4.552,eccentric,0,3.0,20955.0,148381.0,244086.0,297379.0,275972.0
2026-04-08 21:23:16.723542,12004,1609502568902818,168869525,-1.030656,-0.11712,0.171776,8.09375,1.1725,3.84125,27.608002,-13.984,4.696,eccentric,0,3.0,20955.0,148381.0,244086.0,297379.0,275972.0
2026-04-08 21:23:16.728048,12005,1609502568911696,168878182,-1.030656,-0.11712,0.171776,6.545,-0.07875,5.03125,27.608002,-13.984,4.696,eccentric,0,3.0,20955.0,148381.0,244086.0,297379.0,275972.0
2026-04-08 21:23:16.754694,12016,1609502568926305,168893302,-1.018944,-0.12688,0.140544,2.1,-1.715,6.46625,27.624,-14.296001,4.88,eccentric,0,3.0,20953.0,148428.0,244153.0,297420.0,275975.0
2026-04-08 21:23:16.756420,12017,1609502568935263,168902047,-1.018944,-0.12688,0.140544,0.72625,-1.35625,6.30875,27.624,-14.296001,4.88,eccentric,0,3.0,20953.0,148428.0,244153.0,297420.0,275975.0
2026-04-08 21:23:16.760402,12018,1609502568944165,168910725,-0.981856,-0.1464,0.134688,1.42625,-1.1725,5.915,27.920002,-14.544001,3.952,eccentric,0,3.0,20953.0,148428.0,244153.0,297420.0,275975.0
2026-04-08 21:23:16.767238,12019,1609502568958715,168925654,-0.977952,-0.122976,0.128832,2.12625,-0.30625,5.215,28.144001,-14.120001,3.36,eccentric,0,3.0,20953.0,148428.0,244153.0,297420.0,275975.0
2026-04-08 21:23:16.775366,12020,1609502568967650,168934380,-0.977952,-0.122976,0.128832,3.535,0.48125,5.45125,28.144001,-14.120001,3.36,eccentric,0,3.0,20953.0,148428.0,244153.0,297420.0,275975.0
2026-04-08 21:23:16.836132,12021,1609502568982127,168949235,-0.954528,-0.099552,0.162016,4.2175,0.84,6.405,27.680002,-14.528001,4.488,eccentric,0,3.0,20953.0,148428.0,244153.0,297420.0,275975.0
2026-04-08 21:23:16.837584,12022,1609502568991034,168957900,-0.954528,-0.099552,0.162016,3.49125,0.2625,7.945,27.680002,-14.528001,4.488,eccentric,0,3.0,20953.0,148428.0,244153.0,297420.0,275975.0
2026-04-08 21:23:16.840016,12023,1609502569005473,168970698,-0.915488,-0.140544,0.12688,0.76125,-0.79625,10.45625,27.672,-14.496,4.28,eccentric,0,3.0,20953.0,148428.0,244153.0,297420.0,275975.0
