pc_time,serial_num,sensor_ts,host_ts,ax,ay,az,gx,gy,gz,mx,my,mz,phase,rpe,weight_kg,ppg_a,ppg_b,ppg_c,ppg_d,ppg_e,ppg_f,ppg_g,ppg_h,ppg_i,ppg_j
2026-05-06 16:16:25.481224,706105,1609506448902047,4048814274,0.813984,-0.01952,0.288896,3.5875,-4.6375,7.04375,-33.272003,-27.840002,-82.208,concentric,5,5.0,38496.0,39797.0,86613.0,111732.0,36352.0,47891.0,37452.0,64585.0,24190.0,16811.0
2026-05-06 16:16:25.507522,706106,1609506448910941,4048822981,0.8296,-0.017568,0.261568,10.15,-6.25625,8.04125,-33.208,-27.624,-82.504005,concentric,5,5.0,38496.0,39797.0,86613.0,111732.0,36352.0,47891.0,37452.0,64585.0,24190.0,16811.0
2026-05-06 16:16:25.516388,706107,1609506448925423,4048837895,0.8296,-0.017568,0.261568,11.01625,-6.50125,8.53125,-33.208,-27.624,-82.504005,concentric,5,5.0,38496.0,39797.0,86613.0,111732.0,36352.0,47891.0,37452.0,64585.0,24190.0,16811.0
2026-05-06 16:16:25.518971,706108,1609506448934342,4048846601,0.882304,-0.105408,0.257664,6.86,-4.9175,9.5025,-33.664,-30.232002,-79.776,concentric,5,5.0,38496.0,39797.0,86613.0,111732.0,36352.0,47891.0,37452.0,64585.0,24190.0,16811.0
2026-05-06 16:16:25.552489,706119,1609506448948829,4048861782,0.882304,-0.105408,0.257664,-1.4875,-3.26375,9.56375,-33.664,-30.232002,-79.776,concentric,5,5.0,38339.0,39564.0,86556.0,110738.0,36238.0,47687.0,37410.0,64166.0,24124.0,16694.0
2026-05-06 16:16:25.555025,706120,1609506448957949,4048870563,0.813984,-0.0976,0.261568,-11.042501,-1.49625,10.12375,-32.864002,-26.800001,-80.496,concentric,5,5.0,38339.0,39564.0,86556.0,110738.0,36238.0,47687.0,37410.0,64166.0,24124.0,16694.0
2026-05-06 16:16:25.557490,706121,1609506448966975,4048879374,0.813984,-0.0976,0.261568,-13.895,-1.49625,12.04875,-32.864002,-26.800001,-80.496,concentric,5,5.0,38339.0,39564.0,86556.0,110738.0,36238.0,47687.0,37410.0,64166.0,24124.0,16694.0
2026-05-06 16:16:25.560033,706122,1609506448981498,4048892419,0.75152,-0.02928,0.244,-9.1875,-3.12375,14.49,-33.472,-30.624,-80.79201,concentric,5,5.0,38339.0,39564.0,86556.0,110738.0,36238.0,47687.0,37410.0,64166.0,24124.0,16694.0
2026-05-06 16:16:25.562477,706123,1609506448991017,4048903251,0.786656,-0.074176,0.218624,-5.9675,-4.3225,15.225,-33.16,-26.464,-81.68,concentric,5,5.0,38339.0,39564.0,86556.0,110738.0,36238.0,47687.0,37410.0,64166.0,24124.0,16694.0
2026-05-06 16:16:25.566089,706124,1609506449005626,4048918187,0.786656,-0.074176,0.218624,-6.69375,-4.54125,16.7125,-33.16,-26.464,-81.68,concentric,5,5.0,38339.0,39564.0,86556.0,110738.0,36238.0,47687.0,37410.0,64166.0,24124.0,16694.0
2026-05-06 16:16:25.575013,706125,1609506449014610,4048926933,0.851072,-0.187392,0.220576,-7.98875,-5.34625,19.76625,-33.672,-27.912,-81.04,concentric,5,5.0,38339.0,39564.0,86556.0,110738.0,36238.0,47687.0,37410.0,64166.0,24124.0,16694.0
2026-05-06 16:16:25.583685,706126,1609506449023534,4048935634,0.851072,-0.187392,0.220576,-15.70625,-5.04,20.79875,-33.672,-27.912,-81.04,concentric,5,5.0,38339.0,39564.0,86556.0,110738.0,36238.0,47687.0,37410.0,64166.0,24124.0,16694.0
2026-05-06 16:16:25.617560,706127,1609506449038227,4048950532,0.765184,-0.105408,0.25376,-21.84,-4.68125,19.915,-33.72,-26.408,-82.352005,concentric,5,5.0,38339.0,39564.0,86556.0,110738.0,36238.0,47687.0,37410.0,64166.0,24124.0,16694.0
2026-05-06 16:16:25.620200,706128,1609506449047165,4048959414,0.765184,-0.105408,0.25376,-16.84375,-4.97875,21.13125,-33.72,-26.408,-82.352005,concentric,5,5.0,38339.0,39564.0,86556.0,110738.0,36238.0,47687.0,37410.0,64166.0,24124.0,16694.0
2026-05-06 16:16:25.649987,706139,1609506449061740,4048972814,0.694912,-0.025376,0.286944,-9.79125,-6.125,20.01125,-33.960003,-26.400002,-82.144005,concentric,5,5.0,38357.0,39489.0,86468.0,110504.0,36300.0,47600.0,37411.0,64119.0,24147.0,16659.0
2026-05-06 16:16:25.652489,706140,1609506449071023,4048983632,0.876448,-0.199104,0.130784,-9.82625,-7.20125,19.38125,-33.888,-27.344002,-78.512,concentric,5,5.0,38357.0,39489.0,86468.0,110504.0,36300.0,47600.0,37411.0,64119.0,24147.0,16659.0
2026-05-06 16:16:25.654956,706141,1609506449085604,4048996593,0.876448,-0.199104,0.130784,-11.3575,-9.17,21.70875,-33.888,-27.344002,-78.512,concentric,5,5.0,38357.0,39489.0,86468.0,110504.0,36300.0,47600.0,37411.0,64119.0,24147.0,16659.0
2026-05-06 16:16:25.657499,706142,1609506449095048,4049007393,0.806176,-0.148352,0.23424,-20.22125,-9.38875,20.37,-34.152,-28.528002,-80.032005,concentric,5,5.0,38357.0,39489.0,86468.0,110504.0,36300.0,47600.0,37411.0,64119.0,24147.0,16659.0
2026-05-06 16:16:25.666251,706143,1609506449104073,4049016189,0.806176,-0.148352,0.23424,-23.54625,-6.0375,18.8825,-34.152,-28.528002,-80.032005,concentric,5,5.0,38357.0,39489.0,86468.0,110504.0,36300.0,47600.0,37411.0,64119.0,24147.0,16659.0
2026-05-06 16:16:25.679983,706144,1609506449118609,4049031124,0.718336,-0.0488,0.271328,-15.68,-6.09,16.73,-33.84,-25.920002,-82.336006,concentric,5,5.0,38357.0,39489.0,86468.0,110504.0,36300.0,47600.0,37411.0,64119.0,24147.0,16659.0
2026-05-06 16:16:25.688799,706145,1609506449127712,4049039838,0.718336,-0.0488,0.271328,-14.34125,-7.02625,12.06625,-33.84,-25.920002,-82.336006,concentric,5,5.0,38357.0,39489.0,86468.0,110504.0,36300.0,47600.0,37411.0,64119.0,24147.0,16659.0
2026-05-06 16:16:25.702601,706146,1609506449142235,4049054763,0.669536,-0.130784,0.177632,-14.42,-7.41125,12.495,-33.664,-25.880001,-82.76,concentric,5,5.0,38357.0,39489.0,86468.0,110504.0,36300.0,47600.0,37411.0,64119.0,24147.0,16659.0
2026-05-06 16:16:25.736113,706157,1609506449151157,4049063488,0.813984,-0.23424,0.132736,-15.12,-10.61375,14.60375,-34.288002,-27.056002,-81.44,concentric,5,5.0,38353.0,39364.0,86413.0,110506.0,36343.0,47466.0,37359.0,64162.0,24187.0,16601.0
2026-05-06 16:16:25.738555,706158,1609506449160387,4049072362,0.813984,-0.23424,0.132736,-16.345,-14.28875,19.32,-34.288002,-27.056002,-81.44,concentric,5,5.0,38353.0,39364.0,86413.0,110506.0,36343.0,47466.0,37359.0,64162.0,24187.0,16601.0
2026-05-06 16:16:25.741260,706159,1609506449174923,4049087458,0.81008,-0.128832,0.22448,-16.695,-15.18125,21.30625,-34.208,-25.776001,-81.73601,concentric,5,5.0,38353.0,39364.0,86413.0,110506.0,36343.0,47466.0,37359.0,64162.0,24187.0,16601.0
2026-05-06 16:16:25.743841,706160,1609506449183937,4049096217,0.81008,-0.128832,0.22448,-16.03875,-14.93625,18.19125,-34.208,-25.776001,-81.73601,concentric,5,5.0,38353.0,39364.0,86413.0,110506.0,36343.0,47466.0,37359.0,64162.0,24187.0,16601.0
2026-05-06 16:16:25.767554,706161,1609506449198459,4049111111,0.65392,-0.01952,0.257664,-11.445,-13.64125,17.1675,-34.456,-26.752,-81.664,concentric,5,5.0,38353.0,39364.0,86413.0,110506.0,36343.0,47466.0,37359.0,64162.0,24187.0,16601.0
2026-05-06 16:16:25.769944,706162,1609506449207372,4049119810,0.65392,-0.01952,0.257664,-9.87875,-13.0725,16.73,-34.456,-26.752,-81.664,concentric,5,5.0,38353.0,39364.0,86413.0,110506.0,36343.0,47466.0,37359.0,64162.0,24187.0,16601.0
2026-05-06 16:16:25.776235,706163,1609506449216288,4049128520,0.749568,-0.130784,0.15616,-11.33125,-13.72875,19.1625,-33.84,-25.12,-83.11201,concentric,5,5.0,38353.0,39364.0,86413.0,110506.0,36343.0,47466.0,37359.0,64162.0,24187.0,16601.0
2026-05-06 16:16:25.810150,706164,1609506449230861,4049143446,0.749568,-0.130784,0.15616,-12.775,-14.79625,23.59,-33.84,-25.12,-83.11201,concentric,5,5.0,38353.0,39364.0,86413.0,110506.0,36343.0,47466.0,37359.0,64162.0,24187.0,16601.0
2026-05-06 16:16:25.818564,706165,1609506449239792,4049152164,0.845216,-0.206912,0.134688,-14.0875,-15.855001,25.3575,-33.944,-24.656002,-82.54401,concentric,5,5.0,38353.0,39364.0,86413.0,110506.0,36343.0,47466.0,37359.0,64162.0,24187.0,16601.0
2026-05-06 16:16:25.908965,706176,1609506449254829,4049167160,0.765184,-0.130784,0.203008,-16.8525,-15.7325,24.15,-34.256,-24.768002,-83.48801,concentric,5,5.0,37920.0,39087.0,86124.0,108958.0,35857.0,47183.0,37216.0,63261.0,23882.0,16450.0
2026-05-06 16:16:25.913487,706177,1609506449263789,4049175931,0.765184,-0.130784,0.203008,-18.165,-13.22125,21.2625,-34.256,-24.768002,-83.48801,concentric,5,5.0,37920.0,39087.0,86124.0,108958.0,35857.0,47183.0,37216.0,63261.0,23882.0,16450.0
2026-05-06 16:16:25.913911,706178,1609506449272741,4049184649,0.7808,-0.109312,0.216672,-15.30375,-10.80625,21.1925,-34.56,-27.768002,-81.248,concentric,5,5.0,37920.0,39087.0,86124.0,108958.0,35857.0,47183.0,37216.0,63261.0,23882.0,16450.0
2026-05-06 16:16:25.916167,706179,1609506449287200,4049199656,0.7808,-0.109312,0.216672,-13.3525,-10.71,22.015,-34.56,-27.768002,-81.248,concentric,5,5.0,37920.0,39087.0,86124.0,108958.0,35857.0,47183.0,37216.0,63261.0,23882.0,16450.0
2026-05-06 16:16:25.918694,706180,1609506449296107,4049208371,0.767136,-0.171776,0.150304,-11.6025,-10.92875,25.13,-34.544003,-24.184002,-83.336006,concentric,5,5.0,37920.0,39087.0,86124.0,108958.0,35857.0,47183.0,37216.0,63261.0,23882.0,16450.0
2026-05-06 16:16:25.922343,706181,1609506449310736,4049223282,0.767136,-0.171776,0.150304,-12.25875,-11.025,27.88625,-34.544003,-24.184002,-83.336006,concentric,5,5.0,37920.0,39087.0,86124.0,108958.0,35857.0,47183.0,37216.0,63261.0,23882.0,16450.0
2026-05-06 16:16:25.924563,706182,1609506449319696,4049232005,0.80032,-0.169824,0.183488,-19.85375,-10.85875,25.7775,-33.848003,-23.920002,-82.872,concentric,5,5.0,37920.0,39087.0,86124.0,108958.0,35857.0,47183.0,37216.0,63261.0,23882.0,16450.0
2026-05-06 16:16:25.928302,706183,1609506449334687,4049247000,0.890112,-0.189344,0.103456,-18.55,-9.89625,26.3375,-34.36,-24.04,-82.944,concentric,5,5.0,37920.0,39087.0,86124.0,108958.0,35857.0,47183.0,37216.0,63261.0,23882.0,16450.0
2026-05-06 16:16:25.928761,706184,1609506449343722,4049255746,0.890112,-0.189344,0.103456,-13.755,-10.61375,22.49625,-34.36,-24.04,-82.944,concentric,5,5.0,37920.0,39087.0,86124.0,108958.0,35857.0,47183.0,37216.0,63261.0,23882.0,16450.0
2026-05-06 16:16:25.961365,706195,1609506449352724,4049264565,0.806176,-0.130784,0.216672,-15.54,-7.06125,18.4625,-34.688004,-24.872002,-81.368004,concentric,5,5.0,37695.0,39003.0,85883.0,106571.0,35606.0,47079.0,37138.0,61884.0,23750.0,16385.0
2026-05-06 16:16:25.963917,706196,1609506449367797,4049279585,0.806176,-0.130784,0.216672,-11.2,-4.15625,21.63,-34.688004,-24.872002,-81.368004,concentric,5,5.0,37695.0,39003.0,85883.0,106571.0,35606.0,47079.0,37138.0,61884.0,23750.0,16385.0
2026-05-06 16:16:25.969028,706197,1609506449376752,4049288356,0.802272,-0.167872,0.208864,-8.7325,-1.4175,23.8525,-34.976,-24.568,-84.104004,concentric,5,5.0,37695.0,39003.0,85883.0,106571.0,35606.0,47079.0,37138.0,61884.0,23750.0,16385.0
2026-05-06 16:16:25.971428,706198,1609506449391372,4049303289,0.802272,-0.167872,0.208864,-9.61625,1.30375,25.34875,-34.976,-24.568,-84.104004,concentric,5,5.0,37695.0,39003.0,85883.0,106571.0,35606.0,47079.0,37138.0,61884.0,23750.0,16385.0
2026-05-06 16:16:25.974015,706199,1609506449400475,4049312006,0.911584,-0.296704,0.050752,-15.4875,2.9225,22.98625,-35.120003,-24.192001,-84.248,concentric,5,5.0,37695.0,39003.0,85883.0,106571.0,35606.0,47079.0,37138.0,61884.0,23750.0,16385.0
2026-05-06 16:16:25.976483,706200,1609506449409426,4049320753,0.911584,-0.296704,0.050752,-21.62125,3.50875,17.99,-35.120003,-24.192001,-84.248,concentric,5,5.0,37695.0,39003.0,85883.0,106571.0,35606.0,47079.0,37138.0,61884.0,23750.0,16385.0
2026-05-06 16:16:26.007911,706201,1609506449424020,4049335666,0.86864,-0.22448,0.122976,-17.98125,4.06,17.24625,-35.032,-22.544,-83.632,concentric,5,5.0,37695.0,39003.0,85883.0,106571.0,35606.0,47079.0,37138.0,61884.0,23750.0,16385.0
2026-05-06 16:16:26.011761,706202,1609506449432971,4049344409,0.7808,-0.128832,0.294752,-8.07625,5.20625,18.235,-35.032,-22.544,-81.976006,concentric,5,5.0,37695.0,39003.0,85883.0,106571.0,35606.0,47079.0,37138.0,61884.0,23750.0,16385.0
2026-05-06 16:16:26.012414,706203,1609506449447427,4049359318,0.7808,-0.128832,0.294752,0.735,5.705,19.06625,-35.384003,-21.664001,-81.976006,concentric,5,5.0,37695.0,39003.0,85883.0,106571.0,35606.0,47079.0,37138.0,61884.0,23750.0,16385.0
2026-05-06 16:16:26.042535,706214,1609506449457013,4049368175,0.735904,-0.169824,0.169824,0.175,8.11125,17.52625,-35.920002,-25.6,-81.76,concentric,5,5.0,37844.0,39019.0,85957.0,103733.0,35702.0,47191.0,37230.0,60298.0,23787.0,16416.0
2026-05-06 16:16:26.047419,706215,1609506449466392,4049378986,0.735904,-0.169824,0.169824,-2.37125,10.36875,17.08875,-35.920002,-25.6,-81.76,concentric,5,5.0,37844.0,39019.0,85957.0,103733.0,35702.0,47191.0,37230.0,60298.0,23787.0,16416.0
2026-05-06 16:16:26.049878,706216,1609506449480909,4049391952,0.944768,-0.294752,0.064416,-5.9325,10.7275,14.95375,-36.136,-24.968,-81.73601,concentric,5,5.0,37844.0,39019.0,85957.0,103733.0,35702.0,47191.0,37230.0,60298.0,23787.0,16416.0
2026-05-06 16:16:26.052379,706217,1609506449490198,4049402792,0.944768,-0.294752,0.064416,-10.08,11.55,11.445,-36.136,-24.968,-81.73601,concentric,5,5.0,37844.0,39019.0,85957.0,103733.0,35702.0,47191.0,37230.0,60298.0,23787.0,16416.0
2026-05-06 16:16:26.061299,706218,1609506449499194,4049411524,0.821792,-0.22448,0.230336,-10.28125,14.035,10.71,-36.216003,-23.016,-82.152,concentric,5,5.0,37844.0,39019.0,85957.0,103733.0,35702.0,47191.0,37230.0,60298.0,23787.0,16416.0
2026-05-06 16:16:26.080012,706219,1609506449513708,4049424464,0.747616,-0.138592,0.259616,-5.355,17.3075,13.90375,-36.216003,-20.776001,-82.75201,concentric,5,5.0,37844.0,39019.0,85957.0,103733.0,35702.0,47191.0,37230.0,60298.0,23787.0,16416.0
2026-05-06 16:16:26.082598,706220,1609506449522915,4049435311,0.747616,-0.138592,0.259616,3.675,17.535,17.045,-36.672,-20.776001,-82.75201,concentric,5,5.0,37844.0,39019.0,85957.0,103733.0,35702.0,47191.0,37230.0,60298.0,23787.0,16416.0
2026-05-06 16:16:26.100100,706221,1609506449537384,4049448182,0.884256,-0.210816,0.124928,5.2325,17.7975,16.3275,-36.736,-22.288,-83.096,concentric,5,5.0,37844.0,39019.0,85957.0,103733.0,35702.0,47191.0,37230.0,60298.0,23787.0,16416.0
2026-05-06 16:16:26.111592,706222,1609506449546576,4049458964,0.884256,-0.210816,0.124928,-3.59625,20.3175,12.88875,-36.736,-22.288,-83.096,concentric,5,5.0,37844.0,39019.0,85957.0,103733.0,35702.0,47191.0,37230.0,60298.0,23787.0,16416.0
2026-05-06 16:16:26.140033,706233,1609506449561216,4049473957,0.923296,-0.318176,0.20496,-16.1875,22.93375,6.99125,-37.568,-20.952002,-82.992004,concentric,5,5.0,38175.0,39259.0,86319.0,102592.0,35853.0,47407.0,37386.0,59585.0,23837.0,16500.0
2026-05-06 16:16:26.145085,706234,1609506449570334,4049482726,0.923296,-0.318176,0.20496,-25.22625,25.7775,3.10625,-37.568,-20.952002,-82.992004,concentric,5,5.0,38175.0,39259.0,86319.0,102592.0,35853.0,47407.0,37386.0,59585.0,23837.0,16500.0
2026-05-06 16:16:26.147499,706235,1609506449579343,4049491502,0.784704,-0.245952,0.320128,-22.2775,27.46625,7.67375,-37.688004,-21.000002,-82.600006,concentric,5,5.0,38175.0,39259.0,86319.0,102592.0,35853.0,47407.0,37386.0,59585.0,23837.0,16500.0
2026-05-06 16:16:26.153955,706236,1609506449593956,4049506480,0.784704,-0.22448,0.261568,-15.00625,27.69375,11.13875,-37.688004,-21.000002,-82.600006,concentric,5,5.0,38175.0,39259.0,86319.0,102592.0,35853.0,47407.0,37386.0,59585.0,23837.0,16500.0
2026-05-06 16:16:26.162414,706237,1609506449602888,4049515201,0.798368,-0.22448,0.261568,-10.40375,28.25375,11.52375,-37.84,-20.12,-82.48801,concentric,5,5.0,38175.0,39259.0,86319.0,102592.0,35853.0,47407.0,37386.0,59585.0,23837.0,16500.0
2026-05-06 16:16:26.179980,706238,1609506449617410,4049530171,0.886208,-0.255712,0.181536,-10.2375,30.380001,13.125,-38.472,-21.808,-81.8,concentric,5,5.0,38175.0,39259.0,86319.0,102592.0,35853.0,47407.0,37386.0,59585.0,23837.0,16500.0
2026-05-06 16:16:26.189003,706239,1609506449626315,4049538860,0.886208,-0.255712,0.181536,-13.48375,33.25,11.3225,-38.472,-21.808,-81.8,concentric,5,5.0,38175.0,39259.0,86319.0,102592.0,35853.0,47407.0,37386.0,59585.0,23837.0,16500.0
2026-05-06 16:16:26.221253,706240,1609506449635233,4049547593,0.843264,-0.28304,0.171776,-19.3025,34.55375,7.00875,-38.464,-19.552,-80.416,concentric,5,5.0,38175.0,39259.0,86319.0,102592.0,35853.0,47407.0,37386.0,59585.0,23837.0,16500.0
2026-05-06 16:16:26.246162,706241,1609506449649746,4049560505,0.843264,-0.28304,0.171776,-20.86,34.09875,5.8275,-38.464,-19.552,-80.416,concentric,5,5.0,38175.0,39259.0,86319.0,102592.0,35853.0,47407.0,37386.0,59585.0,23837.0,16500.0
2026-05-06 16:16:26.291463,706252,1609506449659266,4049571342,0.90768,-0.35136,0.345504,-23.56375,31.815,-0.1925,-39.024002,-19.640001,-81.232,concentric,5,5.0,38809.0,39513.0,86800.0,102422.0,36297.0,47755.0,37634.0,59488.0,24085.0,16631.0
2026-05-06 16:16:26.294045,706253,1609506449673880,4049586243,0.90768,-0.35136,0.345504,-27.78125,31.38625,-3.82375,-39.024002,-19.640001,-81.232,concentric,5,5.0,38809.0,39513.0,86800.0,102422.0,36297.0,47755.0,37634.0,59488.0,24085.0,16631.0
2026-05-06 16:16:26.296168,706254,1609506449682778,4049594956,0.909632,-0.318176,0.265472,-16.555,31.42125,2.79125,-39.568,-19.896002,-81.536,concentric,5,5.0,38809.0,39513.0,86800.0,102422.0,36297.0,47755.0,37634.0,59488.0,24085.0,16631.0
2026-05-06 16:16:26.300533,706255,1609506449691709,4049603682,0.909632,-0.318176,0.265472,-9.44125,30.93125,2.6425,-39.568,-19.896002,-81.536,concentric,5,5.0,38809.0,39513.0,86800.0,102422.0,36297.0,47755.0,37634.0,59488.0,24085.0,16631.0
2026-05-06 16:16:26.301026,706256,1609506449706218,4049618617,0.942816,-0.333792,0.281088,-10.77125,29.4,-1.4525,-39.68,-21.416,-79.48,concentric,5,5.0,38809.0,39513.0,86800.0,102422.0,36297.0,47755.0,37634.0,59488.0,24085.0,16631.0
2026-05-06 16:16:26.304021,706257,1609506449715154,4049627386,0.938912,-0.249856,0.206912,-8.925,26.3025,-1.81125,-39.68,-21.824001,-79.75201,concentric,5,5.0,38809.0,39513.0,86800.0,102422.0,36297.0,47755.0,37634.0,59488.0,24085.0,16631.0
2026-05-06 16:16:26.307467,706258,1609506449729734,4049642410,0.938912,-0.249856,0.206912,-4.7775,21.32375,-3.6225,-39.776,-21.824001,-79.75201,concentric,5,5.0,38809.0,39513.0,86800.0,102422.0,36297.0,47755.0,37634.0,59488.0,24085.0,16631.0
2026-05-06 16:16:26.308588,706259,1609506449738796,4049651216,1.026752,-0.286944,0.26352,-6.20375,17.491251,-8.82,-40.144,-20.888,-80.36,concentric,5,5.0,38809.0,39513.0,86800.0,102422.0,36297.0,47755.0,37634.0,59488.0,24085.0,16631.0
2026-05-06 16:16:26.317409,706260,1609506449753327,4049664123,1.026752,-0.286944,0.26352,-12.6175,17.12375,-9.93125,-40.144,-20.888,-80.36,concentric,5,5.0,38809.0,39513.0,86800.0,102422.0,36297.0,47755.0,37634.0,59488.0,24085.0,16631.0
2026-05-06 16:16:26.347506,706271,1609506449762733,4049675074,0.968192,-0.368928,0.382592,-17.710001,18.17375,-7.53375,-40.184002,-20.776001,-75.856,concentric,5,5.0,39185.0,39692.0,87118.0,103212.0,36578.0,47943.0,37768.0,59808.0,24169.0,16691.0
2026-05-06 16:16:26.349963,706272,1609506449771735,4049683864,0.968192,-0.368928,0.382592,-23.765,19.678751,-7.58625,-40.184002,-20.776001,-75.856,concentric,5,5.0,39185.0,39692.0,87118.0,103212.0,36578.0,47943.0,37768.0,59808.0,24169.0,16691.0
2026-05-06 16:16:26.352491,706273,1609506449786327,4049698830,0.960384,-0.329888,0.230336,-20.93875,17.255,-5.92375,-40.616,-23.984001,-77.296005,concentric,5,5.0,39185.0,39692.0,87118.0,103212.0,36578.0,47943.0,37768.0,59808.0,24169.0,16691.0
2026-05-06 16:16:26.354770,706274,1609506449795262,4049707541,0.960384,-0.329888,0.23424,-19.73125,13.65,-8.1025,-40.616,-23.984001,-77.296005,concentric,5,5.0,39185.0,39692.0,87118.0,103212.0,36578.0,47943.0,37768.0,59808.0,24169.0,16691.0
2026-05-06 16:16:26.371385,706275,1609506449809790,4049722954,1.09312,-0.238144,0.23424,-21.77,10.5,-8.91625,-40.872,-23.696001,-78.664,concentric,5,5.0,39185.0,39692.0,87118.0,103212.0,36578.0,47943.0,37768.0,59808.0,24169.0,16691.0
2026-05-06 16:16:26.377641,706276,1609506449818888,4049729655,1.040416,-0.37088,0.28304,-22.6275,9.8175,-7.28875,-40.752003,-20.656,-79.52801,concentric,5,5.0,39185.0,39692.0,87118.0,103212.0,36578.0,47943.0,37768.0,59808.0,24169.0,16691.0
2026-05-06 16:16:26.389039,706277,1609506449828132,4049740481,1.040416,-0.37088,0.28304,-30.37125,10.325,-8.89875,-40.752003,-20.656,-79.52801,concentric,5,5.0,39185.0,39692.0,87118.0,103212.0,36578.0,47943.0,37768.0,59808.0,24169.0,16691.0
2026-05-06 16:16:26.411282,706278,1609506449842625,4049753390,1.007232,-0.460672,0.337696,-41.13375,10.70125,-11.2,-40.568,-20.808,-78.272,concentric,5,5.0,39185.0,39692.0,87118.0,103212.0,36578.0,47943.0,37768.0,59808.0,24169.0,16691.0
2026-05-06 16:16:26.412179,706279,1609506449851826,4049764201,1.007232,-0.460672,0.337696,-41.97375,8.77625,-8.37375,-40.568,-20.808,-78.272,concentric,5,5.0,39185.0,39692.0,87118.0,103212.0,36578.0,47943.0,37768.0,59808.0,24169.0,16691.0
2026-05-06 16:16:26.442591,706290,1609506449866567,4049777488,1.03456,-0.35136,0.261568,-31.1675,4.82125,-2.7825,-40.768,-21.144001,-79.16801,concentric,5,5.0,39133.0,39484.0,87232.0,104379.0,36574.0,47690.0,37815.0,60459.0,24214.0,16610.0
2026-05-06 16:16:26.445075,706291,1609506449875990,4049788301,1.03456,-0.316224,0.277184,-18.19125,-0.5075,-1.44375,-40.768,-21.144001,-79.16801,concentric,5,5.0,39133.0,39484.0,87232.0,104379.0,36574.0,47690.0,37815.0,60459.0,24214.0,16610.0
2026-05-06 16:16:26.447354,706292,1609506449885077,4049796995,1.050176,-0.316224,0.277184,-10.9025,-3.2375,-0.90125,-40.960003,-22.6,-76.44,concentric,5,5.0,39133.0,39484.0,87232.0,104379.0,36574.0,47690.0,37815.0,60459.0,24214.0,16610.0
2026-05-06 16:16:26.467674,706293,1609506449899696,4049811956,0.981856,-0.413824,0.284992,-11.64625,-3.29,1.26875,-40.976,-21.104,-78.96001,concentric,5,5.0,39133.0,39484.0,87232.0,104379.0,36574.0,47690.0,37815.0,60459.0,24214.0,16610.0
2026-05-06 16:16:26.470148,706294,1609506449908782,4049820695,0.981856,-0.413824,0.284992,-19.48625,-3.43,1.6275,-40.976,-21.104,-78.96001,concentric,5,5.0,39133.0,39484.0,87232.0,104379.0,36574.0,47690.0,37815.0,60459.0,24214.0,16610.0
2026-05-06 16:16:26.491463,706295,1609506449923291,4049835672,0.933056,-0.4392,0.281088,-28.3325,-4.45375,2.38,-41.152,-20.952002,-79.592,concentric,5,5.0,39133.0,39484.0,87232.0,104379.0,36574.0,47690.0,37815.0,60459.0,24214.0,16610.0
2026-05-06 16:16:26.494049,706296,1609506449932636,4049844470,0.933056,-0.4392,0.281088,-31.57,-6.615,4.97875,-41.152,-20.952002,-79.592,concentric,5,5.0,39133.0,39484.0,87232.0,104379.0,36574.0,47690.0,37815.0,60459.0,24214.0,16610.0
2026-05-06 16:16:26.499901,706297,1609506449941614,4049853237,0.954528,-0.368928,0.265472,-28.93625,-8.575,7.25375,-40.848003,-21.128,-78.944,concentric,5,5.0,39133.0,39484.0,87232.0,104379.0,36574.0,47690.0,37815.0,60459.0,24214.0,16610.0
2026-05-06 16:16:26.558982,706308,1609506449956159,4049868133,0.954528,-0.368928,0.265472,-23.03,-9.58125,9.12625,-40.848003,-21.128,-78.944,concentric,5,5.0,39390.0,39802.0,87215.0,105768.0,36922.0,47984.0,37756.0,61150.0,24391.0,16725.0
2026-05-06 16:16:26.583925,706309,1609506449965743,4049876921,0.905728,-0.406016,0.247904,-22.37375,-9.54625,11.24375,-41.232002,-21.144001,-78.44,concentric,5,5.0,39390.0,39802.0,87215.0,105768.0,36922.0,47984.0,37756.0,61150.0,24391.0,16725.0
2026-05-06 16:16:26.608839,706310,1609506449975174,4049887728,0.905728,-0.406016,0.247904,-25.165,-9.16125,11.52375,-41.232002,-21.144001,-78.44,concentric,5,5.0,39390.0,39802.0,87215.0,105768.0,36922.0,47984.0,37756.0,61150.0,24391.0,16725.0
2026-05-06 16:16:26.611280,706311,1609506449989875,4049900699,0.88816,-0.450912,0.265472,-27.02,-9.511251,11.3925,-40.928,-20.416,-79.704,concentric,5,5.0,39390.0,39802.0,87215.0,105768.0,36922.0,47984.0,37756.0,61150.0,24391.0,16725.0
2026-05-06 16:16:26.613722,706312,1609506449999165,4049911512,0.837408,-0.431392,0.232288,-28.49875,-9.10875,10.885,-40.888,-22.568,-78.48,concentric,5,5.0,39390.0,39802.0,87215.0,105768.0,36922.0,47984.0,37756.0,61150.0,24391.0,16725.0
2026-05-06 16:16:26.616253,706313,1609506450013676,4049924445,0.837408,-0.431392,0.232288,-26.4775,-9.485,10.56125,-40.888,-22.568,-78.48,concentric,5,5.0,39390.0,39802.0,87215.0,105768.0,36922.0,47984.0,37756.0,61150.0,24391.0,16725.0
2026-05-06 16:16:26.618893,706314,1609506450022871,4049935233,0.81008,-0.447008,0.245952,-18.76,-10.08875,10.66625,-40.832,-20.608002,-79.840004,concentric,5,5.0,39390.0,39802.0,87215.0,105768.0,36922.0,47984.0,37756.0,61150.0,24391.0,16725.0
2026-05-06 16:16:26.646108,706315,1609506450031859,4049943943,0.81008,-0.447008,0.245952,-13.79875,-10.36875,9.7475,-40.832,-20.608002,-79.840004,concentric,5,5.0,39390.0,39802.0,87215.0,105768.0,36922.0,47984.0,37756.0,61150.0,24391.0,16725.0
2026-05-06 16:16:26.663760,706316,1609506450046410,4049958888,0.806176,-0.46848,0.251808,-13.74625,-8.96,8.295,-40.712,-20.752,-79.32001,concentric,5,5.0,39390.0,39802.0,87215.0,105768.0,36922.0,47984.0,37756.0,61150.0,24391.0,16725.0
2026-05-06 16:16:26.701428,706327,1609506450055348,4049968086,0.806176,-0.46848,0.251808,-14.00875,-8.14625,8.21625,-40.712,-20.752,-79.32001,concentric,5,5.0,39693.0,39977.0,87134.0,107105.0,37282.0,48122.0,37707.0,61863.0,24623.0,16791.0
2026-05-06 16:16:26.704004,706328,1609506450070052,4049980962,0.806176,-0.388448,0.23424,-7.11375,-7.3675,8.16375,-40.592003,-20.592001,-77.824005,concentric,5,5.0,39693.0,39977.0,87134.0,107105.0,37282.0,48122.0,37707.0,61863.0,24623.0,16791.0
2026-05-06 16:16:26.706404,706329,1609506450079407,4049991729,0.778848,-0.402112,0.277184,-6.4225,-6.58875,5.20625,-41.24,-20.44,-80.184006,concentric,5,5.0,39693.0,39977.0,87134.0,107105.0,37282.0,48122.0,37707.0,61863.0,24623.0,16791.0
2026-05-06 16:16:26.708986,706330,1609506450088346,4050000429,0.778848,-0.402112,0.277184,-8.72375,-5.18875,1.44375,-41.24,-20.44,-80.184006,concentric,5,5.0,39693.0,39977.0,87134.0,107105.0,37282.0,48122.0,37707.0,61863.0,24623.0,16791.0
2026-05-06 16:16:26.711415,706331,1609506450102846,4050015327,0.792512,-0.4392,0.249856,-9.2225,-3.94625,-0.8575,-40.912003,-20.52,-79.504005,concentric,5,5.0,39693.0,39977.0,87134.0,107105.0,37282.0,48122.0,37707.0,61863.0,24623.0,16791.0
2026-05-06 16:16:26.713819,706332,1609506450111915,4050024104,0.792512,-0.4392,0.249856,-7.4725,-3.99,-3.17625,-40.912003,-20.52,-79.504005,concentric,5,5.0,39693.0,39977.0,87134.0,107105.0,37282.0,48122.0,37707.0,61863.0,24623.0,16791.0
2026-05-06 16:16:26.716255,706333,1609506450126565,4050039242,0.812032,-0.431392,0.259616,-4.40125,-4.795,-4.8475,-40.944,-20.92,-79.768005,concentric,5,5.0,39693.0,39977.0,87134.0,107105.0,37282.0,48122.0,37707.0,61863.0,24623.0,16791.0
2026-05-06 16:16:26.718823,706334,1609506450135572,4050047958,0.812032,-0.431392,0.259616,-2.94,-4.66375,-5.285,-40.944,-20.92,-79.768005,concentric,5,5.0,39693.0,39977.0,87134.0,107105.0,37282.0,48122.0,37707.0,61863.0,24623.0,16791.0
2026-05-06 16:16:26.721265,706335,1609506450144552,4050056686,0.786656,-0.3904,0.220576,-2.59875,-4.61125,-6.79875,-40.968002,-20.92,-79.76,concentric,5,5.0,39693.0,39977.0,87134.0,107105.0,37282.0,48122.0,37707.0,61863.0,24623.0,16791.0
2026-05-06 16:16:26.756275,706346,1609506450159237,4050071749,0.806176,-0.392352,0.238144,-2.0475,-4.55,-9.695,-40.72,-20.864,-80.632,eccentric,5,5.0,39744.0,39972.0,86759.0,107514.0,37396.0,48173.0,37545.0,62116.0,24699.0,16807.0
2026-05-06 16:16:26.758909,706347,1609506450168291,4050080600,0.806176,-0.392352,0.238144,-0.37625,-4.62,-11.165,-40.72,-20.864,-80.632,eccentric,5,5.0,39744.0,39972.0,86759.0,107514.0,37396.0,48173.0,37545.0,62116.0,24699.0,16807.0
2026-05-06 16:16:26.761349,706348,1609506450183058,4050095543,0.81984,-0.413824,0.1952,2.19625,-4.6725,-11.9,-40.920002,-22.208,-78.872,eccentric,5,5.0,39744.0,39972.0,86759.0,107514.0,37396.0,48173.0,37545.0,62116.0,24699.0,16807.0
2026-05-06 16:16:26.766075,706349,1609506450192030,4050104317,0.81984,-0.413824,0.1952,4.71625,-5.0225,-13.39625,-40.920002,-22.208,-78.872,eccentric,5,5.0,39744.0,39972.0,86759.0,107514.0,37396.0,48173.0,37545.0,62116.0,24699.0,16807.0
2026-05-06 16:16:26.766626,706350,1609506450206700,4050119373,0.804224,-0.349408,0.240096,7.97125,-5.81,-12.60875,-40.872,-22.480001,-79.0,eccentric,5,5.0,39744.0,39972.0,86759.0,107514.0,37396.0,48173.0,37545.0,62116.0,24699.0,16807.0
2026-05-06 16:16:26.779804,706351,1609506450215700,4050128101,0.804224,-0.349408,0.240096,11.06,-6.72,-12.145,-40.872,-22.480001,-79.0,eccentric,5,5.0,39744.0,39972.0,86759.0,107514.0,37396.0,48173.0,37545.0,62116.0,24699.0,16807.0
2026-05-06 16:16:26.786312,706352,1609506450224656,4050136808,0.835456,-0.366976,0.228384,11.6725,-6.99125,-13.09,-40.648003,-21.208,-80.344,eccentric,5,5.0,39744.0,39972.0,86759.0,107514.0,37396.0,48173.0,37545.0,62116.0,24699.0,16807.0
2026-05-06 16:16:26.803810,706353,1609506450239209,4050151817,0.841312,-0.372832,0.244,10.9725,-6.1775,-13.78125,-40.648003,-20.496,-80.336006,eccentric,5,5.0,39744.0,39972.0,86759.0,107514.0,37396.0,48173.0,37545.0,62116.0,24699.0,16807.0
2026-05-06 16:16:26.807354,706354,1609506450248273,4050160531,0.841312,-0.372832,0.244,13.32625,-5.67,-13.16,-40.568,-20.496,-80.336006,eccentric,5,5.0,39744.0,39972.0,86759.0,107514.0,37396.0,48173.0,37545.0,62116.0,24699.0,16807.0
2026-05-06 16:16:26.848740,706365,1609506450263025,4050175698,0.84912,-0.349408,0.257664,16.02125,-5.46875,-12.67,-40.544003,-22.184002,-79.248,eccentric,5,5.0,39728.0,40048.0,86471.0,106799.0,37331.0,48252.0,37432.0,61795.0,24649.0,16818.0
2026-05-06 16:16:26.851231,706366,1609506450272143,4050184497,0.84912,-0.349408,0.257664,17.52625,-5.50375,-11.515,-40.544003,-22.184002,-79.248,eccentric,5,5.0,39728.0,40048.0,86471.0,106799.0,37331.0,48252.0,37432.0,61795.0,24649.0,16818.0
2026-05-06 16:16:26.853733,706367,1609506450281109,4050193271,0.843264,-0.327936,0.244,18.27875,-5.1975,-10.325,-40.648003,-23.992,-78.352005,eccentric,5,5.0,39728.0,40048.0,86471.0,106799.0,37331.0,48252.0,37432.0,61795.0,24649.0,16818.0
2026-05-06 16:16:26.856117,706368,1609506450295653,4050208218,0.843264,-0.327936,0.244,16.8,-4.865,-10.255,-40.648003,-23.992,-78.352005,eccentric,5,5.0,39728.0,40048.0,86471.0,106799.0,37331.0,48252.0,37432.0,61795.0,24649.0,16818.0
2026-05-06 16:16:26.865406,706369,1609506450304638,4050216996,0.847168,-0.333792,0.259616,16.0125,-4.3225,-10.19375,-40.744003,-23.264002,-79.712006,eccentric,5,5.0,39728.0,40048.0,86471.0,106799.0,37331.0,48252.0,37432.0,61795.0,24649.0,16818.0
2026-05-06 16:16:26.886226,706370,1609506450319154,4050229914,0.847168,-0.333792,0.249856,15.0325,-3.2725,-10.0275,-40.744003,-23.264002,-79.712006,eccentric,5,5.0,39728.0,40048.0,86471.0,106799.0,37331.0,48252.0,37432.0,61795.0,24649.0,16818.0
2026-05-06 16:16:26.888824,706371,1609506450328409,4050240754,0.853024,-0.35136,0.249856,12.635,-2.12625,-10.29,-40.36,-21.048,-81.832,eccentric,5,5.0,39728.0,40048.0,86471.0,106799.0,37331.0,48252.0,37432.0,61795.0,24649.0,16818.0
2026-05-06 16:16:26.897481,706372,1609506450337333,4050249479,0.853024,-0.35136,0.249856,12.5125,-1.4175,-9.555,-40.36,-21.048,-81.832,eccentric,5,5.0,39728.0,40048.0,86471.0,106799.0,37331.0,48252.0,37432.0,61795.0,24649.0,16818.0
2026-05-06 16:16:26.912605,706373,1609506450351891,4050264372,0.8784,-0.345504,0.257664,12.25,-1.16375,-8.47,-40.216003,-21.616001,-79.79201,eccentric,5,5.0,39728.0,40048.0,86471.0,106799.0,37331.0,48252.0,37432.0,61795.0,24649.0,16818.0
2026-05-06 16:16:27.001339,706384,1609506450361271,4050273315,0.85888,-0.325984,0.259616,13.1425,-0.9275,-7.49,-40.272003,-22.28,-79.96001,eccentric,5,5.0,39678.0,40132.0,86204.0,105265.0,37159.0,48295.0,37275.0,60902.0,24477.0,16802.0
2026-05-06 16:16:27.003962,706385,1609506450375875,4050288311,0.85888,-0.325984,0.259616,13.7725,-1.23375,-6.9125,-40.272003,-22.28,-79.96001,eccentric,5,5.0,39678.0,40132.0,86204.0,105265.0,37159.0,48295.0,37275.0,60902.0,24477.0,16802.0
2026-05-06 16:16:27.006455,706386,1609506450384819,4050297019,0.872544,-0.363072,0.187392,14.21,-1.33875,-6.8075,-40.256,-21.288,-80.648,eccentric,5,5.0,39678.0,40132.0,86204.0,105265.0,37159.0,48295.0,37275.0,60902.0,24477.0,16802.0
2026-05-06 16:16:27.012626,706387,1609506450393726,4050305722,0.872544,-0.363072,0.187392,12.7225,-1.61875,-6.86875,-40.256,-21.288,-80.648,eccentric,5,5.0,39678.0,40132.0,86204.0,105265.0,37159.0,48295.0,37275.0,60902.0,24477.0,16802.0
2026-05-06 16:16:27.015116,706388,1609506450408229,4050320660,0.899872,-0.365024,0.22448,12.25,-2.24875,-6.99125,-40.264004,-20.432001,-80.744,eccentric,5,5.0,39678.0,40132.0,86204.0,105265.0,37159.0,48295.0,37275.0,60902.0,24477.0,16802.0
2026-05-06 16:16:27.017683,706389,1609506450417143,4050329403,0.899872,-0.365024,0.22448,15.3825,-2.87875,-5.17125,-40.264004,-20.432001,-80.744,eccentric,5,5.0,39678.0,40132.0,86204.0,105265.0,37159.0,48295.0,37275.0,60902.0,24477.0,16802.0
2026-05-06 16:16:27.019905,706390,1609506450431731,4050344343,0.905728,-0.372832,0.203008,16.73,-3.84125,-4.5675,-40.224003,-20.824001,-81.096,eccentric,5,5.0,39678.0,40132.0,86204.0,105265.0,37159.0,48295.0,37275.0,60902.0,24477.0,16802.0
2026-05-06 16:16:27.022457,706391,1609506450440662,4050353107,0.886208,-0.363072,0.220576,16.19625,-3.5875,-4.08625,-40.224003,-20.448002,-78.944,eccentric,5,5.0,39678.0,40132.0,86204.0,105265.0,37159.0,48295.0,37275.0,60902.0,24477.0,16802.0
2026-05-06 16:16:27.024948,706392,1609506450455213,4050366019,0.886208,-0.363072,0.220576,15.89875,-4.33125,-3.535,-40.088,-20.448002,-78.944,eccentric,5,5.0,39678.0,40132.0,86204.0,105265.0,37159.0,48295.0,37275.0,60902.0,24477.0,16802.0
2026-05-06 16:16:27.057194,706404,1609506450464568,4050376978,0.886208,-0.325984,0.247904,15.46125,-5.6,-3.70125,-40.256,-23.176,-80.256004,eccentric,5,5.0,39957.0,40350.0,86572.0,105986.0,37378.0,48443.0,37410.0,61227.0,24604.0,16866.0
2026-05-06 16:16:27.059629,706405,1609506450473620,4050385804,0.886208,-0.325984,0.247904,16.1175,-6.265,-1.54875,-40.256,-23.176,-80.256004,eccentric,5,5.0,39957.0,40350.0,86572.0,105986.0,37378.0,48443.0,37410.0,61227.0,24604.0,16866.0
2026-05-06 16:16:27.062108,706406,1609506450488192,4050400812,0.942816,-0.382592,0.206912,16.0825,-7.175,-0.98875,-40.096,-23.104002,-82.312004,eccentric,5,5.0,39957.0,40350.0,86572.0,105986.0,37378.0,48443.0,37410.0,61227.0,24604.0,16866.0
2026-05-06 16:16:27.064607,706407,1609506450497247,4050409541,0.942816,-0.382592,0.206912,12.3725,-7.35875,-2.16125,-40.096,-23.104002,-82.312004,eccentric,5,5.0,39957.0,40350.0,86572.0,105986.0,37378.0,48443.0,37410.0,61227.0,24604.0,16866.0
2026-05-06 16:16:27.072113,706408,1609506450511782,4050424512,0.94672,-0.398208,0.22448,7.1925,-7.23625,-1.26875,-40.152,-22.416,-80.200005,eccentric,5,5.0,39957.0,40350.0,86572.0,105986.0,37378.0,48443.0,37410.0,61227.0,24604.0,16866.0
2026-05-06 16:16:27.080958,706409,1609506450520832,4050433254,0.94672,-0.398208,0.244,7.175,-8.60125,1.11125,-40.152,-22.416,-80.200005,eccentric,5,5.0,39957.0,40350.0,86572.0,105986.0,37378.0,48443.0,37410.0,61227.0,24604.0,16866.0
2026-05-06 16:16:27.089655,706410,1609506450529760,4050441978,0.954528,-0.37088,0.244,9.17,-9.695,2.3975,-39.768,-22.080002,-79.504005,eccentric,5,5.0,39957.0,40350.0,86572.0,105986.0,37378.0,48443.0,37410.0,61227.0,24604.0,16866.0
2026-05-06 16:16:27.117531,706411,1609506450544320,4050456882,0.935008,-0.355264,0.232288,8.40875,-9.948751,3.24625,-39.584003,-19.92,-81.68,eccentric,5,5.0,39957.0,40350.0,86572.0,105986.0,37378.0,48443.0,37410.0,61227.0,24604.0,16866.0
2026-05-06 16:16:27.120006,706412,1609506450553218,4050465683,0.935008,-0.355264,0.232288,6.85125,-10.15875,4.12125,-39.584003,-19.92,-81.68,eccentric,5,5.0,39957.0,40350.0,86572.0,105986.0,37378.0,48443.0,37410.0,61227.0,24604.0,16866.0
2026-05-06 16:16:27.147958,706423,1609506450567813,4050478654,0.952576,-0.392352,0.187392,4.4975,-10.675,3.56125,-39.576,-19.856,-81.712006,eccentric,5,5.0,40051.0,40402.0,86740.0,106814.0,37526.0,48457.0,37487.0,61674.0,24673.0,16877.0
2026-05-06 16:16:27.150170,706424,1609506450577172,4050489456,0.952576,-0.392352,0.187392,3.64,-11.92625,1.75875,-39.576,-19.856,-81.712006,eccentric,5,5.0,40051.0,40402.0,86740.0,106814.0,37526.0,48457.0,37487.0,61674.0,24673.0,16877.0
2026-05-06 16:16:27.155530,706425,1609506450586304,4050498263,0.964288,-0.431392,0.189344,4.2175,-13.615,-2.065,-39.384003,-20.2,-81.79201,eccentric,5,5.0,40051.0,40402.0,86740.0,106814.0,37526.0,48457.0,37487.0,61674.0,24673.0,16877.0
2026-05-06 16:16:27.164258,706426,1609506450600847,4050513181,0.964288,-0.431392,0.189344,7.035,-15.60125,-1.21625,-39.384003,-20.2,-81.79201,eccentric,5,5.0,40051.0,40402.0,86740.0,106814.0,37526.0,48457.0,37487.0,61674.0,24673.0,16877.0
2026-05-06 16:16:27.170023,706427,1609506450609823,4050521945,1.057984,-0.413824,0.183488,11.025,-17.82375,2.485,-39.344,-19.704,-81.600006,eccentric,5,5.0,40051.0,40402.0,86740.0,106814.0,37526.0,48457.0,37487.0,61674.0,24673.0,16877.0
2026-05-06 16:16:27.203993,706428,1609506450624266,4050536845,1.057984,-0.38064,0.226432,10.49125,-18.52375,4.1475,-39.024002,-19.296001,-82.472,eccentric,5,5.0,40051.0,40402.0,86740.0,106814.0,37526.0,48457.0,37487.0,61674.0,24673.0,16877.0
2026-05-06 16:16:27.206418,706429,1609506450633164,4050545542,1.057984,-0.38064,0.226432,6.50125,-18.3225,5.29375,-39.024002,-19.296001,-82.472,eccentric,5,5.0,40051.0,40402.0,86740.0,106814.0,37526.0,48457.0,37487.0,61674.0,24673.0,16877.0
2026-05-06 16:16:27.208967,706430,1609506450647742,4050560431,1.030656,-0.378688,0.238144,3.2375,-17.38625,4.85625,-38.936,-19.312,-82.568,eccentric,5,5.0,40051.0,40402.0,86740.0,106814.0,37526.0,48457.0,37487.0,61674.0,24673.0,16877.0
2026-05-06 16:16:27.221416,706431,1609506450656705,4050569199,1.030656,-0.378688,0.238144,4.47125,-18.34,3.19375,-38.936,-19.312,-82.568,eccentric,5,5.0,40051.0,40402.0,86740.0,106814.0,37526.0,48457.0,37487.0,61674.0,24673.0,16877.0
2026-05-06 16:16:27.248673,706442,1609506450665834,4050578055,1.022848,-0.404064,0.191296,7.06125,-19.8275,2.21375,-38.640003,-20.064001,-81.536,eccentric,5,5.0,40088.0,40570.0,86765.0,106995.0,37576.0,48626.0,37526.0,61838.0,24685.0,16908.0
2026-05-06 16:16:27.251180,706443,1609506450680385,4050593004,1.022848,-0.404064,0.191296,12.005,-19.97625,2.52,-38.640003,-20.064001,-81.536,eccentric,5,5.0,40088.0,40570.0,86765.0,106995.0,37576.0,48626.0,37526.0,61838.0,24685.0,16908.0
2026-05-06 16:16:27.259758,706444,1609506450689340,4050601778,1.030656,-0.386496,0.21472,17.15,-20.116251,4.4275,-38.592003,-20.592001,-83.11201,eccentric,5,5.0,40088.0,40570.0,86765.0,106995.0,37576.0,48626.0,37526.0,61838.0,24685.0,16908.0
2026-05-06 16:16:27.285044,706445,1609506450703908,4050614788,1.016992,-0.345504,0.169824,18.4625,-20.32625,4.8825,-38.136,-19.328001,-82.69601,eccentric,5,5.0,40088.0,40570.0,86765.0,106995.0,37576.0,48626.0,37526.0,61838.0,24685.0,16908.0
2026-05-06 16:16:27.287493,706446,1609506450713216,4050625598,1.016992,-0.345504,0.169824,19.03125,-22.44375,4.76,-38.136,-19.328001,-82.69601,eccentric,5,5.0,40088.0,40570.0,86765.0,106995.0,37576.0,48626.0,37526.0,61838.0,24685.0,16908.0
2026-05-06 16:16:27.290054,706447,1609506450722316,4050634320,1.016992,-0.329888,0.255712,17.710001,-23.75625,3.8675,-38.136,-19.328001,-82.69601,eccentric,5,5.0,40088.0,40570.0,86765.0,106995.0,37576.0,48626.0,37526.0,61838.0,24685.0,16908.0
2026-05-06 16:16:27.321409,706448,1609506450736802,4050649282,1.007232,-0.337696,0.255712,13.79875,-23.66875,2.1,-37.984,-18.728,-83.04,eccentric,5,5.0,40088.0,40570.0,86765.0,106995.0,37576.0,48626.0,37526.0,61838.0,24685.0,16908.0
2026-05-06 16:16:27.346335,706449,1609506450745833,4050658023,0.964288,-0.320128,0.22448,16.03875,-23.30125,3.35125,-37.88,-19.128,-83.79201,eccentric,5,5.0,40088.0,40570.0,86765.0,106995.0,37576.0,48626.0,37526.0,61838.0,24685.0,16908.0
2026-05-06 16:16:27.397639,706460,1609506450760340,4050672884,0.964288,-0.320128,0.22448,18.9,-23.6775,4.26125,-37.88,-19.128,-83.79201,eccentric,5,5.0,40150.0,40784.0,86762.0,106605.0,37610.0,48826.0,37524.0,61607.0,24681.0,16985.0
2026-05-06 16:16:27.400099,706461,1609506450769403,4050681656,1.003328,-0.337696,0.232288,18.0775,-23.178751,2.52,-37.152,-18.880001,-84.248,eccentric,5,5.0,40150.0,40784.0,86762.0,106605.0,37610.0,48826.0,37524.0,61607.0,24681.0,16985.0
2026-05-06 16:16:27.402612,706462,1609506450783911,4050696577,1.022848,-0.363072,0.13664,16.12625,-20.88625,0.13125,-37.2,-18.76,-82.84801,eccentric,5,5.0,40150.0,40784.0,86762.0,106605.0,37610.0,48826.0,37524.0,61607.0,24681.0,16985.0
2026-05-06 16:16:27.405168,706463,1609506450792825,4050705307,1.022848,-0.363072,0.13664,15.8375,-19.005,-1.49625,-37.2,-18.76,-82.84801,eccentric,5,5.0,40150.0,40784.0,86762.0,106605.0,37610.0,48826.0,37524.0,61607.0,24681.0,16985.0
2026-05-06 16:16:27.407670,706464,1609506450801924,4050714042,1.022848,-0.363072,0.13664,16.3625,-17.535,-3.26375,-37.2,-18.76,-82.84801,eccentric,5,5.0,40150.0,40784.0,86762.0,106605.0,37610.0,48826.0,37524.0,61607.0,24681.0,16985.0
2026-05-06 16:16:27.410005,706465,1609506450816511,4050729107,0.962336,-0.327936,0.21472,13.71125,-15.715,-4.935,-37.048,-19.016,-82.920006,eccentric,5,5.0,40150.0,40784.0,86762.0,106605.0,37610.0,48826.0,37524.0,61607.0,24681.0,16985.0
2026-05-06 16:16:27.412667,706466,1609506450825447,4050737827,0.872544,-0.220576,0.25376,17.29,-12.88875,-2.4325,-36.864002,-18.096,-83.8,eccentric,5,5.0,40150.0,40784.0,86762.0,106605.0,37610.0,48826.0,37524.0,61607.0,24681.0,16985.0
2026-05-06 16:16:27.415167,706467,1609506450840055,4050752762,0.872544,-0.220576,0.25376,21.21875,-11.78625,-4.4975,-36.864002,-18.096,-83.8,eccentric,5,5.0,40150.0,40784.0,86762.0,106605.0,37610.0,48826.0,37524.0,61607.0,24681.0,16985.0
2026-05-06 16:16:27.417655,706468,1609506450849124,4050761538,0.933056,-0.296704,0.173728,23.135,-10.24625,-9.7125,-36.352,-20.512001,-83.37601,eccentric,5,5.0,40150.0,40784.0,86762.0,106605.0,37610.0,48826.0,37524.0,61607.0,24681.0,16985.0
2026-05-06 16:16:27.420107,706469,1609506450858070,4050770333,0.933056,-0.296704,0.173728,19.69625,-9.33625,-15.75875,-36.352,-20.512001,-83.37601,eccentric,5,5.0,40150.0,40784.0,86762.0,106605.0,37610.0,48826.0,37524.0,61607.0,24681.0,16985.0
2026-05-06 16:16:27.450015,706480,1609506450872714,4050783509,0.905728,-0.347456,0.1952,16.8175,-8.5925,-17.47375,-36.024002,-19.312,-84.624,eccentric,5,5.0,40123.0,40820.0,86759.0,106334.0,37599.0,48803.0,37525.0,61460.0,24644.0,16945.0
2026-05-06 16:16:27.452486,706481,1609506450882165,4050794314,0.905728,-0.347456,0.1952,19.678751,-7.91,-14.74375,-36.024002,-19.312,-84.624,eccentric,5,5.0,40123.0,40820.0,86759.0,106334.0,37599.0,48803.0,37525.0,61460.0,24644.0,16945.0
2026-05-06 16:16:27.456250,706482,1609506450896741,4050809306,0.823744,-0.25376,0.261568,22.645,-6.99125,-16.5375,-35.992,-18.800001,-84.47201,eccentric,5,5.0,40123.0,40820.0,86759.0,106334.0,37599.0,48803.0,37525.0,61460.0,24644.0,16945.0
2026-05-06 16:16:27.470158,706483,1609506450905712,4050818027,0.831552,-0.240096,0.169824,31.9025,-6.53625,-16.35375,-35.872,-21.2,-84.344,eccentric,5,5.0,40123.0,40820.0,86759.0,106334.0,37599.0,48803.0,37525.0,61460.0,24644.0,16945.0
2026-05-06 16:16:27.473992,706484,1609506450914699,4050826764,0.831552,-0.240096,0.169824,36.72375,-6.3175,-19.3375,-35.872,-21.2,-84.344,eccentric,5,5.0,40123.0,40820.0,86759.0,106334.0,37599.0,48803.0,37525.0,61460.0,24644.0,16945.0
2026-05-06 16:16:27.507663,706485,1609506450929206,4050841677,0.933056,-0.320128,0.111264,33.3025,-5.88875,-24.928751,-35.776,-20.728,-84.12,eccentric,5,5.0,40123.0,40820.0,86759.0,106334.0,37599.0,48803.0,37525.0,61460.0,24644.0,16945.0
2026-05-06 16:16:27.510147,706486,1609506450938123,4050850391,0.933056,-0.320128,0.111264,30.38875,-5.52125,-25.515,-35.776,-20.728,-84.12,eccentric,5,5.0,40123.0,40820.0,86759.0,106334.0,37599.0,48803.0,37525.0,61460.0,24644.0,16945.0
2026-05-06 16:16:27.516074,706487,1609506450952622,4050865281,0.77104,-0.206912,0.261568,21.88375,-3.00125,-27.13375,-35.528,-18.864,-84.912,eccentric,5,5.0,40123.0,40820.0,86759.0,106334.0,37599.0,48803.0,37525.0,61460.0,24644.0,16945.0
2026-05-06 16:16:27.550104,706498,1609506450961597,4050874112,0.77104,-0.206912,0.261568,22.155,-0.53375,-27.1775,-35.528,-18.864,-84.912,eccentric,5,5.0,40050.0,40682.0,86767.0,106974.0,37615.0,48608.0,37468.0,61796.0,24665.0,16877.0
2026-05-06 16:16:27.552628,706499,1609506450976253,4050887066,0.735904,-0.1464,0.134688,29.61875,0.84875,-29.88125,-35.104,-20.064001,-85.256004,eccentric,5,5.0,40050.0,40682.0,86767.0,106974.0,37615.0,48608.0,37468.0,61796.0,24665.0,16877.0
2026-05-06 16:16:27.555070,706500,1609506450985553,4050897915,0.923296,-0.267424,0.124928,36.35625,-0.23625,-33.20625,-34.936,-19.872002,-85.47201,eccentric,5,5.0,40050.0,40682.0,86767.0,106974.0,37615.0,48608.0,37468.0,61796.0,24665.0,16877.0
2026-05-06 16:16:27.557580,706501,1609506450994508,4050906651,0.923296,-0.267424,0.124928,32.0075,-2.1175,-36.26875,-34.936,-19.872002,-85.47201,eccentric,5,5.0,40050.0,40682.0,86767.0,106974.0,37615.0,48608.0,37468.0,61796.0,24665.0,16877.0
2026-05-06 16:16:27.577627,706502,1609506451009067,4050921583,0.675392,-0.203008,0.222528,28.53375,-1.49625,-36.732502,-35.224003,-21.352001,-83.856,eccentric,5,5.0,40050.0,40682.0,86767.0,106974.0,37615.0,48608.0,37468.0,61796.0,24665.0,16877.0
2026-05-06 16:16:27.580052,706503,1609506451018016,4050930308,0.675392,-0.203008,0.222528,34.107502,-1.35625,-36.25125,-35.224003,-21.352001,-83.856,eccentric,5,5.0,40050.0,40682.0,86767.0,106974.0,37615.0,48608.0,37468.0,61796.0,24665.0,16877.0
2026-05-06 16:16:27.593995,706504,1609506451032717,4050945259,0.724192,-0.134688,0.144448,35.6125,-3.36,-39.095,-34.672,-22.384,-82.79201,eccentric,5,5.0,40050.0,40682.0,86767.0,106974.0,37615.0,48608.0,37468.0,61796.0,24665.0,16877.0
2026-05-06 16:16:27.601419,706505,1609506451041739,4050953969,0.724192,-0.134688,0.144448,36.98625,-4.515,-38.73625,-34.672,-22.384,-82.79201,eccentric,5,5.0,40050.0,40682.0,86767.0,106974.0,37615.0,48608.0,37468.0,61796.0,24665.0,16877.0
2026-05-06 16:16:27.615135,706506,1609506451050742,4050962755,0.981856,-0.244,0.167872,36.81125,-3.87625,-39.47125,-34.664,-20.432001,-85.11201,eccentric,5,5.0,40050.0,40682.0,86767.0,106974.0,37615.0,48608.0,37468.0,61796.0,24665.0,16877.0
2026-05-06 16:16:27.656198,706517,1609506451065510,4050977737,0.65392,-0.076128,0.314272,28.77,-0.21875,-44.66875,-34.664,-21.184002,-83.496,eccentric,5,5.0,40114.0,40910.0,86818.0,108797.0,37850.0,48870.0,37497.0,62931.0,24805.0,17020.0
2026-05-06 16:16:27.658931,706518,1609506451074536,4050986600,0.64416,-0.076128,0.314272,30.31,5.285,-43.732502,-34.04,-21.184002,-83.496,eccentric,5,5.0,40114.0,40910.0,86818.0,108797.0,37850.0,48870.0,37497.0,62931.0,24805.0,17020.0
2026-05-06 16:16:27.661319,706519,1609506451089162,4051001590,0.562176,0.07808,0.20496,35.37625,5.565,-42.14,-34.04,-21.104,-85.024,eccentric,5,5.0,40114.0,40910.0,86818.0,108797.0,37850.0,48870.0,37497.0,62931.0,24805.0,17020.0
2026-05-06 16:16:27.686421,706520,1609506451098115,4051010338,0.562176,0.07808,0.20496,44.8875,3.15875,-39.94375,-34.04,-21.104,-85.024,eccentric,5,5.0,40114.0,40910.0,86818.0,108797.0,37850.0,48870.0,37497.0,62931.0,24805.0,17020.0
2026-05-06 16:16:27.713700,706521,1609506451107067,4051019097,0.976,-0.23424,0.052704,40.31125,-1.8725,-43.53125,-33.960003,-21.344002,-84.328,eccentric,5,5.0,40114.0,40910.0,86818.0,108797.0,37850.0,48870.0,37497.0,62931.0,24805.0,17020.0
2026-05-06 16:16:27.726891,706522,1609506451121586,4051034049,0.976,-0.23424,0.052704,18.82125,-2.91375,-47.705,-33.960003,-21.344002,-84.328,eccentric,5,5.0,40114.0,40910.0,86818.0,108797.0,37850.0,48870.0,37497.0,62931.0,24805.0,17020.0
2026-05-06 16:16:27.728934,706523,1609506451130564,4051042760,0.753472,-0.21472,0.21472,6.50125,2.07375,-48.0725,-33.480003,-21.824001,-84.776,eccentric,5,5.0,40114.0,40910.0,86818.0,108797.0,37850.0,48870.0,37497.0,62931.0,24805.0,17020.0
2026-05-06 16:16:27.731265,706524,1609506451145095,4051057666,0.753472,-0.21472,0.21472,21.62125,7.93625,-47.46875,-33.480003,-21.824001,-84.776,eccentric,5,5.0,40114.0,40910.0,86818.0,108797.0,37850.0,48870.0,37497.0,62931.0,24805.0,17020.0
2026-05-06 16:16:27.736285,706525,1609506451153988,4051066556,0.493856,0.070272,0.232288,46.85625,8.12875,-44.44125,-33.576,-21.76,-85.856,eccentric,5,5.0,40114.0,40910.0,86818.0,108797.0,37850.0,48870.0,37497.0,62931.0,24805.0,17020.0
2026-05-06 16:16:27.766504,706536,1609506451168683,4051079469,0.714432,-0.011712,0.11712,50.1725,4.92625,-40.32,-33.04,-22.112001,-85.200005,eccentric,5,5.0,40069.0,41046.0,87072.0,109031.0,37859.0,49061.0,37658.0,63021.0,24791.0,17101.0
2026-05-06 16:16:27.769005,706537,1609506451178033,4051090389,0.714432,-0.011712,0.11712,32.0775,1.58375,-38.22875,-33.04,-22.112001,-85.200005,eccentric,5,5.0,40069.0,41046.0,87072.0,109031.0,37859.0,49061.0,37658.0,63021.0,24791.0,17101.0
2026-05-06 16:16:27.771405,706538,1609506451186953,4051099134,0.8296,-0.18544,0.124928,13.3875,0.0525,-38.40375,-33.192,-22.664001,-85.704,eccentric,5,5.0,40069.0,41046.0,87072.0,109031.0,37859.0,49061.0,37658.0,63021.0,24791.0,17101.0
2026-05-06 16:16:27.773894,706539,1609506451201562,4051114108,0.8296,-0.18544,0.124928,1.6975,0.81375,-36.26875,-33.192,-22.664001,-85.704,eccentric,5,5.0,40069.0,41046.0,87072.0,109031.0,37859.0,49061.0,37658.0,63021.0,24791.0,17101.0
2026-05-06 16:16:27.776471,706540,1609506451210649,4051122860,0.5856,-0.017568,0.177632,7.27125,1.58375,-40.1625,-33.168003,-23.880001,-84.26401,eccentric,5,5.0,40069.0,41046.0,87072.0,109031.0,37859.0,49061.0,37658.0,63021.0,24791.0,17101.0
2026-05-06 16:16:27.785178,706541,1609506451225200,4051137797,0.5856,-0.017568,0.177632,29.68,-0.315,-40.425,-33.168003,-23.880001,-84.26401,eccentric,5,5.0,40069.0,41046.0,87072.0,109031.0,37859.0,49061.0,37658.0,63021.0,24791.0,17101.0
2026-05-06 16:16:27.796190,706542,1609506451234121,4051146619,0.630496,0.02928,0.232288,37.61625,-2.135,-35.72625,-32.992,-22.504002,-84.464005,eccentric,5,5.0,40069.0,41046.0,87072.0,109031.0,37859.0,49061.0,37658.0,63021.0,24791.0,17101.0
2026-05-06 16:16:27.807354,706543,1609506451243048,4051155371,0.630496,0.02928,0.232288,29.33875,-2.4675,-35.21875,-32.992,-22.504002,-84.464005,eccentric,5,5.0,40069.0,41046.0,87072.0,109031.0,37859.0,49061.0,37658.0,63021.0,24791.0,17101.0
2026-05-06 16:16:27.818954,706544,1609506451257550,4051170352,0.755424,-0.17568,0.095648,15.925,-4.19125,-35.315,-32.832,-24.952002,-84.37601,eccentric,5,5.0,40069.0,41046.0,87072.0,109031.0,37859.0,49061.0,37658.0,63021.0,24791.0,17101.0
2026-05-06 16:16:27.855153,706555,1609506451266904,4051179596,0.755424,-0.0976,0.171776,7.23625,-5.62625,-29.9775,-32.832,-24.952002,-84.688,eccentric,5,5.0,40339.0,41137.0,87712.0,109722.0,38143.0,49228.0,37936.0,63487.0,24914.0,17181.0
2026-05-06 16:16:27.857653,706556,1609506451281812,4051192670,0.733952,-0.095648,0.171776,13.1425,-5.06625,-26.7575,-32.552002,-27.224,-84.688,eccentric,5,5.0,40339.0,41137.0,87712.0,109722.0,38143.0,49228.0,37936.0,63487.0,24914.0,17181.0
2026-05-06 16:16:27.862601,706557,1609506451291240,4051203466,0.6344,-0.021472,0.187392,27.76375,-5.3025,-26.1275,-32.576,-26.568,-84.392006,eccentric,5,5.0,40339.0,41137.0,87712.0,109722.0,38143.0,49228.0,37936.0,63487.0,24914.0,17181.0
2026-05-06 16:16:27.865142,706558,1609506451300214,4051212165,0.6344,-0.021472,0.187392,33.232502,-6.32625,-24.56125,-32.576,-26.568,-84.392006,eccentric,5,5.0,40339.0,41137.0,87712.0,109722.0,38143.0,49228.0,37936.0,63487.0,24914.0,17181.0
2026-05-06 16:16:27.879088,706559,1609506451314725,4051227101,0.866688,-0.113216,0.109312,27.65,-3.9725,-18.375,-32.36,-22.912,-85.536,eccentric,5,5.0,40339.0,41137.0,87712.0,109722.0,38143.0,49228.0,37936.0,63487.0,24914.0,17181.0
2026-05-06 16:16:27.882583,706560,1609506451323681,4051235819,0.866688,-0.113216,0.109312,19.97625,-0.86625,-12.73125,-32.36,-22.912,-85.536,eccentric,5,5.0,40339.0,41137.0,87712.0,109722.0,38143.0,49228.0,37936.0,63487.0,24914.0,17181.0
2026-05-06 16:16:27.925005,706561,1609506451338234,4051250874,0.767136,-0.132736,0.210816,13.6325,1.4525,-16.2575,-32.36,-25.264002,-84.664,eccentric,5,5.0,40339.0,41137.0,87712.0,109722.0,38143.0,49228.0,37936.0,63487.0,24914.0,17181.0
2026-05-06 16:16:27.927545,706562,1609506451347164,4051259588,0.767136,-0.021472,0.228384,12.83625,1.505,-17.40375,-32.36,-25.264002,-84.664,eccentric,5,5.0,40339.0,41137.0,87712.0,109722.0,38143.0,49228.0,37936.0,63487.0,24914.0,17181.0
2026-05-06 16:16:27.930015,706563,1609506451356148,4051268290,0.749568,-0.021472,0.228384,14.13125,1.67125,-13.34375,-31.832,-22.912,-85.928,eccentric,5,5.0,40339.0,41137.0,87712.0,109722.0,38143.0,49228.0,37936.0,63487.0,24914.0,17181.0
2026-05-06 16:16:27.969090,706574,1609506451370893,4051283251,0.874496,-0.113216,0.10736,17.2375,2.98375,-11.445,-32.328003,-22.512001,-86.152,eccentric,5,5.0,40354.0,41105.0,88152.0,111093.0,38220.0,49213.0,38179.0,64130.0,24948.0,17206.0
2026-05-06 16:16:27.971413,706575,1609506451380149,4051292160,0.874496,-0.113216,0.10736,15.435,4.27875,-11.1475,-32.328003,-22.512001,-86.152,eccentric,5,5.0,40354.0,41105.0,88152.0,111093.0,38220.0,49213.0,38179.0,64130.0,24948.0,17206.0
2026-05-06 16:16:27.974001,706576,1609506451394642,4051307150,0.876448,-0.154208,0.279136,12.5475,6.37875,-9.7125,-32.168003,-24.68,-83.68,eccentric,5,5.0,40354.0,41105.0,88152.0,111093.0,38220.0,49213.0,38179.0,64130.0,24948.0,17206.0
2026-05-06 16:16:27.976400,706577,1609506451403588,4051315915,0.876448,-0.154208,0.279136,8.47,7.665,-10.43875,-32.168003,-24.68,-83.68,eccentric,5,5.0,40354.0,41105.0,88152.0,111093.0,38220.0,49213.0,38179.0,64130.0,24948.0,17206.0
2026-05-06 16:16:27.979060,706578,1609506451418363,4051330993,0.796416,0.01952,0.210816,10.185,9.86125,-12.08375,-32.048,-22.904001,-85.536,eccentric,5,5.0,40354.0,41105.0,88152.0,111093.0,38220.0,49213.0,38179.0,64130.0,24948.0,17206.0
2026-05-06 16:16:27.987654,706579,1609506451427307,4051339773,0.796416,0.01952,0.210816,13.57125,10.3425,-14.7875,-32.048,-22.904001,-85.536,eccentric,5,5.0,40354.0,41105.0,88152.0,111093.0,38220.0,49213.0,38179.0,64130.0,24948.0,17206.0
2026-05-06 16:16:27.997586,706580,1609506451436272,4051348465,0.85888,-0.062464,0.148352,9.905,10.8675,-18.41,-32.144,-22.816002,-87.22401,eccentric,5,5.0,40354.0,41105.0,88152.0,111093.0,38220.0,49213.0,38179.0,64130.0,24948.0,17206.0
2026-05-06 16:16:28.016247,706581,1609506451450886,4051363377,0.755424,-0.101504,0.169824,2.52875,11.10375,-17.08875,-32.264,-22.952002,-85.952,eccentric,5,5.0,40354.0,41105.0,88152.0,111093.0,38220.0,49213.0,38179.0,64130.0,24948.0,17206.0
2026-05-06 16:16:28.018820,706582,1609506451459782,4051372099,0.755424,-0.101504,0.169824,2.1175,9.77375,-13.16875,-32.264,-22.952002,-85.952,eccentric,5,5.0,40354.0,41105.0,88152.0,111093.0,38220.0,49213.0,38179.0,64130.0,24948.0,17206.0
