pc_time,serial_num,sensor_ts,host_ts,ax,ay,az,gx,gy,gz,mx,my,mz,phase,rpe,weight_kg,ppg_a,ppg_b,ppg_c,ppg_d,ppg_e,ppg_f,ppg_g,ppg_h,ppg_i,ppg_j
2026-05-06 16:16:46.573933,710076,1609506469974920,4069887918,0.71248,-0.081984,0.162016,-14.7875,6.53625,8.60125,-34.432003,-21.424002,-84.58401,concentric,5,5.0,39735.0,41949.0,88345.0,105185.0,36437.0,49278.0,38194.0,59973.0,23619.0,16992.0
2026-05-06 16:16:46.576086,710077,1609506469984018,4069896678,0.71248,-0.081984,0.162016,-18.0075,7.20125,7.6125,-34.432003,-21.424002,-84.58401,concentric,5,5.0,39735.0,41949.0,88345.0,105185.0,36437.0,49278.0,38194.0,59973.0,23619.0,16992.0
2026-05-06 16:16:46.578795,710078,1609506469998613,4069909617,0.808128,-0.20496,0.191296,-25.15625,7.65625,6.23875,-34.304,-22.464,-83.176,concentric,5,5.0,39735.0,41949.0,88345.0,105185.0,36437.0,49278.0,38194.0,59973.0,23619.0,16992.0
2026-05-06 16:16:46.581102,710079,1609506470007832,4069920583,0.808128,-0.13664,0.271328,-30.8,9.09125,6.7025,-34.304,-22.464,-84.256004,concentric,5,5.0,39735.0,41949.0,88345.0,105185.0,36437.0,49278.0,38194.0,59973.0,23619.0,16992.0
2026-05-06 16:16:46.583589,710080,1609506470016838,4069929342,0.808128,-0.13664,0.271328,-24.68375,7.23625,12.0925,-34.928,-23.248001,-84.256004,concentric,5,5.0,39735.0,41949.0,88345.0,105185.0,36437.0,49278.0,38194.0,59973.0,23619.0,16992.0
2026-05-06 16:16:46.590007,710081,1609506470031476,4069942297,0.845216,-0.05856,0.23424,-20.545,6.7375,14.385,-35.192,-22.744001,-82.952,concentric,5,5.0,39735.0,41949.0,88345.0,105185.0,36437.0,49278.0,38194.0,59973.0,23619.0,16992.0
2026-05-06 16:16:46.605080,710082,1609506470040842,4069953128,0.845216,-0.05856,0.23424,-15.9425,5.97625,14.245,-35.192,-22.744001,-82.952,concentric,5,5.0,39735.0,41949.0,88345.0,105185.0,36437.0,49278.0,38194.0,59973.0,23619.0,16992.0
2026-05-06 16:16:46.618866,710083,1609506470055336,4069968038,0.909632,-0.154208,0.20496,-13.755,6.27375,10.89375,-35.112003,-21.392,-84.16,concentric,5,5.0,39735.0,41949.0,88345.0,105185.0,36437.0,49278.0,38194.0,59973.0,23619.0,16992.0
2026-05-06 16:16:46.627807,710084,1609506470064396,4069976737,0.909632,-0.154208,0.20496,-14.20125,7.14875,6.825,-35.112003,-21.392,-84.16,concentric,5,5.0,39735.0,41949.0,88345.0,105185.0,36437.0,49278.0,38194.0,59973.0,23619.0,16992.0
2026-05-06 16:16:46.636257,710085,1609506470073325,4069985442,0.895968,-0.220576,0.22448,-14.11375,8.05875,6.92125,-35.152,-22.144001,-82.648,concentric,5,5.0,39735.0,41949.0,88345.0,105185.0,36437.0,49278.0,38194.0,59973.0,23619.0,16992.0
2026-05-06 16:16:46.669896,710096,1609506470088022,4070000447,0.895968,-0.220576,0.271328,-13.51,8.715,8.8375,-35.152,-22.144001,-82.648,concentric,5,5.0,39603.0,41841.0,88309.0,104948.0,36320.0,49195.0,38214.0,59936.0,23524.0,16935.0
2026-05-06 16:16:46.672534,710097,1609506470097041,4070009172,0.913536,-0.158112,0.271328,-9.19625,7.7525,9.80875,-35.488003,-24.448002,-82.128006,concentric,5,5.0,39603.0,41841.0,88309.0,104948.0,36320.0,49195.0,38214.0,59936.0,23524.0,16935.0
2026-05-06 16:16:46.675112,710098,1609506470111590,4070024118,0.853024,-0.081984,0.294752,-5.775,7.77,9.24,-35.24,-20.416,-83.968,concentric,5,5.0,39603.0,41841.0,88309.0,104948.0,36320.0,49195.0,38214.0,59936.0,23524.0,16935.0
2026-05-06 16:16:46.681262,710099,1609506470120540,4070032834,0.853024,-0.081984,0.294752,-3.395,8.0675,9.2575,-35.24,-20.416,-83.968,concentric,5,5.0,39603.0,41841.0,88309.0,104948.0,36320.0,49195.0,38214.0,59936.0,23524.0,16935.0
2026-05-06 16:16:46.690054,710100,1609506470129476,4070041567,0.85888,-0.13664,0.27328,-1.81125,8.19,8.91625,-35.608,-22.12,-82.504005,concentric,5,5.0,39603.0,41841.0,88309.0,104948.0,36320.0,49195.0,38214.0,59936.0,23524.0,16935.0
2026-05-06 16:16:46.723970,710101,1609506470143975,4070056537,0.85888,-0.13664,0.27328,-2.975,8.11125,8.40875,-35.608,-22.12,-82.504005,concentric,5,5.0,39603.0,41841.0,88309.0,104948.0,36320.0,49195.0,38214.0,59936.0,23524.0,16935.0
2026-05-06 16:16:46.726346,710102,1609506470152894,4070065235,0.854976,-0.187392,0.240096,-3.98125,8.53125,9.72125,-35.68,-20.664001,-83.192,concentric,5,5.0,39603.0,41841.0,88309.0,104948.0,36320.0,49195.0,38214.0,59936.0,23524.0,16935.0
2026-05-06 16:16:46.728972,710103,1609506470167556,4070080177,0.854976,-0.187392,0.240096,-4.71625,9.31875,10.185,-35.68,-20.664001,-83.192,concentric,5,5.0,39603.0,41841.0,88309.0,104948.0,36320.0,49195.0,38214.0,59936.0,23524.0,16935.0
2026-05-06 16:16:46.767711,710114,1609506470176485,4070089075,0.81984,-0.173728,0.244,-6.23,9.80875,8.05875,-36.2,-20.304,-82.69601,concentric,5,5.0,39564.0,41712.0,88127.0,104284.0,36216.0,49099.0,38128.0,59603.0,23510.0,16880.0
2026-05-06 16:16:46.770167,710115,1609506470191045,4070101999,0.74176,-0.074176,0.300608,-6.3175,10.395,8.26875,-36.08,-21.36,-83.096,concentric,5,5.0,39564.0,41712.0,88127.0,104284.0,36216.0,49099.0,38128.0,59603.0,23510.0,16880.0
2026-05-06 16:16:46.772673,710116,1609506470200498,4070112928,0.74176,-0.074176,0.300608,-3.01,10.64875,10.2375,-36.08,-21.36,-83.096,concentric,5,5.0,39564.0,41712.0,88127.0,104284.0,36216.0,49099.0,38128.0,59603.0,23510.0,16880.0
2026-05-06 16:16:46.797623,710117,1609506470209435,4070121685,0.774944,-0.124928,0.284992,-3.85875,10.24625,11.7075,-36.08,-21.36,-82.48801,concentric,5,5.0,39564.0,41712.0,88127.0,104284.0,36216.0,49099.0,38128.0,59603.0,23510.0,16880.0
2026-05-06 16:16:46.822379,710118,1609506470224016,4070136683,0.774944,-0.124928,0.284992,-8.46125,10.92875,12.705,-36.472,-21.36,-82.48801,concentric,5,5.0,39564.0,41712.0,88127.0,104284.0,36216.0,49099.0,38128.0,59603.0,23510.0,16880.0
2026-05-06 16:16:46.837479,710119,1609506470232961,4070145391,0.749568,-0.1952,0.259616,-14.5075,11.66375,12.50375,-36.248,-20.136002,-83.008,concentric,5,5.0,39564.0,41712.0,88127.0,104284.0,36216.0,49099.0,38128.0,59603.0,23510.0,16880.0
2026-05-06 16:16:46.839939,710120,1609506470247464,4070158274,0.749568,-0.1952,0.259616,-15.4,10.7975,12.6875,-36.248,-20.136002,-83.008,concentric,5,5.0,39564.0,41712.0,88127.0,104284.0,36216.0,49099.0,38128.0,59603.0,23510.0,16880.0
2026-05-06 16:16:46.842583,710121,1609506470256748,4070169059,0.72224,-0.17568,0.242048,-10.1325,8.53125,12.95875,-36.656002,-20.728,-83.144005,concentric,5,5.0,39564.0,41712.0,88127.0,104284.0,36216.0,49099.0,38128.0,59603.0,23510.0,16880.0
2026-05-06 16:16:46.845166,710122,1609506470265644,4070177750,0.72224,-0.17568,0.242048,-3.115,6.65875,13.93,-36.656002,-20.728,-83.144005,concentric,5,5.0,39564.0,41712.0,88127.0,104284.0,36216.0,49099.0,38128.0,59603.0,23510.0,16880.0
2026-05-06 16:16:46.879049,710133,1609506470280795,4070192763,0.720288,-0.124928,0.257664,0.7875,5.46,14.23625,-36.768,-22.512001,-82.08,concentric,5,5.0,39729.0,41876.0,87929.0,103469.0,36315.0,49282.0,38019.0,59086.0,23543.0,16971.0
2026-05-06 16:16:46.881379,710134,1609506470289875,4070201600,0.720288,-0.128832,0.26352,0.91,5.94125,14.7,-36.768,-22.512001,-80.032005,concentric,5,5.0,39729.0,41876.0,87929.0,103469.0,36315.0,49282.0,38019.0,59086.0,23543.0,16971.0
2026-05-06 16:16:46.883995,710135,1609506470304448,4070216623,0.724192,-0.128832,0.26352,-3.91125,7.23625,15.365,-36.824,-21.112001,-81.392006,concentric,5,5.0,39729.0,41876.0,87929.0,103469.0,36315.0,49282.0,38019.0,59086.0,23543.0,16971.0
2026-05-06 16:16:46.886498,710136,1609506470313398,4070225319,0.747616,-0.189344,0.257664,-10.045,8.47,14.91,-37.104,-21.080002,-81.976006,concentric,5,5.0,39729.0,41876.0,87929.0,103469.0,36315.0,49282.0,38019.0,59086.0,23543.0,16971.0
2026-05-06 16:16:46.889066,710137,1609506470322323,4070233989,0.747616,-0.189344,0.257664,-11.24375,8.67125,14.8925,-37.104,-21.080002,-81.976006,concentric,5,5.0,39729.0,41876.0,87929.0,103469.0,36315.0,49282.0,38019.0,59086.0,23543.0,16971.0
2026-05-06 16:16:46.897639,710138,1609506470336889,4070248925,0.737856,-0.189344,0.288896,-11.45375,8.39125,14.0875,-37.248,-20.088001,-82.304,concentric,5,5.0,39729.0,41876.0,87929.0,103469.0,36315.0,49282.0,38019.0,59086.0,23543.0,16971.0
2026-05-06 16:16:46.908464,710139,1609506470345812,4070257652,0.737856,-0.189344,0.288896,-6.60625,8.23375,14.14,-37.248,-20.088001,-82.304,concentric,5,5.0,39729.0,41876.0,87929.0,103469.0,36315.0,49282.0,38019.0,59086.0,23543.0,16971.0
2026-05-06 16:16:46.939807,710140,1609506470360432,4070272588,0.798368,-0.218624,0.304512,-1.6275,8.35625,15.1725,-37.408,-19.128,-83.024,concentric,5,5.0,39729.0,41876.0,87929.0,103469.0,36315.0,49282.0,38019.0,59086.0,23543.0,16971.0
2026-05-06 16:16:46.942317,710141,1609506470369382,4070281337,0.798368,-0.218624,0.304512,-9.05625,11.2525,11.935,-37.408,-19.128,-83.024,concentric,5,5.0,39729.0,41876.0,87929.0,103469.0,36315.0,49282.0,38019.0,59086.0,23543.0,16971.0
2026-05-06 16:16:46.977647,710152,1609506470384213,4070296636,0.733952,-0.189344,0.32208,-13.97375,14.7875,11.305,-37.672,-18.240002,-81.352005,concentric,5,5.0,39832.0,42016.0,87881.0,103197.0,36395.0,49493.0,37996.0,58971.0,23534.0,17018.0
2026-05-06 16:16:46.980141,710153,1609506470393246,4070305389,0.747616,-0.21472,0.306464,-10.70125,15.89875,12.81875,-37.256,-17.968,-82.456,concentric,5,5.0,39832.0,42016.0,87881.0,103197.0,36395.0,49493.0,37996.0,58971.0,23534.0,17018.0
2026-05-06 16:16:46.982670,710154,1609506470402267,4070314126,0.747616,-0.21472,0.306464,-5.22375,15.26,11.655,-37.256,-17.968,-82.456,concentric,5,5.0,39832.0,42016.0,87881.0,103197.0,36395.0,49493.0,37996.0,58971.0,23534.0,17018.0
2026-05-06 16:16:46.985163,710155,1609506470416775,4070329083,0.784704,-0.23424,0.25376,-1.365,15.198751,11.43625,-37.68,-17.928001,-82.43201,concentric,5,5.0,39832.0,42016.0,87881.0,103197.0,36395.0,49493.0,37996.0,58971.0,23534.0,17018.0
2026-05-06 16:16:46.987655,710156,1609506470425700,4070337898,0.784704,-0.23424,0.25376,0.46375,15.39125,12.6175,-37.68,-17.928001,-82.43201,concentric,5,5.0,39832.0,42016.0,87881.0,103197.0,36395.0,49493.0,37996.0,58971.0,23534.0,17018.0
2026-05-06 16:16:47.025095,710157,1609506470440261,4070352804,0.792512,-0.199104,0.366976,-1.54875,14.60375,12.17125,-38.280003,-17.784,-82.152,concentric,5,5.0,39832.0,42016.0,87881.0,103197.0,36395.0,49493.0,37996.0,58971.0,23534.0,17018.0
2026-05-06 16:16:47.026306,710158,1609506470449180,4070361552,0.792512,-0.199104,0.366976,-6.4925,16.82625,10.4125,-38.280003,-17.784,-82.152,concentric,5,5.0,39832.0,42016.0,87881.0,103197.0,36395.0,49493.0,37996.0,58971.0,23534.0,17018.0
2026-05-06 16:16:47.026381,710159,1609506470458115,4070370284,0.76128,-0.17568,0.353312,-6.86,17.465,10.40375,-38.216003,-17.088001,-81.43201,concentric,5,5.0,39832.0,42016.0,87881.0,103197.0,36395.0,49493.0,37996.0,58971.0,23534.0,17018.0
2026-05-06 16:16:47.034999,710160,1609506470472638,4070385353,0.75152,-0.179584,0.261568,-9.45875,17.50875,7.105,-38.384003,-18.656,-80.272,concentric,5,5.0,39832.0,42016.0,87881.0,103197.0,36395.0,49493.0,37996.0,58971.0,23534.0,17018.0
2026-05-06 16:16:47.066405,710171,1609506470481965,4070394132,0.75152,-0.179584,0.261568,-8.54875,16.19625,3.78875,-38.384003,-18.656,-80.272,concentric,5,5.0,40017.0,42223.0,88056.0,103512.0,36542.0,49729.0,38072.0,59069.0,23615.0,17111.0
2026-05-06 16:16:47.068991,710172,1609506470496588,4070409166,0.798368,-0.228384,0.386496,-1.19,12.1975,3.885,-38.632,-18.696001,-80.448006,concentric,5,5.0,40017.0,42223.0,88056.0,103512.0,36542.0,49729.0,38072.0,59069.0,23615.0,17111.0
2026-05-06 16:16:47.071412,710173,1609506470505519,4070417869,0.798368,-0.228384,0.386496,0.51625,9.555,3.42125,-38.632,-18.696001,-80.448006,concentric,5,5.0,40017.0,42223.0,88056.0,103512.0,36542.0,49729.0,38072.0,59069.0,23615.0,17111.0
2026-05-06 16:16:47.074954,710174,1609506470514466,4070426569,0.765184,-0.181536,0.398208,-4.33125,10.01875,1.855,-38.592003,-19.016,-80.90401,concentric,5,5.0,40017.0,42223.0,88056.0,103512.0,36542.0,49729.0,38072.0,59069.0,23615.0,17111.0
2026-05-06 16:16:47.095589,710175,1609506470529017,4070441525,0.765184,-0.181536,0.398208,-0.98875,9.73875,3.68375,-38.592003,-19.016,-80.90401,concentric,5,5.0,40017.0,42223.0,88056.0,103512.0,36542.0,49729.0,38072.0,59069.0,23615.0,17111.0
2026-05-06 16:16:47.098615,710176,1609506470537973,4070450289,0.730048,-0.144448,0.345504,-0.4375,8.995,2.9575,-38.752003,-16.824001,-81.856,concentric,5,5.0,40017.0,42223.0,88056.0,103512.0,36542.0,49729.0,38072.0,59069.0,23615.0,17111.0
2026-05-06 16:16:47.126248,710177,1609506470552472,4070465199,0.794464,-0.167872,0.353312,-3.33375,8.95125,-1.12875,-38.736,-16.656,-81.944,concentric,5,5.0,40017.0,42223.0,88056.0,103512.0,36542.0,49729.0,38072.0,59069.0,23615.0,17111.0
2026-05-06 16:16:47.128934,710178,1609506470561394,4070473916,0.794464,-0.167872,0.353312,-1.855,6.88625,-1.5925,-38.736,-16.656,-81.944,concentric,5,5.0,40017.0,42223.0,88056.0,103512.0,36542.0,49729.0,38072.0,59069.0,23615.0,17111.0
2026-05-06 16:16:47.137555,710179,1609506470575880,4070486761,0.792512,-0.203008,0.382592,-1.14625,5.90625,-2.52,-39.328003,-16.536001,-81.712006,concentric,5,5.0,40017.0,42223.0,88056.0,103512.0,36542.0,49729.0,38072.0,59069.0,23615.0,17111.0
2026-05-06 16:16:47.231232,710190,1609506470585371,4070497744,0.792512,-0.203008,0.382592,-1.21625,6.0025,-3.29875,-39.328003,-16.536001,-81.712006,concentric,5,5.0,40050.0,42236.0,88108.0,103445.0,36533.0,49725.0,38108.0,59055.0,23627.0,17101.0
2026-05-06 16:16:47.233826,710191,1609506470594329,4070506521,0.772992,-0.150304,0.37088,2.3625,5.13625,-2.54625,-39.144,-16.168001,-81.864006,concentric,5,5.0,40050.0,42236.0,88108.0,103445.0,36533.0,49725.0,38108.0,59055.0,23627.0,17101.0
2026-05-06 16:16:47.238833,710192,1609506470608849,4070521454,0.772992,-0.150304,0.37088,4.0775,4.43625,-4.13,-39.144,-16.168001,-81.864006,concentric,5,5.0,40050.0,42236.0,88108.0,103445.0,36533.0,49725.0,38108.0,59055.0,23627.0,17101.0
2026-05-06 16:16:47.241232,710193,1609506470617813,4070530208,0.841312,-0.1464,0.37088,1.61875,4.50625,-7.0875,-39.064003,-16.504002,-81.928,concentric,5,5.0,40050.0,42236.0,88108.0,103445.0,36533.0,49725.0,38108.0,59055.0,23627.0,17101.0
2026-05-06 16:16:47.243877,710194,1609506470632297,4070543053,0.841312,-0.255712,0.327936,-2.38,4.24375,-10.63125,-39.064003,-16.504002,-81.928,concentric,5,5.0,40050.0,42236.0,88108.0,103445.0,36533.0,49725.0,38108.0,59055.0,23627.0,17101.0
2026-05-06 16:16:47.246055,710195,1609506470641489,4070553862,0.892064,-0.26352,0.327936,-8.7325,4.41,-14.5075,-39.792004,-16.688002,-81.01601,concentric,5,5.0,40050.0,42236.0,88108.0,103445.0,36533.0,49725.0,38108.0,59055.0,23627.0,17101.0
2026-05-06 16:16:47.248883,710196,1609506470650403,4070562563,0.892064,-0.26352,0.327936,-11.6375,5.99375,-16.30125,-39.792004,-16.688002,-81.01601,concentric,5,5.0,40050.0,42236.0,88108.0,103445.0,36533.0,49725.0,38108.0,59055.0,23627.0,17101.0
2026-05-06 16:16:47.251147,710197,1609506470665039,4070577526,0.866688,-0.247904,0.376736,-5.3025,6.43125,-15.81125,-39.448,-16.296001,-81.424,concentric,5,5.0,40050.0,42236.0,88108.0,103445.0,36533.0,49725.0,38108.0,59055.0,23627.0,17101.0
2026-05-06 16:16:47.253881,710198,1609506470674066,4070586267,0.899872,-0.167872,0.359168,5.34625,6.3175,-17.675,-40.0,-18.464,-80.32001,concentric,5,5.0,40050.0,42236.0,88108.0,103445.0,36533.0,49725.0,38108.0,59055.0,23627.0,17101.0
2026-05-06 16:16:47.284910,710209,1609506470688830,4070601432,0.899872,-0.167872,0.359168,12.9325,5.88875,-19.31125,-40.0,-18.464,-80.32001,concentric,5,5.0,40143.0,42262.0,88236.0,103576.0,36559.0,49693.0,38160.0,59141.0,23644.0,17095.0
2026-05-06 16:16:47.291216,710210,1609506470697881,4070610175,0.919392,-0.18544,0.366976,13.5625,7.04375,-21.56,-40.08,-19.072,-80.104004,concentric,5,5.0,40143.0,42262.0,88236.0,103576.0,36559.0,49693.0,38160.0,59141.0,23644.0,17095.0
2026-05-06 16:16:47.293356,710211,1609506470712405,4070625104,0.919392,-0.18544,0.366976,9.77375,8.995,-23.7475,-40.08,-19.072,-80.104004,concentric,5,5.0,40143.0,42262.0,88236.0,103576.0,36559.0,49693.0,38160.0,59141.0,23644.0,17095.0
2026-05-06 16:16:47.294804,710212,1609506470721346,4070633828,0.899872,-0.25376,0.407968,5.6175,10.91125,-24.54375,-39.824,-16.968,-82.496,concentric,5,5.0,40143.0,42262.0,88236.0,103576.0,36559.0,49693.0,38160.0,59141.0,23644.0,17095.0
2026-05-06 16:16:47.297424,710213,1609506470730249,4070642562,0.899872,-0.25376,0.407968,1.6975,11.45375,-23.975,-39.824,-16.968,-82.496,concentric,5,5.0,40143.0,42262.0,88236.0,103576.0,36559.0,49693.0,38160.0,59141.0,23644.0,17095.0
2026-05-06 16:16:47.306336,710214,1609506470744770,4070657522,0.856928,-0.177632,0.398208,1.6625,10.7275,-24.00125,-40.528004,-17.992,-81.408005,concentric,5,5.0,40143.0,42262.0,88236.0,103576.0,36559.0,49693.0,38160.0,59141.0,23644.0,17095.0
2026-05-06 16:16:47.314944,710215,1609506470753685,4070666281,0.911584,-0.138592,0.353312,3.675,8.96875,-25.47125,-40.528004,-20.896002,-78.28001,concentric,5,5.0,40143.0,42262.0,88236.0,103576.0,36559.0,49693.0,38160.0,59141.0,23644.0,17095.0
2026-05-06 16:16:47.328858,710216,1609506470768201,4070679149,0.911584,-0.138592,0.353312,3.9725,7.0,-28.81375,-40.616,-20.896002,-78.28001,concentric,5,5.0,40143.0,42262.0,88236.0,103576.0,36559.0,49693.0,38160.0,59141.0,23644.0,17095.0
2026-05-06 16:16:47.348926,710217,1609506470777823,4070689920,0.991616,-0.259616,0.398208,4.095,6.825,-33.24125,-40.712,-17.688002,-81.44,concentric,5,5.0,40143.0,42262.0,88236.0,103576.0,36559.0,49693.0,38160.0,59141.0,23644.0,17095.0
2026-05-06 16:16:47.376418,710228,1609506470786922,4070699070,0.991616,-0.259616,0.398208,4.19125,7.5775,-34.685,-40.712,-17.688002,-81.44,concentric,5,5.0,40170.0,42173.0,88189.0,103771.0,36506.0,49480.0,38055.0,59187.0,23613.0,17028.0
2026-05-06 16:16:47.379078,710229,1609506470801523,4070714087,0.9272,-0.240096,0.417728,3.12375,8.02375,-33.99375,-40.376003,-17.944,-81.232,concentric,5,5.0,40170.0,42173.0,88189.0,103771.0,36506.0,49480.0,38055.0,59187.0,23613.0,17028.0
2026-05-06 16:16:47.383365,710230,1609506470810459,4070722841,0.9272,-0.240096,0.417728,6.0375,7.245,-33.43375,-40.376003,-17.944,-81.232,concentric,5,5.0,40170.0,42173.0,88189.0,103771.0,36506.0,49480.0,38055.0,59187.0,23613.0,17028.0
2026-05-06 16:16:47.383798,710231,1609506470824984,4070735881,0.90768,-0.13664,0.35136,10.4125,5.34625,-32.8475,-40.784,-19.960001,-80.344,concentric,5,5.0,40170.0,42173.0,88189.0,103771.0,36506.0,49480.0,38055.0,59187.0,23613.0,17028.0
2026-05-06 16:16:47.396176,710232,1609506470834410,4070746688,0.979904,-0.232288,0.413824,10.2725,4.43625,-35.385,-40.728,-20.048,-80.96001,concentric,5,5.0,40170.0,42173.0,88189.0,103771.0,36506.0,49480.0,38055.0,59187.0,23613.0,17028.0
2026-05-06 16:16:47.404683,710233,1609506470843357,4070755381,0.979904,-0.232288,0.413824,7.07875,4.94375,-38.2725,-40.728,-20.048,-80.96001,concentric,5,5.0,40170.0,42173.0,88189.0,103771.0,36506.0,49480.0,38055.0,59187.0,23613.0,17028.0
2026-05-06 16:16:47.418545,710234,1609506470857876,4070770331,0.952576,-0.279136,0.435296,4.12125,6.475,-38.94625,-40.552002,-19.144001,-81.44,concentric,5,5.0,40170.0,42173.0,88189.0,103771.0,36506.0,49480.0,38055.0,59187.0,23613.0,17028.0
2026-05-06 16:16:47.427521,710235,1609506470866931,4070779052,0.952576,-0.279136,0.435296,6.0725,7.37625,-36.505,-40.552002,-19.144001,-81.44,concentric,5,5.0,40170.0,42173.0,88189.0,103771.0,36506.0,49480.0,38055.0,59187.0,23613.0,17028.0
2026-05-06 16:16:47.469016,710246,1609506470881441,4070794037,0.99552,-0.189344,0.454816,14.83125,5.69625,-32.7075,-40.600002,-20.872002,-79.888,concentric,5,5.0,40148.0,42085.0,88217.0,104308.0,36488.0,49316.0,38082.0,59447.0,23640.0,16976.0
2026-05-06 16:16:47.471407,710247,1609506470890507,4070802797,0.99552,-0.189344,0.454816,18.99625,3.77125,-31.3775,-40.600002,-20.872002,-79.888,concentric,5,5.0,40148.0,42085.0,88217.0,104308.0,36488.0,49316.0,38082.0,59447.0,23640.0,16976.0
2026-05-06 16:16:47.473987,710248,1609506470899646,4070811530,0.999424,-0.142496,0.4392,16.975,3.815,-31.57,-40.696003,-19.536001,-81.176,concentric,5,5.0,40148.0,42085.0,88217.0,104308.0,36488.0,49316.0,38082.0,59447.0,23640.0,16976.0
2026-05-06 16:16:47.476416,710249,1609506470914200,4070826535,0.999424,-0.142496,0.392352,10.33375,4.71625,-31.85,-40.696003,-19.536001,-81.176,concentric,5,5.0,40148.0,42085.0,88217.0,104308.0,36488.0,49316.0,38082.0,59447.0,23640.0,16976.0
2026-05-06 16:16:47.484988,710250,1609506470923142,4070835284,0.960384,-0.20496,0.404064,4.1475,5.355,-31.82375,-40.464,-20.0,-82.920006,concentric,5,5.0,40148.0,42085.0,88217.0,104308.0,36488.0,49316.0,38082.0,59447.0,23640.0,16976.0
2026-05-06 16:16:47.502517,710251,1609506470937701,4070850268,0.972096,-0.212768,0.398208,2.02125,5.5125,-31.36,-41.112003,-20.288,-81.256004,concentric,5,5.0,40148.0,42085.0,88217.0,104308.0,36488.0,49316.0,38082.0,59447.0,23640.0,16976.0
2026-05-06 16:16:47.506269,710252,1609506470946612,4070858979,0.972096,-0.212768,0.398208,5.95,4.1475,-28.5075,-41.112003,-20.288,-81.256004,concentric,5,5.0,40148.0,42085.0,88217.0,104308.0,36488.0,49316.0,38082.0,59447.0,23640.0,16976.0
2026-05-06 16:16:47.531040,710253,1609506470961273,4070873940,0.938912,-0.109312,0.37088,9.8525,3.19375,-27.1425,-40.632004,-20.248001,-80.944,concentric,5,5.0,40148.0,42085.0,88217.0,104308.0,36488.0,49316.0,38082.0,59447.0,23640.0,16976.0
2026-05-06 16:16:47.556388,710254,1609506470970209,4070882649,0.938912,-0.109312,0.37088,10.17625,3.22,-25.90875,-40.632004,-20.248001,-80.944,concentric,5,5.0,40148.0,42085.0,88217.0,104308.0,36488.0,49316.0,38082.0,59447.0,23640.0,16976.0
2026-05-06 16:16:47.577495,710255,1609506470979172,4070891387,0.94672,-0.074176,0.423584,7.04375,2.52875,-25.7425,-40.616,-20.904001,-80.496,concentric,5,5.0,40148.0,42085.0,88217.0,104308.0,36488.0,49316.0,38082.0,59447.0,23640.0,16976.0
2026-05-06 16:16:47.608942,710266,1609506470993759,4070906381,0.94672,-0.074176,0.423584,-0.21,2.89625,-26.78375,-40.616,-20.904001,-80.496,concentric,5,5.0,40247.0,42176.0,88249.0,105131.0,36645.0,49355.0,38096.0,59823.0,23735.0,17013.0
2026-05-06 16:16:47.611368,710267,1609506471002875,4070915073,0.94672,-0.16592,0.378688,-5.85375,2.5025,-26.25875,-40.864002,-20.888,-79.144005,concentric,5,5.0,40247.0,42176.0,88249.0,105131.0,36645.0,49355.0,38096.0,59823.0,23735.0,17013.0
2026-05-06 16:16:47.613871,710268,1609506471017371,4070930050,0.913536,-0.130784,0.396256,-10.17625,1.93375,-25.24375,-40.888,-21.064001,-80.79201,concentric,5,5.0,40247.0,42176.0,88249.0,105131.0,36645.0,49355.0,38096.0,59823.0,23735.0,17013.0
2026-05-06 16:16:47.616209,710269,1609506471026307,4070938777,0.913536,-0.130784,0.396256,-6.99125,0.7875,-23.0125,-40.888,-21.064001,-80.79201,concentric,5,5.0,40247.0,42176.0,88249.0,105131.0,36645.0,49355.0,38096.0,59823.0,23735.0,17013.0
2026-05-06 16:16:47.618971,710270,1609506471035278,4070947527,0.913536,-0.130784,0.386496,-0.7,-0.3675,-20.06375,-40.888,-21.064001,-80.79201,concentric,5,5.0,40247.0,42176.0,88249.0,105131.0,36645.0,49355.0,38096.0,59823.0,23735.0,17013.0
2026-05-06 16:16:47.621395,710271,1609506471049790,4070962457,0.909632,-0.076128,0.386496,1.1375,-0.8225,-18.24375,-40.592003,-21.208,-81.22401,concentric,5,5.0,40247.0,42176.0,88249.0,105131.0,36645.0,49355.0,38096.0,59823.0,23735.0,17013.0
2026-05-06 16:16:47.623974,710272,1609506471058775,4070971204,0.90768,-0.095648,0.349408,1.54875,-0.5775,-16.28375,-40.912003,-25.064001,-78.32001,concentric,5,5.0,40247.0,42176.0,88249.0,105131.0,36645.0,49355.0,38096.0,59823.0,23735.0,17013.0
2026-05-06 16:16:47.632665,710273,1609506471073318,4070984142,0.90768,-0.095648,0.349408,1.3475,-1.32125,-15.8375,-40.912003,-25.064001,-78.32001,concentric,5,5.0,40247.0,42176.0,88249.0,105131.0,36645.0,49355.0,38096.0,59823.0,23735.0,17013.0
2026-05-06 16:16:47.673156,710284,1609506471082602,4070994898,0.876448,-0.095648,0.363072,-0.2275,-1.37375,-16.45,-40.424004,-21.504002,-80.944,concentric,5,5.0,40176.0,42179.0,88215.0,105111.0,36636.0,49337.0,38071.0,59851.0,23752.0,17007.0
2026-05-06 16:16:47.675715,710285,1609506471097254,4071010059,0.845216,-0.021472,0.378688,-0.37625,-1.58375,-15.39125,-40.656002,-25.12,-77.69601,concentric,5,5.0,40176.0,42179.0,88215.0,105111.0,36636.0,49337.0,38071.0,59851.0,23752.0,17007.0
2026-05-06 16:16:47.676245,710286,1609506471106226,4071018853,0.845216,-0.021472,0.378688,0.07,-2.45875,-13.64125,-40.656002,-25.12,-77.69601,concentric,5,5.0,40176.0,42179.0,88215.0,105111.0,36636.0,49337.0,38071.0,59851.0,23752.0,17007.0
2026-05-06 16:16:47.678767,710287,1609506471115176,4071027629,0.845216,-0.021472,0.378688,2.5725,-3.2025,-11.90875,-40.656002,-25.12,-77.69601,concentric,5,5.0,40176.0,42179.0,88215.0,105111.0,36636.0,49337.0,38071.0,59851.0,23752.0,17007.0
2026-05-06 16:16:47.700001,710288,1609506471129853,4071042574,0.85888,-0.027328,0.343552,1.39125,-3.01,-12.145,-40.480003,-23.984001,-80.104004,concentric,5,5.0,40176.0,42179.0,88215.0,105111.0,36636.0,49337.0,38071.0,59851.0,23752.0,17007.0
2026-05-06 16:16:47.702519,710289,1609506471138803,4071051268,0.83936,-0.056608,0.366976,-2.58125,-1.81125,-13.30875,-40.576,-22.856,-80.12,concentric,5,5.0,40176.0,42179.0,88215.0,105111.0,36636.0,49337.0,38071.0,59851.0,23752.0,17007.0
2026-05-06 16:16:47.712304,710290,1609506471153329,4071064277,0.83936,-0.056608,0.366976,-3.64,-1.25125,-12.71375,-40.576,-22.856,-80.12,concentric,5,5.0,40176.0,42179.0,88215.0,105111.0,36636.0,49337.0,38071.0,59851.0,23752.0,17007.0
2026-05-06 16:16:47.726325,710291,1609506471162751,4071075072,0.827648,-0.064416,0.357216,0.385,-1.295,-12.45125,-40.352,-22.016,-80.976006,concentric,5,5.0,40176.0,42179.0,88215.0,105111.0,36636.0,49337.0,38071.0,59851.0,23752.0,17007.0
2026-05-06 16:16:47.732644,710292,1609506471171673,4071083771,0.827648,-0.064416,0.357216,4.48875,-1.05,-11.7425,-40.352,-22.016,-80.976006,concentric,5,5.0,40176.0,42179.0,88215.0,105111.0,36636.0,49337.0,38071.0,59851.0,23752.0,17007.0
2026-05-06 16:16:47.789975,710303,1609506471186387,4071097229,0.827648,-0.011712,0.36112,6.02,-0.35875,-10.49125,-40.2,-21.888,-80.84801,concentric,5,5.0,40202.0,42228.0,88206.0,105520.0,36709.0,49395.0,38098.0,60053.0,23828.0,17048.0
2026-05-06 16:16:47.792511,710304,1609506471195782,4071108091,0.827648,-0.011712,0.36112,3.5,0.35875,-10.5,-40.2,-21.888,-80.84801,concentric,5,5.0,40202.0,42228.0,88206.0,105520.0,36709.0,49395.0,38098.0,60053.0,23828.0,17048.0
2026-05-06 16:16:47.794977,710305,1609506471210316,4071121083,0.804224,0.046848,0.349408,-1.16375,0.4375,-10.40375,-40.2,-22.168001,-81.32001,concentric,5,5.0,40202.0,42228.0,88206.0,105520.0,36709.0,49395.0,38098.0,60053.0,23828.0,17048.0
2026-05-06 16:16:47.797469,710306,1609506471219564,4071131984,0.798368,-0.003904,0.353312,-6.04625,0.84875,-10.605001,-40.472,-24.856,-78.744,concentric,5,5.0,40202.0,42228.0,88206.0,105520.0,36709.0,49395.0,38098.0,60053.0,23828.0,17048.0
2026-05-06 16:16:47.800014,710307,1609506471228546,4071140713,0.798368,-0.003904,0.353312,-9.65125,1.645,-11.61125,-40.472,-24.856,-78.744,concentric,5,5.0,40202.0,42228.0,88206.0,105520.0,36709.0,49395.0,38098.0,60053.0,23828.0,17048.0
2026-05-06 16:16:47.804883,710308,1609506471243187,4071155621,0.831552,-0.062464,0.353312,-8.3125,1.77625,-11.042501,-40.824,-25.712002,-78.712006,concentric,5,5.0,40202.0,42228.0,88206.0,105520.0,36709.0,49395.0,38098.0,60053.0,23828.0,17048.0
2026-05-06 16:16:47.812358,710309,1609506471252153,4071164431,0.831552,-0.062464,0.353312,-5.3375,1.37375,-9.44125,-40.824,-25.712002,-78.712006,concentric,5,5.0,40202.0,42228.0,88206.0,105520.0,36709.0,49395.0,38098.0,60053.0,23828.0,17048.0
2026-05-06 16:16:47.826309,710310,1609506471266634,4071177396,0.81008,-0.005856,0.406016,-1.6275,0.70875,-8.37375,-40.088,-22.288,-81.01601,concentric,5,5.0,40202.0,42228.0,88206.0,105520.0,36709.0,49395.0,38098.0,60053.0,23828.0,17048.0
2026-05-06 16:16:47.840143,710311,1609506471275836,4071188235,0.81008,-0.005856,0.406016,1.18125,0.28875,-6.685,-40.088,-22.288,-81.01601,concentric,5,5.0,40202.0,42228.0,88206.0,105520.0,36709.0,49395.0,38098.0,60053.0,23828.0,17048.0
2026-05-06 16:16:47.874805,710322,1609506471285004,4071196987,0.81984,0.056608,0.357216,2.2925,0.00875,-4.6725,-40.024002,-22.288,-81.208,concentric,5,5.0,40121.0,42173.0,88023.0,105813.0,36685.0,49310.0,37961.0,60166.0,23795.0,17015.0
2026-05-06 16:16:47.874947,710323,1609506471299648,4071211970,0.84912,0.0,0.37088,1.54,0.07,-4.69,-40.440002,-23.056002,-80.8,concentric,5,5.0,40121.0,42173.0,88023.0,105813.0,36685.0,49310.0,37961.0,60166.0,23795.0,17015.0
2026-05-06 16:16:47.898843,710324,1609506471308655,4071220801,0.84912,0.0,0.37088,-2.42375,-0.2275,-5.39875,-40.440002,-23.056002,-80.8,concentric,5,5.0,40121.0,42173.0,88023.0,105813.0,36685.0,49310.0,37961.0,60166.0,23795.0,17015.0
2026-05-06 16:16:47.923817,710325,1609506471323191,4071235723,0.841312,-0.035136,0.382592,-4.8825,0.09625,-5.705,-40.408,-24.392002,-79.736,eccentric,5,5.0,40121.0,42173.0,88023.0,105813.0,36685.0,49310.0,37961.0,60166.0,23795.0,17015.0
2026-05-06 16:16:47.948959,710326,1609506471332113,4071244509,0.841312,-0.035136,0.382592,-2.485,-0.30625,-4.31375,-40.408,-24.392002,-79.736,eccentric,5,5.0,40121.0,42173.0,88023.0,105813.0,36685.0,49310.0,37961.0,60166.0,23795.0,17015.0
2026-05-06 16:16:47.953980,710327,1609506471341043,4071253227,0.847168,-0.01952,0.404064,-0.11375,-1.3125,-2.96625,-40.304,-22.400002,-81.296005,eccentric,5,5.0,40121.0,42173.0,88023.0,105813.0,36685.0,49310.0,37961.0,60166.0,23795.0,17015.0
2026-05-06 16:16:47.956416,710328,1609506471355560,4071268129,0.847168,-0.01952,0.404064,1.085,-2.17875,-1.715,-40.304,-22.400002,-81.296005,eccentric,5,5.0,40121.0,42173.0,88023.0,105813.0,36685.0,49310.0,37961.0,60166.0,23795.0,17015.0
2026-05-06 16:16:47.958988,710329,1609506471364507,4071276842,0.83936,0.005856,0.366976,-0.0525,-2.625,-1.225,-40.320004,-22.768002,-81.216,eccentric,5,5.0,40121.0,42173.0,88023.0,105813.0,36685.0,49310.0,37961.0,60166.0,23795.0,17015.0
2026-05-06 16:16:47.961388,710330,1609506471378995,4071289749,0.83936,-0.011712,0.374784,-0.55125,-2.89625,-1.155,-40.320004,-22.400002,-83.16,eccentric,5,5.0,40121.0,42173.0,88023.0,105813.0,36685.0,49310.0,37961.0,60166.0,23795.0,17015.0
2026-05-06 16:16:47.988863,710341,1609506471388818,4071300552,0.83936,-0.011712,0.374784,-1.49625,-3.26375,-0.91,-40.320004,-22.400002,-83.16,eccentric,5,5.0,40082.0,42195.0,87963.0,106151.0,36651.0,49309.0,37955.0,60370.0,23757.0,16996.0
2026-05-06 16:16:47.991251,710342,1609506471397855,4071309338,0.83936,-0.011712,0.3904,-2.59,-3.3075,-0.97125,-40.320004,-22.400002,-83.16,eccentric,5,5.0,40082.0,42195.0,87963.0,106151.0,36651.0,49309.0,37955.0,60370.0,23757.0,16996.0
2026-05-06 16:16:47.993879,710343,1609506471412367,4071324347,0.870592,-0.037088,0.40016,-1.54,-3.35125,-0.20125,-40.24,-22.272001,-83.392006,eccentric,5,5.0,40082.0,42195.0,87963.0,106151.0,36651.0,49309.0,37955.0,60370.0,23757.0,16996.0
2026-05-06 16:16:47.996212,710344,1609506471421408,4071333096,0.870592,-0.021472,0.386496,0.525,-4.0075,0.09625,-40.36,-25.896002,-78.75201,eccentric,5,5.0,40082.0,42195.0,87963.0,106151.0,36651.0,49309.0,37955.0,60370.0,23757.0,16996.0
2026-05-06 16:16:47.998904,710345,1609506471436012,4071348099,0.870592,-0.021472,0.386496,1.25125,-5.52125,-0.13125,-40.36,-25.896002,-78.75201,eccentric,5,5.0,40082.0,42195.0,87963.0,106151.0,36651.0,49309.0,37955.0,60370.0,23757.0,16996.0
2026-05-06 16:16:48.007578,710346,1609506471445014,4071356847,0.880352,-0.011712,0.357216,1.00625,-7.63875,-0.46375,-40.168003,-23.808,-80.304,eccentric,5,5.0,40082.0,42195.0,87963.0,106151.0,36651.0,49309.0,37955.0,60370.0,23757.0,16996.0
2026-05-06 16:16:48.022666,710347,1609506471459662,4071371831,0.905728,-0.03904,0.368928,-1.04125,-9.35375,-0.6825,-40.032,-22.392,-79.22401,eccentric,5,5.0,40082.0,42195.0,87963.0,106151.0,36651.0,49309.0,37955.0,60370.0,23757.0,16996.0
2026-05-06 16:16:48.029083,710348,1609506471468777,4071380556,0.905728,-0.03904,0.368928,-2.59,-10.2375,-0.6825,-40.032,-22.392,-79.22401,eccentric,5,5.0,40082.0,42195.0,87963.0,106151.0,36651.0,49309.0,37955.0,60370.0,23757.0,16996.0
2026-05-06 16:16:48.037682,710349,1609506471477794,4071389276,0.905728,-0.03904,0.368928,-3.28125,-10.675,-0.55125,-40.032,-22.392,-79.22401,eccentric,5,5.0,40082.0,42195.0,87963.0,106151.0,36651.0,49309.0,37955.0,60370.0,23757.0,16996.0
2026-05-06 16:16:48.073846,710360,1609506471492496,4071404267,0.944768,-0.064416,0.386496,-1.23375,-11.865,0.48125,-40.072002,-24.104002,-81.424,eccentric,5,5.0,40018.0,42168.0,87982.0,106579.0,36604.0,49305.0,37980.0,60691.0,23715.0,16987.0
2026-05-06 16:16:48.076201,710361,1609506471501455,4071413078,0.952576,-0.06832,0.359168,1.16375,-13.011251,2.0125,-40.216003,-23.968,-80.784004,eccentric,5,5.0,40018.0,42168.0,87982.0,106579.0,36604.0,49305.0,37980.0,60691.0,23715.0,16987.0
2026-05-06 16:16:48.078914,710362,1609506471515973,4071428096,0.952576,-0.06832,0.359168,1.39125,-14.2625,3.85,-40.216003,-23.968,-80.784004,eccentric,5,5.0,40018.0,42168.0,87982.0,106579.0,36604.0,49305.0,37980.0,60691.0,23715.0,16987.0
2026-05-06 16:16:48.090152,710363,1609506471524904,4071436848,0.99552,-0.076128,0.417728,-1.8025,-14.4375,6.16,-39.856003,-22.832,-81.96001,eccentric,5,5.0,40018.0,42168.0,87982.0,106579.0,36604.0,49305.0,37980.0,60691.0,23715.0,16987.0
2026-05-06 16:16:48.096293,710364,1609506471533837,4071445530,0.99552,-0.076128,0.417728,-4.10375,-13.32625,8.9775,-39.856003,-22.832,-81.96001,eccentric,5,5.0,40018.0,42168.0,87982.0,106579.0,36604.0,49305.0,37980.0,60691.0,23715.0,16987.0
2026-05-06 16:16:48.110088,710365,1609506471548337,4071460454,0.997472,-0.070272,0.42944,-3.63125,-12.83625,11.33125,-39.72,-22.68,-80.75201,eccentric,5,5.0,40018.0,42168.0,87982.0,106579.0,36604.0,49305.0,37980.0,60691.0,23715.0,16987.0
2026-05-06 16:16:48.119000,710366,1609506471557228,4071469155,0.997472,-0.070272,0.42944,-1.75,-12.78375,13.53625,-39.72,-22.68,-80.75201,eccentric,5,5.0,40018.0,42168.0,87982.0,106579.0,36604.0,49305.0,37980.0,60691.0,23715.0,16987.0
2026-05-06 16:16:48.133995,710367,1609506471571955,4071484115,0.981856,-0.06832,0.382592,0.44625,-13.51,15.12875,-39.768,-23.248001,-81.296005,eccentric,5,5.0,40018.0,42168.0,87982.0,106579.0,36604.0,49305.0,37980.0,60691.0,23715.0,16987.0
2026-05-06 16:16:48.140153,710368,1609506471581028,4071492799,1.036512,-0.099552,0.40016,0.42,-14.49875,16.70375,-39.584003,-21.344002,-82.632,eccentric,5,5.0,40018.0,42168.0,87982.0,106579.0,36604.0,49305.0,37980.0,60691.0,23715.0,16987.0
2026-05-06 16:16:48.176321,710379,1609506471590264,4071501729,1.036512,-0.099552,0.40016,-1.9775,-14.6825,18.83,-39.584003,-21.344002,-82.632,eccentric,5,5.0,39922.0,42134.0,87947.0,106275.0,36524.0,49294.0,37971.0,60582.0,23649.0,16970.0
2026-05-06 16:16:48.179020,710380,1609506471604843,4071516668,1.050176,-0.122976,0.406016,-5.39,-14.65625,21.385,-39.496002,-21.016,-82.44,eccentric,5,5.0,39922.0,42134.0,87947.0,106275.0,36524.0,49294.0,37971.0,60582.0,23649.0,16970.0
2026-05-06 16:16:48.181356,710381,1609506471613788,4071525402,1.050176,-0.122976,0.406016,-7.035,-14.6125,23.10875,-39.496002,-21.016,-82.44,eccentric,5,5.0,39922.0,42134.0,87947.0,106275.0,36524.0,49294.0,37971.0,60582.0,23649.0,16970.0
2026-05-06 16:16:48.188980,710382,1609506471628300,4071540317,1.007232,-0.091744,0.376736,-7.105,-15.0675,24.535,-39.312,-20.560001,-82.176,eccentric,5,5.0,39922.0,42134.0,87947.0,106275.0,36524.0,49294.0,37971.0,60582.0,23649.0,16970.0
2026-05-06 16:16:48.197662,710383,1609506471637219,4071549046,1.007232,-0.091744,0.376736,-5.03125,-16.6425,26.7575,-39.312,-20.560001,-82.176,eccentric,5,5.0,39922.0,42134.0,87947.0,106275.0,36524.0,49294.0,37971.0,60582.0,23649.0,16970.0
2026-05-06 16:16:48.231405,710384,1609506471651721,4071563948,1.075552,-0.105408,0.36112,-3.96375,-19.1275,28.7875,-39.456,-20.736,-82.90401,eccentric,5,5.0,39922.0,42134.0,87947.0,106275.0,36524.0,49294.0,37971.0,60582.0,23649.0,16970.0
2026-05-06 16:16:48.236420,710385,1609506471660728,4071572688,1.1224,-0.13664,0.44896,-6.18625,-20.58875,31.29875,-39.104,-19.632002,-84.384,eccentric,5,5.0,39922.0,42134.0,87947.0,106275.0,36524.0,49294.0,37971.0,60582.0,23649.0,16970.0
2026-05-06 16:16:48.242015,710386,1609506471669730,4071581402,1.1224,-0.13664,0.44896,-13.55375,-21.02625,34.37,-39.104,-19.632002,-84.384,eccentric,5,5.0,39922.0,42134.0,87947.0,106275.0,36524.0,49294.0,37971.0,60582.0,23649.0,16970.0
2026-05-06 16:16:48.267527,710387,1609506471684163,4071596334,1.097024,-0.171776,0.42944,-19.215,-20.62375,36.225,-39.248,-19.328001,-83.368004,eccentric,5,5.0,39922.0,42134.0,87947.0,106275.0,36524.0,49294.0,37971.0,60582.0,23649.0,16970.0
2026-05-06 16:16:48.330113,710398,1609506471693240,4071605183,1.097024,-0.171776,0.42944,-17.78875,-21.866251,37.66875,-39.248,-19.328001,-83.368004,eccentric,5,5.0,39968.0,42275.0,87932.0,105419.0,36606.0,49513.0,38000.0,60217.0,23646.0,17037.0
2026-05-06 16:16:48.335623,710399,1609506471707714,4071620121,1.069696,-0.150304,0.372832,-14.2975,-24.21125,38.73625,-38.848003,-18.968,-83.672005,eccentric,5,5.0,39968.0,42275.0,87932.0,105419.0,36606.0,49513.0,38000.0,60217.0,23646.0,17037.0
2026-05-06 16:16:48.339984,710400,1609506471716746,4071628915,1.069696,-0.150304,0.372832,-8.925,-26.2675,39.76875,-38.848003,-18.968,-83.672005,eccentric,5,5.0,39968.0,42275.0,87932.0,105419.0,36606.0,49513.0,38000.0,60217.0,23646.0,17037.0
2026-05-06 16:16:48.344821,710401,1609506471731431,4071643928,1.091168,-0.154208,0.382592,-3.77125,-29.05875,41.60625,-38.496002,-18.264,-84.07201,eccentric,5,5.0,39968.0,42275.0,87932.0,105419.0,36606.0,49513.0,38000.0,60217.0,23646.0,17037.0
2026-05-06 16:16:48.345129,710402,1609506471740401,4071652647,1.091168,-0.154208,0.382592,-7.77,-30.555,42.58625,-38.496002,-18.264,-84.07201,eccentric,5,5.0,39968.0,42275.0,87932.0,105419.0,36606.0,49513.0,38000.0,60217.0,23646.0,17037.0
2026-05-06 16:16:48.347482,710403,1609506471749362,4071661355,1.085312,-0.181536,0.325984,-9.98375,-31.1675,42.58625,-38.104,-18.312,-84.312004,eccentric,5,5.0,39968.0,42275.0,87932.0,105419.0,36606.0,49513.0,38000.0,60217.0,23646.0,17037.0
2026-05-06 16:16:48.349843,710404,1609506471763894,4071676337,1.046272,-0.212768,0.339648,-10.36875,-32.445,40.635,-37.904003,-17.968,-84.568,eccentric,5,5.0,39968.0,42275.0,87932.0,105419.0,36606.0,49513.0,38000.0,60217.0,23646.0,17037.0
2026-05-06 16:16:48.352520,710405,1609506471772894,4071685159,1.046272,-0.212768,0.339648,-7.6125,-32.97875,39.50625,-37.904003,-17.968,-84.568,eccentric,5,5.0,39968.0,42275.0,87932.0,105419.0,36606.0,49513.0,38000.0,60217.0,23646.0,17037.0
2026-05-06 16:16:48.405137,710416,1609506471787898,4071700684,1.028704,-0.169824,0.347456,-2.87875,-33.81875,39.6375,-37.68,-17.056002,-84.43201,eccentric,5,5.0,40360.0,42846.0,88188.0,104650.0,36917.0,50098.0,38151.0,59691.0,23803.0,17267.0
2026-05-06 16:16:48.407646,710417,1609506471796952,4071709559,1.028704,-0.169824,0.347456,2.87875,-35.14875,39.54125,-37.68,-17.056002,-84.43201,eccentric,5,5.0,40360.0,42846.0,88188.0,104650.0,36917.0,50098.0,38151.0,59691.0,23803.0,17267.0
2026-05-06 16:16:48.410003,710418,1609506471805968,4071718309,1.046272,-0.154208,0.327936,1.7675,-34.2475,36.89,-37.768,-18.816,-84.26401,eccentric,5,5.0,40360.0,42846.0,88188.0,104650.0,36917.0,50098.0,38151.0,59691.0,23803.0,17267.0
2026-05-06 16:16:48.412556,710419,1609506471820546,4071733214,1.046272,-0.154208,0.327936,-3.49125,-32.12125,33.66125,-37.768,-18.816,-84.26401,eccentric,5,5.0,40360.0,42846.0,88188.0,104650.0,36917.0,50098.0,38151.0,59691.0,23803.0,17267.0
2026-05-06 16:16:48.415176,710420,1609506471829492,4071742016,1.003328,-0.16592,0.240096,-11.3225,-28.60375,29.54875,-37.264,-18.248001,-85.952,eccentric,5,5.0,40360.0,42846.0,88188.0,104650.0,36917.0,50098.0,38151.0,59691.0,23803.0,17267.0
2026-05-06 16:16:48.417666,710421,1609506471843981,4071754889,0.968192,-0.201056,0.212768,-14.8225,-26.678751,24.8325,-36.616,-16.656,-85.73601,eccentric,5,5.0,40360.0,42846.0,88188.0,104650.0,36917.0,50098.0,38151.0,59691.0,23803.0,17267.0
2026-05-06 16:16:48.420212,710422,1609506471853341,4071765700,0.968192,-0.201056,0.212768,-12.71375,-27.7375,20.5275,-36.616,-16.656,-85.73601,eccentric,5,5.0,40360.0,42846.0,88188.0,104650.0,36917.0,50098.0,38151.0,59691.0,23803.0,17267.0
2026-05-06 16:16:48.423968,710423,1609506471862386,4071774452,0.944768,-0.173728,0.26352,-8.91625,-27.51875,17.21125,-36.688004,-17.936,-84.288,eccentric,5,5.0,40360.0,42846.0,88188.0,104650.0,36917.0,50098.0,38151.0,59691.0,23803.0,17267.0
2026-05-06 16:16:48.440058,710424,1609506471877023,4071789441,0.944768,-0.173728,0.26352,1.05875,-26.7925,17.89375,-36.688004,-17.936,-84.288,eccentric,5,5.0,40360.0,42846.0,88188.0,104650.0,36917.0,50098.0,38151.0,59691.0,23803.0,17267.0
2026-05-06 16:16:48.446187,710425,1609506471885934,4071798147,0.929152,-0.163968,0.28304,5.80125,-23.205,15.58375,-36.048,-16.552,-85.896,eccentric,5,5.0,40360.0,42846.0,88188.0,104650.0,36917.0,50098.0,38151.0,59691.0,23803.0,17267.0
2026-05-06 16:16:48.473943,710436,1609506471900565,4071813308,0.929152,-0.163968,0.28304,4.4975,-19.29375,9.3975,-36.048,-16.552,-85.896,eccentric,5,5.0,40523.0,43125.0,88287.0,104121.0,37030.0,50384.0,38192.0,59362.0,23838.0,17366.0
2026-05-06 16:16:48.476399,710437,1609506471909544,4071822055,0.876448,-0.163968,0.1952,2.31875,-15.12,5.66125,-36.048,-16.552,-85.992004,eccentric,5,5.0,40523.0,43125.0,88287.0,104121.0,37030.0,50384.0,38192.0,59362.0,23838.0,17366.0
2026-05-06 16:16:48.480123,710438,1609506471918501,4071830806,0.876448,-0.163968,0.1952,-0.35,-12.27625,1.75875,-36.048,-16.552,-85.992004,eccentric,5,5.0,40523.0,43125.0,88287.0,104121.0,37030.0,50384.0,38192.0,59362.0,23838.0,17366.0
2026-05-06 16:16:48.496312,710439,1609506471933102,4071845756,0.823744,-0.140544,0.265472,-0.49875,-10.28125,0.7875,-35.888,-16.976002,-86.07201,eccentric,5,5.0,40523.0,43125.0,88287.0,104121.0,37030.0,50384.0,38192.0,59362.0,23838.0,17366.0
2026-05-06 16:16:48.502659,710440,1609506471942028,4071854489,0.823744,-0.140544,0.275232,0.56,-7.455,0.6475,-35.888,-16.976002,-86.07201,eccentric,5,5.0,40523.0,43125.0,88287.0,104121.0,37030.0,50384.0,38192.0,59362.0,23838.0,17366.0
2026-05-06 16:16:48.516401,710441,1609506471956503,4071867427,0.76128,-0.115168,0.275232,-2.065,-5.8625,-3.2725,-35.800003,-16.848001,-86.728004,eccentric,5,5.0,40523.0,43125.0,88287.0,104121.0,37030.0,50384.0,38192.0,59362.0,23838.0,17366.0
2026-05-06 16:16:48.531322,710442,1609506471965863,4071878195,0.80032,-0.163968,0.130784,1.49625,-4.4975,-7.14875,-35.456,-18.512001,-84.4,eccentric,5,5.0,40523.0,43125.0,88287.0,104121.0,37030.0,50384.0,38192.0,59362.0,23838.0,17366.0
2026-05-06 16:16:48.538933,710443,1609506471980404,4071891264,0.80032,-0.163968,0.130784,4.99625,-3.6575,-12.0575,-35.456,-18.512001,-84.4,eccentric,5,5.0,40523.0,43125.0,88287.0,104121.0,37030.0,50384.0,38192.0,59362.0,23838.0,17366.0
2026-05-06 16:16:48.577671,710454,1609506471990089,4071902124,0.813984,-0.169824,0.230336,6.6325,-1.6625,-17.03625,-35.36,-18.448,-85.712006,eccentric,5,5.0,40409.0,43096.0,88545.0,104494.0,36931.0,50312.0,38321.0,59678.0,23823.0,17363.0
2026-05-06 16:16:48.580082,710455,1609506471999259,4071910913,0.813984,-0.169824,0.230336,8.54875,0.49875,-20.30875,-35.36,-18.448,-85.712006,eccentric,5,5.0,40409.0,43096.0,88545.0,104494.0,36931.0,50312.0,38321.0,59678.0,23823.0,17363.0
2026-05-06 16:16:48.582458,710456,1609506472013790,4071925968,0.6344,-0.056608,0.28304,2.61625,2.17,-21.4025,-34.552002,-19.496,-85.704,eccentric,5,5.0,40409.0,43096.0,88545.0,104494.0,36931.0,50312.0,38321.0,59678.0,23823.0,17363.0
2026-05-06 16:16:48.584885,710457,1609506472022738,4071934681,0.6344,-0.056608,0.124928,-1.18125,1.23375,-21.8925,-34.552002,-19.496,-85.704,eccentric,5,5.0,40409.0,43096.0,88545.0,104494.0,36931.0,50312.0,38321.0,59678.0,23823.0,17363.0
2026-05-06 16:16:48.593745,710458,1609506472031776,4071943482,0.64416,-0.08784,0.124928,2.5725,-1.365,-22.19,-35.072002,-18.256,-85.672005,eccentric,5,5.0,40409.0,43096.0,88545.0,104494.0,36931.0,50312.0,38321.0,59678.0,23823.0,17363.0
2026-05-06 16:16:48.607234,710459,1609506472046287,4071958449,0.8296,-0.240096,0.199104,2.7825,-2.835,-22.9075,-34.872,-19.888,-84.256004,eccentric,5,5.0,40409.0,43096.0,88545.0,104494.0,36931.0,50312.0,38321.0,59678.0,23823.0,17363.0
2026-05-06 16:16:48.635049,710460,1609506472055234,4071967163,0.8296,-0.240096,0.199104,-2.4675,0.95375,-27.01125,-34.872,-19.888,-84.256004,eccentric,5,5.0,40409.0,43096.0,88545.0,104494.0,36931.0,50312.0,38321.0,59678.0,23823.0,17363.0
2026-05-06 16:16:48.660120,710461,1609506472069801,4071982150,0.659776,-0.208864,0.130784,-5.11875,5.67875,-32.4625,-34.448,-18.968,-85.552,eccentric,5,5.0,40409.0,43096.0,88545.0,104494.0,36931.0,50312.0,38321.0,59678.0,23823.0,17363.0
2026-05-06 16:16:48.677663,710462,1609506472078709,4071990861,0.659776,-0.208864,0.130784,4.6375,6.15125,-36.6275,-34.448,-18.968,-85.552,eccentric,5,5.0,40409.0,43096.0,88545.0,104494.0,36931.0,50312.0,38321.0,59678.0,23823.0,17363.0
2026-05-06 16:16:48.714953,710474,1609506472093370,4072005813,0.5368,-0.040992,0.220576,10.745,3.15875,-36.47,-34.328003,-19.504002,-85.336006,eccentric,5,5.0,40179.0,42807.0,88731.0,105060.0,36762.0,49996.0,38423.0,60019.0,23770.0,17258.0
2026-05-06 16:16:48.717428,710475,1609506472102340,4072014526,0.5368,-0.040992,0.220576,17.115,1.68875,-28.8575,-34.328003,-19.504002,-85.336006,eccentric,5,5.0,40179.0,42807.0,88731.0,105060.0,36762.0,49996.0,38423.0,60019.0,23770.0,17258.0
2026-05-06 16:16:48.723155,710476,1609506472111315,4072023233,0.749568,-0.052704,0.138592,22.53125,0.27125,-23.73875,-34.096,-19.632002,-84.75201,eccentric,5,5.0,40179.0,42807.0,88731.0,105060.0,36762.0,49996.0,38423.0,60019.0,23770.0,17258.0
2026-05-06 16:16:48.723255,710477,1609506472125959,4072038177,0.84912,-0.23424,0.228384,12.67875,1.54875,-27.8775,-34.4,-21.608002,-84.32001,eccentric,5,5.0,40179.0,42807.0,88731.0,105060.0,36762.0,49996.0,38423.0,60019.0,23770.0,17258.0
2026-05-06 16:16:48.725619,710478,1609506472135045,4072046983,0.84912,-0.23424,0.228384,-4.3925,6.65,-34.71125,-34.4,-21.608002,-84.32001,eccentric,5,5.0,40179.0,42807.0,88731.0,105060.0,36762.0,49996.0,38423.0,60019.0,23770.0,17258.0
2026-05-06 16:16:48.727200,710479,1609506472149693,4072061919,0.482144,-0.095648,0.288896,-14.77875,12.31125,-40.76625,-34.280003,-21.800001,-83.768005,eccentric,5,5.0,40179.0,42807.0,88731.0,105060.0,36762.0,49996.0,38423.0,60019.0,23770.0,17258.0
2026-05-06 16:16:48.730019,710480,1609506472158625,4072070670,0.482144,-0.095648,0.288896,-7.7175,11.06875,-39.725,-34.280003,-21.800001,-83.768005,eccentric,5,5.0,40179.0,42807.0,88731.0,105060.0,36762.0,49996.0,38423.0,60019.0,23770.0,17258.0
2026-05-06 16:16:48.732411,710481,1609506472167613,4072079525,0.607072,-0.037088,0.1464,11.4275,3.2725,-33.145,-34.08,-22.68,-83.872,eccentric,5,5.0,40179.0,42807.0,88731.0,105060.0,36762.0,49996.0,38423.0,60019.0,23770.0,17258.0
2026-05-06 16:16:48.746333,710482,1609506472182150,4072094504,0.607072,-0.037088,0.1464,17.85,-1.9425,-29.015,-34.08,-22.68,-83.872,eccentric,5,5.0,40179.0,42807.0,88731.0,105060.0,36762.0,49996.0,38423.0,60019.0,23770.0,17258.0
2026-05-06 16:16:48.779027,710493,1609506472191372,4072103266,0.976,-0.230336,0.162016,14.58625,-1.91625,-25.4625,-33.856003,-20.944,-85.76,eccentric,5,5.0,40107.0,42622.0,89141.0,105957.0,36663.0,49770.0,38581.0,60579.0,23732.0,17196.0
2026-05-06 16:16:48.781381,710494,1609506472206089,4072118321,0.550464,-0.101504,0.281088,7.88375,4.12125,-32.48875,-33.760002,-21.488,-84.600006,eccentric,5,5.0,40107.0,42622.0,89141.0,105957.0,36663.0,49770.0,38581.0,60579.0,23732.0,17196.0
2026-05-06 16:16:48.788938,710495,1609506472215016,4072127023,0.550464,-0.101504,0.281088,-1.82875,11.64625,-42.70875,-33.760002,-21.488,-84.600006,eccentric,5,5.0,40107.0,42622.0,89141.0,105957.0,36663.0,49770.0,38581.0,60579.0,23732.0,17196.0
2026-05-06 16:16:48.791404,710496,1609506472229536,4072142007,0.59536,0.01952,0.142496,4.095,10.3775,-40.15375,-33.976,-22.160002,-84.984,eccentric,5,5.0,40107.0,42622.0,89141.0,105957.0,36663.0,49770.0,38581.0,60579.0,23732.0,17196.0
2026-05-06 16:16:48.798997,710497,1609506472238477,4072150766,0.59536,0.01952,0.142496,13.25625,5.64375,-34.326252,-33.976,-22.160002,-84.984,eccentric,5,5.0,40107.0,42622.0,89141.0,105957.0,36663.0,49770.0,38581.0,60579.0,23732.0,17196.0
2026-05-06 16:16:48.809912,710498,1609506472247540,4072159536,0.77104,-0.138592,0.171776,16.59875,2.765,-28.63875,-33.744003,-21.944,-84.704,eccentric,5,5.0,40107.0,42622.0,89141.0,105957.0,36663.0,49770.0,38581.0,60579.0,23732.0,17196.0
2026-05-06 16:16:48.823875,710499,1609506472262284,4072174499,0.77104,-0.138592,0.171776,12.8625,4.9875,-26.3025,-33.744003,-21.944,-84.704,eccentric,5,5.0,40107.0,42622.0,89141.0,105957.0,36663.0,49770.0,38581.0,60579.0,23732.0,17196.0
2026-05-06 16:16:48.832488,710500,1609506472271254,4072183234,0.743712,-0.265472,0.21472,2.9225,8.6625,-25.43625,-33.904003,-22.096,-84.68,eccentric,5,5.0,40107.0,42622.0,89141.0,105957.0,36663.0,49770.0,38581.0,60579.0,23732.0,17196.0
2026-05-06 16:16:48.846075,710501,1609506472285779,4072198145,0.661728,-0.040992,0.222528,-8.14625,10.96375,-26.71375,-33.712,-23.328001,-81.79201,eccentric,5,5.0,40107.0,42622.0,89141.0,105957.0,36663.0,49770.0,38581.0,60579.0,23732.0,17196.0
2026-05-06 16:16:48.879033,710512,1609506472294944,4072206975,0.661728,-0.040992,0.222528,-10.68375,10.99875,-24.38625,-33.712,-23.328001,-81.79201,eccentric,5,5.0,39864.0,42155.0,88947.0,106671.0,36477.0,49410.0,38520.0,60996.0,23691.0,17085.0
2026-05-06 16:16:48.881410,710513,1609506472303995,4072215807,0.661728,-0.040992,0.222528,0.945,8.44375,-16.77375,-33.712,-23.328001,-81.79201,eccentric,5,5.0,39864.0,42155.0,88947.0,106671.0,36477.0,49410.0,38520.0,60996.0,23691.0,17085.0
2026-05-06 16:16:48.883958,710514,1609506472318525,4072230781,0.72224,0.081984,0.18544,6.615,6.27375,-16.7475,-33.616,-24.504002,-83.520004,eccentric,5,5.0,39864.0,42155.0,88947.0,106671.0,36477.0,49410.0,38520.0,60996.0,23691.0,17085.0
2026-05-06 16:16:48.890168,710515,1609506472327466,4072239486,0.730048,-0.11712,0.191296,2.14375,6.01125,-18.62875,-33.88,-24.536001,-82.920006,eccentric,5,5.0,39864.0,42155.0,88947.0,106671.0,36477.0,49410.0,38520.0,60996.0,23691.0,17085.0
2026-05-06 16:16:48.903730,710516,1609506472342079,4072254462,0.730048,-0.11712,0.191296,-8.67125,6.6325,-20.85125,-33.88,-24.536001,-82.920006,eccentric,5,5.0,39864.0,42155.0,88947.0,106671.0,36477.0,49410.0,38520.0,60996.0,23691.0,17085.0
2026-05-06 16:16:48.912328,710517,1609506472351040,4072263184,0.749568,-0.17568,0.13664,-12.8975,5.11,-21.14,-33.56,-23.480001,-84.296005,eccentric,5,5.0,39864.0,42155.0,88947.0,106671.0,36477.0,49410.0,38520.0,60996.0,23691.0,17085.0
2026-05-06 16:16:48.951286,710518,1609506472365596,4072278118,0.749568,-0.113216,0.249856,-3.0975,1.84625,-16.93125,-33.56,-23.480001,-82.248,eccentric,5,5.0,39864.0,42155.0,88947.0,106671.0,36477.0,49410.0,38520.0,60996.0,23691.0,17085.0
2026-05-06 16:16:48.953945,710519,1609506472374530,4072286839,0.76128,-0.113216,0.249856,2.33625,1.1375,-14.46375,-33.896,-24.208002,-82.00001,eccentric,5,5.0,39864.0,42155.0,88947.0,106671.0,36477.0,49410.0,38520.0,60996.0,23691.0,17085.0
2026-05-06 16:16:48.956372,710520,1609506472383446,4072295541,0.76128,-0.113216,0.249856,-0.72625,5.62625,-11.57625,-33.896,-24.208002,-82.00001,eccentric,5,5.0,39864.0,42155.0,88947.0,106671.0,36477.0,49410.0,38520.0,60996.0,23691.0,17085.0
