pc_time,serial_num,sensor_ts,host_ts,ax,ay,az,gx,gy,gz,mx,my,mz,phase,rpe,weight_kg,ppg_a,ppg_b,ppg_c,ppg_d,ppg_e
2026-04-14 18:10:17.824395,787489,1609507711455385,5311424885,0.612928,-0.031232,-0.152256,-27.51875,44.38,-66.36,-3.112,19.928001,-29.936,concentric,7,3.0,116348.0,321903.0,200821.0,309297.0,208434.0
2026-04-14 18:10:17.860985,787500,1609507711470607,5311439903,0.710528,-0.064416,-0.320128,-32.9175,41.2125,-72.73875,-3.368,19.032001,-29.968002,concentric,7,3.0,147496.0,339772.0,238661.0,327242.0,243534.0
2026-04-14 18:10:17.863407,787501,1609507711479622,5311448754,0.659776,-0.365024,-0.162016,-58.388752,33.232502,-69.16875,-5.656,18.264,-30.432001,concentric,7,3.0,147496.0,339772.0,238661.0,327242.0,243534.0
2026-04-14 18:10:17.865908,787502,1609507711494207,5311463673,0.659776,-0.365024,-0.162016,-79.205,26.31125,-58.52,-5.656,18.264,-30.432001,concentric,7,3.0,147496.0,339772.0,238661.0,327242.0,243534.0
2026-04-14 18:10:17.871003,787503,1609507711503209,5311472476,0.650016,-0.308416,-0.251808,-68.24125,22.82875,-50.33875,-5.6,18.128,-30.504002,concentric,7,3.0,147496.0,339772.0,238661.0,327242.0,243534.0
2026-04-14 18:10:17.879655,787504,1609507711512147,5311481170,0.650016,-0.308416,-0.251808,-37.16125,24.99875,-48.78125,-5.6,18.128,-30.504002,concentric,7,3.0,147496.0,339772.0,238661.0,327242.0,243534.0
2026-04-14 18:10:17.894585,787505,1609507711526644,5311496035,0.737856,-0.179584,-0.464576,-27.195,26.775,-44.37125,-5.08,17.36,-31.072002,concentric,7,3.0,147496.0,339772.0,238661.0,327242.0,243534.0
2026-04-14 18:10:17.919751,787506,1609507711535598,5311504736,0.737856,-0.179584,-0.464576,-25.27875,28.245,-34.50125,-5.08,17.36,-31.072002,concentric,7,3.0,147496.0,339772.0,238661.0,327242.0,243534.0
2026-04-14 18:10:17.944521,787507,1609507711550087,5311519657,0.626592,-0.22448,-0.325984,-39.38375,25.40125,-27.116251,-5.656,17.496,-30.480001,concentric,7,3.0,147496.0,339772.0,238661.0,327242.0,243534.0
2026-04-14 18:10:17.951868,787508,1609507711559023,5311528345,0.571936,-0.105408,-0.259616,-36.18125,21.90125,-17.26375,-6.384,17.448,-32.504,concentric,7,3.0,147496.0,339772.0,238661.0,327242.0,243534.0
2026-04-14 18:10:17.979750,787519,1609507711573731,5311543389,0.571936,-0.105408,-0.259616,-20.3525,24.08875,-12.87125,-6.384,17.448,-32.504,concentric,7,3.0,160156.0,350143.0,252879.0,336412.0,256348.0
2026-04-14 18:10:17.982296,787520,1609507711582663,5311552154,0.669536,-0.244,-0.413824,-17.7975,23.82625,-10.8325,-6.616,17.152,-30.488,concentric,7,3.0,160156.0,350143.0,252879.0,336412.0,256348.0
2026-04-14 18:10:17.984717,787521,1609507711591746,5311560852,0.669536,-0.244,-0.413824,-24.885,20.51875,-6.22125,-6.616,17.152,-30.488,concentric,7,3.0,160156.0,350143.0,252879.0,336412.0,256348.0
2026-04-14 18:10:17.987267,787522,1609507711606406,5311575727,0.808128,-0.386496,-0.564128,-31.2375,16.84375,2.8525,-6.688,16.960001,-30.816002,concentric,7,3.0,160156.0,350143.0,252879.0,336412.0,256348.0
2026-04-14 18:10:17.989763,787523,1609507711615372,5311584477,0.808128,-0.386496,-0.564128,-18.27,13.86,9.3275,-6.688,16.960001,-30.816002,concentric,7,3.0,160156.0,350143.0,252879.0,336412.0,256348.0
2026-04-14 18:10:17.998448,787524,1609507711629902,5311599413,0.788608,-0.076128,-0.167872,5.6175,14.525,7.56875,-6.936,17.704,-29.416002,concentric,7,3.0,160156.0,350143.0,252879.0,336412.0,256348.0
2026-04-14 18:10:18.008404,787525,1609507711638891,5311608099,0.874496,-0.023424,-0.163968,31.710001,18.47125,3.5,-6.392,17.168001,-31.496002,concentric,7,3.0,160156.0,350143.0,252879.0,336412.0,256348.0
2026-04-14 18:10:18.015065,787526,1609507711647803,5311616797,0.874496,-0.023424,-0.163968,32.235,20.15125,-5.73125,-6.392,17.168001,-31.496002,concentric,7,3.0,160156.0,350143.0,252879.0,336412.0,256348.0
2026-04-14 18:10:18.034177,787527,1609507711662340,5311631712,0.895968,-0.335744,-0.394304,13.1775,20.60625,-6.16875,-6.344,16.888,-31.328001,concentric,7,3.0,160156.0,350143.0,252879.0,336412.0,256348.0
2026-04-14 18:10:18.061242,787538,1609507711671913,5311640491,0.895968,-0.335744,-0.394304,-4.78625,16.40625,1.32125,-6.344,16.888,-31.328001,concentric,7,3.0,170137.0,354204.0,264698.0,339723.0,266668.0
2026-04-14 18:10:18.063725,787539,1609507711681486,5311651368,0.901824,-0.240096,-0.171776,-9.0825,10.87625,9.0825,-6.256001,17.768002,-31.504002,concentric,7,3.0,170137.0,354204.0,264698.0,339723.0,266668.0
2026-04-14 18:10:18.066230,787540,1609507711696113,5311666359,0.901824,-0.240096,-0.171776,6.1775,10.5,10.75375,-6.256001,17.768002,-31.504002,concentric,7,3.0,170137.0,354204.0,264698.0,339723.0,266668.0
2026-04-14 18:10:18.073815,787541,1609507711705067,5311675206,0.845216,-0.12688,-0.050752,20.34375,12.22375,2.2575,-6.520001,17.392,-31.136002,concentric,7,3.0,170137.0,354204.0,264698.0,339723.0,266668.0
2026-04-14 18:10:18.087555,787542,1609507711719560,5311688048,0.81008,-0.251808,-0.218624,21.88375,14.06125,-2.7825,-6.576,17.992,-31.648,concentric,7,3.0,170137.0,354204.0,264698.0,339723.0,266668.0
2026-04-14 18:10:18.098802,787543,1609507711728853,5311698791,0.81008,-0.251808,-0.218624,19.34625,14.04375,-4.725,-6.576,17.992,-31.648,concentric,7,3.0,170137.0,354204.0,264698.0,339723.0,266668.0
2026-04-14 18:10:18.113787,787544,1609507711743365,5311713717,0.88816,-0.208864,-0.103456,18.06,11.1475,-1.91625,-7.16,17.792002,-30.184002,concentric,7,3.0,170137.0,354204.0,264698.0,339723.0,266668.0
2026-04-14 18:10:18.120835,787545,1609507711752308,5311722431,0.88816,-0.208864,-0.103456,15.00625,7.84,1.6275,-7.16,17.792002,-30.184002,concentric,7,3.0,170137.0,354204.0,264698.0,339723.0,266668.0
2026-04-14 18:10:18.130026,787546,1609507711761414,5311731252,0.802272,-0.163968,-0.222528,12.04875,6.53625,4.34,-7.592001,18.560001,-29.736002,concentric,7,3.0,170137.0,354204.0,264698.0,339723.0,266668.0
2026-04-14 18:10:18.162001,787557,1609507711776120,5311746336,0.802272,-0.163968,-0.222528,5.67875,6.64125,3.42125,-7.592001,18.560001,-29.736002,concentric,7,3.0,154597.0,350714.0,245724.0,336657.0,249917.0
2026-04-14 18:10:18.165020,787558,1609507711785176,5311755086,0.821792,-0.267424,-0.324032,0.665,5.99375,2.94,-6.84,17.776001,-31.032001,concentric,7,3.0,154597.0,350714.0,245724.0,336657.0,249917.0
2026-04-14 18:10:18.170010,787559,1609507711799677,5311770036,0.93696,-0.226432,-0.226432,2.54625,4.41875,3.07125,-7.04,18.168001,-32.992,concentric,7,3.0,154597.0,350714.0,245724.0,336657.0,249917.0
2026-04-14 18:10:18.178316,787560,1609507711808601,5311778718,0.93696,-0.226432,-0.226432,10.47375,2.3275,3.08875,-7.04,18.168001,-32.992,concentric,7,3.0,154597.0,350714.0,245724.0,336657.0,249917.0
2026-04-14 18:10:18.185979,787561,1609507711817547,5311787423,0.93696,-0.226432,-0.226432,15.4525,0.79625,1.00625,-7.04,18.168001,-32.992,concentric,7,3.0,154597.0,350714.0,245724.0,336657.0,249917.0
2026-04-14 18:10:18.202184,787562,1609507711832170,5311802320,0.923296,-0.140544,-0.203008,14.20125,0.35,-3.2725,-6.696,18.512001,-29.768002,concentric,7,3.0,154597.0,350714.0,245724.0,336657.0,249917.0
2026-04-14 18:10:18.209462,787563,1609507711841112,5311810995,0.8296,-0.1952,-0.333792,7.7,1.11125,-6.0025,-6.848001,18.544,-32.344,concentric,7,3.0,154597.0,350714.0,245724.0,336657.0,249917.0
2026-04-14 18:10:18.227092,787564,1609507711855654,5311825903,0.8296,-0.1952,-0.333792,4.52375,1.86375,-6.79,-6.848001,18.544,-32.344,concentric,7,3.0,154597.0,350714.0,245724.0,336657.0,249917.0
2026-04-14 18:10:18.233317,787565,1609507711864567,5311834600,0.935008,-0.279136,-0.25376,4.445,2.35375,-7.88375,-7.384,18.824001,-30.664001,concentric,7,3.0,154597.0,350714.0,245724.0,336657.0,249917.0
2026-04-14 18:10:18.314009,787576,1609507711879454,5311849721,0.935008,-0.279136,-0.144448,7.21875,2.37125,-6.3175,-7.384,18.824001,-30.664001,concentric,7,3.0,139250.0,345275.0,226985.0,331747.0,232548.0
2026-04-14 18:10:18.314277,787577,1609507711888458,5311858494,0.874496,-0.245952,-0.144448,7.84875,2.07375,-4.1825,-6.552001,18.584002,-30.432001,concentric,7,3.0,139250.0,345275.0,226985.0,331747.0,232548.0
2026-04-14 18:10:18.316795,787578,1609507711897397,5311867189,0.874496,-0.245952,-0.144448,7.91875,2.3275,-3.7275,-6.552001,18.584002,-30.432001,concentric,7,3.0,139250.0,345275.0,226985.0,331747.0,232548.0
2026-04-14 18:10:18.319694,787579,1609507711911993,5311882171,0.866688,-0.247904,-0.183488,8.2075,2.09125,-4.8825,-6.888001,18.792002,-30.376001,concentric,7,3.0,139250.0,345275.0,226985.0,331747.0,232548.0
2026-04-14 18:10:18.322191,787580,1609507711920971,5311890858,0.860832,-0.25376,-0.15616,8.1025,2.6775,-4.5325,-6.776001,19.168001,-30.376001,concentric,7,3.0,139250.0,345275.0,226985.0,331747.0,232548.0
2026-04-14 18:10:18.352273,787581,1609507711935496,5311905766,0.860832,-0.25376,-0.15616,8.07625,1.79375,-2.9575,-6.776001,19.168001,-30.376001,concentric,7,3.0,139250.0,345275.0,226985.0,331747.0,232548.0
2026-04-14 18:10:18.354724,787582,1609507711944577,5311914478,0.919392,-0.27328,-0.21472,6.4225,0.245,-0.88375,-7.816001,19.12,-29.36,concentric,7,3.0,139250.0,345275.0,226985.0,331747.0,232548.0
2026-04-14 18:10:18.357094,787583,1609507711953656,5311923167,0.919392,-0.27328,-0.21472,6.3,-1.00625,0.76125,-7.816001,19.12,-29.36,concentric,7,3.0,139250.0,345275.0,226985.0,331747.0,232548.0
2026-04-14 18:10:18.359722,787584,1609507711968203,5311938178,0.812032,-0.226432,-0.386496,5.90625,-1.995,1.70625,-7.6,19.456001,-29.320002,concentric,7,3.0,139250.0,345275.0,226985.0,331747.0,232548.0
2026-04-14 18:10:18.392221,787595,1609507711977409,5311946900,0.812032,-0.226432,-0.386496,5.31125,-2.49375,0.7,-7.6,19.456001,-29.320002,concentric,7,3.0,133245.0,343047.0,219885.0,329761.0,225869.0
2026-04-14 18:10:18.396147,787596,1609507711992000,5311961877,0.866688,-0.23424,-0.183488,2.24,-1.9425,-0.81375,-7.832,19.192001,-29.160002,concentric,7,3.0,133245.0,343047.0,219885.0,329761.0,225869.0
2026-04-14 18:10:18.396869,787597,1609507712001021,5311970648,0.856928,-0.257664,-0.365024,2.38875,-0.875,-0.69125,-7.648,19.552,-27.224,concentric,7,3.0,133245.0,343047.0,219885.0,329761.0,225869.0
2026-04-14 18:10:18.404516,787598,1609507712009944,5311979342,0.856928,-0.257664,-0.365024,3.40375,-0.41125,-1.5225,-7.648,19.552,-27.224,concentric,7,3.0,133245.0,343047.0,219885.0,329761.0,225869.0
2026-04-14 18:10:18.404654,787599,1609507712024599,5311994291,0.8784,-0.251808,-0.407968,3.24625,0.4025,-2.1875,-8.368,19.664001,-28.272001,concentric,7,3.0,133245.0,343047.0,219885.0,329761.0,225869.0
2026-04-14 18:10:18.404740,787600,1609507712033562,5312003012,0.8784,-0.251808,-0.407968,2.4325,0.42,-3.40375,-8.368,19.664001,-28.272001,concentric,7,3.0,133245.0,343047.0,219885.0,329761.0,225869.0
2026-04-14 18:10:18.417357,787601,1609507712048145,5312017904,0.86864,-0.197152,-0.15616,0.02625,0.02625,-3.73625,-8.52,19.640001,-28.880001,concentric,7,3.0,133245.0,343047.0,219885.0,329761.0,225869.0
2026-04-14 18:10:18.426210,787602,1609507712057118,5312026597,0.86864,-0.197152,-0.15616,-1.47,-0.00875,-3.85875,-8.52,19.640001,-28.880001,concentric,7,3.0,133245.0,343047.0,219885.0,329761.0,225869.0
2026-04-14 18:10:18.467056,787613,1609507712072158,5312041551,0.876448,-0.238144,-0.1464,-4.4975,0.21,-4.96125,-7.04,19.12,-30.336002,concentric,7,3.0,129614.0,342238.0,215439.0,328899.0,221522.0
2026-04-14 18:10:18.470041,787614,1609507712081284,5312050328,0.81984,-0.222528,-0.343552,-5.67875,0.46375,-4.2175,-7.04,19.12,-30.152002,concentric,7,3.0,129614.0,342238.0,215439.0,328899.0,221522.0
2026-04-14 18:10:18.472540,787615,1609507712090338,5312059157,0.81984,-0.222528,-0.343552,-2.345,1.07625,-3.605,-7.728,19.536001,-30.152002,concentric,7,3.0,129614.0,342238.0,215439.0,328899.0,221522.0
2026-04-14 18:10:18.474954,787616,1609507712105385,5312074089,0.870592,-0.247904,-0.38064,1.7325,1.4525,-2.51125,-7.496,19.512001,-29.36,concentric,7,3.0,129614.0,342238.0,215439.0,328899.0,221522.0
2026-04-14 18:10:18.483771,787617,1609507712114724,5312084859,0.870592,-0.247904,-0.38064,2.9575,1.7325,-1.49625,-7.496,19.512001,-29.36,concentric,7,3.0,129614.0,342238.0,215439.0,328899.0,221522.0
2026-04-14 18:10:18.494811,787618,1609507712123713,5312093548,0.882304,-0.220576,-0.17568,1.2775,1.14625,-0.56875,-7.784,19.44,-29.136002,concentric,7,3.0,129614.0,342238.0,215439.0,328899.0,221522.0
2026-04-14 18:10:18.507111,787619,1609507712138248,5312108477,0.882304,-0.220576,-0.17568,1.81125,0.91,-0.21,-7.784,19.44,-29.136002,concentric,7,3.0,129614.0,342238.0,215439.0,328899.0,221522.0
2026-04-14 18:10:18.517398,787620,1609507712147253,5312117189,0.890112,-0.23424,-0.359168,1.98625,0.1925,-1.8025,-6.816001,19.248001,-30.336002,concentric,7,3.0,129614.0,342238.0,215439.0,328899.0,221522.0
2026-04-14 18:10:18.531242,787621,1609507712161736,5312132071,0.882304,-0.240096,-0.335744,3.19375,1.4525,-1.25125,-6.816001,19.248001,-32.592003,concentric,7,3.0,129614.0,342238.0,215439.0,328899.0,221522.0
2026-04-14 18:10:18.565828,787632,1609507712170668,5312140921,0.882304,-0.240096,-0.335744,4.4625,2.73875,-1.015,-7.304,19.272001,-32.592003,concentric,7,3.0,126295.0,341115.0,211402.0,327725.0,217652.0
2026-04-14 18:10:18.568220,787633,1609507712179648,5312149656,0.882304,-0.240096,-0.335744,4.83,3.535,-1.28625,-7.304,19.272001,-32.592003,concentric,7,3.0,126295.0,341115.0,211402.0,327725.0,217652.0
2026-04-14 18:10:18.570651,787634,1609507712194196,5312162600,0.929152,-0.27328,-0.1952,5.075,4.1125,0.0525,-7.752,19.752,-28.952002,concentric,7,3.0,126295.0,341115.0,211402.0,327725.0,217652.0
2026-04-14 18:10:18.573162,787635,1609507712203743,5312173425,0.866688,-0.230336,-0.121024,5.6875,3.99875,1.82875,-7.856,19.944,-27.984001,concentric,7,3.0,126295.0,341115.0,211402.0,327725.0,217652.0
2026-04-14 18:10:18.593033,787636,1609507712218247,5312188320,0.866688,-0.230336,-0.121024,8.70625,3.3425,3.64875,-7.856,19.944,-27.984001,concentric,7,3.0,126295.0,341115.0,211402.0,327725.0,217652.0
2026-04-14 18:10:18.594372,787637,1609507712227248,5312197053,0.806176,-0.1952,-0.160064,12.50375,2.70375,4.4625,-7.448,20.208,-29.560001,concentric,7,3.0,126295.0,341115.0,211402.0,327725.0,217652.0
2026-04-14 18:10:18.606163,787638,1609507712236269,5312205783,0.806176,-0.1952,-0.160064,14.62125,2.26625,4.585,-7.448,20.208,-29.560001,concentric,7,3.0,126295.0,341115.0,211402.0,327725.0,217652.0
2026-04-14 18:10:18.619497,787639,1609507712250738,5312220682,0.788608,-0.206912,-0.181536,15.6975,1.86375,6.335,-7.592001,19.416,-30.032001,concentric,7,3.0,126295.0,341115.0,211402.0,327725.0,217652.0
2026-04-14 18:10:18.629958,787640,1609507712259667,5312229390,0.788608,-0.206912,-0.181536,14.81375,0.8925,8.5225,-7.592001,19.416,-30.032001,concentric,7,3.0,126295.0,341115.0,211402.0,327725.0,217652.0
2026-04-14 18:10:18.724911,787651,1609507712274239,5312244330,0.763232,-0.257664,-0.212768,13.20375,-0.84875,10.1325,-6.888001,20.104,-29.792002,concentric,7,3.0,119509.0,338896.0,202953.0,325292.0,209291.0
2026-04-14 18:10:18.727555,787652,1609507712283314,5312253076,0.765184,-0.279136,-0.347456,14.20125,-3.21125,12.43375,-6.480001,20.448002,-30.28,concentric,7,3.0,119509.0,338896.0,202953.0,325292.0,209291.0
2026-04-14 18:10:18.729806,787653,1609507712297901,5312268012,0.765184,-0.279136,-0.347456,18.34,-5.88875,15.435,-6.480001,20.448002,-30.28,concentric,7,3.0,119509.0,338896.0,202953.0,325292.0,209291.0
2026-04-14 18:10:18.732534,787654,1609507712306836,5312276715,0.782752,-0.244,-0.080032,21.5425,-7.84,18.1825,-5.952,20.92,-28.592001,concentric,7,3.0,119509.0,338896.0,202953.0,325292.0,209291.0
2026-04-14 18:10:18.735046,787655,1609507712315823,5312285413,0.782752,-0.244,-0.080032,23.24875,-9.89625,20.895,-5.952,20.92,-28.592001,concentric,7,3.0,119509.0,338896.0,202953.0,325292.0,209291.0
2026-04-14 18:10:18.737163,787656,1609507712330317,5312300312,0.827648,-0.261568,-0.119072,22.925,-11.97,24.64,-7.088,21.272001,-28.400002,concentric,7,3.0,119509.0,338896.0,202953.0,325292.0,209291.0
2026-04-14 18:10:18.739472,787657,1609507712339228,5312308973,0.827648,-0.261568,-0.119072,22.25125,-13.41375,28.5775,-7.088,21.272001,-28.400002,concentric,7,3.0,119509.0,338896.0,202953.0,325292.0,209291.0
2026-04-14 18:10:18.742600,787658,1609507712353823,5312323869,0.812032,-0.298656,-0.32208,21.6125,-15.98625,31.70125,-6.376,21.296001,-28.192001,concentric,7,3.0,119509.0,338896.0,202953.0,325292.0,209291.0
2026-04-14 18:10:18.745111,787659,1609507712362852,5312332651,0.812032,-0.240096,-0.122976,19.897501,-17.9725,34.79,-6.376,21.296001,-26.144001,concentric,7,3.0,119509.0,338896.0,202953.0,325292.0,209291.0
2026-04-14 18:10:18.777366,787670,1609507712377545,5312347569,0.767136,-0.240096,-0.122976,18.7775,-19.25875,37.4325,-5.888001,21.632002,-26.352001,concentric,7,3.0,110542.0,332954.0,192115.0,319483.0,198638.0
2026-04-14 18:10:18.777489,787671,1609507712386756,5312356380,0.743712,-0.306464,-0.324032,15.05875,-21.30625,38.33375,-5.816001,21.960001,-27.784,concentric,7,3.0,110542.0,332954.0,192115.0,319483.0,198638.0
2026-04-14 18:10:18.779297,787672,1609507712395701,5312365126,0.743712,-0.306464,-0.324032,13.13375,-22.89875,38.955,-5.816001,21.960001,-27.784,concentric,7,3.0,110542.0,332954.0,192115.0,319483.0,198638.0
2026-04-14 18:10:18.782031,787673,1609507712410236,5312380077,0.806176,-0.363072,-0.27328,12.67875,-25.69875,39.9,-5.4,22.312,-27.064001,concentric,7,3.0,110542.0,332954.0,192115.0,319483.0,198638.0
2026-04-14 18:10:18.788659,787674,1609507712419295,5312388796,0.806176,-0.363072,-0.27328,15.67125,-27.93875,40.32875,-5.4,22.312,-27.064001,concentric,7,3.0,110542.0,332954.0,192115.0,319483.0,198638.0
2026-04-14 18:10:18.802526,787675,1609507712433805,5312403805,0.8296,-0.359168,-0.329888,21.84,-29.995,41.13375,-4.344,22.12,-29.168001,concentric,7,3.0,110542.0,332954.0,192115.0,319483.0,198638.0
2026-04-14 18:10:18.812548,787676,1609507712442779,5312412495,0.8296,-0.359168,-0.329888,26.46875,-31.84125,42.13125,-4.344,22.12,-29.168001,concentric,7,3.0,110542.0,332954.0,192115.0,319483.0,198638.0
2026-04-14 18:10:18.820043,787677,1609507712451706,5312421192,0.77104,-0.257664,-0.103456,28.02625,-32.97875,40.8975,-3.136,22.024,-31.072002,concentric,7,3.0,110542.0,332954.0,192115.0,319483.0,198638.0
2026-04-14 18:10:18.836357,787678,1609507712466313,5312436090,0.696864,-0.288896,-0.255712,22.11125,-36.2075,36.9075,-2.16,22.76,-29.152002,concentric,7,3.0,110542.0,332954.0,192115.0,319483.0,198638.0
2026-04-14 18:10:18.866941,787689,1609507712475541,5312444842,0.696864,-0.288896,-0.255712,14.88375,-40.20625,34.65,-2.16,22.76,-29.152002,concentric,7,3.0,100760.0,324274.0,179979.0,311098.0,186620.0
2026-04-14 18:10:18.869416,787690,1609507712490133,5312459772,0.745664,-0.388448,-0.320128,7.1925,-43.74125,34.4925,-2.792,22.872002,-27.888,concentric,7,3.0,100760.0,324274.0,179979.0,311098.0,186620.0
2026-04-14 18:10:18.873108,787691,1609507712499152,5312468518,0.745664,-0.388448,-0.320128,5.355,-48.055,36.47875,-2.792,22.872002,-27.888,concentric,7,3.0,100760.0,324274.0,179979.0,311098.0,186620.0
2026-04-14 18:10:18.878134,787692,1609507712508186,5312477212,0.76128,-0.454816,-0.290848,3.01,-52.68375,39.41,-1.224,22.744001,-28.04,concentric,7,3.0,100760.0,324274.0,179979.0,311098.0,186620.0
2026-04-14 18:10:18.892418,787693,1609507712522659,5312492139,0.76128,-0.454816,-0.290848,-1.07625,-57.12,41.50125,-1.224,22.744001,-28.04,concentric,7,3.0,100760.0,324274.0,179979.0,311098.0,186620.0
2026-04-14 18:10:18.901154,787694,1609507712531608,5312500831,0.696864,-0.40992,-0.359168,6.0025,-58.9925,44.1,-0.088,22.76,-30.728,concentric,7,3.0,100760.0,324274.0,179979.0,311098.0,186620.0
2026-04-14 18:10:18.913787,787695,1609507712546107,5312515780,0.593408,-0.374784,-0.314272,12.6525,-60.29625,43.2075,0.496,22.6,-28.480001,concentric,7,3.0,100760.0,324274.0,179979.0,311098.0,186620.0
2026-04-14 18:10:18.923872,787696,1609507712555129,5312524505,0.593408,-0.374784,-0.314272,16.49375,-61.17125,40.8275,0.496,22.6,-28.480001,concentric,7,3.0,100760.0,324274.0,179979.0,311098.0,186620.0
2026-04-14 18:10:18.938772,787697,1609507712569681,5312539429,0.681248,-0.503616,-0.396256,20.85125,-62.90375,41.8775,1.952,22.960001,-28.872002,concentric,7,3.0,100760.0,324274.0,179979.0,311098.0,186620.0
2026-04-14 18:10:18.996226,787708,1609507712578904,5312548215,0.681248,-0.503616,-0.396256,18.83,-65.9575,45.0625,1.952,22.960001,-28.872002,concentric,7,3.0,82379.0,302563.0,156634.0,289460.0,163482.0
2026-04-14 18:10:18.998743,787709,1609507712587897,5312557020,0.636352,-0.415776,-0.36112,18.15625,-68.60875,48.8775,1.816,23.576,-26.728,concentric,7,3.0,82379.0,302563.0,156634.0,289460.0,163482.0
2026-04-14 18:10:19.001267,787710,1609507712602467,5312571919,0.636352,-0.415776,-0.36112,27.0375,-69.01125,52.01,1.816,23.576,-26.728,concentric,7,3.0,82379.0,302563.0,156634.0,289460.0,163482.0
2026-04-14 18:10:19.026293,787711,1609507712611373,5312580628,0.704672,-0.372832,-0.355264,32.17375,-67.4975,50.54875,2.0,23.936,-25.272001,concentric,7,3.0,82379.0,302563.0,156634.0,289460.0,163482.0
2026-04-14 18:10:19.053922,787712,1609507712625920,5312595594,0.488,-0.36112,-0.495808,32.9875,-67.34875,47.9675,2.864,23.904001,-26.872002,concentric,7,3.0,82379.0,302563.0,156634.0,289460.0,163482.0
2026-04-14 18:10:19.055794,787713,1609507712634897,5312604297,0.488,-0.36112,-0.495808,27.9125,-68.90625,45.0275,2.864,23.904001,-26.872002,concentric,7,3.0,82379.0,302563.0,156634.0,289460.0,163482.0
2026-04-14 18:10:19.062666,787714,1609507712643825,5312612972,0.488,-0.36112,-0.495808,21.72625,-70.72625,47.22375,2.864,23.904001,-26.872002,concentric,7,3.0,82379.0,302563.0,156634.0,289460.0,163482.0
2026-04-14 18:10:19.065083,787715,1609507712658317,5312627835,0.489952,-0.486048,-0.558272,13.6325,-74.03375,53.31375,4.832,23.656002,-26.896002,concentric,7,3.0,82379.0,302563.0,156634.0,289460.0,163482.0
2026-04-14 18:10:19.065202,787716,1609507712667245,5312636549,0.655872,-0.599264,-0.3416,3.63125,-77.4375,58.3975,6.008,23.552002,-26.640001,concentric,7,3.0,82379.0,302563.0,156634.0,289460.0,163482.0
2026-04-14 18:10:19.090844,787727,1609507712681774,5312651988,0.655872,-0.599264,-0.3416,5.2325,-78.5925,61.95,6.008,23.552002,-26.640001,concentric,7,3.0,61041.0,264703.0,127689.0,255682.0,134970.0
2026-04-14 18:10:19.093822,787728,1609507712690727,5312660746,0.665632,-0.6344,-0.589504,16.37125,-78.1725,60.47125,7.2,23.744001,-26.240002,concentric,7,3.0,61041.0,264703.0,127689.0,255682.0,134970.0
2026-04-14 18:10:19.101290,787729,1609507712705343,5312675724,0.554368,-0.441152,-0.710528,35.62125,-72.59875,59.71875,7.2,24.096,-26.528002,concentric,7,3.0,61041.0,264703.0,127689.0,255682.0,134970.0
2026-04-14 18:10:19.103802,787730,1609507712714322,5312684544,0.554368,-0.441152,-0.710528,54.1625,-67.69875,62.11625,8.256001,24.096,-26.528002,concentric,7,3.0,61041.0,264703.0,127689.0,255682.0,134970.0
2026-04-14 18:10:19.106304,787731,1609507712723314,5312693253,0.554368,-0.441152,-0.710528,60.5675,-66.57875,61.73125,8.256001,24.096,-26.528002,concentric,7,3.0,61041.0,264703.0,127689.0,255682.0,134970.0
2026-04-14 18:10:19.108809,787732,1609507712737961,5312708181,0.454816,-0.431392,-0.612928,48.825,-69.475,58.02125,9.376,24.096,-25.536001,concentric,7,3.0,61041.0,264703.0,127689.0,255682.0,134970.0
2026-04-14 18:10:19.116226,787733,1609507712747070,5312716889,0.55632,-0.628544,-0.581696,23.58125,-70.20125,59.15875,10.968,23.864,-26.088001,concentric,7,3.0,61041.0,264703.0,127689.0,255682.0,134970.0
2026-04-14 18:10:19.139749,787734,1609507712761665,5312731788,0.55632,-0.628544,-0.581696,-0.21875,-71.30375,68.46875,10.968,23.864,-26.088001,concentric,7,3.0,61041.0,264703.0,127689.0,255682.0,134970.0
2026-04-14 18:10:19.140126,787735,1609507712770580,5312740489,0.544608,-0.6832,-0.511424,-6.3525,-71.02375,72.152504,12.176001,23.688002,-25.648,concentric,7,3.0,61041.0,264703.0,127689.0,255682.0,134970.0
2026-04-14 18:10:19.168848,787746,1609507712785177,5312755569,0.544608,-0.6832,-0.433344,9.19625,-66.01,67.2525,12.176001,23.688002,-25.648,concentric,7,3.0,53839.0,239206.0,116596.0,235200.0,122614.0
2026-04-14 18:10:19.170863,787747,1609507712794133,5312764367,0.501664,-0.620736,-0.435296,32.7775,-62.36125,63.9625,12.952001,23.896002,-22.768002,concentric,7,3.0,53839.0,239206.0,116596.0,235200.0,122614.0
2026-04-14 18:10:19.173154,787748,1609507712803148,5312773066,0.501664,-0.620736,-0.435296,43.4,-62.79875,65.275,12.952001,23.896002,-22.768002,concentric,7,3.0,53839.0,239206.0,116596.0,235200.0,122614.0
2026-04-14 18:10:19.185924,787749,1609507712817654,5312787951,0.3904,-0.65392,-0.583648,35.81375,-66.03625,60.978752,13.64,23.976002,-24.888,concentric,7,3.0,53839.0,239206.0,116596.0,235200.0,122614.0
2026-04-14 18:10:19.194604,787750,1609507712826633,5312796679,0.49776,-0.67344,-0.38064,25.5675,-66.63125,61.27625,14.768001,23.488,-24.848001,concentric,7,3.0,53839.0,239206.0,116596.0,235200.0,122614.0
2026-04-14 18:10:19.208456,787751,1609507712841143,5312809543,0.49776,-0.67344,-0.38064,19.08375,-66.6925,66.85875,14.768001,23.488,-24.848001,concentric,7,3.0,53839.0,239206.0,116596.0,235200.0,122614.0
2026-04-14 18:10:19.219645,787752,1609507712850352,5312820291,0.470432,-0.716384,-0.651968,15.60125,-66.82375,65.24875,15.760001,23.536001,-24.36,concentric,7,3.0,53839.0,239206.0,116596.0,235200.0,122614.0
2026-04-14 18:10:19.227216,787753,1609507712859411,5312829006,0.470432,-0.716384,-0.651968,17.3775,-64.67125,60.2,15.760001,23.536001,-24.36,concentric,7,3.0,53839.0,239206.0,116596.0,235200.0,122614.0
2026-04-14 18:10:19.243521,787754,1609507712873886,5312843964,0.382592,-0.730048,-0.655872,16.397501,-65.07375,57.8025,15.816001,23.480001,-22.84,concentric,7,3.0,53839.0,239206.0,116596.0,235200.0,122614.0
2026-04-14 18:10:19.271321,787765,1609507712882935,5312852760,0.382592,-0.730048,-0.655872,4.27875,-68.36375,52.49125,15.816001,23.480001,-22.84,concentric,7,3.0,45792.0,209004.0,102540.0,211967.0,107604.0
2026-04-14 18:10:19.275982,787766,1609507712897570,5312867760,0.3416,-0.80032,-0.69296,-2.47625,-69.2125,51.388752,17.44,23.160002,-22.480001,concentric,7,3.0,45792.0,209004.0,102540.0,211967.0,107604.0
2026-04-14 18:10:19.276079,787767,1609507712906568,5312876453,0.484096,-0.817888,-0.52704,-1.74125,-70.23625,54.5825,17.44,22.904001,-22.800001,concentric,7,3.0,45792.0,209004.0,102540.0,211967.0,107604.0
2026-04-14 18:10:19.283369,787768,1609507712915651,5312885226,0.484096,-0.817888,-0.52704,3.40375,-70.20125,56.201252,17.768002,22.904001,-22.800001,concentric,7,3.0,45792.0,209004.0,102540.0,211967.0,107604.0
2026-04-14 18:10:19.299719,787769,1609507712930310,5312900167,0.353312,-0.788608,-0.687104,-1.49625,-70.11375,55.27375,19.248001,22.168001,-22.912,concentric,7,3.0,45792.0,209004.0,102540.0,211967.0,107604.0
2026-04-14 18:10:19.309729,787770,1609507712939242,5312908863,0.353312,-0.788608,-0.687104,-7.0,-69.9825,52.43,19.248001,22.168001,-22.912,concentric,7,3.0,45792.0,209004.0,102540.0,211967.0,107604.0
2026-04-14 18:10:19.323606,787771,1609507712953741,5312923757,0.27328,-0.772992,-0.739808,-8.8375,-69.3175,48.1775,20.032001,21.872002,-22.776001,concentric,7,3.0,45792.0,209004.0,102540.0,211967.0,107604.0
2026-04-14 18:10:19.332144,787772,1609507712962667,5312932494,0.27328,-0.772992,-0.739808,-6.0375,-68.985,46.2175,20.032001,21.872002,-22.776001,concentric,7,3.0,45792.0,209004.0,102540.0,211967.0,107604.0
2026-04-14 18:10:19.413609,787783,1609507712977343,5312947522,0.197152,-0.774944,-0.62464,-3.4475,-69.335,46.48,20.800001,21.712002,-22.136002,eccentric,7,3.0,41715.0,193924.0,94103.0,201309.0,98436.0
2026-04-14 18:10:19.420869,787784,1609507712986400,5312956246,0.197152,-0.774944,-0.655872,-10.5525,-69.825,47.10125,20.800001,21.712002,-22.136002,eccentric,7,3.0,41715.0,193924.0,94103.0,201309.0,98436.0
2026-04-14 18:10:19.423726,787785,1609507712995423,5312965071,0.294752,-0.870592,-0.646112,-19.7925,-68.94125,49.67375,20.528002,21.872002,-19.712002,eccentric,7,3.0,41715.0,193924.0,94103.0,201309.0,98436.0
2026-04-14 18:10:19.435876,787786,1609507713010079,5312979958,0.218624,-0.796416,-0.728096,-16.625,-65.75625,50.70625,20.68,21.144001,-19.552,eccentric,7,3.0,41715.0,193924.0,94103.0,201309.0,98436.0
2026-04-14 18:10:19.439702,787787,1609507713019024,5312988685,0.218624,-0.796416,-0.728096,-11.042501,-63.93625,49.42875,20.68,21.144001,-19.552,eccentric,7,3.0,41715.0,193924.0,94103.0,201309.0,98436.0
2026-04-14 18:10:19.442024,787788,1609507713033514,5313003548,0.150304,-0.774944,-0.76128,-7.11375,-62.16875,48.01125,21.400002,20.744001,-20.320002,eccentric,7,3.0,41715.0,193924.0,94103.0,201309.0,98436.0
2026-04-14 18:10:19.443463,787789,1609507713042513,5313012247,0.150304,-0.774944,-0.76128,-11.03375,-60.2175,45.2025,21.400002,20.744001,-20.320002,eccentric,7,3.0,41715.0,193924.0,94103.0,201309.0,98436.0
2026-04-14 18:10:19.444634,787790,1609507713051434,5313020933,0.210816,-0.919392,-0.620736,-12.67,-60.0775,42.805,22.44,20.160002,-20.008001,eccentric,7,3.0,41715.0,193924.0,94103.0,201309.0,98436.0
2026-04-14 18:10:19.446362,787791,1609507713065961,5313035833,0.210816,-0.919392,-0.620736,-9.6775,-61.53,42.16625,22.44,20.160002,-20.008001,eccentric,7,3.0,41715.0,193924.0,94103.0,201309.0,98436.0
2026-04-14 18:10:19.447641,787792,1609507713074947,5313044507,0.17568,-0.983808,-0.894016,-5.04,-60.17375,45.5525,23.264002,19.584002,-19.152,eccentric,7,3.0,41715.0,193924.0,94103.0,201309.0,98436.0
2026-04-14 18:10:19.476673,787803,1609507713089486,5313059404,0.249856,-0.833504,-0.579744,7.07875,-56.175,45.38625,24.04,19.456001,-18.584002,eccentric,7,3.0,38664.0,191571.0,87850.0,199565.0,91299.0
2026-04-14 18:10:19.479426,787804,1609507713098543,5313068180,0.249856,-0.833504,-0.579744,19.3725,-51.72125,44.94,24.04,19.456001,-18.584002,eccentric,7,3.0,38664.0,191571.0,87850.0,199565.0,91299.0
2026-04-14 18:10:19.481592,787805,1609507713113084,5313083120,0.122976,-0.755424,-0.710528,26.6525,-47.17125,44.45,24.376001,19.328001,-19.048,eccentric,7,3.0,38664.0,191571.0,87850.0,199565.0,91299.0
2026-04-14 18:10:19.492919,787806,1609507713122016,5313091803,0.122976,-0.755424,-0.710528,18.57625,-46.12125,38.7275,24.376001,19.328001,-19.048,eccentric,7,3.0,38664.0,191571.0,87850.0,199565.0,91299.0
2026-04-14 18:10:19.499599,787807,1609507713131057,5313100488,0.0976,-0.85888,-0.650016,7.91875,-46.3925,33.04,25.536001,18.608002,-19.352001,eccentric,7,3.0,38664.0,191571.0,87850.0,199565.0,91299.0
2026-04-14 18:10:19.513410,787808,1609507713145575,5313115458,0.0976,-0.85888,-0.650016,1.02375,-45.85,27.29125,25.536001,18.608002,-19.352001,eccentric,7,3.0,38664.0,191571.0,87850.0,199565.0,91299.0
2026-04-14 18:10:19.523537,787809,1609507713154531,5313124164,0.138592,-0.9272,-0.599264,-1.04125,-42.13125,26.78375,26.104002,18.640001,-19.080002,eccentric,7,3.0,38664.0,191571.0,87850.0,199565.0,91299.0
2026-04-14 18:10:19.539660,787810,1609507713169044,5313139049,0.074176,-0.925248,-0.854976,-0.28875,-38.61375,26.39875,26.256,18.496,-20.104,eccentric,7,3.0,38664.0,191571.0,87850.0,199565.0,91299.0
2026-04-14 18:10:19.570956,787821,1609507713178431,5313147768,0.074176,-0.925248,-0.854976,3.49125,-33.355,27.5625,26.256,18.496,-20.104,eccentric,7,3.0,37082.0,193200.0,84603.0,201610.0,87495.0
2026-04-14 18:10:19.573424,787822,1609507713187543,5313156514,0.074176,-0.925248,-0.854976,8.98625,-28.665,28.67375,26.256,18.496,-20.104,eccentric,7,3.0,37082.0,193200.0,84603.0,201610.0,87495.0
2026-04-14 18:10:19.575947,787823,1609507713202790,5313171533,0.017568,-0.823744,-0.716384,11.55875,-26.241251,27.335001,26.44,18.352001,-17.36,eccentric,7,3.0,37082.0,193200.0,84603.0,201610.0,87495.0
2026-04-14 18:10:19.583477,787824,1609507713212098,5313182282,0.015616,-0.851072,-0.728096,11.69,-24.115,24.91125,26.808,18.216002,-18.248001,eccentric,7,3.0,37082.0,193200.0,84603.0,201610.0,87495.0
2026-04-14 18:10:19.590884,787825,1609507713221175,5313190999,0.015616,-0.851072,-0.728096,7.525,-21.93625,22.67125,26.808,18.216002,-18.248001,eccentric,7,3.0,37082.0,193200.0,84603.0,201610.0,87495.0
2026-04-14 18:10:19.636097,787826,1609507713235789,5313205926,0.017568,-0.933056,-0.813984,1.6625,-20.0025,21.07,27.104002,17.752,-18.056002,eccentric,7,3.0,37082.0,193200.0,84603.0,201610.0,87495.0
2026-04-14 18:10:19.637669,787827,1609507713244710,5313214614,0.017568,-0.933056,-0.813984,-0.0525,-17.43,19.17125,27.104002,17.752,-18.056002,eccentric,7,3.0,37082.0,193200.0,84603.0,201610.0,87495.0
2026-04-14 18:10:19.639226,787828,1609507713259222,5313229490,0.011712,-0.929152,-0.860832,1.51375,-14.7,17.535,26.28,18.04,-16.768002,eccentric,7,3.0,37082.0,193200.0,84603.0,201610.0,87495.0
2026-04-14 18:10:19.642027,787829,1609507713268163,5313238226,0.011712,-0.929152,-0.579744,5.01375,-12.3025,16.6425,26.28,18.04,-16.768002,eccentric,7,3.0,37082.0,193200.0,84603.0,201610.0,87495.0
2026-04-14 18:10:19.682459,787841,1609507713282956,5313251400,0.021472,-0.853024,-0.593408,5.31125,-11.24375,14.55125,26.576002,17.776001,-16.792002,eccentric,7,3.0,35996.0,194437.0,82351.0,203144.0,84881.0
2026-04-14 18:10:19.685067,787842,1609507713292284,5313262223,0.00976,-0.882304,-0.798368,2.75625,-11.08625,12.985,26.400002,17.856,-16.856,eccentric,7,3.0,35996.0,194437.0,82351.0,203144.0,84881.0
2026-04-14 18:10:19.687485,787843,1609507713301510,5313270944,0.00976,-0.882304,-0.798368,-1.49625,-10.7975,9.73875,26.400002,17.856,-16.856,eccentric,7,3.0,35996.0,194437.0,82351.0,203144.0,84881.0
2026-04-14 18:10:19.690024,787844,1609507713316082,5313285878,0.011712,-0.977952,-0.84912,-6.93875,-9.21375,6.78125,26.648,17.792002,-17.384,eccentric,7,3.0,35996.0,194437.0,82351.0,203144.0,84881.0
2026-04-14 18:10:19.693797,787845,1609507713325036,5313294569,0.011712,-0.977952,-0.84912,-6.9125,-5.985,4.40125,26.648,17.792002,-17.384,eccentric,7,3.0,35996.0,194437.0,82351.0,203144.0,84881.0
2026-04-14 18:10:19.710057,787846,1609507713339540,5313309459,-0.042944,-0.899872,-0.716384,-3.29875,-3.255,1.53125,27.504002,17.056002,-17.888,eccentric,7,3.0,35996.0,194437.0,82351.0,203144.0,84881.0
2026-04-14 18:10:19.716307,787847,1609507713348507,5313318212,-0.042944,-0.899872,-0.716384,-0.245,-0.2975,0.35875,27.504002,17.056002,-17.888,eccentric,7,3.0,35996.0,194437.0,82351.0,203144.0,84881.0
2026-04-14 18:10:19.730533,787848,1609507713357541,5313326911,0.056608,-0.86864,-0.632448,-1.1375,1.75,-1.5925,27.680002,17.416,-19.088001,eccentric,7,3.0,35996.0,194437.0,82351.0,203144.0,84881.0
2026-04-14 18:10:19.758363,787849,1609507713372054,5313341788,0.03904,-0.872544,-0.657824,-4.025,3.0625,-3.8325,27.808,17.648,-17.296001,eccentric,7,3.0,35996.0,194437.0,82351.0,203144.0,84881.0
2026-04-14 18:10:19.825783,787860,1609507713381393,5313350570,0.03904,-0.872544,-0.657824,-8.2425,5.495,-7.035,27.808,17.648,-17.296001,eccentric,7,3.0,35976.0,193660.0,82000.0,202216.0,84653.0
2026-04-14 18:10:19.828113,787861,1609507713396041,5313365589,0.074176,-0.960384,-0.661728,-13.8075,7.7175,-9.96625,25.864,18.024,-17.312,eccentric,7,3.0,35976.0,193660.0,82000.0,202216.0,84653.0
2026-04-14 18:10:19.831117,787862,1609507713405131,5313374288,0.074176,-0.960384,-0.661728,-14.5075,12.2325,-12.53,25.864,18.024,-17.312,eccentric,7,3.0,35976.0,193660.0,82000.0,202216.0,84653.0
2026-04-14 18:10:19.836141,787863,1609507713414087,5313382966,-0.01952,-0.884256,-0.763232,-8.96875,15.8725,-15.085,25.424002,18.392,-16.336,eccentric,7,3.0,35976.0,193660.0,82000.0,202216.0,84653.0
2026-04-14 18:10:19.838739,787864,1609507713428687,5313397850,-0.01952,-0.884256,-0.763232,-5.20625,18.7425,-16.63375,25.424002,18.392,-16.336,eccentric,7,3.0,35976.0,193660.0,82000.0,202216.0,84653.0
2026-04-14 18:10:19.840787,787865,1609507713437661,5313406520,0.015616,-0.948672,-0.880352,-8.4875,21.5075,-18.795,25.336,18.008001,-16.976002,eccentric,7,3.0,35976.0,193660.0,82000.0,202216.0,84653.0
2026-04-14 18:10:19.846457,787866,1609507713452229,5313421467,0.101504,-0.942816,-0.71248,-13.195,22.5925,-21.62125,25.688002,17.992,-17.800001,eccentric,7,3.0,35976.0,193660.0,82000.0,202216.0,84653.0
2026-04-14 18:10:19.848765,787867,1609507713461186,5313430204,0.101504,-0.942816,-0.71248,-11.12125,25.62,-22.645,25.688002,17.992,-17.800001,eccentric,7,3.0,35976.0,193660.0,82000.0,202216.0,84653.0
2026-04-14 18:10:19.851258,787868,1609507713470119,5313438944,0.142496,-0.90768,-0.739808,-4.05125,30.33625,-25.03375,25.688002,18.624,-18.232,eccentric,7,3.0,35976.0,193660.0,82000.0,202216.0,84653.0
2026-04-14 18:10:19.878804,787879,1609507713485232,5313453874,0.142496,-0.90768,-0.739808,-1.89875,34.01125,-29.067501,25.744001,18.624,-18.232,eccentric,7,3.0,36751.0,191336.0,83239.0,199561.0,86224.0
2026-04-14 18:10:19.881311,787880,1609507713494543,5313464714,0.072224,-0.895968,-0.655872,-3.9375,36.1375,-33.3025,24.984001,18.640001,-18.320002,eccentric,7,3.0,36751.0,191336.0,83239.0,199561.0,86224.0
2026-04-14 18:10:19.883684,787881,1609507713509080,5313477666,0.072224,-0.895968,-0.655872,-6.78125,36.8375,-35.51625,24.984001,18.640001,-18.320002,eccentric,7,3.0,36751.0,191336.0,83239.0,199561.0,86224.0
2026-04-14 18:10:19.890780,787882,1609507713518630,5313488441,0.099552,-0.911584,-0.794464,-10.08,37.07375,-37.49375,24.856,18.792002,-19.320002,eccentric,7,3.0,36751.0,191336.0,83239.0,199561.0,86224.0
2026-04-14 18:10:19.895815,787883,1609507713527725,5313497336,0.099552,-0.911584,-0.794464,-14.4375,38.56125,-39.76,24.856,18.792002,-19.320002,eccentric,7,3.0,36751.0,191336.0,83239.0,199561.0,86224.0
2026-04-14 18:10:19.910664,787884,1609507713542231,5313512230,0.150304,-0.915488,-0.860832,-15.7675,40.81875,-42.30625,25.160002,18.768002,-20.408,eccentric,7,3.0,36751.0,191336.0,83239.0,199561.0,86224.0
2026-04-14 18:10:19.920088,787885,1609507713551190,5313520921,0.193248,-0.911584,-0.591456,-14.58625,42.1225,-45.66625,24.624,19.160002,-19.6,eccentric,7,3.0,36751.0,191336.0,83239.0,199561.0,86224.0
2026-04-14 18:10:19.935659,787886,1609507713565681,5313535802,0.193248,-0.911584,-0.591456,-16.7125,42.857502,-48.50125,24.624,19.160002,-19.6,eccentric,7,3.0,36751.0,191336.0,83239.0,199561.0,86224.0
2026-04-14 18:10:19.942133,787887,1609507713574695,5313544517,0.232288,-0.923296,-0.67344,-20.1075,44.3975,-49.315,23.904001,19.568,-20.04,eccentric,7,3.0,36751.0,191336.0,83239.0,199561.0,86224.0
2026-04-14 18:10:19.973379,787898,1609507713584092,5313553285,0.232288,-0.923296,-0.67344,-19.52125,47.915,-51.33625,23.904001,19.568,-20.04,eccentric,7,3.0,37988.0,190253.0,85363.0,198503.0,88754.0
2026-04-14 18:10:19.975741,787899,1609507713598639,5313568228,0.245952,-0.854976,-0.70272,-16.70375,51.07375,-55.86,23.584002,20.088001,-20.960001,eccentric,7,3.0,37988.0,190253.0,85363.0,198503.0,88754.0
2026-04-14 18:10:19.978334,787900,1609507713607770,5313576971,0.245952,-0.854976,-0.70272,-15.26,54.451252,-57.0675,23.584002,20.088001,-20.960001,eccentric,7,3.0,37988.0,190253.0,85363.0,198503.0,88754.0
2026-04-14 18:10:19.990647,787901,1609507713622448,5313591887,0.269376,-0.870592,-0.85888,-21.69125,56.9625,-58.16125,22.656,19.712002,-21.776001,eccentric,7,3.0,37988.0,190253.0,85363.0,198503.0,88754.0
2026-04-14 18:10:19.999688,787902,1609507713631375,5313600577,0.37088,-0.874496,-0.708576,-31.9025,58.9225,-60.03375,22.04,20.576,-22.312,eccentric,7,3.0,37988.0,190253.0,85363.0,198503.0,88754.0
2026-04-14 18:10:20.009587,787903,1609507713640403,5313609261,0.37088,-0.874496,-0.708576,-37.09125,61.88,-61.64375,22.04,20.576,-22.312,eccentric,7,3.0,37988.0,190253.0,85363.0,198503.0,88754.0
2026-04-14 18:10:20.022083,787904,1609507713654904,5313624249,0.304512,-0.851072,-0.757376,-38.78,66.00125,-64.085,21.072,20.44,-23.112001,eccentric,7,3.0,37988.0,190253.0,85363.0,198503.0,88754.0
2026-04-14 18:10:20.032068,787905,1609507713663843,5313632965,0.304512,-0.851072,-0.757376,-39.52375,70.53375,-66.2375,21.072,20.44,-23.112001,eccentric,7,3.0,37988.0,190253.0,85363.0,198503.0,88754.0
2026-04-14 18:10:20.050880,787906,1609507713678483,5313647872,0.25376,-0.815936,-0.86864,-35.28875,75.15375,-68.29375,19.12,20.896002,-22.28,eccentric,7,3.0,37988.0,190253.0,85363.0,198503.0,88754.0
2026-04-14 18:10:20.078336,787917,1609507713687408,5313656580,0.25376,-0.815936,-0.86864,-31.29,77.83125,-69.18625,19.12,20.896002,-22.28,eccentric,7,3.0,40618.0,207326.0,89990.0,212490.0,94167.0
2026-04-14 18:10:20.080973,787918,1609507713701945,5313671495,0.2928,-0.753472,-0.747616,-27.76375,79.9925,-68.5125,18.616001,21.264002,-22.68,eccentric,7,3.0,40618.0,207326.0,89990.0,212490.0,94167.0
2026-04-14 18:10:20.083493,787919,1609507713710934,5313680275,0.2928,-0.753472,-0.778848,-29.015,81.13875,-68.4775,18.616001,21.264002,-22.68,eccentric,7,3.0,40618.0,207326.0,89990.0,212490.0,94167.0
2026-04-14 18:10:20.088455,787920,1609507713719860,5313689012,0.33184,-0.75152,-0.7808,-28.39375,83.29125,-66.4125,17.136002,21.688002,-24.008001,eccentric,7,3.0,40618.0,207326.0,89990.0,212490.0,94167.0
2026-04-14 18:10:20.125789,787921,1609507713734395,5313703897,0.445056,-0.716384,-0.749568,-26.705,86.485,-67.38375,17.408,21.320002,-25.736002,eccentric,7,3.0,40618.0,207326.0,89990.0,212490.0,94167.0
2026-04-14 18:10:20.128763,787922,1609507713743317,5313712598,0.445056,-0.716384,-0.749568,-26.215,88.57625,-68.80125,17.408,21.320002,-25.736002,eccentric,7,3.0,40618.0,207326.0,89990.0,212490.0,94167.0
2026-04-14 18:10:20.131254,787923,1609507713757781,5313727519,0.47824,-0.74176,-0.776896,-34.37875,90.16,-70.91,14.832001,22.104002,-24.376001,eccentric,7,3.0,40618.0,207326.0,89990.0,212490.0,94167.0
2026-04-14 18:10:20.156144,787924,1609507713766731,5313736211,0.47824,-0.74176,-0.776896,-32.19125,93.12625,-71.5225,14.832001,22.104002,-24.376001,eccentric,7,3.0,40618.0,207326.0,89990.0,212490.0,94167.0
2026-04-14 18:10:20.183221,787935,1609507713781599,5313751101,0.324032,-0.618784,-0.774944,-18.06875,94.36,-71.26,14.464001,22.072,-25.208002,eccentric,7,3.0,48061.0,255007.0,103672.0,249084.0,108832.0
2026-04-14 18:10:20.185708,787936,1609507713790653,5313759847,0.324032,-0.618784,-0.774944,-16.0475,93.49375,-72.590004,14.464001,22.072,-25.208002,eccentric,7,3.0,48061.0,255007.0,103672.0,249084.0,108832.0
2026-04-14 18:10:20.188185,787937,1609507713799712,5313768631,0.378688,-0.646112,-0.665632,-19.425,91.07,-73.14125,11.776001,22.736002,-25.008001,eccentric,7,3.0,48061.0,255007.0,103672.0,249084.0,108832.0
2026-04-14 18:10:20.193871,787938,1609507713814313,5313783572,0.530944,-0.597312,-0.601216,-18.64625,90.90375,-70.83125,10.696,22.656,-26.144001,eccentric,7,3.0,48061.0,255007.0,103672.0,249084.0,108832.0
2026-04-14 18:10:20.194184,787939,1609507713823372,5313792263,0.530944,-0.597312,-0.601216,-14.34125,91.5775,-66.21125,10.696,22.656,-26.144001,eccentric,7,3.0,48061.0,255007.0,103672.0,249084.0,108832.0
2026-04-14 18:10:20.205558,787940,1609507713837854,5313807219,0.620736,-0.564128,-0.441152,-10.7625,91.25375,-66.885,10.152,22.264002,-26.768002,eccentric,7,3.0,48061.0,255007.0,103672.0,249084.0,108832.0
2026-04-14 18:10:20.214358,787941,1609507713846785,5313815898,0.620736,-0.564128,-0.441152,-11.1125,92.37375,-70.56875,10.152,22.264002,-26.768002,eccentric,7,3.0,48061.0,255007.0,103672.0,249084.0,108832.0
2026-04-14 18:10:20.225081,787942,1609507713855723,5313824747,0.49776,-0.591456,-0.638304,-10.98125,93.2225,-73.29,9.992001,22.216002,-28.224,eccentric,7,3.0,48061.0,255007.0,103672.0,249084.0,108832.0
2026-04-14 18:10:20.239527,787943,1609507713870223,5313839646,0.49776,-0.591456,-0.638304,-9.09125,94.35125,-74.69,9.992001,22.216002,-28.224,eccentric,7,3.0,48061.0,255007.0,103672.0,249084.0,108832.0
2026-04-14 18:10:20.274480,787944,1609507713879186,5313848552,0.433344,-0.519232,-0.513376,-3.77125,95.235,-73.14125,8.536,22.888,-26.064001,eccentric,7,3.0,48061.0,255007.0,103672.0,249084.0,108832.0
2026-04-14 18:10:20.301973,787955,1609507713893817,5313863508,0.548512,-0.548512,-0.599264,4.1125,93.82625,-71.3475,6.624001,23.248001,-23.800001,eccentric,7,3.0,74619.0,295645.0,146615.0,283793.0,154805.0
2026-04-14 18:10:20.304454,787956,1609507713902742,5313872186,0.548512,-0.548512,-0.599264,6.86,90.41375,-71.88125,6.624001,23.248001,-23.800001,eccentric,7,3.0,74619.0,295645.0,146615.0,283793.0,154805.0
2026-04-14 18:10:20.306868,787957,1609507713911653,5313880864,0.548512,-0.548512,-0.599264,5.10125,85.42625,-71.84625,6.624001,23.248001,-23.800001,eccentric,7,3.0,74619.0,295645.0,146615.0,283793.0,154805.0
2026-04-14 18:10:20.310039,787958,1609507713926196,5313895875,0.6344,-0.406016,-0.261568,2.275,85.14625,-68.433754,5.36,23.152,-27.048,eccentric,7,3.0,74619.0,295645.0,146615.0,283793.0,154805.0
2026-04-14 18:10:20.312417,787959,1609507713935126,5313904572,0.59536,-0.417728,-0.374784,4.5325,86.26625,-65.02125,4.112,23.272001,-27.112001,eccentric,7,3.0,74619.0,295645.0,146615.0,283793.0,154805.0
2026-04-14 18:10:20.319900,787960,1609507713949634,5313919505,0.59536,-0.417728,-0.374784,-0.21875,88.43625,-68.45125,4.112,23.272001,-27.112001,eccentric,7,3.0,74619.0,295645.0,146615.0,283793.0,154805.0
2026-04-14 18:10:20.327012,787961,1609507713958553,5313928178,0.57584,-0.406016,-0.427488,-1.33875,88.55,-70.67375,3.728,23.240002,-27.984001,eccentric,7,3.0,74619.0,295645.0,146615.0,283793.0,154805.0
2026-04-14 18:10:20.340700,787962,1609507713973175,5313943109,0.642208,-0.472384,-0.306464,3.6225,86.87875,-71.05,3.728,23.240002,-27.192001,eccentric,7,3.0,74619.0,295645.0,146615.0,283793.0,154805.0
2026-04-14 18:10:20.376976,787973,1609507713982731,5313951837,0.642208,-0.472384,-0.306464,-1.19875,87.71,-72.24875,2.088,23.816002,-27.192001,eccentric,7,3.0,117576.0,304013.0,202826.0,290429.0,210928.0
2026-04-14 18:10:20.380060,787974,1609507713991923,5313960610,0.642208,-0.472384,-0.306464,4.34,85.42625,-67.82125,2.088,23.816002,-27.192001,eccentric,7,3.0,117576.0,304013.0,202826.0,290429.0,210928.0
2026-04-14 18:10:20.382552,787975,1609507714006745,5313975590,0.685152,-0.36112,-0.339648,-1.30375,83.125,-62.947502,-0.584,24.128,-23.984001,eccentric,7,3.0,117576.0,304013.0,202826.0,290429.0,210928.0
2026-04-14 18:10:20.385072,787976,1609507714015679,5313984318,0.66368,-0.220576,-0.150304,3.31625,79.66,-64.12875,-1.808,23.904001,-27.568,eccentric,7,3.0,117576.0,304013.0,202826.0,290429.0,210928.0
2026-04-14 18:10:20.395867,787977,1609507714024891,5313995071,0.66368,-0.220576,-0.150304,5.22375,76.65875,-69.25625,-1.808,23.904001,-27.568,eccentric,7,3.0,117576.0,304013.0,202826.0,290429.0,210928.0
