pc_time,serial_num,sensor_ts,host_ts,ax,ay,az,gx,gy,gz,mx,my,mz,phase,rpe,weight_kg,ppg_a,ppg_b,ppg_c,ppg_d,ppg_e,ppg_f,ppg_g,ppg_h,ppg_i,ppg_j
2026-05-06 16:02:45.247538,551756,1609505628680591,3228593040,-1.0736,0.02928,0.031232,-11.9875,5.27625,-8.26,37.472,-42.688004,-57.256004,eccentric,4,5.0,19958.0,27074.0,67194.0,81862.0,17353.0,33497.0,27959.0,46301.0,12491.0,9996.0
2026-05-06 16:02:45.272316,551757,1609505628695078,3228605896,-1.077504,0.003904,-0.017568,-8.12,5.32875,-8.33875,37.616,-41.760002,-58.096004,concentric,4,5.0,19958.0,27074.0,67194.0,81862.0,17353.0,33497.0,27959.0,46301.0,12491.0,9996.0
2026-05-06 16:02:45.295016,551758,1609505628704346,3228616757,-1.077504,0.003904,-0.017568,-6.67625,5.005,-8.225,37.616,-41.760002,-58.096004,concentric,4,5.0,19958.0,27074.0,67194.0,81862.0,17353.0,33497.0,27959.0,46301.0,12491.0,9996.0
2026-05-06 16:02:45.297471,551759,1609505628713261,3228625605,-1.04432,0.0,-0.001952,-7.95375,3.64875,-6.8425,37.536003,-41.52,-57.984,concentric,4,5.0,19958.0,27074.0,67194.0,81862.0,17353.0,33497.0,27959.0,46301.0,12491.0,9996.0
2026-05-06 16:02:45.327659,551770,1609505628727786,3228640470,-1.04432,0.001952,-0.015616,-8.42625,2.905,-4.41875,37.536003,-41.52,-55.936,concentric,4,5.0,19888.0,26965.0,67256.0,81604.0,17303.0,33395.0,27994.0,46209.0,12440.0,9944.0
2026-05-06 16:02:45.330186,551771,1609505628736965,3228649278,-1.04432,0.001952,-0.015616,-7.32375,1.35625,-3.99,37.616,-43.152,-56.024002,concentric,4,5.0,19888.0,26965.0,67256.0,81604.0,17303.0,33395.0,27994.0,46209.0,12440.0,9944.0
2026-05-06 16:02:45.332680,551772,1609505628751484,3228664228,-1.065792,0.037088,-0.001952,-5.64375,1.12875,-4.4625,37.536003,-41.944,-57.936005,concentric,4,5.0,19888.0,26965.0,67256.0,81604.0,17303.0,33395.0,27994.0,46209.0,12440.0,9944.0
2026-05-06 16:02:45.335179,551773,1609505628760409,3228673090,-1.065792,0.037088,-0.001952,-3.045,0.13125,-3.64875,37.536003,-41.944,-57.936005,concentric,4,5.0,19888.0,26965.0,67256.0,81604.0,17303.0,33395.0,27994.0,46209.0,12440.0,9944.0
2026-05-06 16:02:45.337495,551774,1609505628769357,3228681805,-1.075552,0.035136,-0.00976,-2.065,-0.34125,-3.38625,37.592003,-41.344,-55.296,concentric,4,5.0,19888.0,26965.0,67256.0,81604.0,17303.0,33395.0,27994.0,46209.0,12440.0,9944.0
2026-05-06 16:02:45.339951,551775,1609505628783929,3228694712,-1.075552,0.035136,-0.00976,-0.60375,-0.65625,-3.36,37.592003,-41.344,-55.296,concentric,4,5.0,19888.0,26965.0,67256.0,81604.0,17303.0,33395.0,27994.0,46209.0,12440.0,9944.0
2026-05-06 16:02:45.342629,551776,1609505628793217,3228705588,-1.046272,0.007808,-0.003904,-0.98875,-1.40875,-3.43875,37.760002,-44.760002,-55.848003,concentric,4,5.0,19888.0,26965.0,67256.0,81604.0,17303.0,33395.0,27994.0,46209.0,12440.0,9944.0
2026-05-06 16:02:45.345142,551777,1609505628807870,3228720557,-1.046272,0.007808,-0.003904,-1.33875,-1.74125,-3.1675,37.760002,-44.760002,-55.848003,concentric,4,5.0,19888.0,26965.0,67256.0,81604.0,17303.0,33395.0,27994.0,46209.0,12440.0,9944.0
2026-05-06 16:02:45.347620,551778,1609505628816810,3228729262,-1.048224,0.025376,-0.007808,0.3325,-1.7325,-4.34,37.592003,-43.168003,-54.512,concentric,4,5.0,19888.0,26965.0,67256.0,81604.0,17303.0,33395.0,27994.0,46209.0,12440.0,9944.0
2026-05-06 16:02:45.353964,551779,1609505628825782,3228738019,-1.048224,0.025376,-0.007808,2.49375,-0.4375,-4.92625,37.592003,-43.168003,-54.512,concentric,4,5.0,19888.0,26965.0,67256.0,81604.0,17303.0,33395.0,27994.0,46209.0,12440.0,9944.0
2026-05-06 16:02:45.387239,551790,1609505628840492,3228753033,-1.108736,0.076128,-0.042944,3.6925,1.23375,-5.25875,37.856003,-43.176003,-57.032,concentric,4,5.0,19670.0,26810.0,67180.0,81651.0,17128.0,33236.0,27944.0,46250.0,12315.0,9878.0
2026-05-06 16:02:45.390006,551791,1609505628849551,3228761791,-1.085312,0.085888,-0.02928,0.20125,2.1875,-5.46875,37.672,-42.936,-57.624004,concentric,4,5.0,19670.0,26810.0,67180.0,81651.0,17128.0,33236.0,27944.0,46250.0,12315.0,9878.0
2026-05-06 16:02:45.392501,551792,1609505628864125,3228776780,-1.085312,0.085888,-0.02928,-4.3575,3.38625,-5.20625,37.672,-42.936,-57.624004,concentric,4,5.0,19670.0,26810.0,67180.0,81651.0,17128.0,33236.0,27944.0,46250.0,12315.0,9878.0
2026-05-06 16:02:45.401254,551793,1609505628873121,3228785518,-1.038464,0.00976,-0.03904,-8.16375,3.5875,-4.76875,38.088,-41.416,-58.200005,concentric,4,5.0,19670.0,26810.0,67180.0,81651.0,17128.0,33236.0,27944.0,46250.0,12315.0,9878.0
2026-05-06 16:02:45.425139,551794,1609505628887647,3228798418,-1.038464,0.00976,-0.03904,-12.075,4.55,-5.76625,38.088,-41.416,-58.200005,concentric,4,5.0,19670.0,26810.0,67180.0,81651.0,17128.0,33236.0,27944.0,46250.0,12315.0,9878.0
2026-05-06 16:02:45.427628,551795,1609505628896842,3228809196,-1.06384,-0.046848,-0.064416,-12.80125,5.67,-6.8075,38.328003,-41.568,-56.144,concentric,4,5.0,19670.0,26810.0,67180.0,81651.0,17128.0,33236.0,27944.0,46250.0,12315.0,9878.0
2026-05-06 16:02:45.433900,551796,1609505628905754,3228818026,-1.06384,-0.046848,-0.064416,-7.74375,7.035,-7.4375,38.328003,-41.568,-56.144,concentric,4,5.0,19670.0,26810.0,67180.0,81651.0,17128.0,33236.0,27944.0,46250.0,12315.0,9878.0
2026-05-06 16:02:45.467374,551797,1609505628920373,3228832959,-1.104832,0.005856,-0.037088,-1.18125,6.055,-7.4375,38.288002,-40.960003,-58.088,concentric,4,5.0,19670.0,26810.0,67180.0,81651.0,17128.0,33236.0,27944.0,46250.0,12315.0,9878.0
2026-05-06 16:02:45.497730,551808,1609505628929287,3228841771,-1.104832,0.046848,-0.037088,7.56875,5.3725,-5.71375,38.288002,-40.960003,-56.04,concentric,4,5.0,19651.0,26756.0,67105.0,81285.0,17104.0,33147.0,27874.0,46024.0,12324.0,9841.0
2026-05-06 16:02:45.525145,551809,1609505628943920,3228854668,-1.065792,0.046848,-0.037088,11.6025,4.82125,-3.64,38.312,-41.248,-55.768,concentric,4,5.0,19651.0,26756.0,67105.0,81285.0,17104.0,33147.0,27874.0,46024.0,12324.0,9841.0
2026-05-06 16:02:45.527676,551810,1609505628953313,3228865471,-1.03456,0.056608,0.001952,9.91375,4.52375,-2.31,38.2,-40.936,-58.936005,concentric,4,5.0,19651.0,26756.0,67105.0,81285.0,17104.0,33147.0,27874.0,46024.0,12324.0,9841.0
2026-05-06 16:02:45.530061,551811,1609505628962297,3228874252,-1.03456,0.056608,0.001952,5.46875,4.12125,-2.91375,38.2,-40.936,-58.936005,concentric,4,5.0,19651.0,26756.0,67105.0,81285.0,17104.0,33147.0,27874.0,46024.0,12324.0,9841.0
2026-05-06 16:02:45.532671,551812,1609505628976807,3228889195,-1.046272,0.03904,-0.050752,-0.74375,5.43375,-4.31375,38.448,-41.136,-58.832005,concentric,4,5.0,19651.0,26756.0,67105.0,81285.0,17104.0,33147.0,27874.0,46024.0,12324.0,9841.0
2026-05-06 16:02:45.535177,551813,1609505628985713,3228897916,-1.046272,0.03904,-0.050752,-4.305,7.25375,-6.58,38.448,-41.136,-58.832005,concentric,4,5.0,19651.0,26756.0,67105.0,81285.0,17104.0,33147.0,27874.0,46024.0,12324.0,9841.0
2026-05-06 16:02:45.537624,551814,1609505629000236,3228912862,-1.110688,-0.001952,-0.072224,-5.31125,7.77875,-10.3425,38.280003,-41.336002,-58.392002,concentric,4,5.0,19651.0,26756.0,67105.0,81285.0,17104.0,33147.0,27874.0,46024.0,12324.0,9841.0
2026-05-06 16:02:45.540199,551815,1609505629009351,3228921622,-1.110688,-0.001952,-0.072224,-5.36375,7.28,-10.98125,38.280003,-41.336002,-58.392002,concentric,4,5.0,19651.0,26756.0,67105.0,81285.0,17104.0,33147.0,27874.0,46024.0,12324.0,9841.0
2026-05-06 16:02:45.548636,551816,1609505629018528,3228930376,-1.067744,-0.015616,-0.05856,-3.57875,6.545,-8.33875,38.08,-42.504,-57.808002,concentric,4,5.0,19651.0,26756.0,67105.0,81285.0,17104.0,33147.0,27874.0,46024.0,12324.0,9841.0
2026-05-06 16:02:45.642463,551827,1609505629033626,3228945549,-1.04432,0.031232,-0.013664,-1.05875,6.125,-6.125,38.712,-41.120003,-59.072002,concentric,4,5.0,19604.0,26658.0,67051.0,81167.0,17066.0,33034.0,27859.0,45974.0,12295.0,9778.0
2026-05-06 16:02:45.644910,551828,1609505629042597,3228954341,-1.04432,0.031232,-0.013664,0.4375,5.7925,-6.125,38.712,-41.120003,-59.072002,concentric,4,5.0,19604.0,26658.0,67051.0,81167.0,17066.0,33034.0,27859.0,45974.0,12295.0,9778.0
2026-05-06 16:02:45.647994,551829,1609505629057262,3228969296,-1.059936,0.052704,0.011712,1.015,6.57125,-7.84,39.024002,-40.744003,-58.304005,concentric,4,5.0,19604.0,26658.0,67051.0,81167.0,17066.0,33034.0,27859.0,45974.0,12295.0,9778.0
2026-05-06 16:02:45.650867,551830,1609505629066159,3228978027,-1.059936,0.052704,0.011712,-3.08,7.30625,-9.77375,39.024002,-40.744003,-58.304005,concentric,4,5.0,19604.0,26658.0,67051.0,81167.0,17066.0,33034.0,27859.0,45974.0,12295.0,9778.0
2026-05-06 16:02:45.653460,551831,1609505629075234,3228986715,-1.087264,0.007808,-0.064416,-7.90125,7.8575,-10.3775,39.056004,-42.912003,-56.992004,concentric,4,5.0,19604.0,26658.0,67051.0,81167.0,17066.0,33034.0,27859.0,45974.0,12295.0,9778.0
2026-05-06 16:02:45.657504,551832,1609505629089743,3229001661,-1.087264,0.007808,-0.064416,-11.57625,8.07625,-11.375,39.056004,-42.912003,-56.992004,concentric,4,5.0,19604.0,26658.0,67051.0,81167.0,17066.0,33034.0,27859.0,45974.0,12295.0,9778.0
2026-05-06 16:02:45.660012,551833,1609505629098731,3229010375,-1.08336,-0.046848,-0.023424,-14.1575,7.56875,-11.2875,39.224003,-40.568,-58.704002,concentric,4,5.0,19604.0,26658.0,67051.0,81167.0,17066.0,33034.0,27859.0,45974.0,12295.0,9778.0
2026-05-06 16:02:45.662495,551834,1609505629113334,3229025322,-1.046272,-0.01952,0.017568,-13.055,6.195,-9.96625,39.120003,-43.752003,-56.568,concentric,4,5.0,19604.0,26658.0,67051.0,81167.0,17066.0,33034.0,27859.0,45974.0,12295.0,9778.0
2026-05-06 16:02:45.664993,551835,1609505629122339,3229034086,-1.046272,-0.01952,0.017568,-8.435,6.13375,-8.0675,39.120003,-43.752003,-56.568,concentric,4,5.0,19604.0,26658.0,67051.0,81167.0,17066.0,33034.0,27859.0,45974.0,12295.0,9778.0
2026-05-06 16:02:45.692234,551846,1609505629131356,3229042868,-1.085312,0.021472,-0.099552,-5.18,6.34375,-7.28,39.288002,-42.68,-57.088,concentric,4,5.0,19678.0,26688.0,67033.0,80992.0,17097.0,33053.0,27862.0,45856.0,12322.0,9811.0
2026-05-06 16:02:45.694836,551847,1609505629146786,3229057893,-1.085312,0.021472,-0.099552,-4.99625,6.44,-8.35625,39.288002,-42.68,-57.088,concentric,4,5.0,19678.0,26688.0,67033.0,80992.0,17097.0,33053.0,27862.0,45856.0,12322.0,9811.0
2026-05-06 16:02:45.697408,551848,1609505629156267,3229068712,-1.089216,0.003904,-0.091744,-7.945,6.55375,-9.6425,39.432003,-43.024002,-57.768,concentric,4,5.0,19678.0,26688.0,67033.0,80992.0,17097.0,33053.0,27862.0,45856.0,12322.0,9811.0
2026-05-06 16:02:45.702151,551849,1609505629165405,3229077461,-1.089216,0.003904,-0.091744,-12.03125,6.44,-9.70375,39.432003,-43.024002,-57.768,concentric,4,5.0,19678.0,26688.0,67033.0,80992.0,17097.0,33053.0,27862.0,45856.0,12322.0,9811.0
2026-05-06 16:02:45.708446,551850,1609505629180052,3229092542,-1.05408,-0.046848,-0.06832,-15.198751,5.915,-9.695,39.672,-42.352,-57.576004,concentric,4,5.0,19678.0,26688.0,67033.0,80992.0,17097.0,33053.0,27862.0,45856.0,12322.0,9811.0
2026-05-06 16:02:45.717242,551851,1609505629189042,3229101264,-1.05408,-0.046848,-0.06832,-15.015,5.5125,-8.86375,39.672,-42.352,-57.576004,concentric,4,5.0,19678.0,26688.0,67033.0,80992.0,17097.0,33053.0,27862.0,45856.0,12322.0,9811.0
2026-05-06 16:02:45.731266,551852,1609505629203551,3229116219,-1.007232,-0.03904,0.003904,-11.9,5.45125,-7.4375,39.696003,-41.808002,-61.048004,concentric,4,5.0,19678.0,26688.0,67033.0,80992.0,17097.0,33053.0,27862.0,45856.0,12322.0,9811.0
2026-05-06 16:02:45.743747,551853,1609505629212496,3229124932,-1.057984,0.025376,-0.064416,-10.0625,6.01125,-7.06125,39.920002,-42.2,-57.768,concentric,4,5.0,19678.0,26688.0,67033.0,80992.0,17097.0,33053.0,27862.0,45856.0,12322.0,9811.0
2026-05-06 16:02:45.753812,551854,1609505629226980,3229137849,-1.057984,0.025376,-0.064416,-7.5075,6.25625,-6.86875,39.920002,-42.2,-57.768,concentric,4,5.0,19678.0,26688.0,67033.0,80992.0,17097.0,33053.0,27862.0,45856.0,12322.0,9811.0
2026-05-06 16:02:45.783791,551865,1609505629236450,3229148756,-1.0248,0.013664,-0.07808,-8.5575,5.5825,-7.46375,39.88,-40.256,-58.168003,concentric,4,5.0,19741.0,26705.0,66928.0,80890.0,17160.0,33074.0,27818.0,45773.0,12354.0,9833.0
2026-05-06 16:02:45.786407,551866,1609505629245501,3229157542,-1.0248,0.013664,-0.07808,-12.04,4.5675,-7.4725,39.88,-40.256,-58.168003,concentric,4,5.0,19741.0,26705.0,66928.0,80890.0,17160.0,33074.0,27818.0,45773.0,12354.0,9833.0
2026-05-06 16:02:45.788652,551867,1609505629260234,3229172583,-0.99552,-0.017568,-0.095648,-14.25375,4.83,-7.525,40.0,-43.224003,-55.864002,concentric,4,5.0,19741.0,26705.0,66928.0,80890.0,17160.0,33074.0,27818.0,45773.0,12354.0,9833.0
2026-05-06 16:02:45.797587,551868,1609505629269234,3229181341,-0.99552,-0.017568,-0.095648,-15.4525,4.5325,-7.00875,40.0,-43.224003,-55.864002,concentric,4,5.0,19741.0,26705.0,66928.0,80890.0,17160.0,33074.0,27818.0,45773.0,12354.0,9833.0
2026-05-06 16:02:45.812707,551869,1609505629283753,3229196270,-0.989664,-0.033184,-0.033184,-13.825,3.8325,-6.3525,40.128002,-41.504,-58.424004,concentric,4,5.0,19741.0,26705.0,66928.0,80890.0,17160.0,33074.0,27818.0,45773.0,12354.0,9833.0
2026-05-06 16:02:45.821109,551870,1609505629292704,3229204978,-1.016992,-0.021472,-0.015616,-11.865,3.56125,-6.44,41.016003,-40.544003,-57.904003,concentric,4,5.0,19741.0,26705.0,66928.0,80890.0,17160.0,33074.0,27818.0,45773.0,12354.0,9833.0
2026-05-06 16:02:45.830045,551871,1609505629301647,3229213867,-1.016992,-0.021472,-0.015616,-9.8525,3.94625,-6.41375,41.016003,-40.544003,-57.904003,concentric,4,5.0,19741.0,26705.0,66928.0,80890.0,17160.0,33074.0,27818.0,45773.0,12354.0,9833.0
2026-05-06 16:02:45.843583,551872,1609505629316129,3229228812,-1.022848,-0.00976,-0.023424,-7.9625,4.10375,-6.44,40.312,-40.248,-58.288002,concentric,4,5.0,19741.0,26705.0,66928.0,80890.0,17160.0,33074.0,27818.0,45773.0,12354.0,9833.0
2026-05-06 16:02:45.852441,551873,1609505629325044,3229237619,-1.022848,-0.00976,-0.023424,-5.2325,4.7075,-5.55625,40.312,-40.248,-58.288002,concentric,4,5.0,19741.0,26705.0,66928.0,80890.0,17160.0,33074.0,27818.0,45773.0,12354.0,9833.0
2026-05-06 16:02:45.883830,551884,1609505629339704,3229250606,-1.011136,0.017568,-0.0976,-0.42875,5.36375,-4.96125,41.232002,-41.032,-57.384003,concentric,4,5.0,19896.0,26814.0,66941.0,80939.0,17303.0,33174.0,27845.0,45785.0,12480.0,9886.0
2026-05-06 16:02:45.886307,551885,1609505629349199,3229261389,-1.011136,0.017568,-0.0976,0.30625,5.83625,-6.2125,41.232002,-41.032,-57.384003,concentric,4,5.0,19896.0,26814.0,66941.0,80939.0,17303.0,33174.0,27845.0,45785.0,12480.0,9886.0
2026-05-06 16:02:45.888658,551886,1609505629358247,3229270137,-1.028704,0.033184,-0.031232,-1.4875,6.53625,-8.47875,40.768,-42.160004,-56.952003,concentric,4,5.0,19896.0,26814.0,66941.0,80939.0,17303.0,33174.0,27845.0,45785.0,12480.0,9886.0
2026-05-06 16:02:45.902416,551887,1609505629372894,3229285104,-0.993568,0.0,-0.035136,-4.55,6.57125,-9.93125,40.768,-40.688004,-61.328003,concentric,4,5.0,19896.0,26814.0,66941.0,80939.0,17303.0,33174.0,27845.0,45785.0,12480.0,9886.0
2026-05-06 16:02:45.908654,551888,1609505629381816,3229293966,-0.993568,0.0,-0.035136,-8.1025,6.65875,-8.93375,41.304,-40.688004,-61.328003,concentric,4,5.0,19896.0,26814.0,66941.0,80939.0,17303.0,33174.0,27845.0,45785.0,12480.0,9886.0
2026-05-06 16:02:45.926342,551889,1609505629396304,3229308894,-1.00528,-0.076128,-0.103456,-12.075,7.0175,-8.96,41.24,-40.064003,-57.992004,concentric,4,5.0,19896.0,26814.0,66941.0,80939.0,17303.0,33174.0,27845.0,45785.0,12480.0,9886.0
2026-05-06 16:02:45.958906,551890,1609505629405220,3229317705,-1.00528,-0.076128,-0.103456,-12.6,8.1725,-10.31625,41.24,-40.064003,-57.992004,concentric,4,5.0,19896.0,26814.0,66941.0,80939.0,17303.0,33174.0,27845.0,45785.0,12480.0,9886.0
2026-05-06 16:02:45.983646,551891,1609505629419862,3229330606,-1.04432,-0.052704,-0.08784,-8.785,7.27125,-10.5175,41.328003,-40.984,-57.456,concentric,4,5.0,19896.0,26814.0,66941.0,80939.0,17303.0,33174.0,27845.0,45785.0,12480.0,9886.0
2026-05-06 16:02:46.008858,551892,1609505629429045,3229341386,-1.04432,-0.052704,-0.08784,-1.00625,5.64375,-7.63875,41.328003,-40.984,-57.456,concentric,4,5.0,19896.0,26814.0,66941.0,80939.0,17303.0,33174.0,27845.0,45785.0,12480.0,9886.0
2026-05-06 16:02:46.041009,551903,1609505629438148,3229350164,-1.026752,0.017568,-0.027328,5.80125,3.98125,-4.54125,41.736004,-40.4,-58.224003,concentric,4,5.0,20053.0,26961.0,67084.0,80883.0,17455.0,33350.0,27907.0,45798.0,12584.0,9979.0
2026-05-06 16:02:46.043765,551904,1609505629452599,3229365091,-1.026752,0.017568,-0.027328,7.77875,2.96625,-3.64875,41.736004,-40.4,-58.224003,concentric,4,5.0,20053.0,26961.0,67084.0,80883.0,17455.0,33350.0,27907.0,45798.0,12584.0,9979.0
2026-05-06 16:02:46.046259,551905,1609505629461517,3229373777,-1.046272,-0.015616,-0.076128,3.85,2.555,-5.075,41.976,-40.416,-55.592003,concentric,4,5.0,20053.0,26961.0,67084.0,80883.0,17455.0,33350.0,27907.0,45798.0,12584.0,9979.0
2026-05-06 16:02:46.048712,551906,1609505629476055,3229388701,-1.0736,-0.066368,-0.066368,0.3675,3.0625,-6.93875,41.976,-39.896004,-58.784004,concentric,4,5.0,20053.0,26961.0,67084.0,80883.0,17455.0,33350.0,27907.0,45798.0,12584.0,9979.0
2026-05-06 16:02:46.051292,551907,1609505629484966,3229397417,-1.0736,-0.066368,-0.066368,2.0125,2.6075,-7.14875,41.976,-39.896004,-58.784004,concentric,4,5.0,20053.0,26961.0,67084.0,80883.0,17455.0,33350.0,27907.0,45798.0,12584.0,9979.0
2026-05-06 16:02:46.053597,551908,1609505629493921,3229406135,-1.081408,-0.021472,-0.054656,7.07,2.63375,-5.27625,42.160004,-39.848003,-56.440002,concentric,4,5.0,20053.0,26961.0,67084.0,80883.0,17455.0,33350.0,27907.0,45798.0,12584.0,9979.0
2026-05-06 16:02:46.056259,551909,1609505629508477,3229421055,-1.081408,-0.021472,-0.054656,11.57625,1.8725,-3.45625,42.160004,-39.848003,-56.440002,concentric,4,5.0,20053.0,26961.0,67084.0,80883.0,17455.0,33350.0,27907.0,45798.0,12584.0,9979.0
2026-05-06 16:02:46.058759,551910,1609505629517564,3229429821,-1.061888,0.052704,0.03904,10.5175,1.30375,-2.89625,42.144,-41.992,-57.224003,concentric,4,5.0,20053.0,26961.0,67084.0,80883.0,17455.0,33350.0,27907.0,45798.0,12584.0,9979.0
2026-05-06 16:02:46.085912,551921,1609505629532026,3229445140,-1.061888,0.052704,0.03904,6.88625,1.98625,-2.3275,42.144,-41.992,-57.224003,concentric,4,5.0,20180.0,27052.0,67163.0,80824.0,17554.0,33424.0,27981.0,45763.0,12620.0,10023.0
2026-05-06 16:02:46.088434,551922,1609505629541131,3229453915,-1.067744,0.02928,-0.099552,-0.28875,2.54625,-2.86125,42.536003,-41.800003,-57.296,concentric,4,5.0,20180.0,27052.0,67163.0,80824.0,17554.0,33424.0,27981.0,45763.0,12620.0,10023.0
2026-05-06 16:02:46.091014,551923,1609505629555697,3229466830,-1.059936,-0.015616,-0.07808,-6.6325,3.01,-3.68375,42.52,-41.936,-58.992004,concentric,4,5.0,20180.0,27052.0,67163.0,80824.0,17554.0,33424.0,27981.0,45763.0,12620.0,10023.0
2026-05-06 16:02:46.093507,551924,1609505629565133,3229477650,-1.059936,-0.015616,-0.07808,-8.636251,2.93125,-4.2,42.52,-41.936,-58.992004,concentric,4,5.0,20180.0,27052.0,67163.0,80824.0,17554.0,33424.0,27981.0,45763.0,12620.0,10023.0
2026-05-06 16:02:46.102514,551925,1609505629574163,3229486382,-1.059936,-0.060512,-0.056608,-8.0675,2.3625,-4.3575,42.52,-41.936,-58.464005,concentric,4,5.0,20180.0,27052.0,67163.0,80824.0,17554.0,33424.0,27981.0,45763.0,12620.0,10023.0
2026-05-06 16:02:46.116408,551926,1609505629588636,3229501330,-1.05408,-0.060512,-0.056608,-5.43375,2.1175,-4.68125,42.920002,-41.280003,-58.464005,concentric,4,5.0,20180.0,27052.0,67163.0,80824.0,17554.0,33424.0,27981.0,45763.0,12620.0,10023.0
2026-05-06 16:02:46.125430,551927,1609505629597624,3229510141,-1.065792,-0.060512,-0.121024,-2.73875,1.9075,-4.83875,42.528004,-40.336002,-58.656002,concentric,4,5.0,20180.0,27052.0,67163.0,80824.0,17554.0,33424.0,27981.0,45763.0,12620.0,10023.0
2026-05-06 16:02:46.164935,551928,1609505629612143,3229523093,-1.065792,-0.060512,-0.121024,0.8575,1.61,-4.235,42.528004,-40.336002,-58.656002,concentric,4,5.0,20180.0,27052.0,67163.0,80824.0,17554.0,33424.0,27981.0,45763.0,12620.0,10023.0
2026-05-06 16:02:46.167455,551929,1609505629621533,3229533920,-1.057984,-0.00976,-0.050752,5.7225,0.95375,-3.85875,42.936,-41.176003,-58.640003,concentric,4,5.0,20180.0,27052.0,67163.0,80824.0,17554.0,33424.0,27981.0,45763.0,12620.0,10023.0
2026-05-06 16:02:46.170061,551930,1609505629630486,3229542633,-1.057984,-0.00976,-0.050752,8.7325,-0.315,-3.54375,42.936,-41.176003,-58.640003,concentric,4,5.0,20180.0,27052.0,67163.0,80824.0,17554.0,33424.0,27981.0,45763.0,12620.0,10023.0
2026-05-06 16:02:46.197536,551941,1609505629645222,3229557609,-1.032608,0.031232,-0.07808,8.1025,-1.60125,-3.0275,43.168003,-40.304,-58.184002,concentric,4,5.0,20217.0,27019.0,67162.0,80610.0,17574.0,33399.0,27925.0,45705.0,12660.0,10032.0
2026-05-06 16:02:46.200081,551942,1609505629654255,3229566389,-1.032608,0.031232,-0.07808,1.18125,-1.5925,-1.39125,43.168003,-40.304,-58.184002,concentric,4,5.0,20217.0,27019.0,67162.0,80610.0,17574.0,33399.0,27925.0,45705.0,12660.0,10032.0
2026-05-06 16:02:46.202611,551943,1609505629668764,3229581373,-1.04432,0.003904,-0.11712,-6.2125,-1.79375,-0.81375,43.000004,-40.488003,-58.672,concentric,4,5.0,20217.0,27019.0,67162.0,80610.0,17574.0,33399.0,27925.0,45705.0,12660.0,10032.0
2026-05-06 16:02:46.207096,551944,1609505629677764,3229590208,-1.05408,-0.144448,-0.181536,-9.8175,-0.34125,-1.26875,43.216003,-41.624,-57.088,concentric,4,5.0,20217.0,27019.0,67162.0,80610.0,17574.0,33399.0,27925.0,45705.0,12660.0,10032.0
2026-05-06 16:02:46.216100,551945,1609505629686817,3229598941,-1.05408,-0.144448,-0.181536,-18.27,3.10625,-1.58375,43.216003,-41.624,-57.088,concentric,4,5.0,20217.0,27019.0,67162.0,80610.0,17574.0,33399.0,27925.0,45705.0,12660.0,10032.0
2026-05-06 16:02:46.237311,551946,1609505629701463,3229613849,-1.032608,-0.11712,-0.037088,-23.616251,1.07625,-0.98,43.008003,-42.688004,-57.016003,concentric,4,5.0,20217.0,27019.0,67162.0,80610.0,17574.0,33399.0,27925.0,45705.0,12660.0,10032.0
2026-05-06 16:02:46.239946,551947,1609505629710580,3229622591,-1.032608,-0.11712,-0.037088,-10.91125,-1.11125,2.72125,43.008003,-42.688004,-57.016003,concentric,4,5.0,20217.0,27019.0,67162.0,80610.0,17574.0,33399.0,27925.0,45705.0,12660.0,10032.0
2026-05-06 16:02:46.253938,551948,1609505629725096,3229637588,-1.04432,-0.005856,-0.091744,3.955,-4.1475,6.02875,43.480003,-41.096,-57.992004,concentric,4,5.0,20217.0,27019.0,67162.0,80610.0,17574.0,33399.0,27925.0,45705.0,12660.0,10032.0
2026-05-06 16:02:46.287530,551959,1609505629734075,3229646381,-1.04432,-0.005856,-0.091744,8.5575,-3.26375,6.72875,43.480003,-41.096,-57.992004,concentric,4,5.0,20739.0,27527.0,67386.0,80844.0,18078.0,34021.0,28069.0,45873.0,12998.0,10317.0
2026-05-06 16:02:46.289923,551960,1609505629743139,3229655113,-1.110688,0.0488,-0.101504,7.5075,-1.4175,4.5675,43.552002,-40.848003,-57.552002,concentric,4,5.0,20739.0,27527.0,67386.0,80844.0,18078.0,34021.0,28069.0,45873.0,12998.0,10317.0
2026-05-06 16:02:46.292572,551961,1609505629757637,3229670150,-1.098976,-0.001952,-0.119072,4.43625,-0.035,0.9275,43.576,-43.840004,-55.744003,concentric,4,5.0,20739.0,27527.0,67386.0,80844.0,18078.0,34021.0,28069.0,45873.0,12998.0,10317.0
2026-05-06 16:02:46.295228,551962,1609505629766527,3229678870,-1.098976,-0.001952,-0.119072,-0.23625,1.9075,-0.84875,43.576,-43.840004,-55.744003,concentric,4,5.0,20739.0,27527.0,67386.0,80844.0,18078.0,34021.0,28069.0,45873.0,12998.0,10317.0
2026-05-06 16:02:46.326244,551963,1609505629781213,3229693789,-1.069696,0.044896,-0.02928,-6.97375,1.96,-1.19875,43.728,-44.416,-55.688004,concentric,4,5.0,20739.0,27527.0,67386.0,80844.0,18078.0,34021.0,28069.0,45873.0,12998.0,10317.0
2026-05-06 16:02:46.351317,551964,1609505629790176,3229702499,-1.069696,0.044896,-0.02928,-2.1,2.1875,-2.5375,43.728,-44.416,-55.688004,concentric,4,5.0,20739.0,27527.0,67386.0,80844.0,18078.0,34021.0,28069.0,45873.0,12998.0,10317.0
2026-05-06 16:02:46.358869,551965,1609505629804705,3229717448,-1.116544,0.015616,-0.056608,2.065,2.05625,-4.83,44.2,-40.928,-57.600002,concentric,4,5.0,20739.0,27527.0,67386.0,80844.0,18078.0,34021.0,28069.0,45873.0,12998.0,10317.0
2026-05-06 16:02:46.361339,551966,1609505629813619,3229726133,-1.116544,0.015616,-0.056608,1.015,2.37125,-6.8425,44.2,-40.928,-57.600002,concentric,4,5.0,20739.0,27527.0,67386.0,80844.0,18078.0,34021.0,28069.0,45873.0,12998.0,10317.0
2026-05-06 16:02:46.363879,551967,1609505629822567,3229734843,-1.0736,0.0,-0.072224,0.35875,2.6425,-6.37,44.456,-41.016003,-57.416004,concentric,4,5.0,20739.0,27527.0,67386.0,80844.0,18078.0,34021.0,28069.0,45873.0,12998.0,10317.0
2026-05-06 16:02:46.391391,551978,1609505629837383,3229749831,-1.077504,-0.050752,-0.128832,-3.5,3.29875,-6.755,44.760002,-40.936,-54.896004,concentric,4,5.0,21095.0,27799.0,67649.0,81160.0,18392.0,34340.0,28201.0,46018.0,13200.0,10444.0
2026-05-06 16:02:46.393921,551979,1609505629846467,3229758694,-1.077504,-0.050752,-0.128832,-7.81375,4.2175,-10.08,44.760002,-40.936,-54.896004,concentric,4,5.0,21095.0,27799.0,67649.0,81160.0,18392.0,34340.0,28201.0,46018.0,13200.0,10444.0
2026-05-06 16:02:46.396439,551980,1609505629861016,3229773626,-1.136064,-0.042944,-0.121024,-12.95,2.87,-10.98125,44.600002,-43.04,-56.472004,concentric,4,5.0,21095.0,27799.0,67649.0,81160.0,18392.0,34340.0,28201.0,46018.0,13200.0,10444.0
2026-05-06 16:02:46.398921,551981,1609505629870003,3229782491,-1.136064,-0.042944,-0.121024,-13.02875,2.26625,-8.505,44.600002,-43.04,-56.472004,concentric,4,5.0,21095.0,27799.0,67649.0,81160.0,18392.0,34340.0,28201.0,46018.0,13200.0,10444.0
2026-05-06 16:02:46.408535,551982,1609505629879069,3229791240,-1.095072,-0.08784,-0.244,-8.32125,0.60375,-3.85875,44.984,-42.824,-55.984,concentric,4,5.0,21095.0,27799.0,67649.0,81160.0,18392.0,34340.0,28201.0,46018.0,13200.0,10444.0
2026-05-06 16:02:46.421026,551983,1609505629893638,3229806227,-1.095072,-0.08784,-0.244,-8.855001,0.7175,-1.015,44.984,-42.824,-55.984,concentric,4,5.0,21095.0,27799.0,67649.0,81160.0,18392.0,34340.0,28201.0,46018.0,13200.0,10444.0
2026-05-06 16:02:46.429995,551984,1609505629902557,3229814929,-1.079456,-0.130784,-0.267424,-15.86375,2.205,-3.50875,45.088,-41.384003,-56.696003,concentric,4,5.0,21095.0,27799.0,67649.0,81160.0,18392.0,34340.0,28201.0,46018.0,13200.0,10444.0
2026-05-06 16:02:46.443745,551985,1609505629917051,3229827799,-1.204384,-0.111264,-0.021472,-19.95875,1.9425,-4.9875,45.512,-41.728,-55.672,concentric,4,5.0,21095.0,27799.0,67649.0,81160.0,18392.0,34340.0,28201.0,46018.0,13200.0,10444.0
2026-05-06 16:02:46.457618,551986,1609505629926254,3229838616,-1.204384,-0.111264,-0.021472,-21.428751,2.695,-1.91625,45.512,-41.728,-55.672,concentric,4,5.0,21095.0,27799.0,67649.0,81160.0,18392.0,34340.0,28201.0,46018.0,13200.0,10444.0
2026-05-06 16:02:46.488744,551997,1609505629935193,3229847576,-1.204384,-0.111264,-0.021472,-20.055,0.35,3.4825,45.512,-41.728,-55.672,concentric,4,5.0,21256.0,27847.0,67588.0,81579.0,18563.0,34410.0,28129.0,46351.0,13307.0,10474.0
2026-05-06 16:02:46.491421,551998,1609505629949773,3229860599,-1.214144,-0.031232,0.0,-7.07,-0.74375,8.6625,45.480003,-41.920002,-56.688004,concentric,4,5.0,21256.0,27847.0,67588.0,81579.0,18563.0,34410.0,28129.0,46351.0,13307.0,10474.0
2026-05-06 16:02:46.493887,551999,1609505629959096,3229871554,-1.134112,0.050752,-0.0976,-2.2575,0.04375,10.0975,45.232002,-45.256,-54.288002,concentric,4,5.0,21256.0,27847.0,67588.0,81579.0,18563.0,34410.0,28129.0,46351.0,13307.0,10474.0
2026-05-06 16:02:46.500146,552000,1609505629973636,3229884474,-1.134112,0.050752,-0.0976,-12.005,1.46125,5.88875,45.232002,-45.256,-54.288002,concentric,4,5.0,21256.0,27847.0,67588.0,81579.0,18563.0,34410.0,28129.0,46351.0,13307.0,10474.0
2026-05-06 16:02:46.516194,552001,1609505629982938,3229895261,-1.251232,0.109312,-0.138592,-17.885,1.575,0.1225,46.056004,-42.056004,-55.944004,concentric,4,5.0,21256.0,27847.0,67588.0,81579.0,18563.0,34410.0,28129.0,46351.0,13307.0,10474.0
2026-05-06 16:02:46.519992,552002,1609505629991862,3229903948,-1.251232,0.109312,-0.138592,-20.62375,1.9075,-4.41,46.056004,-42.056004,-55.944004,concentric,4,5.0,21256.0,27847.0,67588.0,81579.0,18563.0,34410.0,28129.0,46351.0,13307.0,10474.0
2026-05-06 16:02:46.533752,552003,1609505630006536,3229918937,-1.23952,0.044896,-0.001952,-31.99875,1.28625,-7.81375,46.128002,-42.272003,-55.064003,concentric,4,5.0,21256.0,27847.0,67588.0,81579.0,18563.0,34410.0,28129.0,46351.0,13307.0,10474.0
2026-05-06 16:02:46.542532,552004,1609505630015483,3229927687,-1.23952,0.044896,-0.001952,-35.5075,1.09375,-6.3525,46.128002,-42.272003,-55.064003,concentric,4,5.0,21256.0,27847.0,67588.0,81579.0,18563.0,34410.0,28129.0,46351.0,13307.0,10474.0
2026-05-06 16:02:46.558733,552005,1609505630030037,3229942709,-1.100928,-0.099552,-0.1464,-30.345,2.42375,-4.40125,45.920002,-43.416,-53.88,concentric,4,5.0,21256.0,27847.0,67588.0,81579.0,18563.0,34410.0,28129.0,46351.0,13307.0,10474.0
2026-05-06 16:02:46.590076,552016,1609505630039554,3229951519,-1.08336,-0.12688,-0.095648,-31.1675,2.3275,-6.1775,45.856003,-41.896004,-54.304,concentric,4,5.0,20896.0,27334.0,67097.0,81506.0,18274.0,33893.0,27820.0,46369.0,13097.0,10215.0
2026-05-06 16:02:46.592553,552017,1609505630048726,3229960325,-1.08336,-0.12688,-0.095648,-30.73,1.91625,-7.8575,45.856003,-41.896004,-54.304,concentric,4,5.0,20896.0,27334.0,67097.0,81506.0,18274.0,33893.0,27820.0,46369.0,13097.0,10215.0
2026-05-06 16:02:46.596370,552018,1609505630063274,3229975356,-1.028704,0.025376,-0.023424,-21.875,1.855,-3.82375,46.176003,-43.640003,-53.712,concentric,4,5.0,20896.0,27334.0,67097.0,81506.0,18274.0,33893.0,27820.0,46369.0,13097.0,10215.0
2026-05-06 16:02:46.601170,552019,1609505630072217,3229984112,-1.028704,0.025376,-0.023424,-9.09125,0.98,0.84875,46.176003,-43.640003,-53.712,concentric,4,5.0,20896.0,27334.0,67097.0,81506.0,18274.0,33893.0,27820.0,46369.0,13097.0,10215.0
2026-05-06 16:02:46.615000,552020,1609505630086861,3229999076,-1.026752,0.035136,-0.122976,-3.4125,1.225,-1.16375,46.344,-41.968002,-53.816,concentric,4,5.0,20896.0,27334.0,67097.0,81506.0,18274.0,33893.0,27820.0,46369.0,13097.0,10215.0
2026-05-06 16:02:46.623751,552021,1609505630095805,3230007790,-1.026752,0.035136,-0.122976,-13.02,2.94875,-8.225,46.344,-41.968002,-53.816,concentric,4,5.0,20896.0,27334.0,67097.0,81506.0,18274.0,33893.0,27820.0,46369.0,13097.0,10215.0
2026-05-06 16:02:46.657610,552022,1609505630110384,3230022806,-1.192672,0.007808,-0.050752,-30.1875,3.43,-14.74375,46.648003,-42.920002,-52.640003,concentric,4,5.0,20896.0,27334.0,67097.0,81506.0,18274.0,33893.0,27820.0,46369.0,13097.0,10215.0
2026-05-06 16:02:46.659842,552023,1609505630119326,3230031499,-1.231712,-0.060512,-0.035136,-38.85,2.7475,-18.3575,46.944004,-41.280003,-52.136,concentric,4,5.0,20896.0,27334.0,67097.0,81506.0,18274.0,33893.0,27820.0,46369.0,13097.0,10215.0
2026-05-06 16:02:46.662338,552024,1609505630128339,3230040246,-1.231712,-0.060512,-0.035136,-36.74125,1.53125,-18.85625,46.944004,-41.280003,-52.136,concentric,4,5.0,20896.0,27334.0,67097.0,81506.0,18274.0,33893.0,27820.0,46369.0,13097.0,10215.0
2026-05-06 16:02:46.743797,552035,1609505630142994,3230055228,-1.067744,-0.095648,-0.064416,-27.90375,1.19,-15.25125,47.704002,-43.048,-52.392002,concentric,4,5.0,20664.0,26955.0,66683.0,81888.0,18106.0,33484.0,27610.0,46656.0,12964.0,9983.0
2026-05-06 16:02:46.746142,552036,1609505630152047,3230064061,-1.067744,-0.095648,-0.064416,-12.2325,2.42375,-10.61375,47.704002,-43.048,-52.392002,concentric,4,5.0,20664.0,26955.0,66683.0,81888.0,18106.0,33484.0,27610.0,46656.0,12964.0,9983.0
2026-05-06 16:02:46.748490,552037,1609505630166527,3230079155,-0.999424,-0.080032,-0.122976,-3.4125,3.29,-10.36875,47.376003,-41.416,-53.632004,concentric,4,5.0,20664.0,26955.0,66683.0,81888.0,18106.0,33484.0,27610.0,46656.0,12964.0,9983.0
2026-05-06 16:02:46.751951,552038,1609505630175650,3230087881,-0.999424,-0.080032,-0.122976,-1.51375,4.22625,-13.18625,47.376003,-41.416,-53.632004,concentric,4,5.0,20664.0,26955.0,66683.0,81888.0,18106.0,33484.0,27610.0,46656.0,12964.0,9983.0
2026-05-06 16:02:46.754961,552039,1609505630184678,3230096585,-1.15168,0.0,-0.162016,-0.07875,4.1475,-16.24875,47.984,-41.136,-53.304,concentric,4,5.0,20664.0,26955.0,66683.0,81888.0,18106.0,33484.0,27610.0,46656.0,12964.0,9983.0
2026-05-06 16:02:46.759131,552040,1609505630199256,3230111526,-1.282464,0.023424,-0.085888,-1.81125,2.82625,-19.78375,48.320004,-42.392002,-51.280003,concentric,4,5.0,20664.0,26955.0,66683.0,81888.0,18106.0,33484.0,27610.0,46656.0,12964.0,9983.0
2026-05-06 16:02:46.761022,552041,1609505630208186,3230120300,-1.282464,0.023424,-0.085888,-7.035,0.2275,-20.72,48.320004,-42.392002,-51.280003,concentric,4,5.0,20664.0,26955.0,66683.0,81888.0,18106.0,33484.0,27610.0,46656.0,12964.0,9983.0
2026-05-06 16:02:46.763419,552042,1609505630222852,3230135250,-1.157536,-0.07808,-0.07808,-13.895,-0.945,-17.85875,48.584003,-42.04,-52.232002,concentric,4,5.0,20664.0,26955.0,66683.0,81888.0,18106.0,33484.0,27610.0,46656.0,12964.0,9983.0
2026-05-06 16:02:46.766100,552043,1609505630231841,3230143988,-1.157536,-0.07808,-0.07808,-17.745,-0.3325,-14.105001,48.584003,-42.04,-52.232002,concentric,4,5.0,20664.0,26955.0,66683.0,81888.0,18106.0,33484.0,27610.0,46656.0,12964.0,9983.0
2026-05-06 16:02:46.818779,552054,1609505630246376,3230159013,-1.08336,-0.13664,-0.113216,-16.6775,2.19625,-12.8275,48.584003,-42.176003,-52.856003,concentric,4,5.0,20543.0,26839.0,66784.0,81295.0,17976.0,33352.0,27682.0,46370.0,12884.0,9949.0
2026-05-06 16:02:46.821105,552055,1609505630255425,3230167812,-1.08336,-0.13664,-0.113216,-13.78125,3.49125,-13.90375,48.584003,-42.176003,-52.856003,concentric,4,5.0,20543.0,26839.0,66784.0,81295.0,17976.0,33352.0,27682.0,46370.0,12884.0,9949.0
2026-05-06 16:02:46.823739,552056,1609505630264381,3230176526,-1.24928,-0.035136,-0.103456,-7.60375,2.84375,-15.49625,48.912003,-43.4,-50.568,concentric,4,5.0,20543.0,26839.0,66784.0,81295.0,17976.0,33352.0,27682.0,46370.0,12884.0,9949.0
2026-05-06 16:02:46.826159,552057,1609505630278915,3230191460,-1.24928,-0.035136,-0.119072,-3.605,0.875,-15.30375,48.912003,-43.4,-50.568,concentric,4,5.0,20543.0,26839.0,66784.0,81295.0,17976.0,33352.0,27682.0,46370.0,12884.0,9949.0
2026-05-06 16:02:46.828412,552058,1609505630287848,3230200201,-1.223904,0.03904,-0.119072,-6.39625,-0.8575,-11.85625,49.072002,-40.440002,-50.712,concentric,4,5.0,20543.0,26839.0,66784.0,81295.0,17976.0,33352.0,27682.0,46370.0,12884.0,9949.0
2026-05-06 16:02:46.830965,552059,1609505630302574,3230215158,-1.155584,-0.101504,-0.12688,-12.36375,-1.37375,-8.82875,49.104004,-42.496002,-51.256004,concentric,4,5.0,20543.0,26839.0,66784.0,81295.0,17976.0,33352.0,27682.0,46370.0,12884.0,9949.0
2026-05-06 16:02:46.839979,552060,1609505630311671,3230223871,-1.155584,-0.101504,-0.12688,-16.205,-1.54875,-10.185,49.104004,-42.496002,-51.256004,concentric,4,5.0,20543.0,26839.0,66784.0,81295.0,17976.0,33352.0,27682.0,46370.0,12884.0,9949.0
2026-05-06 16:02:46.848748,552061,1609505630320680,3230232625,-1.184864,-0.119072,-0.066368,-14.81375,-1.86375,-12.5475,49.504,-40.264004,-51.664,concentric,4,5.0,20543.0,26839.0,66784.0,81295.0,17976.0,33352.0,27682.0,46370.0,12884.0,9949.0
2026-05-06 16:02:46.865129,552062,1609505630335175,3230247555,-1.184864,-0.119072,-0.066368,-5.7925,-2.9225,-10.99,49.504,-40.264004,-51.664,concentric,4,5.0,20543.0,26839.0,66784.0,81295.0,17976.0,33352.0,27682.0,46370.0,12884.0,9949.0
2026-05-06 16:02:46.892561,552073,1609505630344230,3230256533,-1.155584,0.003904,-0.121024,5.565,-3.78875,-7.37625,49.528004,-40.160004,-52.368004,concentric,4,5.0,20308.0,26693.0,66745.0,80807.0,17775.0,33246.0,27645.0,46128.0,12763.0,9891.0
2026-05-06 16:02:46.895098,552074,1609505630358850,3230271579,-1.155584,0.003904,-0.121024,11.89125,-4.06875,-5.0225,49.528004,-40.160004,-52.368004,concentric,4,5.0,20308.0,26693.0,66745.0,80807.0,17775.0,33246.0,27645.0,46128.0,12763.0,9891.0
2026-05-06 16:02:46.897550,552075,1609505630367845,3230280343,-1.10288,-0.064416,-0.210816,3.1325,-3.33375,-7.5775,49.344,-41.176003,-51.472004,concentric,4,5.0,20308.0,26693.0,66745.0,80807.0,17775.0,33246.0,27645.0,46128.0,12763.0,9891.0
2026-05-06 16:02:46.903737,552076,1609505630376807,3230289122,-1.10288,-0.064416,-0.210816,-12.46,-2.66,-12.22375,49.344,-41.176003,-51.472004,concentric,4,5.0,20308.0,26693.0,66745.0,80807.0,17775.0,33246.0,27645.0,46128.0,12763.0,9891.0
2026-05-06 16:02:46.937345,552077,1609505630391484,3230304118,-1.18096,-0.171776,-0.16592,-17.22,-3.0275,-13.15125,49.664,-39.816,-52.112003,eccentric,4,5.0,20308.0,26693.0,66745.0,80807.0,17775.0,33246.0,27645.0,46128.0,12763.0,9891.0
2026-05-06 16:02:46.939980,552078,1609505630400623,3230312819,-1.182912,-0.10736,-0.046848,-11.2,-4.2,-9.45,49.456,-39.584003,-51.960003,eccentric,4,5.0,20308.0,26693.0,66745.0,80807.0,17775.0,33246.0,27645.0,46128.0,12763.0,9891.0
2026-05-06 16:02:46.942480,552079,1609505630415133,3230327775,-1.182912,-0.10736,-0.046848,0.95375,-5.74875,-2.0825,49.456,-39.584003,-51.960003,eccentric,4,5.0,20308.0,26693.0,66745.0,80807.0,17775.0,33246.0,27645.0,46128.0,12763.0,9891.0
2026-05-06 16:02:46.951233,552080,1609505630424075,3230336514,-1.143872,0.027328,-0.081984,10.73625,-6.545,4.8825,49.496002,-42.608,-50.104004,eccentric,4,5.0,20308.0,26693.0,66745.0,80807.0,17775.0,33246.0,27645.0,46128.0,12763.0,9891.0
2026-05-06 16:02:46.964981,552081,1609505630438580,3230349555,-1.143872,0.027328,-0.081984,11.76875,-5.60875,6.79,49.496002,-42.608,-50.104004,eccentric,4,5.0,20308.0,26693.0,66745.0,80807.0,17775.0,33246.0,27645.0,46128.0,12763.0,9891.0
2026-05-06 16:02:46.995650,552093,1609505630448616,3230360458,-1.188768,0.023424,-0.138592,3.03625,-4.61125,1.61,49.584003,-41.824,-50.456,eccentric,4,5.0,20266.0,26757.0,66827.0,80651.0,17720.0,33299.0,27730.0,45996.0,12740.0,9924.0
2026-05-06 16:02:46.997414,552094,1609505630457597,3230369270,-1.188768,0.023424,-0.138592,-7.58625,-4.05125,-3.84125,49.584003,-41.824,-50.456,eccentric,4,5.0,20266.0,26757.0,66827.0,80651.0,17720.0,33299.0,27730.0,45996.0,12740.0,9924.0
2026-05-06 16:02:46.999926,552095,1609505630472093,3230384241,-1.182912,-0.093696,-0.17568,-8.645,-3.00125,-5.0225,49.584003,-43.104004,-49.712,eccentric,4,5.0,20266.0,26757.0,66827.0,80651.0,17720.0,33299.0,27730.0,45996.0,12740.0,9924.0
2026-05-06 16:02:47.009527,552096,1609505630481082,3230392962,-1.182912,-0.1464,-0.162016,-9.87875,-3.82375,-5.67,49.584003,-41.456,-50.648003,eccentric,4,5.0,20266.0,26757.0,66827.0,80651.0,17720.0,33299.0,27730.0,45996.0,12740.0,9924.0
2026-05-06 16:02:47.017493,552097,1609505630490196,3230401742,-1.182912,-0.1464,-0.162016,-11.2525,-4.61125,-5.2325,49.384003,-41.456,-50.648003,eccentric,4,5.0,20266.0,26757.0,66827.0,80651.0,17720.0,33299.0,27730.0,45996.0,12740.0,9924.0
2026-05-06 16:02:47.031260,552098,1609505630504668,3230416645,-1.272704,-0.089792,-0.062464,-5.83625,-4.5325,-3.5,49.608,-39.296,-51.824,eccentric,4,5.0,20266.0,26757.0,66827.0,80651.0,17720.0,33299.0,27730.0,45996.0,12740.0,9924.0
2026-05-06 16:02:47.063874,552099,1609505630513605,3230425465,-1.272704,-0.089792,-0.062464,1.33875,-5.11,-2.66875,49.608,-39.296,-51.824,eccentric,4,5.0,20266.0,26757.0,66827.0,80651.0,17720.0,33299.0,27730.0,45996.0,12740.0,9924.0
2026-05-06 16:02:47.089609,552100,1609505630528159,3230440409,-1.290272,-0.037088,-0.07808,3.3075,-5.635,-0.91875,49.440002,-40.072002,-51.024002,eccentric,4,5.0,20266.0,26757.0,66827.0,80651.0,17720.0,33299.0,27730.0,45996.0,12740.0,9924.0
2026-05-06 16:02:47.091155,552101,1609505630537151,3230449236,-1.290272,-0.037088,-0.07808,1.855,-5.32875,2.12625,49.440002,-40.072002,-51.024002,eccentric,4,5.0,20266.0,26757.0,66827.0,80651.0,17720.0,33299.0,27730.0,45996.0,12740.0,9924.0
2026-05-06 16:02:47.118539,552112,1609505630551746,3230464309,-1.280512,-0.01952,-0.140544,-1.11125,-5.3725,2.96625,49.120003,-39.928,-52.120003,eccentric,4,5.0,20093.0,26611.0,66826.0,80488.0,17582.0,33127.0,27722.0,45922.0,12645.0,9858.0
2026-05-06 16:02:47.121127,552113,1609505630560779,3230472999,-1.280512,-0.01952,-0.140544,-3.36,-6.18625,1.19,49.120003,-39.928,-52.120003,eccentric,4,5.0,20093.0,26611.0,66826.0,80488.0,17582.0,33127.0,27722.0,45922.0,12645.0,9858.0
2026-05-06 16:02:47.123705,552114,1609505630569810,3230481738,-1.331264,-0.066368,-0.22448,-2.7125,-5.59125,-1.295,48.976,-39.504,-53.968002,eccentric,4,5.0,20093.0,26611.0,66826.0,80488.0,17582.0,33127.0,27722.0,45922.0,12645.0,9858.0
2026-05-06 16:02:47.126313,552115,1609505630584396,3230496743,-1.38592,-0.089792,-0.12688,-3.77125,-5.67875,-3.07125,48.72,-41.84,-49.976,eccentric,4,5.0,20093.0,26611.0,66826.0,80488.0,17582.0,33127.0,27722.0,45922.0,12645.0,9858.0
2026-05-06 16:02:47.128803,552116,1609505630593337,3230505583,-1.38592,-0.089792,-0.12688,-0.7175,-5.97625,-2.65125,48.72,-41.84,-49.976,eccentric,4,5.0,20093.0,26611.0,66826.0,80488.0,17582.0,33127.0,27722.0,45922.0,12645.0,9858.0
2026-05-06 16:02:47.137446,552117,1609505630607880,3230520569,-1.294176,-0.081984,-0.074176,4.99625,-6.125,-0.42,48.304,-42.832,-49.744003,eccentric,4,5.0,20093.0,26611.0,66826.0,80488.0,17582.0,33127.0,27722.0,45922.0,12645.0,9858.0
2026-05-06 16:02:47.146301,552118,1609505630616804,3230529390,-1.294176,-0.081984,-0.074176,8.02375,-5.59125,0.23625,48.304,-42.832,-49.744003,eccentric,4,5.0,20093.0,26611.0,66826.0,80488.0,17582.0,33127.0,27722.0,45922.0,12645.0,9858.0
2026-05-06 16:02:47.162651,552119,1609505630631346,3230542349,-1.255136,-0.044896,-0.148352,7.39375,-4.54125,0.735,48.344,-40.312,-52.096,eccentric,4,5.0,20093.0,26611.0,66826.0,80488.0,17582.0,33127.0,27722.0,45922.0,12645.0,9858.0
2026-05-06 16:02:47.197500,552130,1609505630640674,3230553193,-1.255136,-0.044896,-0.148352,2.9575,-3.5,-0.42875,48.344,-40.312,-52.096,eccentric,4,5.0,19990.0,26532.0,66858.0,80305.0,17490.0,33049.0,27727.0,45804.0,12603.0,9820.0
2026-05-06 16:02:47.202531,552131,1609505630650046,3230561983,-1.235616,-0.11712,-0.163968,-4.06,-3.5,-2.37125,47.936,-39.920002,-50.584003,eccentric,4,5.0,19990.0,26532.0,66858.0,80305.0,17490.0,33049.0,27727.0,45804.0,12603.0,9820.0
2026-05-06 16:02:47.204956,552132,1609505630664569,3230576937,-1.177056,-0.138592,-0.083936,-8.785,-3.675,-2.1175,48.000004,-39.528004,-52.168003,eccentric,4,5.0,19990.0,26532.0,66858.0,80305.0,17490.0,33049.0,27727.0,45804.0,12603.0,9820.0
2026-05-06 16:02:47.207525,552133,1609505630673593,3230585712,-1.177056,-0.138592,-0.083936,-7.49,-4.48875,1.575,48.000004,-39.528004,-52.168003,eccentric,4,5.0,19990.0,26532.0,66858.0,80305.0,17490.0,33049.0,27727.0,45804.0,12603.0,9820.0
2026-05-06 16:02:47.210039,552134,1609505630682592,3230594479,-1.157536,-0.095648,-0.111264,-0.46375,-5.31125,5.88875,48.000004,-41.064003,-50.936,eccentric,4,5.0,19990.0,26532.0,66858.0,80305.0,17490.0,33049.0,27727.0,45804.0,12603.0,9820.0
2026-05-06 16:02:47.231454,552135,1609505630697095,3230609482,-1.157536,-0.095648,-0.111264,8.3125,-5.39875,8.09375,47.088,-41.064003,-50.936,eccentric,4,5.0,19990.0,26532.0,66858.0,80305.0,17490.0,33049.0,27727.0,45804.0,12603.0,9820.0
2026-05-06 16:02:47.233913,552136,1609505630706065,3230618181,-1.169248,-0.031232,-0.105408,11.59375,-4.64625,8.12,47.072002,-40.04,-52.56,eccentric,4,5.0,19990.0,26532.0,66858.0,80305.0,17490.0,33049.0,27727.0,45804.0,12603.0,9820.0
2026-05-06 16:02:47.267493,552137,1609505630720713,3230633063,-1.169248,-0.031232,-0.105408,12.285,-4.03375,7.34125,47.072002,-40.04,-52.56,eccentric,4,5.0,19990.0,26532.0,66858.0,80305.0,17490.0,33049.0,27727.0,45804.0,12603.0,9820.0
2026-05-06 16:02:47.269872,552138,1609505630729820,3230641789,-1.167296,-0.042944,-0.080032,10.22,-4.40125,7.4025,46.992,-40.264004,-52.856003,eccentric,4,5.0,19990.0,26532.0,66858.0,80305.0,17490.0,33049.0,27727.0,45804.0,12603.0,9820.0
2026-05-06 16:02:47.301019,552149,1609505630744835,3230657008,-1.1224,-0.066368,-0.074176,7.4725,-4.20875,7.83125,46.536003,-40.416,-52.472004,eccentric,4,5.0,20055.0,26560.0,66962.0,80184.0,17520.0,33072.0,27732.0,45722.0,12615.0,9831.0
2026-05-06 16:02:47.303499,552150,1609505630753851,3230665841,-1.1224,-0.066368,-0.074176,6.95625,-3.745,7.34125,46.536003,-40.416,-52.472004,eccentric,4,5.0,20055.0,26560.0,66962.0,80184.0,17520.0,33072.0,27732.0,45722.0,12615.0,9831.0
2026-05-06 16:02:47.306344,552151,1609505630762826,3230674664,-1.1224,-0.040992,-0.109312,6.04625,-3.77125,6.125,46.536003,-40.416,-52.472004,eccentric,4,5.0,20055.0,26560.0,66962.0,80184.0,17520.0,33072.0,27732.0,45722.0,12615.0,9831.0
2026-05-06 16:02:47.308849,552152,1609505630777326,3230689672,-1.138016,-0.040992,-0.109312,6.02,-2.45875,6.08125,45.888,-40.600002,-52.864002,eccentric,4,5.0,20055.0,26560.0,66962.0,80184.0,17520.0,33072.0,27732.0,45722.0,12615.0,9831.0
2026-05-06 16:02:47.315136,552153,1609505630786284,3230698401,-1.157536,-0.054656,-0.0976,-0.86625,-1.02375,5.69625,45.344,-40.336002,-53.184002,eccentric,4,5.0,20055.0,26560.0,66962.0,80184.0,17520.0,33072.0,27732.0,45722.0,12615.0,9831.0
2026-05-06 16:02:47.328901,552154,1609505630800813,3230713291,-1.157536,-0.054656,-0.0976,-7.77875,-0.385,5.64375,45.344,-40.336002,-53.184002,eccentric,4,5.0,20055.0,26560.0,66962.0,80184.0,17520.0,33072.0,27732.0,45722.0,12615.0,9831.0
2026-05-06 16:02:47.337553,552155,1609505630809905,3230722078,-1.124352,-0.0976,-0.144448,-6.5625,-1.44375,5.565,45.456,-40.248,-53.424004,eccentric,4,5.0,20055.0,26560.0,66962.0,80184.0,17520.0,33072.0,27732.0,45722.0,12615.0,9831.0
2026-05-06 16:02:47.346400,552156,1609505630819025,3230730792,-1.124352,-0.0976,-0.144448,-0.77875,-1.88125,5.985,45.456,-40.248,-53.424004,eccentric,4,5.0,20055.0,26560.0,66962.0,80184.0,17520.0,33072.0,27732.0,45722.0,12615.0,9831.0
2026-05-06 16:02:47.379980,552157,1609505630833526,3230745856,-1.106784,-0.076128,-0.121024,5.6,-2.28375,6.93,45.36,-40.784,-53.456,eccentric,4,5.0,20055.0,26560.0,66962.0,80184.0,17520.0,33072.0,27732.0,45722.0,12615.0,9831.0
2026-05-06 16:02:47.477488,552168,1609505630842511,3230754520,-1.106784,-0.076128,-0.121024,9.6775,-2.37125,6.475,45.36,-40.784,-53.456,eccentric,4,5.0,20134.0,26674.0,67007.0,80067.0,17586.0,33180.0,27818.0,45615.0,12672.0,9893.0
2026-05-06 16:02:47.502499,552169,1609505630857124,3230769480,-1.139968,-0.037088,-0.085888,9.00375,-2.10875,6.76375,45.184002,-40.608,-53.976,eccentric,4,5.0,20134.0,26674.0,67007.0,80067.0,17586.0,33180.0,27818.0,45615.0,12672.0,9893.0
2026-05-06 16:02:47.508832,552170,1609505630866077,3230778250,-1.06384,-0.052704,-0.10736,4.62,-1.5225,8.855001,44.584003,-40.480003,-54.024002,eccentric,4,5.0,20134.0,26674.0,67007.0,80067.0,17586.0,33180.0,27818.0,45615.0,12672.0,9893.0
2026-05-06 16:02:47.511374,552171,1609505630875141,3230787042,-1.06384,-0.052704,-0.10736,3.1675,-0.49,9.93125,44.584003,-40.480003,-54.024002,eccentric,4,5.0,20134.0,26674.0,67007.0,80067.0,17586.0,33180.0,27818.0,45615.0,12672.0,9893.0
2026-05-06 16:02:47.513860,552172,1609505630889725,3230801993,-1.13216,-0.052704,-0.111264,3.87625,0.13125,7.3675,44.064003,-42.488003,-52.960003,eccentric,4,5.0,20134.0,26674.0,67007.0,80067.0,17586.0,33180.0,27818.0,45615.0,12672.0,9893.0
2026-05-06 16:02:47.516341,552173,1609505630898623,3230810693,-1.13216,-0.052704,-0.111264,10.5,0.25375,5.0225,44.064003,-42.488003,-52.960003,eccentric,4,5.0,20134.0,26674.0,67007.0,80067.0,17586.0,33180.0,27818.0,45615.0,12672.0,9893.0
2026-05-06 16:02:47.518840,552174,1609505630913242,3230825590,-1.095072,-0.042944,-0.085888,16.2225,-0.65625,5.04,43.72,-41.152,-54.456,eccentric,4,5.0,20134.0,26674.0,67007.0,80067.0,17586.0,33180.0,27818.0,45615.0,12672.0,9893.0
2026-05-06 16:02:47.521292,552175,1609505630922201,3230834297,-1.095072,-0.042944,-0.085888,17.5,-1.1375,7.35875,43.72,-41.152,-54.456,eccentric,4,5.0,20134.0,26674.0,67007.0,80067.0,17586.0,33180.0,27818.0,45615.0,12672.0,9893.0
2026-05-06 16:02:47.523928,552176,1609505630936709,3230849260,-1.003328,-0.00976,-0.074176,16.09125,-1.3475,10.28125,43.736004,-41.2,-55.04,eccentric,4,5.0,20134.0,26674.0,67007.0,80067.0,17586.0,33180.0,27818.0,45615.0,12672.0,9893.0
2026-05-06 16:02:47.551684,552187,1609505630946217,3230858032,-1.046272,-0.013664,-0.06832,12.705,0.13125,8.54,43.408,-41.256,-54.960003,eccentric,4,5.0,20209.0,26749.0,67010.0,80122.0,17643.0,33289.0,27859.0,45620.0,12725.0,9949.0
2026-05-06 16:02:47.553625,552188,1609505630955182,3230866723,-1.046272,-0.013664,-0.06832,10.00125,1.37375,3.63125,43.408,-41.256,-54.960003,eccentric,4,5.0,20209.0,26749.0,67010.0,80122.0,17643.0,33289.0,27859.0,45620.0,12725.0,9949.0
2026-05-06 16:02:47.557903,552189,1609505630969637,3230881630,-1.067744,-0.033184,-0.111264,10.92875,1.785,0.63875,42.648003,-40.728,-55.520004,eccentric,4,5.0,20209.0,26749.0,67010.0,80122.0,17643.0,33289.0,27859.0,45620.0,12725.0,9949.0
2026-05-06 16:02:47.558413,552190,1609505630978558,3230890294,-1.067744,-0.033184,-0.111264,11.85625,1.86375,1.93375,42.648003,-40.728,-55.520004,eccentric,4,5.0,20209.0,26749.0,67010.0,80122.0,17643.0,33289.0,27859.0,45620.0,12725.0,9949.0
2026-05-06 16:02:47.560932,552191,1609505630993182,3230905223,-1.038464,-0.050752,-0.109312,8.8025,1.86375,4.1475,42.632004,-40.776,-55.616,eccentric,4,5.0,20209.0,26749.0,67010.0,80122.0,17643.0,33289.0,27859.0,45620.0,12725.0,9949.0
2026-05-06 16:02:47.563722,552192,1609505631002285,3230914027,-1.038464,-0.050752,-0.109312,6.5975,1.75875,5.38125,42.632004,-40.776,-55.616,eccentric,4,5.0,20209.0,26749.0,67010.0,80122.0,17643.0,33289.0,27859.0,45620.0,12725.0,9949.0
2026-05-06 16:02:47.566206,552193,1609505631011409,3230922822,-0.989664,-0.037088,-0.091744,8.2775,1.96,4.69,42.224003,-42.936,-54.680004,eccentric,4,5.0,20209.0,26749.0,67010.0,80122.0,17643.0,33289.0,27859.0,45620.0,12725.0,9949.0
2026-05-06 16:02:47.568716,552194,1609505631025947,3230937759,-1.040416,0.021472,-0.105408,11.9525,1.82875,4.19125,41.992,-42.712,-56.08,eccentric,4,5.0,20209.0,26749.0,67010.0,80122.0,17643.0,33289.0,27859.0,45620.0,12725.0,9949.0
2026-05-06 16:02:47.571070,552195,1609505631034946,3230946525,-1.040416,0.021472,-0.105408,15.12875,2.21375,3.08875,41.992,-42.712,-56.08,eccentric,4,5.0,20209.0,26749.0,67010.0,80122.0,17643.0,33289.0,27859.0,45620.0,12725.0,9949.0
2026-05-06 16:02:47.601357,552206,1609505631049760,3230961541,-1.018944,-0.00976,-0.08784,13.92125,2.1525,0.805,42.072002,-41.648003,-56.704002,eccentric,4,5.0,20283.0,26871.0,67030.0,80357.0,17754.0,33461.0,27899.0,45725.0,12780.0,10029.0
2026-05-06 16:02:47.603910,552207,1609505631058781,3230970396,-1.018944,-0.00976,-0.08784,10.12375,2.6775,-0.2275,42.072002,-41.648003,-56.704002,eccentric,4,5.0,20283.0,26871.0,67030.0,80357.0,17754.0,33461.0,27899.0,45725.0,12780.0,10029.0
2026-05-06 16:02:47.606358,552208,1609505631067736,3230979170,-0.999424,-0.033184,-0.085888,9.14375,2.6075,0.23625,41.768,-41.448,-57.04,eccentric,4,5.0,20283.0,26871.0,67030.0,80357.0,17754.0,33461.0,27899.0,45725.0,12780.0,10029.0
2026-05-06 16:02:47.610106,552209,1609505631082413,3230994170,-0.999424,-0.033184,-0.085888,9.31,2.8875,0.77875,41.768,-41.448,-57.04,eccentric,4,5.0,20283.0,26871.0,67030.0,80357.0,17754.0,33461.0,27899.0,45725.0,12780.0,10029.0
2026-05-06 16:02:47.618892,552210,1609505631091389,3231002932,-1.013088,-0.021472,-0.076128,12.565,2.9225,0.72625,41.848003,-40.912003,-57.184002,eccentric,4,5.0,20283.0,26871.0,67030.0,80357.0,17754.0,33461.0,27899.0,45725.0,12780.0,10029.0
2026-05-06 16:02:47.632505,552211,1609505631105893,3231017847,-0.989664,0.027328,-0.070272,15.00625,2.6075,0.175,41.04,-42.272003,-56.480003,eccentric,4,5.0,20283.0,26871.0,67030.0,80357.0,17754.0,33461.0,27899.0,45725.0,12780.0,10029.0
2026-05-06 16:02:47.646391,552212,1609505631114843,3231026563,-0.989664,0.027328,-0.070272,12.005,2.49375,1.23375,41.04,-42.272003,-56.480003,eccentric,4,5.0,20283.0,26871.0,67030.0,80357.0,17754.0,33461.0,27899.0,45725.0,12780.0,10029.0
2026-05-06 16:02:47.659891,552213,1609505631129361,3231041497,-0.989664,0.035136,-0.081984,8.155,1.88125,2.52875,41.168003,-40.72,-57.848003,eccentric,4,5.0,20283.0,26871.0,67030.0,80357.0,17754.0,33461.0,27899.0,45725.0,12780.0,10029.0
2026-05-06 16:02:47.666240,552214,1609505631138297,3231050263,-0.989664,0.035136,-0.081984,1.19,1.53125,-0.4375,41.168003,-40.72,-57.848003,eccentric,4,5.0,20283.0,26871.0,67030.0,80357.0,17754.0,33461.0,27899.0,45725.0,12780.0,10029.0
2026-05-06 16:02:47.697235,552225,1609505631147682,3231059269,-1.032608,-0.001952,-0.072224,-2.05625,1.47875,-4.43625,41.04,-41.280003,-58.328003,eccentric,4,5.0,20258.0,26964.0,67126.0,80697.0,17781.0,33553.0,27925.0,45956.0,12769.0,10042.0
2026-05-06 16:02:47.700161,552226,1609505631162305,3231074225,-1.032608,-0.001952,-0.072224,-0.86625,1.1725,-5.9675,41.04,-41.280003,-58.328003,eccentric,4,5.0,20258.0,26964.0,67126.0,80697.0,17781.0,33553.0,27925.0,45956.0,12769.0,10042.0
2026-05-06 16:02:47.702603,552227,1609505631171356,3231082932,-0.968192,-0.05856,-0.054656,0.16625,0.665,-4.40125,41.336002,-42.848003,-56.896004,eccentric,4,5.0,20258.0,26964.0,67126.0,80697.0,17781.0,33553.0,27925.0,45956.0,12769.0,10042.0
2026-05-06 16:02:47.716396,552228,1609505631185932,3231097925,-0.968192,0.003904,0.033184,-3.00125,-0.06125,-1.75875,41.336002,-42.848003,-56.896004,eccentric,4,5.0,20258.0,26964.0,67126.0,80697.0,17781.0,33553.0,27925.0,45956.0,12769.0,10042.0
2026-05-06 16:02:47.722659,552229,1609505631194848,3231106637,-0.948672,0.001952,0.033184,-5.20625,-0.07875,-0.53375,40.648003,-42.000004,-56.648003,eccentric,4,5.0,20258.0,26964.0,67126.0,80697.0,17781.0,33553.0,27925.0,45956.0,12769.0,10042.0
2026-05-06 16:02:47.731482,552230,1609505631203736,3231115337,-0.948672,0.001952,0.033184,-5.80125,-0.5075,-0.98875,40.648003,-42.000004,-56.648003,eccentric,4,5.0,20258.0,26964.0,67126.0,80697.0,17781.0,33553.0,27925.0,45956.0,12769.0,10042.0
2026-05-06 16:02:47.765022,552231,1609505631218326,3231130305,-0.970144,0.040992,-0.054656,-8.6625,-1.26875,-0.5775,40.784,-41.312,-58.088,eccentric,4,5.0,20258.0,26964.0,67126.0,80697.0,17781.0,33553.0,27925.0,45956.0,12769.0,10042.0
2026-05-06 16:02:47.767511,552232,1609505631227282,3231139062,-1.020896,0.033184,-0.013664,-11.76875,-0.56,-0.7175,40.512,-40.328003,-58.128002,eccentric,4,5.0,20258.0,26964.0,67126.0,80697.0,17781.0,33553.0,27925.0,45956.0,12769.0,10042.0
2026-05-06 16:02:47.770022,552233,1609505631241790,3231153988,-1.020896,0.033184,-0.013664,-15.54875,-0.42,-2.45,40.512,-40.328003,-58.128002,eccentric,4,5.0,20258.0,26964.0,67126.0,80697.0,17781.0,33553.0,27925.0,45956.0,12769.0,10042.0
2026-05-06 16:02:47.852444,552244,1609505631251072,3231162806,-1.046272,-0.033184,-0.0488,-15.77625,-1.575,-4.8125,40.728,-41.048,-57.368004,eccentric,4,5.0,20302.0,27150.0,67453.0,81734.0,17899.0,33820.0,28073.0,46460.0,12856.0,10169.0
2026-05-06 16:02:47.854935,552245,1609505631260009,3231171589,-1.046272,-0.033184,-0.0488,-12.69625,-2.58125,-5.08375,40.728,-41.048,-57.368004,eccentric,4,5.0,20302.0,27150.0,67453.0,81734.0,17899.0,33820.0,28073.0,46460.0,12856.0,10169.0
2026-05-06 16:02:47.857500,552246,1609505631274485,3231186553,-1.065792,-0.005856,-0.025376,-6.58875,-3.8325,-2.87875,40.384003,-40.168003,-57.520004,eccentric,4,5.0,20302.0,27150.0,67453.0,81734.0,17899.0,33820.0,28073.0,46460.0,12856.0,10169.0
2026-05-06 16:02:47.859980,552247,1609505631283424,3231195283,-1.065792,-0.005856,-0.025376,1.14625,-5.005,-1.70625,40.384003,-40.168003,-57.520004,eccentric,4,5.0,20302.0,27150.0,67453.0,81734.0,17899.0,33820.0,28073.0,46460.0,12856.0,10169.0
2026-05-06 16:02:47.862468,552248,1609505631297896,3231210246,-1.009184,0.025376,-0.046848,5.53,-6.20375,-1.5225,40.472,-40.248,-57.696003,eccentric,4,5.0,20302.0,27150.0,67453.0,81734.0,17899.0,33820.0,28073.0,46460.0,12856.0,10169.0
2026-05-06 16:02:47.864969,552249,1609505631306881,3231219083,-1.009184,0.080032,-0.062464,2.26625,-7.34125,-0.07,40.472,-40.248,-57.696003,eccentric,4,5.0,20302.0,27150.0,67453.0,81734.0,17899.0,33820.0,28073.0,46460.0,12856.0,10169.0
2026-05-06 16:02:47.867354,552250,1609505631321579,3231234066,-0.991616,0.080032,-0.062464,-6.685,-6.53625,0.2975,40.120003,-39.848003,-57.864002,eccentric,4,5.0,20302.0,27150.0,67453.0,81734.0,17899.0,33820.0,28073.0,46460.0,12856.0,10169.0
2026-05-06 16:02:47.870011,552251,1609505631330683,3231242783,-1.077504,-0.007808,-0.062464,-16.93125,-5.145,-2.1525,40.216003,-40.480003,-57.000004,eccentric,4,5.0,20302.0,27150.0,67453.0,81734.0,17899.0,33820.0,28073.0,46460.0,12856.0,10169.0
2026-05-06 16:02:47.872496,552252,1609505631339725,3231251536,-1.077504,-0.007808,-0.062464,-22.9075,-5.3025,-4.73375,40.216003,-40.480003,-57.000004,eccentric,4,5.0,20302.0,27150.0,67453.0,81734.0,17899.0,33820.0,28073.0,46460.0,12856.0,10169.0
2026-05-06 16:02:47.903925,552263,1609505631354578,3231266627,-1.011136,-0.02928,-0.00976,-22.785,-5.81875,-2.4325,39.84,-41.816,-56.056004,eccentric,4,5.0,19999.0,26914.0,67401.0,82078.0,17656.0,33560.0,28017.0,46665.0,12690.0,10032.0
2026-05-06 16:02:47.906373,552264,1609505631363562,3231275465,-1.011136,-0.02928,-0.00976,-21.9975,-5.95,2.1875,39.84,-41.816,-56.056004,eccentric,4,5.0,19999.0,26914.0,67401.0,82078.0,17656.0,33560.0,28017.0,46665.0,12690.0,10032.0
2026-05-06 16:02:47.908921,552265,1609505631378064,3231290454,-0.976,0.0488,-0.040992,-17.92,-5.5125,4.26125,39.536003,-42.048,-55.920002,eccentric,4,5.0,19999.0,26914.0,67401.0,82078.0,17656.0,33560.0,28017.0,46665.0,12690.0,10032.0
2026-05-06 16:02:47.914986,552266,1609505631387024,3231299268,-0.976,0.0488,-0.040992,-15.39125,-4.87375,3.5525,39.536003,-42.048,-55.920002,eccentric,4,5.0,19999.0,26914.0,67401.0,82078.0,17656.0,33560.0,28017.0,46665.0,12690.0,10032.0
2026-05-06 16:02:47.923884,552267,1609505631395959,3231308022,-1.009184,0.085888,-0.0488,-16.7475,-4.4975,1.82875,40.088,-40.712,-52.976,eccentric,4,5.0,19999.0,26914.0,67401.0,82078.0,17656.0,33560.0,28017.0,46665.0,12690.0,10032.0
2026-05-06 16:02:47.937528,552268,1609505631410462,3231322973,-1.01504,0.042944,-0.025376,-19.3375,-4.50625,0.72625,39.512,-40.064003,-56.496002,eccentric,4,5.0,19999.0,26914.0,67401.0,82078.0,17656.0,33560.0,28017.0,46665.0,12690.0,10032.0
2026-05-06 16:02:47.946726,552269,1609505631419370,3231331691,-1.01504,0.042944,-0.025376,-18.57625,-5.075,-0.16625,39.512,-40.064003,-56.496002,eccentric,4,5.0,19999.0,26914.0,67401.0,82078.0,17656.0,33560.0,28017.0,46665.0,12690.0,10032.0
2026-05-06 16:02:47.979873,552270,1609505631434008,3231346682,-0.997472,-0.011712,-0.070272,-15.26875,-5.24125,-1.23375,39.480003,-40.288002,-56.296,eccentric,4,5.0,19999.0,26914.0,67401.0,82078.0,17656.0,33560.0,28017.0,46665.0,12690.0,10032.0
2026-05-06 16:02:47.982520,552271,1609505631442951,3231355380,-0.997472,-0.011712,-0.070272,-11.10375,-5.565,-1.89,39.480003,-40.288002,-56.296,eccentric,4,5.0,19999.0,26914.0,67401.0,82078.0,17656.0,33560.0,28017.0,46665.0,12690.0,10032.0
2026-05-06 16:02:48.012679,552282,1609505631457538,3231368364,-1.050176,0.00976,-0.066368,-5.15375,-4.865,-2.2225,39.512,-40.456,-56.120003,eccentric,4,5.0,19854.0,26752.0,67383.0,82158.0,17534.0,33428.0,28024.0,46700.0,12616.0,9978.0
2026-05-06 16:02:48.015130,552283,1609505631466831,3231379154,-1.050176,0.00976,-0.066368,-1.3475,-4.4975,-2.21375,39.512,-40.456,-56.120003,eccentric,4,5.0,19854.0,26752.0,67383.0,82158.0,17534.0,33428.0,28024.0,46700.0,12616.0,9978.0
2026-05-06 16:02:48.017692,552284,1609505631475864,3231387922,-1.03456,0.035136,-0.06832,-0.1225,-4.50625,-1.47875,39.136,-43.992,-51.624,eccentric,4,5.0,19854.0,26752.0,67383.0,82158.0,17534.0,33428.0,28024.0,46700.0,12616.0,9978.0
2026-05-06 16:02:48.020134,552285,1609505631490561,3231402899,-1.018944,0.037088,-0.060512,-0.5775,-4.7075,0.86625,39.4,-42.288002,-55.392002,eccentric,4,5.0,19854.0,26752.0,67383.0,82158.0,17534.0,33428.0,28024.0,46700.0,12616.0,9978.0
2026-05-06 16:02:48.028531,552286,1609505631499471,3231411613,-1.018944,0.037088,-0.060512,-3.01875,-3.43875,1.9425,39.4,-42.288002,-55.392002,eccentric,4,5.0,19854.0,26752.0,67383.0,82158.0,17534.0,33428.0,28024.0,46700.0,12616.0,9978.0
2026-05-06 16:02:48.072496,552287,1609505631514134,3231426562,-1.030656,0.007808,-0.033184,-4.0075,-2.51125,1.5225,39.336002,-41.112003,-55.288002,eccentric,4,5.0,19854.0,26752.0,67383.0,82158.0,17534.0,33428.0,28024.0,46700.0,12616.0,9978.0
2026-05-06 16:02:48.087512,552288,1609505631523237,3231435281,-1.030656,0.007808,-0.033184,-2.6075,-1.04125,0.595,39.336002,-41.112003,-55.288002,eccentric,4,5.0,19854.0,26752.0,67383.0,82158.0,17534.0,33428.0,28024.0,46700.0,12616.0,9978.0
2026-05-06 16:02:48.090126,552289,1609505631532204,3231444009,-1.0248,0.042944,-0.023424,-0.595,-0.49,0.9275,39.576,-40.904003,-56.232002,eccentric,4,5.0,19854.0,26752.0,67383.0,82158.0,17534.0,33428.0,28024.0,46700.0,12616.0,9978.0
2026-05-06 16:02:48.121711,552300,1609505631547295,3231459343,-1.0248,0.042944,-0.023424,5.145,-0.77875,1.855,39.576,-40.904003,-56.232002,eccentric,4,5.0,19889.0,26785.0,67285.0,82363.0,17547.0,33457.0,28015.0,46715.0,12624.0,9995.0
2026-05-06 16:02:48.122316,552301,1609505631556373,3231468051,-1.038464,0.064416,-0.072224,6.4925,-0.8575,3.22,39.336002,-40.888,-56.496002,eccentric,4,5.0,19889.0,26785.0,67285.0,82363.0,17547.0,33457.0,28015.0,46715.0,12624.0,9995.0
2026-05-06 16:02:48.124836,552302,1609505631571030,3231483150,-1.0248,0.064416,-0.027328,3.0625,-0.3325,3.3425,39.352,-40.448,-58.440002,eccentric,4,5.0,19889.0,26785.0,67285.0,82363.0,17547.0,33457.0,28015.0,46715.0,12624.0,9995.0
2026-05-06 16:02:48.127644,552303,1609505631580131,3231491876,-1.0248,0.064416,-0.027328,0.35,0.35875,2.2925,39.352,-40.448,-58.440002,eccentric,4,5.0,19889.0,26785.0,67285.0,82363.0,17547.0,33457.0,28015.0,46715.0,12624.0,9995.0
2026-05-06 16:02:48.129835,552304,1609505631589053,3231500751,-1.040416,0.06832,-0.050752,-1.715,0.14,0.56,39.352,-40.448,-56.392002,eccentric,4,5.0,19889.0,26785.0,67285.0,82363.0,17547.0,33457.0,28015.0,46715.0,12624.0,9995.0
2026-05-06 16:02:48.132274,552305,1609505631603638,3231515833,-1.04432,0.06832,-0.050752,-1.53125,0.55125,-0.9975,38.760002,-40.488003,-56.568,eccentric,4,5.0,19889.0,26785.0,67285.0,82363.0,17547.0,33457.0,28015.0,46715.0,12624.0,9995.0
2026-05-06 16:02:48.163718,552306,1609505631612702,3231524564,-1.065792,0.013664,-0.037088,1.89,-0.51625,-2.24,39.104,-40.696003,-56.504,eccentric,4,5.0,19889.0,26785.0,67285.0,82363.0,17547.0,33457.0,28015.0,46715.0,12624.0,9995.0
2026-05-06 16:02:48.188879,552307,1609505631627187,3231539486,-1.065792,0.013664,-0.037088,7.735,-1.86375,-2.02125,39.104,-40.696003,-56.504,eccentric,4,5.0,19889.0,26785.0,67285.0,82363.0,17547.0,33457.0,28015.0,46715.0,12624.0,9995.0
2026-05-06 16:02:48.197648,552308,1609505631636129,3231548175,-1.026752,-0.027328,-0.072224,9.730001,-1.96875,-0.1925,38.84,-40.568,-57.032,eccentric,4,5.0,19889.0,26785.0,67285.0,82363.0,17547.0,33457.0,28015.0,46715.0,12624.0,9995.0
2026-05-06 16:02:48.200178,552309,1609505631645061,3231557081,-1.026752,-0.027328,-0.072224,12.29375,-2.2225,0.51625,38.84,-40.568,-57.032,eccentric,4,5.0,19889.0,26785.0,67285.0,82363.0,17547.0,33457.0,28015.0,46715.0,12624.0,9995.0
2026-05-06 16:02:48.230006,552320,1609505631659560,3231572057,-1.056032,-0.017568,-0.02928,13.09,-2.1175,-0.02625,38.864002,-41.008003,-57.024002,eccentric,4,5.0,19816.0,26702.0,67273.0,82128.0,17491.0,33382.0,28024.0,46613.0,12595.0,9954.0
2026-05-06 16:02:48.232479,552321,1609505631668488,3231580805,-1.056032,-0.017568,-0.02928,12.01375,-1.715,-0.2275,38.864002,-41.008003,-57.024002,eccentric,4,5.0,19816.0,26702.0,67273.0,82128.0,17491.0,33382.0,28024.0,46613.0,12595.0,9954.0
2026-05-06 16:02:48.234971,552322,1609505631683459,3231595895,-1.108736,0.037088,-0.001952,12.985,-1.40875,0.175,38.912003,-42.536003,-57.312004,eccentric,4,5.0,19816.0,26702.0,67273.0,82128.0,17491.0,33382.0,28024.0,46613.0,12595.0,9954.0
2026-05-06 16:02:48.237402,552323,1609505631692511,3231604653,-1.085312,0.025376,-0.042944,10.96375,-1.785,-0.56875,38.624,-42.568,-56.112003,eccentric,4,5.0,19816.0,26702.0,67273.0,82128.0,17491.0,33382.0,28024.0,46613.0,12595.0,9954.0
2026-05-06 16:02:48.240005,552324,1609505631707020,3231619587,-1.085312,0.025376,-0.042944,7.1575,-2.37125,-1.89,38.624,-42.568,-56.112003,eccentric,4,5.0,19816.0,26702.0,67273.0,82128.0,17491.0,33382.0,28024.0,46613.0,12595.0,9954.0
2026-05-06 16:02:48.242461,552325,1609505631715985,3231628331,-1.0736,-0.017568,-0.066368,2.93125,-2.6075,-3.885,38.56,-42.368004,-56.064003,eccentric,4,5.0,19816.0,26702.0,67273.0,82128.0,17491.0,33382.0,28024.0,46613.0,12595.0,9954.0
