pc_time,serial_num,sensor_ts,host_ts,ax,ay,az,gx,gy,gz,mx,my,mz,phase,rpe,weight_kg,ppg_a,ppg_b,ppg_c,ppg_d,ppg_e,ppg_f,ppg_g,ppg_h,ppg_i,ppg_j
2026-05-06 16:18:18.008797,727266,1609506561328311,4161240459,0.589504,-0.05856,0.179584,5.635,-1.35625,-22.68,-35.128002,-21.208,-82.144005,concentric,7,5.0,35795.0,37474.0,86820.0,104585.0,32766.0,44870.0,37192.0,59693.0,21401.0,15175.0
2026-05-06 16:18:18.011411,727267,1609506561337274,4161249187,0.589504,-0.05856,0.179584,6.2825,-2.835,-20.86875,-35.128002,-21.208,-82.144005,concentric,7,5.0,35795.0,37474.0,86820.0,104585.0,32766.0,44870.0,37192.0,59693.0,21401.0,15175.0
2026-05-06 16:18:18.013648,727268,1609506561351910,4161264116,0.821792,-0.128832,0.183488,10.36,-6.685,-20.06375,-35.184002,-21.784,-81.200005,concentric,7,5.0,35795.0,37474.0,86820.0,104585.0,32766.0,44870.0,37192.0,59693.0,21401.0,15175.0
2026-05-06 16:18:18.016251,727269,1609506561360842,4161272867,0.821792,-0.128832,0.183488,10.96375,-8.35625,-15.54,-35.184002,-21.784,-81.200005,concentric,7,5.0,35795.0,37474.0,86820.0,104585.0,32766.0,44870.0,37192.0,59693.0,21401.0,15175.0
2026-05-06 16:18:18.018864,727270,1609506561369941,4161281595,0.544608,-0.013664,0.327936,8.6625,-4.80375,-14.37625,-34.872,-21.824001,-83.920006,concentric,7,5.0,35795.0,37474.0,86820.0,104585.0,32766.0,44870.0,37192.0,59693.0,21401.0,15175.0
2026-05-06 16:18:18.021265,727271,1609506561384399,4161296537,0.626592,-0.062464,0.257664,4.54125,-2.84375,-18.235,-34.864002,-22.352001,-82.136,concentric,7,5.0,35795.0,37474.0,86820.0,104585.0,32766.0,44870.0,37192.0,59693.0,21401.0,15175.0
2026-05-06 16:18:18.023833,727272,1609506561393365,4161305235,0.626592,-0.062464,0.257664,-2.3275,-4.43625,-12.5825,-34.864002,-22.352001,-82.136,concentric,7,5.0,35795.0,37474.0,86820.0,104585.0,32766.0,44870.0,37192.0,59693.0,21401.0,15175.0
2026-05-06 16:18:18.026228,727273,1609506561407863,4161320316,0.675392,-0.152256,0.140544,-9.5725,-4.6025,-5.11,-34.688004,-22.320002,-82.368004,concentric,7,5.0,35795.0,37474.0,86820.0,104585.0,32766.0,44870.0,37192.0,59693.0,21401.0,15175.0
2026-05-06 16:18:18.028613,727274,1609506561416831,4161329040,0.675392,-0.152256,0.140544,-6.02,-7.44625,-2.695,-34.688004,-22.320002,-82.368004,concentric,7,5.0,35795.0,37474.0,86820.0,104585.0,32766.0,44870.0,37192.0,59693.0,21401.0,15175.0
2026-05-06 16:18:18.056247,727285,1609506561431414,4161342181,0.724192,-0.08784,0.232288,2.7825,-11.0075,-0.30625,-34.640003,-24.320002,-80.192,concentric,7,5.0,35972.0,37920.0,86721.0,106133.0,32944.0,45303.0,37131.0,60462.0,21495.0,15392.0
2026-05-06 16:18:18.058871,727286,1609506561440597,4161352957,0.724192,-0.08784,0.232288,7.245,-11.7425,2.28375,-34.640003,-24.320002,-80.192,concentric,7,5.0,35972.0,37920.0,86721.0,106133.0,32944.0,45303.0,37131.0,60462.0,21495.0,15392.0
2026-05-06 16:18:18.061334,727287,1609506561449523,4161361670,0.616832,0.01952,0.296704,8.6275,-9.2225,4.2875,-34.976,-21.584002,-83.776,concentric,7,5.0,35972.0,37920.0,86721.0,106133.0,32944.0,45303.0,37131.0,60462.0,21495.0,15392.0
2026-05-06 16:18:18.067559,727288,1609506561464351,4161376679,0.657824,-0.11712,0.212768,-1.05875,-6.34375,4.22625,-35.16,-25.224,-82.43201,concentric,7,5.0,35972.0,37920.0,86721.0,106133.0,32944.0,45303.0,37131.0,60462.0,21495.0,15392.0
2026-05-06 16:18:18.070025,727289,1609506561473648,4161385441,0.657824,-0.11712,0.212768,-14.84,-3.92,5.1625,-35.16,-25.224,-82.43201,concentric,7,5.0,35972.0,37920.0,86721.0,106133.0,32944.0,45303.0,37131.0,60462.0,21495.0,15392.0
2026-05-06 16:18:18.072602,727290,1609506561488284,4161400510,0.76128,-0.179584,0.1952,-22.61,-3.01875,9.14375,-34.968002,-25.168001,-81.088005,concentric,7,5.0,35972.0,37920.0,86721.0,106133.0,32944.0,45303.0,37131.0,60462.0,21495.0,15392.0
2026-05-06 16:18:18.075092,727291,1609506561497247,4161409265,0.76128,-0.179584,0.1952,-23.52,-3.66625,10.4125,-34.968002,-25.168001,-81.088005,concentric,7,5.0,35972.0,37920.0,86721.0,106133.0,32944.0,45303.0,37131.0,60462.0,21495.0,15392.0
2026-05-06 16:18:18.077642,727292,1609506561506172,4161417950,0.735904,-0.081984,0.261568,-18.4975,-2.61625,10.77125,-34.856003,-23.6,-81.104004,concentric,7,5.0,35972.0,37920.0,86721.0,106133.0,32944.0,45303.0,37131.0,60462.0,21495.0,15392.0
2026-05-06 16:18:18.086377,727293,1609506561520707,4161432857,0.735904,-0.081984,0.261568,-10.66625,-1.5575,11.865,-34.856003,-23.6,-81.104004,concentric,7,5.0,35972.0,37920.0,86721.0,106133.0,32944.0,45303.0,37131.0,60462.0,21495.0,15392.0
2026-05-06 16:18:18.123951,727304,1609506561529757,4161441604,0.66368,-0.11712,0.232288,-14.1575,0.18375,10.57875,-35.272003,-23.256,-81.088005,concentric,7,5.0,35781.0,37724.0,86532.0,105540.0,32769.0,45168.0,37052.0,60182.0,21386.0,15285.0
2026-05-06 16:18:18.126258,727305,1609506561544447,4161456621,0.66368,-0.12688,0.226432,-20.58875,1.00625,12.43375,-35.120003,-23.480001,-82.52801,concentric,7,5.0,35781.0,37724.0,86532.0,105540.0,32769.0,45168.0,37052.0,60182.0,21386.0,15285.0
2026-05-06 16:18:18.128828,727306,1609506561553552,4161465344,0.66368,-0.12688,0.226432,-23.26625,0.25375,16.52875,-35.120003,-23.480001,-82.52801,concentric,7,5.0,35781.0,37724.0,86532.0,105540.0,32769.0,45168.0,37052.0,60182.0,21386.0,15285.0
2026-05-06 16:18:18.131401,727307,1609506561562535,4161474068,0.66368,-0.12688,0.226432,-21.105,-0.2625,22.88125,-35.120003,-23.480001,-82.52801,concentric,7,5.0,35781.0,37724.0,86532.0,105540.0,32769.0,45168.0,37052.0,60182.0,21386.0,15285.0
2026-05-06 16:18:18.144918,727308,1609506561577080,4161489033,0.687104,-0.203008,0.173728,-19.88875,-0.60375,24.50875,-35.488003,-22.848001,-83.44,concentric,7,5.0,35781.0,37724.0,86532.0,105540.0,32769.0,45168.0,37052.0,60182.0,21386.0,15285.0
2026-05-06 16:18:18.152146,727309,1609506561585983,4161497771,0.732,-0.167872,0.230336,-29.5925,-1.2775,20.93,-35.440002,-21.328001,-81.12,concentric,7,5.0,35781.0,37724.0,86532.0,105540.0,32769.0,45168.0,37052.0,60182.0,21386.0,15285.0
2026-05-06 16:18:18.165101,727310,1609506561600474,4161512653,0.732,-0.167872,0.230336,-29.61,0.105,24.68375,-35.440002,-21.328001,-81.12,concentric,7,5.0,35781.0,37724.0,86532.0,105540.0,32769.0,45168.0,37052.0,60182.0,21386.0,15285.0
2026-05-06 16:18:18.173936,727311,1609506561609406,4161521358,0.626592,-0.080032,0.212768,-18.40125,-0.6825,26.145,-35.952003,-22.696001,-81.04,concentric,7,5.0,35781.0,37724.0,86532.0,105540.0,32769.0,45168.0,37052.0,60182.0,21386.0,15285.0
2026-05-06 16:18:18.207689,727312,1609506561623965,4161536409,0.70272,-0.115168,0.183488,-11.042501,-2.63375,24.9725,-35.728,-20.656,-81.8,concentric,7,5.0,35781.0,37724.0,86532.0,105540.0,32769.0,45168.0,37052.0,60182.0,21386.0,15285.0
2026-05-06 16:18:18.237697,727323,1609506561633046,4161545228,0.70272,-0.115168,0.183488,-11.47125,-2.94,28.11375,-35.728,-20.656,-81.8,concentric,7,5.0,35721.0,37697.0,86486.0,103873.0,32701.0,45197.0,37065.0,59263.0,21353.0,15289.0
2026-05-06 16:18:18.242723,727324,1609506561641984,4161553925,0.70272,-0.115168,0.183488,-15.18125,-2.0475,31.4825,-35.728,-20.656,-81.8,concentric,7,5.0,35721.0,37697.0,86486.0,103873.0,32701.0,45197.0,37065.0,59263.0,21353.0,15289.0
2026-05-06 16:18:18.243097,727325,1609506561656473,4161568870,0.716384,-0.16592,0.189344,-19.915,-1.02375,31.01,-36.08,-20.064001,-81.68,concentric,7,5.0,35721.0,37697.0,86486.0,103873.0,32701.0,45197.0,37065.0,59263.0,21353.0,15289.0
2026-05-06 16:18:18.244896,727326,1609506561665471,4161577628,0.755424,-0.148352,0.23424,-26.4775,-0.7175,29.286251,-35.648003,-22.168001,-81.424,concentric,7,5.0,35721.0,37697.0,86486.0,103873.0,32701.0,45197.0,37065.0,59263.0,21353.0,15289.0
2026-05-06 16:18:18.249099,727327,1609506561680107,4161592764,0.755424,-0.148352,0.23424,-32.01625,0.77875,26.38125,-35.648003,-22.168001,-81.424,concentric,7,5.0,35721.0,37697.0,86486.0,103873.0,32701.0,45197.0,37065.0,59263.0,21353.0,15289.0
2026-05-06 16:18:18.253939,727328,1609506561689207,4161601497,0.700768,-0.085888,0.203008,-24.84125,1.32125,27.92125,-36.16,-21.792002,-81.136,concentric,7,5.0,35721.0,37697.0,86486.0,103873.0,32701.0,45197.0,37065.0,59263.0,21353.0,15289.0
2026-05-06 16:18:18.262583,727329,1609506561698172,4161610224,0.700768,-0.085888,0.203008,-15.636251,0.3325,28.00875,-36.16,-21.792002,-81.136,concentric,7,5.0,35721.0,37697.0,86486.0,103873.0,32701.0,45197.0,37065.0,59263.0,21353.0,15289.0
2026-05-06 16:18:18.278685,727330,1609506561712699,4161625109,0.737856,-0.119072,0.242048,-15.75875,-0.0875,26.81,-36.072002,-19.28,-81.888,concentric,7,5.0,35721.0,37697.0,86486.0,103873.0,32701.0,45197.0,37065.0,59263.0,21353.0,15289.0
2026-05-06 16:18:18.303907,727331,1609506561721809,4161633873,0.737856,-0.119072,0.242048,-15.7325,1.58375,30.0825,-36.072002,-19.28,-81.888,concentric,7,5.0,35721.0,37697.0,86486.0,103873.0,32701.0,45197.0,37065.0,59263.0,21353.0,15289.0
2026-05-06 16:18:18.366292,727342,1609506561736335,4161649020,0.772992,-0.15616,0.167872,-15.61,1.91625,30.7125,-36.448,-19.048,-82.064,concentric,7,5.0,35790.0,37832.0,86685.0,102693.0,32812.0,45350.0,37182.0,58643.0,21428.0,15336.0
2026-05-06 16:18:18.368914,727343,1609506561745272,4161657787,0.75152,-0.115168,0.277184,-22.51375,2.87875,23.66875,-36.664,-18.52,-82.008,concentric,7,5.0,35790.0,37832.0,86685.0,102693.0,32812.0,45350.0,37182.0,58643.0,21428.0,15336.0
2026-05-06 16:18:18.371379,727344,1609506561759783,4161670791,0.75152,-0.115168,0.277184,-24.08,6.02,20.3875,-36.664,-18.52,-82.008,concentric,7,5.0,35790.0,37832.0,86685.0,102693.0,32812.0,45350.0,37182.0,58643.0,21428.0,15336.0
2026-05-06 16:18:18.373957,727345,1609506561768940,4161681574,0.772992,-0.15616,0.245952,-14.385,8.5575,23.73875,-37.024002,-18.544,-81.864006,concentric,7,5.0,35790.0,37832.0,86685.0,102693.0,32812.0,45350.0,37182.0,58643.0,21428.0,15336.0
2026-05-06 16:18:18.376411,727346,1609506561777878,4161690276,0.772992,-0.15616,0.245952,-10.03625,10.21125,24.47375,-37.024002,-18.544,-81.864006,concentric,7,5.0,35790.0,37832.0,86685.0,102693.0,32812.0,45350.0,37182.0,58643.0,21428.0,15336.0
2026-05-06 16:18:18.378954,727347,1609506561792619,4161705315,0.76128,-0.163968,0.294752,-12.92375,13.90375,27.34375,-37.88,-21.952002,-79.104004,concentric,7,5.0,35790.0,37832.0,86685.0,102693.0,32812.0,45350.0,37182.0,58643.0,21428.0,15336.0
2026-05-06 16:18:18.384006,727348,1609506561801541,4161714070,0.76128,-0.163968,0.294752,-15.67125,18.76,31.710001,-37.88,-21.952002,-79.104004,concentric,7,5.0,35790.0,37832.0,86685.0,102693.0,32812.0,45350.0,37182.0,58643.0,21428.0,15336.0
2026-05-06 16:18:18.386468,727349,1609506561816234,4161727011,0.739808,-0.119072,0.271328,-21.210001,21.866251,30.54625,-37.856003,-21.640001,-79.64001,concentric,7,5.0,35790.0,37832.0,86685.0,102693.0,32812.0,45350.0,37182.0,58643.0,21428.0,15336.0
2026-05-06 16:18:18.390153,727350,1609506561825624,4161737834,0.776896,-0.148352,0.216672,-25.26125,25.85625,26.705,-37.88,-17.464,-80.512,concentric,7,5.0,35790.0,37832.0,86685.0,102693.0,32812.0,45350.0,37182.0,58643.0,21428.0,15336.0
2026-05-06 16:18:18.419974,727361,1609506561834839,4161746820,0.776896,-0.148352,0.216672,-26.95875,27.85125,22.77625,-37.88,-17.464,-80.512,concentric,7,5.0,35885.0,37864.0,86576.0,102220.0,32803.0,45339.0,37131.0,58366.0,21408.0,15304.0
2026-05-06 16:18:18.422305,727362,1609506561849429,4161761808,0.739808,-0.201056,0.310368,-26.11,29.085001,19.81,-38.864002,-18.272001,-79.728004,concentric,7,5.0,35885.0,37864.0,86576.0,102220.0,32803.0,45339.0,37131.0,58366.0,21408.0,15304.0
2026-05-06 16:18:18.425068,727363,1609506561858391,4161770507,0.739808,-0.201056,0.310368,-18.8475,29.96875,21.07875,-38.864002,-18.272001,-79.728004,concentric,7,5.0,35885.0,37864.0,86576.0,102220.0,32803.0,45339.0,37131.0,58366.0,21408.0,15304.0
2026-05-06 16:18:18.438810,727364,1609506561872949,4161785463,0.691008,-0.187392,0.320128,-10.45625,31.692501,23.065,-38.872,-17.976002,-80.464005,concentric,7,5.0,35885.0,37864.0,86576.0,102220.0,32803.0,45339.0,37131.0,58366.0,21408.0,15304.0
2026-05-06 16:18:18.447509,727365,1609506561881956,4161794173,0.691008,-0.187392,0.320128,-0.97125,31.9025,24.57,-38.872,-17.976002,-80.464005,concentric,7,5.0,35885.0,37864.0,86576.0,102220.0,32803.0,45339.0,37131.0,58366.0,21408.0,15304.0
2026-05-06 16:18:18.456255,727366,1609506561890888,4161802908,0.75152,-0.144448,0.232288,5.2675,31.605,24.675,-39.056004,-16.44,-80.16801,concentric,7,5.0,35885.0,37864.0,86576.0,102220.0,32803.0,45339.0,37131.0,58366.0,21408.0,15304.0
2026-05-06 16:18:18.470071,727367,1609506561905382,4161817822,0.75152,-0.144448,0.320128,5.635,32.8125,20.41375,-39.056004,-16.44,-80.16801,concentric,7,5.0,35885.0,37864.0,86576.0,102220.0,32803.0,45339.0,37131.0,58366.0,21408.0,15304.0
2026-05-06 16:18:18.478836,727368,1609506561914344,4161826563,0.802272,-0.222528,0.320128,4.69875,32.92625,14.752501,-39.632004,-15.928,-78.72,concentric,7,5.0,35885.0,37864.0,86576.0,102220.0,32803.0,45339.0,37131.0,58366.0,21408.0,15304.0
2026-05-06 16:18:18.516450,727379,1609506561929352,4161841546,0.739808,-0.232288,0.376736,-0.09625,33.95875,9.63375,-39.944,-16.784,-78.368004,concentric,7,5.0,36001.0,37989.0,86750.0,101492.0,32894.0,45453.0,37204.0,57935.0,21449.0,15370.0
2026-05-06 16:18:18.523704,727380,1609506561938502,4161850325,0.739808,-0.232288,0.376736,-1.33,33.76625,8.18125,-39.944,-16.784,-78.368004,concentric,7,5.0,36001.0,37989.0,86750.0,101492.0,32894.0,45453.0,37204.0,57935.0,21449.0,15370.0
2026-05-06 16:18:18.529417,727381,1609506561947463,4161859117,0.696864,-0.109312,0.31232,7.21,32.34875,11.3225,-40.24,-15.032001,-79.728004,concentric,7,5.0,36001.0,37989.0,86750.0,101492.0,32894.0,45453.0,37204.0,57935.0,21449.0,15370.0
2026-05-06 16:18:18.529518,727382,1609506561962058,4161874056,0.696864,-0.109312,0.31232,18.26125,28.9275,10.8675,-40.24,-15.032001,-79.728004,concentric,7,5.0,36001.0,37989.0,86750.0,101492.0,32894.0,45453.0,37204.0,57935.0,21449.0,15370.0
2026-05-06 16:18:18.535090,727383,1609506561970988,4161882781,0.827648,-0.154208,0.339648,27.88625,25.3225,6.8075,-40.328003,-14.68,-79.16801,concentric,7,5.0,36001.0,37989.0,86750.0,101492.0,32894.0,45453.0,37204.0,57935.0,21449.0,15370.0
2026-05-06 16:18:18.551364,727384,1609506561985487,4161897781,0.827648,-0.154208,0.339648,28.175,22.47875,2.205,-40.328003,-14.68,-79.16801,concentric,7,5.0,36001.0,37989.0,86750.0,101492.0,32894.0,45453.0,37204.0,57935.0,21449.0,15370.0
2026-05-06 16:18:18.558900,727385,1609506561994439,4161906572,0.714432,-0.150304,0.386496,24.63125,22.44375,-1.32125,-40.568,-14.288001,-81.00001,concentric,7,5.0,36001.0,37989.0,86750.0,101492.0,32894.0,45453.0,37204.0,57935.0,21449.0,15370.0
2026-05-06 16:18:18.579896,727386,1609506562008884,4161921441,0.728096,-0.138592,0.36112,25.69875,19.635,-3.605,-40.488003,-14.392001,-78.896,concentric,7,5.0,36001.0,37989.0,86750.0,101492.0,32894.0,45453.0,37204.0,57935.0,21449.0,15370.0
2026-05-06 16:18:18.582621,727387,1609506562017828,4161930172,0.728096,-0.138592,0.36112,28.07,15.33,-7.55125,-40.488003,-14.392001,-78.896,concentric,7,5.0,36001.0,37989.0,86750.0,101492.0,32894.0,45453.0,37204.0,57935.0,21449.0,15370.0
2026-05-06 16:18:18.593935,727388,1609506562026861,4161939122,0.854976,-0.154208,0.44896,29.715,12.76625,-11.55,-40.488003,-14.392001,-78.256004,concentric,7,5.0,36001.0,37989.0,86750.0,101492.0,32894.0,45453.0,37204.0,57935.0,21449.0,15370.0
2026-05-06 16:18:18.669016,727399,1609506562041456,4161954180,0.854976,-0.154208,0.44896,27.965,12.24125,-12.24125,-40.952003,-15.904,-78.256004,concentric,7,5.0,36287.0,38330.0,86864.0,101849.0,33128.0,45787.0,37270.0,57968.0,21610.0,15533.0
2026-05-06 16:18:18.697578,727400,1609506562050410,4161962950,0.79056,-0.124928,0.482144,19.71375,13.83375,-12.18875,-40.976,-15.960001,-77.328,concentric,7,5.0,36287.0,38330.0,86864.0,101849.0,33128.0,45787.0,37270.0,57968.0,21610.0,15533.0
2026-05-06 16:18:18.718604,727401,1609506562065007,4161975836,0.79056,-0.124928,0.482144,13.85125,16.28375,-16.16125,-40.976,-15.960001,-77.328,concentric,7,5.0,36287.0,38330.0,86864.0,101849.0,33128.0,45787.0,37270.0,57968.0,21610.0,15533.0
2026-05-06 16:18:18.721350,727402,1609506562074284,4161986588,0.894016,-0.134688,0.443104,9.91375,14.11375,-24.675,-41.336002,-14.384001,-75.856,concentric,7,5.0,36287.0,38330.0,86864.0,101849.0,33128.0,45787.0,37270.0,57968.0,21610.0,15533.0
2026-05-06 16:18:18.723875,727403,1609506562083290,4161995314,0.894016,-0.134688,0.443104,4.48875,10.386251,-32.69875,-41.336002,-14.384001,-75.856,concentric,7,5.0,36287.0,38330.0,86864.0,101849.0,33128.0,45787.0,37270.0,57968.0,21610.0,15533.0
2026-05-06 16:18:18.725922,727404,1609506562097778,4162010260,0.954528,-0.122976,0.374784,2.38875,7.8575,-35.665,-41.536003,-17.944,-76.240005,concentric,7,5.0,36287.0,38330.0,86864.0,101849.0,33128.0,45787.0,37270.0,57968.0,21610.0,15533.0
2026-05-06 16:18:18.728485,727405,1609506562106688,4162018982,0.954528,-0.122976,0.374784,2.065,4.80375,-36.44375,-41.536003,-17.944,-76.240005,concentric,7,5.0,36287.0,38330.0,86864.0,101849.0,33128.0,45787.0,37270.0,57968.0,21610.0,15533.0
2026-05-06 16:18:18.730916,727406,1609506562121189,4162033898,1.03456,-0.197152,0.523136,-8.07625,1.42625,-41.34375,-41.848003,-15.360001,-78.856,concentric,7,5.0,36287.0,38330.0,86864.0,101849.0,33128.0,45787.0,37270.0,57968.0,21610.0,15533.0
2026-05-06 16:18:18.761246,727417,1609506562130720,4162042739,1.130208,-0.300608,0.42944,-21.44625,0.315,-45.45625,-41.216003,-16.04,-78.744,concentric,7,5.0,36444.0,38711.0,86186.0,102924.0,33316.0,46163.0,36952.0,58551.0,21718.0,15711.0
2026-05-06 16:18:18.763909,727418,1609506562139820,4162051440,1.130208,-0.300608,0.42944,-29.9075,0.4025,-47.145,-41.216003,-16.04,-78.744,concentric,7,5.0,36444.0,38711.0,86186.0,102924.0,33316.0,46163.0,36952.0,58551.0,21718.0,15711.0
2026-05-06 16:18:18.766336,727419,1609506562154311,4162066416,1.138016,-0.284992,0.480192,-22.40875,1.09375,-44.975,-41.752003,-16.448,-81.05601,concentric,7,5.0,36444.0,38711.0,86186.0,102924.0,33316.0,46163.0,36952.0,58551.0,21718.0,15711.0
2026-05-06 16:18:18.773948,727420,1609506562163419,4162075170,1.138016,-0.284992,0.480192,2.14375,0.315,-41.0725,-41.752003,-16.448,-81.05601,concentric,7,5.0,36444.0,38711.0,86186.0,102924.0,33316.0,46163.0,36952.0,58551.0,21718.0,15711.0
2026-05-06 16:18:18.776359,727421,1609506562178045,4162090236,1.136064,-0.251808,0.464576,28.49,-1.18125,-39.7775,-41.960003,-18.176,-78.01601,concentric,7,5.0,36444.0,38711.0,86186.0,102924.0,33316.0,46163.0,36952.0,58551.0,21718.0,15711.0
2026-05-06 16:18:18.778832,727422,1609506562187101,4162099017,1.136064,-0.251808,0.464576,38.8325,-1.86375,-39.9875,-41.960003,-18.176,-78.01601,concentric,7,5.0,36444.0,38711.0,86186.0,102924.0,33316.0,46163.0,36952.0,58551.0,21718.0,15711.0
2026-05-06 16:18:18.781165,727423,1609506562201637,4162113992,1.157536,-0.226432,0.532896,32.6025,-1.26875,-36.365,-41.832,-17.784,-78.152,concentric,7,5.0,36444.0,38711.0,86186.0,102924.0,33316.0,46163.0,36952.0,58551.0,21718.0,15711.0
2026-05-06 16:18:18.784005,727424,1609506562210583,4162122763,1.126304,-0.163968,0.540704,24.928751,0.83125,-30.380001,-41.864002,-17.008001,-79.456,concentric,7,5.0,36444.0,38711.0,86186.0,102924.0,33316.0,46163.0,36952.0,58551.0,21718.0,15711.0
2026-05-06 16:18:18.786411,727425,1609506562219513,4162131469,1.126304,-0.163968,0.540704,15.96,3.465,-28.20125,-41.864002,-17.008001,-79.456,concentric,7,5.0,36444.0,38711.0,86186.0,102924.0,33316.0,46163.0,36952.0,58551.0,21718.0,15711.0
2026-05-06 16:18:18.826284,727436,1609506562234180,4162146413,1.100928,-0.25376,0.581696,8.3475,5.6,-27.50125,-41.88,-16.944,-79.07201,concentric,7,5.0,35922.0,37803.0,85735.0,102451.0,32821.0,45324.0,36831.0,58461.0,21521.0,15430.0
2026-05-06 16:18:18.828599,727437,1609506562243247,4162155290,1.100928,-0.25376,0.581696,7.3675,6.78125,-23.2575,-41.88,-16.944,-79.07201,concentric,7,5.0,35922.0,37803.0,85735.0,102451.0,32821.0,45324.0,36831.0,58461.0,21521.0,15430.0
2026-05-06 16:18:18.831088,727438,1609506562257765,4162170294,1.08336,-0.339648,0.587552,6.83375,6.86875,-18.89125,-42.128002,-19.408,-76.536,concentric,7,5.0,35922.0,37803.0,85735.0,102451.0,32821.0,45324.0,36831.0,58461.0,21521.0,15430.0
2026-05-06 16:18:18.833615,727439,1609506562266683,4162179006,1.08336,-0.339648,0.587552,6.51875,6.4925,-13.15125,-42.128002,-19.408,-76.536,concentric,7,5.0,35922.0,37803.0,85735.0,102451.0,32821.0,45324.0,36831.0,58461.0,21521.0,15430.0
2026-05-06 16:18:18.839611,727440,1609506562275639,4162187731,1.04432,-0.257664,0.54656,7.35,5.32,-7.55125,-42.248,-17.128,-77.200005,concentric,7,5.0,35922.0,37803.0,85735.0,102451.0,32821.0,45324.0,36831.0,58461.0,21521.0,15430.0
2026-05-06 16:18:18.878768,727441,1609506562290139,4162202694,1.016992,-0.208864,0.495808,4.48,3.82375,-2.56375,-42.136,-16.896,-79.208,concentric,7,5.0,35922.0,37803.0,85735.0,102451.0,32821.0,45324.0,36831.0,58461.0,21521.0,15430.0
2026-05-06 16:18:18.881395,727442,1609506562299090,4162211426,1.016992,-0.208864,0.495808,-0.875,2.52,-0.07,-42.136,-16.896,-79.208,concentric,7,5.0,35922.0,37803.0,85735.0,102451.0,32821.0,45324.0,36831.0,58461.0,21521.0,15430.0
2026-05-06 16:18:18.883935,727443,1609506562313622,4162226353,1.03456,-0.316224,0.493856,-5.76625,1.855,-0.18375,-42.112003,-16.800001,-78.592,concentric,7,5.0,35922.0,37803.0,85735.0,102451.0,32821.0,45324.0,36831.0,58461.0,21521.0,15430.0
2026-05-06 16:18:18.886441,727444,1609506562322606,4162235057,1.03456,-0.316224,0.493856,-5.985,2.05625,0.0,-42.112003,-16.800001,-78.592,concentric,7,5.0,35922.0,37803.0,85735.0,102451.0,32821.0,45324.0,36831.0,58461.0,21521.0,15430.0
2026-05-06 16:18:18.923835,727455,1609506562337286,4162248179,0.933056,-0.347456,0.503616,-2.93125,1.2775,1.88125,-42.000004,-16.472,-78.37601,concentric,7,5.0,35763.0,36993.0,85700.0,100566.0,32417.0,44643.0,36802.0,57511.0,21358.0,15179.0
2026-05-06 16:18:18.926223,727456,1609506562346817,4162259046,0.933056,-0.347456,0.503616,3.0975,0.6825,5.17125,-42.000004,-16.472,-78.37601,concentric,7,5.0,35763.0,36993.0,85700.0,100566.0,32417.0,44643.0,36802.0,57511.0,21358.0,15179.0
2026-05-06 16:18:18.928703,727457,1609506562355781,4162267841,0.894016,-0.230336,0.44896,12.145,-1.09375,9.0475,-42.792004,-18.144001,-78.704,concentric,7,5.0,35763.0,36993.0,85700.0,100566.0,32417.0,44643.0,36802.0,57511.0,21358.0,15179.0
2026-05-06 16:18:18.937630,727458,1609506562370376,4162282758,0.847168,-0.18544,0.472384,14.1575,-2.5725,9.66875,-42.648003,-18.304,-78.256004,concentric,7,5.0,35763.0,36993.0,85700.0,100566.0,32417.0,44643.0,36802.0,57511.0,21358.0,15179.0
2026-05-06 16:18:18.943867,727459,1609506562379323,4162291504,0.847168,-0.18544,0.472384,7.70875,-2.49375,7.63,-42.648003,-18.304,-78.256004,concentric,7,5.0,35763.0,36993.0,85700.0,100566.0,32417.0,44643.0,36802.0,57511.0,21358.0,15179.0
2026-05-06 16:18:18.977778,727460,1609506562393813,4162306421,0.796416,-0.222528,0.443104,4.13,-2.07375,7.46375,-42.168003,-16.008001,-78.968,concentric,7,5.0,35763.0,36993.0,85700.0,100566.0,32417.0,44643.0,36802.0,57511.0,21358.0,15179.0
2026-05-06 16:18:18.979919,727461,1609506562402725,4162315110,0.796416,-0.222528,0.443104,2.1175,-1.7325,5.145,-42.168003,-16.008001,-78.968,concentric,7,5.0,35763.0,36993.0,85700.0,100566.0,32417.0,44643.0,36802.0,57511.0,21358.0,15179.0
2026-05-06 16:18:18.982657,727462,1609506562411655,4162323818,0.765184,-0.171776,0.443104,1.9775,-1.7675,2.415,-42.168003,-15.984001,-79.26401,concentric,7,5.0,35763.0,36993.0,85700.0,100566.0,32417.0,44643.0,36802.0,57511.0,21358.0,15179.0
2026-05-06 16:18:18.991423,727463,1609506562426263,4162338801,0.765184,-0.171776,0.443104,3.31625,-1.54875,2.695,-42.168003,-15.984001,-79.26401,concentric,7,5.0,35763.0,36993.0,85700.0,100566.0,32417.0,44643.0,36802.0,57511.0,21358.0,15179.0
2026-05-06 16:18:19.082525,727474,1609506562435504,4162347654,0.74176,-0.121024,0.423584,3.4125,-0.77875,1.8025,-42.4,-17.312,-78.008,eccentric,7,5.0,35879.0,37018.0,85802.0,100550.0,32456.0,44629.0,36784.0,57394.0,21376.0,15172.0
2026-05-06 16:18:19.085394,727475,1609506562450196,4162362683,0.747616,-0.154208,0.452864,1.1725,1.05,-1.02375,-42.4,-19.080002,-76.600006,eccentric,7,5.0,35879.0,37018.0,85802.0,100550.0,32456.0,44629.0,36784.0,57394.0,21376.0,15172.0
2026-05-06 16:18:19.087350,727476,1609506562459135,4162371381,0.747616,-0.154208,0.452864,1.16375,2.3275,-4.29625,-42.4,-19.080002,-76.600006,eccentric,7,5.0,35879.0,37018.0,85802.0,100550.0,32456.0,44629.0,36784.0,57394.0,21376.0,15172.0
2026-05-06 16:18:19.090767,727477,1609506562468159,4162380208,0.747616,-0.154208,0.452864,0.7525,3.4125,-6.615,-42.4,-19.080002,-76.600006,eccentric,7,5.0,35879.0,37018.0,85802.0,100550.0,32456.0,44629.0,36784.0,57394.0,21376.0,15172.0
2026-05-06 16:18:19.093883,727478,1609506562482719,4162395169,0.724192,-0.142496,0.40992,3.71,3.745,-6.825,-42.464,-16.048,-79.272,eccentric,7,5.0,35879.0,37018.0,85802.0,100550.0,32456.0,44629.0,36784.0,57394.0,21376.0,15172.0
2026-05-06 16:18:19.094702,727479,1609506562491645,4162403877,0.706624,-0.081984,0.425536,5.55625,4.48875,-7.8225,-42.032,-15.672001,-78.05601,eccentric,7,5.0,35879.0,37018.0,85802.0,100550.0,32456.0,44629.0,36784.0,57394.0,21376.0,15172.0
2026-05-06 16:18:19.097251,727480,1609506562506132,4162418781,0.706624,-0.081984,0.425536,9.9575,4.6725,-8.04125,-42.032,-15.672001,-78.05601,eccentric,7,5.0,35879.0,37018.0,85802.0,100550.0,32456.0,44629.0,36784.0,57394.0,21376.0,15172.0
2026-05-06 16:18:19.100010,727481,1609506562515078,4162427623,0.732,-0.10736,0.396256,14.95375,4.55,-7.16625,-42.408,-16.408,-78.90401,eccentric,7,5.0,35879.0,37018.0,85802.0,100550.0,32456.0,44629.0,36784.0,57394.0,21376.0,15172.0
2026-05-06 16:18:19.102520,727482,1609506562529598,4162440506,0.732,-0.10736,0.396256,12.25875,5.08375,-10.535,-42.408,-16.408,-78.90401,eccentric,7,5.0,35879.0,37018.0,85802.0,100550.0,32456.0,44629.0,36784.0,57394.0,21376.0,15172.0
2026-05-06 16:18:19.134005,727493,1609506562539073,4162451459,0.75152,-0.07808,0.431392,9.40625,5.53,-12.2675,-42.224003,-17.896,-77.648,eccentric,7,5.0,35915.0,36999.0,85789.0,101401.0,32442.0,44606.0,36753.0,57873.0,21369.0,15159.0
2026-05-06 16:18:19.136487,727494,1609506562548092,4162460312,0.75152,-0.07808,0.431392,9.58125,5.6525,-11.4625,-42.224003,-17.896,-77.648,eccentric,7,5.0,35915.0,36999.0,85789.0,101401.0,32442.0,44606.0,36753.0,57873.0,21369.0,15159.0
2026-05-06 16:18:19.138992,727495,1609506562562631,4162475271,0.72224,-0.060512,0.40992,9.135,5.95,-12.845,-42.576,-17.632,-77.496,eccentric,7,5.0,35915.0,36999.0,85789.0,101401.0,32442.0,44606.0,36753.0,57873.0,21369.0,15159.0
2026-05-06 16:18:19.141440,727496,1609506562571595,4162484004,0.765184,-0.080032,0.376736,8.82875,6.0375,-13.3525,-42.056004,-16.248001,-80.776,eccentric,7,5.0,35915.0,36999.0,85789.0,101401.0,32442.0,44606.0,36753.0,57873.0,21369.0,15159.0
2026-05-06 16:18:19.150223,727497,1609506562586254,4162498959,0.765184,-0.080032,0.376736,11.83875,5.69625,-12.565,-42.056004,-16.248001,-80.776,eccentric,7,5.0,35915.0,36999.0,85789.0,101401.0,32442.0,44606.0,36753.0,57873.0,21369.0,15159.0
2026-05-06 16:18:19.160216,727498,1609506562595269,4162507742,0.772992,-0.081984,0.384544,12.48625,4.69,-14.28,-42.736004,-17.848001,-77.48,eccentric,7,5.0,35915.0,36999.0,85789.0,101401.0,32442.0,44606.0,36753.0,57873.0,21369.0,15159.0
2026-05-06 16:18:19.170098,727499,1609506562604235,4162516440,0.772992,-0.081984,0.384544,14.0525,3.35125,-14.533751,-42.736004,-17.848001,-77.48,eccentric,7,5.0,35915.0,36999.0,85789.0,101401.0,32442.0,44606.0,36753.0,57873.0,21369.0,15159.0
2026-05-06 16:18:19.203836,727500,1609506562618759,4162531342,0.774944,-0.0488,0.386496,15.53125,1.5575,-14.11375,-42.224003,-17.968,-79.248,eccentric,7,5.0,35915.0,36999.0,85789.0,101401.0,32442.0,44606.0,36753.0,57873.0,21369.0,15159.0
2026-05-06 16:18:19.206269,727501,1609506562627695,4162540053,0.774944,-0.0488,0.386496,16.16125,0.56875,-14.65625,-42.224003,-17.968,-79.248,eccentric,7,5.0,35915.0,36999.0,85789.0,101401.0,32442.0,44606.0,36753.0,57873.0,21369.0,15159.0
2026-05-06 16:18:19.236462,727512,1609506562642303,4162555023,0.808128,-0.08784,0.407968,11.62875,0.32375,-15.42625,-42.064003,-16.424002,-78.944,eccentric,7,5.0,35983.0,37135.0,85814.0,102065.0,32505.0,44717.0,36738.0,58213.0,21379.0,15205.0
2026-05-06 16:18:19.239007,727513,1609506562651252,4162563746,0.808128,-0.05856,0.450912,6.4575,0.875,-16.6075,-42.064003,-16.424002,-76.896,eccentric,7,5.0,35983.0,37135.0,85814.0,102065.0,32505.0,44717.0,36738.0,58213.0,21379.0,15205.0
2026-05-06 16:18:19.241405,727514,1609506562665871,4162576666,0.782752,-0.05856,0.450912,6.41375,0.21875,-15.085,-42.36,-16.496,-76.912,eccentric,7,5.0,35983.0,37135.0,85814.0,102065.0,32505.0,44717.0,36738.0,58213.0,21379.0,15205.0
2026-05-06 16:18:19.244020,727515,1609506562675164,4162587444,0.847168,-0.07808,0.398208,9.45,-1.07625,-13.18625,-42.384003,-16.992,-77.96001,eccentric,7,5.0,35983.0,37135.0,85814.0,102065.0,32505.0,44717.0,36738.0,58213.0,21379.0,15205.0
2026-05-06 16:18:19.247548,727516,1609506562684168,4162596245,0.847168,-0.07808,0.398208,8.70625,-1.7675,-13.895,-42.384003,-16.992,-77.96001,eccentric,7,5.0,35983.0,37135.0,85814.0,102065.0,32505.0,44717.0,36738.0,58213.0,21379.0,15205.0
2026-05-06 16:18:19.290065,727517,1609506562698691,4162611216,0.843264,-0.103456,0.40992,4.8475,-2.1,-14.06125,-42.328003,-18.576,-77.784004,eccentric,7,5.0,35983.0,37135.0,85814.0,102065.0,32505.0,44717.0,36738.0,58213.0,21379.0,15205.0
2026-05-06 16:18:19.291953,727518,1609506562707599,4162620034,0.843264,-0.103456,0.40992,2.1875,-2.05625,-13.0375,-42.328003,-18.576,-77.784004,eccentric,7,5.0,35983.0,37135.0,85814.0,102065.0,32505.0,44717.0,36738.0,58213.0,21379.0,15205.0
2026-05-06 16:18:19.294630,727519,1609506562722077,4162632893,0.85888,-0.095648,0.454816,-0.46375,-2.8175,-11.99625,-41.888,-16.752,-78.896,eccentric,7,5.0,35983.0,37135.0,85814.0,102065.0,32505.0,44717.0,36738.0,58213.0,21379.0,15205.0
2026-05-06 16:18:19.323979,727530,1609506562731309,4162644277,0.85888,-0.095648,0.454816,-1.6975,-3.96375,-10.955,-41.888,-16.752,-78.896,eccentric,7,5.0,36196.0,37386.0,85954.0,102389.0,32651.0,44962.0,36812.0,58330.0,21453.0,15280.0
2026-05-06 16:18:19.326353,727531,1609506562740396,4162653042,0.851072,-0.046848,0.425536,-2.96625,-5.92375,-10.03625,-42.016003,-18.472,-75.688,eccentric,7,5.0,36196.0,37386.0,85954.0,102389.0,32651.0,44962.0,36812.0,58330.0,21453.0,15280.0
2026-05-06 16:18:19.331195,727532,1609506562755108,4162665970,0.884256,-0.080032,0.40016,-3.54375,-8.198751,-9.9225,-42.016003,-19.224,-76.880005,eccentric,7,5.0,36196.0,37386.0,85954.0,102389.0,32651.0,44962.0,36812.0,58330.0,21453.0,15280.0
2026-05-06 16:18:19.333962,727533,1609506562764433,4162676867,0.884256,-0.080032,0.40016,-5.29375,-9.765,-9.730001,-42.016003,-19.224,-76.880005,eccentric,7,5.0,36196.0,37386.0,85954.0,102389.0,32651.0,44962.0,36812.0,58330.0,21453.0,15280.0
2026-05-06 16:18:19.342697,727534,1609506562778992,4162689769,0.853024,-0.074176,0.435296,-7.5075,-11.235,-9.730001,-42.272003,-20.664001,-77.144005,eccentric,7,5.0,36196.0,37386.0,85954.0,102389.0,32651.0,44962.0,36812.0,58330.0,21453.0,15280.0
2026-05-06 16:18:19.356443,727535,1609506562788212,4162700548,0.853024,-0.074176,0.435296,-7.6825,-12.136251,-8.12875,-42.272003,-20.664001,-77.144005,eccentric,7,5.0,36196.0,37386.0,85954.0,102389.0,32651.0,44962.0,36812.0,58330.0,21453.0,15280.0
2026-05-06 16:18:19.362458,727536,1609506562797140,4162709268,0.835456,-0.056608,0.374784,-6.65,-13.13375,-7.315,-41.848003,-17.160002,-79.624,eccentric,7,5.0,36196.0,37386.0,85954.0,102389.0,32651.0,44962.0,36812.0,58330.0,21453.0,15280.0
2026-05-06 16:18:19.376292,727537,1609506562811665,4162724306,0.835456,-0.056608,0.374784,-9.05625,-12.9675,-7.4725,-41.848003,-17.160002,-79.624,eccentric,7,5.0,36196.0,37386.0,85954.0,102389.0,32651.0,44962.0,36812.0,58330.0,21453.0,15280.0
2026-05-06 16:18:19.432611,727538,1609506562820570,4162733017,0.794464,-0.050752,0.394304,-9.58125,-12.705,-5.95,-41.896004,-17.016,-82.208,eccentric,7,5.0,36196.0,37386.0,85954.0,102389.0,32651.0,44962.0,36812.0,58330.0,21453.0,15280.0
2026-05-06 16:18:19.493864,727550,1609506562835260,4162746003,0.802272,-0.042944,0.41968,-8.84625,-11.97,-3.99875,-41.776,-17.104,-79.648,eccentric,7,5.0,36323.0,37550.0,85983.0,102542.0,32756.0,45150.0,36854.0,58390.0,21521.0,15374.0
2026-05-06 16:18:19.498888,727551,1609506562844536,4162756852,0.802272,-0.042944,0.41968,-6.79875,-11.57625,-3.0625,-41.776,-17.104,-79.648,eccentric,7,5.0,36323.0,37550.0,85983.0,102542.0,32756.0,45150.0,36854.0,58390.0,21521.0,15374.0
2026-05-06 16:18:19.501234,727552,1609506562853477,4162765568,0.772992,-0.054656,0.404064,-7.84875,-10.4825,-3.43,-41.640003,-17.792002,-79.272,eccentric,7,5.0,36323.0,37550.0,85983.0,102542.0,32756.0,45150.0,36854.0,58390.0,21521.0,15374.0
2026-05-06 16:18:19.503948,727553,1609506562868007,4162780486,0.772992,-0.054656,0.404064,-9.45875,-9.0125,-2.68625,-41.640003,-17.792002,-79.272,eccentric,7,5.0,36323.0,37550.0,85983.0,102542.0,32756.0,45150.0,36854.0,58390.0,21521.0,15374.0
2026-05-06 16:18:19.506241,727554,1609506562876904,4162789192,0.776896,-0.03904,0.40992,-8.91625,-7.6125,-1.53125,-41.504,-17.488,-80.28001,eccentric,7,5.0,36323.0,37550.0,85983.0,102542.0,32756.0,45150.0,36854.0,58390.0,21521.0,15374.0
2026-05-06 16:18:19.508888,727555,1609506562891404,4162804119,0.776896,-0.03904,0.40992,-10.01,-5.7225,-1.44375,-41.504,-17.488,-80.28001,eccentric,7,5.0,36323.0,37550.0,85983.0,102542.0,32756.0,45150.0,36854.0,58390.0,21521.0,15374.0
2026-05-06 16:18:19.511346,727556,1609506562900339,4162812837,0.759328,-0.00976,0.398208,-10.07125,-3.73625,-0.79625,-41.616,-17.192001,-79.4,eccentric,7,5.0,36323.0,37550.0,85983.0,102542.0,32756.0,45150.0,36854.0,58390.0,21521.0,15374.0
2026-05-06 16:18:19.513875,727557,1609506562915058,4162827801,0.786656,-0.08784,0.402112,-10.36,-2.16125,0.16625,-41.464,-17.544,-79.568,eccentric,7,5.0,36323.0,37550.0,85983.0,102542.0,32756.0,45150.0,36854.0,58390.0,21521.0,15374.0
2026-05-06 16:18:19.516338,727558,1609506562924217,4162836555,0.786656,-0.08784,0.402112,-12.11875,-1.02375,-0.46375,-41.464,-17.544,-79.568,eccentric,7,5.0,36323.0,37550.0,85983.0,102542.0,32756.0,45150.0,36854.0,58390.0,21521.0,15374.0
2026-05-06 16:18:19.546439,727569,1609506562933145,4162845597,0.786656,-0.072224,0.366976,-13.23875,0.0525,-0.44625,-41.464,-17.544,-79.568,eccentric,7,5.0,36136.0,37411.0,85735.0,102485.0,32571.0,44934.0,36689.0,58350.0,21392.0,15277.0
2026-05-06 16:18:19.548974,727570,1609506562947753,4162858554,0.749568,-0.07808,0.366976,-11.97875,0.56875,0.6825,-41.496002,-17.496,-80.08,eccentric,7,5.0,36136.0,37411.0,85735.0,102485.0,32571.0,44934.0,36689.0,58350.0,21392.0,15277.0
2026-05-06 16:18:19.551442,727571,1609506562957187,4162869449,0.792512,-0.037088,0.398208,-9.730001,0.735,0.91,-41.744003,-17.776001,-79.496,eccentric,7,5.0,36136.0,37411.0,85735.0,102485.0,32571.0,44934.0,36689.0,58350.0,21392.0,15277.0
2026-05-06 16:18:19.554013,727572,1609506562971923,4162884545,0.792512,-0.037088,0.398208,-9.21375,1.18125,0.21875,-41.744003,-17.776001,-79.496,eccentric,7,5.0,36136.0,37411.0,85735.0,102485.0,32571.0,44934.0,36689.0,58350.0,21392.0,15277.0
2026-05-06 16:18:19.556432,727573,1609506562980919,4162893263,0.81984,-0.076128,0.333792,-10.40375,1.75875,-0.2275,-41.664,-17.6,-79.28001,eccentric,7,5.0,36136.0,37411.0,85735.0,102485.0,32571.0,44934.0,36689.0,58350.0,21392.0,15277.0
2026-05-06 16:18:19.558945,727574,1609506562989894,4162902031,0.81984,-0.076128,0.333792,-12.425,2.52875,-0.945,-41.664,-17.6,-79.28001,eccentric,7,5.0,36136.0,37411.0,85735.0,102485.0,32571.0,44934.0,36689.0,58350.0,21392.0,15277.0
2026-05-06 16:18:19.573921,727575,1609506563004451,4162916962,0.837408,-0.124928,0.398208,-13.09875,3.3425,-0.65625,-41.656002,-18.168001,-79.48,eccentric,7,5.0,36136.0,37411.0,85735.0,102485.0,32571.0,44934.0,36689.0,58350.0,21392.0,15277.0
2026-05-06 16:18:19.579677,727576,1609506563013505,4162925667,0.837408,-0.124928,0.398208,-12.3025,2.96625,-0.2975,-41.656002,-18.168001,-79.48,eccentric,7,5.0,36136.0,37411.0,85735.0,102485.0,32571.0,44934.0,36689.0,58350.0,21392.0,15277.0
2026-05-06 16:18:19.612415,727577,1609506563028003,4162940566,0.831552,-0.101504,0.386496,-11.165,2.47625,-0.81375,-41.968002,-17.448,-80.184006,eccentric,7,5.0,36136.0,37411.0,85735.0,102485.0,32571.0,44934.0,36689.0,58350.0,21392.0,15277.0
2026-05-06 16:18:19.653987,727588,1609506563037463,4162949369,0.83936,-0.083936,0.417728,-10.5175,1.2425,-1.42625,-41.56,-17.896,-79.4,eccentric,7,5.0,35921.0,37188.0,85551.0,102514.0,32338.0,44681.0,36584.0,58303.0,21284.0,15191.0
2026-05-06 16:18:19.656446,727589,1609506563046615,4162958178,0.83936,-0.083936,0.417728,-12.3025,0.09625,-2.45875,-41.56,-17.896,-79.4,eccentric,7,5.0,35921.0,37188.0,85551.0,102514.0,32338.0,44681.0,36584.0,58303.0,21284.0,15191.0
2026-05-06 16:18:19.660543,727590,1609506563061134,4162973107,0.913536,-0.162016,0.365024,-13.11625,-1.30375,-3.3775,-41.728,-17.808,-79.664,eccentric,7,5.0,35921.0,37188.0,85551.0,102514.0,32338.0,44681.0,36584.0,58303.0,21284.0,15191.0
2026-05-06 16:18:19.661225,727591,1609506563070148,4162981811,0.913536,-0.162016,0.365024,-13.18625,-2.24875,-3.3075,-41.728,-17.808,-79.664,eccentric,7,5.0,35921.0,37188.0,85551.0,102514.0,32338.0,44681.0,36584.0,58303.0,21284.0,15191.0
2026-05-06 16:18:19.663778,727592,1609506563084685,4162996779,0.94672,-0.179584,0.415776,-13.37,-3.71,-2.8,-41.768,-19.592001,-78.104004,eccentric,7,5.0,35921.0,37188.0,85551.0,102514.0,32338.0,44681.0,36584.0,58303.0,21284.0,15191.0
2026-05-06 16:18:19.669446,727593,1609506563093643,4163005518,0.94672,-0.179584,0.415776,-13.1775,-4.71625,-1.96875,-41.768,-19.592001,-78.104004,eccentric,7,5.0,35921.0,37188.0,85551.0,102514.0,32338.0,44681.0,36584.0,58303.0,21284.0,15191.0
2026-05-06 16:18:19.669557,727594,1609506563102596,4163014305,0.948672,-0.160064,0.384544,-12.0575,-5.7575,-1.12,-42.016003,-20.992,-75.304,eccentric,7,5.0,35921.0,37188.0,85551.0,102514.0,32338.0,44681.0,36584.0,58303.0,21284.0,15191.0
2026-05-06 16:18:19.682527,727595,1609506563117158,4163029366,0.96624,-0.163968,0.396256,-10.57875,-7.1575,-0.1575,-41.592003,-19.240002,-79.75201,eccentric,7,5.0,35921.0,37188.0,85551.0,102514.0,32338.0,44681.0,36584.0,58303.0,21284.0,15191.0
2026-05-06 16:18:19.691263,727596,1609506563126136,4163038076,0.96624,-0.163968,0.396256,-9.70375,-7.8925,0.245,-41.592003,-19.240002,-79.75201,eccentric,7,5.0,35921.0,37188.0,85551.0,102514.0,32338.0,44681.0,36584.0,58303.0,21284.0,15191.0
2026-05-06 16:18:19.731464,727607,1609506563140810,4163053140,0.989664,-0.199104,0.386496,-10.47375,-8.40875,0.0,-41.696003,-19.936,-78.456,eccentric,7,5.0,35738.0,37011.0,85621.0,102064.0,32184.0,44441.0,36612.0,58113.0,21178.0,15090.0
2026-05-06 16:18:19.736310,727608,1609506563149827,4163061900,0.989664,-0.199104,0.386496,-11.042501,-8.60125,1.96,-41.696003,-19.936,-78.456,eccentric,7,5.0,35738.0,37011.0,85621.0,102064.0,32184.0,44441.0,36612.0,58113.0,21178.0,15090.0
2026-05-06 16:18:19.738766,727609,1609506563158751,4163070683,1.020896,-0.20496,0.425536,-11.61125,-9.1175,3.4125,-41.584003,-17.728,-80.032005,eccentric,7,5.0,35738.0,37011.0,85621.0,102064.0,32184.0,44441.0,36612.0,58113.0,21178.0,15090.0
2026-05-06 16:18:19.741148,727610,1609506563173262,4163085662,1.020896,-0.20496,0.425536,-10.26375,-8.96,5.145,-41.584003,-17.728,-80.032005,eccentric,7,5.0,35738.0,37011.0,85621.0,102064.0,32184.0,44441.0,36612.0,58113.0,21178.0,15090.0
2026-05-06 16:18:19.747655,727611,1609506563182231,4163094404,0.989664,-0.17568,0.392352,-8.81125,-9.4325,6.25625,-41.416,-19.744001,-78.096,eccentric,7,5.0,35738.0,37011.0,85621.0,102064.0,32184.0,44441.0,36612.0,58113.0,21178.0,15090.0
2026-05-06 16:18:19.775048,727612,1609506563196855,4163109498,1.009184,-0.189344,0.431392,-7.07875,-11.06875,7.34125,-41.496002,-17.6,-80.136,eccentric,7,5.0,35738.0,37011.0,85621.0,102064.0,32184.0,44441.0,36612.0,58113.0,21178.0,15090.0
2026-05-06 16:18:19.816403,727613,1609506563205791,4163118203,1.009184,-0.189344,0.431392,-8.23375,-12.03125,8.1725,-41.496002,-17.6,-80.136,eccentric,7,5.0,35738.0,37011.0,85621.0,102064.0,32184.0,44441.0,36612.0,58113.0,21178.0,15090.0
2026-05-06 16:18:19.819021,727614,1609506563220319,4163131076,1.042368,-0.240096,0.456768,-10.8325,-11.480001,8.1375,-40.976,-17.76,-79.90401,eccentric,7,5.0,35738.0,37011.0,85621.0,102064.0,32184.0,44441.0,36612.0,58113.0,21178.0,15090.0
2026-05-06 16:18:19.821390,727615,1609506563229513,4163141838,1.042368,-0.240096,0.456768,-11.13875,-11.47125,9.05625,-40.976,-17.76,-79.90401,eccentric,7,5.0,35738.0,37011.0,85621.0,102064.0,32184.0,44441.0,36612.0,58113.0,21178.0,15090.0
2026-05-06 16:18:19.853715,727626,1609506563238701,4163151023,1.026752,-0.20496,0.450912,-7.84,-11.83875,11.865,-40.912003,-17.464,-80.16801,eccentric,7,5.0,35789.0,37084.0,85872.0,101809.0,32207.0,44540.0,36779.0,58005.0,21200.0,15123.0
2026-05-06 16:18:19.855945,727627,1609506563253332,4163165952,1.026752,-0.20496,0.450912,-2.73,-13.5275,14.6125,-40.912003,-17.464,-80.16801,eccentric,7,5.0,35789.0,37084.0,85872.0,101809.0,32207.0,44540.0,36779.0,58005.0,21200.0,15123.0
2026-05-06 16:18:19.858853,727628,1609506563262405,4163174745,1.098976,-0.197152,0.486048,-2.94875,-15.5575,16.03875,-40.824,-17.208,-80.248,eccentric,7,5.0,35789.0,37084.0,85872.0,101809.0,32207.0,44540.0,36779.0,58005.0,21200.0,15123.0
2026-05-06 16:18:19.861259,727629,1609506563277031,4163189678,1.130208,-0.279136,0.46848,-8.6625,-16.3275,17.31625,-40.856003,-17.168001,-80.232,eccentric,7,5.0,35789.0,37084.0,85872.0,101809.0,32207.0,44540.0,36779.0,58005.0,21200.0,15123.0
2026-05-06 16:18:19.863865,727630,1609506563286299,4163198383,1.130208,-0.279136,0.46848,-15.47875,-16.44125,18.48875,-40.856003,-17.168001,-80.232,eccentric,7,5.0,35789.0,37084.0,85872.0,101809.0,32207.0,44540.0,36779.0,58005.0,21200.0,15123.0
2026-05-06 16:18:19.866331,727631,1609506563295329,4163207208,1.130208,-0.279136,0.46848,-19.495,-17.43,19.88875,-40.856003,-17.168001,-80.232,eccentric,7,5.0,35789.0,37084.0,85872.0,101809.0,32207.0,44540.0,36779.0,58005.0,21200.0,15123.0
2026-05-06 16:18:19.875026,727632,1609506563309837,4163222160,1.138016,-0.269376,0.521184,-18.3925,-18.5325,21.6125,-40.392002,-16.800001,-80.968,eccentric,7,5.0,35789.0,37084.0,85872.0,101809.0,32207.0,44540.0,36779.0,58005.0,21200.0,15123.0
2026-05-06 16:18:19.883623,727633,1609506563318735,4163230896,1.14192,-0.222528,0.489952,-12.27625,-20.545,23.73875,-40.216003,-16.656,-81.12,eccentric,7,5.0,35789.0,37084.0,85872.0,101809.0,32207.0,44540.0,36779.0,58005.0,21200.0,15123.0
2026-05-06 16:18:19.925138,727634,1609506563333234,4163245795,1.14192,-0.222528,0.489952,-8.1725,-22.68,25.29625,-40.216003,-16.656,-81.12,eccentric,7,5.0,35789.0,37084.0,85872.0,101809.0,32207.0,44540.0,36779.0,58005.0,21200.0,15123.0
2026-05-06 16:18:19.967542,727645,1609506563342446,4163254752,1.14192,-0.183488,0.415776,-5.3375,-24.7975,27.5275,-39.68,-16.664001,-81.22401,eccentric,7,5.0,35883.0,37287.0,86210.0,101159.0,32275.0,44762.0,36977.0,57647.0,21212.0,15198.0
2026-05-06 16:18:19.970041,727646,1609506563351528,4163263467,1.14192,-0.183488,0.415776,-6.405,-26.18875,27.553751,-39.68,-16.664001,-81.22401,eccentric,7,5.0,35883.0,37287.0,86210.0,101159.0,32275.0,44762.0,36977.0,57647.0,21212.0,15198.0
2026-05-06 16:18:19.972595,727647,1609506563366030,4163278350,1.114592,-0.16592,0.421632,-10.535,-26.43375,25.97875,-39.424004,-16.696001,-81.560005,eccentric,7,5.0,35883.0,37287.0,86210.0,101159.0,32275.0,44762.0,36977.0,57647.0,21212.0,15198.0
2026-05-06 16:18:19.975113,727648,1609506563374984,4163287082,1.114592,-0.16592,0.421632,-14.67375,-25.445,23.9575,-39.424004,-16.696001,-81.560005,eccentric,7,5.0,35883.0,37287.0,86210.0,101159.0,32275.0,44762.0,36977.0,57647.0,21212.0,15198.0
2026-05-06 16:18:19.977687,727649,1609506563389477,4163302109,1.104832,-0.22448,0.421632,-15.67125,-25.7075,22.16375,-39.568,-17.952002,-81.192,eccentric,7,5.0,35883.0,37287.0,86210.0,101159.0,32275.0,44762.0,36977.0,57647.0,21212.0,15198.0
2026-05-06 16:18:19.982629,727650,1609506563398646,4163310989,1.075552,-0.169824,0.433344,-17.8675,-24.84125,20.48375,-38.816,-16.016,-83.128006,eccentric,7,5.0,35883.0,37287.0,86210.0,101159.0,32275.0,44762.0,36977.0,57647.0,21212.0,15198.0
2026-05-06 16:18:19.985052,727651,1609506563413197,4163325956,1.075552,-0.169824,0.433344,-14.0,-23.975,21.647501,-38.816,-16.016,-83.128006,eccentric,7,5.0,35883.0,37287.0,86210.0,101159.0,32275.0,44762.0,36977.0,57647.0,21212.0,15198.0
2026-05-06 16:18:19.987676,727652,1609506563422125,4163334732,1.040416,-0.11712,0.493856,-2.75625,-25.27,24.92,-39.072002,-15.936001,-82.192,eccentric,7,5.0,35883.0,37287.0,86210.0,101159.0,32275.0,44762.0,36977.0,57647.0,21212.0,15198.0
2026-05-06 16:18:19.996427,727653,1609506563431088,4163343548,1.040416,-0.11712,0.493856,-2.14375,-25.40125,23.28375,-39.072002,-15.936001,-82.192,eccentric,7,5.0,35883.0,37287.0,86210.0,101159.0,32275.0,44762.0,36977.0,57647.0,21212.0,15198.0
2026-05-06 16:18:20.027585,727664,1609506563445822,4163356946,1.028704,-0.167872,0.366976,-10.325,-22.46125,18.27875,-38.568,-17.208,-82.43201,eccentric,7,5.0,36192.0,37706.0,86627.0,101053.0,32586.0,45212.0,37194.0,57619.0,21361.0,15370.0
2026-05-06 16:18:20.030175,727665,1609506563455169,4163367771,1.028704,-0.167872,0.366976,-15.2075,-16.89625,12.25,-38.568,-17.208,-82.43201,eccentric,7,5.0,36192.0,37706.0,86627.0,101053.0,32586.0,45212.0,37194.0,57619.0,21361.0,15370.0
2026-05-06 16:18:20.034518,727666,1609506563469762,4163380714,0.958432,-0.208864,0.398208,-13.65,-12.1275,6.9475,-38.280003,-16.240002,-81.96001,eccentric,7,5.0,36192.0,37706.0,86627.0,101053.0,32586.0,45212.0,37194.0,57619.0,21361.0,15370.0
2026-05-06 16:18:20.048778,727667,1609506563479149,4163391504,0.755424,-0.07808,0.398208,-7.0525,-7.98,4.6725,-38.008003,-16.08,-81.944,eccentric,7,5.0,36192.0,37706.0,86627.0,101053.0,32586.0,45212.0,37194.0,57619.0,21361.0,15370.0
2026-05-06 16:18:20.052572,727668,1609506563488058,4163400249,0.755424,-0.07808,0.398208,-3.3425,-5.46875,5.57375,-38.008003,-16.08,-81.944,eccentric,7,5.0,36192.0,37706.0,86627.0,101053.0,32586.0,45212.0,37194.0,57619.0,21361.0,15370.0
2026-05-06 16:18:20.086392,727669,1609506563502602,4163415224,0.737856,-0.037088,0.288896,-6.27375,-2.54625,3.52625,-37.968002,-16.904001,-81.05601,eccentric,7,5.0,36192.0,37706.0,86627.0,101053.0,32586.0,45212.0,37194.0,57619.0,21361.0,15370.0
2026-05-06 16:18:20.088997,727670,1609506563511525,4163423947,0.737856,-0.037088,0.288896,-8.28625,-1.18125,-1.46125,-37.968002,-16.904001,-81.05601,eccentric,7,5.0,36192.0,37706.0,86627.0,101053.0,32586.0,45212.0,37194.0,57619.0,21361.0,15370.0
2026-05-06 16:18:20.091429,727671,1609506563526071,4163436940,0.80032,-0.162016,0.306464,-10.29875,2.66875,-7.7,-38.184002,-17.104,-81.69601,eccentric,7,5.0,36192.0,37706.0,86627.0,101053.0,32586.0,45212.0,37194.0,57619.0,21361.0,15370.0
2026-05-06 16:18:20.100177,727672,1609506563535400,4163447723,0.80032,-0.162016,0.306464,-12.59125,6.99125,-14.39375,-38.184002,-17.104,-81.69601,eccentric,7,5.0,36192.0,37706.0,86627.0,101053.0,32586.0,45212.0,37194.0,57619.0,21361.0,15370.0
2026-05-06 16:18:20.197673,727683,1609506563544438,4163456459,0.648064,-0.208864,0.275232,-18.69,9.31,-22.785,-37.456,-17.416,-81.896,eccentric,7,5.0,36155.0,37666.0,86659.0,101135.0,32489.0,44981.0,37151.0,57784.0,21282.0,15243.0
2026-05-06 16:18:20.200188,727684,1609506563559154,4163471488,0.554368,-0.013664,0.298656,-17.03625,8.70625,-25.375,-37.976,-19.312,-80.624,eccentric,7,5.0,36155.0,37666.0,86659.0,101135.0,32489.0,44981.0,37151.0,57784.0,21282.0,15243.0
2026-05-06 16:18:20.202658,727685,1609506563568081,4163480234,0.554368,-0.013664,0.298656,-4.76,6.25625,-22.63625,-37.976,-19.312,-80.624,eccentric,7,5.0,36155.0,37666.0,86659.0,101135.0,32489.0,44981.0,37151.0,57784.0,21282.0,15243.0
2026-05-06 16:18:20.205135,727686,1609506563582709,4163495305,0.679296,-0.03904,0.216672,3.885,7.20125,-19.99375,-37.664,-18.016,-81.328,eccentric,7,5.0,36155.0,37666.0,86659.0,101135.0,32489.0,44981.0,37151.0,57784.0,21282.0,15243.0
2026-05-06 16:18:20.207660,727687,1609506563591648,4163504003,0.679296,-0.03904,0.216672,4.8125,10.03625,-22.47,-37.664,-18.016,-81.328,eccentric,7,5.0,36155.0,37666.0,86659.0,101135.0,32489.0,44981.0,37151.0,57784.0,21282.0,15243.0
2026-05-06 16:18:20.210195,727688,1609506563600632,4163512740,0.593408,-0.228384,0.210816,-5.74875,14.07,-31.272501,-38.048,-18.6,-80.952,eccentric,7,5.0,36155.0,37666.0,86659.0,101135.0,32489.0,44981.0,37151.0,57784.0,21282.0,15243.0
2026-05-06 16:18:20.212617,727689,1609506563615235,4163527656,0.593408,-0.228384,0.210816,-20.0725,17.43875,-40.43375,-38.048,-18.6,-80.952,eccentric,7,5.0,36155.0,37666.0,86659.0,101135.0,32489.0,44981.0,37151.0,57784.0,21282.0,15243.0
2026-05-06 16:18:20.215135,727690,1609506563624135,4163536375,0.51728,-0.121024,0.281088,-15.05,16.765,-41.62375,-37.536003,-19.552,-80.416,eccentric,7,5.0,36155.0,37666.0,86659.0,101135.0,32489.0,44981.0,37151.0,57784.0,21282.0,15243.0
2026-05-06 16:18:20.255064,727701,1609506563639057,4163551797,0.564128,0.003904,0.281088,-2.98375,14.11375,-40.04,-37.536003,-19.552,-79.248,eccentric,7,5.0,35981.0,37294.0,86467.0,102037.0,32300.0,44508.0,37023.0,58274.0,21200.0,15061.0
2026-05-06 16:18:20.257676,727702,1609506563648095,4163560623,0.569984,0.003904,0.281088,-0.4025,14.86625,-36.93375,-37.36,-22.960001,-79.248,eccentric,7,5.0,35981.0,37294.0,86467.0,102037.0,32300.0,44508.0,37023.0,58274.0,21200.0,15061.0
2026-05-06 16:18:20.260173,727703,1609506563657334,4163569429,0.569984,0.003904,0.281088,-1.4875,18.235,-38.5875,-37.36,-22.960001,-79.248,eccentric,7,5.0,35981.0,37294.0,86467.0,102037.0,32300.0,44508.0,37023.0,58274.0,21200.0,15061.0
2026-05-06 16:18:20.262575,727704,1609506563672057,4163584385,0.657824,-0.197152,0.23424,-6.93,20.825,-44.1875,-37.048,-22.688002,-77.968,eccentric,7,5.0,35981.0,37294.0,86467.0,102037.0,32300.0,44508.0,37023.0,58274.0,21200.0,15061.0
2026-05-06 16:18:20.265125,727705,1609506563681118,4163593109,0.579744,-0.22448,0.318176,-9.3275,22.11125,-45.115,-37.264,-23.144001,-78.984,eccentric,7,5.0,35981.0,37294.0,86467.0,102037.0,32300.0,44508.0,37023.0,58274.0,21200.0,15061.0
2026-05-06 16:18:20.267663,727706,1609506563695660,4163608066,0.579744,-0.22448,0.318176,-7.805,19.0925,-41.78125,-37.264,-23.144001,-78.984,eccentric,7,5.0,35981.0,37294.0,86467.0,102037.0,32300.0,44508.0,37023.0,58274.0,21200.0,15061.0
2026-05-06 16:18:20.270181,727707,1609506563704596,4163616811,0.65392,-0.12688,0.306464,-18.71625,17.5,-42.34125,-37.184002,-22.704,-79.01601,eccentric,7,5.0,35981.0,37294.0,86467.0,102037.0,32300.0,44508.0,37023.0,58274.0,21200.0,15061.0
2026-05-06 16:18:20.278945,727708,1609506563713551,4163625549,0.65392,-0.12688,0.306464,-22.07625,19.7575,-44.16125,-37.184002,-22.704,-79.01601,eccentric,7,5.0,35981.0,37294.0,86467.0,102037.0,32300.0,44508.0,37023.0,58274.0,21200.0,15061.0
2026-05-06 16:18:20.292697,727709,1609506563728085,4163640494,0.640256,-0.076128,0.310368,-11.042501,19.81875,-45.64875,-36.600002,-22.648,-79.0,eccentric,7,5.0,35981.0,37294.0,86467.0,102037.0,32300.0,44508.0,37023.0,58274.0,21200.0,15061.0
2026-05-06 16:18:20.301243,727710,1609506563737100,4163649309,0.640256,-0.076128,0.310368,6.46625,17.24625,-45.80625,-36.600002,-22.648,-79.0,eccentric,7,5.0,35981.0,37294.0,86467.0,102037.0,32300.0,44508.0,37023.0,58274.0,21200.0,15061.0
2026-05-06 16:18:20.331108,727721,1609506563751649,4163664294,0.571936,-0.128832,0.269376,16.80875,12.0925,-47.53,-36.288002,-23.696001,-77.816,eccentric,7,5.0,35562.0,36941.0,86521.0,103722.0,32023.0,44043.0,37020.0,59288.0,21046.0,14878.0
2026-05-06 16:18:20.333860,727722,1609506563760629,4163673061,0.599264,-0.066368,0.230336,14.58625,7.2625,-44.89625,-36.664,-26.976002,-78.272,eccentric,7,5.0,35562.0,36941.0,86521.0,103722.0,32023.0,44043.0,37020.0,59288.0,21046.0,14878.0
2026-05-06 16:18:20.340038,727723,1609506563775197,4163685968,0.599264,-0.066368,0.230336,13.5275,4.33125,-37.94,-36.664,-26.976002,-78.272,eccentric,7,5.0,35562.0,36941.0,86521.0,103722.0,32023.0,44043.0,37020.0,59288.0,21046.0,14878.0
2026-05-06 16:18:20.348863,727724,1609506563784547,4163696757,0.700768,-0.134688,0.238144,10.955,1.14625,-35.4375,-35.936,-24.336,-78.968,eccentric,7,5.0,35562.0,36941.0,86521.0,103722.0,32023.0,44043.0,37020.0,59288.0,21046.0,14878.0
2026-05-06 16:18:20.360035,727725,1609506563793494,4163705496,0.700768,-0.134688,0.238144,-2.17875,-0.105,-38.395,-35.936,-24.336,-78.968,eccentric,7,5.0,35562.0,36941.0,86521.0,103722.0,32023.0,44043.0,37020.0,59288.0,21046.0,14878.0
2026-05-06 16:18:20.373945,727726,1609506563808021,4163720391,0.466528,-0.01952,0.324032,-8.19,-1.32125,-37.8525,-36.208,-24.656002,-79.01601,eccentric,7,5.0,35562.0,36941.0,86521.0,103722.0,32023.0,44043.0,37020.0,59288.0,21046.0,14878.0
2026-05-06 16:18:20.382677,727727,1609506563816959,4163729176,0.466528,-0.01952,0.324032,-1.86375,-3.78875,-34.36125,-36.208,-24.656002,-79.01601,eccentric,7,5.0,35562.0,36941.0,86521.0,103722.0,32023.0,44043.0,37020.0,59288.0,21046.0,14878.0
2026-05-06 16:18:20.396431,727728,1609506563831490,4163744133,0.49776,0.005856,0.327936,4.54125,-6.65875,-29.2075,-36.008003,-24.840002,-78.01601,eccentric,7,5.0,35562.0,36941.0,86521.0,103722.0,32023.0,44043.0,37020.0,59288.0,21046.0,14878.0
2026-05-06 16:18:20.427316,727739,1609506563840992,4163752966,0.763232,-0.179584,0.142496,2.1525,-6.01125,-20.79875,-36.008003,-26.888,-78.248,eccentric,7,5.0,36024.0,37445.0,86687.0,104074.0,32461.0,44589.0,37126.0,59389.0,21266.0,15097.0
2026-05-06 16:18:20.430106,727740,1609506563850076,4163761833,0.763232,-0.179584,0.142496,-7.41125,-4.68125,-16.178751,-36.248,-27.064001,-78.248,eccentric,7,5.0,36024.0,37445.0,86687.0,104074.0,32461.0,44589.0,37126.0,59389.0,21266.0,15097.0
2026-05-06 16:18:20.432523,727741,1609506563864662,4163776807,0.626592,-0.193248,0.216672,-20.44875,-4.0075,-18.5675,-36.144,-26.848001,-78.248,eccentric,7,5.0,36024.0,37445.0,86687.0,104074.0,32461.0,44589.0,37126.0,59389.0,21266.0,15097.0
2026-05-06 16:18:20.438806,727742,1609506563873691,4163785557,0.626592,-0.193248,0.216672,-20.8075,-3.42125,-18.725,-36.144,-26.848001,-78.248,eccentric,7,5.0,36024.0,37445.0,86687.0,104074.0,32461.0,44589.0,37126.0,59389.0,21266.0,15097.0
2026-05-06 16:18:20.463994,727743,1609506563888305,4163800518,0.571936,0.052704,0.339648,-5.88875,-6.51875,-11.935,-35.752003,-25.416,-79.05601,eccentric,7,5.0,36024.0,37445.0,86687.0,104074.0,32461.0,44589.0,37126.0,59389.0,21266.0,15097.0
2026-05-06 16:18:20.466394,727744,1609506563897253,4163809301,0.571936,0.052704,0.339648,5.53,-8.61875,-7.1225,-35.752003,-25.416,-79.05601,eccentric,7,5.0,36024.0,37445.0,86687.0,104074.0,32461.0,44589.0,37126.0,59389.0,21266.0,15097.0
2026-05-06 16:18:20.470143,727745,1609506563906193,4163818018,0.60512,-0.040992,0.193248,4.095,-8.0675,-8.51375,-35.736,-24.992,-79.048004,eccentric,7,5.0,36024.0,37445.0,86687.0,104074.0,32461.0,44589.0,37126.0,59389.0,21266.0,15097.0
