pc_time,serial_num,sensor_ts,host_ts,ax,ay,az,gx,gy,gz,mx,my,mz,phase,rpe,weight_kg,ppg_a,ppg_b,ppg_c,ppg_d,ppg_e
2026-04-08 21:51:20.597325,258353,1609504252788960,1852755914,0.991616,0.021472,-0.011712,-4.26125,-4.515,-3.94625,-20.672,16.208,11.432,concentric,4,3.0,21672.0,145918.0,232582.0,282062.0,264888.0
2026-04-08 21:51:20.599508,258354,1609504252797888,1852764580,0.999424,0.023424,0.017568,-4.2175,-6.09875,-3.955,-20.736,15.968,11.68,concentric,4,3.0,21672.0,145918.0,232582.0,282062.0,264888.0
2026-04-08 21:51:20.628331,258365,1609504252806955,1852773375,0.999424,0.023424,0.017568,-4.41,-6.99125,-4.40125,-20.736,15.968,11.68,concentric,4,3.0,21727.0,146013.0,232575.0,281994.0,264857.0
2026-04-08 21:51:20.629828,258366,1609504252821473,1852788213,0.880352,0.02928,-0.199104,-3.6925,-7.28,-4.87375,-20.864,16.048,11.256001,concentric,4,3.0,21727.0,146013.0,232575.0,281994.0,264857.0
2026-04-08 21:51:20.634083,258367,1609504252830368,1852796884,0.880352,0.02928,-0.199104,-0.84,-6.965,-5.285,-20.864,16.048,11.256001,concentric,4,3.0,21727.0,146013.0,232575.0,281994.0,264857.0
2026-04-08 21:51:20.637046,258368,1609504252844910,1852811811,0.911584,0.085888,0.02928,-0.9625,-7.2975,-5.4425,-20.752,15.984001,11.392,concentric,4,3.0,21727.0,146013.0,232575.0,281994.0,264857.0
2026-04-08 21:51:20.642894,258369,1609504252853979,1852820503,0.911584,0.085888,0.02928,-3.3075,-6.99125,-5.04875,-20.752,15.984001,11.392,concentric,4,3.0,21727.0,146013.0,232575.0,281994.0,264857.0
2026-04-08 21:51:20.645340,258370,1609504252868513,1852835410,0.835456,0.060512,-0.128832,-5.39,-7.41125,-2.45875,-21.112001,16.408,10.072001,concentric,4,3.0,21727.0,146013.0,232575.0,281994.0,264857.0
2026-04-08 21:51:20.648920,258371,1609504252877469,1852844094,0.8784,0.040992,0.042944,-7.39375,-9.02125,-0.28,-20.912,16.36,11.552001,concentric,4,3.0,21727.0,146013.0,232575.0,281994.0,264857.0
2026-04-08 21:51:20.677515,258372,1609504252886436,1852852795,0.8784,0.040992,0.042944,-6.02,-9.33625,-0.2975,-20.912,16.36,11.552001,concentric,4,3.0,21727.0,146013.0,232575.0,281994.0,264857.0
2026-04-08 21:51:20.682052,258373,1609504252900897,1852867673,0.870592,0.0,-0.197152,-3.3775,-9.33625,-0.455,-20.84,16.352001,11.008,concentric,4,3.0,21727.0,146013.0,232575.0,281994.0,264857.0
2026-04-08 21:51:20.710347,258384,1609504252909853,1852876346,0.870592,0.0,-0.197152,-2.24,-9.02125,-0.34125,-20.84,16.352001,11.008,concentric,4,3.0,21567.0,145615.0,232418.0,282042.0,264964.0
2026-04-08 21:51:20.712039,258385,1609504252924382,1852891241,0.821792,0.033184,-0.152256,-2.2925,-8.9425,-1.61875,-20.784,16.672,11.104,concentric,4,3.0,21567.0,145615.0,232418.0,282042.0,264964.0
2026-04-08 21:51:20.713755,258386,1609504252933344,1852899955,0.821792,0.033184,-0.152256,-3.26375,-8.14625,-3.3425,-20.784,16.672,11.104,concentric,4,3.0,21567.0,145615.0,232418.0,282042.0,264964.0
2026-04-08 21:51:20.717665,258387,1609504252947969,1852914997,0.815936,0.025376,-0.138592,-4.01625,-7.7875,-4.9875,-21.264002,16.296001,12.56,concentric,4,3.0,21567.0,145615.0,232418.0,282042.0,264964.0
2026-04-08 21:51:20.748106,258388,1609504252956915,1852923685,0.894016,0.042944,0.064416,-4.0775,-8.435,-5.1275,-21.160002,16.408,9.968,concentric,4,3.0,21567.0,145615.0,232418.0,282042.0,264964.0
2026-04-08 21:51:20.751282,258389,1609504252965838,1852932359,0.894016,0.042944,0.064416,-1.8375,-8.82875,-4.865,-21.160002,16.408,9.968,concentric,4,3.0,21567.0,145615.0,232418.0,282042.0,264964.0
2026-04-08 21:51:20.752393,258390,1609504252980294,1852947199,0.886208,0.031232,0.074176,0.69125,-8.74125,-5.62625,-21.328001,16.352001,10.368,concentric,4,3.0,21567.0,145615.0,232418.0,282042.0,264964.0
2026-04-08 21:51:20.760212,258391,1609504252989332,1852955937,0.886208,0.031232,0.074176,-0.98,-8.7675,-6.3525,-21.328001,16.352001,10.368,concentric,4,3.0,21567.0,145615.0,232418.0,282042.0,264964.0
2026-04-08 21:51:20.835312,258402,1609504253004208,1852971513,0.854976,0.042944,0.00976,-5.4775,-8.925,-6.79875,-21.032001,16.504002,10.864,concentric,4,3.0,21631.0,145889.0,232593.0,282170.0,265007.0
2026-04-08 21:51:20.837066,258403,1609504253013204,1852980206,0.854976,0.042944,0.00976,-7.69125,-9.065,-7.46375,-21.032001,16.504002,10.864,concentric,4,3.0,21631.0,145889.0,232593.0,282170.0,265007.0
2026-04-08 21:51:20.838712,258404,1609504253022112,1852988849,0.85888,0.00976,-0.191296,-7.4025,-9.0825,-8.82875,-21.256,16.392,11.048,concentric,4,3.0,21631.0,145889.0,232593.0,282170.0,265007.0
2026-04-08 21:51:20.842890,258405,1609504253036562,1853003687,0.782752,0.040992,-0.12688,-5.83625,-8.44375,-10.28125,-21.392,16.464,10.512,concentric,4,3.0,21631.0,145889.0,232593.0,282170.0,265007.0
2026-04-08 21:51:20.844553,258406,1609504253045535,1853012380,0.782752,0.040992,-0.12688,-2.58125,-7.8575,-10.36875,-21.392,16.464,10.512,concentric,4,3.0,21631.0,145889.0,232593.0,282170.0,265007.0
2026-04-08 21:51:20.846302,258407,1609504253060029,1853025225,0.84912,0.074176,0.0976,2.52875,-6.95625,-9.82625,-21.696001,16.408,12.576,concentric,4,3.0,21631.0,145889.0,232593.0,282170.0,265007.0
2026-04-08 21:51:20.850204,258408,1609504253069314,1853035943,0.84912,0.074176,0.0976,5.03125,-7.3675,-6.8075,-21.696001,16.408,12.576,concentric,4,3.0,21631.0,145889.0,232593.0,282170.0,265007.0
2026-04-08 21:51:20.855202,258409,1609504253083825,1853050825,0.892064,0.062464,-0.037088,4.83875,-7.49,-6.27375,-21.752,15.984001,10.328,concentric,4,3.0,21631.0,145889.0,232593.0,282170.0,265007.0
2026-04-08 21:51:20.883717,258410,1609504253092749,1853059513,0.892064,0.062464,-0.037088,0.74375,-7.6825,-8.7675,-21.752,15.984001,10.328,concentric,4,3.0,21631.0,145889.0,232593.0,282170.0,265007.0
2026-04-08 21:51:20.888319,258411,1609504253101670,1853068175,0.876448,0.03904,-0.150304,-2.5725,-7.0525,-8.9775,-22.048,15.944001,10.488001,concentric,4,3.0,21631.0,145889.0,232593.0,282170.0,265007.0
2026-04-08 21:51:20.921980,258422,1609504253116146,1853083068,0.876448,0.033184,-0.033184,-2.05625,-6.475,-7.735,-22.048,15.944001,10.488001,concentric,4,3.0,21879.0,146543.0,233001.0,282298.0,265026.0
2026-04-08 21:51:20.923621,258423,1609504253125036,1853091762,0.841312,0.033184,-0.033184,0.4375,-5.38125,-8.49625,-21.912,16.208,11.664001,concentric,4,3.0,21879.0,146543.0,233001.0,282298.0,265026.0
2026-04-08 21:51:20.926100,258424,1609504253139682,1853106764,0.833504,0.056608,-0.150304,6.23875,-3.71,-7.60375,-21.984001,16.12,11.384001,concentric,4,3.0,21879.0,146543.0,233001.0,282298.0,265026.0
2026-04-08 21:51:20.930180,258425,1609504253148737,1853115483,0.833504,0.056608,-0.150304,11.68125,-2.37125,-7.79625,-21.984001,16.12,11.384001,concentric,4,3.0,21879.0,146543.0,233001.0,282298.0,265026.0
2026-04-08 21:51:20.934366,258426,1609504253163233,1853130342,0.847168,0.076128,-0.193248,11.01625,-2.4325,-10.255,-21.904001,15.992001,11.784,concentric,4,3.0,21879.0,146543.0,233001.0,282298.0,265026.0
2026-04-08 21:51:20.965879,258427,1609504253172157,1853139021,0.847168,0.076128,-0.193248,7.88375,-2.93125,-8.72375,-21.904001,15.992001,11.784,concentric,4,3.0,21879.0,146543.0,233001.0,282298.0,265026.0
2026-04-08 21:51:20.970331,258428,1609504253181089,1853147708,0.933056,0.044896,-0.22448,4.76875,-2.9925,-6.39625,-22.44,15.776001,11.168,concentric,4,3.0,21879.0,146543.0,233001.0,282298.0,265026.0
2026-04-08 21:51:20.972120,258429,1609504253195556,1853162572,0.933056,0.044896,-0.22448,2.73875,-2.19625,-6.44875,-22.44,15.776001,11.168,concentric,4,3.0,21879.0,146543.0,233001.0,282298.0,265026.0
2026-04-08 21:51:21.000319,258440,1609504253204460,1853171291,0.895968,0.062464,-0.052704,1.16375,-1.225,-6.55375,-22.264002,15.912001,10.824,concentric,4,3.0,21932.0,146684.0,233188.0,282465.0,265137.0
2026-04-08 21:51:21.002027,258441,1609504253219524,1853186245,0.845216,0.072224,0.037088,1.09375,-0.81375,-4.85625,-22.224,16.104,11.648001,concentric,4,3.0,21932.0,146684.0,233188.0,282465.0,265137.0
2026-04-08 21:51:21.003696,258442,1609504253228498,1853194942,0.845216,0.072224,0.037088,0.76125,-0.455,-3.9725,-22.224,16.104,11.648001,concentric,4,3.0,21932.0,146684.0,233188.0,282465.0,265137.0
2026-04-08 21:51:21.007661,258443,1609504253237454,1853203645,0.923296,0.01952,-0.085888,-0.1925,0.175,-4.71625,-22.560001,16.04,12.648001,concentric,4,3.0,21932.0,146684.0,233188.0,282465.0,265137.0
2026-04-08 21:51:21.036327,258444,1609504253251943,1853218494,0.923296,0.01952,-0.085888,-1.04125,-0.30625,-5.4425,-22.560001,16.04,12.648001,concentric,4,3.0,21932.0,146684.0,233188.0,282465.0,265137.0
2026-04-08 21:51:21.039837,258445,1609504253260871,1853227163,0.964288,0.066368,-0.044896,0.6475,-0.18375,-6.125,-22.448002,15.776001,10.936001,concentric,4,3.0,21932.0,146684.0,233188.0,282465.0,265137.0
2026-04-08 21:51:21.045186,258446,1609504253275330,1853242023,0.964288,0.066368,-0.044896,4.92625,0.2975,-6.15125,-22.448002,15.776001,10.936001,concentric,4,3.0,21932.0,146684.0,233188.0,282465.0,265137.0
2026-04-08 21:51:21.099680,258447,1609504253284254,1853250698,0.884256,0.16592,-0.05856,5.5825,1.39125,-5.36375,-22.216002,16.088001,10.128,concentric,4,3.0,21932.0,146684.0,233188.0,282465.0,265137.0
2026-04-08 21:51:21.104298,258448,1609504253298720,1853265532,0.90768,0.138592,0.017568,-0.09625,2.6775,-3.63125,-21.992,15.896001,8.376,concentric,4,3.0,21932.0,146684.0,233188.0,282465.0,265137.0
2026-04-08 21:51:21.129869,258459,1609504253307688,1853274282,0.90768,0.138592,0.017568,-9.730001,3.2375,0.09625,-21.992,15.896001,8.376,concentric,4,3.0,22034.0,146939.0,233333.0,282560.0,265216.0
2026-04-08 21:51:21.133279,258460,1609504253316646,1853283001,0.90768,0.138592,0.017568,-16.05625,3.29875,5.46875,-21.992,15.896001,8.376,concentric,4,3.0,22034.0,146939.0,233333.0,282560.0,265216.0
2026-04-08 21:51:21.134832,258461,1609504253331088,1853297859,0.952576,0.081984,-0.02928,-19.6875,3.0625,9.66,-22.248001,16.384,9.6,concentric,4,3.0,22034.0,146939.0,233333.0,282560.0,265216.0
2026-04-08 21:51:21.141634,258462,1609504253340033,1853306527,0.997472,0.011712,-0.152256,-18.47125,3.675,10.5175,-22.176,16.52,11.336,concentric,4,3.0,22034.0,146939.0,233333.0,282560.0,265216.0
2026-04-08 21:51:21.143320,258463,1609504253354675,1853321449,0.997472,0.011712,-0.152256,-16.0475,4.1475,8.79375,-22.176,16.52,11.336,concentric,4,3.0,22034.0,146939.0,233333.0,282560.0,265216.0
2026-04-08 21:51:21.145042,258464,1609504253363635,1853330174,0.962336,0.03904,0.0488,-16.75625,3.535,7.2625,-22.152,16.448,11.648001,concentric,4,3.0,22034.0,146939.0,233333.0,282560.0,265216.0
2026-04-08 21:51:21.150735,258465,1609504253378121,1853345074,0.911584,0.023424,0.062464,-13.5625,2.905,5.01375,-22.152,14.400001,12.360001,concentric,4,3.0,22034.0,146939.0,233333.0,282560.0,265216.0
2026-04-08 21:51:21.177611,258466,1609504253387127,1853353742,0.911584,0.023424,0.062464,-6.3175,2.625,2.79125,-22.176,16.184,12.360001,concentric,4,3.0,22034.0,146939.0,233333.0,282560.0,265216.0
2026-04-08 21:51:21.182106,258467,1609504253396040,1853362390,0.911584,0.023424,0.062464,-2.58125,2.1525,0.8575,-22.176,16.184,12.360001,concentric,4,3.0,22034.0,146939.0,233333.0,282560.0,265216.0
2026-04-08 21:51:21.216035,258478,1609504253410678,1853377559,0.890112,0.050752,-0.138592,1.46125,1.7675,-0.1225,-22.112001,16.472,10.928,concentric,4,3.0,21765.0,146235.0,232848.0,282336.0,265148.0
2026-04-08 21:51:21.220266,258479,1609504253419624,1853386253,0.886208,0.105408,-0.23424,3.6225,1.435,-0.58625,-22.528002,16.776001,9.736,concentric,4,3.0,21765.0,146235.0,232848.0,282336.0,265148.0
2026-04-08 21:51:21.222024,258480,1609504253434135,1853401158,0.886208,0.105408,-0.23424,-1.435,0.5425,-2.24,-22.528002,16.776001,9.736,concentric,4,3.0,21765.0,146235.0,232848.0,282336.0,265148.0
2026-04-08 21:51:21.225712,258481,1609504253443127,1853409863,0.929152,0.052704,-0.005856,-7.20125,0.23625,-3.47375,-22.496,16.480001,12.152,concentric,4,3.0,21765.0,146235.0,232848.0,282336.0,265148.0
2026-04-08 21:51:21.228103,258482,1609504253457636,1853424782,0.929152,0.052704,-0.005856,-6.67625,1.0675,-1.33875,-22.496,16.480001,12.152,concentric,4,3.0,21765.0,146235.0,232848.0,282336.0,265148.0
2026-04-08 21:51:21.258484,258483,1609504253466586,1853433484,0.817888,0.025376,-0.201056,-5.66125,1.155,0.67375,-22.400002,16.512001,8.92,concentric,4,3.0,21765.0,146235.0,232848.0,282336.0,265148.0
2026-04-08 21:51:21.260734,258484,1609504253475526,1853442164,0.817888,0.025376,-0.201056,-3.19375,0.79625,-0.77,-22.400002,16.512001,8.92,concentric,4,3.0,21765.0,146235.0,232848.0,282336.0,265148.0
2026-04-08 21:51:21.265325,258485,1609504253490055,1853457026,0.83936,0.076128,-0.218624,3.0275,0.9975,-3.71875,-22.664001,16.880001,10.376,concentric,4,3.0,21765.0,146235.0,232848.0,282336.0,265148.0
2026-04-08 21:51:21.269379,258486,1609504253498999,1853465683,0.958432,0.056608,-0.103456,1.86375,0.3325,-9.63375,-22.664001,16.68,9.176001,concentric,4,3.0,21765.0,146235.0,232848.0,282336.0,265148.0
2026-04-08 21:51:21.299668,258497,1609504253513568,1853480680,0.958432,0.056608,-0.103456,-1.32125,0.2975,-9.625,-22.592001,16.68,9.176001,concentric,4,3.0,21632.0,146013.0,232862.0,282422.0,265217.0
2026-04-08 21:51:21.301196,258498,1609504253522518,1853489410,0.831552,0.10736,-0.054656,-4.68125,0.88375,-8.2075,-22.912,16.672,10.888001,concentric,4,3.0,21632.0,146013.0,232862.0,282422.0,265217.0
2026-04-08 21:51:21.305265,258499,1609504253531434,1853498090,0.831552,0.10736,-0.054656,-3.99,1.46125,-4.3225,-22.912,16.672,10.888001,concentric,4,3.0,21632.0,146013.0,232862.0,282422.0,265217.0
2026-04-08 21:51:21.333792,258500,1609504253545966,1853513004,0.860832,0.062464,-0.132736,-4.85625,1.16375,-6.72875,-22.936,16.464,11.336,concentric,4,3.0,21632.0,146013.0,232862.0,282422.0,265217.0
2026-04-08 21:51:21.338269,258501,1609504253554886,1853521718,0.860832,0.062464,-0.132736,-7.2975,0.77,-5.59125,-22.936,16.464,11.336,concentric,4,3.0,21632.0,146013.0,232862.0,282422.0,265217.0
2026-04-08 21:51:21.339873,258502,1609504253569385,1853534537,0.964288,0.064416,-0.07808,-7.86625,0.2625,-3.71875,-22.672,17.04,10.408001,concentric,4,3.0,21632.0,146013.0,232862.0,282422.0,265217.0
2026-04-08 21:51:21.401784,258503,1609504253578582,1853545278,0.964288,0.064416,-0.07808,-6.09875,0.735,-4.52375,-22.672,17.04,10.408001,concentric,4,3.0,21632.0,146013.0,232862.0,282422.0,265217.0
2026-04-08 21:51:21.403283,258504,1609504253593059,1853560169,0.952576,0.037088,-0.040992,-6.4925,1.085,-12.53,-22.84,16.448,12.336,concentric,4,3.0,21632.0,146013.0,232862.0,282422.0,265217.0
2026-04-08 21:51:21.405859,258505,1609504253601986,1853568815,0.935008,0.015616,-0.124928,-6.545,1.14625,-16.7125,-23.44,16.480001,10.288,concentric,4,3.0,21632.0,146013.0,232862.0,282422.0,265217.0
2026-04-08 21:51:21.433262,258516,1609504253611038,1853577509,0.935008,0.015616,-0.124928,-4.1475,0.5075,-10.64875,-23.44,16.480001,10.288,concentric,4,3.0,21668.0,146187.0,233044.0,282565.0,265290.0
2026-04-08 21:51:21.434840,258517,1609504253625617,1853592408,0.84912,0.119072,-0.095648,-2.52,0.18375,-6.7725,-23.176,16.560001,10.616,concentric,4,3.0,21668.0,146187.0,233044.0,282565.0,265290.0
2026-04-08 21:51:21.437362,258518,1609504253634534,1853601052,0.84912,0.119072,-0.095648,-1.785,0.035,-10.01875,-23.176,16.560001,10.616,concentric,4,3.0,21668.0,146187.0,233044.0,282565.0,265290.0
2026-04-08 21:51:21.440787,258519,1609504253649047,1853616028,0.899872,0.060512,-0.218624,-0.69125,-0.35875,-13.545,-23.248001,16.616001,10.344001,concentric,4,3.0,21668.0,146187.0,233044.0,282565.0,265290.0
2026-04-08 21:51:21.442392,258520,1609504253658124,1853624742,0.899872,0.060512,-0.218624,-0.95375,-1.26,-13.5625,-23.248001,16.616001,10.344001,concentric,4,3.0,21668.0,146187.0,233044.0,282565.0,265290.0
2026-04-08 21:51:21.446501,258521,1609504253672667,1853639670,0.8784,0.05856,-0.193248,-4.40125,-1.6625,-13.9475,-23.784,16.584002,9.84,concentric,4,3.0,21668.0,146187.0,233044.0,282565.0,265290.0
2026-04-08 21:51:21.452723,258522,1609504253681660,1853648349,0.925248,0.05856,-0.060512,-5.5825,-1.26875,-14.65625,-23.400002,16.464,11.008,concentric,4,3.0,21668.0,146187.0,233044.0,282565.0,265290.0
2026-04-08 21:51:21.481384,258523,1609504253690654,1853657026,0.925248,0.05856,-0.060512,-3.43,-1.225,-14.00875,-23.400002,16.464,11.008,concentric,4,3.0,21668.0,146187.0,233044.0,282565.0,265290.0
2026-04-08 21:51:21.485829,258524,1609504253705119,1853671871,0.948672,0.12688,0.001952,-4.41,-2.345,-11.96125,-24.240002,16.128,10.280001,concentric,4,3.0,21668.0,146187.0,233044.0,282565.0,265290.0
2026-04-08 21:51:21.515826,258535,1609504253714149,1853680587,0.948672,0.12688,0.001952,-6.78125,-3.87625,-11.47125,-24.240002,16.128,10.280001,concentric,4,3.0,21953.0,146959.0,233530.0,282759.0,265348.0
2026-04-08 21:51:21.517313,258536,1609504253728708,1853695465,0.884256,0.085888,-0.07808,-7.84875,-4.27,-13.36125,-23.936,16.168001,10.92,concentric,4,3.0,21953.0,146959.0,233530.0,282759.0,265348.0
2026-04-08 21:51:21.521588,258537,1609504253737652,1853704195,0.884256,0.085888,-0.07808,-10.2025,-3.14125,-14.77875,-23.936,16.168001,10.92,concentric,4,3.0,21953.0,146959.0,233530.0,282759.0,265348.0
2026-04-08 21:51:21.524097,258538,1609504253746687,1853712949,0.925248,0.035136,-0.1464,-10.5525,-1.96875,-14.4375,-24.064001,16.216002,11.248,concentric,4,3.0,21953.0,146959.0,233530.0,282759.0,265348.0
2026-04-08 21:51:21.552797,258539,1609504253761173,1853727830,0.948672,0.093696,-0.160064,-8.575,-1.93375,-12.38125,-24.688002,16.296001,12.512001,concentric,4,3.0,21953.0,146959.0,233530.0,282759.0,265348.0
2026-04-08 21:51:21.557041,258540,1609504253770102,1853736514,0.948672,0.093696,-0.160064,-6.3175,-3.03625,-10.47375,-24.688002,16.296001,12.512001,concentric,4,3.0,21953.0,146959.0,233530.0,282759.0,265348.0
2026-04-08 21:51:21.559566,258541,1609504253784625,1853751389,0.886208,0.0976,-0.1464,-3.9725,-3.89375,-11.03375,-24.144001,16.44,9.648001,concentric,4,3.0,21953.0,146959.0,233530.0,282759.0,265348.0
2026-04-08 21:51:21.561093,258542,1609504253793536,1853760142,0.886208,0.0976,-0.1464,-5.39875,-4.1475,-11.94375,-24.144001,16.44,9.648001,concentric,4,3.0,21953.0,146959.0,233530.0,282759.0,265348.0
2026-04-08 21:51:21.617495,258553,1609504253808265,1853775452,0.911584,0.103456,0.017568,-8.58375,-3.99875,-11.0075,-24.112001,15.952001,9.624001,concentric,4,3.0,22076.0,147181.0,233603.0,282751.0,265320.0
2026-04-08 21:51:21.621582,258554,1609504253817231,1853784209,0.911584,0.103456,0.017568,-7.595,-4.2875,-8.5225,-24.112001,15.952001,9.624001,concentric,4,3.0,22076.0,147181.0,233603.0,282751.0,265320.0
2026-04-08 21:51:21.623403,258555,1609504253826152,1853792854,0.935008,0.066368,-0.189344,-4.8125,-4.0425,-6.4925,-24.728,16.168001,9.552,concentric,4,3.0,22076.0,147181.0,233603.0,282751.0,265320.0
2026-04-08 21:51:21.624988,258556,1609504253840671,1853807801,0.935008,0.066368,-0.138592,-3.87625,-4.0425,-5.52125,-24.728,16.168001,9.552,concentric,4,3.0,22076.0,147181.0,233603.0,282751.0,265320.0
2026-04-08 21:51:21.629190,258557,1609504253849659,1853816519,0.89792,0.119072,-0.138592,-4.655,-3.87625,-5.1275,-25.104002,15.944001,11.208,concentric,4,3.0,22076.0,147181.0,233603.0,282751.0,265320.0
2026-04-08 21:51:21.634186,258558,1609504253864142,1853829343,0.958432,0.109312,-0.003904,-1.30375,-3.19375,-6.475,-24.960001,15.824,10.776001,concentric,4,3.0,22076.0,147181.0,233603.0,282751.0,265320.0
2026-04-08 21:51:21.662638,258559,1609504253873348,1853840104,0.958432,0.109312,-0.003904,3.395,-2.54625,-9.61625,-24.960001,15.824,10.776001,concentric,4,3.0,22076.0,147181.0,233603.0,282751.0,265320.0
2026-04-08 21:51:21.665950,258560,1609504253882284,1853848796,0.958432,0.05856,-0.167872,5.43375,-1.4525,-11.7775,-24.928001,15.936001,10.064,concentric,4,3.0,22076.0,147181.0,233603.0,282751.0,265320.0
2026-04-08 21:51:21.703496,258561,1609504253896769,1853863657,0.958432,0.05856,-0.167872,7.13125,-0.91,-9.948751,-24.928001,15.936001,10.064,concentric,4,3.0,22076.0,147181.0,233603.0,282751.0,265320.0
2026-04-08 21:51:21.709428,258562,1609504253905673,1853872346,0.923296,0.115168,-0.128832,11.2,-0.97125,-6.37,-25.112001,15.736001,10.0,concentric,4,3.0,22076.0,147181.0,233603.0,282751.0,265320.0
2026-04-08 21:51:21.734810,258573,1609504253920168,1853887248,0.923296,0.115168,-0.128832,15.1725,-0.28,-7.58625,-25.112001,15.736001,10.0,concentric,4,3.0,22428.0,147963.0,234075.0,282936.0,265414.0
2026-04-08 21:51:21.739330,258574,1609504253929062,1853895895,0.98576,0.138592,-0.046848,14.20125,0.0525,-9.24,-25.024002,15.792001,11.288,concentric,4,3.0,22428.0,147963.0,234075.0,282936.0,265414.0
2026-04-08 21:51:21.743612,258575,1609504253943638,1853908839,0.942816,0.093696,-0.216672,11.8125,-0.2275,-9.70375,-25.136002,15.68,12.84,concentric,4,3.0,22428.0,147963.0,234075.0,282936.0,265414.0
2026-04-08 21:51:21.746986,258576,1609504253952907,1853919604,0.942816,0.093696,-0.216672,9.7125,-0.09625,-9.8175,-25.136002,15.68,12.84,concentric,4,3.0,22428.0,147963.0,234075.0,282936.0,265414.0
2026-04-08 21:51:21.749517,258577,1609504253961856,1853928299,0.84912,0.121024,-0.070272,9.8875,0.07,-7.9625,-25.136002,15.68,10.928,concentric,4,3.0,22428.0,147963.0,234075.0,282936.0,265414.0
2026-04-08 21:51:21.751065,258578,1609504253976425,1853943230,0.845216,0.121024,-0.070272,9.345,0.175,-4.3575,-25.432001,15.568001,10.928,concentric,4,3.0,22428.0,147963.0,234075.0,282936.0,265414.0
2026-04-08 21:51:21.755213,258579,1609504253985364,1853951916,0.921344,0.093696,-0.259616,7.9625,-0.95375,-2.87875,-25.560001,15.192,10.952001,concentric,4,3.0,22428.0,147963.0,234075.0,282936.0,265414.0
2026-04-08 21:51:21.788910,258580,1609504253999849,1853966808,0.921344,0.093696,-0.259616,10.325,-2.6425,-2.28375,-25.560001,15.192,10.952001,concentric,4,3.0,22428.0,147963.0,234075.0,282936.0,265414.0
2026-04-08 21:51:21.815804,258591,1609504254009220,1853975511,0.993568,0.130784,-0.037088,13.51,-3.29875,-1.785,-25.392002,15.336,9.696,concentric,4,3.0,22214.0,147368.0,233755.0,282854.0,265420.0
2026-04-08 21:51:21.817358,258592,1609504254018165,1853984182,0.993568,0.130784,-0.037088,14.04375,-2.24875,-2.37125,-25.392002,15.336,9.696,concentric,4,3.0,22214.0,147368.0,233755.0,282854.0,265420.0
2026-04-08 21:51:21.821574,258593,1609504254032646,1853999068,0.958432,0.105408,0.00976,15.09375,-1.435,-3.5,-25.912,15.232,10.336,concentric,4,3.0,22214.0,147368.0,233755.0,282854.0,265420.0
2026-04-08 21:51:21.824076,258594,1609504254041705,1854007784,0.958432,0.105408,0.00976,13.7725,-1.505,-3.0275,-25.912,15.232,10.336,concentric,4,3.0,22214.0,147368.0,233755.0,282854.0,265420.0
2026-04-08 21:51:21.827715,258595,1609504254056169,1854022725,0.925248,0.074176,-0.228384,7.83125,-2.2225,-0.56875,-26.12,15.264001,8.352,concentric,4,3.0,22214.0,147368.0,233755.0,282854.0,265420.0
2026-04-08 21:51:21.880421,258596,1609504254065117,1854031494,1.011136,0.099552,-0.1464,3.3775,-2.84375,1.225,-25.656002,15.120001,10.296001,concentric,4,3.0,22214.0,147368.0,233755.0,282854.0,265420.0
2026-04-08 21:51:21.882021,258597,1609504254079593,1854046375,1.011136,0.099552,-0.1464,2.8525,-2.9925,1.32125,-25.656002,15.120001,10.296001,concentric,4,3.0,22214.0,147368.0,233755.0,282854.0,265420.0
2026-04-08 21:51:21.883734,258598,1609504254088519,1854055033,0.919392,0.140544,-0.10736,3.29875,-2.54625,0.77875,-26.000002,15.168001,10.440001,concentric,4,3.0,22214.0,147368.0,233755.0,282854.0,265420.0
2026-04-08 21:51:21.887619,258599,1609504254097437,1854063687,0.919392,0.140544,-0.10736,1.72375,-2.30125,1.3125,-26.000002,15.168001,10.440001,concentric,4,3.0,22214.0,147368.0,233755.0,282854.0,265420.0
2026-04-08 21:51:21.915339,258610,1609504254112438,1854078968,0.905728,0.099552,-0.089792,-2.10875,-2.975,2.72125,-25.952002,14.976001,10.352,concentric,4,3.0,21921.0,146553.0,233149.0,282524.0,265243.0
2026-04-08 21:51:21.917043,258611,1609504254121431,1854087720,0.905728,0.099552,-0.089792,-8.72375,-4.20875,4.26125,-25.952002,14.976001,10.352,concentric,4,3.0,21921.0,146553.0,233149.0,282524.0,265243.0
2026-04-08 21:51:21.918724,258612,1609504254136029,1854102652,1.022848,0.01952,-0.12688,-7.34125,-4.48,8.86375,-25.856,15.208001,10.52,concentric,4,3.0,21921.0,146553.0,233149.0,282524.0,265243.0
2026-04-08 21:51:21.922669,258613,1609504254144980,1854111417,1.05408,0.040992,-0.023424,-1.91625,-3.84125,9.45875,-26.000002,15.280001,11.128,concentric,4,3.0,21921.0,146553.0,233149.0,282524.0,265243.0
2026-04-08 21:51:21.952065,258614,1609504254159523,1854126359,1.05408,0.040992,-0.023424,-0.84875,-3.4125,2.38875,-26.000002,15.280001,11.128,concentric,4,3.0,21921.0,146553.0,233149.0,282524.0,265243.0
2026-04-08 21:51:21.955700,258615,1609504254168441,1854135054,0.997472,0.12688,-0.066368,4.8125,-2.66,1.715,-26.056002,15.752001,10.248,concentric,4,3.0,21921.0,146553.0,233149.0,282524.0,265243.0
2026-04-08 21:51:21.957316,258616,1609504254177345,1854143707,0.997472,0.12688,-0.066368,4.90875,-1.89,3.54375,-26.056002,15.752001,10.248,concentric,4,3.0,21921.0,146553.0,233149.0,282524.0,265243.0
2026-04-08 21:51:21.962733,258617,1609504254191859,1854158587,0.99552,0.095648,-0.08784,-0.035,-1.40875,3.35125,-25.752,15.136001,9.616,concentric,4,3.0,21921.0,146553.0,233149.0,282524.0,265243.0
2026-04-08 21:51:22.001022,258618,1609504254200803,1854167247,0.99552,0.095648,-0.08784,-3.9025,-1.40875,4.34,-25.752,15.136001,9.616,eccentric,4,3.0,21921.0,146553.0,233149.0,282524.0,265243.0
2026-04-08 21:51:22.034219,258629,1609504254215415,1854182214,0.925248,0.13664,-0.076128,-7.35875,-1.00625,7.315,-25.744001,15.568001,10.888001,eccentric,4,3.0,21764.0,146182.0,232869.0,282306.0,265080.0
2026-04-08 21:51:22.037061,258630,1609504254224335,1854190878,0.999424,0.089792,-0.249856,-8.09375,-0.8575,6.5975,-25.864,15.704,10.056001,eccentric,4,3.0,21764.0,146182.0,232869.0,282306.0,265080.0
2026-04-08 21:51:22.042916,258631,1609504254233257,1854199566,0.999424,0.089792,-0.249856,-7.6125,-0.60375,2.6075,-25.864,15.704,10.056001,eccentric,4,3.0,21764.0,146182.0,232869.0,282306.0,265080.0
2026-04-08 21:51:22.044634,258632,1609504254247790,1854214507,1.01504,0.124928,-0.027328,-2.275,-0.27125,2.59,-25.888,15.816001,10.040001,eccentric,4,3.0,21764.0,146182.0,232869.0,282306.0,265080.0
2026-04-08 21:51:22.046060,258633,1609504254256707,1854223246,1.01504,0.124928,-0.027328,-2.1175,0.46375,0.14875,-25.888,15.816001,10.040001,eccentric,4,3.0,21764.0,146182.0,232869.0,282306.0,265080.0
2026-04-08 21:51:22.049560,258634,1609504254271207,1854238206,0.999424,0.083936,-0.111264,-0.665,2.09125,-1.295,-26.296001,15.440001,9.056001,eccentric,4,3.0,21764.0,146182.0,232869.0,282306.0,265080.0
2026-04-08 21:51:22.051077,258635,1609504254280116,1854246879,0.999424,0.083936,-0.111264,-0.09625,2.42375,-0.4725,-26.296001,15.440001,9.056001,eccentric,4,3.0,21764.0,146182.0,232869.0,282306.0,265080.0
2026-04-08 21:51:22.081291,258636,1609504254294599,1854259780,1.032608,0.0976,-0.187392,1.79375,2.1175,-0.6825,-25.824001,15.440001,10.6,eccentric,4,3.0,21764.0,146182.0,232869.0,282306.0,265080.0
2026-04-08 21:51:22.084824,258637,1609504254303768,1854270507,1.032608,0.144448,-0.121024,3.6575,2.26625,-2.00375,-25.824001,15.440001,10.6,eccentric,4,3.0,21764.0,146182.0,232869.0,282306.0,265080.0
2026-04-08 21:51:22.112370,258648,1609504254312789,1854279243,1.022848,0.148352,-0.121024,4.165,1.42625,-4.2175,-26.000002,15.576001,10.016001,eccentric,4,3.0,22112.0,147024.0,233199.0,282350.0,265037.0
2026-04-08 21:51:22.114804,258649,1609504254327394,1854294157,1.0736,0.091744,-0.066368,4.935,1.4525,-5.39875,-26.032001,15.808001,10.032001,eccentric,4,3.0,22112.0,147024.0,233199.0,282350.0,265037.0
2026-04-08 21:51:22.117371,258650,1609504254336470,1854302862,1.0736,0.091744,-0.066368,4.55,2.31875,-4.85625,-26.032001,15.808001,10.032001,eccentric,4,3.0,22112.0,147024.0,233199.0,282350.0,265037.0
2026-04-08 21:51:22.120082,258651,1609504254351004,1854317793,0.997472,0.140544,-0.0976,3.3775,1.86375,-3.2025,-25.936,15.528001,9.6,eccentric,4,3.0,22112.0,147024.0,233199.0,282350.0,265037.0
2026-04-08 21:51:22.150064,258652,1609504254359912,1854326496,0.997472,0.140544,-0.0976,3.08875,2.0475,-2.1175,-25.936,15.528001,9.6,eccentric,4,3.0,22112.0,147024.0,233199.0,282350.0,265037.0
2026-04-08 21:51:22.153545,258653,1609504254374383,1854341348,1.018944,0.13664,-0.140544,4.34,2.2575,-2.30125,-26.024002,15.504001,10.392,eccentric,4,3.0,22112.0,147024.0,233199.0,282350.0,265037.0
2026-04-08 21:51:22.156020,258654,1609504254383398,1854350046,1.018944,0.13664,-0.140544,5.0925,2.415,-2.905,-26.024002,15.504001,10.392,eccentric,4,3.0,22112.0,147024.0,233199.0,282350.0,265037.0
2026-04-08 21:51:22.162358,258655,1609504254392369,1854358722,1.056032,0.160064,-0.052704,4.22625,2.19625,-3.0625,-25.840002,15.720001,10.336,eccentric,4,3.0,22112.0,147024.0,233199.0,282350.0,265037.0
2026-04-08 21:51:22.192646,258656,1609504254406872,1854373649,1.050176,0.113216,-0.134688,3.5875,1.9775,-2.80875,-25.776001,15.104001,11.408001,eccentric,4,3.0,22112.0,147024.0,233199.0,282350.0,265037.0
2026-04-08 21:51:22.223594,258667,1609504254415907,1854382687,1.050176,0.113216,-0.134688,0.5775,1.6625,-2.12625,-25.776001,15.104001,11.408001,eccentric,4,3.0,22159.0,146977.0,233033.0,282175.0,264928.0
2026-04-08 21:51:22.226089,258668,1609504254430385,1854395528,1.052128,0.101504,0.0,-2.05625,1.9775,-1.155,-25.640001,15.584001,10.576,eccentric,4,3.0,22159.0,146977.0,233033.0,282175.0,264928.0
2026-04-08 21:51:22.228577,258669,1609504254439581,1854406274,1.052128,0.101504,0.0,-2.59,1.88125,0.27125,-25.640001,15.584001,10.576,eccentric,4,3.0,22159.0,146977.0,233033.0,282175.0,264928.0
2026-04-08 21:51:22.231047,258670,1609504254448636,1854414963,1.153632,0.083936,-0.040992,-0.455,2.9925,0.48125,-25.992,15.824,11.528001,eccentric,4,3.0,22159.0,146977.0,233033.0,282175.0,264928.0
2026-04-08 21:51:22.233604,258671,1609504254463252,1854429921,1.153632,0.083936,-0.040992,1.04125,2.96625,0.91,-25.992,15.824,11.528001,eccentric,4,3.0,22159.0,146977.0,233033.0,282175.0,264928.0
2026-04-08 21:51:22.263769,258672,1609504254472207,1854438639,1.134112,0.113216,0.035136,0.805,3.745,0.7175,-25.872002,15.888001,11.360001,eccentric,4,3.0,22159.0,146977.0,233033.0,282175.0,264928.0
2026-04-08 21:51:22.268731,258673,1609504254486720,1854453509,1.057984,0.093696,0.03904,-1.2075,4.22625,0.14,-25.608002,15.544001,10.528001,eccentric,4,3.0,22159.0,146977.0,233033.0,282175.0,264928.0
2026-04-08 21:51:22.303800,258674,1609504254495639,1854462158,1.057984,0.093696,0.03904,-4.725,4.80375,0.1225,-25.608002,15.544001,10.528001,eccentric,4,3.0,22159.0,146977.0,233033.0,282175.0,264928.0
2026-04-08 21:51:22.336028,258685,1609504254510116,1854476973,0.999424,0.072224,-0.154208,-7.13125,5.25,1.4525,-25.248001,15.584001,11.424001,eccentric,4,3.0,21901.0,146324.0,232634.0,282011.0,264885.0
2026-04-08 21:51:22.338523,258686,1609504254519029,1854485644,0.999424,0.072224,-0.154208,-6.5975,6.22125,2.68625,-25.248001,15.584001,11.424001,eccentric,4,3.0,21901.0,146324.0,232634.0,282011.0,264885.0
2026-04-08 21:51:22.341034,258687,1609504254527943,1854494293,1.104832,0.07808,-0.119072,-4.5325,5.67875,3.21125,-25.136002,15.592001,10.848001,eccentric,4,3.0,21901.0,146324.0,232634.0,282011.0,264885.0
2026-04-08 21:51:22.343542,258688,1609504254542400,1854509138,1.104832,0.07808,-0.119072,-4.34875,5.32875,1.61,-25.136002,15.592001,10.848001,eccentric,4,3.0,21901.0,146324.0,232634.0,282011.0,264885.0
2026-04-08 21:51:22.346080,258689,1609504254551451,1854517851,1.065792,0.103456,0.017568,-4.305,6.125,1.32125,-24.808,15.712001,11.320001,eccentric,4,3.0,21901.0,146324.0,232634.0,282011.0,264885.0
2026-04-08 21:51:22.349482,258690,1609504254565962,1854532742,0.983808,0.062464,-0.222528,-5.81,6.55375,1.46125,-24.808,16.064001,10.88,eccentric,4,3.0,21901.0,146324.0,232634.0,282011.0,264885.0
2026-04-08 21:51:22.353366,258691,1609504254574995,1854541431,0.983808,0.062464,-0.222528,-8.42625,6.9475,2.23125,-24.808,16.064001,10.88,eccentric,4,3.0,21901.0,146324.0,232634.0,282011.0,264885.0
2026-04-08 21:51:22.381379,258692,1609504254589514,1854556364,0.958432,0.089792,-0.23424,-10.71875,7.65625,3.465,-24.608002,16.088001,10.952001,eccentric,4,3.0,21901.0,146324.0,232634.0,282011.0,264885.0
2026-04-08 21:51:22.386640,258693,1609504254598437,1854565019,0.958432,0.089792,-0.23424,-12.18,7.97125,4.3575,-24.608002,16.088001,10.952001,eccentric,4,3.0,21901.0,146324.0,232634.0,282011.0,264885.0
2026-04-08 21:51:22.388372,258694,1609504254607411,1854573666,1.001376,0.081984,-0.1952,-12.075,7.7525,3.7975,-24.400002,15.912001,10.992001,eccentric,4,3.0,21901.0,146324.0,232634.0,282011.0,264885.0
2026-04-08 21:51:22.416603,258705,1609504254621917,1854588699,1.001376,0.081984,-0.1952,-13.30875,7.65625,2.59875,-24.400002,15.912001,10.992001,eccentric,4,3.0,21850.0,146277.0,232674.0,282081.0,264922.0
2026-04-08 21:51:22.418326,258706,1609504254630844,1854597437,1.036512,0.040992,-0.113216,-14.096251,7.84,2.2575,-24.560001,16.048,11.848001,eccentric,4,3.0,21850.0,146277.0,232674.0,282081.0,264922.0
2026-04-08 21:51:22.419917,258707,1609504254645390,1854612337,1.036512,0.040992,-0.113216,-16.40625,7.9975,2.73,-24.560001,16.048,11.848001,eccentric,4,3.0,21850.0,146277.0,232674.0,282081.0,264922.0
2026-04-08 21:51:22.425193,258708,1609504254654364,1854621015,0.944768,0.0976,-0.08784,-18.10375,8.085,3.77125,-24.208002,16.288,13.656001,eccentric,4,3.0,21850.0,146277.0,232674.0,282081.0,264922.0
2026-04-08 21:51:22.453726,258709,1609504254668869,1854635879,0.983808,0.080032,-0.0976,-17.68375,7.9625,4.34,-24.2,16.192001,11.480001,eccentric,4,3.0,21850.0,146277.0,232674.0,282081.0,264922.0
2026-04-08 21:51:22.458258,258710,1609504254677781,1854644591,0.983808,0.080032,-0.0976,-15.49625,7.49,4.27,-24.2,16.192001,11.480001,eccentric,4,3.0,21850.0,146277.0,232674.0,282081.0,264922.0
2026-04-08 21:51:22.459866,258711,1609504254686739,1854653353,0.991616,0.099552,-0.005856,-13.886251,7.525,3.40375,-24.2,16.656,10.960001,eccentric,4,3.0,21850.0,146277.0,232674.0,282081.0,264922.0
2026-04-08 21:51:22.490893,258712,1609504254701251,1854668225,0.991616,0.099552,-0.005856,-15.1375,6.9825,3.14125,-23.68,16.656,10.960001,eccentric,4,3.0,21850.0,146277.0,232674.0,282081.0,264922.0
2026-04-08 21:51:22.493196,258713,1609504254710152,1854676884,0.991616,0.085888,0.005856,-18.15625,6.13375,2.5725,-23.488,16.392,10.528001,eccentric,4,3.0,21850.0,146277.0,232674.0,282081.0,264922.0
2026-04-08 21:51:22.522037,258724,1609504254724653,1854691760,0.991616,0.085888,0.005856,-19.565,6.1075,2.93125,-23.488,16.392,10.528001,eccentric,4,3.0,21902.0,146531.0,232967.0,282258.0,265000.0
2026-04-08 21:51:22.523635,258725,1609504254733747,1854700436,0.950624,0.103456,0.02928,-19.3025,6.32625,3.22,-23.328001,16.720001,10.032001,eccentric,4,3.0,21902.0,146531.0,232967.0,282258.0,265000.0
2026-04-08 21:51:22.527826,258726,1609504254742698,1854709163,0.950624,0.103456,0.02928,-19.25875,6.37,3.52625,-23.328001,16.720001,10.032001,eccentric,4,3.0,21902.0,146531.0,232967.0,282258.0,265000.0
2026-04-08 21:51:22.530265,258727,1609504254757225,1854724080,0.892064,0.095648,-0.066368,-19.005,5.5475,2.54625,-23.112001,16.84,11.832001,eccentric,4,3.0,21902.0,146531.0,232967.0,282258.0,265000.0
2026-04-08 21:51:22.536466,258728,1609504254766170,1854732753,0.892064,0.095648,-0.066368,-18.795,4.27875,1.86375,-23.112001,16.84,11.832001,eccentric,4,3.0,21902.0,146531.0,232967.0,282258.0,265000.0
2026-04-08 21:51:22.601316,258729,1609504254780647,1854747675,0.870592,0.070272,-0.160064,-19.7925,4.025,0.9975,-22.880001,16.800001,14.064001,eccentric,4,3.0,21902.0,146531.0,232967.0,282258.0,265000.0
2026-04-08 21:51:22.604881,258730,1609504254789536,1854756320,0.892064,0.085888,-0.021472,-19.5125,3.82375,-0.2275,-22.712002,16.712,10.320001,eccentric,4,3.0,21902.0,146531.0,232967.0,282258.0,265000.0
2026-04-08 21:51:22.607327,258731,1609504254803996,1854769151,0.892064,0.085888,-0.021472,-19.241251,3.71875,0.0875,-22.712002,16.712,10.320001,eccentric,4,3.0,21902.0,146531.0,232967.0,282258.0,265000.0
2026-04-08 21:51:22.637264,258742,1609504254813490,1854779944,0.94672,0.070272,-0.109312,-19.99375,3.185,0.7875,-23.04,17.312,10.544001,eccentric,4,3.0,22094.0,147093.0,233352.0,282449.0,265045.0
2026-04-08 21:51:22.639736,258743,1609504254822452,1854788709,0.94672,0.070272,-0.109312,-20.16,2.8875,0.77875,-23.04,17.312,10.544001,eccentric,4,3.0,22094.0,147093.0,233352.0,282449.0,265045.0
2026-04-08 21:51:22.642298,258744,1609504254836909,1854803562,0.929152,0.103456,0.035136,-21.25375,2.2225,0.56875,-22.768002,17.456001,10.432,eccentric,4,3.0,22094.0,147093.0,233352.0,282449.0,265045.0
2026-04-08 21:51:22.644736,258745,1609504254845924,1854812248,0.929152,0.103456,0.035136,-22.00625,1.21625,0.1225,-22.768002,17.456001,10.432,eccentric,4,3.0,22094.0,147093.0,233352.0,282449.0,265045.0
2026-04-08 21:51:22.647262,258746,1609504254860471,1854827134,0.841312,0.044896,-0.158112,-23.0825,1.0675,0.5075,-22.400002,17.712,12.456,eccentric,4,3.0,22094.0,147093.0,233352.0,282449.0,265045.0
2026-04-08 21:51:22.649829,258747,1609504254869427,1854835808,0.882304,0.017568,-0.050752,-27.098751,-0.21875,0.455,-22.344002,17.272001,10.792001,eccentric,4,3.0,22094.0,147093.0,233352.0,282449.0,265045.0
2026-04-08 21:51:22.652327,258748,1609504254883942,1854850787,0.882304,0.017568,-0.050752,-29.79375,-2.2225,0.56875,-22.344002,17.272001,10.792001,eccentric,4,3.0,22094.0,147093.0,233352.0,282449.0,265045.0
2026-04-08 21:51:22.682539,258749,1609504254892878,1854859459,0.86864,0.050752,0.031232,-27.41375,-3.00125,0.7175,-22.28,17.456001,11.184001,eccentric,4,3.0,22094.0,147093.0,233352.0,282449.0,265045.0
2026-04-08 21:51:22.686054,258750,1609504254901787,1854868112,0.86864,0.050752,0.031232,-21.1225,-2.8175,0.5075,-22.28,17.456001,11.184001,eccentric,4,3.0,22094.0,147093.0,233352.0,282449.0,265045.0
2026-04-08 21:51:22.713555,258761,1609504254916727,1854883270,0.827648,0.035136,-0.169824,-17.31625,-1.8725,-0.7875,-22.088001,17.816,9.8,eccentric,4,3.0,22169.0,147290.0,233570.0,282578.0,265122.0
2026-04-08 21:51:22.716068,258762,1609504254925809,1854891957,0.827648,0.035136,-0.169824,-14.27125,-1.4175,-0.2275,-22.088001,17.816,9.8,eccentric,4,3.0,22169.0,147290.0,233570.0,282578.0,265122.0
2026-04-08 21:51:22.718588,258763,1609504254940408,1854906890,0.880352,0.0488,-0.060512,-9.87,-1.40875,-0.2975,-22.088001,17.848001,9.552,eccentric,4,3.0,22169.0,147290.0,233570.0,282578.0,265122.0
2026-04-08 21:51:22.721014,258764,1609504254949319,1854915578,0.81008,0.060512,-0.138592,-6.43125,-1.07625,-1.96875,-22.328001,17.888,7.960001,eccentric,4,3.0,22169.0,147290.0,233570.0,282578.0,265122.0
2026-04-08 21:51:22.727287,258765,1609504254958343,1854924266,0.81008,0.060512,-0.138592,-8.95125,-0.91,-2.52,-22.328001,17.888,7.960001,eccentric,4,3.0,22169.0,147290.0,233570.0,282578.0,265122.0
2026-04-08 21:51:22.757388,258766,1609504254972802,1854939113,0.870592,0.062464,-0.03904,-14.37625,-1.77625,-1.18125,-22.024,17.640001,10.672001,eccentric,4,3.0,22169.0,147290.0,233570.0,282578.0,265122.0
2026-04-08 21:51:22.761151,258767,1609504254981697,1854947789,0.870592,0.062464,-0.03904,-18.94375,-2.40625,0.315,-22.024,17.640001,10.672001,eccentric,4,3.0,22169.0,147290.0,233570.0,282578.0,265122.0
2026-04-08 21:51:22.764816,258768,1609504254996172,1854962706,0.866688,0.0488,-0.046848,-21.428751,-3.0275,-0.105,-21.584002,18.144001,9.56,eccentric,4,3.0,22169.0,147290.0,233570.0,282578.0,265122.0
2026-04-08 21:51:22.794958,258769,1609504255005090,1854971362,0.866688,0.0488,-0.046848,-19.635,-3.01,-1.11125,-21.584002,18.144001,9.56,eccentric,4,3.0,22169.0,147290.0,233570.0,282578.0,265122.0
2026-04-08 21:51:22.827456,258780,1609504255019688,1854986326,0.821792,0.02928,-0.158112,-16.1,-2.16125,-1.89875,-21.568,17.888,9.296001,eccentric,4,3.0,22502.0,148209.0,234260.0,282955.0,265300.0
2026-04-08 21:51:22.829065,258781,1609504255028613,1854995022,0.821792,0.060512,0.0488,-12.1625,-1.02375,-2.94,-21.568,17.888,9.296001,eccentric,4,3.0,22502.0,148209.0,234260.0,282955.0,265300.0
2026-04-08 21:51:22.831206,258782,1609504255037536,1855003706,0.892064,0.05856,0.0488,-12.32875,-1.68875,-2.31875,-21.624,17.824001,9.376,eccentric,4,3.0,22502.0,148209.0,234260.0,282955.0,265300.0
2026-04-08 21:51:22.833539,258783,1609504255052045,1855018624,0.923296,0.0488,-0.181536,-16.00375,-3.4125,-1.40875,-21.664001,17.52,10.432,eccentric,4,3.0,22502.0,148209.0,234260.0,282955.0,265300.0
2026-04-08 21:51:22.836095,258784,1609504255060966,1855027286,0.923296,0.0488,-0.181536,-14.83125,-3.745,-2.58125,-21.664001,17.52,10.432,eccentric,4,3.0,22502.0,148209.0,234260.0,282955.0,265300.0
2026-04-08 21:51:22.898746,258785,1609504255075446,1855042144,0.85888,0.091744,0.013664,-9.9925,-3.325,-4.05125,-21.704,17.976002,10.448001,eccentric,4,3.0,22502.0,148209.0,234260.0,282955.0,265300.0
2026-04-08 21:51:22.905167,258786,1609504255084375,1855050857,0.85888,0.091744,0.013664,-7.315,-2.73875,-3.1325,-21.704,17.976002,10.448001,eccentric,4,3.0,22502.0,148209.0,234260.0,282955.0,265300.0
2026-04-08 21:51:22.907382,258787,1609504255098838,1855065708,0.792512,0.093696,-0.10736,-6.65,-3.01875,-0.7175,-21.248001,17.888,9.288,eccentric,4,3.0,22502.0,148209.0,234260.0,282955.0,265300.0
2026-04-08 21:51:22.909715,258788,1609504255107769,1855074359,0.792512,0.093696,-0.10736,-4.865,-3.325,1.2425,-21.248001,17.888,9.288,eccentric,4,3.0,22502.0,148209.0,234260.0,282955.0,265300.0
2026-04-08 21:51:22.937246,258799,1609504255117072,1855083070,0.804224,0.040992,-0.177632,-6.4225,-3.465,2.6425,-21.392,17.776001,9.784,eccentric,4,3.0,22646.0,148544.0,234541.0,283143.0,265442.0
2026-04-08 21:51:22.939782,258800,1609504255131608,1855097951,0.886208,0.052704,-0.005856,-9.3275,-4.0775,3.3075,-21.488,17.888,9.344001,eccentric,4,3.0,22646.0,148544.0,234541.0,283143.0,265442.0
2026-04-08 21:51:22.942303,258801,1609504255140515,1855106617,0.886208,0.052704,-0.005856,-5.41625,-4.0775,2.84375,-21.488,17.888,9.344001,eccentric,4,3.0,22646.0,148544.0,234541.0,283143.0,265442.0
2026-04-08 21:51:22.953768,258802,1609504255155000,1855121575,0.827648,0.0488,-0.177632,2.5025,-3.56125,1.12,-21.584002,17.728,9.336,eccentric,4,3.0,22646.0,148544.0,234541.0,283143.0,265442.0
2026-04-08 21:51:22.959804,258803,1609504255163964,1855130317,0.827648,0.0488,-0.177632,6.44,-2.6425,-0.16625,-21.584002,17.728,9.336,eccentric,4,3.0,22646.0,148544.0,234541.0,283143.0,265442.0
2026-04-08 21:51:22.962326,258804,1609504255172969,1855138995,0.841312,0.042944,-0.0488,8.35625,-1.715,1.23375,-21.192001,17.880001,9.440001,eccentric,4,3.0,22646.0,148544.0,234541.0,283143.0,265442.0
2026-04-08 21:51:22.964773,258805,1609504255187494,1855153883,0.841312,0.042944,-0.0488,7.7,-1.2075,3.0275,-21.192001,17.880001,9.440001,eccentric,4,3.0,22646.0,148544.0,234541.0,283143.0,265442.0
2026-04-08 21:51:22.967304,258806,1609504255196426,1855162557,0.812032,0.052704,-0.152256,5.36375,-2.00375,3.955,-21.136002,17.84,9.248,eccentric,4,3.0,22646.0,148544.0,234541.0,283143.0,265442.0
2026-04-08 21:51:22.997461,258807,1609504255210869,1855177464,0.860832,0.064416,-0.027328,5.69625,-2.87,4.1825,-21.312,17.688002,10.256001,eccentric,4,3.0,22646.0,148544.0,234541.0,283143.0,265442.0
2026-04-08 21:51:23.032277,258818,1609504255219865,1855186148,0.860832,0.064416,-0.027328,6.32625,-3.0975,3.08875,-21.312,17.688002,10.256001,eccentric,4,3.0,22333.0,147804.0,234146.0,283019.0,265409.0
2026-04-08 21:51:23.034789,258819,1609504255234319,1855201034,0.81008,0.037088,-0.163968,6.65,-2.9575,1.8025,-20.928001,17.76,9.272,eccentric,4,3.0,22333.0,147804.0,234146.0,283019.0,265409.0
2026-04-08 21:51:23.037297,258820,1609504255243247,1855209731,0.81008,0.037088,-0.163968,7.945,-2.3625,0.7525,-20.928001,17.76,9.272,eccentric,4,3.0,22333.0,147804.0,234146.0,283019.0,265409.0
2026-04-08 21:51:23.039843,258821,1609504255252180,1855218489,0.808128,0.021472,-0.093696,9.7475,-1.98625,0.55125,-20.848001,17.52,8.976001,eccentric,4,3.0,22333.0,147804.0,234146.0,283019.0,265409.0
2026-04-08 21:51:23.042283,258822,1609504255266757,1855233432,0.808128,0.021472,-0.093696,8.81125,-1.21625,1.47875,-20.848001,17.52,8.976001,eccentric,4,3.0,22333.0,147804.0,234146.0,283019.0,265409.0
2026-04-08 21:51:23.044853,258823,1609504255275719,1855242153,0.823744,0.05856,-0.1464,8.365,-1.1025,1.98625,-20.92,17.416,10.72,eccentric,4,3.0,22333.0,147804.0,234146.0,283019.0,265409.0
2026-04-08 21:51:23.074930,258824,1609504255290206,1855257037,0.823744,0.042944,0.040992,12.74,-1.6275,0.93625,-20.92,17.416,10.72,eccentric,4,3.0,22333.0,147804.0,234146.0,283019.0,265409.0
2026-04-08 21:51:23.078570,258825,1609504255299127,1855265712,0.901824,0.035136,0.040992,15.82,-2.05625,-0.46375,-21.112001,17.28,9.536,eccentric,4,3.0,22333.0,147804.0,234146.0,283019.0,265409.0
2026-04-08 21:51:23.082212,258826,1609504255313571,1855280598,0.806176,0.021472,-0.066368,13.895,-2.40625,0.27125,-21.048,17.376001,9.968,eccentric,4,3.0,22333.0,147804.0,234146.0,283019.0,265409.0
2026-04-08 21:51:23.109803,258837,1609504255322506,1855289292,0.806176,0.021472,-0.066368,12.285,-2.03,1.1375,-21.048,17.376001,9.968,eccentric,4,3.0,21730.0,146316.0,233148.0,282593.0,265255.0
2026-04-08 21:51:23.112326,258838,1609504255331423,1855298010,0.847168,0.040992,-0.040992,11.82125,-2.2925,1.05875,-20.936,17.416,12.256001,eccentric,4,3.0,21730.0,146316.0,233148.0,282593.0,265255.0
2026-04-08 21:51:23.116029,258839,1609504255345905,1855313017,0.847168,0.040992,-0.040992,8.636251,-2.56375,-0.3675,-20.936,17.416,12.256001,eccentric,4,3.0,21730.0,146316.0,233148.0,282593.0,265255.0
2026-04-08 21:51:23.126112,258840,1609504255354889,1855321726,0.903776,0.005856,-0.12688,4.9875,-3.3425,-4.59375,-20.848001,17.064001,11.616,eccentric,4,3.0,21730.0,146316.0,233148.0,282593.0,265255.0
2026-04-08 21:51:23.197606,258841,1609504255369422,1855334641,0.903776,0.005856,-0.12688,6.16,-2.485,-4.08625,-20.848001,17.064001,11.616,eccentric,4,3.0,21730.0,146316.0,233148.0,282593.0,265255.0
2026-04-08 21:51:23.201119,258842,1609504255378635,1855345366,0.784704,0.027328,-0.12688,12.6525,-0.665,1.26875,-20.736,17.0,9.320001,eccentric,4,3.0,21730.0,146316.0,233148.0,282593.0,265255.0
2026-04-08 21:51:23.209850,258843,1609504255393086,1855360237,0.774944,0.017568,-0.10736,15.21625,0.455,1.18125,-20.456001,17.368,8.264,eccentric,4,3.0,21730.0,146316.0,233148.0,282593.0,265255.0
2026-04-08 21:51:23.212362,258844,1609504255401977,1855368913,0.774944,0.017568,-0.10736,16.397501,1.225,0.09625,-20.456001,17.368,8.264,eccentric,4,3.0,21730.0,146316.0,233148.0,282593.0,265255.0
2026-04-08 21:51:23.214816,258845,1609504255410875,1855377571,0.774944,0.017568,0.033184,16.42375,0.62125,1.5925,-20.456001,17.368,8.264,eccentric,4,3.0,21730.0,146316.0,233148.0,282593.0,265255.0
2026-04-08 21:51:23.242310,258856,1609504255425785,1855392478,0.84912,0.080032,0.033184,14.93625,-1.3125,1.89,-20.76,17.232,10.232,eccentric,4,3.0,21702.0,146305.0,233122.0,282604.0,265280.0
2026-04-08 21:51:23.244999,258857,1609504255434716,1855401142,0.915488,0.040992,0.07808,11.2525,-2.8875,-0.28,-20.720001,17.168001,10.112,eccentric,4,3.0,21702.0,146305.0,233122.0,282604.0,265280.0
2026-04-08 21:51:23.247279,258858,1609504255449212,1855416056,0.915488,0.040992,0.07808,7.8575,-3.1675,-1.46125,-20.720001,17.168001,10.112,eccentric,4,3.0,21702.0,146305.0,233122.0,282604.0,265280.0
2026-04-08 21:51:23.249810,258859,1609504255458139,1855424727,0.84912,-0.00976,0.07808,7.6825,-2.38,-1.18125,-20.512001,16.880001,10.776001,eccentric,4,3.0,21702.0,146305.0,233122.0,282604.0,265280.0
2026-04-08 21:51:23.252291,258860,1609504255472640,1855439648,0.81984,0.0,-0.130784,9.1,-1.75875,-0.25375,-20.584002,16.992,12.152,eccentric,4,3.0,21702.0,146305.0,233122.0,282604.0,265280.0
2026-04-08 21:51:23.254811,258861,1609504255481663,1855448331,0.81984,0.0,-0.130784,8.12,-2.38,1.18125,-20.584002,16.992,12.152,eccentric,4,3.0,21702.0,146305.0,233122.0,282604.0,265280.0
2026-04-08 21:51:23.259831,258862,1609504255490583,1855456993,0.81984,0.0,-0.130784,8.2075,-3.61375,1.51375,-20.584002,16.992,12.152,eccentric,4,3.0,21702.0,146305.0,233122.0,282604.0,265280.0
2026-04-08 21:51:23.290047,258863,1609504255505074,1855471886,0.938912,0.062464,0.072224,7.74375,-4.31375,-0.1925,-20.496,16.856,9.64,eccentric,4,3.0,21702.0,146305.0,233122.0,282604.0,265280.0
2026-04-08 21:51:23.293550,258864,1609504255514003,1855480550,0.93696,0.02928,0.122976,3.8325,-3.52625,-2.54625,-20.448002,17.112001,10.104,eccentric,4,3.0,21702.0,146305.0,233122.0,282604.0,265280.0
2026-04-08 21:51:23.321044,258875,1609504255528512,1855495540,0.93696,0.02928,0.122976,-0.35875,-2.485,-3.52625,-20.448002,17.112001,10.104,eccentric,4,3.0,21431.0,145678.0,232734.0,282460.0,265278.0
2026-04-08 21:51:23.323540,258876,1609504255537528,1855504262,0.884256,0.007808,0.111264,-4.3925,-1.505,-2.70375,-20.848001,16.904001,11.944,eccentric,4,3.0,21431.0,145678.0,232734.0,282460.0,265278.0
2026-04-08 21:51:23.326056,258877,1609504255546518,1855513020,0.884256,0.007808,0.111264,-7.3675,-1.155,-1.365,-20.848001,16.904001,11.944,eccentric,4,3.0,21431.0,145678.0,232734.0,282460.0,265278.0
2026-04-08 21:51:23.329833,258878,1609504255561059,1855527932,0.880352,0.003904,-0.154208,-7.7525,-1.33875,-0.55125,-21.000002,16.752,11.784,eccentric,4,3.0,21431.0,145678.0,232734.0,282460.0,265278.0
2026-04-08 21:51:23.360073,258879,1609504255570009,1855536607,0.880352,0.003904,-0.154208,-3.85,-1.33,-0.53375,-21.000002,16.752,11.784,eccentric,4,3.0,21431.0,145678.0,232734.0,282460.0,265278.0
2026-04-08 21:51:23.363630,258880,1609504255584410,1855551473,0.925248,0.076128,-0.130784,-2.33625,-1.295,-2.19625,-20.824001,17.232,10.0,eccentric,4,3.0,21431.0,145678.0,232734.0,282460.0,265278.0
2026-04-08 21:51:23.366075,258881,1609504255593325,1855560161,0.882304,0.056608,-0.173728,-1.2425,-0.7,-5.2675,-20.568,17.088001,9.184,eccentric,4,3.0,21431.0,145678.0,232734.0,282460.0,265278.0
