pc_time,serial_num,sensor_ts,host_ts,ax,ay,az,gx,gy,gz,mx,my,mz,phase,rpe,weight_kg,ppg_a,ppg_b,ppg_c,ppg_d,ppg_e
2026-04-08 21:51:25.983744,259372,1609504258199342,1858166323,0.919392,0.062464,-0.240096,0.1925,-7.04375,-0.20125,-23.152,16.544,8.744,concentric,4,3.0,21006.0,144843.0,232683.0,282685.0,265734.0
2026-04-08 21:51:25.987309,259373,1609504258208274,1858174989,0.919392,0.062464,-0.240096,-0.67375,-6.37,0.385,-23.152,16.544,8.744,concentric,4,3.0,21006.0,144843.0,232683.0,282685.0,265734.0
2026-04-08 21:51:25.992370,259374,1609504258222803,1858189868,0.866688,0.007808,-0.226432,0.2975,-5.985,0.1925,-22.880001,16.648,8.04,concentric,4,3.0,21006.0,144843.0,232683.0,282685.0,265734.0
2026-04-08 21:51:26.027874,259385,1609504258231869,1858198994,0.90768,0.05856,-0.013664,2.10875,-6.1425,0.70875,-23.176,16.392,8.736,concentric,4,3.0,20738.0,144248.0,232353.0,282570.0,265705.0
2026-04-08 21:51:26.029426,259386,1609504258240939,1858207733,0.90768,0.05856,-0.013664,3.71,-6.5975,0.28,-23.176,16.392,8.736,concentric,4,3.0,20738.0,144248.0,232353.0,282570.0,265705.0
2026-04-08 21:51:26.031180,259387,1609504258255545,1858222592,0.89792,0.080032,-0.269376,3.45625,-7.76125,-1.26875,-23.312,16.576,9.656,concentric,4,3.0,20738.0,144248.0,232353.0,282570.0,265705.0
2026-04-08 21:51:26.033509,259388,1609504258264508,1858231283,0.89792,0.080032,-0.269376,3.5875,-7.98875,-1.84625,-23.312,16.576,9.656,concentric,4,3.0,20738.0,144248.0,232353.0,282570.0,265705.0
2026-04-08 21:51:26.063789,259389,1609504258278981,1858244150,0.905728,0.099552,0.011712,4.03375,-7.4725,-0.76125,-23.168001,16.648,8.592,concentric,4,3.0,20738.0,144248.0,232353.0,282570.0,265705.0
2026-04-08 21:51:26.067328,259390,1609504258288141,1858254870,0.905728,0.099552,0.011712,3.40375,-6.895,0.70875,-23.168001,16.648,8.592,concentric,4,3.0,20738.0,144248.0,232353.0,282570.0,265705.0
2026-04-08 21:51:26.072283,259391,1609504258302610,1858269742,0.892064,0.076128,-0.02928,3.17625,-7.105,2.66875,-23.232,16.44,7.544,concentric,4,3.0,20738.0,144248.0,232353.0,282570.0,265705.0
2026-04-08 21:51:26.102973,259392,1609504258311506,1858278390,0.90768,0.074176,-0.03904,2.70375,-7.23625,4.52375,-22.984001,16.824001,8.68,concentric,4,3.0,20738.0,144248.0,232353.0,282570.0,265705.0
2026-04-08 21:51:26.109094,259393,1609504258320415,1858287114,0.90768,0.074176,-0.03904,0.34125,-7.7875,4.47125,-22.984001,16.824001,8.68,concentric,4,3.0,20738.0,144248.0,232353.0,282570.0,265705.0
2026-04-08 21:51:26.133538,259404,1609504258335304,1858302024,0.91744,0.054656,-0.119072,-1.68,-7.7525,2.72125,-23.368002,16.528,7.664001,concentric,4,3.0,20590.0,144024.0,232279.0,282602.0,265769.0
2026-04-08 21:51:26.136041,259405,1609504258344387,1858310744,0.91744,0.054656,-0.119072,-2.52,-7.4025,0.0875,-23.368002,16.528,7.664001,concentric,4,3.0,20590.0,144024.0,232279.0,282602.0,265769.0
2026-04-08 21:51:26.138595,259406,1609504258358918,1858325646,0.8784,0.050752,-0.021472,-1.40875,-6.88625,-0.6475,-23.624,16.544,7.24,concentric,4,3.0,20590.0,144024.0,232279.0,282602.0,265769.0
2026-04-08 21:51:26.141041,259407,1609504258367840,1858334338,0.8784,0.050752,-0.021472,-1.435,-6.0375,-0.02625,-23.624,16.544,7.24,concentric,4,3.0,20590.0,144024.0,232279.0,282602.0,265769.0
2026-04-08 21:51:26.146073,259408,1609504258376752,1858343003,0.872544,0.031232,-0.171776,-1.11125,-5.6175,-0.39375,-23.720001,16.664001,7.472,concentric,4,3.0,20590.0,144024.0,232279.0,282602.0,265769.0
2026-04-08 21:51:26.203626,259409,1609504258391240,1858357859,0.909632,0.062464,-0.031232,0.6475,-6.335,-1.4525,-23.392,16.808,7.928001,concentric,4,3.0,20590.0,144024.0,232279.0,282602.0,265769.0
2026-04-08 21:51:26.206000,259410,1609504258400137,1858366559,0.909632,0.062464,-0.031232,2.14375,-6.2125,-3.6575,-23.392,16.808,7.928001,concentric,4,3.0,20590.0,144024.0,232279.0,282602.0,265769.0
2026-04-08 21:51:26.208532,259411,1609504258414609,1858381416,0.909632,0.083936,-0.132736,0.49875,-6.6675,-6.02,-23.504002,16.68,7.208,concentric,4,3.0,20590.0,144024.0,232279.0,282602.0,265769.0
2026-04-08 21:51:26.211047,259412,1609504258423534,1858390113,0.909632,0.083936,-0.132736,-2.38,-5.6525,-6.51875,-23.504002,16.68,7.208,concentric,4,3.0,20590.0,144024.0,232279.0,282602.0,265769.0
2026-04-08 21:51:26.238522,259423,1609504258438110,1858405007,0.856928,0.083936,-0.244,-0.63,-4.935,-5.76625,-23.736002,16.376001,7.328001,concentric,4,3.0,20476.0,143827.0,232124.0,282511.0,265728.0
2026-04-08 21:51:26.241017,259424,1609504258447088,1858413721,0.856928,0.083936,-0.244,5.46875,-4.0775,-4.4275,-23.736002,16.376001,7.328001,concentric,4,3.0,20476.0,143827.0,232124.0,282511.0,265728.0
2026-04-08 21:51:26.243545,259425,1609504258456070,1858422485,0.884256,0.089792,-0.023424,7.14875,-4.27875,-2.70375,-23.552002,16.512001,7.520001,concentric,4,3.0,20476.0,143827.0,232124.0,282511.0,265728.0
2026-04-08 21:51:26.246082,259426,1609504258470593,1858437371,0.884256,0.089792,-0.023424,2.73875,-4.78625,-0.91,-23.552002,16.512001,7.520001,concentric,4,3.0,20476.0,143827.0,232124.0,282511.0,265728.0
2026-04-08 21:51:26.248530,259427,1609504258479514,1858446057,0.854976,0.05856,-0.277184,-0.98875,-5.3025,-0.35875,-23.496,16.736,7.944,concentric,4,3.0,20476.0,143827.0,232124.0,282511.0,265728.0
2026-04-08 21:51:26.278789,259428,1609504258494012,1858460965,0.796416,0.056608,-0.189344,-0.9975,-5.285,-1.51375,-23.688002,17.064001,7.784,concentric,4,3.0,20476.0,143827.0,232124.0,282511.0,265728.0
2026-04-08 21:51:26.282283,259429,1609504258502938,1858469641,0.796416,0.056608,-0.189344,-2.51125,-4.45375,-3.465,-23.688002,17.064001,7.784,concentric,4,3.0,20476.0,143827.0,232124.0,282511.0,265728.0
2026-04-08 21:51:26.287284,259430,1609504258517428,1858484487,0.759328,0.05856,-0.197152,-4.655,-3.00125,-4.97,-24.024002,16.496,7.272,concentric,4,3.0,20476.0,143827.0,232124.0,282511.0,265728.0
2026-04-08 21:51:26.317541,259431,1609504258526371,1858493162,0.759328,0.05856,-0.197152,-2.19625,-2.70375,-6.58,-24.024002,16.496,7.272,concentric,4,3.0,20476.0,143827.0,232124.0,282511.0,265728.0
2026-04-08 21:51:26.349068,259442,1609504258535422,1858501922,0.856928,0.035136,-0.279136,1.68875,-3.17625,-9.345,-23.696001,16.664001,7.216001,concentric,4,3.0,20459.0,143830.0,232183.0,282557.0,265743.0
2026-04-08 21:51:26.352271,259443,1609504258549973,1858516790,0.856928,0.035136,-0.279136,0.44625,-3.6225,-11.8475,-23.696001,16.664001,7.216001,concentric,4,3.0,20459.0,143830.0,232183.0,282557.0,265743.0
2026-04-08 21:51:26.352872,259444,1609504258558894,1858525459,0.919392,0.103456,-0.10736,-3.59625,-4.0425,-12.92375,-24.152,16.304,5.4,concentric,4,3.0,20459.0,143830.0,232183.0,282557.0,265743.0
2026-04-08 21:51:26.353933,259445,1609504258573382,1858540380,0.886208,0.122976,0.031232,-2.065,-3.2025,-12.29375,-24.448002,16.44,7.256001,concentric,4,3.0,20459.0,143830.0,232183.0,282557.0,265743.0
2026-04-08 21:51:26.357673,259446,1609504258582306,1858549090,0.886208,0.122976,0.031232,5.36375,-1.3125,-10.57875,-24.448002,16.44,7.256001,concentric,4,3.0,20459.0,143830.0,232183.0,282557.0,265743.0
2026-04-08 21:51:26.386375,259447,1609504258596818,1858563958,0.853024,0.080032,-0.261568,15.1725,0.28875,-8.32125,-24.624,16.088001,8.672001,concentric,4,3.0,20459.0,143830.0,232183.0,282557.0,265743.0
2026-04-08 21:51:26.390826,259448,1609504258605811,1858572633,0.853024,0.080032,-0.261568,16.30125,0.16625,-5.2675,-24.624,16.088001,8.672001,concentric,4,3.0,20459.0,143830.0,232183.0,282557.0,265743.0
2026-04-08 21:51:26.392349,259449,1609504258614734,1858581286,0.862784,0.13664,-0.28304,9.31,-2.49375,-2.52,-24.28,16.288,7.344,concentric,4,3.0,20459.0,143830.0,232183.0,282557.0,265743.0
2026-04-08 21:51:26.400167,259450,1609504258629257,1858596188,0.862784,0.13664,-0.28304,5.87125,-3.91125,-0.245,-24.28,16.288,7.344,concentric,4,3.0,20459.0,143830.0,232183.0,282557.0,265743.0
2026-04-08 21:51:26.426073,259461,1609504258638365,1858605279,0.91744,0.00976,-0.304512,3.33375,-3.9375,-1.12875,-24.376001,16.344,6.672,concentric,4,3.0,20564.0,144039.0,232207.0,282414.0,265586.0
2026-04-08 21:51:26.430080,259462,1609504258652899,1858618181,0.895968,0.044896,-0.05856,-4.515,-2.695,-3.28125,-24.776001,16.296001,8.024,concentric,4,3.0,20564.0,144039.0,232207.0,282414.0,265586.0
2026-04-08 21:51:26.432712,259463,1609504258662277,1858628956,0.895968,0.044896,-0.05856,-5.6175,-1.435,-4.33125,-24.776001,16.296001,8.024,concentric,4,3.0,20564.0,144039.0,232207.0,282414.0,265586.0
2026-04-08 21:51:26.439835,259464,1609504258671192,1858637662,0.895968,0.044896,-0.05856,1.2775,0.42,-5.90625,-24.776001,16.296001,8.024,concentric,4,3.0,20564.0,144039.0,232207.0,282414.0,265586.0
2026-04-08 21:51:26.498900,259465,1609504258685702,1858652588,0.909632,0.08784,-0.074176,7.21875,1.12875,-6.93,-24.648,15.952001,6.84,concentric,4,3.0,20564.0,144039.0,232207.0,282414.0,265586.0
2026-04-08 21:51:26.502392,259466,1609504258694648,1858661269,0.81984,0.148352,-0.169824,8.77625,1.28625,-6.71125,-24.584002,16.216002,6.856,concentric,4,3.0,20564.0,144039.0,232207.0,282414.0,265586.0
2026-04-08 21:51:26.504830,259467,1609504258709133,1858676112,0.81984,0.148352,-0.169824,7.8575,0.27125,-6.29125,-24.584002,16.216002,6.856,concentric,4,3.0,20564.0,144039.0,232207.0,282414.0,265586.0
2026-04-08 21:51:26.509470,259468,1609504258718040,1858684872,0.847168,0.0976,-0.261568,2.45875,-0.5075,-6.055,-24.840002,15.992001,7.32,concentric,4,3.0,20564.0,144039.0,232207.0,282414.0,265586.0
2026-04-08 21:51:26.510918,259469,1609504258732486,1858697748,0.847168,0.0976,-0.046848,-2.6075,-0.5075,-6.72,-24.840002,15.992001,7.32,concentric,4,3.0,20564.0,144039.0,232207.0,282414.0,265586.0
2026-04-08 21:51:26.537287,259480,1609504258741760,1858708580,0.91744,0.072224,-0.046848,-5.45125,0.9625,-6.85125,-24.656002,16.168001,7.008,concentric,4,3.0,20580.0,144118.0,232290.0,282484.0,265616.0
2026-04-08 21:51:26.539818,259481,1609504258750735,1858717320,0.91744,0.072224,-0.046848,-3.0625,2.52,-6.74625,-24.656002,16.168001,7.008,concentric,4,3.0,20580.0,144118.0,232290.0,282484.0,265616.0
2026-04-08 21:51:26.542288,259482,1609504258765277,1858732264,0.911584,0.093696,0.003904,2.77375,3.22,-7.1225,-24.792002,16.144001,9.552,concentric,4,3.0,20580.0,144118.0,232290.0,282484.0,265616.0
2026-04-08 21:51:26.545230,259483,1609504258774263,1858740949,0.9272,0.10736,-0.095648,7.76125,3.78875,-9.065,-25.512001,16.256,7.624001,concentric,4,3.0,20580.0,144118.0,232290.0,282484.0,265616.0
2026-04-08 21:51:26.575001,259484,1609504258788754,1858755807,0.9272,0.10736,-0.095648,13.06375,3.99875,-11.19125,-25.512001,16.256,7.624001,concentric,4,3.0,20580.0,144118.0,232290.0,282484.0,265616.0
2026-04-08 21:51:26.578577,259485,1609504258797660,1858764483,0.862784,0.130784,-0.171776,14.105001,4.515,-13.09875,-24.864,15.528001,7.568,concentric,4,3.0,20580.0,144118.0,232290.0,282484.0,265616.0
2026-04-08 21:51:26.581104,259486,1609504258812187,1858777331,0.862784,0.130784,-0.171776,11.01625,4.96125,-14.7175,-24.864,15.528001,7.568,concentric,4,3.0,20580.0,144118.0,232290.0,282484.0,265616.0
2026-04-08 21:51:26.611275,259487,1609504258821312,1858788077,0.860832,0.093696,-0.111264,6.755,6.16875,-16.1875,-25.168001,15.536001,7.936,concentric,4,3.0,20580.0,144118.0,232290.0,282484.0,265616.0
2026-04-08 21:51:26.614805,259488,1609504258830218,1858796724,0.860832,0.093696,-0.111264,4.15625,8.02375,-15.95125,-25.168001,15.536001,7.936,concentric,4,3.0,20580.0,144118.0,232290.0,282484.0,265616.0
2026-04-08 21:51:26.644157,259499,1609504258844885,1858811654,0.895968,0.095648,-0.081984,5.9675,9.345,-16.3275,-25.072,15.6,7.512001,concentric,4,3.0,20688.0,144345.0,232333.0,282433.0,265549.0
2026-04-08 21:51:26.645916,259500,1609504258853866,1858820355,0.91744,0.169824,-0.070272,12.22375,10.6225,-16.0125,-25.072,15.192,10.744,concentric,4,3.0,20688.0,144345.0,232333.0,282433.0,265549.0
2026-04-08 21:51:26.648274,259501,1609504258868571,1858835321,0.91744,0.169824,-0.070272,16.63375,11.2175,-14.4375,-25.6,15.192,10.744,concentric,4,3.0,20688.0,144345.0,232333.0,282433.0,265549.0
2026-04-08 21:51:26.649879,259502,1609504258877516,1858843999,0.929152,0.1464,-0.189344,16.8525,10.5875,-13.658751,-25.944002,15.464001,9.136001,concentric,4,3.0,20688.0,144345.0,232333.0,282433.0,265549.0
2026-04-08 21:51:26.657710,259503,1609504258886492,1858852720,0.929152,0.1464,-0.189344,16.21375,10.5,-12.76625,-25.944002,15.464001,9.136001,concentric,4,3.0,20688.0,144345.0,232333.0,282433.0,265549.0
2026-04-08 21:51:26.686347,259504,1609504258900979,1858867585,0.981856,0.091744,-0.064416,8.95125,10.57875,-11.13,-25.536001,15.512001,9.936001,concentric,4,3.0,20688.0,144345.0,232333.0,282433.0,265549.0
2026-04-08 21:51:26.690790,259505,1609504258909915,1858876278,0.981856,0.091744,-0.064416,-4.69,9.31875,-8.61,-25.536001,15.512001,9.936001,concentric,4,3.0,20688.0,144345.0,232333.0,282433.0,265549.0
2026-04-08 21:51:26.693632,259506,1609504258924374,1858891159,0.950624,0.035136,-0.197152,-8.198751,8.225,-7.91,-25.744001,15.312,8.568001,concentric,4,3.0,20688.0,144345.0,232333.0,282433.0,265549.0
2026-04-08 21:51:26.723830,259507,1609504258933287,1858899822,0.950624,0.035136,-0.197152,-0.72625,8.89875,-9.45,-25.744001,15.312,8.568001,concentric,4,3.0,20688.0,144345.0,232333.0,282433.0,265549.0
2026-04-08 21:51:26.758573,259518,1609504258947825,1858914685,0.856928,0.074176,-0.015616,9.96625,7.9975,-10.33375,-25.976002,15.360001,8.304001,concentric,4,3.0,20675.0,144295.0,232295.0,282431.0,265566.0
2026-04-08 21:51:26.761046,259519,1609504258956853,1858923348,0.950624,0.10736,-0.056608,17.928751,6.85125,-11.1475,-25.672,15.224001,8.416,concentric,4,3.0,20675.0,144295.0,232295.0,282431.0,265566.0
2026-04-08 21:51:26.763494,259520,1609504258965792,1858932030,0.950624,0.10736,-0.056608,20.57125,6.23,-11.54125,-25.672,15.224001,8.416,concentric,4,3.0,20675.0,144295.0,232295.0,282431.0,265566.0
2026-04-08 21:51:26.766133,259521,1609504258980294,1858946951,1.026752,0.091744,-0.187392,19.6875,5.2675,-12.08375,-26.160002,14.576001,8.792001,concentric,4,3.0,20675.0,144295.0,232295.0,282431.0,265566.0
2026-04-08 21:51:26.800011,259522,1609504258989221,1858955690,1.026752,0.091744,-0.187392,15.49625,5.01375,-12.3725,-26.160002,14.576001,8.792001,concentric,4,3.0,20675.0,144295.0,232295.0,282431.0,265566.0
2026-04-08 21:51:26.803556,259523,1609504259003694,1858970572,0.974048,0.06832,-0.236192,6.3525,5.7225,-11.6025,-26.072,14.880001,10.304001,concentric,4,3.0,20675.0,144295.0,232295.0,282431.0,265566.0
2026-04-08 21:51:26.806077,259524,1609504259012619,1858979258,0.974048,0.06832,-0.236192,-0.84,6.78125,-10.57875,-26.072,14.880001,10.304001,concentric,4,3.0,20675.0,144295.0,232295.0,282431.0,265566.0
2026-04-08 21:51:26.808527,259525,1609504259027111,1858994138,0.88816,0.095648,-0.052704,-2.8175,7.5075,-9.45875,-26.144001,14.856001,9.408,concentric,4,3.0,20675.0,144295.0,232295.0,282431.0,265566.0
2026-04-08 21:51:26.835946,259536,1609504259036208,1859002868,0.870592,0.103456,-0.300608,-3.38625,8.09375,-8.47875,-26.144001,14.408001,7.408001,concentric,4,3.0,20727.0,144379.0,232287.0,282331.0,265475.0
2026-04-08 21:51:26.838532,259537,1609504259045228,1859011578,0.870592,0.103456,-0.300608,0.58625,7.67375,-8.4,-26.144001,14.408001,7.408001,concentric,4,3.0,20727.0,144379.0,232287.0,282331.0,265475.0
2026-04-08 21:51:26.841018,259538,1609504259059807,1859026463,0.960384,0.121024,-0.142496,4.01625,7.8225,-8.68,-26.960001,14.616001,9.848001,concentric,4,3.0,20727.0,144379.0,232287.0,282331.0,265475.0
2026-04-08 21:51:26.843506,259539,1609504259068755,1859035149,0.960384,0.121024,-0.142496,-1.54,7.79625,-7.2975,-26.960001,14.616001,9.848001,concentric,4,3.0,20727.0,144379.0,232287.0,282331.0,265475.0
2026-04-08 21:51:26.873904,259540,1609504259083319,1859050120,0.93696,0.0976,-0.318176,-6.92125,7.8575,-4.9875,-26.552002,14.448001,9.808001,concentric,4,3.0,20727.0,144379.0,232287.0,282331.0,265475.0
2026-04-08 21:51:26.877376,259541,1609504259092213,1859058768,0.93696,0.0976,-0.318176,-6.32625,9.10875,-3.96375,-26.552002,14.448001,9.808001,concentric,4,3.0,20727.0,144379.0,232287.0,282331.0,265475.0
2026-04-08 21:51:26.879835,259542,1609504259101125,1859067443,1.032608,0.074176,-0.203008,-5.285,10.167501,-3.01875,-26.552002,14.408001,9.104,concentric,4,3.0,20727.0,144379.0,232287.0,282331.0,265475.0
2026-04-08 21:51:26.884912,259543,1609504259115672,1859082354,1.036512,0.089792,-0.267424,-3.24625,10.2725,-2.835,-26.784,14.696001,12.76,concentric,4,3.0,20727.0,144379.0,232287.0,282331.0,265475.0
2026-04-08 21:51:26.914977,259544,1609504259124591,1859091033,1.036512,0.089792,-0.267424,-2.35375,9.91375,-2.87,-26.784,14.696001,12.76,concentric,4,3.0,20727.0,144379.0,232287.0,282331.0,265475.0
2026-04-08 21:51:26.946030,259555,1609504259139684,1859105980,1.036512,0.124928,-0.031232,-2.24,8.86375,-3.6575,-26.736002,14.608001,9.232,concentric,4,3.0,20736.0,144354.0,232213.0,282215.0,265387.0
2026-04-08 21:51:26.948518,259556,1609504259148650,1859114620,1.036512,0.124928,-0.031232,-1.42625,9.02125,-4.13875,-26.736002,14.608001,9.232,concentric,4,3.0,20736.0,144354.0,232213.0,282215.0,265387.0
2026-04-08 21:51:26.951053,259557,1609504259163253,1859129542,1.003328,0.111264,-0.28304,-0.56,9.23125,-3.50875,-26.6,14.672001,9.264001,concentric,4,3.0,20736.0,144354.0,232213.0,282215.0,265387.0
2026-04-08 21:51:26.953517,259558,1609504259172307,1859138249,1.003328,0.111264,-0.28304,1.60125,9.58125,-2.5025,-26.6,14.672001,9.264001,concentric,4,3.0,20736.0,144354.0,232213.0,282215.0,265387.0
2026-04-08 21:51:26.956088,259559,1609504259181204,1859146923,0.99552,0.121024,-0.277184,5.64375,9.6775,-1.75,-26.584002,14.696001,9.584001,concentric,4,3.0,20736.0,144354.0,232213.0,282215.0,265387.0
2026-04-08 21:51:26.997515,259560,1609504259195706,1859161775,1.089216,0.111264,-0.160064,5.62625,9.45875,-1.86375,-26.584002,14.696001,10.024,concentric,4,3.0,20736.0,144354.0,232213.0,282215.0,265387.0
2026-04-08 21:51:27.001052,259561,1609504259204620,1859170585,1.079456,0.111264,-0.160064,3.8325,8.86375,-1.74125,-26.760002,14.592001,10.024,concentric,4,3.0,20736.0,144354.0,232213.0,282215.0,265387.0
2026-04-08 21:51:27.003545,259562,1609504259219081,1859185438,1.056032,0.105408,-0.13664,2.59875,8.61,-1.3475,-26.480001,14.472001,9.888001,concentric,4,3.0,20736.0,144354.0,232213.0,282215.0,265387.0
2026-04-08 21:51:27.006027,259563,1609504259228018,1859194092,1.056032,0.105408,-0.13664,2.44125,8.75,-0.93625,-26.480001,14.472001,9.888001,concentric,4,3.0,20736.0,144354.0,232213.0,282215.0,265387.0
2026-04-08 21:51:27.037316,259574,1609504259237285,1859202774,1.071648,0.099552,-0.062464,2.485,8.575,-0.84,-26.512001,14.688001,9.384001,concentric,4,3.0,20729.0,144379.0,232274.0,282331.0,265475.0
2026-04-08 21:51:27.039811,259575,1609504259252298,1859217733,1.071648,0.099552,-0.062464,3.675,8.14625,-1.28625,-26.512001,14.688001,9.384001,concentric,4,3.0,20729.0,144379.0,232274.0,282331.0,265475.0
2026-04-08 21:51:27.042294,259576,1609504259261403,1859228545,1.013088,0.154208,-0.05856,0.83125,7.6475,-1.47875,-26.560001,14.712001,10.120001,concentric,4,3.0,20729.0,144379.0,232274.0,282331.0,265475.0
2026-04-08 21:51:27.044924,259577,1609504259275915,1859241416,1.013088,0.154208,-0.189344,-0.58625,7.0,-2.98375,-26.560001,14.712001,10.120001,concentric,4,3.0,20729.0,144379.0,232274.0,282331.0,265475.0
2026-04-08 21:51:27.098740,259578,1609504259285240,1859252148,1.0248,0.060512,-0.189344,1.96,7.69125,-4.71625,-26.552002,14.608001,13.648001,concentric,4,3.0,20729.0,144379.0,232274.0,282331.0,265475.0
2026-04-08 21:51:27.102361,259579,1609504259294187,1859260817,1.0248,0.060512,-0.189344,1.3475,7.7,-5.46,-26.552002,14.608001,13.648001,concentric,4,3.0,20729.0,144379.0,232274.0,282331.0,265475.0
2026-04-08 21:51:27.104808,259580,1609504259308660,1859275709,0.970144,0.13664,-0.13664,1.16375,7.32375,-5.80125,-26.52,14.408001,10.52,concentric,4,3.0,20729.0,144379.0,232274.0,282331.0,265475.0
2026-04-08 21:51:27.107295,259581,1609504259317574,1859284406,0.989664,0.163968,-0.230336,3.4825,7.805,-7.315,-26.472002,13.936001,10.432,concentric,4,3.0,20729.0,144379.0,232274.0,282331.0,265475.0
2026-04-08 21:51:27.109821,259582,1609504259332060,1859297219,0.989664,0.163968,-0.230336,5.46875,9.0125,-8.417501,-26.472002,13.936001,10.432,concentric,4,3.0,20729.0,144379.0,232274.0,282331.0,265475.0
2026-04-08 21:51:27.139838,259593,1609504259341356,1859308027,0.991616,0.208864,-0.142496,3.7625,9.19625,-6.69375,-26.224,14.056001,10.336,concentric,4,3.0,20867.0,144681.0,232453.0,282346.0,265451.0
2026-04-08 21:51:27.142373,259594,1609504259350359,1859316796,0.991616,0.208864,-0.142496,1.2075,9.35375,-5.6525,-26.224,14.056001,10.336,concentric,4,3.0,20867.0,144681.0,232453.0,282346.0,265451.0
2026-04-08 21:51:27.145037,259595,1609504259364854,1859331650,1.08336,0.111264,-0.222528,-2.54625,8.98625,-4.05125,-26.192001,14.032001,10.552,concentric,4,3.0,20867.0,144681.0,232453.0,282346.0,265451.0
2026-04-08 21:51:27.149054,259596,1609504259373771,1859340370,1.08336,0.111264,-0.222528,-5.78375,7.98,-1.53125,-26.192001,14.032001,10.552,concentric,4,3.0,20867.0,144681.0,232453.0,282346.0,265451.0
2026-04-08 21:51:27.177616,259597,1609504259388350,1859355267,1.167296,0.091744,-0.134688,-3.68375,7.32375,-0.245,-26.352001,14.048,10.464001,eccentric,4,3.0,20867.0,144681.0,232453.0,282346.0,265451.0
2026-04-08 21:51:27.181069,259598,1609504259397292,1859363939,1.081408,0.189344,-0.232288,0.11375,7.83125,0.595,-26.352001,14.168,12.432,eccentric,4,3.0,20867.0,144681.0,232453.0,282346.0,265451.0
2026-04-08 21:51:27.183536,259599,1609504259411774,1859378782,1.081408,0.189344,-0.232288,4.71625,7.91875,1.91625,-26.2,14.168,12.432,eccentric,4,3.0,20867.0,144681.0,232453.0,282346.0,265451.0
2026-04-08 21:51:27.189855,259600,1609504259420758,1859387518,1.071648,0.183488,-0.222528,5.915,7.98,4.06,-26.320002,14.200001,12.696001,eccentric,4,3.0,20867.0,144681.0,232453.0,282346.0,265451.0
2026-04-08 21:51:27.220047,259601,1609504259429673,1859396201,1.071648,0.183488,-0.222528,0.44625,7.62125,5.46,-26.320002,14.200001,12.696001,eccentric,4,3.0,20867.0,144681.0,232453.0,282346.0,265451.0
2026-04-08 21:51:27.257325,259612,1609504259444234,1859411167,1.079456,0.111264,-0.191296,-2.4325,6.55375,6.125,-26.192001,14.408001,11.064,eccentric,4,3.0,20916.0,144601.0,232176.0,282009.0,265188.0
2026-04-08 21:51:27.259870,259613,1609504259453141,1859419810,1.079456,0.111264,-0.191296,-3.47375,5.27625,6.755,-26.192001,14.408001,11.064,eccentric,4,3.0,20916.0,144601.0,232176.0,282009.0,265188.0
2026-04-08 21:51:27.262385,259614,1609504259467647,1859434666,1.159488,0.103456,-0.173728,-0.6825,4.935,7.4025,-26.008001,14.608001,10.896001,eccentric,4,3.0,20916.0,144601.0,232176.0,282009.0,265188.0
2026-04-08 21:51:27.268518,259615,1609504259476588,1859443395,1.159488,0.103456,-0.173728,6.4575,5.775,6.79,-26.008001,14.608001,10.896001,eccentric,4,3.0,20916.0,144601.0,232176.0,282009.0,265188.0
2026-04-08 21:51:27.271064,259616,1609504259491154,1859458306,1.177056,0.150304,-0.121024,9.5725,6.04625,6.72,-25.68,14.696001,10.464001,eccentric,4,3.0,20916.0,144601.0,232176.0,282009.0,265188.0
2026-04-08 21:51:27.273532,259617,1609504259500071,1859466990,1.134112,0.142496,-0.23424,7.385,6.09875,7.35,-25.488,14.432001,12.392,eccentric,4,3.0,20916.0,144601.0,232176.0,282009.0,265188.0
2026-04-08 21:51:27.278562,259618,1609504259509072,1859475660,1.134112,0.142496,-0.23424,2.45,5.705,7.8575,-25.488,14.432001,12.392,eccentric,4,3.0,20916.0,144601.0,232176.0,282009.0,265188.0
2026-04-08 21:51:27.309159,259619,1609504259523574,1859490549,1.15168,0.0976,-0.076128,-4.0425,4.8825,8.60125,-25.416,14.376,11.152,eccentric,4,3.0,20916.0,144601.0,232176.0,282009.0,265188.0
2026-04-08 21:51:27.312645,259620,1609504259532462,1859499209,1.15168,0.0976,-0.076128,-7.2625,4.29625,9.4675,-25.416,14.376,11.152,eccentric,4,3.0,20916.0,144601.0,232176.0,282009.0,265188.0
2026-04-08 21:51:27.339818,259631,1609504259547316,1859514340,1.095072,0.111264,0.027328,-4.62,3.7275,9.8525,-25.168001,14.696001,11.088,eccentric,4,3.0,20920.0,144559.0,232059.0,281947.0,265128.0
2026-04-08 21:51:27.342334,259632,1609504259556315,1859523070,1.095072,0.111264,0.027328,1.00625,3.38625,10.2375,-25.168001,14.696001,11.088,eccentric,4,3.0,20920.0,144559.0,232059.0,281947.0,265128.0
2026-04-08 21:51:27.344771,259633,1609504259565360,1859531750,1.08336,0.121024,-0.27328,3.59625,3.07125,9.77375,-25.240002,14.960001,12.272,eccentric,4,3.0,20920.0,144559.0,232059.0,281947.0,265128.0
2026-04-08 21:51:27.348646,259634,1609504259579886,1859546670,1.048224,0.17568,-0.0488,3.80625,2.86125,9.905,-24.672,14.944,12.920001,eccentric,4,3.0,20920.0,144559.0,232059.0,281947.0,265128.0
2026-04-08 21:51:27.398763,259635,1609504259588921,1859555357,1.048224,0.17568,-0.0488,3.115,3.5175,9.54625,-24.672,14.944,12.920001,eccentric,4,3.0,20920.0,144559.0,232059.0,281947.0,265128.0
2026-04-08 21:51:27.402296,259636,1609504259603433,1859570228,1.097024,0.08784,-0.03904,-1.12,3.5525,10.01,-24.656002,14.984001,11.312,eccentric,4,3.0,20920.0,144559.0,232059.0,281947.0,265128.0
2026-04-08 21:51:27.404841,259637,1609504259612357,1859578879,1.097024,0.08784,-0.03904,-8.54875,3.64875,10.45625,-24.656002,14.984001,11.312,eccentric,4,3.0,20920.0,144559.0,232059.0,281947.0,265128.0
2026-04-08 21:51:27.407287,259638,1609504259626914,1859593710,1.009184,0.101504,-0.144448,-12.74875,2.59,10.43875,-24.408,15.112,11.472,eccentric,4,3.0,20920.0,144559.0,232059.0,281947.0,265128.0
2026-04-08 21:51:27.409802,259639,1609504259635829,1859602440,1.009184,0.101504,-0.144448,-10.7975,2.905,9.5375,-24.408,15.112,11.472,eccentric,4,3.0,20920.0,144559.0,232059.0,281947.0,265128.0
2026-04-08 21:51:27.437250,259650,1609504259644867,1859611173,1.030656,0.095648,-0.187392,-6.4225,2.6425,8.58375,-24.376001,15.144001,12.352,eccentric,4,3.0,20985.0,144858.0,232336.0,282153.0,265258.0
2026-04-08 21:51:27.439757,259651,1609504259659494,1859626062,1.001376,0.05856,-0.1952,-0.95375,2.4325,6.81625,-24.232,15.344001,12.696001,eccentric,4,3.0,20985.0,144858.0,232336.0,282153.0,265258.0
2026-04-08 21:51:27.442298,259652,1609504259668517,1859634847,1.001376,0.05856,-0.1952,-3.535,1.5925,5.8275,-24.232,15.344001,12.696001,eccentric,4,3.0,20985.0,144858.0,232336.0,282153.0,265258.0
2026-04-08 21:51:27.472693,259653,1609504259683034,1859649768,1.0248,0.074176,0.02928,-12.1975,-0.02625,5.10125,-23.776001,15.472001,12.408001,eccentric,4,3.0,20985.0,144858.0,232336.0,282153.0,265258.0
2026-04-08 21:51:27.476047,259654,1609504259691933,1859658437,1.0248,0.074176,0.02928,-12.48625,-0.20125,4.10375,-23.776001,15.472001,12.408001,eccentric,4,3.0,20985.0,144858.0,232336.0,282153.0,265258.0
2026-04-08 21:51:27.478595,259655,1609504259706454,1859673281,0.952576,0.070272,-0.173728,-8.67125,0.28875,4.0425,-23.592001,15.352001,10.296001,eccentric,4,3.0,20985.0,144858.0,232336.0,282153.0,265258.0
2026-04-08 21:51:27.508822,259656,1609504259715426,1859681976,0.952576,0.070272,-0.173728,-6.36125,0.77,5.31125,-23.592001,15.352001,10.296001,eccentric,4,3.0,20985.0,144858.0,232336.0,282153.0,265258.0
2026-04-08 21:51:27.512335,259657,1609504259724336,1859690646,0.976,0.109312,-0.011712,-2.94875,0.65625,5.74875,-23.544,15.496,11.472,eccentric,4,3.0,20985.0,144858.0,232336.0,282153.0,265258.0
2026-04-08 21:51:27.539882,259668,1609504259738802,1859705455,0.976,0.109312,-0.00976,-2.6425,0.98875,5.0575,-23.544,15.496,11.472,eccentric,4,3.0,20998.0,144919.0,232431.0,282285.0,265355.0
2026-04-08 21:51:27.547649,259669,1609504259747820,1859714148,0.954528,0.091744,-0.00976,-7.97125,0.77875,4.2525,-23.216002,15.392001,12.472,eccentric,4,3.0,20998.0,144919.0,232431.0,282285.0,265355.0
2026-04-08 21:51:27.549540,259670,1609504259762346,1859729102,0.847168,0.06832,-0.169824,-13.39625,0.5775,5.7575,-22.904001,15.504001,11.104,eccentric,4,3.0,20998.0,144919.0,232431.0,282285.0,265355.0
2026-04-08 21:51:27.551408,259671,1609504259771325,1859737818,0.847168,0.06832,-0.169824,-15.4,1.81125,7.83125,-22.904001,15.504001,11.104,eccentric,4,3.0,20998.0,144919.0,232431.0,282285.0,265355.0
2026-04-08 21:51:27.554723,259672,1609504259785804,1859752717,0.735904,0.076128,-0.080032,-11.61125,1.6275,8.54875,-22.616001,15.312,11.440001,eccentric,4,3.0,20998.0,144919.0,232431.0,282285.0,265355.0
2026-04-08 21:51:27.585078,259673,1609504259794711,1859761385,0.735904,0.076128,-0.080032,-6.615,1.88125,8.95125,-22.616001,15.312,11.440001,eccentric,4,3.0,20998.0,144919.0,232431.0,282285.0,265355.0
2026-04-08 21:51:27.588570,259674,1609504259803634,1859770098,0.825696,0.06832,0.031232,-7.035,0.4375,9.205,-22.6,15.688001,12.400001,eccentric,4,3.0,20998.0,144919.0,232431.0,282285.0,265355.0
2026-04-08 21:51:27.591044,259675,1609504259818105,1859784955,0.825696,0.06832,0.031232,-6.4225,-0.49,7.595,-22.6,15.688001,12.400001,eccentric,4,3.0,20998.0,144919.0,232431.0,282285.0,265355.0
2026-04-08 21:51:27.597355,259676,1609504259827028,1859793621,0.825696,0.01952,-0.191296,-8.39125,-1.40875,5.18875,-22.44,16.024,11.304001,eccentric,4,3.0,20998.0,144919.0,232431.0,282285.0,265355.0
2026-04-08 21:51:27.653524,259687,1609504259841570,1859808555,0.778848,0.03904,-0.189344,-14.42875,-1.82,3.12375,-22.28,16.136002,10.912001,eccentric,4,3.0,21027.0,145146.0,232781.0,282559.0,265530.0
2026-04-08 21:51:27.656049,259688,1609504259850535,1859817218,0.778848,0.03904,-0.189344,-14.69125,-0.97125,1.70625,-22.28,16.136002,10.912001,eccentric,4,3.0,21027.0,145146.0,232781.0,282559.0,265530.0
2026-04-08 21:51:27.658518,259689,1609504259865009,1859832081,0.77104,0.080032,0.06832,-10.0625,-0.42,0.7525,-22.112001,15.896001,10.704,eccentric,4,3.0,21027.0,145146.0,232781.0,282559.0,265530.0
2026-04-08 21:51:27.661133,259690,1609504259873911,1859840816,0.77104,0.080032,0.06832,-5.9675,-0.455,-0.13125,-22.112001,15.896001,10.704,eccentric,4,3.0,21027.0,145146.0,232781.0,282559.0,265530.0
2026-04-08 21:51:27.663536,259691,1609504259882890,1859849535,0.769088,0.085888,0.08784,-6.88625,-1.3125,-0.53375,-22.096,15.704,12.072001,eccentric,4,3.0,21027.0,145146.0,232781.0,282559.0,265530.0
2026-04-08 21:51:27.666073,259692,1609504259897398,1859864510,0.769088,0.085888,0.08784,-11.5675,-2.7125,-0.63875,-22.096,15.704,12.072001,eccentric,4,3.0,21027.0,145146.0,232781.0,282559.0,265530.0
2026-04-08 21:51:27.701263,259693,1609504259906378,1859873216,0.743712,0.070272,-0.163968,-13.09,-2.37125,-0.13125,-22.312,15.968,12.144001,eccentric,4,3.0,21027.0,145146.0,232781.0,282559.0,265530.0
2026-04-08 21:51:27.704842,259694,1609504259920852,1859886012,0.83936,0.040992,-0.091744,-10.4475,-2.21375,0.245,-21.928001,16.008001,11.512,eccentric,4,3.0,21027.0,145146.0,232781.0,282559.0,265530.0
2026-04-08 21:51:27.708113,259695,1609504259929991,1859896718,0.83936,0.040992,-0.091744,-10.07125,-1.4175,1.1725,-21.928001,16.008001,11.512,eccentric,4,3.0,21027.0,145146.0,232781.0,282559.0,265530.0
2026-04-08 21:51:27.710059,259696,1609504259938936,1859905426,0.83936,0.040992,-0.091744,-12.39875,-1.47,2.38875,-21.928001,16.008001,11.512,eccentric,4,3.0,21027.0,145146.0,232781.0,282559.0,265530.0
2026-04-08 21:51:27.737328,259707,1609504259953533,1859920392,0.83936,0.060512,0.02928,-11.87375,-1.53125,3.4475,-21.648,16.16,14.032001,eccentric,4,3.0,21305.0,145808.0,233100.0,282702.0,265541.0
2026-04-08 21:51:27.739859,259708,1609504259962458,1859929114,0.735904,0.064416,-0.121024,-9.82625,-1.3825,4.52375,-22.048,16.464,10.776001,eccentric,4,3.0,21305.0,145808.0,233100.0,282702.0,265541.0
2026-04-08 21:51:27.770048,259709,1609504259977074,1859944038,0.735904,0.064416,-0.121024,-9.275,-1.54,3.4475,-22.048,16.464,10.776001,eccentric,4,3.0,21305.0,145808.0,233100.0,282702.0,265541.0
2026-04-08 21:51:27.773806,259710,1609504259985994,1859952725,0.745664,0.066368,-0.113216,-10.85,-2.16125,2.16125,-21.704,16.264,11.960001,eccentric,4,3.0,21305.0,145808.0,233100.0,282702.0,265541.0
2026-04-08 21:51:27.776285,259711,1609504260000464,1859967616,0.745664,0.066368,-0.152256,-12.1625,-2.87875,3.36,-21.704,16.264,11.960001,eccentric,4,3.0,21305.0,145808.0,233100.0,282702.0,265541.0
2026-04-08 21:51:27.779405,259712,1609504260009384,1859976280,0.757376,0.054656,-0.152256,-9.73875,-2.7125,4.7425,-21.456001,16.344,8.752001,eccentric,4,3.0,21305.0,145808.0,233100.0,282702.0,265541.0
2026-04-08 21:51:27.809731,259713,1609504260018342,1859984989,0.757376,0.054656,-0.152256,-7.37625,-1.67125,5.1975,-21.456001,16.344,8.752001,eccentric,4,3.0,21305.0,145808.0,233100.0,282702.0,265541.0
2026-04-08 21:51:27.814550,259714,1609504260032822,1859999872,0.870592,-0.005856,-0.035136,-6.5625,-2.065,5.85375,-21.488,16.328001,11.040001,eccentric,4,3.0,21305.0,145808.0,233100.0,282702.0,265541.0
2026-04-08 21:51:27.851706,259726,1609504260041754,1860008884,0.802272,0.031232,-0.056608,-9.8875,-2.58125,5.36375,-21.080002,16.736,10.76,eccentric,4,3.0,21417.0,146040.0,233245.0,282719.0,265571.0
2026-04-08 21:51:27.853332,259727,1609504260056262,1860021729,0.802272,0.031232,-0.056608,-16.12625,-3.115,1.12875,-21.080002,16.736,10.76,eccentric,4,3.0,21417.0,146040.0,233245.0,282719.0,265571.0
2026-04-08 21:51:27.854877,259728,1609504260065506,1860032531,0.76128,0.021472,-0.167872,-14.6475,-3.07125,-5.53,-20.896002,16.696001,10.56,eccentric,4,3.0,21417.0,146040.0,233245.0,282719.0,265571.0
2026-04-08 21:51:27.859175,259729,1609504260080002,1860045375,0.76128,0.021472,-0.167872,-8.3475,-2.0825,-7.20125,-20.896002,16.696001,10.56,eccentric,4,3.0,21417.0,146040.0,233245.0,282719.0,265571.0
2026-04-08 21:51:27.861499,259730,1609504260089495,1860056138,0.749568,0.062464,-0.197152,-2.84375,-1.46125,-4.095,-21.232,16.816,11.000001,eccentric,4,3.0,21417.0,146040.0,233245.0,282719.0,265571.0
2026-04-08 21:51:27.890020,259731,1609504260098499,1860064847,0.749568,0.062464,-0.197152,-0.58625,-1.75,-1.86375,-21.232,16.816,11.000001,eccentric,4,3.0,21417.0,146040.0,233245.0,282719.0,265571.0
2026-04-08 21:51:27.894510,259732,1609504260112963,1860079695,0.815936,0.03904,-0.132736,-2.695,-2.5025,-1.19875,-21.2,16.52,11.424001,eccentric,4,3.0,21417.0,146040.0,233245.0,282719.0,265571.0
2026-04-08 21:51:27.896127,259733,1609504260121863,1860088362,0.767136,0.054656,-0.15616,-5.99375,-2.2925,-0.0175,-21.2,17.056002,8.568001,eccentric,4,3.0,21417.0,146040.0,233245.0,282719.0,265571.0
2026-04-08 21:51:27.927129,259734,1609504260136377,1860103253,0.767136,0.054656,-0.15616,-9.6775,-2.2925,1.2775,-21.224,17.056002,8.568001,eccentric,4,3.0,21417.0,146040.0,233245.0,282719.0,265571.0
2026-04-08 21:51:27.955836,259745,1609504260145708,1860111994,0.759328,0.060512,-0.0976,-10.5175,-2.63375,1.4525,-21.216002,16.784,10.472,eccentric,4,3.0,21374.0,145959.0,233231.0,282789.0,265664.0
2026-04-08 21:51:27.957356,259746,1609504260154630,1860120665,0.759328,0.060512,-0.0976,-8.6625,-2.51125,1.7675,-21.216002,16.784,10.472,eccentric,4,3.0,21374.0,145959.0,233231.0,282789.0,265664.0
2026-04-08 21:51:27.961644,259747,1609504260169086,1860135575,0.735904,0.02928,-0.056608,-6.755,-2.2575,1.79375,-21.136002,16.952002,10.176001,eccentric,4,3.0,21374.0,145959.0,233231.0,282789.0,265664.0
2026-04-08 21:51:27.963286,259748,1609504260178071,1860144248,0.735904,0.02928,-0.056608,-6.37,-2.73875,1.05875,-21.136002,16.952002,10.176001,eccentric,4,3.0,21374.0,145959.0,233231.0,282789.0,265664.0
2026-04-08 21:51:27.964824,259749,1609504260192524,1860159195,0.730048,0.01952,0.031232,-8.05,-2.9575,0.79625,-20.84,16.688002,10.352,eccentric,4,3.0,21374.0,145959.0,233231.0,282789.0,265664.0
2026-04-08 21:51:27.999648,259750,1609504260201464,1860167922,0.730048,0.01952,0.031232,-6.81625,-3.38625,0.49875,-20.84,16.688002,10.352,eccentric,4,3.0,21374.0,145959.0,233231.0,282789.0,265664.0
2026-04-08 21:51:28.001921,259751,1609504260215959,1860182801,0.743712,0.025376,-0.122976,-1.09375,-3.745,-0.28875,-21.184002,16.752,7.736001,eccentric,4,3.0,21374.0,145959.0,233231.0,282789.0,265664.0
2026-04-08 21:51:28.006566,259752,1609504260224872,1860191456,0.86864,0.056608,0.023424,5.22375,-3.78,0.44625,-20.792002,16.688002,10.320001,eccentric,4,3.0,21374.0,145959.0,233231.0,282789.0,265664.0
2026-04-08 21:51:28.008371,259753,1609504260233792,1860200152,0.86864,0.056608,0.023424,9.7825,-3.115,0.8575,-20.792002,16.688002,10.320001,eccentric,4,3.0,21374.0,145959.0,233231.0,282789.0,265664.0
2026-04-08 21:51:28.042810,259764,1609504260248508,1860215079,0.767136,0.050752,0.101504,10.99875,-2.45875,-0.7175,-21.248001,16.328001,10.224001,eccentric,4,3.0,20863.0,144633.0,232420.0,282540.0,265668.0
2026-04-08 21:51:28.044570,259765,1609504260257551,1860223794,0.767136,0.050752,0.101504,6.8425,-1.89,-4.36625,-21.248001,16.328001,10.224001,eccentric,4,3.0,20863.0,144633.0,232420.0,282540.0,265668.0
2026-04-08 21:51:28.047054,259766,1609504260272194,1860238709,0.794464,0.011712,0.037088,2.31875,-2.93125,-4.375,-21.2,16.544,11.208,eccentric,4,3.0,20863.0,144633.0,232420.0,282540.0,265668.0
2026-04-08 21:51:28.048533,259767,1609504260281143,1860247398,0.794464,0.011712,0.037088,1.23375,-3.675,-2.835,-21.2,16.544,11.208,eccentric,4,3.0,20863.0,144633.0,232420.0,282540.0,265668.0
2026-04-08 21:51:28.082107,259768,1609504260290083,1860256061,0.845216,0.017568,-0.201056,0.69125,-4.34,-8.56625,-21.048,16.584002,11.408001,eccentric,4,3.0,20863.0,144633.0,232420.0,282540.0,265668.0
2026-04-08 21:51:28.087015,259769,1609504260304535,1860270910,0.90768,0.035136,0.007808,5.60875,-2.9925,-11.41,-21.336,16.392,10.008,eccentric,4,3.0,20863.0,144633.0,232420.0,282540.0,265668.0
2026-04-08 21:51:28.091938,259770,1609504260313453,1860279588,0.90768,0.035136,0.007808,15.8375,-1.09375,-4.76,-21.336,16.392,10.008,eccentric,4,3.0,20863.0,144633.0,232420.0,282540.0,265668.0
2026-04-08 21:51:28.098943,259771,1609504260327918,1860294489,0.794464,0.076128,0.025376,10.52625,-1.05875,-4.45375,-21.168001,16.304,11.824,eccentric,4,3.0,20863.0,144633.0,232420.0,282540.0,265668.0
2026-04-08 21:51:28.127546,259772,1609504260336869,1860303194,0.794464,0.076128,0.025376,4.96125,-1.05875,-4.87375,-21.168001,16.304,11.824,eccentric,4,3.0,20863.0,144633.0,232420.0,282540.0,265668.0
2026-04-08 21:51:28.157063,259783,1609504260351713,1860318101,0.83936,0.060512,-0.093696,2.79125,-1.9075,-2.68625,-21.168001,16.592001,10.76,eccentric,4,3.0,20616.0,144073.0,231999.0,282314.0,265576.0
2026-04-08 21:51:28.158575,259784,1609504260360657,1860326759,0.83936,0.060512,-0.093696,-1.0325,-3.1675,-3.07125,-21.168001,16.592001,10.76,eccentric,4,3.0,20616.0,144073.0,231999.0,282314.0,265576.0
2026-04-08 21:51:28.162848,259785,1609504260369607,1860335416,0.90768,0.064416,0.005856,-5.97625,-3.99,-6.2825,-21.2,16.272001,10.568001,eccentric,4,3.0,20616.0,144073.0,231999.0,282314.0,265576.0
2026-04-08 21:51:28.164594,259786,1609504260384155,1860350351,0.843264,0.035136,-0.11712,-7.65625,-4.45375,-9.31875,-21.328001,16.032001,10.792001,eccentric,4,3.0,20616.0,144073.0,231999.0,282314.0,265576.0
2026-04-08 21:51:28.166149,259787,1609504260393078,1860359118,0.843264,0.035136,-0.11712,-4.45375,-4.025,-8.9775,-21.328001,16.032001,10.792001,eccentric,4,3.0,20616.0,144073.0,231999.0,282314.0,265576.0
2026-04-08 21:51:28.196283,259788,1609504260407557,1860374065,0.9272,0.02928,0.011712,-0.91875,-3.6575,-6.72875,-21.432001,16.432001,10.240001,eccentric,4,3.0,20616.0,144073.0,231999.0,282314.0,265576.0
2026-04-08 21:51:28.199830,259789,1609504260416457,1860382718,0.9272,0.02928,0.011712,0.595,-3.71875,-6.195,-21.432001,16.432001,10.240001,eccentric,4,3.0,20616.0,144073.0,231999.0,282314.0,265576.0
2026-04-08 21:51:28.202330,259790,1609504260430920,1860397569,0.872544,0.046848,-0.228384,-0.2975,-4.8125,-6.64125,-21.424002,15.960001,12.072001,eccentric,4,3.0,20616.0,144073.0,231999.0,282314.0,265576.0
