pc_time,serial_num,sensor_ts,host_ts,ax,ay,az,gx,gy,gz,mx,my,mz,phase,rpe,weight_kg,ppg_a,ppg_b,ppg_c,ppg_d,ppg_e
2026-04-14 17:54:26.424492,608651,1609506760067148,4360036067,0.491904,-0.095648,-0.072224,-25.05125,45.24625,-39.43625,-22.352001,-23.992,-2.672,concentric,5,3.0,138735.0,346668.0,221146.0,327166.0,231046.0
2026-04-14 17:54:26.426562,608652,1609506760076202,4360044859,0.626592,-0.363072,-0.152256,-24.43,38.1675,-31.99875,-23.376001,-23.736002,-1.536,concentric,5,3.0,138735.0,346668.0,221146.0,327166.0,231046.0
2026-04-14 17:54:26.429016,608653,1609506760085490,4360055633,0.626592,-0.363072,-0.152256,-0.60375,27.965,-28.55125,-23.376001,-23.736002,-1.536,concentric,5,3.0,138735.0,346668.0,221146.0,327166.0,231046.0
2026-04-14 17:54:26.455045,608654,1609506760100033,4360068594,0.714432,-0.101504,0.025376,17.61375,15.35625,-26.25,-23.312,-24.016,-2.536,concentric,5,3.0,138735.0,346668.0,221146.0,327166.0,231046.0
2026-04-14 17:54:26.479237,608655,1609506760109434,4360079364,0.728096,0.064416,0.236192,11.50625,9.82625,-25.75125,-22.536001,-24.224,-2.608,concentric,5,3.0,138735.0,346668.0,221146.0,327166.0,231046.0
2026-04-14 17:54:26.484640,608656,1609506760124053,4360094286,0.728096,0.064416,0.236192,-14.7875,9.45,-22.225,-22.536001,-24.224,-2.608,concentric,5,3.0,138735.0,346668.0,221146.0,327166.0,231046.0
2026-04-14 17:54:26.487131,608657,1609506760133026,4360102958,0.833504,-0.163968,0.199104,-32.2,5.39875,-17.43875,-22.344002,-24.496,-1.88,concentric,5,3.0,138735.0,346668.0,221146.0,327166.0,231046.0
2026-04-14 17:54:26.489620,608658,1609506760142119,4360111691,0.833504,-0.163968,0.199104,-29.70625,4.5325,-14.455,-22.344002,-24.496,-1.88,concentric,5,3.0,138735.0,346668.0,221146.0,327166.0,231046.0
2026-04-14 17:54:26.497662,608659,1609506760156714,4360126779,0.8784,-0.27328,-0.080032,-15.5575,3.49125,-12.53,-22.048,-24.728,-1.64,concentric,5,3.0,138735.0,346668.0,221146.0,327166.0,231046.0
2026-04-14 17:54:26.525765,608670,1609506760166148,4360135513,0.8784,-0.27328,-0.080032,-6.08125,1.96875,-9.3975,-22.048,-24.728,-1.64,concentric,5,3.0,150722.0,347960.0,235460.0,328845.0,243567.0
2026-04-14 17:54:26.527854,608671,1609506760181037,4360150472,0.915488,-0.169824,0.181536,-7.88375,0.7,-5.95875,-22.456001,-24.36,-1.816,concentric,5,3.0,150722.0,347960.0,235460.0,328845.0,243567.0
2026-04-14 17:54:26.530821,608672,1609506760189978,4360159192,0.851072,-0.181536,0.115168,-14.49,-0.44625,0.88375,-22.224,-24.456001,-1.76,concentric,5,3.0,150722.0,347960.0,235460.0,328845.0,243567.0
2026-04-14 17:54:26.537078,608673,1609506760199052,4360167915,0.851072,-0.181536,0.115168,-20.44875,-2.345,7.6825,-22.224,-24.456001,-1.76,concentric,5,3.0,150722.0,347960.0,235460.0,328845.0,243567.0
2026-04-14 17:54:26.553391,608674,1609506760214106,4360182851,0.841312,-0.062464,0.013664,-16.52,-3.745,10.12375,-21.416,-24.704,-2.832,concentric,5,3.0,150722.0,347960.0,235460.0,328845.0,243567.0
2026-04-14 17:54:26.561685,608675,1609506760223595,4360193650,0.841312,-0.062464,0.013664,-9.8,-2.42375,5.31125,-21.416,-24.704,-2.832,concentric,5,3.0,150722.0,347960.0,235460.0,328845.0,243567.0
2026-04-14 17:54:26.572140,608676,1609506760232553,4360202373,0.905728,0.031232,0.228384,-5.38125,-1.2425,-1.0675,-21.352001,-24.288002,-1.832,concentric,5,3.0,150722.0,347960.0,235460.0,328845.0,243567.0
2026-04-14 17:54:26.585888,608677,1609506760247060,4360217283,0.905728,0.031232,0.228384,-8.7675,0.4375,-3.6925,-21.352001,-24.288002,-1.832,concentric,5,3.0,150722.0,347960.0,235460.0,328845.0,243567.0
2026-04-14 17:54:26.597383,608678,1609506760256009,4360225991,0.962336,-0.20496,0.0488,-7.2975,3.0625,-7.21,-22.184002,-24.248001,-2.288,concentric,5,3.0,150722.0,347960.0,235460.0,328845.0,243567.0
2026-04-14 17:54:26.627885,608689,1609506760270665,4360239319,1.003328,-0.257664,0.066368,2.2225,4.36625,-9.1175,-23.2,-24.288002,-0.128,concentric,5,3.0,147026.0,349451.0,231133.0,330071.0,239619.0
2026-04-14 17:54:26.630874,608690,1609506760279961,4360250132,1.003328,-0.257664,0.066368,3.43875,5.04875,-7.735,-23.2,-24.288002,-0.128,concentric,5,3.0,147026.0,349451.0,231133.0,330071.0,239619.0
2026-04-14 17:54:26.633363,608691,1609506760288897,4360258971,1.003328,-0.257664,0.066368,2.415,4.69875,-6.02875,-23.2,-24.288002,-0.128,concentric,5,3.0,147026.0,349451.0,231133.0,330071.0,239619.0
2026-04-14 17:54:26.663052,608692,1609506760303576,4360273866,0.952576,-0.080032,0.066368,3.94625,4.0075,-5.34625,-22.816002,-24.640001,-0.888,concentric,5,3.0,147026.0,349451.0,231133.0,330071.0,239619.0
2026-04-14 17:54:26.665882,608693,1609506760312548,4360282607,0.940864,-0.083936,0.017568,3.33375,4.61125,-6.30875,-21.224,-25.136002,-2.688,concentric,5,3.0,147026.0,349451.0,231133.0,330071.0,239619.0
2026-04-14 17:54:26.668405,608694,1609506760327021,4360295460,0.940864,-0.083936,0.017568,-0.02625,4.62,-6.44,-21.224,-25.136002,-2.688,concentric,5,3.0,147026.0,349451.0,231133.0,330071.0,239619.0
2026-04-14 17:54:26.674553,608695,1609506760336340,4360306236,0.8784,-0.138592,-0.06832,-1.1725,2.96625,-5.18,-22.400002,-24.616001,-1.48,concentric,5,3.0,147026.0,349451.0,231133.0,330071.0,239619.0
2026-04-14 17:54:26.685935,608696,1609506760345287,4360314922,0.8784,-0.138592,-0.06832,0.805,-1.19,-3.49125,-22.400002,-24.616001,-1.48,concentric,5,3.0,147026.0,349451.0,231133.0,330071.0,239619.0
2026-04-14 17:54:26.698252,608697,1609506760359852,4360329983,0.882304,-0.111264,0.189344,0.28,-4.48,-2.31,-21.928001,-24.664001,-1.92,concentric,5,3.0,147026.0,349451.0,231133.0,330071.0,239619.0
2026-04-14 17:54:26.725934,608708,1609506760369008,4360338766,0.882304,-0.111264,0.189344,1.2425,-4.7775,-1.47875,-21.928001,-24.664001,-1.92,concentric,5,3.0,143924.0,349860.0,227488.0,330637.0,236520.0
2026-04-14 17:54:26.727933,608709,1609506760383673,4360353727,0.876448,-0.089792,0.033184,3.535,-1.72375,-1.33875,-22.128,-24.432001,-5.2,concentric,5,3.0,143924.0,349860.0,227488.0,330637.0,236520.0
2026-04-14 17:54:26.730873,608710,1609506760392744,4360362441,0.90768,-0.109312,-0.007808,6.09875,0.3325,-2.09125,-21.256,-25.048,-2.8,concentric,5,3.0,143924.0,349860.0,227488.0,330637.0,236520.0
2026-04-14 17:54:26.745468,608711,1609506760407225,4360377358,0.90768,-0.109312,-0.007808,8.77625,1.3125,-3.01,-21.256,-25.048,-2.8,concentric,5,3.0,143924.0,349860.0,227488.0,330637.0,236520.0
2026-04-14 17:54:26.757142,608712,1609506760416168,4360386040,0.8784,-0.08784,-0.064416,8.7675,0.1225,-3.6925,-21.408,-24.76,-3.008,concentric,5,3.0,143924.0,349860.0,227488.0,330637.0,236520.0
2026-04-14 17:54:26.763119,608713,1609506760425119,4360394770,0.8784,-0.08784,-0.064416,5.32,-3.31625,-2.5725,-21.408,-24.76,-3.008,concentric,5,3.0,143924.0,349860.0,227488.0,330637.0,236520.0
2026-04-14 17:54:26.782250,608714,1609506760439628,4360409857,0.962336,-0.035136,0.177632,4.0075,-6.29125,-2.84375,-21.392,-25.240002,-3.232,concentric,5,3.0,143924.0,349860.0,227488.0,330637.0,236520.0
2026-04-14 17:54:26.790989,608715,1609506760448530,4360418600,0.962336,-0.035136,0.177632,5.97625,-7.02625,-4.61125,-21.392,-25.240002,-3.232,concentric,5,3.0,143924.0,349860.0,227488.0,330637.0,236520.0
2026-04-14 17:54:26.823377,608716,1609506760463187,4360433479,0.8784,-0.02928,0.242048,6.27375,-5.4775,-6.125,-21.888,-24.784,-2.064,concentric,5,3.0,143924.0,349860.0,227488.0,330637.0,236520.0
2026-04-14 17:54:26.906051,608727,1609506760472373,4360442298,0.870592,-0.105408,-0.080032,8.1375,-4.31375,-5.85375,-22.080002,-24.904001,-2.416,concentric,5,3.0,140353.0,349581.0,223219.0,330484.0,232628.0
2026-04-14 17:54:26.908367,608728,1609506760481363,4360451040,0.870592,-0.105408,-0.080032,8.995,-3.35125,-3.8675,-22.080002,-24.904001,-2.416,concentric,5,3.0,140353.0,349581.0,223219.0,330484.0,232628.0
2026-04-14 17:54:26.910416,608729,1609506760495881,4360465967,0.886208,-0.031232,0.1952,9.52,-3.92,-1.5575,-21.056002,-24.648,-3.616,concentric,5,3.0,140353.0,349581.0,223219.0,330484.0,232628.0
2026-04-14 17:54:26.913413,608730,1609506760504845,4360474648,0.886208,-0.031232,0.1952,13.51,-5.6,-0.28875,-21.056002,-24.648,-3.616,concentric,5,3.0,140353.0,349581.0,223219.0,330484.0,232628.0
2026-04-14 17:54:26.915886,608731,1609506760519355,4360489756,0.952576,-0.033184,0.173728,17.928751,-6.95625,0.07,-21.536001,-24.928001,-3.832,concentric,5,3.0,140353.0,349581.0,223219.0,330484.0,232628.0
2026-04-14 17:54:26.918390,608732,1609506760528271,4360498422,0.952576,-0.033184,0.173728,16.02125,-6.93875,1.81125,-21.536001,-24.928001,-3.832,concentric,5,3.0,140353.0,349581.0,223219.0,330484.0,232628.0
2026-04-14 17:54:26.920892,608733,1609506760542832,4360511294,0.895968,-0.06832,-0.007808,10.115,-7.11375,3.22875,-21.376001,-24.664001,-2.704,concentric,5,3.0,140353.0,349581.0,223219.0,330484.0,232628.0
2026-04-14 17:54:26.922864,608734,1609506760552316,4360522128,0.954528,-0.033184,0.074176,6.85125,-7.62125,2.21375,-22.272001,-24.392002,-2.664,concentric,5,3.0,140353.0,349581.0,223219.0,330484.0,232628.0
2026-04-14 17:54:26.925327,608735,1609506760561270,4360530834,0.954528,-0.033184,0.074176,6.755,-8.40875,0.81375,-22.272001,-24.392002,-2.664,concentric,5,3.0,140353.0,349581.0,223219.0,330484.0,232628.0
2026-04-14 17:54:26.965903,608746,1609506760575936,4360545851,0.976,-0.042944,0.017568,7.67375,-8.3475,-0.98875,-22.312,-24.560001,-2.736,concentric,5,3.0,134556.0,350115.0,216223.0,331004.0,226276.0
2026-04-14 17:54:26.968437,608747,1609506760585088,4360554589,0.976,-0.042944,0.017568,8.5575,-7.385,-2.82625,-22.312,-24.560001,-2.736,concentric,5,3.0,134556.0,350115.0,216223.0,331004.0,226276.0
2026-04-14 17:54:26.972520,608748,1609506760599665,4360569549,0.948672,-0.05856,0.152256,8.02375,-7.3325,-4.08625,-22.312,-24.744001,-3.056,concentric,5,3.0,134556.0,350115.0,216223.0,331004.0,226276.0
2026-04-14 17:54:26.972966,608749,1609506760608599,4360578263,0.948672,-0.05856,0.152256,8.8725,-6.85125,-5.92375,-22.312,-24.744001,-3.056,concentric,5,3.0,134556.0,350115.0,216223.0,331004.0,226276.0
2026-04-14 17:54:26.975255,608750,1609506760617516,4360586979,0.940864,-0.01952,0.193248,9.4325,-6.65875,-5.62625,-22.384,-24.76,-2.304,concentric,5,3.0,134556.0,350115.0,216223.0,331004.0,226276.0
2026-04-14 17:54:26.977936,608751,1609506760632060,4360601877,0.950624,-0.060512,0.142496,7.06125,-6.72,-4.1125,-22.384,-24.328001,-1.832,concentric,5,3.0,134556.0,350115.0,216223.0,331004.0,226276.0
2026-04-14 17:54:26.980219,608752,1609506760641026,4360610582,0.950624,-0.060512,0.142496,2.02125,-3.49125,-4.43625,-22.888,-24.328001,-1.832,concentric,5,3.0,134556.0,350115.0,216223.0,331004.0,226276.0
2026-04-14 17:54:26.998255,608753,1609506760655510,4360625464,0.938912,-0.046848,0.181536,-7.18375,-2.485,-4.5675,-22.456001,-24.968,-4.728,concentric,5,3.0,134556.0,350115.0,216223.0,331004.0,226276.0
2026-04-14 17:54:27.004533,608754,1609506760664666,4360634167,0.938912,-0.046848,0.181536,-6.2475,-2.73,-3.6225,-22.456001,-24.968,-4.728,concentric,5,3.0,134556.0,350115.0,216223.0,331004.0,226276.0
2026-04-14 17:54:27.031634,608765,1609506760673817,4360642958,0.911584,-0.093696,0.00976,-4.4975,-2.94,-2.7125,-21.232,-24.984001,-3.656,concentric,5,3.0,126905.0,349148.0,206809.0,330199.0,217443.0
2026-04-14 17:54:27.034639,608766,1609506760688355,4360657888,0.911584,-0.093696,0.00976,-7.5075,-4.52375,0.665,-21.232,-24.984001,-3.656,concentric,5,3.0,126905.0,349148.0,206809.0,330199.0,217443.0
2026-04-14 17:54:27.037140,608767,1609506760697286,4360666694,0.9272,-0.12688,0.003904,-9.9575,-7.00875,3.54375,-21.728,-24.664001,-4.2,concentric,5,3.0,126905.0,349148.0,206809.0,330199.0,217443.0
2026-04-14 17:54:27.050903,608768,1609506760711787,4360681597,0.9272,-0.12688,0.003904,-8.18125,-9.03875,5.66125,-21.728,-24.664001,-4.2,concentric,5,3.0,126905.0,349148.0,206809.0,330199.0,217443.0
2026-04-14 17:54:27.060436,608769,1609506760720894,4360690321,0.854976,-0.052704,0.003904,-6.29125,-8.3825,4.9175,-21.480001,-24.808,-3.472,concentric,5,3.0,126905.0,349148.0,206809.0,330199.0,217443.0
2026-04-14 17:54:27.074615,608770,1609506760735653,4360705295,0.862784,-0.144448,-0.089792,-7.07,-5.6,4.585,-22.168001,-24.400002,-3.144,concentric,5,3.0,126905.0,349148.0,206809.0,330199.0,217443.0
2026-04-14 17:54:27.083265,608771,1609506760744648,4360714000,0.862784,-0.144448,-0.089792,-9.03875,-2.09125,5.81,-22.168001,-24.400002,-3.144,concentric,5,3.0,126905.0,349148.0,206809.0,330199.0,217443.0
2026-04-14 17:54:27.090745,608772,1609506760753589,4360722714,0.901824,-0.083936,-0.081984,-8.61,0.175,5.81875,-22.448002,-24.832,-2.624,concentric,5,3.0,126905.0,349148.0,206809.0,330199.0,217443.0
2026-04-14 17:54:27.129652,608783,1609506760768550,4360737919,0.901824,-0.083936,-0.081984,-3.0975,0.00875,4.6725,-22.448002,-24.832,-2.624,concentric,5,3.0,114738.0,349287.0,191911.0,330647.0,203065.0
2026-04-14 17:54:27.132152,608784,1609506760777640,4360746753,0.854976,-0.074176,0.025376,-4.03375,-0.84875,4.5325,-22.624,-24.472002,-2.904,concentric,5,3.0,114738.0,349287.0,191911.0,330647.0,203065.0
2026-04-14 17:54:27.134603,608785,1609506760792215,4360761744,0.854976,-0.074176,0.025376,-7.81375,-1.82,4.85625,-22.624,-24.472002,-2.904,concentric,5,3.0,114738.0,349287.0,191911.0,330647.0,203065.0
2026-04-14 17:54:27.139648,608786,1609506760801182,4360770444,0.938912,-0.128832,0.132736,-8.6975,-3.07125,5.11,-22.880001,-24.008001,-4.648,concentric,5,3.0,114738.0,349287.0,191911.0,330647.0,203065.0
2026-04-14 17:54:27.148394,608787,1609506760810103,4360779117,0.938912,-0.128832,0.132736,-8.82875,-4.235,5.005,-22.880001,-24.008001,-4.648,concentric,5,3.0,114738.0,349287.0,191911.0,330647.0,203065.0
2026-04-14 17:54:27.165735,608788,1609506760824636,4360794077,0.835456,-0.076128,-0.064416,-7.2275,-5.53,4.66375,-21.944,-24.144001,-2.712,concentric,5,3.0,114738.0,349287.0,191911.0,330647.0,203065.0
2026-04-14 17:54:27.190572,608789,1609506760833609,4360802797,0.938912,-0.122976,0.158112,-6.86,-5.005,5.0925,-22.224,-24.336,-4.608,concentric,5,3.0,114738.0,349287.0,191911.0,330647.0,203065.0
2026-04-14 17:54:27.215499,608790,1609506760848086,4360817801,0.938912,-0.122976,0.158112,-6.23875,-3.66625,5.74875,-22.224,-24.336,-4.608,concentric,5,3.0,114738.0,349287.0,191911.0,330647.0,203065.0
2026-04-14 17:54:27.220578,608791,1609506760856981,4360826498,0.952576,-0.17568,-0.056608,-4.82125,-1.95125,6.8425,-22.224,-24.44,-3.864,concentric,5,3.0,114738.0,349287.0,191911.0,330647.0,203065.0
2026-04-14 17:54:27.250404,608802,1609506760871656,4360841456,0.952576,-0.17568,-0.056608,-4.15625,-1.21625,7.39375,-22.224,-24.44,-3.864,concentric,5,3.0,111630.0,348934.0,188104.0,330224.0,199447.0
2026-04-14 17:54:27.250748,608803,1609506760880674,4360850236,0.837408,-0.081984,-0.064416,-5.005,-0.63,6.265,-22.416,-24.552002,-3.632,concentric,5,3.0,111630.0,348934.0,188104.0,330224.0,199447.0
2026-04-14 17:54:27.252903,608804,1609506760889669,4360858918,0.837408,-0.081984,-0.064416,-4.41875,-0.69125,5.20625,-22.416,-24.552002,-3.632,concentric,5,3.0,111630.0,348934.0,188104.0,330224.0,199447.0
2026-04-14 17:54:27.261247,608805,1609506760904212,4360873867,0.876448,-0.0976,0.052704,-2.4325,-0.70875,3.92,-22.28,-23.840002,-4.016,concentric,5,3.0,111630.0,348934.0,188104.0,330224.0,199447.0
2026-04-14 17:54:27.261369,608806,1609506760913188,4360882611,0.876448,-0.0976,-0.134688,-0.35,-0.79625,2.87,-22.28,-23.840002,-4.016,concentric,5,3.0,111630.0,348934.0,188104.0,330224.0,199447.0
2026-04-14 17:54:27.265401,608807,1609506760927691,4360897544,0.864736,-0.17568,-0.130784,-0.04375,-0.67375,2.8525,-22.232,-24.096,-2.304,concentric,5,3.0,111630.0,348934.0,188104.0,330224.0,199447.0
2026-04-14 17:54:27.275463,608808,1609506760936661,4360906235,0.8784,-0.152256,-0.076128,-0.28875,-1.47875,2.03,-23.128,-23.880001,-3.192,concentric,5,3.0,111630.0,348934.0,188104.0,330224.0,199447.0
2026-04-14 17:54:27.308076,608809,1609506760945652,4360914987,0.8784,-0.152256,-0.076128,0.8575,-2.1525,1.9775,-23.128,-23.880001,-3.192,concentric,5,3.0,111630.0,348934.0,188104.0,330224.0,199447.0
2026-04-14 17:54:27.310467,608810,1609506760960114,4360929900,0.823744,-0.160064,-0.054656,0.2975,-2.42375,2.05625,-23.104002,-23.992,-3.032,concentric,5,3.0,111630.0,348934.0,188104.0,330224.0,199447.0
2026-04-14 17:54:27.338065,608821,1609506760969390,4360939033,0.823744,-0.160064,-0.054656,0.875,-2.8525,2.24875,-23.104002,-23.992,-3.032,concentric,5,3.0,102233.0,347248.0,176248.0,328981.0,187667.0
2026-04-14 17:54:27.343830,608822,1609506760984129,4360953974,0.83936,-0.199104,0.017568,2.79125,-3.43,3.185,-23.376001,-23.936,-3.088,concentric,5,3.0,102233.0,347248.0,176248.0,328981.0,187667.0
2026-04-14 17:54:27.344280,608823,1609506760993186,4360962742,0.83936,-0.199104,0.017568,3.91125,-5.60875,5.45125,-23.376001,-23.936,-3.088,concentric,5,3.0,102233.0,347248.0,176248.0,328981.0,187667.0
2026-04-14 17:54:27.345383,608824,1609506761002251,4360971499,0.84912,-0.245952,-0.033184,6.85125,-9.70375,7.84875,-23.456001,-23.784,-2.192,concentric,5,3.0,102233.0,347248.0,176248.0,328981.0,187667.0
2026-04-14 17:54:27.356431,608825,1609506761016784,4360986395,0.774944,-0.119072,-0.122976,8.58375,-12.81,8.32125,-23.928001,-23.080002,-2.496,concentric,5,3.0,102233.0,347248.0,176248.0,328981.0,187667.0
2026-04-14 17:54:27.362991,608826,1609506761025746,4360995118,0.774944,-0.119072,-0.122976,9.96625,-16.00375,8.925,-23.928001,-23.080002,-2.496,concentric,5,3.0,102233.0,347248.0,176248.0,328981.0,187667.0
2026-04-14 17:54:27.379288,608827,1609506761040255,4361010053,0.813984,-0.179584,0.111264,5.9675,-16.5725,9.56375,-23.936,-23.696001,-4.48,concentric,5,3.0,102233.0,347248.0,176248.0,328981.0,187667.0
2026-04-14 17:54:27.388022,608828,1609506761049175,4361018762,0.813984,-0.179584,0.111264,-1.95125,-16.52,11.62,-23.936,-23.696001,-4.48,concentric,5,3.0,102233.0,347248.0,176248.0,328981.0,187667.0
2026-04-14 17:54:27.402910,608829,1609506761063709,4361033721,0.620736,-0.222528,0.080032,-2.9575,-18.0425,13.667501,-23.296001,-23.488,-4.928001,concentric,5,3.0,102233.0,347248.0,176248.0,328981.0,187667.0
2026-04-14 17:54:27.433410,608840,1609506761072811,4361042536,0.620736,-0.222528,0.080032,1.63625,-22.6975,15.35625,-23.296001,-23.488,-4.928001,concentric,5,3.0,85523.0,340856.0,156002.0,324046.0,167625.0
2026-04-14 17:54:27.437729,608841,1609506761081932,4361051245,0.835456,-0.296704,-0.11712,10.36875,-25.62875,18.38375,-24.264002,-22.888,-3.904,concentric,5,3.0,85523.0,340856.0,156002.0,324046.0,167625.0
2026-04-14 17:54:27.438144,608842,1609506761096609,4361066232,0.67344,-0.044896,-0.044896,5.74,-24.84125,20.58,-24.152,-22.808,-4.768,concentric,5,3.0,85523.0,340856.0,156002.0,324046.0,167625.0
2026-04-14 17:54:27.444415,608843,1609506761105594,4361074976,0.67344,-0.044896,-0.044896,0.95375,-27.44875,21.385,-24.152,-22.808,-4.768,concentric,5,3.0,85523.0,340856.0,156002.0,324046.0,167625.0
2026-04-14 17:54:27.459502,608844,1609506761120103,4361089925,0.589504,-0.162016,0.130784,-0.1575,-30.70375,18.94375,-24.144001,-22.576,-5.056,concentric,5,3.0,85523.0,340856.0,156002.0,324046.0,167625.0
2026-04-14 17:54:27.466972,608845,1609506761129089,4361098746,0.589504,-0.162016,0.130784,-3.19375,-33.39,19.4425,-24.144001,-22.576,-5.056,concentric,5,3.0,85523.0,340856.0,156002.0,324046.0,167625.0
2026-04-14 17:54:27.477973,608846,1609506761138032,4361107432,0.56608,-0.249856,0.062464,-0.97125,-38.07125,24.24625,-24.952002,-22.344002,-4.92,concentric,5,3.0,85523.0,340856.0,156002.0,324046.0,167625.0
2026-04-14 17:54:27.490893,608847,1609506761152639,4361122448,0.56608,-0.249856,0.062464,6.29125,-42.97125,29.79375,-24.952002,-22.344002,-4.92,concentric,5,3.0,85523.0,340856.0,156002.0,324046.0,167625.0
2026-04-14 17:54:27.500377,608848,1609506761161588,4361131172,0.612928,-0.300608,-0.275232,11.34875,-48.13375,34.7375,-24.232,-22.184002,-6.496,concentric,5,3.0,85523.0,340856.0,156002.0,324046.0,167625.0
2026-04-14 17:54:27.544078,608859,1609506761176174,4361146408,0.548512,0.037088,0.101504,9.6075,-48.72875,37.77375,-25.152,-21.376001,-5.272,concentric,5,3.0,58813.0,311302.0,120361.0,298754.0,130437.0
2026-04-14 17:54:27.546609,608860,1609506761185267,4361155132,0.548512,0.037088,0.101504,0.525,-50.2425,37.02125,-25.152,-21.376001,-5.272,concentric,5,3.0,58813.0,311302.0,120361.0,298754.0,130437.0
2026-04-14 17:54:27.571954,608861,1609506761194317,4361163968,0.548512,0.037088,0.101504,-2.555,-53.4975,28.35875,-25.152,-21.376001,-5.272,concentric,5,3.0,58813.0,311302.0,120361.0,298754.0,130437.0
2026-04-14 17:54:27.587143,608862,1609506761208834,4361178915,0.40992,0.042944,0.124928,-11.71625,-53.515,12.45125,-25.784,-20.880001,-5.568,concentric,5,3.0,58813.0,311302.0,120361.0,298754.0,130437.0
2026-04-14 17:54:27.589675,608863,1609506761217760,4361187619,0.550464,-0.286944,-0.011712,-24.08,-51.54625,23.2575,-26.472002,-20.496,-5.992,concentric,5,3.0,58813.0,311302.0,120361.0,298754.0,130437.0
2026-04-14 17:54:27.591762,608864,1609506761232443,4361202655,0.550464,-0.286944,-0.011712,-23.37125,-51.9225,35.07,-26.472002,-20.496,-5.992,concentric,5,3.0,58813.0,311302.0,120361.0,298754.0,130437.0
2026-04-14 17:54:27.594184,608865,1609506761241377,4361211357,0.84912,-0.337696,-0.316224,-23.31,-50.9075,32.19125,-26.000002,-20.312,-6.528,concentric,5,3.0,58813.0,311302.0,120361.0,298754.0,130437.0
2026-04-14 17:54:27.597161,608866,1609506761255967,4361226268,0.84912,-0.021472,-0.027328,-32.2175,-47.25875,18.61125,-26.000002,-20.312,-8.288,concentric,5,3.0,58813.0,311302.0,120361.0,298754.0,130437.0
2026-04-14 17:54:27.603471,608867,1609506761265082,4361234970,0.749568,-0.021472,-0.027328,-40.7925,-42.77875,3.36,-26.000002,-20.400002,-8.288,concentric,5,3.0,58813.0,311302.0,120361.0,298754.0,130437.0
2026-04-14 17:54:27.637895,608878,1609506761274231,4361243718,0.749568,-0.021472,-0.027328,-21.0175,-41.055,-2.35375,-26.000002,-20.400002,-8.288,concentric,5,3.0,42132.0,263552.0,94253.0,257768.0,103752.0
2026-04-14 17:54:27.640310,608879,1609506761288814,4361258742,0.423584,-0.534848,-0.240096,-1.96,-43.81125,19.5125,-25.136002,-19.960001,-7.528,concentric,5,3.0,42132.0,263552.0,94253.0,257768.0,103752.0
2026-04-14 17:54:27.643441,608880,1609506761297909,4361267462,0.642208,-0.16592,-0.20496,19.43375,-42.88375,40.10125,-26.032001,-19.344002,-7.208,concentric,5,3.0,42132.0,263552.0,94253.0,257768.0,103752.0
2026-04-14 17:54:27.652019,608881,1609506761312423,4361282374,0.642208,-0.16592,-0.20496,42.5075,-42.91,34.16875,-26.032001,-19.344002,-7.208,concentric,5,3.0,42132.0,263552.0,94253.0,257768.0,103752.0
2026-04-14 17:54:27.660567,608882,1609506761321384,4361291049,0.847168,-0.02928,-0.316224,47.215,-38.2725,32.97,-25.6,-19.224,-8.976001,concentric,5,3.0,42132.0,263552.0,94253.0,257768.0,103752.0
2026-04-14 17:54:27.668439,608883,1609506761330340,4361299749,0.847168,-0.02928,-0.316224,22.49625,-27.772501,25.97875,-25.6,-19.224,-8.976001,concentric,5,3.0,42132.0,263552.0,94253.0,257768.0,103752.0
2026-04-14 17:54:27.683424,608884,1609506761344849,4361314717,0.802272,-0.0976,-0.08784,-7.665,-16.0825,10.01875,-26.296001,-18.584002,-7.896,concentric,5,3.0,42132.0,263552.0,94253.0,257768.0,103752.0
2026-04-14 17:54:27.692155,608885,1609506761353793,4361323427,0.802272,-0.0976,-0.08784,-26.08375,-6.6675,1.74125,-26.296001,-18.584002,-7.896,concentric,5,3.0,42132.0,263552.0,94253.0,257768.0,103752.0
2026-04-14 17:54:27.708389,608886,1609506761368398,4361338329,0.528992,-0.413824,-0.119072,-18.45375,1.16375,5.8625,-26.2,-19.032001,-8.952001,concentric,5,3.0,42132.0,263552.0,94253.0,257768.0,103752.0
2026-04-14 17:54:27.740651,608897,1609506761377401,4361347055,0.733952,-0.093696,-0.07808,6.09875,1.72375,17.80625,-26.968,-17.768002,-7.984,concentric,5,3.0,39504.0,243854.0,89579.0,244225.0,98998.0
2026-04-14 17:54:27.743339,608898,1609506761391920,4361362049,0.733952,-0.093696,-0.07808,25.29625,1.53125,27.7375,-26.968,-17.768002,-7.984,concentric,5,3.0,39504.0,243854.0,89579.0,244225.0,98998.0
2026-04-14 17:54:27.745819,608899,1609506761400844,4361370742,0.847168,0.218624,-0.025376,30.24,7.0175,26.17125,-27.640001,-17.648,-7.176,concentric,5,3.0,39504.0,243854.0,89579.0,244225.0,98998.0
2026-04-14 17:54:27.748318,608900,1609506761409784,4361379413,0.847168,0.218624,-0.025376,11.9,11.655,17.491251,-27.640001,-17.648,-7.176,concentric,5,3.0,39504.0,243854.0,89579.0,244225.0,98998.0
2026-04-14 17:54:27.764666,608901,1609506761424292,4361394311,0.862784,-0.269376,-0.154208,-7.3675,19.355,11.445,-27.832,-17.800001,-7.992001,concentric,5,3.0,39504.0,243854.0,89579.0,244225.0,98998.0
2026-04-14 17:54:27.772185,608902,1609506761433353,4361403012,0.862784,-0.269376,-0.154208,-20.405,25.31375,4.83875,-27.832,-17.800001,-7.992001,concentric,5,3.0,39504.0,243854.0,89579.0,244225.0,98998.0
2026-04-14 17:54:27.787207,608903,1609506761447877,4361417895,0.80032,-0.251808,-0.00976,-17.99,34.04625,-0.21,-26.296001,-18.024,-8.928,concentric,5,3.0,39504.0,243854.0,89579.0,244225.0,98998.0
2026-04-14 17:54:27.794309,608904,1609506761456836,4361426623,0.80032,-0.251808,-0.103456,0.14875,38.9725,-11.655,-26.296001,-18.024,-8.928,concentric,5,3.0,39504.0,243854.0,89579.0,244225.0,98998.0
2026-04-14 17:54:27.839013,608915,1609506761471527,4361441886,0.895968,-0.011712,-0.101504,15.14625,42.63,-9.00375,-26.496002,-17.44,-8.296001,concentric,5,3.0,42075.0,258084.0,93714.0,256286.0,103355.0
2026-04-14 17:54:27.841489,608916,1609506761480526,4361450641,1.139968,-0.109312,-0.007808,13.22125,45.33375,-4.08625,-26.232,-17.304,-7.352,concentric,5,3.0,42075.0,258084.0,93714.0,256286.0,103355.0
2026-04-14 17:54:27.843988,608917,1609506761489529,4361459454,1.139968,-0.109312,-0.007808,-2.12625,48.02,-2.21375,-26.232,-17.304,-7.352,concentric,5,3.0,42075.0,258084.0,93714.0,256286.0,103355.0
2026-04-14 17:54:27.847041,608918,1609506761504163,4361474385,1.139968,-0.308416,0.17568,-12.8975,49.2275,-3.33375,-27.392002,-17.352001,-6.976,concentric,5,3.0,42075.0,258084.0,93714.0,256286.0,103355.0
2026-04-14 17:54:27.852043,608919,1609506761513131,4361483078,1.139968,-0.308416,0.17568,-3.22875,53.34875,-5.57375,-27.392002,-17.352001,-6.976,concentric,5,3.0,42075.0,258084.0,93714.0,256286.0,103355.0
2026-04-14 17:54:27.868340,608920,1609506761527667,4361497956,1.091168,-0.122976,0.171776,13.62375,55.39625,-12.20625,-26.856,-17.568,-7.528,concentric,5,3.0,42075.0,258084.0,93714.0,256286.0,103355.0
2026-04-14 17:54:27.874309,608921,1609506761536754,4361506661,1.091168,-0.122976,0.171776,18.43625,59.17625,-20.51,-26.856,-17.568,-7.528,concentric,5,3.0,42075.0,258084.0,93714.0,256286.0,103355.0
2026-04-14 17:54:27.883149,608922,1609506761545829,4361515468,1.118496,-0.12688,0.07808,21.14875,60.8125,-15.3825,-26.464,-17.448,-9.392,concentric,5,3.0,42075.0,258084.0,93714.0,256286.0,103355.0
2026-04-14 17:54:27.899969,608923,1609506761560319,4361530377,1.237568,-0.271328,0.30256,18.66375,62.728752,-15.417501,-26.136002,-17.688002,-6.616,eccentric,5,3.0,42075.0,258084.0,93714.0,256286.0,103355.0
2026-04-14 17:54:27.927878,608924,1609506761569309,4361539070,1.237568,-0.271328,0.30256,20.405,65.45,-17.84125,-26.136002,-17.688002,-6.616,eccentric,5,3.0,42075.0,258084.0,93714.0,256286.0,103355.0
2026-04-14 17:54:28.007848,608935,1609506761583902,4361553988,1.196576,-0.212768,0.037088,20.65,67.121254,-18.34875,-26.552002,-17.616001,-6.736001,eccentric,5,3.0,53161.0,298079.0,112234.0,289560.0,123466.0
2026-04-14 17:54:28.020225,608936,1609506761592855,4361562672,1.196576,-0.212768,0.037088,22.89,71.12875,-18.4975,-26.552002,-17.616001,-6.736001,eccentric,5,3.0,53161.0,298079.0,112234.0,289560.0,123466.0
2026-04-14 17:54:28.020327,608937,1609506761601793,4361571357,1.3176,-0.119072,0.003904,24.14125,71.0675,-20.4225,-26.400002,-17.496,-6.688,eccentric,5,3.0,53161.0,298079.0,112234.0,289560.0,123466.0
2026-04-14 17:54:28.020373,608938,1609506761616411,4361586323,1.3176,-0.119072,0.003904,5.22375,69.53625,-24.710001,-26.400002,-17.496,-6.688,eccentric,5,3.0,53161.0,298079.0,112234.0,289560.0,123466.0
2026-04-14 17:54:28.020417,608939,1609506761625383,4361595031,1.247328,-0.337696,0.22448,-5.04,69.527504,-24.3425,-26.080002,-17.704,-7.696001,eccentric,5,3.0,53161.0,298079.0,112234.0,289560.0,123466.0
2026-04-14 17:54:28.020460,608940,1609506761639867,4361609934,1.243424,-0.18544,0.203008,8.79375,72.5375,-21.30625,-26.12,-17.704,-2.76,eccentric,5,3.0,53161.0,298079.0,112234.0,289560.0,123466.0
2026-04-14 17:54:28.023035,608941,1609506761648850,4361618658,1.243424,-0.18544,0.203008,27.317501,74.22625,-19.31125,-26.12,-17.704,-2.76,eccentric,5,3.0,53161.0,298079.0,112234.0,289560.0,123466.0
2026-04-14 17:54:28.025471,608942,1609506761663377,4361633649,1.32736,-0.222528,0.093696,24.395,73.52625,-18.1125,-25.776001,-18.192001,-4.584,eccentric,5,3.0,53161.0,298079.0,112234.0,289560.0,123466.0
2026-04-14 17:54:28.063117,608953,1609506761672795,4361643008,1.32736,-0.222528,0.093696,14.28875,71.18125,-21.04375,-25.776001,-18.192001,-4.584,eccentric,5,3.0,76728.0,330927.0,145967.0,316902.0,156986.0
2026-04-14 17:54:28.065569,608954,1609506761681796,4361651829,1.350784,-0.396256,0.0976,6.3875,68.50375,-23.45,-26.616001,-17.544,-3.72,eccentric,5,3.0,76728.0,330927.0,145967.0,316902.0,156986.0
2026-04-14 17:54:28.068175,608955,1609506761696607,4361666733,1.350784,-0.396256,0.0976,10.36,63.638752,-24.0275,-26.616001,-17.544,-3.72,eccentric,5,3.0,76728.0,330927.0,145967.0,316902.0,156986.0
2026-04-14 17:54:28.070600,608956,1609506761705633,4361675483,1.358592,-0.286944,0.244,14.595,59.8325,-20.13375,-26.504002,-17.848001,-4.744,eccentric,5,3.0,76728.0,330927.0,145967.0,316902.0,156986.0
2026-04-14 17:54:28.073131,608957,1609506761720280,4361690424,1.292224,-0.402112,0.16592,14.07,57.72375,-19.845,-26.504002,-17.912,-0.824,eccentric,5,3.0,76728.0,330927.0,145967.0,316902.0,156986.0
2026-04-14 17:54:28.075667,608958,1609506761729282,4361699132,1.292224,-0.402112,0.16592,14.77,53.725,-17.5875,-26.504002,-17.912,-0.824,eccentric,5,3.0,76728.0,330927.0,145967.0,316902.0,156986.0
2026-04-14 17:54:28.077927,608959,1609506761738426,4361707880,1.292224,-0.402112,0.16592,15.51375,48.2825,-10.5175,-26.504002,-17.912,-0.824,eccentric,5,3.0,76728.0,330927.0,145967.0,316902.0,156986.0
2026-04-14 17:54:28.094801,608960,1609506761752961,4361722824,1.364448,-0.2928,0.222528,11.45375,40.5125,-5.6875,-26.264002,-18.024,-3.704,eccentric,5,3.0,76728.0,330927.0,145967.0,316902.0,156986.0
2026-04-14 17:54:28.101692,608961,1609506761761884,4361731510,1.423008,-0.40016,0.37088,6.405,34.04625,-4.2875,-25.672,-18.208,-3.32,eccentric,5,3.0,76728.0,330927.0,145967.0,316902.0,156986.0
2026-04-14 17:54:28.134354,608972,1609506761776732,4361746704,1.423008,-0.40016,0.37088,1.00625,28.1225,-2.3625,-25.672,-18.208,-3.32,eccentric,5,3.0,93207.0,339081.0,167542.0,323515.0,178731.0
2026-04-14 17:54:28.136734,608973,1609506761786036,4361755495,1.315648,-0.404064,0.212768,2.09125,21.98,1.75,-25.688002,-18.264,-4.64,eccentric,5,3.0,93207.0,339081.0,167542.0,323515.0,178731.0
2026-04-14 17:54:28.139213,608974,1609506761795055,4361764307,1.315648,-0.404064,0.212768,6.2825,15.785,8.715,-25.688002,-18.264,-4.64,eccentric,5,3.0,93207.0,339081.0,167542.0,323515.0,178731.0
2026-04-14 17:54:28.148119,608975,1609506761809553,4361779286,1.364448,-0.324032,0.337696,5.9325,9.5725,14.105001,-25.68,-18.224,-4.168,eccentric,5,3.0,93207.0,339081.0,167542.0,323515.0,178731.0
2026-04-14 17:54:28.156841,608976,1609506761818511,4361788005,1.364448,-0.324032,0.337696,-0.7875,1.39125,18.15625,-25.68,-18.224,-4.168,eccentric,5,3.0,93207.0,339081.0,167542.0,323515.0,178731.0
2026-04-14 17:54:28.173103,608977,1609506761832998,4361802952,1.32736,-0.382592,0.242048,-7.665,-7.37625,21.385,-26.072,-18.112001,-5.304,eccentric,5,3.0,93207.0,339081.0,167542.0,323515.0,178731.0
2026-04-14 17:54:28.180524,608978,1609506761841906,4361811639,1.270752,-0.3904,0.109312,-8.40875,-15.4525,24.325,-26.008001,-17.752,-4.264,eccentric,5,3.0,93207.0,339081.0,167542.0,323515.0,178731.0
2026-04-14 17:54:28.190349,608979,1609506761850844,4361820320,1.270752,-0.3904,0.109312,-9.56375,-22.40875,23.275,-26.008001,-17.752,-4.264,eccentric,5,3.0,93207.0,339081.0,167542.0,323515.0,178731.0
2026-04-14 17:54:28.203030,608980,1609506761865343,4361835311,1.163392,-0.343552,0.076128,-13.886251,-29.14625,24.87625,-27.344002,-16.792002,-3.528,eccentric,5,3.0,93207.0,339081.0,167542.0,323515.0,178731.0
2026-04-14 17:54:28.235330,608991,1609506761874804,4361844180,1.163392,-0.343552,0.076128,-12.81,-34.97375,26.8625,-27.344002,-16.792002,-3.528,eccentric,5,3.0,84667.0,329797.0,156359.0,315116.0,166765.0
2026-04-14 17:54:28.237866,608992,1609506761889428,4361859153,1.212192,-0.368928,0.13664,-8.2425,-40.88,29.1375,-27.544,-16.928001,-3.136,eccentric,5,3.0,84667.0,329797.0,156359.0,315116.0,166765.0
2026-04-14 17:54:28.240332,608993,1609506761898388,4361867880,1.212192,-0.368928,0.13664,-5.03125,-45.045002,32.62875,-27.544,-16.928001,-3.136,eccentric,5,3.0,84667.0,329797.0,156359.0,315116.0,166765.0
2026-04-14 17:54:28.254564,608994,1609506761912887,4361882921,1.120448,-0.37088,0.07808,0.945,-48.95625,34.64125,-27.840002,-16.832,-5.816001,eccentric,5,3.0,84667.0,329797.0,156359.0,315116.0,166765.0
2026-04-14 17:54:28.260403,608995,1609506761921896,4361891630,1.153632,-0.284992,0.210816,2.82625,-51.7125,32.83,-28.304,-16.712,-4.688,eccentric,5,3.0,84667.0,329797.0,156359.0,315116.0,166765.0
2026-04-14 17:54:28.268378,608996,1609506761930838,4361900362,1.153632,-0.284992,0.210816,7.0525,-54.74,32.08625,-28.304,-16.712,-4.688,eccentric,5,3.0,84667.0,329797.0,156359.0,315116.0,166765.0
2026-04-14 17:54:28.293673,608997,1609506761945424,4361915266,1.071648,-0.228384,0.17568,8.417501,-57.84625,31.9375,-26.896002,-16.368,-6.128,eccentric,5,3.0,84667.0,329797.0,156359.0,315116.0,166765.0
2026-04-14 17:54:28.318328,608998,1609506761954378,4361923983,1.071648,-0.228384,0.17568,5.31125,-59.535,31.5875,-26.896002,-16.368,-6.128,eccentric,5,3.0,84667.0,329797.0,156359.0,315116.0,166765.0
2026-04-14 17:54:28.320820,608999,1609506761968927,4361938951,1.165344,-0.3904,0.093696,1.56625,-61.69625,32.55,-27.376001,-16.312,-6.24,eccentric,5,3.0,84667.0,329797.0,156359.0,315116.0,166765.0
2026-04-14 17:54:28.353428,609010,1609506761977931,4361947663,1.165344,-0.3904,0.093696,-2.72125,-63.9625,32.48875,-27.376001,-16.312,-6.24,eccentric,5,3.0,68547.0,312064.0,135239.0,300150.0,145342.0
2026-04-14 17:54:28.355579,609011,1609506761986908,4361956416,1.202432,-0.333792,0.251808,-0.51625,-66.54375,29.085001,-27.672,-15.768001,-6.728,eccentric,5,3.0,68547.0,312064.0,135239.0,300150.0,145342.0
2026-04-14 17:54:28.357964,609012,1609506762001683,4361971418,1.048224,-0.339648,0.144448,3.26375,-67.795,27.58875,-27.920002,-15.912001,-6.392,eccentric,5,3.0,68547.0,312064.0,135239.0,300150.0,145342.0
2026-04-14 17:54:28.360300,609013,1609506762010641,4361980182,1.048224,-0.339648,0.144448,2.49375,-67.73375,27.72875,-27.920002,-15.912001,-6.392,eccentric,5,3.0,68547.0,312064.0,135239.0,300150.0,145342.0
2026-04-14 17:54:28.363420,609014,1609506762025182,4361995174,1.098976,-0.306464,0.15616,3.6225,-67.22625,29.33,-27.896002,-15.56,-7.736001,eccentric,5,3.0,68547.0,312064.0,135239.0,300150.0,145342.0
2026-04-14 17:54:28.376736,609015,1609506762034079,4362003861,1.098976,-0.306464,0.15616,4.0775,-67.3225,31.61375,-27.896002,-15.56,-7.736001,eccentric,5,3.0,68547.0,312064.0,135239.0,300150.0,145342.0
2026-04-14 17:54:28.389100,609016,1609506762048729,4362018743,1.056032,-0.329888,-0.033184,-0.14,-66.08,32.10375,-27.872002,-15.864,-8.136001,eccentric,5,3.0,68547.0,312064.0,135239.0,300150.0,145342.0
2026-04-14 17:54:28.395744,609017,1609506762057855,4362027516,1.056032,-0.329888,-0.033184,-3.52625,-62.335,24.29,-27.872002,-15.864,-8.136001,eccentric,5,3.0,68547.0,312064.0,135239.0,300150.0,145342.0
2026-04-14 17:54:28.404372,609018,1609506762066927,4362036221,1.089216,-0.247904,-0.050752,-11.655,-60.6025,17.57,-28.096,-15.176001,-7.464,eccentric,5,3.0,68547.0,312064.0,135239.0,300150.0,145342.0
2026-04-14 17:54:28.439057,609029,1609506762081583,4362051567,1.079456,-0.474336,0.064416,-23.40625,-57.12,13.09,-30.144001,-15.416,-10.76,eccentric,5,3.0,55395.0,289301.0,116082.0,281683.0,126140.0
2026-04-14 17:54:28.441544,609030,1609506762090575,4362060380,1.079456,-0.474336,0.064416,-30.1175,-53.3925,10.0975,-28.912,-15.416,-10.76,eccentric,5,3.0,55395.0,289301.0,116082.0,281683.0,126140.0
2026-04-14 17:54:28.444119,609031,1609506762105181,4362075327,1.020896,-0.378688,0.18544,-22.3125,-50.28625,13.86,-28.288002,-15.456,-8.96,eccentric,5,3.0,55395.0,289301.0,116082.0,281683.0,126140.0
2026-04-14 17:54:28.453441,609032,1609506762114171,4362084029,1.020896,-0.378688,0.18544,-0.42,-47.83625,17.3425,-28.288002,-15.456,-8.96,eccentric,5,3.0,55395.0,289301.0,116082.0,281683.0,126140.0
2026-04-14 17:54:28.462592,609033,1609506762123119,4362092728,1.036512,-0.15616,0.05856,16.09125,-45.7275,17.94625,-28.544,-15.104001,-5.8,eccentric,5,3.0,55395.0,289301.0,116082.0,281683.0,126140.0
2026-04-14 17:54:28.477858,609034,1609506762137647,4362107637,1.036512,-0.15616,0.05856,15.96875,-40.80125,14.735,-28.544,-15.104001,-5.8,eccentric,5,3.0,55395.0,289301.0,116082.0,281683.0,126140.0
2026-04-14 17:54:28.484525,609035,1609506762146579,4362116348,1.04432,-0.21472,-0.115168,2.89625,-35.735,5.27625,-28.048002,-15.168001,-8.440001,eccentric,5,3.0,55395.0,289301.0,116082.0,281683.0,126140.0
2026-04-14 17:54:28.500693,609036,1609506762161251,4362131274,1.04432,-0.21472,-0.115168,-16.555,-32.03375,-4.305,-28.048002,-15.168001,-8.440001,eccentric,5,3.0,55395.0,289301.0,116082.0,281683.0,126140.0
2026-04-14 17:54:28.508345,609037,1609506762170189,4362139977,0.935008,-0.388448,0.1464,-31.57,-28.65625,-9.24875,-28.552002,-15.624001,-10.952001,eccentric,5,3.0,55395.0,289301.0,116082.0,281683.0,126140.0
2026-04-14 17:54:28.538428,609048,1609506762184798,4362155104,0.905728,-0.491904,0.10736,-29.77625,-26.8625,-8.72375,-29.352001,-15.312,-8.240001,eccentric,5,3.0,47790.0,280550.0,103935.0,274553.0,113541.0
2026-04-14 17:54:28.540907,609049,1609506762193743,4362163817,0.905728,-0.491904,0.10736,-9.555,-26.88875,-2.35375,-29.352001,-15.312,-8.240001,eccentric,5,3.0,47790.0,280550.0,103935.0,274553.0,113541.0
2026-04-14 17:54:28.543566,609050,1609506762202778,4362172467,0.903776,-0.160064,-0.003904,16.73,-24.56125,1.65375,-29.056002,-15.888001,-8.208,eccentric,5,3.0,47790.0,280550.0,103935.0,274553.0,113541.0
2026-04-14 17:54:28.555651,609051,1609506762217263,4362187364,0.903776,-0.160064,-0.003904,27.83375,-21.805,0.77,-29.056002,-15.888001,-8.208,eccentric,5,3.0,47790.0,280550.0,103935.0,274553.0,113541.0
2026-04-14 17:54:28.581697,609052,1609506762226243,4362196074,0.894016,0.040992,-0.05856,13.0375,-16.397501,-3.4475,-27.416,-16.12,-9.824,eccentric,5,3.0,47790.0,280550.0,103935.0,274553.0,113541.0
2026-04-14 17:54:28.584185,609053,1609506762240791,4362210950,0.894016,0.040992,-0.05856,-22.02375,-9.52875,-13.7025,-27.416,-16.12,-9.824,eccentric,5,3.0,47790.0,280550.0,103935.0,274553.0,113541.0
2026-04-14 17:54:28.599330,609054,1609506762249740,4362219691,0.710528,-0.4392,0.03904,-50.40875,-3.59625,-23.2925,-27.648,-16.544,-9.312,eccentric,5,3.0,47790.0,280550.0,103935.0,274553.0,113541.0
2026-04-14 17:54:28.601852,609055,1609506762258665,4362228400,0.710528,-0.4392,0.03904,-45.8325,-0.25375,-23.1175,-27.648,-16.544,-9.312,eccentric,5,3.0,47790.0,280550.0,103935.0,274553.0,113541.0
2026-04-14 17:54:28.613207,609056,1609506762273161,4362243286,0.67344,-0.396256,0.255712,-15.21625,1.60125,-16.975,-28.016,-16.6,-8.528001,eccentric,5,3.0,47790.0,280550.0,103935.0,274553.0,113541.0
2026-04-14 17:54:28.685458,609067,1609506762282143,4362252200,0.67344,-0.396256,-0.072224,17.38625,3.8325,-11.725,-28.016,-16.6,-8.528001,eccentric,5,3.0,53234.0,286043.0,112607.0,277998.0,122322.0
2026-04-14 17:54:28.693054,609068,1609506762296699,4362265142,0.79056,0.033184,-0.07808,23.00375,9.47625,-11.50625,-28.064001,-17.12,-9.632001,eccentric,5,3.0,53234.0,286043.0,112607.0,277998.0,122322.0
2026-04-14 17:54:28.695575,609069,1609506762306135,4362276027,0.71248,-0.105408,-0.11712,-3.98125,16.37125,-24.45625,-27.424002,-17.208,-9.192,eccentric,5,3.0,53234.0,286043.0,112607.0,277998.0,122322.0
2026-04-14 17:54:28.698028,609070,1609506762315088,4362284715,0.71248,-0.105408,-0.11712,-34.763752,18.92625,-32.45375,-27.424002,-17.208,-9.192,eccentric,5,3.0,53234.0,286043.0,112607.0,277998.0,122322.0
2026-04-14 17:54:28.700611,609071,1609506762329713,4362299605,0.687104,-0.37088,0.056608,-52.35125,19.565,-34.4575,-26.896002,-18.256,-8.808001,eccentric,5,3.0,53234.0,286043.0,112607.0,277998.0,122322.0
2026-04-14 17:54:28.703186,609072,1609506762338802,4362308294,0.687104,-0.37088,0.056608,-47.4425,20.92125,-34.86875,-26.896002,-18.256,-8.808001,eccentric,5,3.0,53234.0,286043.0,112607.0,277998.0,122322.0
2026-04-14 17:54:28.705571,609073,1609506762353330,4362323243,0.651968,-0.281088,-0.23424,-30.817501,21.4375,-29.93375,-26.680002,-18.464,-8.200001,eccentric,5,3.0,53234.0,286043.0,112607.0,277998.0,122322.0
2026-04-14 17:54:28.708179,609074,1609506762362232,4362331942,0.651968,-0.281088,-0.23424,-22.225,22.44375,-31.38625,-26.680002,-18.464,-8.200001,eccentric,5,3.0,53234.0,286043.0,112607.0,277998.0,122322.0
2026-04-14 17:54:28.739050,609085,1609506762377153,4362346973,0.765184,-0.062464,-0.013664,-29.855,25.62875,-39.1825,-26.472002,-19.0,-6.08,eccentric,5,3.0,65080.0,304102.0,130457.0,291831.0,140445.0
2026-04-14 17:54:28.741826,609086,1609506762386222,4362355801,0.460672,-0.306464,-0.076128,-41.67625,30.8,-49.67375,-27.816002,-19.256,-6.144,eccentric,5,3.0,65080.0,304102.0,130457.0,291831.0,140445.0
2026-04-14 17:54:28.745771,609087,1609506762395248,4362364556,0.460672,-0.306464,-0.076128,-38.29,32.59375,-50.58375,-27.816002,-19.256,-6.144,eccentric,5,3.0,65080.0,304102.0,130457.0,291831.0,140445.0
2026-04-14 17:54:28.750941,609088,1609506762409806,4362379534,0.802272,-0.378688,-0.074176,-15.2775,38.7275,-56.04375,-26.432001,-19.656,-5.704001,eccentric,5,3.0,65080.0,304102.0,130457.0,291831.0,140445.0
2026-04-14 17:54:28.755454,609089,1609506762418842,4362388258,0.802272,-0.378688,-0.074176,-2.1175,41.6675,-54.80125,-26.432001,-19.656,-5.704001,eccentric,5,3.0,65080.0,304102.0,130457.0,291831.0,140445.0
2026-04-14 17:54:28.771725,609090,1609506762433366,4362403324,0.753472,-0.228384,-0.339648,-9.10875,42.51625,-52.0625,-25.320002,-20.528002,-6.32,eccentric,5,3.0,65080.0,304102.0,130457.0,291831.0,140445.0
2026-04-14 17:54:28.780562,609091,1609506762442304,4362412015,0.753472,-0.228384,-0.339648,-21.595,42.3675,-60.4625,-25.320002,-20.528002,-6.32,eccentric,5,3.0,65080.0,304102.0,130457.0,291831.0,140445.0
2026-04-14 17:54:28.789310,609092,1609506762451464,4362420749,0.636352,0.05856,0.290848,-38.17625,45.43,-61.425,-24.488,-20.880001,-5.528,eccentric,5,3.0,65080.0,304102.0,130457.0,291831.0,140445.0
2026-04-14 17:54:28.804330,609093,1609506762466006,4362435655,0.610976,-0.50752,-0.035136,-38.01875,51.52875,-76.78125,-25.048,-21.872002,-4.768,eccentric,5,3.0,65080.0,304102.0,130457.0,291831.0,140445.0
2026-04-14 17:54:28.812934,609094,1609506762474978,4362444378,0.610976,-0.50752,-0.035136,-29.02375,54.55625,-86.84375,-25.048,-21.872002,-4.768,eccentric,5,3.0,65080.0,304102.0,130457.0,291831.0,140445.0
2026-04-14 17:54:28.840547,609105,1609506762489571,4362459385,0.9272,-0.431392,-0.193248,-11.6375,49.56,-67.19125,-24.768002,-22.320002,-3.744,eccentric,5,3.0,75502.0,332855.0,143612.0,316598.0,154207.0
2026-04-14 17:54:28.843265,609106,1609506762498526,4362468103,0.9272,-0.431392,-0.193248,2.98375,51.12625,-59.29,-24.768002,-22.320002,-3.744,eccentric,5,3.0,75502.0,332855.0,143612.0,316598.0,154207.0
2026-04-14 17:54:28.848197,609107,1609506762507524,4362476788,0.665632,-0.035136,0.054656,16.835001,50.5575,-62.615,-23.776001,-22.640001,-3.368,eccentric,5,3.0,75502.0,332855.0,143612.0,316598.0,154207.0
2026-04-14 17:54:28.859292,609108,1609506762522025,4362491726,0.665632,-0.035136,0.054656,14.48125,57.19875,-61.416252,-23.776001,-22.640001,-3.368,eccentric,5,3.0,75502.0,332855.0,143612.0,316598.0,154207.0
2026-04-14 17:54:28.867994,609109,1609506762531123,4362500445,0.503616,0.017568,0.511424,-3.24625,63.14,-66.96375,-22.424002,-23.584002,-3.44,eccentric,5,3.0,75502.0,332855.0,143612.0,316598.0,154207.0
2026-04-14 17:54:28.885617,609110,1609506762545631,4362515385,0.443104,-0.279136,-0.056608,-3.40375,62.78125,-74.17375,-22.216002,-23.664001,-2.584,eccentric,5,3.0,75502.0,332855.0,143612.0,316598.0,154207.0
