pc_time,serial_num,sensor_ts,host_ts,ax,ay,az,gx,gy,gz,mx,my,mz,phase,rpe,weight_kg,ppg_a,ppg_b,ppg_c,ppg_d,ppg_e
2026-04-14 17:54:03.364087,604303,1609506736935502,4336905052,0.772992,-0.169824,-0.035136,-30.1525,31.73625,-50.47,-24.928001,-20.608002,-5.744,concentric,5,3.0,55488.0,286866.0,117836.0,277869.0,130074.0
2026-04-14 17:54:03.366539,604304,1609506736950169,4336920103,0.601216,-0.1464,0.037088,-31.89375,31.17625,-47.565,-24.768002,-21.192001,-5.232,concentric,5,3.0,55488.0,286866.0,117836.0,277869.0,130074.0
2026-04-14 17:54:03.369025,604305,1609506736959101,4336928796,0.825696,-0.421632,-0.007808,-24.675,31.045,-52.24625,-24.768002,-21.192001,-4.784,concentric,5,3.0,55488.0,286866.0,117836.0,277869.0,130074.0
2026-04-14 17:54:03.371542,604306,1609506736973688,4336943667,0.825696,-0.421632,-0.007808,-9.44125,34.01125,-59.07125,-25.136002,-21.256,-4.784,concentric,5,3.0,55488.0,286866.0,117836.0,277869.0,130074.0
2026-04-14 17:54:03.374129,604307,1609506736982621,4336952361,0.79056,-0.111264,-0.091744,-0.72625,33.775,-53.55,-24.640001,-21.768002,-3.744,concentric,5,3.0,55488.0,286866.0,117836.0,277869.0,130074.0
2026-04-14 17:54:03.376702,604308,1609506736991693,4336961064,0.79056,-0.111264,-0.091744,0.805,29.8025,-44.2925,-24.640001,-21.768002,-3.744,concentric,5,3.0,55488.0,286866.0,117836.0,277869.0,130074.0
2026-04-14 17:54:03.379712,604309,1609506737006168,4336975962,0.706624,-0.017568,0.05856,-8.435,29.2775,-45.50875,-24.192001,-22.080002,-1.76,concentric,5,3.0,55488.0,286866.0,117836.0,277869.0,130074.0
2026-04-14 17:54:03.381390,604310,1609506737015086,4336984663,0.706624,-0.017568,0.05856,-23.8525,31.50875,-47.55625,-24.192001,-22.080002,-1.76,concentric,5,3.0,55488.0,286866.0,117836.0,277869.0,130074.0
2026-04-14 17:54:03.385024,604311,1609506737029641,4336999582,0.763232,-0.236192,0.128832,-24.5525,37.555,-49.4375,-23.792002,-22.424002,-3.072,concentric,5,3.0,55488.0,286866.0,117836.0,277869.0,130074.0
2026-04-14 17:54:03.411308,604322,1609506737039326,4337008535,0.763232,-0.236192,-0.042944,-23.70375,42.2275,-51.24,-23.792002,-22.424002,-3.072,concentric,5,3.0,91761.0,330647.0,166207.0,312994.0,179552.0
2026-04-14 17:54:03.413966,604323,1609506737048503,4337017346,0.769088,-0.347456,-0.042944,-17.272501,43.58375,-49.79625,-22.432001,-23.456001,-3.056,concentric,5,3.0,91761.0,330647.0,166207.0,312994.0,179552.0
2026-04-14 17:54:03.416339,604324,1609506737063574,4337032303,0.776896,-0.050752,0.162016,-7.945,40.915,-44.10875,-22.152,-23.544,-3.528,concentric,5,3.0,91761.0,330647.0,166207.0,312994.0,179552.0
2026-04-14 17:54:03.418858,604325,1609506737072996,4337043159,0.776896,-0.050752,0.162016,-0.20125,38.63125,-37.415,-22.152,-23.544,-3.528,concentric,5,3.0,91761.0,330647.0,166207.0,312994.0,179552.0
2026-04-14 17:54:03.421312,604326,1609506737082073,4337051901,0.577792,0.056608,0.031232,-0.04375,36.715,-35.70875,-21.656,-24.000002,-3.192,concentric,5,3.0,91761.0,330647.0,166207.0,312994.0,179552.0
2026-04-14 17:54:03.433866,604327,1609506737096560,4337066814,0.577792,0.056608,0.031232,-4.40125,39.10375,-41.01125,-21.656,-24.000002,-3.192,concentric,5,3.0,91761.0,330647.0,166207.0,312994.0,179552.0
2026-04-14 17:54:03.443833,604328,1609506737105496,4337075494,0.704672,-0.17568,0.050752,-11.29625,39.15625,-43.68875,-21.416,-24.176,-2.56,concentric,5,3.0,91761.0,330647.0,166207.0,312994.0,179552.0
2026-04-14 17:54:03.455030,604329,1609506737120045,4337088405,0.704672,-0.152256,-0.103456,-9.905,32.48,-39.20875,-21.416,-24.176,-2.56,concentric,5,3.0,91761.0,330647.0,166207.0,312994.0,179552.0
2026-04-14 17:54:03.466457,604330,1609506737129402,4337099194,0.650016,-0.152256,-0.103456,-4.99625,28.28,-35.02625,-21.776001,-24.736002,-3.168,concentric,5,3.0,91761.0,330647.0,166207.0,312994.0,179552.0
2026-04-14 17:54:03.496324,604341,1609506737138625,4337107924,0.650016,-0.152256,-0.103456,-2.45875,27.0375,-30.5725,-21.776001,-24.736002,-3.168,concentric,5,3.0,125180.0,341915.0,205457.0,322593.0,217737.0
2026-04-14 17:54:03.498723,604342,1609506737153343,4337122931,0.620736,0.021472,0.080032,1.16375,18.66375,-27.51875,-21.080002,-24.792002,-3.672,concentric,5,3.0,125180.0,341915.0,205457.0,322593.0,217737.0
2026-04-14 17:54:03.501174,604343,1609506737162389,4337131659,0.728096,0.040992,0.154208,6.97375,16.96625,-28.35875,-20.864,-24.904001,-2.536,concentric,5,3.0,125180.0,341915.0,205457.0,322593.0,217737.0
2026-04-14 17:54:03.513817,604344,1609506737176918,4337146569,0.728096,0.040992,0.154208,8.70625,17.64875,-35.201252,-20.864,-24.904001,-2.536,concentric,5,3.0,125180.0,341915.0,205457.0,322593.0,217737.0
2026-04-14 17:54:03.522586,604345,1609506737185859,4337155273,0.786656,-0.162016,-0.181536,5.4775,19.18,-36.0325,-20.52,-24.568,-1.28,concentric,5,3.0,125180.0,341915.0,205457.0,322593.0,217737.0
2026-04-14 17:54:03.533108,604346,1609506737194785,4337163954,0.786656,-0.162016,-0.181536,-0.56,20.0725,-32.5675,-20.52,-24.568,-1.28,concentric,5,3.0,125180.0,341915.0,205457.0,322593.0,217737.0
2026-04-14 17:54:03.545107,604347,1609506737209486,4337178905,0.804224,-0.134688,-0.072224,-0.25375,13.055,-24.325,-20.0,-25.136002,-2.584,concentric,5,3.0,125180.0,341915.0,205457.0,322593.0,217737.0
2026-04-14 17:54:03.555555,604348,1609506737218413,4337187620,0.804224,-0.134688,-0.072224,1.33875,3.2725,-11.15625,-20.0,-25.136002,-2.584,concentric,5,3.0,125180.0,341915.0,205457.0,322593.0,217737.0
2026-04-14 17:54:03.571066,604349,1609506737232950,4337202500,0.80032,-0.01952,0.042944,1.33,-0.4375,-2.31,-20.76,-25.136002,-2.248,concentric,5,3.0,125180.0,341915.0,205457.0,322593.0,217737.0
2026-04-14 17:54:03.621108,604360,1609506737242122,4337211749,0.899872,-0.007808,0.230336,-0.02625,0.00875,-0.595,-20.480001,-25.256,-2.56,concentric,5,3.0,129397.0,337398.0,210896.0,318353.0,222583.0
2026-04-14 17:54:03.630715,604361,1609506737256726,4337226702,0.899872,-0.007808,0.230336,-1.70625,1.7325,0.39375,-20.480001,-25.256,-2.56,concentric,5,3.0,129397.0,337398.0,210896.0,318353.0,222583.0
2026-04-14 17:54:03.633200,604362,1609506737265668,4337235422,0.866688,-0.103456,-0.013664,-1.12,2.94875,-1.07625,-20.328001,-25.104002,-2.224,concentric,5,3.0,129397.0,337398.0,210896.0,318353.0,222583.0
2026-04-14 17:54:03.635695,604363,1609506737274619,4337244100,0.866688,-0.103456,-0.013664,5.25875,-0.13125,-0.11375,-20.328001,-25.104002,-2.224,concentric,5,3.0,129397.0,337398.0,210896.0,318353.0,222583.0
2026-04-14 17:54:03.638204,604364,1609506737289240,4337259073,0.864736,-0.08784,0.173728,12.32875,-3.0625,2.23125,-20.384,-25.104002,-2.76,concentric,5,3.0,129397.0,337398.0,210896.0,318353.0,222583.0
2026-04-14 17:54:03.640683,604365,1609506737298187,4337267758,0.864736,-0.08784,0.173728,13.440001,-3.14125,4.4275,-20.384,-25.104002,-2.76,concentric,5,3.0,129397.0,337398.0,210896.0,318353.0,222583.0
2026-04-14 17:54:03.673345,604366,1609506737312815,4337282683,0.925248,-0.044896,0.17568,12.31125,-3.52625,5.705,-20.536001,-25.064001,-2.576,concentric,5,3.0,129397.0,337398.0,210896.0,318353.0,222583.0
2026-04-14 17:54:03.695224,604367,1609506737321884,4337291374,0.86864,0.023424,-0.05856,10.92,-1.575,4.095,-18.488,-25.184002,-0.712,concentric,5,3.0,129397.0,337398.0,210896.0,318353.0,222583.0
2026-04-14 17:54:03.698487,604368,1609506737330952,4337300130,0.86864,0.023424,-0.05856,9.19625,-0.665,1.995,-20.456001,-25.184002,-0.712,concentric,5,3.0,129397.0,337398.0,210896.0,318353.0,222583.0
2026-04-14 17:54:03.725116,604379,1609506737345543,4337315101,0.948672,-0.130784,0.17568,3.15875,-1.1725,0.48125,-20.712002,-25.352001,-3.048,concentric,5,3.0,124740.0,340613.0,205589.0,321745.0,217479.0
2026-04-14 17:54:03.727599,604380,1609506737354473,4337323778,0.948672,-0.130784,0.17568,3.71,-1.25125,0.1575,-20.712002,-25.352001,-3.048,concentric,5,3.0,124740.0,340613.0,205589.0,321745.0,217479.0
2026-04-14 17:54:03.730011,604381,1609506737368982,4337338756,0.84912,-0.070272,0.083936,9.79125,0.27125,0.30625,-20.656,-24.848001,-2.168,concentric,5,3.0,124740.0,340613.0,205589.0,321745.0,217479.0
2026-04-14 17:54:03.732785,604382,1609506737378055,4337347508,0.84912,-0.070272,0.083936,12.5125,2.61625,2.1,-20.656,-24.848001,-2.168,concentric,5,3.0,124740.0,340613.0,205589.0,321745.0,217479.0
2026-04-14 17:54:03.735310,604383,1609506737392572,4337362413,0.870592,-0.072224,0.027328,8.28625,3.185,4.025,-21.216002,-24.752,-2.0,concentric,5,3.0,124740.0,340613.0,205589.0,321745.0,217479.0
2026-04-14 17:54:03.737806,604384,1609506737401511,4337371144,0.870592,-0.072224,-0.035136,4.01625,1.16375,6.7375,-21.216002,-24.752,-2.0,concentric,5,3.0,124740.0,340613.0,205589.0,321745.0,217479.0
2026-04-14 17:54:03.746548,604385,1609506737410598,4337379909,0.84912,-0.042944,-0.044896,2.0475,-2.59875,10.08875,-21.920002,-24.504002,-2.024,concentric,5,3.0,124740.0,340613.0,205589.0,321745.0,217479.0
2026-04-14 17:54:03.765137,604386,1609506737425216,4337394864,0.88816,-0.007808,0.042944,-1.07625,-5.4425,11.55,-20.960001,-24.704,-2.776,concentric,5,3.0,124740.0,340613.0,205589.0,321745.0,217479.0
2026-04-14 17:54:03.775359,604387,1609506737434224,4337403548,0.88816,-0.007808,0.042944,-2.52875,-6.72875,11.0075,-20.960001,-24.704,-2.776,concentric,5,3.0,124740.0,340613.0,205589.0,321745.0,217479.0
2026-04-14 17:54:03.802921,604398,1609506737448905,4337418977,0.944768,-0.083936,0.216672,-3.08875,-5.85375,8.33875,-21.640001,-24.320002,-1.336,concentric,5,3.0,119707.0,339976.0,199672.0,321193.0,211744.0
2026-04-14 17:54:03.805426,604399,1609506737457906,4337427742,0.944768,-0.083936,0.216672,-1.86375,-4.69,5.92375,-21.640001,-24.320002,-1.336,concentric,5,3.0,119707.0,339976.0,199672.0,321193.0,211744.0
2026-04-14 17:54:03.807934,604400,1609506737466850,4337436436,0.999424,-0.121024,0.169824,3.5175,-3.7275,5.43375,-21.856,-23.968,-1.096,concentric,5,3.0,119707.0,339976.0,199672.0,321193.0,211744.0
2026-04-14 17:54:03.819194,604401,1609506737481454,4337451390,0.999424,-0.121024,0.169824,4.24375,-2.70375,7.455,-21.856,-23.968,-1.096,concentric,5,3.0,119707.0,339976.0,199672.0,321193.0,211744.0
2026-04-14 17:54:03.827761,604402,1609506737490443,4337460146,0.847168,-0.08784,-0.007808,2.56375,-3.4475,11.1475,-21.28,-24.840002,-4.896,concentric,5,3.0,119707.0,339976.0,199672.0,321193.0,211744.0
2026-04-14 17:54:03.843044,604403,1609506737504941,4337475036,0.841312,0.044896,0.115168,3.17625,-4.06875,12.985,-21.176,-24.496,-3.2,concentric,5,3.0,119707.0,339976.0,199672.0,321193.0,211744.0
2026-04-14 17:54:03.851489,604404,1609506737513939,4337483716,0.841312,0.044896,0.115168,4.8125,-3.64875,11.480001,-21.176,-24.496,-3.2,concentric,5,3.0,119707.0,339976.0,199672.0,321193.0,211744.0
2026-04-14 17:54:03.871428,604405,1609506737528411,4337498631,0.91744,-0.12688,-0.015616,2.33625,-3.36,9.12625,-21.592001,-24.672,-2.992,concentric,5,3.0,119707.0,339976.0,199672.0,321193.0,211744.0
2026-04-14 17:54:03.903809,604416,1609506737537307,4337507304,0.91744,-0.12688,-0.015616,-1.79375,-3.5,7.91875,-21.592001,-24.672,-2.992,concentric,5,3.0,114728.0,338752.0,193692.0,320195.0,205702.0
2026-04-14 17:54:03.906288,604417,1609506737546269,4337516037,0.94672,-0.160064,0.0,-0.805,-5.25,7.95375,-21.720001,-24.456001,-2.664,concentric,5,3.0,114728.0,338752.0,193692.0,320195.0,205702.0
2026-04-14 17:54:03.908827,604418,1609506737560822,4337530981,0.94672,-0.160064,0.0,0.20125,-8.40875,8.33875,-21.720001,-24.456001,-2.664,concentric,5,3.0,114728.0,338752.0,193692.0,320195.0,205702.0
2026-04-14 17:54:03.911233,604419,1609506737569773,4337539719,0.866688,-0.101504,-0.023424,0.8925,-10.465,9.80875,-22.224,-23.952002,-2.328,concentric,5,3.0,114728.0,338752.0,193692.0,320195.0,205702.0
2026-04-14 17:54:03.924087,604420,1609506737584422,4337554606,0.866688,-0.06832,0.162016,1.0325,-11.6025,9.5725,-22.592001,-24.544,-5.136,concentric,5,3.0,114728.0,338752.0,193692.0,320195.0,205702.0
2026-04-14 17:54:03.931497,604421,1609506737593532,4337563295,0.866688,-0.06832,0.162016,1.68875,-10.66625,8.49625,-22.592001,-24.544,-5.136,concentric,5,3.0,114728.0,338752.0,193692.0,320195.0,205702.0
2026-04-14 17:54:03.939054,604422,1609506737602625,4337572000,0.866688,-0.06832,0.162016,1.8025,-9.40625,8.6975,-22.592001,-24.544,-5.136,concentric,5,3.0,114728.0,338752.0,193692.0,320195.0,205702.0
2026-04-14 17:54:03.955456,604423,1609506737617109,4337586901,0.856928,-0.17568,-0.0488,-0.67375,-9.7475,8.715,-21.528002,-24.456001,-4.44,concentric,5,3.0,114728.0,338752.0,193692.0,320195.0,205702.0
2026-04-14 17:54:03.962789,604424,1609506737626055,4337595616,0.903776,-0.169824,-0.099552,0.9625,-11.8125,9.765,-22.896002,-23.752,-2.744,concentric,5,3.0,114728.0,338752.0,193692.0,320195.0,205702.0
2026-04-14 17:54:04.002900,604435,1609506737641332,4337610846,0.903776,-0.169824,-0.099552,2.89625,-14.56,10.00125,-22.896002,-23.752,-2.744,concentric,5,3.0,103663.0,337681.0,180112.0,319963.0,191876.0
2026-04-14 17:54:04.005403,604436,1609506737650344,4337619584,0.89792,-0.10736,0.103456,0.62125,-14.4725,9.42375,-22.968,-23.2,-2.264,concentric,5,3.0,103663.0,337681.0,180112.0,319963.0,191876.0
2026-04-14 17:54:04.007859,604437,1609506737659284,4337628366,0.89792,-0.10736,0.103456,0.665,-13.97375,9.26625,-22.968,-23.2,-2.264,concentric,5,3.0,103663.0,337681.0,180112.0,319963.0,191876.0
2026-04-14 17:54:04.010395,604438,1609506737674039,4337643365,0.831552,-0.115168,0.132736,0.7175,-13.78125,7.2625,-22.216002,-24.272001,-3.832,concentric,5,3.0,103663.0,337681.0,180112.0,319963.0,191876.0
2026-04-14 17:54:04.039220,604439,1609506737683153,4337652099,0.831552,-0.115168,0.132736,0.385,-14.21,6.44,-22.216002,-24.272001,-3.832,concentric,5,3.0,103663.0,337681.0,180112.0,319963.0,191876.0
2026-04-14 17:54:04.041714,604440,1609506737697648,4337667008,0.890112,-0.206912,-0.060512,0.525,-16.3275,7.3675,-22.560001,-24.216002,-3.992,concentric,5,3.0,103663.0,337681.0,180112.0,319963.0,191876.0
2026-04-14 17:54:04.045765,604441,1609506737706549,4337675677,0.825696,-0.148352,-0.064416,1.25125,-17.40375,7.42,-23.512001,-23.648,-2.872,concentric,5,3.0,103663.0,337681.0,180112.0,319963.0,191876.0
2026-04-14 17:54:04.070273,604442,1609506737721040,4337690559,0.825696,-0.148352,-0.064416,3.08,-17.4125,10.0975,-23.512001,-23.648,-2.872,concentric,5,3.0,103663.0,337681.0,180112.0,319963.0,191876.0
2026-04-14 17:54:04.072838,604443,1609506737729986,4337699238,0.851072,-0.181536,-0.035136,0.105,-16.96625,10.85,-22.672,-23.392,-4.104,concentric,5,3.0,103663.0,337681.0,180112.0,319963.0,191876.0
2026-04-14 17:54:04.111595,604454,1609506737738913,4337708155,0.851072,-0.181536,-0.035136,-3.56125,-16.03875,9.6075,-22.672,-23.392,-4.104,concentric,5,3.0,77202.0,329913.0,146754.0,315342.0,158221.0
2026-04-14 17:54:04.114212,604455,1609506737754341,4337723229,0.862784,-0.183488,0.033184,-3.47375,-16.52875,11.8475,-22.640001,-23.112001,-3.016,concentric,5,3.0,77202.0,329913.0,146754.0,315342.0,158221.0
2026-04-14 17:54:04.116697,604456,1609506737763461,4337731996,0.862784,-0.183488,0.033184,-1.11125,-17.38625,13.0375,-22.640001,-23.112001,-3.016,concentric,5,3.0,77202.0,329913.0,146754.0,315342.0,158221.0
2026-04-14 17:54:04.119124,604457,1609506737772891,4337742841,0.794464,-0.201056,-0.201056,0.34125,-19.565,14.28875,-23.6,-22.936,-4.656,concentric,5,3.0,77202.0,329913.0,146754.0,315342.0,158221.0
2026-04-14 17:54:04.125440,604458,1609506737787495,4337757765,0.915488,-0.158112,0.00976,-0.76125,-21.0875,14.2625,-23.304,-23.344002,-4.96,concentric,5,3.0,77202.0,329913.0,146754.0,315342.0,158221.0
2026-04-14 17:54:04.139607,604459,1609506737796446,4337766506,0.915488,-0.158112,0.00976,-1.7675,-21.9975,14.93625,-23.304,-23.344002,-4.96,concentric,5,3.0,77202.0,329913.0,146754.0,315342.0,158221.0
2026-04-14 17:54:04.150107,604460,1609506737811041,4337781406,0.804224,-0.103456,-0.013664,-2.87,-22.6275,12.88,-22.944,-23.048,-4.728,concentric,5,3.0,77202.0,329913.0,146754.0,315342.0,158221.0
2026-04-14 17:54:04.159071,604461,1609506737819980,4337790159,0.804224,-0.103456,-0.013664,-5.97625,-21.34125,9.6425,-22.944,-23.048,-4.728,concentric,5,3.0,77202.0,329913.0,146754.0,315342.0,158221.0
2026-04-14 17:54:04.166471,604462,1609506737828943,4337798829,0.876448,-0.162016,0.033184,-8.00625,-19.62625,8.72375,-23.400002,-22.76,-3.984,concentric,5,3.0,77202.0,329913.0,146754.0,315342.0,158221.0
2026-04-14 17:54:04.204158,604473,1609506737843973,4337813817,0.876448,-0.162016,0.033184,-10.19375,-18.15625,8.14625,-23.400002,-22.76,-3.984,concentric,5,3.0,53218.0,312050.0,113495.0,300034.0,124849.0
2026-04-14 17:54:04.206694,604474,1609506737853023,4337822542,0.763232,-0.193248,-0.015616,-8.75875,-18.06875,7.735,-23.208,-22.648,-5.896,concentric,5,3.0,53218.0,312050.0,113495.0,300034.0,124849.0
2026-04-14 17:54:04.209213,604475,1609506737867596,4337837493,0.89792,-0.261568,-0.152256,-5.80125,-19.635,8.53125,-23.28,-22.768002,-5.336,concentric,5,3.0,53218.0,312050.0,113495.0,300034.0,124849.0
2026-04-14 17:54:04.212904,604476,1609506737876601,4337846231,0.89792,-0.261568,-0.152256,-1.295,-19.57375,10.36,-23.28,-22.768002,-5.336,concentric,5,3.0,53218.0,312050.0,113495.0,300034.0,124849.0
2026-04-14 17:54:04.222894,604477,1609506737885538,4337854921,0.772992,-0.06832,-0.011712,3.5,-19.7925,14.27125,-23.400002,-22.456001,-6.36,concentric,5,3.0,53218.0,312050.0,113495.0,300034.0,124849.0
2026-04-14 17:54:04.264841,604478,1609506737900015,4337869838,0.772992,-0.06832,-0.011712,3.255,-21.210001,16.9575,-23.400002,-22.456001,-6.36,concentric,5,3.0,53218.0,312050.0,113495.0,300034.0,124849.0
2026-04-14 17:54:04.267124,604479,1609506737908931,4337878516,0.689056,-0.080032,0.037088,2.8525,-22.5575,15.3825,-23.704,-22.344002,-5.256,concentric,5,3.0,53218.0,312050.0,113495.0,300034.0,124849.0
2026-04-14 17:54:04.269482,604480,1609506737923461,4337893460,0.689056,-0.080032,0.037088,1.12,-23.765,15.085,-23.704,-22.344002,-5.256,concentric,5,3.0,53218.0,312050.0,113495.0,300034.0,124849.0
2026-04-14 17:54:04.271992,604481,1609506737932410,4337902237,0.83936,-0.247904,-0.171776,-3.325,-24.5,17.5875,-23.896002,-22.176,-5.088,concentric,5,3.0,53218.0,312050.0,113495.0,300034.0,124849.0
2026-04-14 17:54:04.302000,604492,1609506737947127,4337915569,0.997472,-0.230336,-0.101504,-7.69125,-26.9325,20.51875,-24.728,-21.816002,-4.272,concentric,5,3.0,41922.0,281161.0,95191.0,274200.0,105531.0
2026-04-14 17:54:04.304359,604493,1609506737956570,4337926381,0.997472,-0.230336,-0.101504,-14.752501,-28.035,19.60875,-24.728,-21.816002,-4.272,concentric,5,3.0,41922.0,281161.0,95191.0,274200.0,105531.0
2026-04-14 17:54:04.309594,604494,1609506737965580,4337935129,0.997472,-0.035136,0.236192,-14.11375,-26.71375,19.81,-24.728,-21.816002,-4.272,concentric,5,3.0,41922.0,281161.0,95191.0,274200.0,105531.0
2026-04-14 17:54:04.318252,604495,1609506737980121,4337950128,0.74176,-0.035136,0.236192,-7.09625,-24.64875,15.35625,-24.76,-21.176,-5.44,concentric,5,3.0,41922.0,281161.0,95191.0,274200.0,105531.0
2026-04-14 17:54:04.327827,604496,1609506737989055,4337958812,0.62464,-0.236192,-0.062464,-5.87125,-23.14375,6.055,-24.000002,-21.504002,-6.048,concentric,5,3.0,41922.0,281161.0,95191.0,274200.0,105531.0
2026-04-14 17:54:04.344025,604497,1609506738003538,4337973697,0.62464,-0.236192,-0.062464,-1.95125,-23.37125,14.1225,-24.000002,-21.504002,-6.048,concentric,5,3.0,41922.0,281161.0,95191.0,274200.0,105531.0
2026-04-14 17:54:04.349921,604498,1609506738012477,4337982454,0.81984,-0.179584,-0.206912,5.2325,-24.92,23.397501,-24.712002,-21.560001,-5.968,concentric,5,3.0,41922.0,281161.0,95191.0,274200.0,105531.0
2026-04-14 17:54:04.358742,604499,1609506738021483,4337991153,0.81984,-0.179584,-0.206912,1.4,-25.8125,17.6575,-24.712002,-21.560001,-5.968,concentric,5,3.0,41922.0,281161.0,95191.0,274200.0,105531.0
2026-04-14 17:54:04.374336,604500,1609506738035998,4338006058,0.788608,-0.080032,0.0488,-15.89,-24.928751,5.0575,-24.624,-20.864,-5.272,concentric,5,3.0,41922.0,281161.0,95191.0,274200.0,105531.0
2026-04-14 17:54:04.451666,604511,1609506738045139,4338014840,0.788608,-0.080032,0.0488,-26.31125,-24.255,2.6775,-24.624,-20.864,-5.272,concentric,5,3.0,36767.0,245014.0,85885.0,243511.0,95076.0
2026-04-14 17:54:04.454258,604512,1609506738059651,4338029728,0.675392,-0.355264,-0.031232,-22.12875,-22.7325,2.02125,-26.336,-20.712002,-4.4,concentric,5,3.0,36767.0,245014.0,85885.0,243511.0,95076.0
2026-04-14 17:54:04.456469,604513,1609506738068612,4338038437,0.554368,-0.220576,-0.267424,-9.0125,-26.3025,8.14625,-26.528002,-20.304,-5.384,concentric,5,3.0,36767.0,245014.0,85885.0,243511.0,95076.0
2026-04-14 17:54:04.459186,604514,1609506738083176,4338053332,0.554368,-0.220576,-0.267424,4.75125,-27.0725,14.761251,-26.528002,-20.304,-5.384,concentric,5,3.0,36767.0,245014.0,85885.0,243511.0,95076.0
2026-04-14 17:54:04.461665,604515,1609506738092237,4338062089,0.71248,0.035136,-0.171776,2.40625,-29.5925,12.845,-25.736002,-20.592001,-5.752,concentric,5,3.0,36767.0,245014.0,85885.0,243511.0,95076.0
2026-04-14 17:54:04.464283,604516,1609506738101229,4338070804,0.71248,0.035136,-0.171776,-18.1125,-30.3625,6.37875,-25.736002,-20.592001,-5.752,concentric,5,3.0,36767.0,245014.0,85885.0,243511.0,95076.0
2026-04-14 17:54:04.466704,604517,1609506738115840,4338085752,0.696864,-0.324032,-0.111264,-32.795002,-31.50875,-4.80375,-25.712002,-20.560001,-5.656,concentric,5,3.0,36767.0,245014.0,85885.0,243511.0,95076.0
2026-04-14 17:54:04.469242,604518,1609506738124829,4338094485,0.696864,-0.324032,-0.111264,-29.1025,-34.55375,2.66,-25.712002,-20.560001,-5.656,concentric,5,3.0,36767.0,245014.0,85885.0,243511.0,95076.0
2026-04-14 17:54:04.476741,604519,1609506738139345,4338109409,0.554368,-0.271328,-0.251808,-17.38625,-33.5125,9.75625,-25.760002,-20.248001,-5.224001,concentric,5,3.0,36767.0,245014.0,85885.0,243511.0,95076.0
2026-04-14 17:54:04.506833,604530,1609506738148378,4338118270,0.813984,-0.081984,-0.454816,-10.01,-35.665,4.2525,-25.920002,-20.112001,-7.504,concentric,5,3.0,36302.0,241021.0,85213.0,238850.0,94980.0
2026-04-14 17:54:04.507572,604531,1609506738157534,4338126989,0.813984,-0.081984,-0.454816,-6.2475,-35.7875,2.40625,-25.920002,-20.112001,-7.504,concentric,5,3.0,36302.0,241021.0,85213.0,238850.0,94980.0
2026-04-14 17:54:04.510226,604532,1609506738172266,4338141926,0.962336,-0.251808,0.083936,-23.91375,-33.6,1.855,-25.456001,-19.904001,-6.24,concentric,5,3.0,36302.0,241021.0,85213.0,238850.0,94980.0
2026-04-14 17:54:04.519095,604533,1609506738181258,4338150632,0.962336,-0.251808,0.083936,-24.61375,-27.62375,6.02875,-25.456001,-19.904001,-6.24,concentric,5,3.0,36302.0,241021.0,85213.0,238850.0,94980.0
2026-04-14 17:54:04.535332,604534,1609506738195823,4338165527,0.671488,-0.54656,0.003904,-11.96125,-18.50625,6.37875,-25.152,-19.712002,-7.576,concentric,5,3.0,36302.0,241021.0,85213.0,238850.0,94980.0
2026-04-14 17:54:04.541464,604535,1609506738204761,4338174378,0.671488,-0.54656,0.003904,22.0325,-19.66125,4.82125,-25.152,-19.712002,-7.576,concentric,5,3.0,36302.0,241021.0,85213.0,238850.0,94980.0
2026-04-14 17:54:04.550373,604536,1609506738213724,4338183089,0.716384,-0.044896,-0.091744,57.715,-21.0525,12.792501,-25.216002,-19.304,-7.512001,concentric,5,3.0,36302.0,241021.0,85213.0,238850.0,94980.0
2026-04-14 17:54:04.565411,604537,1609506738228241,4338198006,0.808128,0.031232,-0.244,65.73875,-20.772501,9.8875,-25.792002,-19.552,-6.064,concentric,5,3.0,36302.0,241021.0,85213.0,238850.0,94980.0
2026-04-14 17:54:04.576730,604538,1609506738237190,4338206706,0.808128,0.031232,-0.244,40.013752,-17.66625,-2.695,-25.792002,-19.552,-6.064,concentric,5,3.0,36302.0,241021.0,85213.0,238850.0,94980.0
2026-04-14 17:54:04.603995,604549,1609506738251860,4338221697,0.796416,-0.349408,0.0488,12.2325,-10.0975,-5.38125,-25.616001,-19.456001,-8.576,concentric,5,3.0,32118.0,210280.0,77188.0,212533.0,84648.0
2026-04-14 17:54:04.607212,604550,1609506738260821,4338230463,0.796416,-0.349408,0.0488,1.4,-8.2075,5.46,-25.616001,-19.456001,-8.576,concentric,5,3.0,32118.0,210280.0,77188.0,212533.0,84648.0
2026-04-14 17:54:04.612726,604551,1609506738275359,4338245398,0.739808,-0.300608,-0.259616,15.417501,-3.75375,7.2275,-25.312,-19.2,-8.624001,concentric,5,3.0,32118.0,210280.0,77188.0,212533.0,84648.0
2026-04-14 17:54:04.621970,604552,1609506738284345,4338254091,0.739808,-0.300608,-0.259616,33.18,-1.42625,-0.58625,-25.312,-19.2,-8.624001,concentric,5,3.0,32118.0,210280.0,77188.0,212533.0,84648.0
2026-04-14 17:54:04.631577,604553,1609506738293393,4338262808,0.845216,-0.060512,0.091744,27.93875,1.19,1.75,-25.216002,-19.232,-9.336,concentric,5,3.0,32118.0,210280.0,77188.0,212533.0,84648.0
2026-04-14 17:54:04.648230,604554,1609506738307901,4338277693,0.813984,-0.216672,-0.1464,15.7675,4.62,1.8725,-25.216002,-19.232,-8.480001,concentric,5,3.0,32118.0,210280.0,77188.0,212533.0,84648.0
2026-04-14 17:54:04.654493,604555,1609506738317010,4338286421,0.815936,-0.216672,-0.1464,3.43875,6.79,10.50875,-25.288002,-18.6,-8.480001,concentric,5,3.0,32118.0,210280.0,77188.0,212533.0,84648.0
2026-04-14 17:54:04.670774,604556,1609506738331519,4338301326,0.792512,-0.132736,-0.33184,-2.1525,12.495,6.95625,-25.480001,-18.84,-9.336,concentric,5,3.0,32118.0,210280.0,77188.0,212533.0,84648.0
2026-04-14 17:54:04.677752,604557,1609506738340459,4338310042,0.792512,-0.132736,-0.33184,2.5725,17.0975,-2.1525,-25.480001,-18.84,-9.336,concentric,5,3.0,32118.0,210280.0,77188.0,212533.0,84648.0
2026-04-14 17:54:04.708766,604568,1609506738349486,4338318779,0.929152,-0.101504,-0.232288,-8.47875,19.46875,-7.51625,-26.016,-18.704,-12.232,concentric,5,3.0,31834.0,207404.0,76248.0,210447.0,83456.0
2026-04-14 17:54:04.709795,604569,1609506738364084,4338333800,0.929152,-0.101504,-0.232288,-34.195,23.24,-17.0275,-26.016,-18.704,-12.232,concentric,5,3.0,31834.0,207404.0,76248.0,210447.0,83456.0
2026-04-14 17:54:04.709931,604570,1609506738373226,4338342521,0.864736,-0.365024,-0.187392,-44.0125,26.4775,-14.14875,-25.632002,-18.880001,-8.352,concentric,5,3.0,31834.0,207404.0,76248.0,210447.0,83456.0
2026-04-14 17:54:04.726934,604571,1609506738387699,4338357453,0.864736,-0.365024,-0.187392,-37.61625,27.098751,-3.70125,-25.632002,-18.880001,-8.352,concentric,5,3.0,31834.0,207404.0,76248.0,210447.0,83456.0
2026-04-14 17:54:04.734413,604572,1609506738396638,4338366157,0.948672,-0.240096,0.015616,-22.26875,31.2375,-2.24875,-25.304,-18.616001,-10.664001,concentric,5,3.0,31834.0,207404.0,76248.0,210447.0,83456.0
2026-04-14 17:54:04.771491,604573,1609506738411171,4338381251,1.032608,-0.033184,0.11712,-7.46375,30.975,-4.8825,-25.424002,-18.776001,-6.824,concentric,5,3.0,31834.0,207404.0,76248.0,210447.0,83456.0
2026-04-14 17:54:04.796912,604574,1609506738420088,4338389960,1.032608,-0.033184,0.11712,-1.68875,30.45875,-4.27,-25.424002,-18.776001,-6.824,concentric,5,3.0,31834.0,207404.0,76248.0,210447.0,83456.0
2026-04-14 17:54:04.819449,604575,1609506738428995,4338398685,1.001376,-0.15616,0.095648,1.30375,29.9075,-0.2625,-27.472002,-18.160002,-6.520001,concentric,5,3.0,31834.0,207404.0,76248.0,210447.0,83456.0
2026-04-14 17:54:04.848959,604586,1609506738443860,4338413643,1.001376,-0.15616,0.095648,7.93625,30.87875,-2.54625,-27.048,-18.160002,-6.520001,concentric,5,3.0,33970.0,227982.0,79568.0,229528.0,87130.0
2026-04-14 17:54:04.851381,604587,1609506738452856,4338422432,1.009184,-0.085888,-0.056608,15.190001,34.18625,-7.44625,-27.336,-17.872002,-6.824,concentric,5,3.0,33970.0,227982.0,79568.0,229528.0,87130.0
2026-04-14 17:54:04.853924,604588,1609506738467439,4338437353,1.009184,-0.085888,-0.056608,10.325,37.5375,-11.12125,-27.336,-17.872002,-6.824,concentric,5,3.0,33970.0,227982.0,79568.0,229528.0,87130.0
2026-04-14 17:54:04.856317,604589,1609506738476370,4338446044,1.071648,-0.081984,0.05856,4.3925,38.701252,-13.5975,-26.432001,-17.992,-7.056,concentric,5,3.0,33970.0,227982.0,79568.0,229528.0,87130.0
2026-04-14 17:54:04.858957,604590,1609506738485345,4338454727,1.071648,-0.081984,0.05856,1.02375,35.98875,-19.17125,-26.432001,-17.992,-7.056,concentric,5,3.0,33970.0,227982.0,79568.0,229528.0,87130.0
2026-04-14 17:54:04.861501,604591,1609506738499952,4338469687,1.153632,-0.103456,0.111264,-7.97125,33.1975,-23.065,-26.256,-18.264,-6.576,concentric,5,3.0,33970.0,227982.0,79568.0,229528.0,87130.0
2026-04-14 17:54:04.864359,604592,1609506738509070,4338478469,1.153632,-0.242048,0.150304,-14.875,31.01,-21.1575,-26.256,-18.264,-6.576,concentric,5,3.0,33970.0,227982.0,79568.0,229528.0,87130.0
2026-04-14 17:54:04.866962,604593,1609506738523741,4338493399,1.202432,-0.242048,0.150304,-16.52,31.14125,-18.31375,-26.136002,-18.144001,-4.608,concentric,5,3.0,33970.0,227982.0,79568.0,229528.0,87130.0
2026-04-14 17:54:04.871951,604594,1609506738532741,4338502138,1.065792,-0.13664,-0.054656,-12.8275,31.85875,-20.30875,-26.12,-17.880001,-6.32,concentric,5,3.0,33970.0,227982.0,79568.0,229528.0,87130.0
2026-04-14 17:54:04.927748,604605,1609506738547883,4338517132,1.065792,-0.13664,-0.054656,-8.19,30.31875,-21.65625,-26.12,-17.880001,-6.32,concentric,5,3.0,39373.0,262089.0,89692.0,259026.0,99243.0
2026-04-14 17:54:04.933226,604606,1609506738556848,4338525854,1.157536,-0.042944,0.142496,-5.25875,28.83125,-16.07375,-25.816002,-18.344002,-5.416,concentric,5,3.0,39373.0,262089.0,89692.0,259026.0,99243.0
2026-04-14 17:54:04.935756,604607,1609506738565906,4338534584,1.157536,-0.042944,0.142496,-11.59375,28.58625,-12.17125,-25.816002,-18.344002,-5.416,concentric,5,3.0,39373.0,262089.0,89692.0,259026.0,99243.0
2026-04-14 17:54:04.938163,604608,1609506738580790,4338549534,1.09312,-0.179584,-0.113216,-22.42625,28.77,-15.8725,-25.896002,-18.528002,-5.344,concentric,5,3.0,39373.0,262089.0,89692.0,259026.0,99243.0
2026-04-14 17:54:04.940790,604609,1609506738590156,4338560298,1.089216,-0.128832,-0.03904,-21.7,27.991251,-15.575,-25.752,-18.536001,-3.72,concentric,5,3.0,39373.0,262089.0,89692.0,259026.0,99243.0
2026-04-14 17:54:04.943222,604610,1609506738599091,4338569042,1.089216,-0.128832,-0.03904,-14.69125,26.32,-15.89,-25.752,-18.536001,-3.72,concentric,5,3.0,39373.0,262089.0,89692.0,259026.0,99243.0
2026-04-14 17:54:04.949597,604611,1609506738613615,4338581986,1.1224,-0.023424,0.121024,-10.40375,25.69875,-16.8875,-25.952002,-18.208,-4.2,concentric,5,3.0,39373.0,262089.0,89692.0,259026.0,99243.0
2026-04-14 17:54:04.962022,604612,1609506738622943,4338592810,1.1224,-0.023424,0.121024,-14.5775,23.89625,-19.45125,-25.952002,-18.208,-4.2,concentric,5,3.0,39373.0,262089.0,89692.0,259026.0,99243.0
2026-04-14 17:54:04.977992,604613,1609506738637435,4338605810,1.188768,-0.17568,0.07808,-15.8375,25.34,-16.63375,-25.792002,-18.52,-7.696001,concentric,5,3.0,39373.0,262089.0,89692.0,259026.0,99243.0
2026-04-14 17:54:05.006410,604624,1609506738646988,4338616671,1.188768,-0.17568,0.07808,-10.96375,26.76625,-16.91375,-25.792002,-18.52,-7.696001,concentric,5,3.0,45127.0,289699.0,99747.0,281495.0,110744.0
2026-04-14 17:54:05.009196,604625,1609506738656012,4338625439,1.216096,-0.232288,0.003904,-5.85375,30.02125,-14.98875,-25.104002,-19.224,-6.024,concentric,5,3.0,45127.0,289699.0,99747.0,281495.0,110744.0
2026-04-14 17:54:05.011461,604626,1609506738670538,4338640391,1.104832,-0.121024,-0.138592,1.65375,30.10875,-17.0975,-23.056002,-18.688002,-4.568,concentric,5,3.0,45127.0,289699.0,99747.0,281495.0,110744.0
2026-04-14 17:54:05.016526,604627,1609506738679597,4338649112,1.104832,-0.121024,-0.138592,4.89125,28.67375,-13.39625,-24.352001,-18.688002,-4.568,concentric,5,3.0,45127.0,289699.0,99747.0,281495.0,110744.0
2026-04-14 17:54:05.033251,604628,1609506738694101,4338664003,1.14192,-0.162016,0.050752,-0.455,27.67625,-11.935,-24.632002,-19.0,-5.512,concentric,5,3.0,45127.0,289699.0,99747.0,281495.0,110744.0
2026-04-14 17:54:05.040814,604629,1609506738703073,4338672695,1.14192,-0.162016,0.050752,-5.59125,25.90875,-10.8675,-24.632002,-19.0,-5.512,concentric,5,3.0,45127.0,289699.0,99747.0,281495.0,110744.0
2026-04-14 17:54:05.052034,604630,1609506738712071,4338681387,1.104832,-0.20496,-0.013664,-5.15375,24.35125,-10.78875,-25.432001,-18.744001,-4.432,concentric,5,3.0,45127.0,289699.0,99747.0,281495.0,110744.0
2026-04-14 17:54:05.062875,604631,1609506738726719,4338696360,1.104832,-0.20496,-0.013664,-4.33125,23.19625,-8.1025,-25.432001,-18.744001,-4.432,concentric,5,3.0,45127.0,289699.0,99747.0,281495.0,110744.0
2026-04-14 17:54:05.074596,604632,1609506738735804,4338705116,1.235616,-0.242048,-0.013664,-4.45375,21.5775,-5.495,-24.6,-19.088001,-5.584,concentric,5,3.0,45127.0,289699.0,99747.0,281495.0,110744.0
2026-04-14 17:54:05.110191,604643,1609506738750395,4338720123,1.235616,-0.242048,-0.021472,-5.64375,18.41875,-4.7775,-24.6,-19.088001,-5.584,eccentric,5,3.0,48698.0,294848.0,105974.0,285636.0,117319.0
2026-04-14 17:54:05.111628,604644,1609506738759450,4338728927,1.2688,-0.267424,-0.021472,-13.51875,15.18125,-3.05375,-25.36,-18.696001,-5.2,eccentric,5,3.0,48698.0,294848.0,105974.0,285636.0,117319.0
2026-04-14 17:54:05.113962,604645,1609506738768568,4338737682,1.2688,-0.267424,-0.021472,-16.72125,10.73625,0.105,-25.36,-18.696001,-5.2,eccentric,5,3.0,48698.0,294848.0,105974.0,285636.0,117319.0
2026-04-14 17:54:05.142781,604646,1609506738783161,4338752613,1.192672,-0.27328,-0.003904,-13.09,7.525,1.26875,-25.792002,-18.664001,-4.04,eccentric,5,3.0,48698.0,294848.0,105974.0,285636.0,117319.0
2026-04-14 17:54:05.145075,604647,1609506738792098,4338761310,1.243424,-0.251808,-0.044896,-8.715,4.445,3.7275,-24.840002,-18.712002,-7.112001,eccentric,5,3.0,48698.0,294848.0,105974.0,285636.0,117319.0
2026-04-14 17:54:05.147740,604648,1609506738806713,4338776174,1.243424,-0.251808,-0.044896,-11.2175,2.84375,6.57125,-24.840002,-18.712002,-7.112001,eccentric,5,3.0,48698.0,294848.0,105974.0,285636.0,117319.0
2026-04-14 17:54:05.172757,604649,1609506738815739,4338784952,1.237568,-0.281088,-0.080032,-9.695,0.42875,9.3625,-24.944,-18.992,-5.224001,eccentric,5,3.0,48698.0,294848.0,105974.0,285636.0,117319.0
2026-04-14 17:54:05.180284,604650,1609506738830338,4338799832,1.237568,-0.281088,-0.080032,-4.05125,-2.63375,11.33125,-24.944,-18.992,-5.224001,eccentric,5,3.0,48698.0,294848.0,105974.0,285636.0,117319.0
2026-04-14 17:54:05.182787,604651,1609506738839306,4338808631,1.1224,-0.230336,-0.152256,0.2625,-4.445,13.37875,-24.968,-18.512001,-4.6,eccentric,5,3.0,48698.0,294848.0,105974.0,285636.0,117319.0
2026-04-14 17:54:05.215190,604662,1609506738848756,4338817541,1.1224,-0.230336,-0.152256,3.7975,-6.9125,14.980001,-24.968,-18.512001,-4.6,eccentric,5,3.0,49227.0,293446.0,106934.0,283664.0,118160.0
2026-04-14 17:54:05.217977,604663,1609506738863688,4338832448,1.186816,-0.288896,-0.042944,1.855,-9.03,15.82875,-24.992,-18.488,-5.376,eccentric,5,3.0,49227.0,293446.0,106934.0,283664.0,118160.0
2026-04-14 17:54:05.220455,604664,1609506738873000,4338843233,1.098976,-0.23424,-0.154208,6.965,-11.3225,17.5175,-25.368002,-18.272001,-6.76,eccentric,5,3.0,49227.0,293446.0,106934.0,283664.0,118160.0
2026-04-14 17:54:05.222918,604665,1609506738881931,4338851948,1.098976,-0.23424,-0.154208,16.135,-13.79,19.88,-25.368002,-18.272001,-6.76,eccentric,5,3.0,49227.0,293446.0,106934.0,283664.0,118160.0
2026-04-14 17:54:05.234133,604666,1609506738896592,4338866929,1.13216,-0.183488,-0.050752,19.775,-16.975,20.825,-25.368002,-18.344002,-4.816001,eccentric,5,3.0,49227.0,293446.0,106934.0,283664.0,118160.0
2026-04-14 17:54:05.245218,604667,1609506738905549,4338875616,1.13216,-0.183488,-0.050752,15.81125,-20.265,20.1075,-25.368002,-18.344002,-4.816001,eccentric,5,3.0,49227.0,293446.0,106934.0,283664.0,118160.0
2026-04-14 17:54:05.256689,604668,1609506738920044,4338888454,1.157536,-0.230336,-0.001952,8.82875,-23.2575,18.2525,-26.384,-17.808,-5.08,eccentric,5,3.0,49227.0,293446.0,106934.0,283664.0,118160.0
2026-04-14 17:54:05.267816,604669,1609506738929389,4338899196,1.157536,-0.230336,-0.001952,0.525,-25.38375,14.49,-26.384,-17.808,-5.08,eccentric,5,3.0,49227.0,293446.0,106934.0,283664.0,118160.0
2026-04-14 17:54:05.275377,604670,1609506738938446,4338907911,1.147776,-0.249856,0.089792,-6.85125,-26.075,11.935,-26.568,-18.176,-6.064,eccentric,5,3.0,49227.0,293446.0,106934.0,283664.0,118160.0
2026-04-14 17:54:05.309219,604681,1609506738953057,4338923276,1.028704,-0.296704,0.044896,-7.1925,-26.775,14.41125,-25.824001,-18.160002,-6.12,eccentric,5,3.0,43288.0,275901.0,97263.0,269385.0,107405.0
2026-04-14 17:54:05.311378,604682,1609506738962060,4338932042,1.028704,-0.296704,0.044896,0.5425,-27.6325,15.35625,-25.824001,-18.160002,-6.12,eccentric,5,3.0,43288.0,275901.0,97263.0,269385.0,107405.0
2026-04-14 17:54:05.316672,604683,1609506738976644,4338947013,1.124352,-0.158112,0.054656,9.065,-28.1225,13.57125,-25.856,-17.784,-6.496,eccentric,5,3.0,43288.0,275901.0,97263.0,269385.0,107405.0
2026-04-14 17:54:05.324030,604684,1609506738985623,4338955701,1.124352,-0.158112,0.054656,10.64875,-29.015,14.70875,-25.856,-17.784,-6.496,eccentric,5,3.0,43288.0,275901.0,97263.0,269385.0,107405.0
2026-04-14 17:54:05.335500,604685,1609506739000136,4338968608,1.03456,-0.242048,-0.222528,3.4125,-30.44125,14.44625,-26.28,-17.368,-5.76,eccentric,5,3.0,43288.0,275901.0,97263.0,269385.0,107405.0
2026-04-14 17:54:05.346687,604686,1609506739009585,4338979406,1.03456,-0.242048,-0.222528,-4.27,-32.795002,15.21625,-26.28,-17.368,-5.76,eccentric,5,3.0,43288.0,275901.0,97263.0,269385.0,107405.0
2026-04-14 17:54:05.358970,604687,1609506739018667,4338988103,1.136064,-0.232288,0.081984,-10.10625,-35.945,15.1025,-26.880001,-17.072,-6.352,eccentric,5,3.0,43288.0,275901.0,97263.0,269385.0,107405.0
2026-04-14 17:54:05.372752,604688,1609506739033152,4339003009,1.110688,-0.363072,-0.025376,-12.06625,-36.085,12.215,-26.304,-17.536001,-7.144001,eccentric,5,3.0,43288.0,275901.0,97263.0,269385.0,107405.0
2026-04-14 17:54:05.379360,604689,1609506739042097,4339011729,1.110688,-0.363072,-0.025376,-9.75625,-34.71125,10.885,-26.304,-17.536001,-7.144001,eccentric,5,3.0,43288.0,275901.0,97263.0,269385.0,107405.0
2026-04-14 17:54:05.407884,604700,1609506739056955,4339026722,1.091168,-0.265472,0.07808,0.7875,-34.3525,15.855001,-27.032001,-17.28,-6.072001,eccentric,5,3.0,39222.0,261595.0,90132.0,257333.0,99272.0
2026-04-14 17:54:05.410269,604701,1609506739066084,4339035460,1.091168,-0.265472,0.07808,10.71,-33.285,17.8325,-27.032001,-17.28,-6.072001,eccentric,5,3.0,39222.0,261595.0,90132.0,257333.0,99272.0
2026-04-14 17:54:05.412891,604702,1609506739075111,4339044191,1.03456,-0.220576,-0.179584,13.055,-33.4075,19.06625,-27.080002,-16.696001,-6.248,eccentric,5,3.0,39222.0,261595.0,90132.0,257333.0,99272.0
2026-04-14 17:54:05.427936,604703,1609506739089635,4339059095,1.03456,-0.220576,-0.179584,8.26875,-32.6375,18.26125,-27.080002,-16.696001,-6.248,eccentric,5,3.0,39222.0,261595.0,90132.0,257333.0,99272.0
2026-04-14 17:54:05.436442,604704,1609506739098695,4339067784,1.04432,-0.249856,-0.171776,0.28875,-32.7075,18.22625,-26.224,-17.032001,-6.424,eccentric,5,3.0,39222.0,261595.0,90132.0,257333.0,99272.0
2026-04-14 17:54:05.450123,604705,1609506739113188,4339082793,1.065792,-0.320128,-0.02928,-7.175,-31.78875,17.5875,-26.224,-17.032001,-7.408001,eccentric,5,3.0,39222.0,261595.0,90132.0,257333.0,99272.0
2026-04-14 17:54:05.458852,604706,1609506739122143,4339091654,1.065792,-0.320128,-0.02928,-11.0775,-30.7125,16.0825,-27.568,-17.08,-7.408001,eccentric,5,3.0,39222.0,261595.0,90132.0,257333.0,99272.0
2026-04-14 17:54:05.469165,604707,1609506739131073,4339100345,1.065792,-0.320128,-0.02928,-7.72625,-30.02125,17.325,-27.568,-17.08,-7.408001,eccentric,5,3.0,39222.0,261595.0,90132.0,257333.0,99272.0
2026-04-14 17:54:05.507990,604708,1609506739145611,4339115244,1.038464,-0.294752,-0.12688,1.1725,-29.47,19.565,-26.552002,-17.032001,-7.816001,eccentric,5,3.0,39222.0,261595.0,90132.0,257333.0,99272.0
2026-04-14 17:54:05.598260,604719,1609506739154716,4339123979,0.99552,-0.121024,0.03904,6.5275,-29.93375,20.22125,-26.632002,-17.072,-8.56,eccentric,5,3.0,37613.0,253098.0,87107.0,250761.0,95896.0
2026-04-14 17:54:05.600753,604720,1609506739169230,4339138868,0.99552,-0.121024,0.03904,2.82625,-29.33875,18.05125,-26.632002,-17.072,-8.56,eccentric,5,3.0,37613.0,253098.0,87107.0,250761.0,95896.0
2026-04-14 17:54:05.603089,604721,1609506739178441,4339147690,0.979904,-0.177632,-0.130784,-3.1675,-28.34125,16.1525,-26.752,-17.04,-7.616,eccentric,5,3.0,37613.0,253098.0,87107.0,250761.0,95896.0
2026-04-14 17:54:05.605443,604722,1609506739187369,4339156386,0.979904,-0.177632,-0.130784,-9.79125,-27.86875,13.8425,-26.752,-17.04,-7.616,eccentric,5,3.0,37613.0,253098.0,87107.0,250761.0,95896.0
2026-04-14 17:54:05.608252,604723,1609506739201869,4339171277,1.030656,-0.35136,-0.08784,-11.17375,-25.0775,11.3925,-26.920002,-16.960001,-8.0,eccentric,5,3.0,37613.0,253098.0,87107.0,250761.0,95896.0
2026-04-14 17:54:05.613254,604724,1609506739210804,4339180030,1.030656,-0.35136,-0.08784,-4.76,-23.1,10.47375,-26.920002,-16.960001,-8.0,eccentric,5,3.0,37613.0,253098.0,87107.0,250761.0,95896.0
2026-04-14 17:54:05.615791,604725,1609506739225299,4339194933,0.99552,-0.247904,-0.015616,1.63625,-20.85125,9.3625,-27.032001,-17.04,-8.216001,eccentric,5,3.0,37613.0,253098.0,87107.0,250761.0,95896.0
2026-04-14 17:54:05.617669,604726,1609506739234243,4339203637,1.028704,-0.25376,0.001952,3.54375,-19.6525,9.56375,-27.032001,-17.272001,-9.136001,eccentric,5,3.0,37613.0,253098.0,87107.0,250761.0,95896.0
2026-04-14 17:54:05.647636,604738,1609506739249225,4339218875,1.028704,-0.25376,0.001952,0.32375,-18.76875,9.8175,-27.000002,-17.272001,-9.136001,eccentric,5,3.0,38367.0,255044.0,88418.0,252535.0,97584.0
2026-04-14 17:54:05.650078,604739,1609506739258307,4339227585,0.952576,-0.251808,-0.163968,1.2425,-17.22,10.885,-27.024002,-17.088001,-8.016001,eccentric,5,3.0,38367.0,255044.0,88418.0,252535.0,97584.0
2026-04-14 17:54:05.654990,604740,1609506739267291,4339236314,0.952576,-0.251808,-0.163968,0.07,-13.13375,7.27125,-27.024002,-17.088001,-8.016001,eccentric,5,3.0,38367.0,255044.0,88418.0,252535.0,97584.0
2026-04-14 17:54:05.657640,604741,1609506739281989,4339251384,0.9272,-0.245952,0.003904,0.44625,-7.3325,3.08,-26.696001,-16.912,-7.400001,eccentric,5,3.0,38367.0,255044.0,88418.0,252535.0,97584.0
2026-04-14 17:54:05.660119,604742,1609506739291113,4339260250,0.9272,-0.245952,0.003904,1.46125,-3.5875,4.2,-26.696001,-16.912,-7.400001,eccentric,5,3.0,38367.0,255044.0,88418.0,252535.0,97584.0
2026-04-14 17:54:05.662541,604743,1609506739305628,4339275187,0.923296,-0.255712,-0.050752,-0.30625,-2.73,2.1,-26.920002,-16.592001,-7.168,eccentric,5,3.0,38367.0,255044.0,88418.0,252535.0,97584.0
2026-04-14 17:54:05.665637,604744,1609506739314583,4339283864,0.93696,-0.238144,-0.083936,0.02625,-1.68,1.42625,-26.920002,-16.872002,-8.976001,eccentric,5,3.0,38367.0,255044.0,88418.0,252535.0,97584.0
2026-04-14 17:54:05.667677,604745,1609506739323558,4339292620,0.93696,-0.238144,-0.083936,2.2225,1.04125,-0.63,-27.752,-16.872002,-8.976001,eccentric,5,3.0,38367.0,255044.0,88418.0,252535.0,97584.0
2026-04-14 17:54:05.675402,604746,1609506739338077,4339307536,0.935008,-0.249856,-0.07808,2.96625,4.2,-5.41625,-27.376001,-17.112001,-6.952,eccentric,5,3.0,38367.0,255044.0,88418.0,252535.0,97584.0
2026-04-14 17:54:05.685625,604747,1609506739347029,4339316235,0.935008,-0.249856,-0.07808,-0.35875,8.5925,-12.20625,-27.376001,-17.112001,-6.952,eccentric,5,3.0,38367.0,255044.0,88418.0,252535.0,97584.0
2026-04-14 17:54:05.712769,604758,1609506739361619,4339331168,0.976,-0.189344,-0.01952,-3.745,12.3725,-15.9425,-27.36,-17.480001,-5.672,eccentric,5,3.0,38669.0,254876.0,88870.0,251817.0,98109.0
2026-04-14 17:54:05.715731,604759,1609506739370624,4339339884,0.976,-0.189344,-0.01952,-10.4475,13.685,-17.0275,-27.36,-17.480001,-5.672,eccentric,5,3.0,38669.0,254876.0,88870.0,251817.0,98109.0
2026-04-14 17:54:05.723217,604760,1609506739385127,4339354898,0.870592,-0.443104,0.128832,-14.84875,15.54,-16.47625,-27.392002,-17.288,-5.432,eccentric,5,3.0,38669.0,254876.0,88870.0,251817.0,98109.0
2026-04-14 17:54:05.731666,604761,1609506739394089,4339363597,0.870592,-0.443104,0.128832,-3.33375,16.98375,-10.54375,-27.392002,-17.288,-5.432,eccentric,5,3.0,38669.0,254876.0,88870.0,251817.0,98109.0
2026-04-14 17:54:05.740516,604762,1609506739403064,4339372280,0.774944,-0.220576,-0.203008,17.80625,19.9325,-7.27125,-27.2,-17.904001,-8.928,eccentric,5,3.0,38669.0,254876.0,88870.0,251817.0,98109.0
2026-04-14 17:54:05.754536,604763,1609506739417550,4339387251,0.776896,-0.10736,-0.261568,21.13125,25.38375,-11.2525,-26.680002,-18.184,-7.048,eccentric,5,3.0,38669.0,254876.0,88870.0,251817.0,98109.0
2026-04-14 17:54:05.762783,604764,1609506739426570,4339395939,0.776896,-0.10736,-0.261568,7.2625,28.49,-17.54375,-26.680002,-18.184,-7.048,eccentric,5,3.0,38669.0,254876.0,88870.0,251817.0,98109.0
2026-04-14 17:54:05.779025,604765,1609506739441079,4339410845,0.817888,-0.236192,-0.201056,-17.78875,28.93625,-23.26625,-25.968,-18.328001,-6.984,eccentric,5,3.0,38669.0,254876.0,88870.0,251817.0,98109.0
2026-04-14 17:54:05.810444,604776,1609506739450529,4339419884,0.817888,-0.236192,-0.201056,-36.47,29.26,-28.23625,-25.968,-18.328001,-6.984,eccentric,5,3.0,43870.0,270961.0,98035.0,264937.0,108406.0
2026-04-14 17:54:05.812763,604777,1609506739459602,4339428756,0.782752,-0.378688,0.15616,-33.92375,29.741251,-24.75375,-26.712002,-18.672,-5.28,eccentric,5,3.0,43870.0,270961.0,98035.0,264937.0,108406.0
2026-04-14 17:54:05.815765,604778,1609506739474161,4339443685,0.782752,-0.378688,0.15616,-13.615,31.57875,-22.11125,-26.712002,-18.672,-5.28,eccentric,5,3.0,43870.0,270961.0,98035.0,264937.0,108406.0
2026-04-14 17:54:05.822411,604779,1609506739483092,4339452395,0.671488,-0.25376,-0.27328,10.01875,33.69625,-21.76125,-26.608002,-18.960001,-4.36,eccentric,5,3.0,43870.0,270961.0,98035.0,264937.0,108406.0
2026-04-14 17:54:05.834428,604780,1609506739497591,4339467365,0.856928,0.044896,-0.286944,14.875,36.26,-24.89375,-26.376001,-19.248001,-5.168,eccentric,5,3.0,43870.0,270961.0,98035.0,264937.0,108406.0
2026-04-14 17:54:05.844037,604781,1609506739506823,4339476079,0.856928,0.044896,-0.286944,0.2275,36.16375,-28.5425,-26.376001,-19.248001,-5.168,eccentric,5,3.0,43870.0,270961.0,98035.0,264937.0,108406.0
2026-04-14 17:54:05.898295,604782,1609506739515809,4339484765,0.569984,-0.17568,0.21472,-27.116251,36.82875,-35.7,-26.376001,-19.248001,-6.488,eccentric,5,3.0,43870.0,270961.0,98035.0,264937.0,108406.0
2026-04-14 17:54:05.900797,604783,1609506739530400,4339499704,0.569984,-0.17568,0.21472,-38.17625,38.5175,-41.97375,-25.912,-20.008001,-6.488,eccentric,5,3.0,43870.0,270961.0,98035.0,264937.0,108406.0
2026-04-14 17:54:05.903290,604784,1609506739539312,4339508427,0.562176,-0.411872,-0.056608,-31.053751,44.9225,-52.6925,-25.008001,-20.832,-4.512,eccentric,5,3.0,43870.0,270961.0,98035.0,264937.0,108406.0
2026-04-14 17:54:05.930590,604795,1609506739553991,4339523438,0.562176,-0.411872,-0.056608,-13.65,46.0775,-54.7225,-25.008001,-20.832,-4.512,eccentric,5,3.0,61827.0,299927.0,126421.0,289054.0,138263.0
2026-04-14 17:54:05.933086,604796,1609506739562897,4339532165,1.011136,-0.099552,-0.347456,11.6375,43.32125,-37.52,-24.944,-20.856,-2.576,eccentric,5,3.0,61827.0,299927.0,126421.0,289054.0,138263.0
2026-04-14 17:54:05.935504,604797,1609506739577451,4339547110,0.933056,-0.052704,0.027328,12.18875,43.53125,-37.66875,-24.248001,-21.240002,-5.0,eccentric,5,3.0,61827.0,299927.0,126421.0,289054.0,138263.0
2026-04-14 17:54:05.938086,604798,1609506739586400,4339555853,0.933056,-0.052704,0.027328,-26.62625,51.87875,-44.70375,-24.248001,-21.240002,-5.0,eccentric,5,3.0,61827.0,299927.0,126421.0,289054.0,138263.0
2026-04-14 17:54:05.940584,604799,1609506739595447,4339564532,0.933056,-0.052704,0.027328,-55.57125,59.43875,-56.2275,-24.248001,-21.240002,-5.0,eccentric,5,3.0,61827.0,299927.0,126421.0,289054.0,138263.0
2026-04-14 17:54:05.947821,604800,1609506739609979,4339579497,0.609024,-0.372832,0.308416,-47.04875,60.9175,-53.47125,-23.696001,-21.896002,-3.208,eccentric,5,3.0,61827.0,299927.0,126421.0,289054.0,138263.0
2026-04-14 17:54:05.955580,604801,1609506739619035,4339588213,0.587552,-0.245952,-0.074176,-24.75375,63.805,-46.375,-23.288002,-22.28,-3.176,eccentric,5,3.0,61827.0,299927.0,126421.0,289054.0,138263.0
2026-04-14 17:54:05.970254,604802,1609506739633569,4339603119,0.587552,-0.245952,-0.074176,2.19625,58.45,-45.33375,-23.288002,-22.28,-3.176,eccentric,5,3.0,61827.0,299927.0,126421.0,289054.0,138263.0
2026-04-14 17:54:05.980789,604803,1609506739642517,4339611809,0.540704,-0.07808,-0.12688,12.27625,49.4025,-43.1375,-22.784,-22.632002,-2.416,eccentric,5,3.0,61827.0,299927.0,126421.0,289054.0,138263.0
2026-04-14 17:54:06.014136,604814,1609506739651672,4339621067,0.540704,-0.07808,-0.12688,3.77125,41.9475,-43.28625,-22.784,-22.632002,-2.416,eccentric,5,3.0,106945.0,337155.0,183087.0,317590.0,195485.0
2026-04-14 17:54:06.014492,604815,1609506739666258,4339636084,0.706624,-0.0976,-0.001952,-6.7725,37.2925,-46.20875,-23.288002,-22.776001,-1.328,eccentric,5,3.0,106945.0,337155.0,183087.0,317590.0,195485.0
2026-04-14 17:54:06.016427,604816,1609506739675207,4339644775,0.706624,-0.0976,-0.001952,-9.66,38.0275,-51.58125,-23.288002,-22.776001,-1.328,eccentric,5,3.0,106945.0,337155.0,183087.0,317590.0,195485.0
2026-04-14 17:54:06.027509,604817,1609506739689812,4339659804,0.671488,-0.007808,0.269376,-7.7525,40.6875,-52.22,-22.76,-22.776001,-0.464,eccentric,5,3.0,106945.0,337155.0,183087.0,317590.0,195485.0
2026-04-14 17:54:06.036850,604818,1609506739698758,4339668517,0.642208,-0.267424,-0.054656,-18.97875,45.535,-48.50125,-22.408,-23.240002,-1.992,eccentric,5,3.0,106945.0,337155.0,183087.0,317590.0,195485.0
2026-04-14 17:54:06.050663,604819,1609506739713364,4339683448,0.642208,-0.267424,-0.054656,-27.2475,45.82375,-36.21625,-22.408,-23.240002,-1.992,eccentric,5,3.0,106945.0,337155.0,183087.0,317590.0,195485.0
2026-04-14 17:54:06.061569,604820,1609506739722364,4339692144,0.642208,-0.183488,-0.007808,-15.2075,41.22125,-25.33125,-21.344002,-24.032001,-1.072,eccentric,5,3.0,106945.0,337155.0,183087.0,317590.0,195485.0
2026-04-14 17:54:06.069230,604821,1609506739731398,4339700857,0.642208,-0.183488,-0.007808,-3.29875,33.6875,-22.6625,-21.344002,-24.032001,-1.072,eccentric,5,3.0,106945.0,337155.0,183087.0,317590.0,195485.0
2026-04-14 17:54:06.085724,604822,1609506739745917,4339715806,0.687104,0.12688,0.222528,7.0175,29.7675,-23.4675,-21.192001,-24.248001,-0.36,eccentric,5,3.0,106945.0,337155.0,183087.0,317590.0,195485.0
2026-04-14 17:54:06.114046,604833,1609506739754984,4339724575,0.687104,0.12688,0.222528,0.9975,31.115,-24.43875,-21.192001,-24.248001,-0.36,eccentric,5,3.0,138800.0,338230.0,220653.0,318905.0,231702.0
2026-04-14 17:54:06.116487,604834,1609506739769533,4339739549,0.733952,-0.15616,-0.132736,-10.115,30.5725,-21.44625,-21.792002,-23.736002,1.744,eccentric,5,3.0,138800.0,338230.0,220653.0,318905.0,231702.0
2026-04-14 17:54:06.123437,604835,1609506739778502,4339748329,0.767136,-0.154208,-0.054656,-16.58125,25.4975,-17.255,-21.008001,-24.296001,0.496,eccentric,5,3.0,138800.0,338230.0,220653.0,318905.0,231702.0
2026-04-14 17:54:06.129114,604836,1609506739787568,4339757009,0.767136,-0.154208,-0.054656,-16.52,17.7625,-10.99,-21.008001,-24.296001,0.496,eccentric,5,3.0,138800.0,338230.0,220653.0,318905.0,231702.0
2026-04-14 17:54:06.140561,604837,1609506739802083,4339772012,0.80032,-0.017568,0.30256,-10.9725,10.4125,-4.85625,-21.000002,-24.296001,-0.232,eccentric,5,3.0,138800.0,338230.0,220653.0,318905.0,231702.0
2026-04-14 17:54:06.148095,604838,1609506739811173,4339780757,0.80032,-0.017568,0.30256,-5.90625,8.37375,-3.89375,-21.000002,-24.296001,-0.232,eccentric,5,3.0,138800.0,338230.0,220653.0,318905.0,231702.0
2026-04-14 17:54:06.189624,604839,1609506739825668,4339795643,0.724192,-0.05856,0.115168,-0.06125,10.31625,-7.09625,-21.608002,-24.344002,1.0,eccentric,5,3.0,138800.0,338230.0,220653.0,318905.0,231702.0
2026-04-14 17:54:06.192002,604840,1609506739834587,4339804280,0.724192,-0.05856,0.115168,3.59625,12.10125,-9.05625,-21.608002,-24.344002,1.0,eccentric,5,3.0,138800.0,338230.0,220653.0,318905.0,231702.0
2026-04-14 17:54:06.196984,604841,1609506739849069,4339819169,0.835456,-0.154208,-0.099552,6.3875,11.375,-8.6975,-21.048,-24.472002,0.104,eccentric,5,3.0,138800.0,338230.0,220653.0,318905.0,231702.0
2026-04-14 17:54:06.267042,604852,1609506739858076,4339828033,0.808128,-0.124928,0.003904,4.92625,7.4025,-5.5125,-21.048,-24.472002,0.896,eccentric,5,3.0,142334.0,340140.0,225779.0,320826.0,236492.0
2026-04-14 17:54:06.269558,604853,1609506739867058,4339836751,0.808128,-0.124928,0.003904,2.1175,1.855,-0.2275,-20.84,-24.2,0.896,eccentric,5,3.0,142334.0,340140.0,225779.0,320826.0,236492.0
2026-04-14 17:54:06.272005,604854,1609506739881736,4339851683,0.825696,-0.046848,0.30256,0.245,-2.31875,3.47375,-21.528002,-24.296001,0.944,eccentric,5,3.0,142334.0,340140.0,225779.0,320826.0,236492.0
2026-04-14 17:54:06.274615,604855,1609506739890788,4339860410,0.825696,-0.046848,0.30256,0.14,-0.245,1.68875,-21.528002,-24.296001,0.944,eccentric,5,3.0,142334.0,340140.0,225779.0,320826.0,236492.0
2026-04-14 17:54:06.277033,604856,1609506739905281,4339875350,0.903776,-0.083936,0.085888,2.65125,5.48625,-1.46125,-21.688002,-24.392002,0.92,eccentric,5,3.0,142334.0,340140.0,225779.0,320826.0,236492.0
2026-04-14 17:54:06.281987,604857,1609506739914240,4339884048,0.903776,-0.083936,0.085888,0.5075,12.5125,-4.20875,-21.688002,-24.392002,0.92,eccentric,5,3.0,142334.0,340140.0,225779.0,320826.0,236492.0
2026-04-14 17:54:06.284577,604858,1609506739923265,4339892729,0.987712,-0.244,-0.113216,0.48125,16.59875,-5.635,-21.688002,-24.36,0.8,eccentric,5,3.0,142334.0,340140.0,225779.0,320826.0,236492.0
2026-04-14 17:54:06.286716,604859,1609506739937761,4339907611,0.987712,-0.244,-0.113216,2.03875,14.2275,-4.01625,-21.688002,-24.36,0.8,eccentric,5,3.0,142334.0,340140.0,225779.0,320826.0,236492.0
