pc_time,serial_num,sensor_ts,host_ts,ax,ay,az,gx,gy,gz,mx,my,mz,phase,rpe,weight_kg,ppg_a,ppg_b,ppg_c,ppg_d,ppg_e
2026-04-14 17:54:05.110191,604643,1609506738750395,4338720123,1.235616,-0.242048,-0.021472,-5.64375,18.41875,-4.7775,-24.6,-19.088001,-5.584,eccentric,5,3.0,48698.0,294848.0,105974.0,285636.0,117319.0
2026-04-14 17:54:05.111628,604644,1609506738759450,4338728927,1.2688,-0.267424,-0.021472,-13.51875,15.18125,-3.05375,-25.36,-18.696001,-5.2,eccentric,5,3.0,48698.0,294848.0,105974.0,285636.0,117319.0
2026-04-14 17:54:05.113962,604645,1609506738768568,4338737682,1.2688,-0.267424,-0.021472,-16.72125,10.73625,0.105,-25.36,-18.696001,-5.2,eccentric,5,3.0,48698.0,294848.0,105974.0,285636.0,117319.0
2026-04-14 17:54:05.142781,604646,1609506738783161,4338752613,1.192672,-0.27328,-0.003904,-13.09,7.525,1.26875,-25.792002,-18.664001,-4.04,eccentric,5,3.0,48698.0,294848.0,105974.0,285636.0,117319.0
2026-04-14 17:54:05.145075,604647,1609506738792098,4338761310,1.243424,-0.251808,-0.044896,-8.715,4.445,3.7275,-24.840002,-18.712002,-7.112001,eccentric,5,3.0,48698.0,294848.0,105974.0,285636.0,117319.0
2026-04-14 17:54:05.147740,604648,1609506738806713,4338776174,1.243424,-0.251808,-0.044896,-11.2175,2.84375,6.57125,-24.840002,-18.712002,-7.112001,eccentric,5,3.0,48698.0,294848.0,105974.0,285636.0,117319.0
2026-04-14 17:54:05.172757,604649,1609506738815739,4338784952,1.237568,-0.281088,-0.080032,-9.695,0.42875,9.3625,-24.944,-18.992,-5.224001,eccentric,5,3.0,48698.0,294848.0,105974.0,285636.0,117319.0
2026-04-14 17:54:05.180284,604650,1609506738830338,4338799832,1.237568,-0.281088,-0.080032,-4.05125,-2.63375,11.33125,-24.944,-18.992,-5.224001,eccentric,5,3.0,48698.0,294848.0,105974.0,285636.0,117319.0
2026-04-14 17:54:05.182787,604651,1609506738839306,4338808631,1.1224,-0.230336,-0.152256,0.2625,-4.445,13.37875,-24.968,-18.512001,-4.6,eccentric,5,3.0,48698.0,294848.0,105974.0,285636.0,117319.0
2026-04-14 17:54:05.215190,604662,1609506738848756,4338817541,1.1224,-0.230336,-0.152256,3.7975,-6.9125,14.980001,-24.968,-18.512001,-4.6,eccentric,5,3.0,49227.0,293446.0,106934.0,283664.0,118160.0
2026-04-14 17:54:05.217977,604663,1609506738863688,4338832448,1.186816,-0.288896,-0.042944,1.855,-9.03,15.82875,-24.992,-18.488,-5.376,eccentric,5,3.0,49227.0,293446.0,106934.0,283664.0,118160.0
2026-04-14 17:54:05.220455,604664,1609506738873000,4338843233,1.098976,-0.23424,-0.154208,6.965,-11.3225,17.5175,-25.368002,-18.272001,-6.76,eccentric,5,3.0,49227.0,293446.0,106934.0,283664.0,118160.0
2026-04-14 17:54:05.222918,604665,1609506738881931,4338851948,1.098976,-0.23424,-0.154208,16.135,-13.79,19.88,-25.368002,-18.272001,-6.76,eccentric,5,3.0,49227.0,293446.0,106934.0,283664.0,118160.0
2026-04-14 17:54:05.234133,604666,1609506738896592,4338866929,1.13216,-0.183488,-0.050752,19.775,-16.975,20.825,-25.368002,-18.344002,-4.816001,eccentric,5,3.0,49227.0,293446.0,106934.0,283664.0,118160.0
2026-04-14 17:54:05.245218,604667,1609506738905549,4338875616,1.13216,-0.183488,-0.050752,15.81125,-20.265,20.1075,-25.368002,-18.344002,-4.816001,eccentric,5,3.0,49227.0,293446.0,106934.0,283664.0,118160.0
2026-04-14 17:54:05.256689,604668,1609506738920044,4338888454,1.157536,-0.230336,-0.001952,8.82875,-23.2575,18.2525,-26.384,-17.808,-5.08,eccentric,5,3.0,49227.0,293446.0,106934.0,283664.0,118160.0
2026-04-14 17:54:05.267816,604669,1609506738929389,4338899196,1.157536,-0.230336,-0.001952,0.525,-25.38375,14.49,-26.384,-17.808,-5.08,eccentric,5,3.0,49227.0,293446.0,106934.0,283664.0,118160.0
2026-04-14 17:54:05.275377,604670,1609506738938446,4338907911,1.147776,-0.249856,0.089792,-6.85125,-26.075,11.935,-26.568,-18.176,-6.064,eccentric,5,3.0,49227.0,293446.0,106934.0,283664.0,118160.0
2026-04-14 17:54:05.309219,604681,1609506738953057,4338923276,1.028704,-0.296704,0.044896,-7.1925,-26.775,14.41125,-25.824001,-18.160002,-6.12,eccentric,5,3.0,43288.0,275901.0,97263.0,269385.0,107405.0
2026-04-14 17:54:05.311378,604682,1609506738962060,4338932042,1.028704,-0.296704,0.044896,0.5425,-27.6325,15.35625,-25.824001,-18.160002,-6.12,eccentric,5,3.0,43288.0,275901.0,97263.0,269385.0,107405.0
2026-04-14 17:54:05.316672,604683,1609506738976644,4338947013,1.124352,-0.158112,0.054656,9.065,-28.1225,13.57125,-25.856,-17.784,-6.496,eccentric,5,3.0,43288.0,275901.0,97263.0,269385.0,107405.0
2026-04-14 17:54:05.324030,604684,1609506738985623,4338955701,1.124352,-0.158112,0.054656,10.64875,-29.015,14.70875,-25.856,-17.784,-6.496,eccentric,5,3.0,43288.0,275901.0,97263.0,269385.0,107405.0
2026-04-14 17:54:05.335500,604685,1609506739000136,4338968608,1.03456,-0.242048,-0.222528,3.4125,-30.44125,14.44625,-26.28,-17.368,-5.76,eccentric,5,3.0,43288.0,275901.0,97263.0,269385.0,107405.0
2026-04-14 17:54:05.346687,604686,1609506739009585,4338979406,1.03456,-0.242048,-0.222528,-4.27,-32.795002,15.21625,-26.28,-17.368,-5.76,eccentric,5,3.0,43288.0,275901.0,97263.0,269385.0,107405.0
2026-04-14 17:54:05.358970,604687,1609506739018667,4338988103,1.136064,-0.232288,0.081984,-10.10625,-35.945,15.1025,-26.880001,-17.072,-6.352,eccentric,5,3.0,43288.0,275901.0,97263.0,269385.0,107405.0
2026-04-14 17:54:05.372752,604688,1609506739033152,4339003009,1.110688,-0.363072,-0.025376,-12.06625,-36.085,12.215,-26.304,-17.536001,-7.144001,eccentric,5,3.0,43288.0,275901.0,97263.0,269385.0,107405.0
2026-04-14 17:54:05.379360,604689,1609506739042097,4339011729,1.110688,-0.363072,-0.025376,-9.75625,-34.71125,10.885,-26.304,-17.536001,-7.144001,eccentric,5,3.0,43288.0,275901.0,97263.0,269385.0,107405.0
2026-04-14 17:54:05.407884,604700,1609506739056955,4339026722,1.091168,-0.265472,0.07808,0.7875,-34.3525,15.855001,-27.032001,-17.28,-6.072001,eccentric,5,3.0,39222.0,261595.0,90132.0,257333.0,99272.0
2026-04-14 17:54:05.410269,604701,1609506739066084,4339035460,1.091168,-0.265472,0.07808,10.71,-33.285,17.8325,-27.032001,-17.28,-6.072001,eccentric,5,3.0,39222.0,261595.0,90132.0,257333.0,99272.0
2026-04-14 17:54:05.412891,604702,1609506739075111,4339044191,1.03456,-0.220576,-0.179584,13.055,-33.4075,19.06625,-27.080002,-16.696001,-6.248,eccentric,5,3.0,39222.0,261595.0,90132.0,257333.0,99272.0
2026-04-14 17:54:05.427936,604703,1609506739089635,4339059095,1.03456,-0.220576,-0.179584,8.26875,-32.6375,18.26125,-27.080002,-16.696001,-6.248,eccentric,5,3.0,39222.0,261595.0,90132.0,257333.0,99272.0
2026-04-14 17:54:05.436442,604704,1609506739098695,4339067784,1.04432,-0.249856,-0.171776,0.28875,-32.7075,18.22625,-26.224,-17.032001,-6.424,eccentric,5,3.0,39222.0,261595.0,90132.0,257333.0,99272.0
2026-04-14 17:54:05.450123,604705,1609506739113188,4339082793,1.065792,-0.320128,-0.02928,-7.175,-31.78875,17.5875,-26.224,-17.032001,-7.408001,eccentric,5,3.0,39222.0,261595.0,90132.0,257333.0,99272.0
2026-04-14 17:54:05.458852,604706,1609506739122143,4339091654,1.065792,-0.320128,-0.02928,-11.0775,-30.7125,16.0825,-27.568,-17.08,-7.408001,eccentric,5,3.0,39222.0,261595.0,90132.0,257333.0,99272.0
2026-04-14 17:54:05.469165,604707,1609506739131073,4339100345,1.065792,-0.320128,-0.02928,-7.72625,-30.02125,17.325,-27.568,-17.08,-7.408001,eccentric,5,3.0,39222.0,261595.0,90132.0,257333.0,99272.0
2026-04-14 17:54:05.507990,604708,1609506739145611,4339115244,1.038464,-0.294752,-0.12688,1.1725,-29.47,19.565,-26.552002,-17.032001,-7.816001,eccentric,5,3.0,39222.0,261595.0,90132.0,257333.0,99272.0
2026-04-14 17:54:05.598260,604719,1609506739154716,4339123979,0.99552,-0.121024,0.03904,6.5275,-29.93375,20.22125,-26.632002,-17.072,-8.56,eccentric,5,3.0,37613.0,253098.0,87107.0,250761.0,95896.0
2026-04-14 17:54:05.600753,604720,1609506739169230,4339138868,0.99552,-0.121024,0.03904,2.82625,-29.33875,18.05125,-26.632002,-17.072,-8.56,eccentric,5,3.0,37613.0,253098.0,87107.0,250761.0,95896.0
2026-04-14 17:54:05.603089,604721,1609506739178441,4339147690,0.979904,-0.177632,-0.130784,-3.1675,-28.34125,16.1525,-26.752,-17.04,-7.616,eccentric,5,3.0,37613.0,253098.0,87107.0,250761.0,95896.0
2026-04-14 17:54:05.605443,604722,1609506739187369,4339156386,0.979904,-0.177632,-0.130784,-9.79125,-27.86875,13.8425,-26.752,-17.04,-7.616,eccentric,5,3.0,37613.0,253098.0,87107.0,250761.0,95896.0
2026-04-14 17:54:05.608252,604723,1609506739201869,4339171277,1.030656,-0.35136,-0.08784,-11.17375,-25.0775,11.3925,-26.920002,-16.960001,-8.0,eccentric,5,3.0,37613.0,253098.0,87107.0,250761.0,95896.0
2026-04-14 17:54:05.613254,604724,1609506739210804,4339180030,1.030656,-0.35136,-0.08784,-4.76,-23.1,10.47375,-26.920002,-16.960001,-8.0,eccentric,5,3.0,37613.0,253098.0,87107.0,250761.0,95896.0
2026-04-14 17:54:05.615791,604725,1609506739225299,4339194933,0.99552,-0.247904,-0.015616,1.63625,-20.85125,9.3625,-27.032001,-17.04,-8.216001,eccentric,5,3.0,37613.0,253098.0,87107.0,250761.0,95896.0
2026-04-14 17:54:05.617669,604726,1609506739234243,4339203637,1.028704,-0.25376,0.001952,3.54375,-19.6525,9.56375,-27.032001,-17.272001,-9.136001,eccentric,5,3.0,37613.0,253098.0,87107.0,250761.0,95896.0
2026-04-14 17:54:05.647636,604738,1609506739249225,4339218875,1.028704,-0.25376,0.001952,0.32375,-18.76875,9.8175,-27.000002,-17.272001,-9.136001,eccentric,5,3.0,38367.0,255044.0,88418.0,252535.0,97584.0
2026-04-14 17:54:05.650078,604739,1609506739258307,4339227585,0.952576,-0.251808,-0.163968,1.2425,-17.22,10.885,-27.024002,-17.088001,-8.016001,eccentric,5,3.0,38367.0,255044.0,88418.0,252535.0,97584.0
2026-04-14 17:54:05.654990,604740,1609506739267291,4339236314,0.952576,-0.251808,-0.163968,0.07,-13.13375,7.27125,-27.024002,-17.088001,-8.016001,eccentric,5,3.0,38367.0,255044.0,88418.0,252535.0,97584.0
2026-04-14 17:54:05.657640,604741,1609506739281989,4339251384,0.9272,-0.245952,0.003904,0.44625,-7.3325,3.08,-26.696001,-16.912,-7.400001,eccentric,5,3.0,38367.0,255044.0,88418.0,252535.0,97584.0
2026-04-14 17:54:05.660119,604742,1609506739291113,4339260250,0.9272,-0.245952,0.003904,1.46125,-3.5875,4.2,-26.696001,-16.912,-7.400001,eccentric,5,3.0,38367.0,255044.0,88418.0,252535.0,97584.0
2026-04-14 17:54:05.662541,604743,1609506739305628,4339275187,0.923296,-0.255712,-0.050752,-0.30625,-2.73,2.1,-26.920002,-16.592001,-7.168,eccentric,5,3.0,38367.0,255044.0,88418.0,252535.0,97584.0
2026-04-14 17:54:05.665637,604744,1609506739314583,4339283864,0.93696,-0.238144,-0.083936,0.02625,-1.68,1.42625,-26.920002,-16.872002,-8.976001,eccentric,5,3.0,38367.0,255044.0,88418.0,252535.0,97584.0
2026-04-14 17:54:05.667677,604745,1609506739323558,4339292620,0.93696,-0.238144,-0.083936,2.2225,1.04125,-0.63,-27.752,-16.872002,-8.976001,eccentric,5,3.0,38367.0,255044.0,88418.0,252535.0,97584.0
2026-04-14 17:54:05.675402,604746,1609506739338077,4339307536,0.935008,-0.249856,-0.07808,2.96625,4.2,-5.41625,-27.376001,-17.112001,-6.952,eccentric,5,3.0,38367.0,255044.0,88418.0,252535.0,97584.0
2026-04-14 17:54:05.685625,604747,1609506739347029,4339316235,0.935008,-0.249856,-0.07808,-0.35875,8.5925,-12.20625,-27.376001,-17.112001,-6.952,eccentric,5,3.0,38367.0,255044.0,88418.0,252535.0,97584.0
2026-04-14 17:54:05.712769,604758,1609506739361619,4339331168,0.976,-0.189344,-0.01952,-3.745,12.3725,-15.9425,-27.36,-17.480001,-5.672,eccentric,5,3.0,38669.0,254876.0,88870.0,251817.0,98109.0
2026-04-14 17:54:05.715731,604759,1609506739370624,4339339884,0.976,-0.189344,-0.01952,-10.4475,13.685,-17.0275,-27.36,-17.480001,-5.672,eccentric,5,3.0,38669.0,254876.0,88870.0,251817.0,98109.0
2026-04-14 17:54:05.723217,604760,1609506739385127,4339354898,0.870592,-0.443104,0.128832,-14.84875,15.54,-16.47625,-27.392002,-17.288,-5.432,eccentric,5,3.0,38669.0,254876.0,88870.0,251817.0,98109.0
2026-04-14 17:54:05.731666,604761,1609506739394089,4339363597,0.870592,-0.443104,0.128832,-3.33375,16.98375,-10.54375,-27.392002,-17.288,-5.432,eccentric,5,3.0,38669.0,254876.0,88870.0,251817.0,98109.0
2026-04-14 17:54:05.740516,604762,1609506739403064,4339372280,0.774944,-0.220576,-0.203008,17.80625,19.9325,-7.27125,-27.2,-17.904001,-8.928,eccentric,5,3.0,38669.0,254876.0,88870.0,251817.0,98109.0
2026-04-14 17:54:05.754536,604763,1609506739417550,4339387251,0.776896,-0.10736,-0.261568,21.13125,25.38375,-11.2525,-26.680002,-18.184,-7.048,eccentric,5,3.0,38669.0,254876.0,88870.0,251817.0,98109.0
2026-04-14 17:54:05.762783,604764,1609506739426570,4339395939,0.776896,-0.10736,-0.261568,7.2625,28.49,-17.54375,-26.680002,-18.184,-7.048,eccentric,5,3.0,38669.0,254876.0,88870.0,251817.0,98109.0
2026-04-14 17:54:05.779025,604765,1609506739441079,4339410845,0.817888,-0.236192,-0.201056,-17.78875,28.93625,-23.26625,-25.968,-18.328001,-6.984,eccentric,5,3.0,38669.0,254876.0,88870.0,251817.0,98109.0
2026-04-14 17:54:05.810444,604776,1609506739450529,4339419884,0.817888,-0.236192,-0.201056,-36.47,29.26,-28.23625,-25.968,-18.328001,-6.984,eccentric,5,3.0,43870.0,270961.0,98035.0,264937.0,108406.0
2026-04-14 17:54:05.812763,604777,1609506739459602,4339428756,0.782752,-0.378688,0.15616,-33.92375,29.741251,-24.75375,-26.712002,-18.672,-5.28,eccentric,5,3.0,43870.0,270961.0,98035.0,264937.0,108406.0
2026-04-14 17:54:05.815765,604778,1609506739474161,4339443685,0.782752,-0.378688,0.15616,-13.615,31.57875,-22.11125,-26.712002,-18.672,-5.28,eccentric,5,3.0,43870.0,270961.0,98035.0,264937.0,108406.0
2026-04-14 17:54:05.822411,604779,1609506739483092,4339452395,0.671488,-0.25376,-0.27328,10.01875,33.69625,-21.76125,-26.608002,-18.960001,-4.36,eccentric,5,3.0,43870.0,270961.0,98035.0,264937.0,108406.0
2026-04-14 17:54:05.834428,604780,1609506739497591,4339467365,0.856928,0.044896,-0.286944,14.875,36.26,-24.89375,-26.376001,-19.248001,-5.168,eccentric,5,3.0,43870.0,270961.0,98035.0,264937.0,108406.0
2026-04-14 17:54:05.844037,604781,1609506739506823,4339476079,0.856928,0.044896,-0.286944,0.2275,36.16375,-28.5425,-26.376001,-19.248001,-5.168,eccentric,5,3.0,43870.0,270961.0,98035.0,264937.0,108406.0
2026-04-14 17:54:05.898295,604782,1609506739515809,4339484765,0.569984,-0.17568,0.21472,-27.116251,36.82875,-35.7,-26.376001,-19.248001,-6.488,eccentric,5,3.0,43870.0,270961.0,98035.0,264937.0,108406.0
2026-04-14 17:54:05.900797,604783,1609506739530400,4339499704,0.569984,-0.17568,0.21472,-38.17625,38.5175,-41.97375,-25.912,-20.008001,-6.488,eccentric,5,3.0,43870.0,270961.0,98035.0,264937.0,108406.0
2026-04-14 17:54:05.903290,604784,1609506739539312,4339508427,0.562176,-0.411872,-0.056608,-31.053751,44.9225,-52.6925,-25.008001,-20.832,-4.512,eccentric,5,3.0,43870.0,270961.0,98035.0,264937.0,108406.0
2026-04-14 17:54:05.930590,604795,1609506739553991,4339523438,0.562176,-0.411872,-0.056608,-13.65,46.0775,-54.7225,-25.008001,-20.832,-4.512,eccentric,5,3.0,61827.0,299927.0,126421.0,289054.0,138263.0
2026-04-14 17:54:05.933086,604796,1609506739562897,4339532165,1.011136,-0.099552,-0.347456,11.6375,43.32125,-37.52,-24.944,-20.856,-2.576,eccentric,5,3.0,61827.0,299927.0,126421.0,289054.0,138263.0
2026-04-14 17:54:05.935504,604797,1609506739577451,4339547110,0.933056,-0.052704,0.027328,12.18875,43.53125,-37.66875,-24.248001,-21.240002,-5.0,eccentric,5,3.0,61827.0,299927.0,126421.0,289054.0,138263.0
2026-04-14 17:54:05.938086,604798,1609506739586400,4339555853,0.933056,-0.052704,0.027328,-26.62625,51.87875,-44.70375,-24.248001,-21.240002,-5.0,eccentric,5,3.0,61827.0,299927.0,126421.0,289054.0,138263.0
2026-04-14 17:54:05.940584,604799,1609506739595447,4339564532,0.933056,-0.052704,0.027328,-55.57125,59.43875,-56.2275,-24.248001,-21.240002,-5.0,eccentric,5,3.0,61827.0,299927.0,126421.0,289054.0,138263.0
2026-04-14 17:54:05.947821,604800,1609506739609979,4339579497,0.609024,-0.372832,0.308416,-47.04875,60.9175,-53.47125,-23.696001,-21.896002,-3.208,eccentric,5,3.0,61827.0,299927.0,126421.0,289054.0,138263.0
2026-04-14 17:54:05.955580,604801,1609506739619035,4339588213,0.587552,-0.245952,-0.074176,-24.75375,63.805,-46.375,-23.288002,-22.28,-3.176,eccentric,5,3.0,61827.0,299927.0,126421.0,289054.0,138263.0
2026-04-14 17:54:05.970254,604802,1609506739633569,4339603119,0.587552,-0.245952,-0.074176,2.19625,58.45,-45.33375,-23.288002,-22.28,-3.176,eccentric,5,3.0,61827.0,299927.0,126421.0,289054.0,138263.0
2026-04-14 17:54:05.980789,604803,1609506739642517,4339611809,0.540704,-0.07808,-0.12688,12.27625,49.4025,-43.1375,-22.784,-22.632002,-2.416,eccentric,5,3.0,61827.0,299927.0,126421.0,289054.0,138263.0
2026-04-14 17:54:06.014136,604814,1609506739651672,4339621067,0.540704,-0.07808,-0.12688,3.77125,41.9475,-43.28625,-22.784,-22.632002,-2.416,eccentric,5,3.0,106945.0,337155.0,183087.0,317590.0,195485.0
2026-04-14 17:54:06.014492,604815,1609506739666258,4339636084,0.706624,-0.0976,-0.001952,-6.7725,37.2925,-46.20875,-23.288002,-22.776001,-1.328,eccentric,5,3.0,106945.0,337155.0,183087.0,317590.0,195485.0
2026-04-14 17:54:06.016427,604816,1609506739675207,4339644775,0.706624,-0.0976,-0.001952,-9.66,38.0275,-51.58125,-23.288002,-22.776001,-1.328,eccentric,5,3.0,106945.0,337155.0,183087.0,317590.0,195485.0
2026-04-14 17:54:06.027509,604817,1609506739689812,4339659804,0.671488,-0.007808,0.269376,-7.7525,40.6875,-52.22,-22.76,-22.776001,-0.464,eccentric,5,3.0,106945.0,337155.0,183087.0,317590.0,195485.0
2026-04-14 17:54:06.036850,604818,1609506739698758,4339668517,0.642208,-0.267424,-0.054656,-18.97875,45.535,-48.50125,-22.408,-23.240002,-1.992,eccentric,5,3.0,106945.0,337155.0,183087.0,317590.0,195485.0
2026-04-14 17:54:06.050663,604819,1609506739713364,4339683448,0.642208,-0.267424,-0.054656,-27.2475,45.82375,-36.21625,-22.408,-23.240002,-1.992,eccentric,5,3.0,106945.0,337155.0,183087.0,317590.0,195485.0
2026-04-14 17:54:06.061569,604820,1609506739722364,4339692144,0.642208,-0.183488,-0.007808,-15.2075,41.22125,-25.33125,-21.344002,-24.032001,-1.072,eccentric,5,3.0,106945.0,337155.0,183087.0,317590.0,195485.0
2026-04-14 17:54:06.069230,604821,1609506739731398,4339700857,0.642208,-0.183488,-0.007808,-3.29875,33.6875,-22.6625,-21.344002,-24.032001,-1.072,eccentric,5,3.0,106945.0,337155.0,183087.0,317590.0,195485.0
2026-04-14 17:54:06.085724,604822,1609506739745917,4339715806,0.687104,0.12688,0.222528,7.0175,29.7675,-23.4675,-21.192001,-24.248001,-0.36,eccentric,5,3.0,106945.0,337155.0,183087.0,317590.0,195485.0
2026-04-14 17:54:06.114046,604833,1609506739754984,4339724575,0.687104,0.12688,0.222528,0.9975,31.115,-24.43875,-21.192001,-24.248001,-0.36,eccentric,5,3.0,138800.0,338230.0,220653.0,318905.0,231702.0
2026-04-14 17:54:06.116487,604834,1609506739769533,4339739549,0.733952,-0.15616,-0.132736,-10.115,30.5725,-21.44625,-21.792002,-23.736002,1.744,eccentric,5,3.0,138800.0,338230.0,220653.0,318905.0,231702.0
2026-04-14 17:54:06.123437,604835,1609506739778502,4339748329,0.767136,-0.154208,-0.054656,-16.58125,25.4975,-17.255,-21.008001,-24.296001,0.496,eccentric,5,3.0,138800.0,338230.0,220653.0,318905.0,231702.0
2026-04-14 17:54:06.129114,604836,1609506739787568,4339757009,0.767136,-0.154208,-0.054656,-16.52,17.7625,-10.99,-21.008001,-24.296001,0.496,eccentric,5,3.0,138800.0,338230.0,220653.0,318905.0,231702.0
2026-04-14 17:54:06.140561,604837,1609506739802083,4339772012,0.80032,-0.017568,0.30256,-10.9725,10.4125,-4.85625,-21.000002,-24.296001,-0.232,eccentric,5,3.0,138800.0,338230.0,220653.0,318905.0,231702.0
2026-04-14 17:54:06.148095,604838,1609506739811173,4339780757,0.80032,-0.017568,0.30256,-5.90625,8.37375,-3.89375,-21.000002,-24.296001,-0.232,eccentric,5,3.0,138800.0,338230.0,220653.0,318905.0,231702.0
2026-04-14 17:54:06.189624,604839,1609506739825668,4339795643,0.724192,-0.05856,0.115168,-0.06125,10.31625,-7.09625,-21.608002,-24.344002,1.0,eccentric,5,3.0,138800.0,338230.0,220653.0,318905.0,231702.0
2026-04-14 17:54:06.192002,604840,1609506739834587,4339804280,0.724192,-0.05856,0.115168,3.59625,12.10125,-9.05625,-21.608002,-24.344002,1.0,eccentric,5,3.0,138800.0,338230.0,220653.0,318905.0,231702.0
2026-04-14 17:54:06.196984,604841,1609506739849069,4339819169,0.835456,-0.154208,-0.099552,6.3875,11.375,-8.6975,-21.048,-24.472002,0.104,eccentric,5,3.0,138800.0,338230.0,220653.0,318905.0,231702.0
2026-04-14 17:54:06.267042,604852,1609506739858076,4339828033,0.808128,-0.124928,0.003904,4.92625,7.4025,-5.5125,-21.048,-24.472002,0.896,eccentric,5,3.0,142334.0,340140.0,225779.0,320826.0,236492.0
2026-04-14 17:54:06.269558,604853,1609506739867058,4339836751,0.808128,-0.124928,0.003904,2.1175,1.855,-0.2275,-20.84,-24.2,0.896,eccentric,5,3.0,142334.0,340140.0,225779.0,320826.0,236492.0
2026-04-14 17:54:06.272005,604854,1609506739881736,4339851683,0.825696,-0.046848,0.30256,0.245,-2.31875,3.47375,-21.528002,-24.296001,0.944,eccentric,5,3.0,142334.0,340140.0,225779.0,320826.0,236492.0
2026-04-14 17:54:06.274615,604855,1609506739890788,4339860410,0.825696,-0.046848,0.30256,0.14,-0.245,1.68875,-21.528002,-24.296001,0.944,eccentric,5,3.0,142334.0,340140.0,225779.0,320826.0,236492.0
2026-04-14 17:54:06.277033,604856,1609506739905281,4339875350,0.903776,-0.083936,0.085888,2.65125,5.48625,-1.46125,-21.688002,-24.392002,0.92,eccentric,5,3.0,142334.0,340140.0,225779.0,320826.0,236492.0
2026-04-14 17:54:06.281987,604857,1609506739914240,4339884048,0.903776,-0.083936,0.085888,0.5075,12.5125,-4.20875,-21.688002,-24.392002,0.92,eccentric,5,3.0,142334.0,340140.0,225779.0,320826.0,236492.0
2026-04-14 17:54:06.284577,604858,1609506739923265,4339892729,0.987712,-0.244,-0.113216,0.48125,16.59875,-5.635,-21.688002,-24.36,0.8,eccentric,5,3.0,142334.0,340140.0,225779.0,320826.0,236492.0
2026-04-14 17:54:06.286716,604859,1609506739937761,4339907611,0.987712,-0.244,-0.113216,2.03875,14.2275,-4.01625,-21.688002,-24.36,0.8,eccentric,5,3.0,142334.0,340140.0,225779.0,320826.0,236492.0
2026-04-14 17:54:06.290006,604860,1609506739946700,4339916315,0.929152,-0.148352,0.244,4.445,9.3625,-1.02375,-21.464,-24.12,3.4,concentric,5,3.0,142334.0,340140.0,225779.0,320826.0,236492.0
2026-04-14 17:54:06.316831,604871,1609506739961402,4339931355,0.776896,-0.033184,0.144448,6.74625,5.74875,2.94,-22.504002,-23.888,1.808,concentric,5,3.0,134606.0,343591.0,216819.0,324087.0,227835.0
2026-04-14 17:54:06.319383,604872,1609506739970391,4339940112,0.776896,-0.033184,0.144448,3.22875,5.1625,4.025,-22.504002,-23.888,1.808,concentric,5,3.0,134606.0,343591.0,216819.0,324087.0,227835.0
2026-04-14 17:54:06.325556,604873,1609506739985103,4339955013,0.833504,-0.152256,-0.050752,0.1225,6.16,3.2025,-22.36,-23.984001,1.44,concentric,5,3.0,134606.0,343591.0,216819.0,324087.0,227835.0
2026-04-14 17:54:06.331863,604874,1609506739994035,4339963741,0.833504,-0.152256,-0.050752,2.345,5.4775,2.66,-22.36,-23.984001,1.44,concentric,5,3.0,134606.0,343591.0,216819.0,324087.0,227835.0
2026-04-14 17:54:06.340620,604875,1609506740003081,4339972618,0.938912,-0.1952,-0.089792,6.6675,2.7475,3.6575,-21.056002,-24.488,-0.24,concentric,5,3.0,134606.0,343591.0,216819.0,324087.0,227835.0
2026-04-14 17:54:06.355468,604876,1609506740017559,4339987538,0.938912,-0.1952,-0.089792,9.89625,-2.75625,6.86875,-21.056002,-24.488,-0.24,concentric,5,3.0,134606.0,343591.0,216819.0,324087.0,227835.0
2026-04-14 17:54:06.364647,604877,1609506740026479,4339996221,0.815936,0.005856,0.26352,10.36,-8.636251,9.96625,-20.84,-24.544,-2.128,concentric,5,3.0,134606.0,343591.0,216819.0,324087.0,227835.0
2026-04-14 17:54:06.380603,604878,1609506740040989,4340011150,0.90768,-0.095648,0.257664,11.94375,-11.33125,11.05125,-21.240002,-24.128,0.104,concentric,5,3.0,134606.0,343591.0,216819.0,324087.0,227835.0
2026-04-14 17:54:06.390796,604879,1609506740049958,4340019855,0.90768,-0.095648,0.257664,11.76875,-11.3925,10.40375,-21.240002,-24.128,0.104,concentric,5,3.0,134606.0,343591.0,216819.0,324087.0,227835.0
2026-04-14 17:54:06.417694,604890,1609506740059063,4340028718,0.90768,-0.095648,0.0,11.17375,-10.0275,10.07125,-21.240002,-24.128,0.104,concentric,5,3.0,135378.0,343102.0,218344.0,323627.0,229249.0
2026-04-14 17:54:06.420323,604891,1609506740073853,4340043707,0.862784,-0.109312,0.0,12.6175,-8.89,10.54375,-22.344002,-23.984001,2.248,concentric,5,3.0,135378.0,343102.0,218344.0,323627.0,229249.0
2026-04-14 17:54:06.425656,604892,1609506740082816,4340052351,0.872544,-0.076128,0.167872,10.59625,-9.2225,12.5825,-22.464,-23.776001,0.16,concentric,5,3.0,135378.0,343102.0,218344.0,323627.0,229249.0
2026-04-14 17:54:06.435699,604893,1609506740097328,4340067277,0.872544,-0.076128,0.167872,7.8925,-10.42125,13.8075,-22.464,-23.776001,0.16,concentric,5,3.0,135378.0,343102.0,218344.0,323627.0,229249.0
2026-04-14 17:54:06.444037,604894,1609506740106275,4340075962,0.944768,-0.091744,0.089792,8.417501,-11.62,13.7025,-22.048,-24.144001,-3.2,concentric,5,3.0,135378.0,343102.0,218344.0,323627.0,229249.0
2026-04-14 17:54:06.459588,604895,1609506740120802,4340090930,0.933056,-0.103456,0.203008,9.8525,-11.85625,13.825,-21.872002,-23.864,-0.856,concentric,5,3.0,135378.0,343102.0,218344.0,323627.0,229249.0
2026-04-14 17:54:06.466451,604896,1609506740129823,4340099646,0.933056,-0.103456,0.203008,8.3475,-10.64875,12.39875,-21.872002,-23.864,-0.856,concentric,5,3.0,135378.0,343102.0,218344.0,323627.0,229249.0
2026-04-14 17:54:06.477675,604897,1609506740138786,4340108335,0.933056,-0.103456,0.203008,6.4575,-9.77375,10.92,-21.872002,-23.864,-0.856,concentric,5,3.0,135378.0,343102.0,218344.0,323627.0,229249.0
2026-04-14 17:54:06.517010,604908,1609506740153401,4340123749,0.851072,-0.12688,0.005856,8.40875,-10.26375,10.185,-21.776001,-23.824001,-1.92,concentric,5,3.0,139450.0,344489.0,223255.0,324964.0,233811.0
2026-04-14 17:54:06.519397,604909,1609506740162442,4340132553,0.886208,-0.109312,0.066368,10.01,-10.36875,9.49375,-22.28,-24.016,-1.504,concentric,5,3.0,139450.0,344489.0,223255.0,324964.0,233811.0
2026-04-14 17:54:06.522010,604910,1609506740176968,4340145458,0.886208,-0.109312,0.066368,7.07875,-10.823751,10.045,-22.28,-24.016,-1.504,concentric,5,3.0,139450.0,344489.0,223255.0,324964.0,233811.0
2026-04-14 17:54:06.524578,604911,1609506740186379,4340156231,0.977952,-0.130784,0.284992,4.62875,-11.13,11.06,-22.208,-23.968,-1.504,concentric,5,3.0,139450.0,344489.0,223255.0,324964.0,233811.0
2026-04-14 17:54:06.534589,604912,1609506740195363,4340164914,0.977952,-0.130784,0.284992,4.725,-11.515,12.43375,-22.208,-23.968,-1.504,concentric,5,3.0,139450.0,344489.0,223255.0,324964.0,233811.0
2026-04-14 17:54:06.546983,604913,1609506740209902,4340179883,0.938912,-0.122976,0.113216,4.9525,-11.6375,12.67,-22.304,-23.696001,-1.816,concentric,5,3.0,139450.0,344489.0,223255.0,324964.0,233811.0
2026-04-14 17:54:06.556753,604914,1609506740218890,4340188596,0.938912,-0.122976,0.113216,4.62,-12.1625,11.76875,-22.304,-23.696001,-1.816,concentric,5,3.0,139450.0,344489.0,223255.0,324964.0,233811.0
2026-04-14 17:54:06.575914,604915,1609506740233555,4340203510,0.882304,-0.130784,0.109312,3.57,-12.565,10.08875,-22.144001,-23.616001,-0.296,concentric,5,3.0,139450.0,344489.0,223255.0,324964.0,233811.0
2026-04-14 17:54:06.585143,604916,1609506740242506,4340212204,0.991616,-0.115168,0.17568,3.43,-11.83875,7.56,-22.480001,-23.752,-1.76,concentric,5,3.0,139450.0,344489.0,223255.0,324964.0,233811.0
2026-04-14 17:54:06.624550,604917,1609506740251469,4340220897,0.991616,-0.115168,0.17568,5.565,-10.54375,5.6,-22.480001,-23.752,-1.76,concentric,5,3.0,139450.0,344489.0,223255.0,324964.0,233811.0
2026-04-14 17:54:06.662003,604928,1609506740266036,4340235807,0.903776,-0.15616,0.017568,3.00125,-8.12,3.40375,-23.464,-23.544,-1.0,concentric,5,3.0,139310.0,345049.0,223029.0,325466.0,233720.0
2026-04-14 17:54:06.664528,604929,1609506740274955,4340244509,0.903776,-0.15616,0.017568,-1.785,-6.545,2.68625,-23.464,-23.544,-1.0,concentric,5,3.0,139310.0,345049.0,223029.0,325466.0,233720.0
2026-04-14 17:54:06.669739,604930,1609506740289563,4340259401,0.892064,-0.134688,0.208864,-0.56,-5.66125,1.86375,-23.408,-22.800001,-1.16,concentric,5,3.0,139310.0,345049.0,223029.0,325466.0,233720.0
2026-04-14 17:54:06.670165,604931,1609506740298535,4340268136,0.892064,-0.134688,0.208864,2.1175,-6.685,2.40625,-23.408,-22.800001,-1.16,concentric,5,3.0,139310.0,345049.0,223029.0,325466.0,233720.0
2026-04-14 17:54:06.671393,604932,1609506740313163,4340283030,0.870592,-0.160064,-0.050752,2.485,-7.805,2.6425,-23.792002,-23.336,-0.784,concentric,5,3.0,139310.0,345049.0,223029.0,325466.0,233720.0
2026-04-14 17:54:06.679507,604933,1609506740322362,4340291788,0.892064,-0.130784,0.21472,0.2625,-8.3125,2.975,-23.792002,-22.960001,0.136,concentric,5,3.0,139310.0,345049.0,223029.0,325466.0,233720.0
2026-04-14 17:54:06.679659,604934,1609506740331386,4340300541,0.892064,-0.130784,0.21472,-4.03375,-7.48125,4.13875,-23.792002,-22.960001,0.136,concentric,5,3.0,139310.0,345049.0,223029.0,325466.0,233720.0
2026-04-14 17:54:06.682602,604935,1609506740345934,4340315433,0.83936,-0.160064,0.072224,-6.3875,-7.1925,4.235,-24.408,-23.168001,-0.144,concentric,5,3.0,139310.0,345049.0,223029.0,325466.0,233720.0
2026-04-14 17:54:06.723228,604946,1609506740355377,4340324062,0.83936,-0.160064,0.072224,-7.105,-7.81375,3.6925,-24.408,-23.168001,-0.144,concentric,5,3.0,134594.0,345776.0,217115.0,326119.0,227966.0
2026-04-14 17:54:06.725731,604947,1609506740364648,4340334951,0.899872,-0.152256,0.101504,-4.22625,-8.88125,3.4125,-23.144001,-23.424002,-2.208,concentric,5,3.0,134594.0,345776.0,217115.0,326119.0,227966.0
2026-04-14 17:54:06.728170,604948,1609506740379218,4340347781,0.899872,-0.152256,0.101504,-1.96875,-9.275,2.56375,-23.144001,-23.424002,-2.208,concentric,5,3.0,134594.0,345776.0,217115.0,326119.0,227966.0
2026-04-14 17:54:06.730252,604949,1609506740388632,4340358555,0.851072,-0.152256,0.03904,-2.33625,-9.23125,1.5925,-23.000002,-23.6,-2.328,concentric,5,3.0,134594.0,345776.0,217115.0,326119.0,227966.0
2026-04-14 17:54:06.741539,604950,1609506740403213,4340373468,0.892064,-0.216672,0.064416,-4.4625,-8.53125,1.26,-22.68,-23.512001,-2.504,concentric,5,3.0,134594.0,345776.0,217115.0,326119.0,227966.0
2026-04-14 17:54:06.748945,604951,1609506740412305,4340382178,0.892064,-0.216672,0.064416,-3.38625,-7.58625,1.54875,-22.68,-23.512001,-2.504,concentric,5,3.0,134594.0,345776.0,217115.0,326119.0,227966.0
2026-04-14 17:54:06.759141,604952,1609506740421259,4340390889,0.892064,-0.216672,0.113216,-0.6825,-7.3325,2.77375,-22.68,-23.512001,-2.504,concentric,5,3.0,134594.0,345776.0,217115.0,326119.0,227966.0
2026-04-14 17:54:06.775305,604953,1609506740435853,4340405775,0.854976,-0.163968,0.113216,1.2775,-8.54,3.4825,-22.976002,-23.272001,-2.288,concentric,5,3.0,134594.0,345776.0,217115.0,326119.0,227966.0
2026-04-14 17:54:06.782819,604954,1609506740444819,4340414451,0.882304,-0.173728,-0.025376,2.63375,-9.66,4.41,-23.76,-22.864,-1.992,concentric,5,3.0,134594.0,345776.0,217115.0,326119.0,227966.0
2026-04-14 17:54:06.847880,604965,1609506740459599,4340429472,0.882304,-0.173728,-0.025376,2.00375,-10.57,4.445,-23.76,-22.864,-1.992,concentric,5,3.0,127014.0,346264.0,207908.0,326517.0,219231.0
2026-04-14 17:54:06.853479,604966,1609506740468612,4340438202,0.825696,-0.203008,-0.074176,-0.77,-10.115,4.47125,-23.808,-23.208,-1.592,concentric,5,3.0,127014.0,346264.0,207908.0,326517.0,219231.0
2026-04-14 17:54:06.853910,604967,1609506740483115,4340453063,0.853024,-0.228384,0.171776,-2.03,-10.8675,5.5825,-24.112001,-22.552002,-0.944,concentric,5,3.0,127014.0,346264.0,207908.0,326517.0,219231.0
2026-04-14 17:54:06.855098,604968,1609506740492061,4340461838,0.853024,-0.228384,0.171776,-0.76125,-11.261251,6.615,-24.112001,-22.552002,-0.944,concentric,5,3.0,127014.0,346264.0,207908.0,326517.0,219231.0
2026-04-14 17:54:06.858139,604969,1609506740501016,4340470547,0.853024,-0.228384,0.171776,-0.9975,-13.1075,8.70625,-24.112001,-22.552002,-0.944,concentric,5,3.0,127014.0,346264.0,207908.0,326517.0,219231.0
2026-04-14 17:54:06.860067,604970,1609506740515536,4340485502,0.774944,-0.251808,-0.11712,-0.49875,-17.29875,12.36375,-24.272001,-22.816002,-1.584,concentric,5,3.0,127014.0,346264.0,207908.0,326517.0,219231.0
2026-04-14 17:54:06.862819,604971,1609506740524758,4340494239,0.802272,-0.158112,0.132736,3.115,-20.46625,14.81375,-24.784,-22.296001,-1.128,concentric,5,3.0,127014.0,346264.0,207908.0,326517.0,219231.0
2026-04-14 17:54:06.876749,604972,1609506740539271,4340509262,0.802272,-0.158112,0.132736,1.54875,-22.61,16.31,-24.784,-22.296001,-1.128,concentric,5,3.0,127014.0,346264.0,207908.0,326517.0,219231.0
2026-04-14 17:54:06.886610,604973,1609506740548262,4340517966,0.765184,-0.154208,0.150304,-1.40875,-22.42625,15.715,-24.384,-22.6,-3.32,concentric,5,3.0,127014.0,346264.0,207908.0,326517.0,219231.0
2026-04-14 17:54:06.919217,604984,1609506740557504,4340526777,0.765184,-0.154208,0.150304,-3.49125,-23.02125,14.63,-24.384,-22.6,-3.32,concentric,5,3.0,113699.0,345832.0,192164.0,326389.0,203688.0
2026-04-14 17:54:06.921757,604985,1609506740572157,4340541736,0.72224,-0.236192,0.00976,-6.5275,-24.928751,14.70875,-23.984001,-22.656,-3.344,concentric,5,3.0,113699.0,345832.0,192164.0,326389.0,203688.0
2026-04-14 17:54:06.924268,604986,1609506740581093,4340550481,0.72224,-0.236192,0.00976,-8.365,-27.74625,16.79125,-23.984001,-22.656,-3.344,concentric,5,3.0,113699.0,345832.0,192164.0,326389.0,203688.0
2026-04-14 17:54:06.934269,604987,1609506740595627,4340565389,0.882304,-0.269376,-0.044896,-6.78125,-30.17,20.195,-23.952002,-22.536001,-3.096,concentric,5,3.0,113699.0,345832.0,192164.0,326389.0,203688.0
2026-04-14 17:54:06.941702,604988,1609506740604614,4340574039,0.728096,-0.154208,0.025376,-11.97,-29.39125,20.3525,-23.944,-22.368002,-2.192,concentric,5,3.0,113699.0,345832.0,192164.0,326389.0,203688.0
2026-04-14 17:54:06.979525,604989,1609506740619105,4340588931,0.728096,-0.154208,0.025376,-24.38625,-28.2625,21.7525,-23.944,-22.368002,-2.192,concentric,5,3.0,113699.0,345832.0,192164.0,326389.0,203688.0
2026-04-14 17:54:06.981877,604990,1609506740628034,4340597627,0.745664,-0.181536,0.152256,-29.8725,-24.24625,21.665,-25.296001,-21.528002,-2.296,concentric,5,3.0,113699.0,345832.0,192164.0,326389.0,203688.0
2026-04-14 17:54:06.984443,604991,1609506740636971,4340606304,0.745664,-0.181536,0.152256,-31.535,-21.647501,21.7875,-25.296001,-21.528002,-2.296,concentric,5,3.0,113699.0,345832.0,192164.0,326389.0,203688.0
2026-04-14 17:54:07.006954,604992,1609506740651524,4340621365,0.687104,-0.220576,0.031232,-33.0225,-22.3825,23.178751,-25.512001,-21.216002,-2.488,concentric,5,3.0,113699.0,345832.0,192164.0,326389.0,203688.0
2026-04-14 17:54:07.037022,605003,1609506740660655,4340630150,0.687104,-0.220576,0.031232,-34.46625,-25.445,25.38375,-25.512001,-21.216002,-2.488,concentric,5,3.0,82465.0,331957.0,153058.0,316123.0,164207.0
2026-04-14 17:54:07.042074,605004,1609506740675291,4340645120,0.774944,-0.374784,-0.226432,-33.81,-27.48375,27.74625,-25.976002,-21.080002,-2.232,concentric,5,3.0,82465.0,331957.0,153058.0,316123.0,164207.0
2026-04-14 17:54:07.042449,605005,1609506740684486,4340653873,0.782752,-0.201056,0.103456,-37.5025,-29.09375,28.18375,-26.328001,-20.560001,-0.672,concentric,5,3.0,82465.0,331957.0,153058.0,316123.0,164207.0
2026-04-14 17:54:07.044022,605006,1609506740693525,4340662580,0.782752,-0.201056,0.103456,-28.28875,-30.00375,28.805,-26.328001,-20.560001,-0.672,concentric,5,3.0,82465.0,331957.0,153058.0,316123.0,164207.0
2026-04-14 17:54:07.046501,605007,1609506740708106,4340677506,0.630496,-0.085888,0.152256,-13.67625,-31.28125,25.59375,-26.36,-20.168001,-1.824,concentric,5,3.0,82465.0,331957.0,153058.0,316123.0,164207.0
2026-04-14 17:54:07.055633,605008,1609506740717029,4340686230,0.630496,-0.085888,0.152256,-11.83875,-32.78625,24.00125,-26.36,-20.168001,-1.824,concentric,5,3.0,82465.0,331957.0,153058.0,316123.0,164207.0
2026-04-14 17:54:07.068125,605009,1609506740731636,4340701167,0.718336,-0.269376,-0.187392,-14.35,-32.8475,27.5275,-26.608002,-20.032001,-2.944,concentric,5,3.0,82465.0,331957.0,153058.0,316123.0,164207.0
2026-04-14 17:54:07.077727,605010,1609506740740595,4340709867,0.718336,-0.269376,-0.187392,-20.0725,-33.17125,26.15375,-26.608002,-20.032001,-2.944,concentric,5,3.0,82465.0,331957.0,153058.0,316123.0,164207.0
2026-04-14 17:54:07.086662,605011,1609506740749540,4340718643,0.700768,-0.089792,-0.074176,-26.7925,-33.670002,19.4425,-26.616001,-19.968,-3.896,concentric,5,3.0,82465.0,331957.0,153058.0,316123.0,164207.0
2026-04-14 17:54:07.116780,605022,1609506740764118,4340733595,0.70272,-0.228384,-0.01952,-26.17125,-34.22125,10.12375,-26.616001,-19.432001,-3.968,concentric,5,3.0,54458.0,311037.0,114635.0,296701.0,125405.0
2026-04-14 17:54:07.119590,605023,1609506740773121,4340742388,0.70272,-0.228384,-0.01952,-37.12625,-31.24625,-1.54875,-26.864002,-19.432001,-3.968,concentric,5,3.0,54458.0,311037.0,114635.0,296701.0,125405.0
2026-04-14 17:54:07.125774,605024,1609506740787775,4340757400,0.755424,-0.386496,-0.066368,-41.16,-31.255001,1.6275,-26.752,-19.632002,-2.712,concentric,5,3.0,54458.0,311037.0,114635.0,296701.0,125405.0
2026-04-14 17:54:07.135877,605025,1609506740796767,4340766083,0.755424,-0.386496,-0.066368,-27.4225,-32.85625,11.40125,-26.752,-19.632002,-2.712,concentric,5,3.0,54458.0,311037.0,114635.0,296701.0,125405.0
2026-04-14 17:54:07.147837,605026,1609506740811295,4340781060,0.866688,-0.081984,-0.35136,-21.07875,-32.15625,9.82625,-27.016,-19.240002,-3.192,concentric,5,3.0,54458.0,311037.0,114635.0,296701.0,125405.0
2026-04-14 17:54:07.158153,605027,1609506740820236,4340789742,0.866688,-0.081984,-0.35136,-36.18125,-29.1025,8.636251,-27.016,-19.240002,-3.192,concentric,5,3.0,54458.0,311037.0,114635.0,296701.0,125405.0
2026-04-14 17:54:07.168197,605028,1609506740829151,4340798413,0.81008,-0.286944,-0.091744,-57.732502,-29.2775,-1.89875,-26.248001,-19.848001,-3.72,concentric,5,3.0,54458.0,311037.0,114635.0,296701.0,125405.0
2026-04-14 17:54:07.180695,605029,1609506740843768,4340813413,0.81008,-0.286944,-0.091744,-65.765,-30.03,-7.20125,-26.248001,-19.848001,-3.72,concentric,5,3.0,54458.0,311037.0,114635.0,296701.0,125405.0
2026-04-14 17:54:07.189246,605030,1609506740852746,4340822142,0.657824,-0.460672,-0.154208,-48.0725,-29.6275,-0.81375,-26.840002,-19.464,-4.52,concentric,5,3.0,54458.0,311037.0,114635.0,296701.0,125405.0
2026-04-14 17:54:07.217868,605041,1609506740867423,4340837152,0.749568,-0.13664,-0.212768,-20.0375,-31.1325,3.0625,-27.304,-18.872002,-3.36,concentric,5,3.0,40107.0,284208.0,91168.0,271763.0,101365.0
2026-04-14 17:54:07.220769,605042,1609506740876361,4340845886,0.749568,-0.13664,-0.212768,1.79375,-31.33375,4.50625,-27.304,-18.872002,-3.36,concentric,5,3.0,40107.0,284208.0,91168.0,271763.0,101365.0
2026-04-14 17:54:07.223248,605043,1609506740885470,4340854655,0.88816,-0.054656,-0.122976,12.87125,-28.595,6.72,-27.304,-18.864,-2.776,concentric,5,3.0,40107.0,284208.0,91168.0,271763.0,101365.0
2026-04-14 17:54:07.238318,605044,1609506740899980,4340869570,0.88816,-0.054656,-0.122976,1.60125,-22.25125,2.17875,-27.304,-18.864,-2.776,concentric,5,3.0,40107.0,284208.0,91168.0,271763.0,101365.0
2026-04-14 17:54:07.248117,605045,1609506740908892,4340878256,0.70272,-0.365024,-0.05856,-22.960001,-13.92125,-11.40125,-27.008001,-18.864,-3.504,concentric,5,3.0,40107.0,284208.0,91168.0,271763.0,101365.0
2026-04-14 17:54:07.260320,605046,1609506740923408,4340893216,0.70272,-0.365024,-0.05856,-16.0125,-10.92875,-11.1825,-27.008001,-18.864,-3.504,concentric,5,3.0,40107.0,284208.0,91168.0,271763.0,101365.0
2026-04-14 17:54:07.270672,605047,1609506740932366,4340901915,0.687104,-0.339648,0.109312,10.26375,-8.58375,-1.93375,-27.480001,-18.992,-4.632,concentric,5,3.0,40107.0,284208.0,91168.0,271763.0,101365.0
2026-04-14 17:54:07.287027,605048,1609506740946869,4340916807,0.831552,-0.134688,-0.148352,37.275,-7.86625,2.17875,-26.672,-18.888,-5.024,concentric,5,3.0,40107.0,284208.0,91168.0,271763.0,101365.0
2026-04-14 17:54:07.319660,605059,1609506740955814,4340925860,0.831552,-0.134688,-0.148352,46.45375,-7.04375,3.35125,-26.672,-18.888,-5.024,concentric,5,3.0,37703.0,256749.0,87260.0,252676.0,96613.0
2026-04-14 17:54:07.343969,605060,1609506740964859,4340934586,0.831552,-0.134688,0.056608,34.93,-4.68125,-2.66,-26.672,-18.888,-5.024,concentric,5,3.0,37703.0,256749.0,87260.0,252676.0,96613.0
2026-04-14 17:54:07.369570,605061,1609506740979366,4340949584,0.835456,-0.181536,0.056608,17.29,-2.6425,-4.43625,-26.680002,-18.856,-6.664001,concentric,5,3.0,37703.0,256749.0,87260.0,252676.0,96613.0
2026-04-14 17:54:07.371996,605062,1609506740988299,4340958336,0.679296,-0.306464,-0.105408,7.28,-2.03875,2.65125,-26.472002,-18.392,-4.84,concentric,5,3.0,37703.0,256749.0,87260.0,252676.0,96613.0
2026-04-14 17:54:07.379583,605063,1609506741002750,4340971176,0.679296,-0.306464,-0.105408,8.61,-1.09375,2.695,-26.472002,-18.392,-4.84,concentric,5,3.0,37703.0,256749.0,87260.0,252676.0,96613.0
2026-04-14 17:54:07.382068,605064,1609506741012066,4340981975,0.650016,-0.134688,0.01952,13.71125,1.12,3.6225,-27.28,-18.424002,-4.664,concentric,5,3.0,37703.0,256749.0,87260.0,252676.0,96613.0
2026-04-14 17:54:07.384564,605065,1609506741026553,4340996888,0.813984,-0.089792,-0.238144,12.775,1.33875,2.2225,-27.592001,-17.904001,-4.184,concentric,5,3.0,37703.0,256749.0,87260.0,252676.0,96613.0
2026-04-14 17:54:07.386996,605066,1609506741035643,4341005564,0.813984,-0.089792,-0.238144,-1.89875,1.25125,-6.06375,-27.592001,-17.904001,-4.184,concentric,5,3.0,37703.0,256749.0,87260.0,252676.0,96613.0
2026-04-14 17:54:07.389266,605067,1609506741044740,4341014259,0.813984,-0.089792,-0.238144,-24.01,3.68375,-9.75625,-27.592001,-17.904001,-4.184,concentric,5,3.0,37703.0,256749.0,87260.0,252676.0,96613.0
2026-04-14 17:54:07.418988,605078,1609506741059310,4341029279,0.776896,-0.335744,-0.17568,-39.8125,7.1225,-8.0325,-27.248001,-18.128,-4.888,concentric,5,3.0,36094.0,254128.0,83981.0,250389.0,93415.0
2026-04-14 17:54:07.427931,605079,1609506741068346,4341038008,0.677344,-0.50752,-0.06832,-34.53625,10.01,-2.835,-27.376001,-17.736,-4.264,concentric,5,3.0,36094.0,254128.0,83981.0,250389.0,93415.0
2026-04-14 17:54:07.428061,605080,1609506741082905,4341053007,0.677344,-0.50752,-0.06832,-10.535,12.80125,3.57875,-27.376001,-17.736,-4.264,concentric,5,3.0,36094.0,254128.0,83981.0,250389.0,93415.0
2026-04-14 17:54:07.430199,605081,1609506741091927,4341061706,0.759328,-0.054656,-0.208864,17.59625,16.80875,9.10875,-27.544,-17.112001,-3.64,concentric,5,3.0,36094.0,254128.0,83981.0,250389.0,93415.0
2026-04-14 17:54:07.463267,605082,1609506741100883,4341070466,0.759328,-0.054656,-0.208864,28.0,17.35125,10.19375,-27.544,-17.112001,-3.64,concentric,5,3.0,36094.0,254128.0,83981.0,250389.0,93415.0
2026-04-14 17:54:07.465740,605083,1609506741115397,4341085367,0.899872,0.044896,0.066368,17.47375,18.66375,10.2025,-27.744001,-17.504002,-4.712,concentric,5,3.0,36094.0,254128.0,83981.0,250389.0,93415.0
2026-04-14 17:54:07.468225,605084,1609506741124309,4341094069,0.899872,0.044896,0.066368,2.8525,22.6275,8.085,-27.744001,-17.504002,-4.712,concentric,5,3.0,36094.0,254128.0,83981.0,250389.0,93415.0
2026-04-14 17:54:07.479579,605085,1609506741138818,4341108987,0.942816,-0.415776,0.060512,-6.4925,25.375,-2.09125,-27.032001,-17.76,-5.304,concentric,5,3.0,36094.0,254128.0,83981.0,250389.0,93415.0
2026-04-14 17:54:07.485705,605086,1609506741147730,4341117687,0.884256,-0.238144,0.275232,3.0275,28.81375,-3.29875,-27.488,-17.056002,-6.216,concentric,5,3.0,36094.0,254128.0,83981.0,250389.0,93415.0
2026-04-14 17:54:07.521401,605097,1609506741162377,4341132638,0.884256,-0.238144,0.275232,23.31,31.815,-0.875,-27.488,-17.056002,-6.216,concentric,5,3.0,36896.0,247910.0,85377.0,246951.0,94616.0
2026-04-14 17:54:07.524111,605098,1609506741171444,4341141436,0.909632,-0.00976,-0.12688,40.6175,34.825,-1.86375,-27.448002,-16.92,-4.024,concentric,5,3.0,36896.0,247910.0,85377.0,246951.0,94616.0
2026-04-14 17:54:07.526939,605099,1609506741180391,4341150182,0.909632,-0.00976,-0.12688,41.69375,36.995,0.4725,-27.448002,-16.92,-4.024,concentric,5,3.0,36896.0,247910.0,85377.0,246951.0,94616.0
2026-04-14 17:54:07.534394,605100,1609506741195033,4341165170,1.097024,-0.144448,0.027328,21.42,37.86125,-3.21125,-27.856,-17.12,-4.152,concentric,5,3.0,36896.0,247910.0,85377.0,246951.0,94616.0
2026-04-14 17:54:07.541908,605101,1609506741203984,4341173863,1.097024,-0.144448,0.027328,-4.13,40.46,-10.5,-27.856,-17.12,-4.152,concentric,5,3.0,36896.0,247910.0,85377.0,246951.0,94616.0
2026-04-14 17:54:07.557033,605102,1609506741218594,4341188870,1.126304,-0.388448,0.17568,-9.58125,45.64,-15.16375,-27.52,-17.272001,-4.344,concentric,5,3.0,36896.0,247910.0,85377.0,246951.0,94616.0
2026-04-14 17:54:07.567030,605103,1609506741227546,4341197559,1.120448,-0.271328,-0.072224,-1.4875,47.85375,-15.715,-27.224,-17.68,-5.224001,concentric,5,3.0,36896.0,247910.0,85377.0,246951.0,94616.0
2026-04-14 17:54:07.572768,605104,1609506741236488,4341206279,1.120448,-0.271328,-0.072224,10.03625,49.595,-17.14125,-27.224,-17.68,-5.224001,concentric,5,3.0,36896.0,247910.0,85377.0,246951.0,94616.0
2026-04-14 17:54:07.589612,605105,1609506741251012,4341221232,1.163392,-0.244,-0.12688,7.98,49.25375,-19.985,-26.640001,-17.272001,-4.432,concentric,5,3.0,36896.0,247910.0,85377.0,246951.0,94616.0
2026-04-14 17:54:07.620130,605116,1609506741260347,4341229988,1.163392,-0.244,-0.12688,-3.66625,51.9575,-16.485,-26.640001,-17.272001,-4.432,concentric,5,3.0,39281.0,269343.0,89119.0,263846.0,99091.0
2026-04-14 17:54:07.622681,605117,1609506741274996,4341244987,1.145824,-0.35136,0.132736,-7.9975,49.945,-11.52375,-27.624,-17.152,-2.568,concentric,5,3.0,39281.0,269343.0,89119.0,263846.0,99091.0
2026-04-14 17:54:07.625568,605118,1609506741284010,4341253695,1.145824,-0.35136,0.132736,-4.2525,50.1375,-9.87875,-27.624,-17.152,-2.568,concentric,5,3.0,39281.0,269343.0,89119.0,263846.0,99091.0
2026-04-14 17:54:07.630605,605119,1609506741293056,4341262440,1.155584,-0.298656,0.074176,6.58875,50.435,-10.3075,-27.488,-16.92,-1.896,concentric,5,3.0,39281.0,269343.0,89119.0,263846.0,99091.0
2026-04-14 17:54:07.646870,605120,1609506741307582,4341277359,1.19072,-0.267424,0.044896,14.13125,48.99125,-8.30375,-27.488,-16.856,-3.448,concentric,5,3.0,39281.0,269343.0,89119.0,263846.0,99091.0
2026-04-14 17:54:07.654561,605121,1609506741316643,4341286070,1.19072,-0.267424,0.044896,19.32875,47.775,-1.68875,-27.264002,-16.856,-3.448,concentric,5,3.0,39281.0,269343.0,89119.0,263846.0,99091.0
2026-04-14 17:54:07.670423,605122,1609506741331125,4341300958,1.138016,-0.148352,0.05856,20.5625,49.385,-1.19875,-26.352001,-17.064001,-3.48,concentric,5,3.0,39281.0,269343.0,89119.0,263846.0,99091.0
2026-04-14 17:54:07.677096,605123,1609506741340106,4341309685,1.138016,-0.148352,0.05856,8.855001,51.00375,-6.6325,-26.352001,-17.064001,-3.48,concentric,5,3.0,39281.0,269343.0,89119.0,263846.0,99091.0
2026-04-14 17:54:07.713335,605124,1609506741354654,4341324612,1.212192,-0.226432,0.216672,-0.53375,50.79375,-9.77375,-26.504002,-17.44,-1.4,concentric,5,3.0,39281.0,269343.0,89119.0,263846.0,99091.0
2026-04-14 17:54:07.760104,605135,1609506741363777,4341333394,1.212192,-0.226432,0.216672,-6.9825,51.14375,-11.20875,-26.504002,-17.44,-1.4,concentric,5,3.0,49413.0,302244.0,105932.0,291717.0,117374.0
2026-04-14 17:54:07.768250,605136,1609506741372744,4341342092,1.221952,-0.269376,0.279136,-2.33625,50.63625,-12.25,-26.960001,-17.144001,-1.52,concentric,5,3.0,49413.0,302244.0,105932.0,291717.0,117374.0
2026-04-14 17:54:07.770766,605137,1609506741387260,4341357001,1.221952,-0.269376,0.279136,4.3225,49.95375,-12.41625,-26.960001,-17.144001,-1.52,concentric,5,3.0,49413.0,302244.0,105932.0,291717.0,117374.0
2026-04-14 17:54:07.773235,605138,1609506741396185,4341365688,1.23952,-0.220576,0.242048,3.43,49.525,-10.03625,-26.904001,-16.816,-1.704,concentric,5,3.0,49413.0,302244.0,105932.0,291717.0,117374.0
2026-04-14 17:54:07.775721,605139,1609506741410709,4341380748,1.241472,-0.378688,0.169824,1.9425,48.055,-5.2675,-27.088001,-17.008001,-1.44,concentric,5,3.0,49413.0,302244.0,105932.0,291717.0,117374.0
2026-04-14 17:54:07.777862,605140,1609506741419633,4341389643,1.241472,-0.378688,0.169824,7.1925,45.66625,-4.54125,-27.088001,-17.008001,-1.44,concentric,5,3.0,49413.0,302244.0,105932.0,291717.0,117374.0
2026-04-14 17:54:07.780519,605141,1609506741434203,4341402572,1.159488,-0.179584,0.201056,12.31125,41.79875,-2.8875,-26.872002,-17.424002,-2.536,concentric,5,3.0,49413.0,302244.0,105932.0,291717.0,117374.0
2026-04-14 17:54:07.783239,605142,1609506741443428,4341413465,1.159488,-0.179584,0.201056,9.03875,39.41875,-2.87,-26.872002,-17.424002,-2.536,concentric,5,3.0,49413.0,302244.0,105932.0,291717.0,117374.0
2026-04-14 17:54:07.791346,605143,1609506741452393,4341422157,1.126304,-0.368928,0.081984,-0.06125,38.77125,-3.47375,-26.032001,-17.192001,-2.008,concentric,5,3.0,49413.0,302244.0,105932.0,291717.0,117374.0
2026-04-14 17:54:07.821830,605154,1609506741466962,4341437177,1.126304,-0.368928,0.081984,-4.76,36.68,-2.4325,-26.032001,-17.192001,-2.008,concentric,5,3.0,51421.0,303431.0,109314.0,292120.0,120857.0
2026-04-14 17:54:07.824393,605155,1609506741476015,4341445867,1.147776,-0.33184,0.076128,-2.61625,33.50375,-0.48125,-26.952002,-17.160002,0.96,concentric,5,3.0,51421.0,303431.0,109314.0,292120.0,120857.0
2026-04-14 17:54:07.827756,605156,1609506741490596,4341460841,1.202432,-0.406016,-0.03904,1.18125,29.12,3.3425,-27.320002,-16.304,0.448,concentric,5,3.0,51421.0,303431.0,109314.0,292120.0,120857.0
2026-04-14 17:54:07.838072,605157,1609506741499515,4341469533,1.202432,-0.406016,-0.03904,-0.84875,24.31625,6.5975,-27.320002,-16.304,0.448,concentric,5,3.0,51421.0,303431.0,109314.0,292120.0,120857.0
2026-04-14 17:54:07.846849,605158,1609506741508552,4341478267,1.202432,-0.277184,0.070272,2.975,17.185,9.2575,-27.320002,-16.304,0.448,concentric,5,3.0,51421.0,303431.0,109314.0,292120.0,120857.0
