pc_time,serial_num,sensor_ts,host_ts,ax,ay,az,gx,gy,gz,mx,my,mz,phase,rpe,weight_kg,ppg_a,ppg_b,ppg_c,ppg_d,ppg_e
2026-04-14 17:54:10.385426,605632,1609506744045824,4344015553,1.235616,-0.101504,0.425536,13.2825,56.8925,-16.28375,-26.2,-17.936,-1.432,eccentric,5,3.0,39140.0,281898.0,87622.0,274156.0,97236.0
2026-04-14 17:54:10.397695,605633,1609506744060307,4344030459,1.235616,-0.101504,0.425536,16.73,54.80125,-13.825,-26.2,-17.936,-1.432,eccentric,5,3.0,39140.0,281898.0,87622.0,274156.0,97236.0
2026-04-14 17:54:10.406593,605634,1609506744069246,4344039163,1.241472,-0.259616,0.286944,13.43125,53.2,-15.98625,-24.896002,-18.184,-1.552,eccentric,5,3.0,39140.0,281898.0,87622.0,274156.0,97236.0
2026-04-14 17:54:10.439091,605646,1609506744078396,4344048002,1.241472,-0.259616,0.286944,0.805,52.535,-17.52625,-24.896002,-18.184,-1.552,eccentric,5,3.0,52940.0,308184.0,110876.0,296356.0,122086.0
2026-04-14 17:54:10.441584,605647,1609506744093012,4344062981,1.153632,-0.304512,0.162016,-2.37125,49.81375,-13.545,-25.832,-18.088001,-1.456,eccentric,5,3.0,52940.0,308184.0,110876.0,296356.0,122086.0
2026-04-14 17:54:10.443951,605648,1609506744101993,4344071704,1.153632,-0.304512,0.162016,1.91625,44.54625,-10.87625,-25.832,-18.088001,-1.456,eccentric,5,3.0,52940.0,308184.0,110876.0,296356.0,122086.0
2026-04-14 17:54:10.455460,605649,1609506744116522,4344086759,1.22976,-0.210816,0.28304,9.1525,38.12375,-9.24,-25.864,-18.192001,-1.264,eccentric,5,3.0,52940.0,308184.0,110876.0,296356.0,122086.0
2026-04-14 17:54:10.462878,605650,1609506744125446,4344095470,1.22976,-0.27328,0.124928,7.49875,32.96125,-7.6475,-25.864,-18.192001,-1.264,eccentric,5,3.0,52940.0,308184.0,110876.0,296356.0,122086.0
2026-04-14 17:54:10.472938,605651,1609506744134438,4344104216,1.173152,-0.27328,0.124928,1.4175,27.65,-5.27625,-25.224,-18.432001,-2.088,eccentric,5,3.0,52940.0,308184.0,110876.0,296356.0,122086.0
2026-04-14 17:54:10.486570,605652,1609506744148939,4344119125,1.167296,-0.26352,0.288896,-5.32875,21.105,-2.96625,-25.28,-18.480001,-1.696,eccentric,5,3.0,52940.0,308184.0,110876.0,296356.0,122086.0
2026-04-14 17:54:10.496692,605653,1609506744157984,4344127824,1.167296,-0.26352,0.288896,-7.27125,14.28,0.06125,-25.28,-18.480001,-1.696,eccentric,5,3.0,52940.0,308184.0,110876.0,296356.0,122086.0
2026-04-14 17:54:10.512296,605654,1609506744172547,4344142840,1.128256,-0.232288,0.249856,-6.1775,8.44375,2.9925,-25.952002,-17.728,0.032,eccentric,5,3.0,52940.0,308184.0,110876.0,296356.0,122086.0
2026-04-14 17:54:10.540176,605665,1609506744181479,4344151622,1.128256,-0.232288,0.249856,-3.99875,4.48875,5.25875,-25.952002,-17.728,0.032,eccentric,5,3.0,54464.0,311687.0,112875.0,298765.0,123912.0
2026-04-14 17:54:10.542826,605666,1609506744196080,4344164516,1.091168,-0.306464,0.220576,-3.22875,0.525,8.1375,-25.232,-18.032001,-1.832,eccentric,5,3.0,54464.0,311687.0,112875.0,298765.0,123912.0
2026-04-14 17:54:10.545266,605667,1609506744205392,4344175280,1.091168,-0.306464,0.220576,5.7925,-4.82125,9.68625,-25.232,-18.032001,-1.832,eccentric,5,3.0,54464.0,311687.0,112875.0,298765.0,123912.0
2026-04-14 17:54:10.552853,605668,1609506744214405,4344184036,1.120448,-0.158112,0.386496,8.82,-10.64,10.78,-25.168001,-18.192001,-0.672,eccentric,5,3.0,54464.0,311687.0,112875.0,298765.0,123912.0
2026-04-14 17:54:10.566796,605669,1609506744228942,4344198932,1.052128,-0.247904,0.171776,4.27,-16.42375,11.9875,-25.488,-18.112001,-2.072,eccentric,5,3.0,54464.0,311687.0,112875.0,298765.0,123912.0
2026-04-14 17:54:10.575481,605670,1609506744237933,4344207624,1.052128,-0.247904,0.171776,-3.15875,-21.39375,12.31125,-25.488,-18.112001,-2.072,eccentric,5,3.0,54464.0,311687.0,112875.0,298765.0,123912.0
2026-04-14 17:54:10.591789,605671,1609506744252419,4344222523,1.08336,-0.245952,0.433344,-2.9575,-25.8825,12.5475,-25.576002,-17.992,-2.264,eccentric,5,3.0,54464.0,311687.0,112875.0,298765.0,123912.0
2026-04-14 17:54:10.597964,605672,1609506744261383,4344231238,1.08336,-0.245952,0.433344,5.57375,-30.63375,14.14,-25.576002,-17.992,-2.264,eccentric,5,3.0,54464.0,311687.0,112875.0,298765.0,123912.0
2026-04-14 17:54:10.611239,605673,1609506744270391,4344239986,1.018944,-0.218624,0.216672,15.75,-34.67625,16.42375,-25.344002,-17.488,-1.824,eccentric,5,3.0,54464.0,311687.0,112875.0,298765.0,123912.0
2026-04-14 17:54:10.736564,605684,1609506744285051,4344255002,1.018944,-0.218624,0.216672,21.16625,-38.5525,18.55,-25.344002,-17.488,-1.824,eccentric,5,3.0,52016.0,303630.0,109398.0,292022.0,120167.0
2026-04-14 17:54:10.739504,605685,1609506744294082,4344263711,1.139968,-0.230336,0.386496,20.62375,-42.76125,20.825,-26.392002,-17.68,-1.36,eccentric,5,3.0,52016.0,303630.0,109398.0,292022.0,120167.0
2026-04-14 17:54:10.741601,605686,1609506744308610,4344278650,1.065792,-0.203008,0.316224,13.886251,-47.1275,22.56625,-27.032001,-17.536001,-1.6,eccentric,5,3.0,52016.0,303630.0,109398.0,292022.0,120167.0
2026-04-14 17:54:10.744139,605687,1609506744317682,4344287487,1.065792,-0.203008,0.316224,4.45375,-51.37125,28.0175,-27.032001,-17.536001,-1.6,eccentric,5,3.0,52016.0,303630.0,109398.0,292022.0,120167.0
2026-04-14 17:54:10.747043,605688,1609506744332268,4344302380,1.09312,-0.27328,0.162016,1.53125,-54.17125,29.7325,-26.288002,-17.424002,-4.032,eccentric,5,3.0,52016.0,303630.0,109398.0,292022.0,120167.0
2026-04-14 17:54:10.749377,605689,1609506744341184,4344311066,1.09312,-0.27328,0.162016,-3.92,-55.48375,31.7625,-26.288002,-17.424002,-4.032,eccentric,5,3.0,52016.0,303630.0,109398.0,292022.0,120167.0
2026-04-14 17:54:10.752059,605690,1609506744350110,4344319802,1.14192,-0.314272,0.298656,-3.5875,-56.98,34.475,-26.720001,-16.984001,-4.504,eccentric,5,3.0,52016.0,303630.0,109398.0,292022.0,120167.0
2026-04-14 17:54:10.754249,605691,1609506744364776,4344334698,1.14192,-0.314272,0.298656,2.5025,-58.7475,36.2775,-26.720001,-16.984001,-4.504,eccentric,5,3.0,52016.0,303630.0,109398.0,292022.0,120167.0
2026-04-14 17:54:10.757040,605692,1609506744373891,4344343539,1.087264,-0.257664,0.035136,2.77375,-59.7625,37.765,-26.872002,-16.640001,-5.672,eccentric,5,3.0,52016.0,303630.0,109398.0,292022.0,120167.0
2026-04-14 17:54:10.784573,605703,1609506744388404,4344358554,1.081408,-0.261568,0.218624,-4.7075,-61.7575,38.1675,-27.288002,-16.512001,-5.888001,eccentric,5,3.0,49786.0,289204.0,106375.0,280481.0,116816.0
2026-04-14 17:54:10.787055,605704,1609506744397331,4344367234,1.081408,-0.261568,0.218624,-11.865,-63.83125,34.3525,-27.288002,-16.512001,-5.888001,eccentric,5,3.0,49786.0,289204.0,106375.0,280481.0,116816.0
2026-04-14 17:54:10.789375,605705,1609506744406343,4344375939,1.081408,-0.261568,0.218624,-18.515,-64.96,33.10125,-27.288002,-16.512001,-5.888001,eccentric,5,3.0,49786.0,289204.0,106375.0,280481.0,116816.0
2026-04-14 17:54:10.792044,605706,1609506744420923,4344390853,1.120448,-0.333792,0.306464,-19.985,-64.3475,32.8125,-27.36,-16.272001,-5.56,eccentric,5,3.0,49786.0,289204.0,106375.0,280481.0,116816.0
2026-04-14 17:54:10.794183,605707,1609506744429925,4344399629,1.085312,-0.345504,0.0976,-16.23125,-63.27125,33.92375,-27.616001,-15.68,-6.256001,eccentric,5,3.0,49786.0,289204.0,106375.0,280481.0,116816.0
2026-04-14 17:54:10.798871,605708,1609506744444484,4344414567,1.085312,-0.345504,0.0976,-10.465,-62.09,35.7175,-27.616001,-15.68,-6.256001,eccentric,5,3.0,49786.0,289204.0,106375.0,280481.0,116816.0
2026-04-14 17:54:10.799406,605709,1609506744453429,4344423265,1.061888,-0.286944,0.08784,-6.545,-61.013752,36.75875,-27.544,-16.16,-6.08,eccentric,5,3.0,49786.0,289204.0,106375.0,280481.0,116816.0
2026-04-14 17:54:10.808056,605710,1609506744468182,4344438172,1.159488,-0.275232,0.169824,-6.27375,-60.2175,34.685,-27.544,-15.280001,-6.896,eccentric,5,3.0,49786.0,289204.0,106375.0,280481.0,116816.0
2026-04-14 17:54:10.841396,605721,1609506744477722,4344447374,1.159488,-0.275232,0.169824,-10.5875,-59.15,31.3425,-27.944002,-15.280001,-6.896,eccentric,5,3.0,42355.0,268690.0,93998.0,263729.0,103764.0
2026-04-14 17:54:10.843870,605722,1609506744486748,4344456129,1.159488,-0.275232,0.169824,-19.85375,-58.33625,27.825,-27.944002,-15.280001,-6.896,eccentric,5,3.0,42355.0,268690.0,93998.0,263729.0,103764.0
2026-04-14 17:54:10.846380,605723,1609506744501251,4344471049,1.118496,-0.407968,0.216672,-24.47375,-57.435,24.2025,-28.640001,-15.096001,-5.456,eccentric,5,3.0,42355.0,268690.0,93998.0,263729.0,103764.0
2026-04-14 17:54:10.849222,605724,1609506744510176,4344479724,0.962336,-0.363072,0.05856,-17.15,-55.1775,23.555,-28.992,-15.376,-6.448,eccentric,5,3.0,42355.0,268690.0,93998.0,263729.0,103764.0
2026-04-14 17:54:10.862981,605725,1609506744524702,4344494663,0.962336,-0.363072,0.05856,-3.3775,-51.84375,24.80625,-28.992,-15.376,-6.448,eccentric,5,3.0,42355.0,268690.0,93998.0,263729.0,103764.0
2026-04-14 17:54:10.871608,605726,1609506744533642,4344503354,0.983808,-0.230336,0.208864,5.81,-49.28875,24.465,-28.136002,-15.616001,-7.976,eccentric,5,3.0,42355.0,268690.0,93998.0,263729.0,103764.0
2026-04-14 17:54:10.881727,605727,1609506744542570,4344512022,0.983808,-0.230336,0.208864,4.61125,-46.585,20.78125,-28.136002,-15.616001,-7.976,eccentric,5,3.0,42355.0,268690.0,93998.0,263729.0,103764.0
2026-04-14 17:54:10.894254,605728,1609506744557133,4344526946,0.981856,-0.267424,-0.007808,-0.7,-44.135,16.23125,-28.160002,-15.368001,-6.992,eccentric,5,3.0,42355.0,268690.0,93998.0,263729.0,103764.0
2026-04-14 17:54:10.904234,605729,1609506744566074,4344535645,0.981856,-0.267424,-0.007808,-9.00375,-41.195,9.45875,-28.160002,-15.368001,-6.992,eccentric,5,3.0,42355.0,268690.0,93998.0,263729.0,103764.0
2026-04-14 17:54:10.940431,605740,1609506744581056,4344550705,0.962336,-0.238144,0.089792,-19.34625,-36.925,4.2875,-28.776001,-14.912001,-6.976,eccentric,5,3.0,37502.0,248826.0,85368.0,247362.0,94211.0
2026-04-14 17:54:10.942962,605741,1609506744590057,4344559560,0.933056,-0.4392,-0.031232,-29.46125,-33.10125,1.70625,-28.408,-15.512001,-8.112,eccentric,5,3.0,37502.0,248826.0,85368.0,247362.0,94211.0
2026-04-14 17:54:10.945313,605742,1609506744599146,4344568262,0.933056,-0.4392,-0.031232,-35.95375,-31.63125,0.41125,-28.408,-15.512001,-8.112,eccentric,5,3.0,37502.0,248826.0,85368.0,247362.0,94211.0
2026-04-14 17:54:10.951697,605743,1609506744613685,4344583219,0.964288,-0.513376,0.206912,-28.175,-30.7125,6.51,-27.976002,-15.320001,-8.488001,eccentric,5,3.0,37502.0,248826.0,85368.0,247362.0,94211.0
2026-04-14 17:54:10.961578,605744,1609506744622641,4344591913,0.964288,-0.513376,0.206912,-12.3375,-27.46625,7.11375,-27.976002,-15.320001,-8.488001,eccentric,5,3.0,37502.0,248826.0,85368.0,247362.0,94211.0
2026-04-14 17:54:10.974302,605745,1609506744637190,4344606949,0.933056,-0.257664,0.03904,1.68875,-25.7775,3.29,-27.712002,-15.688001,-8.400001,eccentric,5,3.0,37502.0,248826.0,85368.0,247362.0,94211.0
2026-04-14 17:54:10.982775,605746,1609506744646212,4344615722,0.933056,-0.257664,0.03904,-0.00875,-23.2925,-0.72625,-27.712002,-15.688001,-8.400001,eccentric,5,3.0,37502.0,248826.0,85368.0,247362.0,94211.0
2026-04-14 17:54:10.992904,605747,1609506744655164,4344624496,0.894016,-0.072224,-0.187392,-21.49,-20.5975,-5.95,-28.056002,-15.584001,-7.400001,eccentric,5,3.0,37502.0,248826.0,85368.0,247362.0,94211.0
2026-04-14 17:54:11.020344,605748,1609506744669669,4344639420,0.821792,-0.618784,0.177632,-51.89625,-17.4125,-7.175,-28.544,-15.872001,-7.64,eccentric,5,3.0,37502.0,248826.0,85368.0,247362.0,94211.0
2026-04-14 17:54:11.070800,605759,1609506744679141,4344648531,0.821792,-0.618784,0.177632,-62.37,-16.065,-6.53625,-28.544,-15.872001,-7.64,eccentric,5,3.0,37855.0,256116.0,85895.0,253613.0,95240.0
2026-04-14 17:54:11.073295,605760,1609506744693683,4344663454,0.765184,-0.320128,0.13664,-35.76125,-14.42,-4.445,-28.512001,-16.152,-7.096,eccentric,5,3.0,37855.0,256116.0,85895.0,253613.0,95240.0
2026-04-14 17:54:11.075777,605761,1609506744702607,4344672123,0.765184,-0.320128,0.13664,-4.1475,-12.0225,-7.245,-28.512001,-16.152,-7.096,eccentric,5,3.0,37855.0,256116.0,85895.0,253613.0,95240.0
2026-04-14 17:54:11.080723,605762,1609506744717135,4344687142,0.784704,-0.046848,-0.218624,8.575,-8.6625,-10.0975,-28.432001,-16.480001,-7.104001,eccentric,5,3.0,37855.0,256116.0,85895.0,253613.0,95240.0
2026-04-14 17:54:11.081059,605763,1609506744726122,4344695879,0.784704,-0.046848,-0.218624,-10.605001,-3.0275,-18.0425,-28.432001,-16.480001,-7.104001,eccentric,5,3.0,37855.0,256116.0,85895.0,253613.0,95240.0
2026-04-14 17:54:11.082765,605764,1609506744735209,4344704565,0.757376,-0.238144,-0.11712,-36.74125,0.55125,-26.6,-28.448002,-16.568,-6.312,eccentric,5,3.0,37855.0,256116.0,85895.0,253613.0,95240.0
2026-04-14 17:54:11.091109,605765,1609506744749864,4344719500,0.5856,-0.425536,0.122976,-50.81125,2.2225,-25.69875,-28.448002,-16.944,-6.72,eccentric,5,3.0,37855.0,256116.0,85895.0,253613.0,95240.0
2026-04-14 17:54:11.095310,605766,1609506744758925,4344728247,0.5856,-0.425536,0.122976,-46.48875,6.06375,-24.885,-28.208002,-16.944,-6.72,eccentric,5,3.0,37855.0,256116.0,85895.0,253613.0,95240.0
2026-04-14 17:54:11.111438,605767,1609506744773411,4344743144,0.610976,-0.20496,-0.22448,-36.65375,11.27,-29.3475,-27.400002,-17.808,-6.808,eccentric,5,3.0,37855.0,256116.0,85895.0,253613.0,95240.0
2026-04-14 17:54:11.142045,605778,1609506744782518,4344751921,0.610976,-0.20496,-0.22448,-22.63625,12.3025,-32.38375,-27.400002,-17.808,-6.808,eccentric,5,3.0,40153.0,265036.0,89936.0,260967.0,99768.0
2026-04-14 17:54:11.144119,605779,1609506744791520,4344760709,0.786656,-0.05856,0.003904,-19.29375,13.92125,-32.97875,-26.880001,-17.944,-6.632,eccentric,5,3.0,40153.0,265036.0,89936.0,260967.0,99768.0
2026-04-14 17:54:11.146604,605780,1609506744806065,4344775643,0.786656,-0.05856,0.003904,-29.81125,11.7425,-38.3775,-26.880001,-17.944,-6.632,eccentric,5,3.0,40153.0,265036.0,89936.0,260967.0,99768.0
2026-04-14 17:54:11.153276,605781,1609506744815032,4344784371,0.519232,-0.251808,0.05856,-41.16875,11.6375,-43.70625,-26.752,-18.928001,-6.16,eccentric,5,3.0,40153.0,265036.0,89936.0,260967.0,99768.0
2026-04-14 17:54:11.166608,605782,1609506744829664,4344799298,0.519232,-0.251808,-0.050752,-36.89,13.41375,-46.235,-26.752,-18.928001,-6.16,eccentric,5,3.0,40153.0,265036.0,89936.0,260967.0,99768.0
2026-04-14 17:54:11.176568,605783,1609506744838602,4344807988,0.739808,-0.406016,-0.056608,-26.11,17.6575,-51.58125,-26.224,-19.44,-10.408001,eccentric,5,3.0,40153.0,265036.0,89936.0,260967.0,99768.0
2026-04-14 17:54:11.184496,605784,1609506744847635,4344816691,0.739808,-0.406016,-0.056608,-15.5925,17.5175,-46.725,-26.224,-19.44,-10.408001,eccentric,5,3.0,40153.0,265036.0,89936.0,260967.0,99768.0
2026-04-14 17:54:11.200348,605785,1609506744862181,4344831612,0.894016,0.021472,-0.072224,-19.11,16.65125,-44.73875,-25.752,-19.672,-5.576,eccentric,5,3.0,40153.0,265036.0,89936.0,260967.0,99768.0
2026-04-14 17:54:11.209418,605786,1609506744871087,4344840368,0.665632,-0.325984,-0.001952,-45.50875,19.1275,-55.57125,-26.376001,-20.032001,-5.784,concentric,5,3.0,40153.0,265036.0,89936.0,260967.0,99768.0
2026-04-14 17:54:11.244045,605797,1609506744885780,4344855805,0.665632,-0.325984,-0.001952,-53.08625,20.60625,-54.565,-26.376001,-20.032001,-5.784,concentric,5,3.0,45627.0,292750.0,98814.0,282255.0,109579.0
2026-04-14 17:54:11.246560,605798,1609506744894797,4344864549,0.698816,-0.347456,0.091744,-31.692501,23.28375,-46.89125,-26.136002,-20.712002,-4.168,concentric,5,3.0,45627.0,292750.0,98814.0,282255.0,109579.0
2026-04-14 17:54:11.249606,605799,1609506744909337,4344879550,0.698816,-0.347456,0.091744,-5.3025,30.77375,-55.93875,-26.136002,-20.712002,-4.168,concentric,5,3.0,45627.0,292750.0,98814.0,282255.0,109579.0
2026-04-14 17:54:11.257087,605800,1609506744918280,4344888247,0.905728,-0.160064,-0.456768,20.04625,31.92,-54.1275,-25.824001,-20.808,-5.928001,concentric,5,3.0,45627.0,292750.0,98814.0,282255.0,109579.0
2026-04-14 17:54:11.264549,605801,1609506744927224,4344896966,0.905728,-0.160064,-0.456768,8.75,33.17125,-46.15625,-25.824001,-20.808,-5.928001,concentric,5,3.0,45627.0,292750.0,98814.0,282255.0,109579.0
2026-04-14 17:54:11.303575,605802,1609506744941741,4344911890,0.991616,0.13664,0.062464,-22.35625,37.2925,-56.7175,-24.104002,-21.856,-4.048,concentric,5,3.0,45627.0,292750.0,98814.0,282255.0,109579.0
2026-04-14 17:54:11.305783,605803,1609506744950770,4344920600,0.991616,-0.081984,0.257664,-46.96125,44.87,-75.0925,-24.104002,-21.856,-4.048,concentric,5,3.0,45627.0,292750.0,98814.0,282255.0,109579.0
2026-04-14 17:54:11.308178,605804,1609506744965291,4344935551,0.710528,-0.083936,0.257664,-30.19625,47.9675,-72.9225,-23.792002,-22.336,-1.832,concentric,5,3.0,45627.0,292750.0,98814.0,282255.0,109579.0
2026-04-14 17:54:11.312901,605805,1609506744974231,4344944273,0.730048,-0.499712,-0.040992,-25.90875,56.420002,-67.865,-23.088001,-23.032001,-3.0,concentric,5,3.0,45627.0,292750.0,98814.0,282255.0,109579.0
2026-04-14 17:54:11.342845,605816,1609506744988871,4344957267,0.730048,-0.499712,-0.040992,-22.19875,60.4975,-63.595,-23.088001,-23.032001,-3.0,concentric,5,3.0,87774.0,333085.0,158989.0,315753.0,171047.0
2026-04-14 17:54:11.345299,605817,1609506744998152,4344968107,0.589504,-0.158112,0.001952,-3.43,64.61,-53.515,-22.696001,-23.592001,-2.872,concentric,5,3.0,87774.0,333085.0,158989.0,315753.0,171047.0
2026-04-14 17:54:11.348289,605818,1609506745007107,4344976830,0.589504,-0.158112,0.001952,24.928751,68.0575,-48.97375,-22.696001,-23.592001,-2.872,concentric,5,3.0,87774.0,333085.0,158989.0,315753.0,171047.0
2026-04-14 17:54:11.359587,605819,1609506745021759,4344991735,0.583648,-0.111264,-0.105408,28.69125,73.29,-51.94,-21.904001,-23.768002,-2.48,concentric,5,3.0,87774.0,333085.0,158989.0,315753.0,171047.0
2026-04-14 17:54:11.389407,605820,1609506745030695,4345000439,0.583648,-0.111264,-0.105408,15.61875,81.996254,-53.08625,-21.904001,-23.768002,-2.48,concentric,5,3.0,87774.0,333085.0,158989.0,315753.0,171047.0
2026-04-14 17:54:11.391865,605821,1609506745045192,4345015320,0.503616,-0.02928,0.122976,0.8575,79.1875,-50.19875,-21.744001,-24.192001,-2.432,concentric,5,3.0,87774.0,333085.0,158989.0,315753.0,171047.0
2026-04-14 17:54:11.393975,605822,1609506745054123,4345024050,0.523136,-0.085888,0.033184,-1.7675,70.9275,-45.325,-21.992,-24.512001,-0.232,concentric,5,3.0,87774.0,333085.0,158989.0,315753.0,171047.0
2026-04-14 17:54:11.415408,605823,1609506745063073,4345032773,0.523136,-0.085888,0.033184,-1.37375,56.2625,-40.425,-21.992,-24.512001,-0.232,concentric,5,3.0,87774.0,333085.0,158989.0,315753.0,171047.0
2026-04-14 17:54:11.418649,605824,1609506745077641,4345047655,0.60512,-0.162016,-0.115168,1.56625,41.25625,-38.40375,-21.320002,-24.736002,-0.464,concentric,5,3.0,87774.0,333085.0,158989.0,315753.0,171047.0
2026-04-14 17:54:11.455698,605835,1609506745086666,4345056424,0.60512,-0.162016,-0.115168,1.63625,28.14875,-32.75125,-21.320002,-24.736002,-0.464,concentric,5,3.0,142047.0,340735.0,224720.0,320878.0,234984.0
2026-04-14 17:54:11.457549,605836,1609506745101225,4345071365,0.5856,-0.173728,0.093696,-1.23375,20.44,-25.13,-21.864,-24.44,-0.256,concentric,5,3.0,142047.0,340735.0,224720.0,320878.0,234984.0
2026-04-14 17:54:11.458921,605837,1609506745110174,4345080114,0.5856,-0.173728,0.093696,-1.3825,13.29125,-17.26375,-21.864,-24.44,-0.256,concentric,5,3.0,142047.0,340735.0,224720.0,320878.0,234984.0
2026-04-14 17:54:11.461412,605838,1609506745124676,4345093053,0.648064,-0.18544,-0.160064,-5.59125,3.5175,-8.68,-20.624,-24.920002,-1.32,concentric,5,3.0,142047.0,340735.0,224720.0,320878.0,234984.0
2026-04-14 17:54:11.472002,605839,1609506745133905,4345103829,0.69296,-0.060512,-0.072224,-5.15375,-7.07,0.00875,-20.664001,-24.856,-1.608,concentric,5,3.0,142047.0,340735.0,224720.0,320878.0,234984.0
2026-04-14 17:54:11.483168,605840,1609506745142907,4345112536,0.69296,-0.060512,-0.072224,3.36,-15.56625,4.095,-20.664001,-24.856,-1.608,concentric,5,3.0,142047.0,340735.0,224720.0,320878.0,234984.0
2026-04-14 17:54:11.494031,605841,1609506745157416,4345127478,0.75152,-0.101504,0.017568,5.31125,-19.6175,7.1925,-22.288,-24.328001,0.664,concentric,5,3.0,142047.0,340735.0,224720.0,320878.0,234984.0
2026-04-14 17:54:11.505356,605842,1609506745166408,4345136269,0.75152,-0.101504,0.017568,1.365,-20.4925,8.6275,-22.288,-24.328001,0.664,concentric,5,3.0,142047.0,340735.0,224720.0,320878.0,234984.0
2026-04-14 17:54:11.541594,605853,1609506745180952,4345151225,0.935008,-0.081984,0.095648,0.35,-17.73625,6.44,-21.528002,-24.784,-1.784,concentric,5,3.0,148091.0,345092.0,232103.0,325210.0,241609.0
2026-04-14 17:54:11.547239,605854,1609506745190109,4345159986,0.935008,-0.081984,0.095648,3.2025,-15.2075,4.90875,-21.528002,-24.784,-1.784,concentric,5,3.0,148091.0,345092.0,232103.0,325210.0,241609.0
2026-04-14 17:54:11.551263,605855,1609506745199122,4345168757,1.003328,-0.121024,0.06832,-1.1725,-14.49,4.9175,-21.2,-24.912,-1.896,concentric,5,3.0,148091.0,345092.0,232103.0,325210.0,241609.0
2026-04-14 17:54:11.552399,605856,1609506745213664,4345183666,1.007232,-0.167872,0.074176,-5.0575,-14.980001,4.55875,-21.064001,-24.376001,-0.272,concentric,5,3.0,148091.0,345092.0,232103.0,325210.0,241609.0
2026-04-14 17:54:11.561482,605857,1609506745222610,4345192364,1.007232,-0.167872,0.074176,0.9975,-15.54875,4.97,-21.064001,-24.376001,-0.272,concentric,5,3.0,148091.0,345092.0,232103.0,325210.0,241609.0
2026-04-14 17:54:11.574420,605858,1609506745237219,4345207307,0.93696,-0.12688,0.005856,8.89,-14.70875,6.11625,-21.072,-24.352001,-1.32,concentric,5,3.0,148091.0,345092.0,232103.0,325210.0,241609.0
2026-04-14 17:54:11.584534,605859,1609506745246155,4345215996,0.93696,-0.12688,0.005856,14.3675,-11.06875,6.2475,-21.072,-24.352001,-1.32,concentric,5,3.0,148091.0,345092.0,232103.0,325210.0,241609.0
2026-04-14 17:54:11.593343,605860,1609506745255106,4345224714,0.913536,-0.060512,-0.03904,13.29125,-5.62625,6.3175,-22.256,-24.256,-1.4,concentric,5,3.0,148091.0,345092.0,232103.0,325210.0,241609.0
2026-04-14 17:54:11.608261,605861,1609506745269600,4345239599,0.913536,-0.060512,-0.03904,5.48625,0.62125,4.80375,-22.256,-24.256,-1.4,concentric,5,3.0,148091.0,345092.0,232103.0,325210.0,241609.0
2026-04-14 17:54:11.617047,605862,1609506745278544,4345248359,0.91744,-0.099552,-0.11712,-2.555,4.655,3.605,-21.968,-24.536001,-2.488,concentric,5,3.0,148091.0,345092.0,232103.0,325210.0,241609.0
2026-04-14 17:54:11.643892,605873,1609506745293156,4345263342,0.91744,-0.154208,-0.033184,-8.14625,5.67,2.35375,-21.968,-24.536001,-2.488,concentric,5,3.0,146892.0,347239.0,230637.0,327384.0,240152.0
2026-04-14 17:54:11.649508,605874,1609506745302210,4345272063,0.929152,-0.154208,-0.033184,-8.86375,3.64875,0.63,-22.256,-24.096,-2.36,concentric,5,3.0,146892.0,347239.0,230637.0,327384.0,240152.0
2026-04-14 17:54:11.654214,605875,1609506745316830,4345287077,0.880352,-0.142496,-0.052704,-1.19,1.65375,-0.6475,-22.416,-24.224,-0.504,concentric,5,3.0,146892.0,347239.0,230637.0,327384.0,240152.0
2026-04-14 17:54:11.664454,605876,1609506745325778,4345295768,0.880352,-0.142496,-0.052704,5.7225,-1.07625,0.02625,-22.416,-24.224,-0.504,concentric,5,3.0,146892.0,347239.0,230637.0,327384.0,240152.0
2026-04-14 17:54:11.673155,605877,1609506745334726,4345304472,0.952576,-0.06832,0.064416,8.19,-1.4525,-0.4375,-22.720001,-23.976002,-2.224,concentric,5,3.0,146892.0,347239.0,230637.0,327384.0,240152.0
2026-04-14 17:54:11.687066,605878,1609506745349340,4345319396,0.952576,-0.06832,0.064416,9.205,-0.20125,-0.8575,-22.720001,-23.976002,-2.224,concentric,5,3.0,146892.0,347239.0,230637.0,327384.0,240152.0
2026-04-14 17:54:11.696605,605879,1609506745358300,4345328097,0.890112,-0.074176,0.054656,3.17625,0.76125,-0.55125,-22.6,-24.424002,-2.52,concentric,5,3.0,146892.0,347239.0,230637.0,327384.0,240152.0
2026-04-14 17:54:11.712916,605880,1609506745372949,4345342976,0.890112,-0.074176,0.054656,0.6475,0.37625,-0.88375,-22.6,-24.424002,-2.52,concentric,5,3.0,146892.0,347239.0,230637.0,327384.0,240152.0
2026-04-14 17:54:11.794190,605891,1609506745381884,4345352146,0.901824,-0.081984,-0.076128,3.84125,-0.9275,-1.5575,-21.536001,-24.616001,-3.344,concentric,5,3.0,144235.0,348132.0,227526.0,328270.0,237231.0
2026-04-14 17:54:11.797078,605892,1609506745390935,4345360965,0.901824,-0.081984,-0.076128,3.395,-2.45,-2.5375,-21.536001,-24.616001,-3.344,concentric,5,3.0,144235.0,348132.0,227526.0,328270.0,237231.0
2026-04-14 17:54:11.799351,605893,1609506745405489,4345373872,0.901824,-0.089792,-0.003904,3.05375,-2.695,-3.59625,-22.136002,-24.6,-1.36,concentric,5,3.0,144235.0,348132.0,227526.0,328270.0,237231.0
2026-04-14 17:54:11.802086,605894,1609506745414680,4345384626,0.940864,-0.08784,0.037088,4.31375,-2.2575,-4.68125,-22.336,-24.52,-1.28,concentric,5,3.0,144235.0,348132.0,227526.0,328270.0,237231.0
2026-04-14 17:54:11.804581,605895,1609506745429157,4345397601,0.940864,-0.08784,0.037088,4.2875,-0.30625,-5.5825,-22.336,-24.52,-1.28,concentric,5,3.0,144235.0,348132.0,227526.0,328270.0,237231.0
2026-04-14 17:54:11.807082,605896,1609506745438422,4345408368,0.894016,-0.10736,-0.066368,1.18125,0.95375,-5.18875,-22.36,-23.920002,-1.544,concentric,5,3.0,144235.0,348132.0,227526.0,328270.0,237231.0
2026-04-14 17:54:11.809332,605897,1609506745452973,4345423338,0.894016,-0.10736,-0.066368,1.505,1.6275,-5.1975,-22.36,-23.920002,-1.544,concentric,5,3.0,144235.0,348132.0,227526.0,328270.0,237231.0
2026-04-14 17:54:11.812092,605898,1609506745462066,4345432101,0.960384,-0.080032,0.13664,3.57875,1.72375,-3.87625,-22.352001,-24.496,-0.096,concentric,5,3.0,144235.0,348132.0,227526.0,328270.0,237231.0
2026-04-14 17:54:11.814599,605899,1609506745470998,4345440795,0.960384,-0.080032,0.13664,4.64625,1.37375,-2.68625,-22.352001,-24.496,-0.096,concentric,5,3.0,144235.0,348132.0,227526.0,328270.0,237231.0
2026-04-14 17:54:11.844149,605910,1609506745486227,4345455780,0.872544,-0.042944,0.005856,5.43375,1.14625,-2.1,-21.304,-24.688002,-2.64,concentric,5,3.0,138885.0,348107.0,221493.0,328253.0,231570.0
2026-04-14 17:54:11.846957,605911,1609506745495202,4345464627,0.958432,-0.076128,0.095648,4.585,1.30375,-1.37375,-21.504002,-24.736002,-2.24,concentric,5,3.0,138885.0,348107.0,221493.0,328253.0,231570.0
2026-04-14 17:54:11.849496,605912,1609506745504135,4345473333,0.958432,-0.076128,0.095648,2.19625,2.02125,-0.91,-21.504002,-24.736002,-2.24,concentric,5,3.0,138885.0,348107.0,221493.0,328253.0,231570.0
2026-04-14 17:54:11.858235,605913,1609506745518733,4345488303,0.90768,-0.080032,0.001952,0.62125,3.33375,-1.09375,-21.496,-24.664001,-2.6,concentric,5,3.0,138885.0,348107.0,221493.0,328253.0,231570.0
2026-04-14 17:54:11.865488,605914,1609506745527696,4345497004,0.90768,-0.080032,0.001952,0.51625,4.41875,-0.84,-21.496,-24.664001,-2.6,concentric,5,3.0,138885.0,348107.0,221493.0,328253.0,231570.0
2026-04-14 17:54:11.880714,605915,1609506745542195,4345511954,0.935008,-0.095648,0.042944,1.11125,5.13625,-0.8925,-22.848001,-24.216002,-0.56,concentric,5,3.0,138885.0,348107.0,221493.0,328253.0,231570.0
2026-04-14 17:54:11.889566,605916,1609506745551282,4345520670,0.935008,-0.095648,0.042944,1.28625,5.73125,-1.505,-22.848001,-24.216002,-0.56,concentric,5,3.0,138885.0,348107.0,221493.0,328253.0,231570.0
2026-04-14 17:54:11.904552,605917,1609506745565774,4345535563,0.940864,-0.08784,0.083936,1.86375,6.50125,-2.28375,-21.392,-24.648,-2.544,concentric,5,3.0,138885.0,348107.0,221493.0,328253.0,231570.0
2026-04-14 17:54:11.911645,605918,1609506745574738,4345544276,0.940864,-0.08784,0.1464,2.1875,6.3,-1.61875,-21.392,-24.648,-2.544,concentric,5,3.0,138885.0,348107.0,221493.0,328253.0,231570.0
2026-04-14 17:54:11.971598,605929,1609506745583934,4345553314,0.925248,-0.089792,0.1464,1.65375,5.81,-0.58625,-21.352001,-24.392002,-2.512,concentric,5,3.0,133062.0,348527.0,214776.0,328774.0,225155.0
2026-04-14 17:54:11.974601,605930,1609506745598455,4345568285,0.862784,-0.089792,-0.070272,1.46125,4.3925,0.77,-21.408,-24.176,-2.432,concentric,5,3.0,133062.0,348527.0,214776.0,328774.0,225155.0
2026-04-14 17:54:11.977010,605931,1609506745607415,4345576998,0.862784,-0.089792,-0.070272,2.1875,2.6075,1.74125,-21.408,-24.176,-2.432,concentric,5,3.0,133062.0,348527.0,214776.0,328774.0,225155.0
2026-04-14 17:54:11.979567,605932,1609506745622024,4345592054,0.835456,-0.013664,0.132736,2.7125,1.75875,2.42375,-21.752,-24.304,-1.608,concentric,5,3.0,133062.0,348527.0,214776.0,328774.0,225155.0
2026-04-14 17:54:11.981475,605933,1609506745630964,4345600753,0.835456,-0.013664,0.132736,2.42375,1.37375,2.17,-21.752,-24.304,-1.608,concentric,5,3.0,133062.0,348527.0,214776.0,328774.0,225155.0
2026-04-14 17:54:11.984563,605934,1609506745639925,4345609469,0.833504,-0.05856,0.105408,1.26,1.12,1.40875,-22.384,-23.960001,-1.904,concentric,5,3.0,133062.0,348527.0,214776.0,328774.0,225155.0
2026-04-14 17:54:11.992017,605935,1609506745654465,4345624515,0.833504,-0.05856,0.105408,1.47,0.90125,0.9975,-22.384,-23.960001,-1.904,concentric,5,3.0,133062.0,348527.0,214776.0,328774.0,225155.0
2026-04-14 17:54:12.002025,605936,1609506745663422,4345633204,0.923296,-0.091744,0.1952,3.255,1.5575,2.12625,-22.456001,-24.256,-2.744,concentric,5,3.0,133062.0,348527.0,214776.0,328774.0,225155.0
2026-04-14 17:54:12.020031,605937,1609506745677912,4345648099,0.923296,-0.101504,0.140544,3.57875,0.77875,4.0075,-21.304,-24.2,-2.728,concentric,5,3.0,133062.0,348527.0,214776.0,328774.0,225155.0
2026-04-14 17:54:12.045402,605948,1609506745686952,4345656843,0.923296,-0.101504,0.140544,2.695,0.14,6.50125,-21.304,-24.2,-2.728,concentric,5,3.0,124335.0,347408.0,204561.0,327850.0,215196.0
2026-04-14 17:54:12.048165,605949,1609506745701746,4345671812,0.864736,-0.064416,-0.013664,3.8675,-0.5775,7.63,-21.976002,-24.248001,-2.96,concentric,5,3.0,124335.0,347408.0,204561.0,327850.0,215196.0
2026-04-14 17:54:12.050797,605950,1609506745710855,4345680528,0.864736,-0.064416,-0.013664,3.42125,-1.33875,7.72625,-21.976002,-24.248001,-2.96,concentric,5,3.0,124335.0,347408.0,204561.0,327850.0,215196.0
2026-04-14 17:54:12.056585,605951,1609506745720012,4345689298,0.837408,-0.083936,-0.01952,1.86375,-1.51375,7.105,-21.960001,-23.944,-2.664,concentric,5,3.0,124335.0,347408.0,204561.0,327850.0,215196.0
2026-04-14 17:54:12.073292,605952,1609506745734501,4345704416,0.837408,-0.083936,-0.01952,0.90125,-0.91,6.16875,-21.960001,-23.944,-2.664,concentric,5,3.0,124335.0,347408.0,204561.0,327850.0,215196.0
2026-04-14 17:54:12.082011,605953,1609506745743590,4345713162,0.841312,-0.181536,0.0,1.96875,-1.49625,6.48375,-22.752,-23.648,-2.792,concentric,5,3.0,124335.0,347408.0,204561.0,327850.0,215196.0
2026-04-14 17:54:12.098274,605954,1609506745758086,4345728064,0.823744,-0.0488,0.1464,6.58875,-4.38375,7.2275,-22.144001,-23.904001,-2.08,concentric,5,3.0,124335.0,347408.0,204561.0,327850.0,215196.0
2026-04-14 17:54:12.123989,605955,1609506745766996,4345736756,0.823744,-0.0488,0.1464,13.65,-7.77875,7.9975,-22.144001,-23.904001,-2.08,concentric,5,3.0,124335.0,347408.0,204561.0,327850.0,215196.0
2026-04-14 17:54:12.126475,605956,1609506745775910,4345745465,0.823744,-0.0488,0.210816,15.7675,-9.7125,8.4525,-22.144001,-23.904001,-2.08,concentric,5,3.0,124335.0,347408.0,204561.0,327850.0,215196.0
2026-04-14 17:54:12.179570,605967,1609506745790466,4345760583,0.870592,-0.062464,0.210816,9.38,-10.43,8.67125,-22.912,-23.160002,-3.592,concentric,5,3.0,98094.0,339835.0,172844.0,322690.0,183495.0
2026-04-14 17:54:12.181561,605968,1609506745799519,4345769311,0.837408,-0.177632,0.18544,1.95125,-11.515,9.1875,-22.736002,-23.512001,-2.016,concentric,5,3.0,98094.0,339835.0,172844.0,322690.0,183495.0
2026-04-14 17:54:12.184576,605969,1609506745814216,4345784231,0.837408,-0.177632,0.18544,-0.5425,-14.41125,10.3425,-22.736002,-23.512001,-2.016,concentric,5,3.0,98094.0,339835.0,172844.0,322690.0,183495.0
2026-04-14 17:54:12.186587,605970,1609506745823177,4345792933,0.726144,-0.183488,0.060512,4.40125,-17.815,12.76625,-23.160002,-22.928001,-2.48,concentric,5,3.0,98094.0,339835.0,172844.0,322690.0,183495.0
2026-04-14 17:54:12.189225,605971,1609506745837677,4345807866,0.851072,-0.191296,-0.007808,11.29625,-23.00375,16.6775,-23.592001,-23.152,-2.904,concentric,5,3.0,98094.0,339835.0,172844.0,322690.0,183495.0
2026-04-14 17:54:12.191843,605972,1609506745846603,4345816537,0.851072,-0.191296,-0.007808,15.645,-24.78875,19.46875,-23.592001,-23.152,-2.904,concentric,5,3.0,98094.0,339835.0,172844.0,322690.0,183495.0
2026-04-14 17:54:12.194165,605973,1609506745855617,4345825243,0.851072,-0.191296,-0.007808,13.895,-24.272501,22.21625,-23.592001,-23.152,-2.904,concentric,5,3.0,98094.0,339835.0,172844.0,322690.0,183495.0
2026-04-14 17:54:12.207951,605974,1609506745870198,4345840192,0.772992,-0.06832,0.11712,6.60625,-23.42375,24.07125,-23.152,-23.192001,-2.424,concentric,5,3.0,98094.0,339835.0,172844.0,322690.0,183495.0
2026-04-14 17:54:12.220411,605975,1609506745879171,4345848905,0.659776,-0.1464,0.134688,2.59,-23.975,22.39125,-24.096,-22.504002,-3.728,concentric,5,3.0,98094.0,339835.0,172844.0,322690.0,183495.0
2026-04-14 17:54:12.245410,605986,1609506745893951,4345863904,0.659776,-0.1464,0.134688,4.34,-26.0925,23.03875,-24.096,-22.504002,-3.728,concentric,5,3.0,52910.0,301778.0,112193.0,291690.0,122316.0
2026-04-14 17:54:12.247946,605987,1609506745902951,4345872691,0.759328,-0.26352,-0.197152,9.37125,-29.21625,29.42625,-24.6,-21.800001,-2.688,concentric,5,3.0,52910.0,301778.0,112193.0,291690.0,122316.0
2026-04-14 17:54:12.250454,605988,1609506745911927,4345881400,0.759328,-0.26352,-0.197152,12.76625,-31.17625,36.42625,-24.6,-21.800001,-2.688,concentric,5,3.0,52910.0,301778.0,112193.0,291690.0,122316.0
2026-04-14 17:54:12.264190,605989,1609506745926500,4345896340,0.876448,-0.095648,0.066368,3.78,-25.61125,31.5,-24.960001,-21.712002,-2.872,concentric,5,3.0,52910.0,301778.0,112193.0,291690.0,122316.0
2026-04-14 17:54:12.275493,605990,1609506745935450,4345905206,0.876448,-0.095648,0.066368,-7.7175,-19.81875,6.30875,-24.960001,-21.712002,-2.872,concentric,5,3.0,52910.0,301778.0,112193.0,291690.0,122316.0
2026-04-14 17:54:12.290355,605991,1609506745949932,4345920129,0.622688,-0.255712,0.12688,-7.7,-20.23875,8.645,-23.880001,-22.12,-5.048,concentric,5,3.0,52910.0,301778.0,112193.0,291690.0,122316.0
2026-04-14 17:54:12.296779,605992,1609506745958910,4345928894,0.651968,-0.495808,-0.013664,8.91625,-23.19625,15.7675,-24.336,-21.936,-4.088,concentric,5,3.0,52910.0,301778.0,112193.0,291690.0,122316.0
2026-04-14 17:54:12.309240,605993,1609506745973443,4345941818,0.651968,-0.495808,-0.013664,31.75375,-24.29875,27.65875,-24.336,-21.936,-4.088,concentric,5,3.0,52910.0,301778.0,112193.0,291690.0,122316.0
2026-04-14 17:54:12.320266,605994,1609506745982753,4345952606,0.755424,-0.163968,-0.06832,50.365,-27.93,35.41125,-24.392002,-21.376001,-5.944,concentric,5,3.0,52910.0,301778.0,112193.0,291690.0,122316.0
2026-04-14 17:54:12.347925,606005,1609506745991910,4345961372,0.755424,-0.163968,-0.06832,54.66125,-28.9625,35.70875,-24.392002,-21.376001,-5.944,concentric,5,3.0,43905.0,262741.0,98226.0,260882.0,108811.0
2026-04-14 17:54:12.350482,606006,1609506746006497,4345976258,0.821792,-0.064416,0.076128,37.93125,-26.95875,27.86875,-25.432001,-20.952002,-5.392,concentric,5,3.0,43905.0,262741.0,98226.0,260882.0,108811.0
2026-04-14 17:54:12.352881,606007,1609506746015457,4345984967,0.821792,-0.064416,0.076128,14.77,-25.45375,21.74375,-25.432001,-20.952002,-5.392,concentric,5,3.0,43905.0,262741.0,98226.0,260882.0,108811.0
2026-04-14 17:54:12.367860,606008,1609506746029956,4345999891,0.610976,-0.267424,-0.00976,-1.81125,-24.675,25.96125,-25.712002,-20.488,-5.520001,concentric,5,3.0,43905.0,262741.0,98226.0,260882.0,108811.0
2026-04-14 17:54:12.377904,606009,1609506746038889,4346008627,0.6344,-0.25376,0.085888,-7.84,-26.5125,28.39375,-25.6,-20.848001,-4.96,concentric,5,3.0,43905.0,262741.0,98226.0,260882.0,108811.0
2026-04-14 17:54:12.386703,606010,1609506746047823,4346017301,0.6344,-0.25376,0.085888,-2.54625,-30.02125,30.03875,-25.6,-20.848001,-4.96,concentric,5,3.0,43905.0,262741.0,98226.0,260882.0,108811.0
2026-04-14 17:54:12.402392,606011,1609506746062355,4346032206,0.755424,-0.08784,-0.103456,3.64,-32.3925,30.625,-25.160002,-20.04,-7.248,concentric,5,3.0,43905.0,262741.0,98226.0,260882.0,108811.0
2026-04-14 17:54:12.408935,606012,1609506746071343,4346040897,0.755424,-0.08784,-0.103456,0.34125,-33.52125,27.34375,-25.160002,-20.04,-7.248,concentric,5,3.0,43905.0,262741.0,98226.0,260882.0,108811.0
2026-04-14 17:54:12.446691,606023,1609506746085866,4346056102,0.737856,-0.158112,-0.042944,2.3275,-34.615,25.71625,-26.544,-19.688002,-6.6,concentric,5,3.0,34193.0,220297.0,81126.0,222700.0,90154.0
2026-04-14 17:54:12.449563,606024,1609506746094875,4346064833,0.737856,-0.158112,-0.042944,-2.6075,-31.54375,21.62125,-26.544,-19.688002,-6.6,concentric,5,3.0,34193.0,220297.0,81126.0,222700.0,90154.0
2026-04-14 17:54:12.451577,606025,1609506746109439,4346077903,0.560224,-0.212768,0.150304,1.33,-29.65375,17.045,-27.056002,-19.016,-5.496,concentric,5,3.0,34193.0,220297.0,81126.0,222700.0,90154.0
2026-04-14 17:54:12.457043,606026,1609506746118785,4346088695,0.642208,-0.1952,-0.119072,6.30875,-31.036251,13.37,-27.056002,-18.456001,-8.008,concentric,5,3.0,34193.0,220297.0,81126.0,222700.0,90154.0
2026-04-14 17:54:12.464568,606027,1609506746127731,4346097351,0.642208,-0.1952,-0.119072,16.625,-32.6375,13.7025,-26.976002,-18.456001,-8.008,concentric,5,3.0,34193.0,220297.0,81126.0,222700.0,90154.0
2026-04-14 17:54:12.496556,606028,1609506746142349,4346112250,0.835456,0.003904,-0.105408,15.07625,-33.11,7.09625,-25.816002,-19.320002,-8.496,concentric,5,3.0,34193.0,220297.0,81126.0,222700.0,90154.0
2026-04-14 17:54:12.496927,606029,1609506746151446,4346120944,0.835456,0.003904,-0.105408,7.65625,-32.17375,2.94,-25.816002,-19.320002,-8.496,concentric,5,3.0,34193.0,220297.0,81126.0,222700.0,90154.0
2026-04-14 17:54:12.521895,606030,1609506746165992,4346135957,0.706624,-0.26352,0.060512,4.8125,-24.78875,2.8525,-25.888,-18.576,-8.480001,concentric,5,3.0,34193.0,220297.0,81126.0,222700.0,90154.0
2026-04-14 17:54:12.524050,606031,1609506746175084,4346144640,0.706624,-0.26352,0.060512,-5.04875,-16.0825,0.1575,-25.888,-18.576,-8.480001,concentric,5,3.0,34193.0,220297.0,81126.0,222700.0,90154.0
2026-04-14 17:54:12.526645,606032,1609506746184219,4346153361,0.640256,-0.398208,-0.119072,2.38,-16.397501,3.07125,-26.800001,-18.568,-7.576,concentric,5,3.0,34193.0,220297.0,81126.0,222700.0,90154.0
2026-04-14 17:54:12.554556,606043,1609506746198807,4346168315,0.640256,-0.03904,-0.36112,22.54,-15.96,10.35125,-26.800001,-18.568,-7.576,concentric,5,3.0,33422.0,209893.0,80415.0,213298.0,89695.0
2026-04-14 17:54:12.557042,606044,1609506746207752,4346177044,0.815936,-0.037088,-0.36112,35.83125,-15.05875,1.81125,-26.680002,-18.352001,-8.008,concentric,5,3.0,33422.0,209893.0,80415.0,213298.0,89695.0
2026-04-14 17:54:12.584557,606045,1609506746222418,4346192090,0.940864,-0.0976,0.081984,28.866251,-18.4275,-8.4525,-27.016,-18.264,-8.328,concentric,5,3.0,33422.0,209893.0,80415.0,213298.0,89695.0
2026-04-14 17:54:12.590272,606046,1609506746231335,4346200782,0.940864,-0.0976,0.081984,0.34125,-10.96375,-8.5925,-27.016,-18.264,-8.328,concentric,5,3.0,33422.0,209893.0,80415.0,213298.0,89695.0
2026-04-14 17:54:12.590702,606047,1609506746240425,4346209516,0.798368,-0.413824,0.179584,-10.03625,-0.88375,1.54,-26.048,-18.400002,-9.096001,concentric,5,3.0,33422.0,209893.0,80415.0,213298.0,89695.0
2026-04-14 17:54:12.595882,606048,1609506746254948,4346224499,0.798368,-0.413824,0.179584,-7.18375,11.3225,0.63,-26.048,-18.400002,-9.096001,concentric,5,3.0,33422.0,209893.0,80415.0,213298.0,89695.0
2026-04-14 17:54:12.600392,606049,1609506746263923,4346233229,0.696864,-0.368928,-0.140544,15.11125,13.39625,-0.83125,-26.136002,-17.928001,-9.424001,concentric,5,3.0,33422.0,209893.0,80415.0,213298.0,89695.0
2026-04-14 17:54:12.617002,606050,1609506746278389,4346248151,0.696864,-0.368928,-0.140544,40.48625,17.6925,1.05,-26.136002,-17.928001,-9.424001,concentric,5,3.0,33422.0,209893.0,80415.0,213298.0,89695.0
2026-04-14 17:54:12.647948,606061,1609506746287759,4346257159,0.91744,0.16592,-0.046848,40.83625,13.23875,-3.955,-26.272001,-18.160002,-7.336,concentric,5,3.0,48382.0,224061.0,107402.0,226427.0,118906.0
2026-04-14 17:54:12.650670,606062,1609506746296759,4346265953,0.91744,0.16592,-0.046848,13.658751,12.27625,-11.6375,-26.272001,-18.160002,-7.336,concentric,5,3.0,48382.0,224061.0,107402.0,226427.0,118906.0
2026-04-14 17:54:12.653321,606063,1609506746311300,4346280925,0.98576,-0.132736,0.105408,-16.6775,19.01375,-9.730001,-27.736002,-17.496,-6.776001,concentric,5,3.0,48382.0,224061.0,107402.0,226427.0,118906.0
2026-04-14 17:54:12.658339,606064,1609506746320273,4346289619,0.964288,-0.382592,0.046848,-28.848751,31.7275,-2.98375,-28.016,-17.36,-8.256001,concentric,5,3.0,48382.0,224061.0,107402.0,226427.0,118906.0
2026-04-14 17:54:12.674613,606065,1609506746334929,4346304547,0.964288,-0.382592,0.046848,-19.6,36.91625,-6.6325,-28.016,-17.36,-8.256001,concentric,5,3.0,48382.0,224061.0,107402.0,226427.0,118906.0
2026-04-14 17:54:12.684061,606066,1609506746343877,4346313272,0.94672,-0.11712,0.109312,-2.31875,37.84375,-13.22125,-26.048,-18.064001,-8.408,concentric,5,3.0,48382.0,224061.0,107402.0,226427.0,118906.0
2026-04-14 17:54:12.696426,606067,1609506746358357,4346328171,0.94672,-0.11712,0.109312,13.58875,41.965,-13.3175,-26.048,-18.064001,-8.408,concentric,5,3.0,48382.0,224061.0,107402.0,226427.0,118906.0
2026-04-14 17:54:12.707378,606068,1609506746367322,4346336873,1.028704,-0.001952,0.15616,16.19625,42.00875,-12.95,-26.160002,-17.800001,-8.736,concentric,5,3.0,48382.0,224061.0,107402.0,226427.0,118906.0
2026-04-14 17:54:12.713957,606069,1609506746376250,4346345563,1.028704,-0.001952,0.15616,6.1425,42.525,-14.88375,-26.160002,-17.800001,-8.736,concentric,5,3.0,48382.0,224061.0,107402.0,226427.0,118906.0
2026-04-14 17:54:12.749403,606080,1609506746390921,4346360722,0.987712,-0.275232,0.142496,-1.085,51.03,-15.53125,-26.080002,-17.704,-7.528,concentric,5,3.0,41582.0,225297.0,95061.0,228183.0,105489.0
2026-04-14 17:54:12.751363,606081,1609506746399891,4346369524,0.987712,-0.275232,-0.017568,3.77125,57.1725,-20.92125,-26.080002,-17.704,-7.528,concentric,5,3.0,41582.0,225297.0,95061.0,228183.0,105489.0
2026-04-14 17:54:12.754251,606082,1609506746414428,4346384534,1.038464,-0.232288,-0.017568,18.29625,59.8325,-22.89875,-26.448002,-17.728,-5.096,concentric,5,3.0,41582.0,225297.0,95061.0,228183.0,105489.0
2026-04-14 17:54:12.761627,606083,1609506746423389,4346393257,1.018944,-0.099552,0.003904,20.86875,60.6375,-26.95875,-26.936,-18.0,-6.16,concentric,5,3.0,41582.0,225297.0,95061.0,228183.0,105489.0
2026-04-14 17:54:12.769482,606084,1609506746432436,4346401971,1.018944,-0.099552,0.003904,12.04,61.4775,-27.58,-26.936,-18.0,-6.16,concentric,5,3.0,41582.0,225297.0,95061.0,228183.0,105489.0
2026-04-14 17:54:12.786091,606085,1609506746446936,4346416960,1.079456,-0.300608,0.316224,1.23375,62.79875,-20.335001,-26.208002,-17.616001,-7.272,concentric,5,3.0,41582.0,225297.0,95061.0,228183.0,105489.0
2026-04-14 17:54:12.794012,606086,1609506746455867,4346425662,1.079456,-0.300608,0.316224,-2.56375,65.14375,-12.20625,-26.208002,-17.616001,-7.272,concentric,5,3.0,41582.0,225297.0,95061.0,228183.0,105489.0
2026-04-14 17:54:12.809427,606087,1609506746470399,4346440576,1.097024,-0.113216,0.290848,2.415,64.40875,-12.0225,-26.048,-17.960001,-6.576,concentric,5,3.0,41582.0,225297.0,95061.0,228183.0,105489.0
