pc_time,serial_num,sensor_ts,host_ts,ax,ay,az,gx,gy,gz,mx,my,mz,phase,rpe,weight_kg,ppg_a,ppg_b,ppg_c,ppg_d,ppg_e
2026-04-14 17:54:17.902895,607048,1609506751563330,4351532840,1.079456,0.081984,0.021472,13.51,66.29875,-23.02125,-23.776001,-19.880001,-9.440001,eccentric,5,3.0,64531.0,315464.0,129289.0,303072.0,140746.0
2026-04-14 17:54:17.908964,607049,1609506751572369,4351541544,1.079456,0.081984,0.021472,2.80875,67.15625,-24.50875,-23.776001,-19.880001,-9.440001,eccentric,5,3.0,64531.0,315464.0,129289.0,303072.0,140746.0
2026-04-14 17:54:17.925285,607050,1609506751586856,4351556447,1.153632,-0.072224,0.247904,-2.6075,71.3825,-26.95,-23.648,-20.008001,-5.472,eccentric,5,3.0,64531.0,315464.0,129289.0,303072.0,140746.0
2026-04-14 17:54:17.937913,607051,1609506751595826,4351565222,1.216096,-0.124928,0.210816,-4.2,71.89875,-30.45,-23.696001,-20.368,-6.896,eccentric,5,3.0,64531.0,315464.0,129289.0,303072.0,140746.0
2026-04-14 17:54:17.951174,607052,1609506751610336,4351580155,1.216096,-0.124928,0.210816,-0.945,70.56875,-27.4225,-23.696001,-20.368,-6.896,eccentric,5,3.0,64531.0,315464.0,129289.0,303072.0,140746.0
2026-04-14 17:54:18.001765,607063,1609506751619814,4351589025,1.212192,-0.01952,0.1464,4.76,67.89125,-26.01375,-23.192001,-20.512001,-6.176,eccentric,5,3.0,98351.0,340521.0,174152.0,324043.0,186104.0
2026-04-14 17:54:18.024236,607064,1609506751629125,4351597833,1.212192,-0.01952,0.1464,3.15,65.5375,-24.22,-23.192001,-20.512001,-6.176,eccentric,5,3.0,98351.0,340521.0,174152.0,324043.0,186104.0
2026-04-14 17:54:18.026753,607065,1609506751644049,4351612885,1.25904,-0.0488,0.318176,-1.3125,64.47,-24.22,-24.000002,-20.536001,-5.072,eccentric,5,3.0,98351.0,340521.0,174152.0,324043.0,186104.0
2026-04-14 17:54:18.029239,607066,1609506751653131,4351621579,1.25904,-0.0488,0.318176,-0.90125,63.166252,-27.2825,-24.000002,-20.536001,-5.072,eccentric,5,3.0,98351.0,340521.0,174152.0,324043.0,186104.0
2026-04-14 17:54:18.031697,607067,1609506751662442,4351632394,1.309792,-0.062464,0.286944,2.38875,59.701252,-27.09,-24.264002,-20.568,-6.376,eccentric,5,3.0,98351.0,340521.0,174152.0,324043.0,186104.0
2026-04-14 17:54:18.034291,607068,1609506751676876,4351645258,1.3664,-0.171776,0.255712,1.1375,55.6675,-23.205,-22.928001,-20.76,-5.624,eccentric,5,3.0,98351.0,340521.0,174152.0,324043.0,186104.0
2026-04-14 17:54:18.036668,607069,1609506751686128,4351656014,1.3664,-0.171776,0.255712,-1.8725,51.16125,-19.425,-22.928001,-20.76,-5.624,eccentric,5,3.0,98351.0,340521.0,174152.0,324043.0,186104.0
2026-04-14 17:54:18.039282,607070,1609506751700684,4351671013,1.303936,-0.031232,0.216672,-0.3675,46.17375,-15.5925,-22.896002,-21.144001,-5.2,eccentric,5,3.0,98351.0,340521.0,174152.0,324043.0,186104.0
2026-04-14 17:54:18.049147,607071,1609506751709809,4351679704,1.303936,-0.031232,0.216672,-1.295,41.763752,-11.08625,-22.896002,-21.144001,-5.2,eccentric,5,3.0,98351.0,340521.0,174152.0,324043.0,186104.0
2026-04-14 17:54:18.085496,607082,1609506751724388,4351694742,1.362496,-0.154208,0.132736,-8.44375,36.46125,-6.545,-22.664001,-20.848001,-4.304,eccentric,5,3.0,118561.0,346711.0,198627.0,327729.0,210014.0
2026-04-14 17:54:18.088014,607083,1609506751733502,4351703466,1.362496,-0.154208,0.132736,-11.59375,31.815,-2.86125,-22.664001,-20.848001,-4.304,eccentric,5,3.0,118561.0,346711.0,198627.0,327729.0,210014.0
2026-04-14 17:54:18.090543,607084,1609506751742474,4351712163,1.34688,-0.181536,0.111264,-9.4325,25.10375,1.785,-23.976002,-20.352001,-0.904,eccentric,5,3.0,118561.0,346711.0,198627.0,327729.0,210014.0
2026-04-14 17:54:18.096735,607085,1609506751756979,4351727045,1.262944,-0.109312,0.140544,-5.11,17.92,6.7025,-24.384,-20.408,-4.024,eccentric,5,3.0,118561.0,346711.0,198627.0,327729.0,210014.0
2026-04-14 17:54:18.103038,607086,1609506751765962,4351735749,1.262944,-0.109312,0.140544,-2.38875,10.35125,11.08625,-24.384,-20.408,-4.024,eccentric,5,3.0,118561.0,346711.0,198627.0,327729.0,210014.0
2026-04-14 17:54:18.119270,607087,1609506751780476,4351750634,1.286368,-0.10736,0.353312,-4.01625,2.49375,15.715,-22.912,-20.52,-4.912,eccentric,5,3.0,118561.0,346711.0,198627.0,327729.0,210014.0
2026-04-14 17:54:18.127988,607088,1609506751789438,4351759342,1.286368,-0.10736,0.353312,-6.08125,-4.55,19.495,-22.912,-20.52,-4.912,eccentric,5,3.0,118561.0,346711.0,198627.0,327729.0,210014.0
2026-04-14 17:54:18.138060,607089,1609506751798404,4351768023,1.280512,-0.171776,0.21472,-7.4725,-11.22625,22.9775,-23.560001,-20.128,-5.008,eccentric,5,3.0,118561.0,346711.0,198627.0,327729.0,210014.0
2026-04-14 17:54:18.153752,607090,1609506751812981,4351782953,1.280512,-0.171776,0.21472,-6.7025,-18.165,26.08375,-23.560001,-20.128,-5.008,eccentric,5,3.0,118561.0,346711.0,198627.0,327729.0,210014.0
2026-04-14 17:54:18.181538,607101,1609506751822037,4351792112,1.15168,-0.07808,0.05856,-4.68125,-25.64625,29.4175,-23.912,-19.720001,-4.216,eccentric,5,3.0,103184.0,340080.0,180029.0,322363.0,191445.0
2026-04-14 17:54:18.184585,607102,1609506751836691,4351805063,1.134112,-0.11712,0.105408,-7.13125,-32.095,32.22625,-24.768002,-19.376001,-5.216,eccentric,5,3.0,103184.0,340080.0,180029.0,322363.0,191445.0
2026-04-14 17:54:18.186572,607103,1609506751845883,4351815836,1.134112,-0.11712,0.105408,-12.64375,-37.1,35.18375,-24.768002,-19.376001,-5.216,eccentric,5,3.0,103184.0,340080.0,180029.0,322363.0,191445.0
2026-04-14 17:54:18.197122,607104,1609506751854985,4351824584,1.134112,-0.11712,0.05856,-15.505,-40.59125,36.5925,-24.768002,-19.376001,-5.216,eccentric,5,3.0,103184.0,340080.0,180029.0,322363.0,191445.0
2026-04-14 17:54:18.208352,607105,1609506751869508,4351839531,1.106784,-0.15616,0.05856,-15.1025,-43.75875,39.095,-24.936,-18.664001,-7.736001,eccentric,5,3.0,103184.0,340080.0,180029.0,322363.0,191445.0
2026-04-14 17:54:18.217129,607106,1609506751878512,4351848223,1.175104,-0.177632,0.066368,-10.85875,-46.8125,40.845,-24.664001,-19.208,-5.8,eccentric,5,3.0,103184.0,340080.0,180029.0,322363.0,191445.0
2026-04-14 17:54:18.230866,607107,1609506751893027,4351863158,1.175104,-0.177632,0.066368,-4.2875,-51.05625,44.03,-24.664001,-19.208,-5.8,eccentric,5,3.0,103184.0,340080.0,180029.0,322363.0,191445.0
2026-04-14 17:54:18.239099,607108,1609506751902088,4351871855,1.243424,-0.222528,0.050752,1.02375,-55.64125,45.21125,-24.656002,-18.736,-5.944,eccentric,5,3.0,103184.0,340080.0,180029.0,322363.0,191445.0
2026-04-14 17:54:18.282140,607119,1609506751916590,4351886694,1.266848,-0.226432,0.052704,-0.2975,-62.4575,50.6625,-25.560001,-18.256,-6.000001,eccentric,5,3.0,82502.0,324889.0,154424.0,310964.0,165520.0
2026-04-14 17:54:18.284613,607120,1609506751925534,4351895478,1.266848,-0.226432,0.052704,-9.33625,-66.26375,52.6575,-25.560001,-18.256,-6.000001,eccentric,5,3.0,82502.0,324889.0,154424.0,310964.0,165520.0
2026-04-14 17:54:18.287149,607121,1609506751934660,4351904215,1.266848,-0.226432,0.052704,-15.7675,-70.13125,53.43625,-25.560001,-18.256,-6.000001,eccentric,5,3.0,82502.0,324889.0,154424.0,310964.0,165520.0
2026-04-14 17:54:18.289602,607122,1609506751949167,4351919179,1.218048,-0.179584,0.290848,-15.61,-73.26375,54.8275,-27.288002,-17.456001,-4.752,eccentric,5,3.0,82502.0,324889.0,154424.0,310964.0,165520.0
2026-04-14 17:54:18.295571,607123,1609506751958122,4351927901,1.16144,-0.298656,-0.0488,-13.51,-74.8475,54.59125,-27.448002,-17.296001,-5.952,eccentric,5,3.0,82502.0,324889.0,154424.0,310964.0,165520.0
2026-04-14 17:54:18.310480,607124,1609506751972631,4351942873,1.16144,-0.298656,-0.0488,-13.4575,-75.7575,53.2875,-27.448002,-17.296001,-5.952,eccentric,5,3.0,82502.0,324889.0,154424.0,310964.0,165520.0
2026-04-14 17:54:18.342743,607125,1609506751981651,4351951562,1.221952,-0.218624,0.10736,-12.5125,-76.58875,51.4675,-26.528002,-17.368,-7.816001,eccentric,5,3.0,82502.0,324889.0,154424.0,310964.0,165520.0
2026-04-14 17:54:18.345726,607126,1609506751996151,4351966506,1.221952,-0.244,0.074176,-14.105001,-75.48625,44.91375,-26.528002,-17.368,-7.816001,eccentric,5,3.0,82502.0,324889.0,154424.0,310964.0,165520.0
2026-04-14 17:54:18.370791,607127,1609506752005089,4351975202,1.116544,-0.244,0.074176,-19.425,-74.095,39.08625,-26.104002,-16.856,-7.112001,eccentric,5,3.0,82502.0,324889.0,154424.0,310964.0,165520.0
2026-04-14 17:54:18.395832,607128,1609506752014027,4351983903,1.116544,-0.244,0.074176,-23.7825,-72.1,36.46125,-26.104002,-16.856,-7.112001,eccentric,5,3.0,82502.0,324889.0,154424.0,310964.0,165520.0
2026-04-14 17:54:18.428765,607139,1609506752028649,4351998931,1.179008,-0.325984,0.162016,-17.0625,-70.11375,37.135,-26.800001,-16.568,-7.032001,eccentric,5,3.0,60861.0,294781.0,124648.0,285654.0,135523.0
2026-04-14 17:54:18.433220,607140,1609506752037556,4352007584,1.0736,-0.216672,-0.001952,-10.71,-67.558754,38.07125,-27.624,-16.472,-6.984,eccentric,5,3.0,60861.0,294781.0,124648.0,285654.0,135523.0
2026-04-14 17:54:18.435673,607141,1609506752052072,4352020579,1.0736,-0.216672,-0.001952,-9.31875,-63.72625,36.33875,-27.624,-16.472,-6.984,eccentric,5,3.0,60861.0,294781.0,124648.0,285654.0,135523.0
2026-04-14 17:54:18.437752,607142,1609506752061408,4352031343,1.134112,-0.216672,0.183488,-13.27375,-59.49125,31.73625,-27.568,-16.480001,-8.264,eccentric,5,3.0,60861.0,294781.0,124648.0,285654.0,135523.0
2026-04-14 17:54:18.440183,607143,1609506752070363,4352040074,1.134112,-0.216672,0.183488,-19.80125,-54.775,25.6375,-27.568,-16.480001,-8.264,eccentric,5,3.0,60861.0,294781.0,124648.0,285654.0,135523.0
2026-04-14 17:54:18.442644,607144,1609506752084987,4352054965,1.0248,-0.271328,0.197152,-18.7075,-51.26625,21.7175,-27.744001,-16.416,-8.312,eccentric,5,3.0,60861.0,294781.0,124648.0,285654.0,135523.0
2026-04-14 17:54:18.445240,607145,1609506752094038,4352063682,1.0248,-0.271328,0.197152,-14.2275,-47.355,21.58625,-27.744001,-16.416,-8.312,eccentric,5,3.0,60861.0,294781.0,124648.0,285654.0,135523.0
2026-04-14 17:54:18.447797,607146,1609506752108502,4352078684,0.950624,-0.187392,-0.0488,-11.66375,-41.74625,19.57375,-27.976002,-15.840001,-7.768001,eccentric,5,3.0,60861.0,294781.0,124648.0,285654.0,135523.0
2026-04-14 17:54:18.485359,607157,1609506752117447,4352087483,0.901824,-0.226432,-0.074176,-11.725,-35.35,14.945,-28.408,-15.880001,-6.784,eccentric,5,3.0,47058.0,253485.0,103220.0,252828.0,113823.0
2026-04-14 17:54:18.487750,607158,1609506752132030,4352100448,0.901824,-0.226432,-0.074176,-13.25625,-30.397501,11.15625,-28.408,-15.880001,-6.784,eccentric,5,3.0,47058.0,253485.0,103220.0,252828.0,113823.0
2026-04-14 17:54:18.490225,607159,1609506752141594,4352111245,1.007232,-0.183488,0.072224,-21.315,-24.1325,7.105,-28.712002,-16.408,-7.496,eccentric,5,3.0,47058.0,253485.0,103220.0,252828.0,113823.0
2026-04-14 17:54:18.492755,607160,1609506752150700,4352119931,1.007232,-0.183488,0.072224,-35.5775,-17.38625,-0.93625,-28.712002,-16.408,-7.496,eccentric,5,3.0,47058.0,253485.0,103220.0,252828.0,113823.0
2026-04-14 17:54:18.504064,607161,1609506752165201,4352134942,0.921344,-0.347456,0.091744,-43.715,-12.6175,-4.9875,-28.232002,-16.896,-8.072001,eccentric,5,3.0,47058.0,253485.0,103220.0,252828.0,113823.0
2026-04-14 17:54:18.512053,607162,1609506752174295,4352143651,0.921344,-0.347456,0.091744,-42.7875,-8.33875,-3.85,-28.232002,-16.896,-8.072001,eccentric,5,3.0,47058.0,253485.0,103220.0,252828.0,113823.0
2026-04-14 17:54:18.521402,607163,1609506752183333,4352152347,0.8296,-0.384544,-0.03904,-32.2175,-6.36125,1.3475,-27.024002,-17.296001,-8.784,eccentric,5,3.0,47058.0,253485.0,103220.0,252828.0,113823.0
2026-04-14 17:54:18.535713,607164,1609506752197832,4352167286,0.84912,-0.179584,-0.222528,-22.58375,-3.92,2.77375,-24.976002,-17.352001,-8.816,eccentric,5,3.0,47058.0,253485.0,103220.0,252828.0,113823.0
2026-04-14 17:54:18.545387,607165,1609506752206746,4352175979,0.84912,-0.179584,-0.222528,-24.5875,-0.0525,-0.1925,-26.608002,-17.352001,-8.816,eccentric,5,3.0,47058.0,253485.0,103220.0,252828.0,113823.0
2026-04-14 17:54:18.582096,607176,1609506752221825,4352191312,0.872544,-0.27328,-0.033184,-32.05125,1.58375,-3.52625,-27.400002,-17.256,-7.416,eccentric,5,3.0,43077.0,242049.0,96502.0,242471.0,106683.0
2026-04-14 17:54:18.584538,607177,1609506752230875,4352200123,0.872544,-0.27328,-0.033184,-37.77375,4.20875,-3.5525,-27.400002,-17.256,-7.416,eccentric,5,3.0,43077.0,242049.0,96502.0,242471.0,106683.0
2026-04-14 17:54:18.589590,607178,1609506752239820,4352208820,0.786656,-0.22448,-0.203008,-42.53375,6.72875,-3.98125,-27.872002,-17.896,-7.088,eccentric,5,3.0,43077.0,242049.0,96502.0,242471.0,106683.0
2026-04-14 17:54:18.592130,607179,1609506752254536,4352223763,0.786656,-0.22448,-0.203008,-44.3275,9.56375,-6.93,-27.872002,-17.896,-7.088,eccentric,5,3.0,43077.0,242049.0,96502.0,242471.0,106683.0
2026-04-14 17:54:18.600835,607180,1609506752263609,4352232479,0.698816,-0.201056,0.081984,-43.8375,11.73375,-12.53,-27.408,-17.800001,-6.496,eccentric,5,3.0,43077.0,242049.0,96502.0,242471.0,106683.0
2026-04-14 17:54:18.615421,607181,1609506752278090,4352247379,0.745664,-0.228384,-0.11712,-36.2075,10.28125,-16.0475,-27.408,-17.800001,-7.192,eccentric,5,3.0,43077.0,242049.0,96502.0,242471.0,106683.0
2026-04-14 17:54:18.626761,607182,1609506752286990,4352256110,0.735904,-0.228384,-0.11712,-22.6275,7.70875,-14.8575,-26.672,-18.384,-7.192,eccentric,5,3.0,43077.0,242049.0,96502.0,242471.0,106683.0
2026-04-14 17:54:18.638323,607183,1609506752301495,4352271043,0.7808,-0.210816,-0.171776,-12.34625,8.12875,-12.3375,-26.136002,-18.224,-6.28,eccentric,5,3.0,43077.0,242049.0,96502.0,242471.0,106683.0
2026-04-14 17:54:18.649246,607184,1609506752310435,4352279747,0.7808,-0.210816,-0.171776,-9.59875,10.08,-16.485,-26.136002,-18.224,-6.28,eccentric,5,3.0,43077.0,242049.0,96502.0,242471.0,106683.0
2026-04-14 17:54:18.682142,607195,1609506752319353,4352288635,0.632448,-0.12688,-0.099552,-10.63125,12.5475,-26.17125,-27.632002,-18.072,-5.472,eccentric,5,3.0,42080.0,253055.0,93778.0,250868.0,103568.0
2026-04-14 17:54:18.684631,607196,1609506752333967,4352303755,0.632448,-0.12688,-0.099552,-10.89375,15.3825,-34.107502,-27.632002,-18.072,-5.472,eccentric,5,3.0,42080.0,253055.0,93778.0,250868.0,103568.0
2026-04-14 17:54:18.686705,607197,1609506752342984,4352312453,0.587552,-0.093696,0.021472,-13.5975,16.2225,-37.1875,-27.848001,-18.640001,-5.632,eccentric,5,3.0,42080.0,253055.0,93778.0,250868.0,103568.0
2026-04-14 17:54:18.697983,607198,1609506752357571,4352327498,0.587552,-0.093696,0.021472,-18.06875,15.11125,-37.625,-27.848001,-18.640001,-5.632,eccentric,5,3.0,42080.0,253055.0,93778.0,250868.0,103568.0
2026-04-14 17:54:18.704640,607199,1609506752366611,4352336211,0.67344,-0.244,0.109312,-19.32875,14.60375,-35.735,-25.816002,-19.672,-6.920001,eccentric,5,3.0,42080.0,253055.0,93778.0,250868.0,103568.0
2026-04-14 17:54:18.740523,607200,1609506752381101,4352351109,0.726144,-0.290848,-0.201056,-13.79,14.28875,-35.105,-25.232,-20.088001,-6.408001,eccentric,5,3.0,42080.0,253055.0,93778.0,250868.0,103568.0
2026-04-14 17:54:18.743156,607201,1609506752390031,4352359778,0.726144,-0.290848,-0.201056,0.0875,15.77625,-32.13,-25.232,-20.088001,-6.408001,eccentric,5,3.0,42080.0,253055.0,93778.0,250868.0,103568.0
2026-04-14 17:54:18.745330,607202,1609506752398929,4352368464,0.84912,-0.10736,-0.162016,-0.5075,18.57625,-34.58875,-25.232,-20.088001,-5.4,eccentric,5,3.0,42080.0,253055.0,93778.0,250868.0,103568.0
2026-04-14 17:54:18.771679,607203,1609506752413430,4352383356,0.84912,-0.10736,-0.162016,-12.31125,21.81375,-40.53875,-25.352001,-20.376001,-5.4,eccentric,5,3.0,42080.0,253055.0,93778.0,250868.0,103568.0
2026-04-14 17:54:18.821643,607214,1609506752422918,4352392209,0.72224,-0.304512,-0.121024,-23.12625,26.355,-43.47,-25.464,-20.728,-5.152,eccentric,5,3.0,48619.0,274457.0,104495.0,268869.0,114841.0
2026-04-14 17:54:18.824161,607215,1609506752437500,4352407122,0.72224,-0.304512,-0.121024,-23.58125,29.49625,-37.5725,-25.464,-20.728,-5.152,eccentric,5,3.0,48619.0,274457.0,104495.0,268869.0,114841.0
2026-04-14 17:54:18.826489,607216,1609506752446491,4352415891,0.651968,-0.28304,-0.060512,-13.81625,31.885,-30.485,-24.968,-20.872002,-5.32,eccentric,5,3.0,48619.0,274457.0,104495.0,268869.0,114841.0
2026-04-14 17:54:18.829147,607217,1609506752455475,4352424549,0.651968,-0.28304,-0.060512,-0.175,32.34875,-30.03,-24.968,-20.872002,-5.32,eccentric,5,3.0,48619.0,274457.0,104495.0,268869.0,114841.0
2026-04-14 17:54:18.831725,607218,1609506752469959,4352439515,0.876448,-0.109312,-0.12688,-0.1925,37.38,-36.09375,-24.024002,-21.512001,-5.232,eccentric,5,3.0,48619.0,274457.0,104495.0,268869.0,114841.0
2026-04-14 17:54:18.834235,607219,1609506752478984,4352448235,0.876448,-0.109312,-0.085888,-15.085,39.62875,-44.37125,-24.024002,-21.512001,-5.232,eccentric,5,3.0,48619.0,274457.0,104495.0,268869.0,114841.0
2026-04-14 17:54:18.836733,607220,1609506752493495,4352463156,0.843264,-0.060512,-0.085888,-32.41875,39.7425,-48.755,-23.944,-21.592001,-5.520001,eccentric,5,3.0,48619.0,274457.0,104495.0,268869.0,114841.0
2026-04-14 17:54:18.840452,607221,1609506752502470,4352471910,0.689056,-0.203008,0.359168,-49.41125,41.72,-53.94375,-23.384,-22.544,-3.984,eccentric,5,3.0,48619.0,274457.0,104495.0,268869.0,114841.0
2026-04-14 17:54:18.848018,607222,1609506752511501,4352480652,0.689056,-0.203008,0.359168,-51.19625,43.30375,-58.607502,-23.384,-22.544,-3.984,eccentric,5,3.0,48619.0,274457.0,104495.0,268869.0,114841.0
2026-04-14 17:54:18.882788,607233,1609506752526248,4352496001,0.636352,-0.349408,0.128832,-32.3925,46.9525,-56.14875,-22.864,-23.016,-3.688,eccentric,5,3.0,64729.0,320668.0,128503.0,307004.0,139717.0
2026-04-14 17:54:18.887548,607234,1609506752535270,4352504795,0.636352,-0.349408,0.128832,-0.2275,50.67125,-49.07875,-22.864,-23.016,-3.688,eccentric,5,3.0,64729.0,320668.0,128503.0,307004.0,139717.0
2026-04-14 17:54:18.887796,607235,1609506752549811,4352519705,0.876448,-0.249856,-0.296704,18.45375,52.84125,-37.87,-24.160002,-22.944,-2.248,eccentric,5,3.0,64729.0,320668.0,128503.0,307004.0,139717.0
2026-04-14 17:54:18.896655,607236,1609506752558834,4352528427,0.876448,-0.249856,-0.296704,13.67625,53.33125,-44.75625,-24.160002,-22.944,-2.248,concentric,5,3.0,64729.0,320668.0,128503.0,307004.0,139717.0
2026-04-14 17:54:18.914456,607237,1609506752573305,4352543297,0.767136,0.158112,0.210816,5.11,52.43875,-46.96125,-21.872002,-23.28,-3.616,concentric,5,3.0,64729.0,320668.0,128503.0,307004.0,139717.0
2026-04-14 17:54:18.920667,607238,1609506752582382,4352552059,0.67344,-0.105408,0.052704,2.3275,56.3675,-44.0825,-21.424002,-23.992,-1.672,concentric,5,3.0,64729.0,320668.0,128503.0,307004.0,139717.0
2026-04-14 17:54:18.929021,607239,1609506752591313,4352560849,0.67344,-0.105408,0.052704,-4.1475,59.40375,-47.57375,-21.424002,-23.992,-1.672,concentric,5,3.0,64729.0,320668.0,128503.0,307004.0,139717.0
2026-04-14 17:54:18.944086,607240,1609506752605829,4352575758,0.69296,-0.365024,0.066368,-1.65375,58.89625,-51.26625,-21.864,-23.848001,-0.952,concentric,5,3.0,64729.0,320668.0,128503.0,307004.0,139717.0
2026-04-14 17:54:18.953414,607241,1609506752614889,4352584446,0.69296,-0.365024,0.066368,20.60625,55.2825,-49.77875,-21.864,-23.848001,-0.952,concentric,5,3.0,64729.0,320668.0,128503.0,307004.0,139717.0
2026-04-14 17:54:19.007919,607252,1609506752629465,4352599524,0.739808,-0.173728,-0.03904,46.94375,50.26,-49.49875,-21.344002,-24.76,-2.752,concentric,5,3.0,87732.0,339705.0,158864.0,322733.0,170219.0
2026-04-14 17:54:19.010161,607253,1609506752638368,4352608201,0.739808,-0.173728,-0.03904,50.58375,46.19125,-47.81875,-21.344002,-24.76,-2.752,concentric,5,3.0,87732.0,339705.0,158864.0,322733.0,170219.0
2026-04-14 17:54:19.012906,607254,1609506752647350,4352616872,0.696864,0.033184,-0.042944,32.99625,43.19875,-41.3525,-20.240002,-24.952002,-2.576,concentric,5,3.0,87732.0,339705.0,158864.0,322733.0,170219.0
2026-04-14 17:54:19.015386,607255,1609506752661878,4352631850,0.659776,0.093696,0.16592,7.4375,41.83375,-33.48625,-19.696001,-25.104002,-1.776,concentric,5,3.0,87732.0,339705.0,158864.0,322733.0,170219.0
2026-04-14 17:54:19.022903,607256,1609506752670832,4352640607,0.659776,0.093696,0.16592,-17.955,35.1925,-30.975,-19.696001,-25.104002,-1.776,concentric,5,3.0,87732.0,339705.0,158864.0,322733.0,170219.0
2026-04-14 17:54:19.025453,607257,1609506752685404,4352655490,0.700768,-0.230336,-0.044896,-32.138752,26.78375,-26.11875,-19.640001,-25.416,-1.896,concentric,5,3.0,87732.0,339705.0,158864.0,322733.0,170219.0
2026-04-14 17:54:19.034318,607258,1609506752694337,4352664238,0.700768,-0.230336,-0.044896,-24.96375,17.01875,-22.96875,-19.640001,-25.416,-1.896,concentric,5,3.0,87732.0,339705.0,158864.0,322733.0,170219.0
2026-04-14 17:54:19.046778,607259,1609506752708842,4352679169,0.730048,-0.085888,-0.005856,-1.58375,5.76625,-25.15625,-21.256,-24.904001,0.008,concentric,5,3.0,87732.0,339705.0,158864.0,322733.0,170219.0
2026-04-14 17:54:19.056816,607260,1609506752717780,4352687875,0.730048,-0.085888,-0.005856,18.20875,-3.15,-25.06,-21.256,-24.904001,0.008,concentric,5,3.0,87732.0,339705.0,158864.0,322733.0,170219.0
2026-04-14 17:54:19.129145,607271,1609506752726897,4352696664,0.794464,-0.005856,0.12688,24.9725,-8.155,-19.6,-20.032001,-25.784,-2.272,concentric,5,3.0,108917.0,343000.0,185757.0,325429.0,197387.0
2026-04-14 17:54:19.141809,607272,1609506752741407,4352711619,0.86864,-0.124928,-0.050752,22.63625,-12.6,-13.7025,-22.080002,-25.216002,-2.008,concentric,5,3.0,108917.0,343000.0,185757.0,325429.0,197387.0
2026-04-14 17:54:19.144140,607273,1609506752750348,4352720368,0.86864,-0.124928,-0.050752,15.1375,-16.10875,-7.77,-20.856,-25.216002,-2.008,concentric,5,3.0,108917.0,343000.0,185757.0,325429.0,197387.0
2026-04-14 17:54:19.146755,607274,1609506752764856,4352733240,0.886208,0.003904,0.093696,1.89875,-18.06875,-1.1375,-20.368,-24.904001,-1.52,concentric,5,3.0,108917.0,343000.0,185757.0,325429.0,197387.0
2026-04-14 17:54:19.149296,607275,1609506752774084,4352744001,0.886208,0.003904,0.093696,-6.825,-21.210001,4.2525,-20.368,-24.904001,-1.52,concentric,5,3.0,108917.0,343000.0,185757.0,325429.0,197387.0
2026-04-14 17:54:19.151807,607276,1609506752783233,4352752740,0.8296,0.070272,0.183488,-10.84125,-22.9075,7.16625,-20.36,-24.960001,-1.344,concentric,5,3.0,108917.0,343000.0,185757.0,325429.0,197387.0
2026-04-14 17:54:19.154233,607277,1609506752797797,4352767629,0.8296,0.070272,0.183488,-12.85375,-23.66875,7.455,-20.36,-24.960001,-1.344,concentric,5,3.0,108917.0,343000.0,185757.0,325429.0,197387.0
2026-04-14 17:54:19.156792,607278,1609506752806810,4352776371,0.901824,0.013664,0.13664,-9.91375,-22.58375,5.005,-20.712002,-25.096,-1.912,concentric,5,3.0,108917.0,343000.0,185757.0,325429.0,197387.0
2026-04-14 17:54:19.184135,607289,1609506752821355,4352791360,0.901824,-0.017568,0.144448,-4.57625,-18.68125,2.37125,-20.712002,-25.096,-1.912,concentric,5,3.0,110347.0,342390.0,187815.0,324751.0,199443.0
2026-04-14 17:54:19.186678,607290,1609506752830432,4352800122,0.989664,-0.031232,0.144448,-1.2775,-15.16375,1.89875,-20.224,-24.912,-2.64,concentric,5,3.0,110347.0,342390.0,187815.0,324751.0,199443.0
2026-04-14 17:54:19.189187,607291,1609506752845009,4352815087,0.942816,-0.091744,0.089792,-7.39375,-13.72,3.8325,-19.728,-25.272001,-3.04,concentric,5,3.0,110347.0,342390.0,187815.0,324751.0,199443.0
2026-04-14 17:54:19.196721,607292,1609506752853982,4352823779,0.942816,-0.091744,0.089792,-11.5675,-13.4575,5.78375,-19.728,-25.272001,-3.04,concentric,5,3.0,110347.0,342390.0,187815.0,324751.0,199443.0
2026-04-14 17:54:19.200482,607293,1609506752862950,4352832483,0.964288,0.046848,0.167872,-2.19625,-11.4275,3.12375,-19.784,-24.912,-0.952,concentric,5,3.0,110347.0,342390.0,187815.0,324751.0,199443.0
2026-04-14 17:54:19.216801,607294,1609506752877662,4352847422,0.964288,0.046848,0.167872,7.07,-8.12875,-1.25125,-19.784,-24.912,-0.952,concentric,5,3.0,110347.0,342390.0,187815.0,324751.0,199443.0
2026-04-14 17:54:19.225024,607295,1609506752886777,4352856116,0.958432,0.005856,0.12688,7.9275,-5.27625,-1.5925,-20.248001,-24.928001,-1.704,concentric,5,3.0,110347.0,342390.0,187815.0,324751.0,199443.0
2026-04-14 17:54:19.242138,607296,1609506752901262,4352871017,0.958432,0.005856,0.12688,-0.07,-4.03375,-0.7175,-20.248001,-24.928001,-1.704,concentric,5,3.0,110347.0,342390.0,187815.0,324751.0,199443.0
2026-04-14 17:54:19.247953,607297,1609506752910197,4352879712,0.872544,-0.05856,-0.083936,-7.875,-5.005,0.55125,-20.512001,-25.400002,-3.84,concentric,5,3.0,110347.0,342390.0,187815.0,324751.0,199443.0
2026-04-14 17:54:19.256563,607298,1609506752919139,4352888415,0.872544,-0.05856,-0.083936,-4.64625,-6.97375,0.5775,-20.512001,-25.400002,-3.84,concentric,5,3.0,110347.0,342390.0,187815.0,324751.0,199443.0
2026-04-14 17:54:19.285290,607309,1609506752933963,4352903429,0.870592,0.072224,0.060512,-0.28,-7.30625,-1.5225,-20.176,-25.336,-2.904,concentric,5,3.0,116676.0,344484.0,195733.0,326538.0,206982.0
2026-04-14 17:54:19.288253,607310,1609506752943012,4352912157,0.929152,0.007808,0.093696,0.3675,-6.25625,-2.765,-21.032001,-24.912,-1.784,concentric,5,3.0,116676.0,344484.0,195733.0,326538.0,206982.0
2026-04-14 17:54:19.295738,607311,1609506752957660,4352927053,0.929152,0.007808,0.093696,1.6975,-3.045,-4.01625,-21.032001,-24.912,-1.784,concentric,5,3.0,116676.0,344484.0,195733.0,326538.0,206982.0
2026-04-14 17:54:19.304487,607312,1609506752966580,4352935719,0.894016,-0.00976,0.021472,3.07125,-0.51625,-5.2675,-20.136002,-25.352001,-2.304,concentric,5,3.0,116676.0,344484.0,195733.0,326538.0,206982.0
2026-04-14 17:54:19.318336,607313,1609506752981058,4352950666,0.894016,-0.00976,0.021472,4.19125,-0.4025,-4.43625,-20.136002,-25.352001,-2.304,concentric,5,3.0,116676.0,344484.0,195733.0,326538.0,206982.0
2026-04-14 17:54:19.327884,607314,1609506752990006,4352959361,0.964288,-0.025376,0.132736,0.42,-3.185,-1.81125,-20.144001,-25.176,-0.512,concentric,5,3.0,116676.0,344484.0,195733.0,326538.0,206982.0
2026-04-14 17:54:19.337082,607315,1609506752998971,4352968057,0.964288,-0.025376,0.132736,-1.65375,-6.685,1.1375,-20.144001,-25.176,-0.512,concentric,5,3.0,116676.0,344484.0,195733.0,326538.0,206982.0
2026-04-14 17:54:19.350852,607316,1609506753013502,4352983096,0.909632,0.011712,-0.050752,-1.2425,-8.40875,2.40625,-21.208,-24.992,-3.112,concentric,5,3.0,116676.0,344484.0,195733.0,326538.0,206982.0
2026-04-14 17:54:19.363307,607317,1609506753022499,4352991808,0.909632,0.011712,-0.035136,-0.1925,-8.98625,2.8175,-21.208,-24.992,-3.112,concentric,5,3.0,116676.0,344484.0,195733.0,326538.0,206982.0
2026-04-14 17:54:19.391247,607328,1609506753037156,4353006783,0.911584,-0.013664,-0.040992,1.46125,-8.74125,2.45875,-20.048,-25.064001,-3.376,concentric,5,3.0,124485.0,345929.0,205114.0,327711.0,215949.0
2026-04-14 17:54:19.393827,607329,1609506753046284,4353015489,0.962336,-0.056608,0.007808,2.0125,-7.60375,3.08875,-21.28,-24.648,-2.528,concentric,5,3.0,124485.0,345929.0,205114.0,327711.0,215949.0
2026-04-14 17:54:19.396328,607330,1609506753055402,4353024180,0.962336,-0.056608,0.007808,-1.35625,-7.455,4.71625,-21.28,-24.648,-2.528,concentric,5,3.0,124485.0,345929.0,205114.0,327711.0,215949.0
2026-04-14 17:54:19.406481,607331,1609506753070518,4353039178,0.892064,0.00976,-0.072224,-4.61125,-8.2075,6.3175,-21.128,-24.688002,-2.12,concentric,5,3.0,124485.0,345929.0,205114.0,327711.0,215949.0
2026-04-14 17:54:19.418287,607332,1609506753079715,4353050029,0.892064,0.00976,-0.072224,-7.11375,-8.6275,5.95875,-21.128,-24.688002,-2.12,concentric,5,3.0,124485.0,345929.0,205114.0,327711.0,215949.0
2026-04-14 17:54:19.432028,607333,1609506753094204,4353062881,0.968192,0.011712,0.109312,-11.025,-7.035,4.34875,-21.04,-24.768002,-3.048,concentric,5,3.0,124485.0,345929.0,205114.0,327711.0,215949.0
2026-04-14 17:54:19.442084,607334,1609506753103504,4353073781,0.93696,-0.046848,0.109312,-12.90625,-5.1975,4.095,-21.04,-24.768002,-2.712,concentric,5,3.0,124485.0,345929.0,205114.0,327711.0,215949.0
2026-04-14 17:54:19.474453,607335,1609506753112826,4353082514,0.950624,-0.046848,0.109312,-12.88,-3.78,4.1825,-21.056002,-24.920002,-2.712,concentric,5,3.0,124485.0,345929.0,205114.0,327711.0,215949.0
2026-04-14 17:54:19.550453,607346,1609506753127861,4353097470,0.931104,-0.042944,-0.103456,-10.92,-3.5525,4.1825,-21.728,-24.824001,-2.0,concentric,5,3.0,122355.0,345603.0,202833.0,327590.0,213588.0
2026-04-14 17:54:19.551575,607347,1609506753136829,4353106205,0.931104,-0.042944,-0.103456,-9.1875,-4.0775,4.43625,-21.728,-24.824001,-2.0,concentric,5,3.0,122355.0,345603.0,202833.0,327590.0,213588.0
2026-04-14 17:54:19.554035,607348,1609506753145772,4353114935,0.856928,0.0,-0.07808,-8.47875,-3.89375,4.75125,-21.768002,-24.68,-1.76,concentric,5,3.0,122355.0,345603.0,202833.0,327590.0,213588.0
2026-04-14 17:54:19.559414,607349,1609506753160321,4353129829,0.856928,0.0,-0.07808,-8.12,-2.555,5.20625,-21.768002,-24.68,-1.76,concentric,5,3.0,122355.0,345603.0,202833.0,327590.0,213588.0
2026-04-14 17:54:19.559560,607350,1609506753169232,4353138541,0.825696,-0.017568,0.003904,-5.94125,-0.56,4.71625,-21.800001,-24.656002,-1.728,concentric,5,3.0,122355.0,345603.0,202833.0,327590.0,213588.0
2026-04-14 17:54:19.561415,607351,1609506753183755,4353153474,0.825696,-0.001952,0.00976,-3.4475,1.0325,6.04625,-21.800001,-24.656002,-1.728,concentric,5,3.0,122355.0,345603.0,202833.0,327590.0,213588.0
2026-04-14 17:54:19.564308,607352,1609506753192698,4353162175,0.876448,-0.013664,0.00976,-1.63625,0.48125,7.2275,-21.848001,-24.368002,-1.92,concentric,5,3.0,122355.0,345603.0,202833.0,327590.0,213588.0
2026-04-14 17:54:19.566483,607353,1609506753207292,4353177079,0.833504,0.017568,-0.121024,-0.21,-2.02125,7.665,-22.000002,-24.632002,-3.096,concentric,5,3.0,122355.0,345603.0,202833.0,327590.0,213588.0
2026-04-14 17:54:19.569442,607354,1609506753216236,4353185806,0.833504,0.017568,-0.121024,-0.21875,-4.8125,7.9275,-22.000002,-24.632002,-3.096,concentric,5,3.0,122355.0,345603.0,202833.0,327590.0,213588.0
2026-04-14 17:54:19.596505,607365,1609506753225510,4353194550,0.925248,-0.05856,0.169824,-3.7275,-6.69375,7.67375,-21.064001,-24.504002,-1.496,concentric,5,3.0,110761.0,342535.0,188866.0,325357.0,199673.0
2026-04-14 17:54:19.624612,607366,1609506753240701,4353209580,0.925248,-0.05856,0.169824,-6.37875,-7.20125,8.2775,-21.064001,-24.504002,-1.496,concentric,5,3.0,110761.0,342535.0,188866.0,325357.0,199673.0
2026-04-14 17:54:19.626958,607367,1609506753250239,4353220353,0.8296,-0.052704,0.119072,-4.31375,-7.30625,9.24875,-20.832,-24.568,-3.216,concentric,5,3.0,110761.0,342535.0,188866.0,325357.0,199673.0
2026-04-14 17:54:19.629523,607368,1609506753259326,4353229050,0.8296,-0.052704,0.119072,-0.93625,-6.8425,10.33375,-20.832,-24.568,-3.216,concentric,5,3.0,110761.0,342535.0,188866.0,325357.0,199673.0
2026-04-14 17:54:19.634559,607369,1609506753273852,4353244045,0.851072,-0.089792,-0.154208,1.44375,-6.92125,11.6375,-21.384,-24.648,-3.32,concentric,5,3.0,110761.0,342535.0,188866.0,325357.0,199673.0
2026-04-14 17:54:19.637077,607370,1609506753282797,4353252733,0.851072,-0.089792,-0.154208,3.3775,-7.8925,12.88,-21.384,-24.648,-3.32,concentric,5,3.0,110761.0,342535.0,188866.0,325357.0,199673.0
2026-04-14 17:54:19.644450,607371,1609506753297318,4353267615,0.931104,-0.03904,0.111264,4.12125,-8.65375,12.74,-21.416,-24.456001,-3.288,concentric,5,3.0,110761.0,342535.0,188866.0,325357.0,199673.0
2026-04-14 17:54:19.644841,607372,1609506753306284,4353276397,0.847168,-0.103456,0.10736,0.04375,-9.1,12.29375,-21.448002,-24.472002,-3.76,concentric,5,3.0,110761.0,342535.0,188866.0,325357.0,199673.0
2026-04-14 17:54:19.653758,607373,1609506753315243,4353285114,0.847168,-0.103456,0.10736,-4.78625,-11.20875,11.71625,-21.448002,-24.472002,-3.76,concentric,5,3.0,110761.0,342535.0,188866.0,325357.0,199673.0
2026-04-14 17:54:19.689634,607384,1609506753330024,4353298497,0.806176,-0.154208,0.015616,-4.9525,-13.65,11.55,-21.36,-24.216002,-3.84,concentric,5,3.0,95062.0,335135.0,169618.0,319266.0,180227.0
2026-04-14 17:54:19.691750,607385,1609506753339597,4353309334,0.806176,-0.154208,0.015616,1.63625,-16.485,12.0575,-21.36,-24.216002,-3.84,concentric,5,3.0,95062.0,335135.0,169618.0,319266.0,180227.0
2026-04-14 17:54:19.694173,607386,1609506753354123,4353324378,0.90768,-0.13664,-0.037088,6.34375,-19.4425,12.635,-21.976002,-23.944,-3.048,concentric,5,3.0,95062.0,335135.0,169618.0,319266.0,180227.0
2026-04-14 17:54:19.702124,607387,1609506753363012,4353333092,0.90768,-0.13664,-0.037088,8.49625,-20.44875,13.27375,-21.976002,-23.944,-3.048,concentric,5,3.0,95062.0,335135.0,169618.0,319266.0,180227.0
2026-04-14 17:54:19.712138,607388,1609506753372035,4353341808,0.874496,-0.080032,0.154208,7.63875,-21.385,11.795,-22.592001,-23.52,-3.344,concentric,5,3.0,95062.0,335135.0,169618.0,319266.0,180227.0
2026-04-14 17:54:19.724707,607389,1609506753386557,4353356883,0.817888,-0.201056,-0.007808,2.65125,-21.55125,11.698751,-22.168001,-24.032001,-5.976,concentric,5,3.0,95062.0,335135.0,169618.0,319266.0,180227.0
2026-04-14 17:54:19.733386,607390,1609506753395521,4353365626,0.817888,-0.201056,-0.007808,-0.35,-24.0625,12.285,-22.168001,-24.032001,-5.976,concentric,5,3.0,95062.0,335135.0,169618.0,319266.0,180227.0
2026-04-14 17:54:19.746622,607391,1609506753410036,4353378469,0.753472,-0.179584,-0.247904,2.835,-28.32375,14.34125,-22.088001,-23.896002,-4.416,concentric,5,3.0,95062.0,335135.0,169618.0,319266.0,180227.0
2026-04-14 17:54:19.758193,607392,1609506753419339,4353389226,0.753472,-0.179584,-0.247904,10.386251,-33.11,16.86125,-22.088001,-23.896002,-4.416,concentric,5,3.0,95062.0,335135.0,169618.0,319266.0,180227.0
2026-04-14 17:54:19.788374,607403,1609506753433927,4353404235,0.876448,-0.101504,-0.08784,10.85875,-35.28,17.5,-22.384,-23.576,-4.8,concentric,5,3.0,69147.0,315949.0,135503.0,303218.0,145315.0
2026-04-14 17:54:19.790858,607404,1609506753443001,4353412977,0.876448,-0.101504,-0.08784,3.1325,-33.8275,18.0075,-22.384,-23.576,-4.8,concentric,5,3.0,69147.0,315949.0,135503.0,303218.0,145315.0
2026-04-14 17:54:19.793306,607405,1609506753451930,4353421668,0.788608,-0.042944,-0.001952,-7.0175,-31.85,12.60875,-22.640001,-23.464,-4.848,concentric,5,3.0,69147.0,315949.0,135503.0,303218.0,145315.0
2026-04-14 17:54:19.804646,607406,1609506753466443,4353436659,0.689056,-0.275232,0.121024,-17.6925,-29.5575,3.2725,-22.616001,-23.128,-6.464,concentric,5,3.0,69147.0,315949.0,135503.0,303218.0,145315.0
2026-04-14 17:54:19.812936,607407,1609506753475442,4353445364,0.689056,-0.275232,0.121024,-13.08125,-31.053751,5.8625,-22.616001,-23.128,-6.464,concentric,5,3.0,69147.0,315949.0,135503.0,303218.0,145315.0
2026-04-14 17:54:19.842032,607408,1609506753489986,4353460257,0.708576,-0.210816,-0.031232,-0.8225,-34.90375,13.877501,-22.976002,-23.016,-5.504,concentric,5,3.0,69147.0,315949.0,135503.0,303218.0,145315.0
2026-04-14 17:54:19.843902,607409,1609506753498911,4353468932,0.708576,-0.210816,-0.031232,13.448751,-39.97,17.5175,-22.976002,-23.016,-5.504,concentric,5,3.0,69147.0,315949.0,135503.0,303218.0,145315.0
2026-04-14 17:54:19.846953,607410,1609506753507928,4353477643,0.8296,-0.02928,-0.407968,14.385,-44.54625,20.16,-23.912,-22.848001,-4.672,concentric,5,3.0,69147.0,315949.0,135503.0,303218.0,145315.0
2026-04-14 17:54:19.873282,607411,1609506753522438,4353492572,0.8296,-0.02928,-0.407968,-11.03375,-42.48125,22.05,-23.912,-22.848001,-4.672,concentric,5,3.0,69147.0,315949.0,135503.0,303218.0,145315.0
2026-04-14 17:54:19.925540,607422,1609506753531492,4353501650,0.632448,-0.03904,-0.074176,-39.4625,-33.15375,6.9125,-23.320002,-22.664001,-5.432,concentric,5,3.0,45839.0,275822.0,100006.0,270056.0,109637.0
2026-04-14 17:54:19.925980,607423,1609506753546186,4353516509,0.632448,-0.413824,-0.119072,-44.59,-33.74,-11.33125,-23.320002,-22.664001,-5.432,concentric,5,3.0,45839.0,275822.0,100006.0,270056.0,109637.0
2026-04-14 17:54:19.927868,607424,1609506753555134,4353525141,0.46848,-0.413824,-0.119072,-27.20375,-40.145,3.22875,-23.592001,-22.336,-5.92,concentric,5,3.0,45839.0,275822.0,100006.0,270056.0,109637.0
2026-04-14 17:54:19.933507,607425,1609506753569742,4353540058,0.735904,-0.169824,-0.177632,-3.78875,-45.15875,22.12,-23.928001,-22.320002,-5.472,concentric,5,3.0,45839.0,275822.0,100006.0,270056.0,109637.0
2026-04-14 17:54:19.934796,607426,1609506753578673,4353548774,0.735904,-0.169824,-0.177632,12.04875,-49.70875,22.1375,-23.928001,-22.320002,-5.472,concentric,5,3.0,45839.0,275822.0,100006.0,270056.0,109637.0
2026-04-14 17:54:19.935950,607427,1609506753587638,4353557709,0.650016,-0.044896,-0.267424,21.53375,-50.076252,17.61375,-24.496,-21.944,-5.632,concentric,5,3.0,45839.0,275822.0,100006.0,270056.0,109637.0
2026-04-14 17:54:19.941933,607428,1609506753602219,4353570621,0.650016,-0.044896,-0.267424,4.15625,-43.6975,5.43375,-24.496,-21.944,-5.632,concentric,5,3.0,45839.0,275822.0,100006.0,270056.0,109637.0
2026-04-14 17:54:19.949454,607429,1609506753611424,4353581416,0.528992,-0.222528,-0.13664,2.61625,-45.56125,1.79375,-23.784,-22.176,-7.304,concentric,5,3.0,45839.0,275822.0,100006.0,270056.0,109637.0
2026-04-14 17:54:19.989624,607440,1609506753626059,4353596303,0.528992,-0.222528,-0.13664,11.375,-44.6775,8.855001,-23.784,-22.176,-7.304,concentric,5,3.0,37315.0,228200.0,85510.0,229174.0,94544.0
2026-04-14 17:54:19.991654,607441,1609506753635036,4353605059,0.540704,-0.093696,-0.404064,20.825,-46.4275,10.47375,-23.920002,-22.168001,-7.064,concentric,5,3.0,37315.0,228200.0,85510.0,229174.0,94544.0
2026-04-14 17:54:19.994219,607442,1609506753644023,4353613801,0.540704,-0.093696,-0.404064,24.6925,-50.11125,9.292501,-23.920002,-22.168001,-7.064,concentric,5,3.0,37315.0,228200.0,85510.0,229174.0,94544.0
2026-04-14 17:54:19.999614,607443,1609506753658549,4353628683,0.8296,0.083936,-0.3416,22.67125,-52.99875,15.88125,-23.920002,-21.704,-7.872,concentric,5,3.0,37315.0,228200.0,85510.0,229174.0,94544.0
2026-04-14 17:54:20.005851,607444,1609506753667545,4353637438,0.854976,-0.101504,0.007808,-10.05375,-42.09625,2.3625,-23.728,-21.992,-7.944,concentric,5,3.0,37315.0,228200.0,85510.0,229174.0,94544.0
2026-04-14 17:54:20.021717,607445,1609506753682066,4353652395,0.854976,-0.101504,0.007808,-28.21875,-39.48,-14.6125,-23.728,-21.992,-7.944,concentric,5,3.0,37315.0,228200.0,85510.0,229174.0,94544.0
2026-04-14 17:54:20.030384,607446,1609506753691050,4353661072,0.573888,-0.445056,0.10736,-29.741251,-33.74875,-12.88875,-23.816002,-21.696001,-8.6,concentric,5,3.0,37315.0,228200.0,85510.0,229174.0,94544.0
2026-04-14 17:54:20.043955,607447,1609506753705573,4353673931,0.573888,-0.445056,0.10736,-2.0125,-34.18625,8.28625,-23.816002,-21.696001,-8.6,concentric,5,3.0,37315.0,228200.0,85510.0,229174.0,94544.0
2026-04-14 17:54:20.052101,607448,1609506753714767,4353684732,0.677344,-0.050752,-0.144448,38.6575,-36.46125,20.97375,-23.624,-20.928001,-10.544001,concentric,5,3.0,37315.0,228200.0,85510.0,229174.0,94544.0
2026-04-14 17:54:20.061573,607449,1609506753723709,4353693469,0.677344,-0.050752,-0.144448,61.83625,-38.01,15.408751,-23.624,-20.928001,-10.544001,concentric,5,3.0,37315.0,228200.0,85510.0,229174.0,94544.0
2026-04-14 17:54:20.094227,607461,1609506753738585,4353708738,0.841312,0.203008,-0.435296,39.75125,-33.04,-4.34875,-24.080002,-21.072,-8.544001,concentric,5,3.0,41525.0,223191.0,93931.0,226177.0,103883.0
2026-04-14 17:54:20.097144,607462,1609506753747572,4353717460,0.841312,-0.218624,-0.013664,-2.19625,-29.365,-15.925,-24.080002,-21.072,-8.544001,concentric,5,3.0,41525.0,223191.0,93931.0,226177.0,103883.0
2026-04-14 17:54:20.102166,607463,1609506753762118,4353732420,0.83936,-0.218624,-0.013664,-27.79875,-17.84125,-8.1725,-24.096,-20.92,-9.024,concentric,5,3.0,41525.0,223191.0,93931.0,226177.0,103883.0
2026-04-14 17:54:20.113177,607464,1609506753771066,4353741125,0.571936,-0.591456,-0.00976,-19.41625,-2.89625,-2.12625,-24.792002,-20.84,-9.696,concentric,5,3.0,41525.0,223191.0,93931.0,226177.0,103883.0
2026-04-14 17:54:20.121826,607465,1609506753780033,4353749802,0.571936,-0.591456,-0.00976,18.7775,-5.31125,3.22,-24.792002,-20.84,-9.696,concentric,5,3.0,41525.0,223191.0,93931.0,226177.0,103883.0
2026-04-14 17:54:20.133217,607466,1609506753794537,4353764745,0.788608,0.212768,-0.247904,51.0825,-7.175,14.7,-24.832,-20.064001,-9.96,concentric,5,3.0,41525.0,223191.0,93931.0,226177.0,103883.0
2026-04-14 17:54:20.143388,607467,1609506753803469,4353773444,0.788608,0.212768,-0.247904,56.06125,-8.54875,16.6425,-24.832,-20.064001,-9.96,concentric,5,3.0,41525.0,223191.0,93931.0,226177.0,103883.0
2026-04-14 17:54:20.156622,607468,1609506753818042,4353788378,0.837408,-0.042944,-0.197152,31.955,-1.37375,8.79375,-24.344002,-20.384,-10.656,concentric,5,3.0,41525.0,223191.0,93931.0,226177.0,103883.0
2026-04-14 17:54:20.235676,607479,1609506753827010,4353797083,0.837408,-0.042944,-0.197152,2.86125,6.37,6.2125,-24.344002,-20.384,-10.656,concentric,5,3.0,37009.0,210627.0,84676.0,214640.0,93383.0
2026-04-14 17:54:20.263362,607480,1609506753836028,4353805784,0.72224,-0.324032,-0.15616,-1.645,15.1025,9.2225,-24.272001,-19.776001,-11.048,concentric,5,3.0,37009.0,210627.0,84676.0,214640.0,93383.0
2026-04-14 17:54:20.265882,607481,1609506753850759,4353820803,0.735904,-0.011712,-0.261568,8.9425,19.74,10.75375,-24.536001,-19.480001,-10.528001,concentric,5,3.0,37009.0,210627.0,84676.0,214640.0,93383.0
2026-04-14 17:54:20.268258,607482,1609506753859699,4353829502,0.735904,-0.011712,-0.261568,16.98375,20.86,11.29625,-24.536001,-19.480001,-10.528001,concentric,5,3.0,37009.0,210627.0,84676.0,214640.0,93383.0
2026-04-14 17:54:20.270823,607483,1609506753874174,4353844364,0.901824,0.128832,-0.247904,8.26,21.455,11.33125,-24.720001,-19.016,-10.192,concentric,5,3.0,37009.0,210627.0,84676.0,214640.0,93383.0
2026-04-14 17:54:20.275853,607484,1609506753883175,4353853068,0.901824,0.128832,-0.247904,-21.02625,26.41625,8.6975,-24.720001,-19.016,-10.192,concentric,5,3.0,37009.0,210627.0,84676.0,214640.0,93383.0
2026-04-14 17:54:20.278395,607485,1609506753897640,4353868005,0.853024,-0.265472,0.001952,-36.575,34.46625,6.0725,-24.552002,-18.936,-9.712001,concentric,5,3.0,37009.0,210627.0,84676.0,214640.0,93383.0
2026-04-14 17:54:20.280858,607486,1609506753906767,4353876704,0.853024,-0.265472,0.001952,-27.7375,41.22125,7.875,-24.552002,-18.936,-9.712001,concentric,5,3.0,37009.0,210627.0,84676.0,214640.0,93383.0
2026-04-14 17:54:20.283351,607487,1609506753915711,4353885380,0.892064,-0.245952,-0.203008,-5.32875,49.46375,10.98125,-24.976002,-18.696001,-9.56,concentric,5,3.0,37009.0,210627.0,84676.0,214640.0,93383.0
2026-04-14 17:54:20.312334,607498,1609506753930428,4353900269,1.038464,0.183488,-0.072224,17.28125,57.085,11.50625,-25.272001,-18.392,-9.208,concentric,5,3.0,39627.0,226961.0,89276.0,229702.0,98398.0
2026-04-14 17:54:20.312516,607499,1609506753939453,4353908992,1.038464,0.183488,-0.072224,16.51125,60.2175,7.315,-25.272001,-18.392,-9.208,concentric,5,3.0,39627.0,226961.0,89276.0,229702.0,98398.0
2026-04-14 17:54:20.315685,607500,1609506753954197,4353923978,0.972096,-0.085888,-0.05856,-5.005,62.37,4.31375,-25.984001,-18.472,-7.672,concentric,5,3.0,39627.0,226961.0,89276.0,229702.0,98398.0
2026-04-14 17:54:20.317783,607501,1609506753963263,4353932676,0.972096,-0.085888,-0.05856,-17.33375,67.9175,5.73125,-25.984001,-18.472,-7.672,concentric,5,3.0,39627.0,226961.0,89276.0,229702.0,98398.0
2026-04-14 17:54:20.323176,607502,1609506753972231,4353941410,1.145824,-0.277184,0.062464,-11.13,72.135,9.70375,-26.160002,-18.208,-7.664001,concentric,5,3.0,39627.0,226961.0,89276.0,229702.0,98398.0
2026-04-14 17:54:20.325705,607503,1609506753986729,4353956387,1.145824,-0.277184,0.062464,3.955,73.96375,4.5325,-26.160002,-18.208,-7.664001,concentric,5,3.0,39627.0,226961.0,89276.0,229702.0,98398.0
2026-04-14 17:54:20.333190,607504,1609506753995742,4353965128,1.081408,-0.017568,0.042944,22.89,77.21875,-1.44375,-26.648,-17.808,-7.296001,concentric,5,3.0,39627.0,226961.0,89276.0,229702.0,98398.0
2026-04-14 17:54:20.349558,607505,1609506754010326,4353980040,1.225856,0.021472,0.054656,30.96625,77.385,-3.29,-25.624,-18.088001,-6.064,concentric,5,3.0,39627.0,226961.0,89276.0,229702.0,98398.0
2026-04-14 17:54:20.356654,607506,1609506754019268,4353988758,1.225856,0.021472,0.054656,20.22125,79.4675,-5.6875,-25.624,-18.088001,-6.064,concentric,5,3.0,39627.0,226961.0,89276.0,229702.0,98398.0
2026-04-14 17:54:20.393999,607517,1609506754033992,4354003710,1.264896,-0.0976,0.228384,1.74125,82.55625,-6.72,-25.544,-17.944,-7.384,concentric,5,3.0,54007.0,281859.0,113573.0,276992.0,124437.0
2026-04-14 17:54:20.396827,607518,1609506754042991,4354012453,1.264896,-0.0976,0.228384,-15.190001,84.14875,-9.38875,-25.544,-17.944,-7.384,concentric,5,3.0,54007.0,281859.0,113573.0,276992.0,124437.0
2026-04-14 17:54:20.398936,607519,1609506754052035,4354021164,1.290272,-0.21472,0.163968,-15.2425,87.535,-10.10625,-25.488,-18.176,-6.728,concentric,5,3.0,54007.0,281859.0,113573.0,276992.0,124437.0
2026-04-14 17:54:20.403974,607520,1609506754066597,4354036138,1.290272,-0.21472,0.163968,-14.735,86.975,-13.2125,-25.488,-18.176,-6.728,concentric,5,3.0,54007.0,281859.0,113573.0,276992.0,124437.0
2026-04-14 17:54:20.414112,607521,1609506754075534,4354044837,1.331264,-0.179584,0.201056,-2.17,84.455,-12.53,-25.176,-18.024,-6.2,concentric,5,3.0,54007.0,281859.0,113573.0,276992.0,124437.0
2026-04-14 17:54:20.430392,607522,1609506754090053,4354059766,1.382016,-0.212768,0.109312,-2.8525,83.16,-17.73625,-25.176,-18.024,-6.128,concentric,5,3.0,54007.0,281859.0,113573.0,276992.0,124437.0
2026-04-14 17:54:20.436642,607523,1609506754099049,4354068473,1.382016,-0.212768,0.109312,-0.4025,80.52625,-15.505,-25.52,-17.984001,-6.128,concentric,5,3.0,54007.0,281859.0,113573.0,276992.0,124437.0
2026-04-14 17:54:20.446686,607524,1609506754107992,4354077152,1.382016,-0.212768,0.109312,7.21,77.46375,-13.71125,-25.52,-17.984001,-6.128,concentric,5,3.0,54007.0,281859.0,113573.0,276992.0,124437.0
