pc_time,serial_num,sensor_ts,host_ts,ax,ay,az,gx,gy,gz,mx,my,mz,phase,rpe,weight_kg,ppg_a,ppg_b,ppg_c,ppg_d,ppg_e
2026-04-08 21:45:48.728835,195962,1609503920953681,1520919651,0.954528,0.042944,0.093696,6.09875,-5.4075,8.2075,-30.12,-4.888,-9.056001,concentric,4,3.0,18384.0,136550.0,222625.0,274673.0,260297.0
2026-04-08 21:45:48.735153,195963,1609503920968243,1520934578,1.036512,0.007808,0.16592,4.0075,-7.74375,10.08,-29.672,-4.864,-9.72,concentric,4,3.0,18384.0,136550.0,222625.0,274673.0,260297.0
2026-04-08 21:45:48.736745,195964,1609503920977209,1520943273,1.091168,-0.046848,0.181536,3.36875,-9.03875,9.835,-30.12,-4.752,-13.240001,concentric,4,3.0,18384.0,136550.0,222625.0,274673.0,260297.0
2026-04-08 21:45:48.766988,195965,1609503920991670,1520958138,1.091168,-0.046848,0.181536,6.99125,-11.375,9.72125,-30.12,-4.752,-13.240001,concentric,4,3.0,18384.0,136550.0,222625.0,274673.0,260297.0
2026-04-08 21:45:48.769423,195966,1609503921000587,1520966812,0.989664,0.003904,0.001952,12.34625,-13.195,9.94,-29.616001,-4.192,-9.84,concentric,4,3.0,18384.0,136550.0,222625.0,274673.0,260297.0
2026-04-08 21:45:48.804381,195967,1609503921009482,1520975473,0.989664,0.003904,0.001952,18.795,-13.195,9.14375,-29.616001,-4.192,-9.84,concentric,4,3.0,18384.0,136550.0,222625.0,274673.0,260297.0
2026-04-08 21:45:48.808869,195968,1609503921023937,1520990336,0.977952,0.044896,-0.00976,24.84125,-12.74,8.6275,-29.944002,-3.712,-9.312,concentric,4,3.0,18384.0,136550.0,222625.0,274673.0,260297.0
2026-04-08 21:45:48.810558,195969,1609503921032867,1520998988,0.977952,0.044896,-0.00976,25.34875,-13.32625,10.36,-29.944002,-3.712,-9.312,concentric,4,3.0,18384.0,136550.0,222625.0,274673.0,260297.0
2026-04-08 21:45:48.838068,195980,1609503921047466,1521013902,1.081408,-0.025376,-0.01952,19.92375,-14.51625,10.8675,-29.136002,-3.608,-10.240001,concentric,4,3.0,18605.0,137321.0,223510.0,275155.0,260483.0
2026-04-08 21:45:48.839735,195981,1609503921056438,1521022657,1.081408,-0.025376,-0.0976,15.91625,-16.2575,9.03875,-29.136002,-3.608,-10.240001,concentric,4,3.0,18605.0,137321.0,223510.0,275155.0,260483.0
2026-04-08 21:45:48.843005,195982,1609503921071083,1521037575,1.03456,-0.080032,-0.0976,15.28625,-17.1675,6.32625,-29.016,-2.984,-11.296001,concentric,4,3.0,18605.0,137321.0,223510.0,275155.0,260483.0
2026-04-08 21:45:48.844594,195983,1609503921080009,1521046282,1.036512,-0.052704,0.144448,18.41875,-18.1825,4.41875,-28.992,-2.968,-10.76,concentric,4,3.0,18605.0,137321.0,223510.0,275155.0,260483.0
2026-04-08 21:45:48.849160,195984,1609503921088951,1521054996,1.036512,-0.052704,0.144448,23.42375,-19.55625,2.58125,-28.992,-2.968,-10.76,concentric,4,3.0,18605.0,137321.0,223510.0,275155.0,260483.0
2026-04-08 21:45:48.878530,195985,1609503921103425,1521069915,0.974048,-0.033184,0.062464,25.17375,-20.30875,-0.28,-28.752,-2.616,-9.64,concentric,4,3.0,18605.0,137321.0,223510.0,275155.0,260483.0
2026-04-08 21:45:48.891002,195986,1609503921112320,1521078616,0.974048,-0.033184,0.062464,24.35125,-22.12,-2.96625,-28.752,-2.616,-9.64,concentric,4,3.0,18605.0,137321.0,223510.0,275155.0,260483.0
2026-04-08 21:45:48.893339,195987,1609503921126814,1521093461,0.968192,-0.072224,-0.144448,22.77625,-23.7125,-5.0225,-28.576002,-2.64,-11.816001,concentric,4,3.0,18605.0,137321.0,223510.0,275155.0,260483.0
2026-04-08 21:45:48.895878,195988,1609503921135756,1521102121,0.968192,-0.072224,-0.144448,19.8275,-25.52375,-7.595,-28.576002,-2.64,-11.816001,concentric,4,3.0,18605.0,137321.0,223510.0,275155.0,260483.0
2026-04-08 21:45:48.932072,195999,1609503921150672,1521117154,0.997472,-0.081984,0.07808,17.64,-27.43125,-9.8175,-28.2,-2.44,-14.120001,concentric,4,3.0,18538.0,137146.0,223339.0,275086.0,260465.0
2026-04-08 21:45:48.934590,196000,1609503921159653,1521125847,0.931104,-0.06832,-0.08784,19.81875,-28.00875,-12.2675,-27.968,-2.84,-10.744,concentric,4,3.0,18538.0,137146.0,223339.0,275086.0,260465.0
2026-04-08 21:45:48.937060,196001,1609503921168598,1521134531,0.931104,-0.06832,-0.08784,22.61875,-28.27125,-14.175,-27.968,-2.84,-10.744,concentric,4,3.0,18538.0,137146.0,223339.0,275086.0,260465.0
2026-04-08 21:45:48.943391,196002,1609503921183097,1521149386,0.94672,-0.064416,-0.162016,25.235,-28.9275,-15.75875,-27.752,-2.24,-11.904,concentric,4,3.0,18538.0,137146.0,223339.0,275086.0,260465.0
2026-04-08 21:45:48.949600,196003,1609503921192017,1521158124,0.94672,-0.064416,-0.162016,22.9075,-30.0125,-17.61375,-27.752,-2.24,-11.904,concentric,4,3.0,18538.0,137146.0,223339.0,275086.0,260465.0
2026-04-08 21:45:48.979796,196004,1609503921206494,1521173043,1.038464,-0.06832,-0.081984,19.69625,-31.3425,-19.95,-27.480001,-2.144,-12.464001,concentric,4,3.0,18538.0,137146.0,223339.0,275086.0,260465.0
2026-04-08 21:45:48.983377,196005,1609503921215474,1521181701,1.038464,-0.06832,-0.081984,19.3725,-31.61375,-21.69125,-27.480001,-2.144,-12.464001,concentric,4,3.0,18538.0,137146.0,223339.0,275086.0,260465.0
2026-04-08 21:45:48.989817,196006,1609503921229953,1521196590,0.960384,-0.035136,-0.152256,17.99875,-30.765,-20.7025,-27.104002,-1.992,-13.480001,concentric,4,3.0,18538.0,137146.0,223339.0,275086.0,260465.0
2026-04-08 21:45:49.019801,196007,1609503921238866,1521205283,0.935008,-0.027328,-0.144448,15.39125,-30.1875,-19.5475,-26.680002,-2.4,-12.928,concentric,4,3.0,18538.0,137146.0,223339.0,275086.0,260465.0
2026-04-08 21:45:49.048421,196018,1609503921247937,1521214100,0.935008,-0.027328,-0.144448,10.61375,-30.598751,-20.25625,-26.680002,-2.4,-12.928,concentric,4,3.0,18553.0,137271.0,223512.0,275163.0,260484.0
2026-04-08 21:45:49.050902,196019,1609503921262406,1521229000,0.993568,-0.056608,-0.113216,4.80375,-31.0975,-20.5625,-26.544,-2.432,-13.824,concentric,4,3.0,18553.0,137271.0,223512.0,275163.0,260484.0
2026-04-08 21:45:49.053330,196020,1609503921271301,1521237674,0.993568,-0.056608,-0.113216,1.54875,-30.47625,-21.1225,-26.544,-2.432,-13.824,concentric,4,3.0,18553.0,137271.0,223512.0,275163.0,260484.0
2026-04-08 21:45:49.099523,196021,1609503921285907,1521252607,0.997472,-0.050752,-0.003904,-0.63,-29.61,-21.81375,-25.984001,-2.368,-14.240001,concentric,4,3.0,18553.0,137271.0,223512.0,275163.0,260484.0
2026-04-08 21:45:49.126054,196022,1609503921294915,1521261292,0.997472,-0.050752,-0.003904,-2.1525,-29.26875,-23.12625,-25.984001,-2.368,-14.240001,concentric,4,3.0,18553.0,137271.0,223512.0,275163.0,260484.0
2026-04-08 21:45:49.128512,196023,1609503921303882,1521270049,0.919392,-0.027328,0.003904,-1.60125,-29.522501,-24.50875,-25.696001,-2.512,-14.816001,concentric,4,3.0,18553.0,137271.0,223512.0,275163.0,260484.0
2026-04-08 21:45:49.131048,196024,1609503921318364,1521284923,0.919392,-0.05856,-0.05856,-1.54,-29.365,-24.815,-25.696001,-2.512,-14.816001,concentric,4,3.0,18553.0,137271.0,223512.0,275163.0,260484.0
2026-04-08 21:45:49.133722,196025,1609503921327279,1521293571,0.977952,-0.050752,-0.05856,-2.6425,-29.26,-25.147501,-25.44,-2.344,-16.552,concentric,4,3.0,18553.0,137271.0,223512.0,275163.0,260484.0
2026-04-08 21:45:49.160973,196036,1609503921341773,1521308545,0.948672,-0.017568,-0.03904,-3.1675,-29.225,-25.9875,-24.920002,-2.432,-15.784,concentric,4,3.0,18631.0,137467.0,223696.0,275300.0,260509.0
2026-04-08 21:45:49.163439,196037,1609503921350672,1521317220,0.948672,-0.017568,-0.03904,-3.5,-27.973751,-26.22375,-24.920002,-2.432,-15.784,concentric,4,3.0,18631.0,137467.0,223696.0,275300.0,260509.0
2026-04-08 21:45:49.165853,196038,1609503921365173,1521332078,0.860832,-0.037088,-0.160064,-3.75375,-27.22125,-26.11875,-24.824001,-2.072,-15.552001,concentric,4,3.0,18631.0,137467.0,223696.0,275300.0,260509.0
2026-04-08 21:45:49.168477,196039,1609503921374086,1521340737,0.860832,-0.037088,-0.160064,-4.05125,-28.81375,-26.57375,-24.824001,-2.072,-15.552001,concentric,4,3.0,18631.0,137467.0,223696.0,275300.0,260509.0
2026-04-08 21:45:49.170846,196040,1609503921383026,1521349436,0.921344,-0.0488,-0.070272,-5.10125,-29.77625,-27.0725,-24.184002,-2.256,-15.032001,concentric,4,3.0,18631.0,137467.0,223696.0,275300.0,260509.0
2026-04-08 21:45:49.173383,196041,1609503921397570,1521364409,0.921344,-0.0488,-0.070272,-4.7425,-30.14375,-28.98875,-24.184002,-2.256,-15.032001,concentric,4,3.0,18631.0,137467.0,223696.0,275300.0,260509.0
2026-04-08 21:45:49.176194,196042,1609503921406638,1521373164,1.016992,-0.060512,-0.062464,-1.44375,-28.9625,-30.616251,-24.04,-2.504,-13.928,concentric,4,3.0,18631.0,137467.0,223696.0,275300.0,260509.0
2026-04-08 21:45:49.181526,196043,1609503921421130,1521388051,0.88816,-0.00976,-0.228384,-0.04375,-27.9125,-30.73,-23.792002,-2.344,-15.664001,concentric,4,3.0,18631.0,137467.0,223696.0,275300.0,260509.0
2026-04-08 21:45:49.189685,196044,1609503921430048,1521396786,0.88816,-0.00976,-0.228384,0.5075,-26.425,-29.723751,-23.792002,-2.344,-15.664001,concentric,4,3.0,18631.0,137467.0,223696.0,275300.0,260509.0
2026-04-08 21:45:49.245834,196055,1609503921445115,1521411793,0.925248,-0.0488,-0.17568,-0.28,-25.8475,-27.58,-23.320002,-2.84,-16.872002,concentric,4,3.0,18629.0,137479.0,223671.0,275233.0,260490.0
2026-04-08 21:45:49.248456,196056,1609503921454172,1521420465,0.925248,-0.0488,-0.17568,-2.40625,-26.10125,-25.9175,-23.320002,-2.84,-16.872002,concentric,4,3.0,18629.0,137479.0,223671.0,275233.0,260490.0
2026-04-08 21:45:49.250788,196057,1609503921463085,1521429139,0.958432,-0.089792,-0.179584,-2.87875,-26.31125,-25.66375,-22.856,-2.688,-16.736,concentric,4,3.0,18629.0,137479.0,223671.0,275233.0,260490.0
2026-04-08 21:45:49.253399,196058,1609503921477605,1521444039,0.958432,-0.089792,-0.179584,-3.52625,-25.97875,-25.55875,-22.856,-2.688,-16.736,concentric,4,3.0,18629.0,137479.0,223671.0,275233.0,260490.0
2026-04-08 21:45:49.256724,196059,1609503921486667,1521452710,1.00528,-0.08784,-0.070272,-2.38,-24.9375,-24.5175,-23.000002,-2.88,-15.672001,concentric,4,3.0,18629.0,137479.0,223671.0,275233.0,260490.0
2026-04-08 21:45:49.259537,196060,1609503921501248,1521467709,0.901824,-0.03904,-0.27328,-0.4375,-22.8375,-23.485,-22.632002,-2.736,-18.256,concentric,4,3.0,18629.0,137479.0,223671.0,275233.0,260490.0
2026-04-08 21:45:49.292031,196061,1609503921510203,1521476409,0.901824,-0.03904,-0.27328,-1.75,-20.51875,-22.505,-22.632002,-2.736,-18.256,concentric,4,3.0,18629.0,137479.0,223671.0,275233.0,260490.0
2026-04-08 21:45:49.296494,196062,1609503921519180,1521485102,0.901824,-0.03904,-0.27328,-4.76875,-19.005,-20.5625,-22.632002,-2.736,-18.256,concentric,4,3.0,18629.0,137479.0,223671.0,275233.0,260490.0
2026-04-08 21:45:49.298860,196063,1609503921533616,1521499938,0.91744,-0.013664,-0.06832,-9.9925,-17.98125,-18.2,-22.352001,-2.464,-17.576,concentric,4,3.0,18629.0,137479.0,223671.0,275233.0,260490.0
2026-04-08 21:45:49.303157,196064,1609503921542527,1521508668,0.99552,-0.0976,-0.080032,-12.95875,-17.68375,-18.12125,-21.688002,-2.936,-16.816,concentric,4,3.0,18629.0,137479.0,223671.0,275233.0,260490.0
2026-04-08 21:45:49.331437,196075,1609503921557283,1521523622,0.99552,-0.0976,-0.080032,-12.50375,-16.9575,-17.10625,-21.688002,-2.936,-16.816,concentric,4,3.0,18668.0,137460.0,223504.0,275032.0,260303.0
2026-04-08 21:45:49.332999,196076,1609503921566357,1521532376,0.95648,-0.066368,-0.007808,-10.22875,-16.00375,-15.42625,-21.648,-2.912,-16.84,concentric,4,3.0,18668.0,137460.0,223504.0,275032.0,260303.0
2026-04-08 21:45:49.363309,196077,1609503921580900,1521547257,0.977952,-0.040992,-0.02928,-9.8525,-14.5075,-13.6325,-21.68,-2.928,-17.216002,concentric,4,3.0,18668.0,137460.0,223504.0,275032.0,260303.0
2026-04-08 21:45:49.365639,196078,1609503921589789,1521555926,0.977952,-0.040992,-0.02928,-11.165,-13.16,-11.5675,-21.68,-2.928,-17.216002,concentric,4,3.0,18668.0,137460.0,223504.0,275032.0,260303.0
2026-04-08 21:45:49.370163,196079,1609503921598703,1521564627,0.977952,-0.040992,-0.02928,-12.67875,-12.31125,-9.96625,-21.68,-2.928,-17.216002,concentric,4,3.0,18668.0,137460.0,223504.0,275032.0,260303.0
2026-04-08 21:45:49.405803,196080,1609503921613147,1521579472,0.976,-0.072224,-0.105408,-14.175,-12.25,-8.89,-21.424002,-2.864,-17.864,concentric,4,3.0,18668.0,137460.0,223504.0,275032.0,260303.0
2026-04-08 21:45:49.410199,196081,1609503921622053,1521588154,0.970144,-0.035136,-0.00976,-14.39375,-11.41875,-6.1075,-21.080002,-2.744,-17.496,concentric,4,3.0,18668.0,137460.0,223504.0,275032.0,260303.0
2026-04-08 21:45:49.412676,196082,1609503921636480,1521603029,0.970144,-0.035136,-0.00976,-11.917501,-9.44125,-3.49125,-21.080002,-2.744,-17.496,concentric,4,3.0,18668.0,137460.0,223504.0,275032.0,260303.0
2026-04-08 21:45:49.438390,196093,1609503921645847,1521612239,0.964288,-0.085888,-0.187392,-10.85875,-8.84625,-0.84875,-20.608002,-2.592,-18.024,concentric,4,3.0,18871.0,138126.0,224173.0,275490.0,260495.0
2026-04-08 21:45:49.440991,196094,1609503921654804,1521620934,0.964288,-0.085888,-0.187392,-14.18375,-8.33875,2.42375,-20.608002,-2.592,-18.024,concentric,4,3.0,18871.0,138126.0,224173.0,275490.0,260495.0
2026-04-08 21:45:49.443406,196095,1609503921669356,1521635870,0.921344,-0.054656,-0.17568,-17.9375,-7.105,4.55,-20.624,-2.24,-18.2,concentric,4,3.0,18871.0,138126.0,224173.0,275490.0,260495.0
2026-04-08 21:45:49.445873,196096,1609503921678293,1521644590,0.921344,-0.054656,-0.17568,-20.7025,-5.24125,4.90875,-20.624,-2.24,-18.2,concentric,4,3.0,18871.0,138126.0,224173.0,275490.0,260495.0
2026-04-08 21:45:49.452141,196097,1609503921692828,1521659545,0.977952,-0.066368,-0.052704,-19.5825,-3.24625,4.27875,-20.432001,-2.576,-18.088001,concentric,4,3.0,18871.0,138126.0,224173.0,275490.0,260495.0
2026-04-08 21:45:49.482304,196098,1609503921701731,1521668197,0.938912,-0.093696,-0.1464,-18.83875,-1.89875,6.57125,-20.616001,-2.16,-16.816,concentric,4,3.0,18871.0,138126.0,224173.0,275490.0,260495.0
2026-04-08 21:45:49.485965,196099,1609503921716249,1521683034,0.938912,-0.093696,-0.1464,-19.11,-1.26875,8.54,-20.616001,-2.16,-16.816,concentric,4,3.0,18871.0,138126.0,224173.0,275490.0,260495.0
2026-04-08 21:45:49.488388,196100,1609503921725269,1521691728,0.851072,-0.066368,-0.23424,-19.34625,-0.56,8.49625,-20.384,-2.112,-18.12,concentric,4,3.0,18871.0,138126.0,224173.0,275490.0,260495.0
2026-04-08 21:45:49.492110,196101,1609503921734190,1521700425,0.851072,-0.066368,-0.23424,-20.4925,0.56875,7.525,-20.384,-2.112,-18.12,concentric,4,3.0,18871.0,138126.0,224173.0,275490.0,260495.0
2026-04-08 21:45:49.549726,196112,1609503921749135,1521715307,0.841312,-0.052704,-0.324032,-21.035,2.80875,8.28625,-20.408,-2.096,-18.712002,concentric,4,3.0,19115.0,138736.0,224671.0,275688.0,260507.0
2026-04-08 21:45:49.551069,196113,1609503921758062,1521724079,0.841312,-0.052704,-0.324032,-22.54,4.725,9.7475,-20.408,-2.096,-18.712002,concentric,4,3.0,19115.0,138736.0,224671.0,275688.0,260507.0
2026-04-08 21:45:49.553441,196114,1609503921772546,1521738975,0.845216,-0.033184,-0.060512,-22.53125,5.1275,10.36875,-20.136002,-2.392,-17.904001,concentric,4,3.0,19115.0,138736.0,224671.0,275688.0,260507.0
2026-04-08 21:45:49.555836,196115,1609503921781470,1521747650,0.845216,-0.052704,-0.144448,-21.7,4.99625,11.29625,-20.136002,-2.392,-17.904001,concentric,4,3.0,19115.0,138736.0,224671.0,275688.0,260507.0
2026-04-08 21:45:49.558672,196116,1609503921796019,1521762518,0.81008,-0.052704,-0.144448,-23.37125,4.57625,11.68125,-20.032001,-1.832,-15.024001,concentric,4,3.0,19115.0,138736.0,224671.0,275688.0,260507.0
2026-04-08 21:45:49.563440,196117,1609503921805037,1521771199,0.864736,-0.050752,-0.093696,-24.66625,4.43625,10.605001,-19.880001,-1.92,-16.84,concentric,4,3.0,19115.0,138736.0,224671.0,275688.0,260507.0
2026-04-08 21:45:49.593635,196118,1609503921813967,1521779895,0.864736,-0.050752,-0.093696,-21.63875,5.08375,10.10625,-19.880001,-1.92,-16.84,concentric,4,3.0,19115.0,138736.0,224671.0,275688.0,260507.0
2026-04-08 21:45:49.597127,196119,1609503921828449,1521794779,0.81984,-0.033184,-0.269376,-18.2175,6.0725,11.1125,-19.76,-1.704,-17.808,concentric,4,3.0,19115.0,138736.0,224671.0,275688.0,260507.0
2026-04-08 21:45:49.599600,196120,1609503921837370,1521803443,0.81984,-0.033184,-0.269376,-18.585001,6.83375,12.29375,-19.76,-1.704,-17.808,concentric,4,3.0,19115.0,138736.0,224671.0,275688.0,260507.0
2026-04-08 21:45:49.627122,196131,1609503921852001,1521818373,0.874496,-0.031232,-0.113216,-19.85375,8.0675,12.845,-19.864,-2.088,-17.784,concentric,4,3.0,19336.0,139384.0,225236.0,275944.0,260541.0
2026-04-08 21:45:49.630438,196132,1609503921861070,1521827138,0.874496,-0.031232,-0.113216,-22.56625,9.45875,12.48625,-19.864,-2.088,-17.784,concentric,4,3.0,19336.0,139384.0,225236.0,275944.0,260541.0
2026-04-08 21:45:49.632520,196133,1609503921869996,1521835811,0.817888,-0.037088,-0.232288,-25.2525,10.15,10.57875,-19.880001,-1.976,-16.16,concentric,4,3.0,19336.0,139384.0,225236.0,275944.0,260541.0
2026-04-08 21:45:49.662433,196134,1609503921884534,1521850718,0.85888,-0.046848,-0.111264,-23.4675,10.84125,9.4675,-19.848001,-1.832,-17.784,concentric,4,3.0,19336.0,139384.0,225236.0,275944.0,260541.0
2026-04-08 21:45:49.665925,196135,1609503921893430,1521859351,0.85888,-0.046848,-0.111264,-19.8625,10.24625,10.28125,-19.848001,-1.832,-17.784,concentric,4,3.0,19336.0,139384.0,225236.0,275944.0,260541.0
2026-04-08 21:45:49.668920,196136,1609503921907919,1521874187,0.884256,-0.064416,-0.023424,-19.4425,7.51625,10.675,-19.928001,-1.712,-17.592001,concentric,4,3.0,19336.0,139384.0,225236.0,275944.0,260541.0
2026-04-08 21:45:49.704872,196137,1609503921917011,1521882950,0.884256,-0.064416,-0.023424,-19.34625,5.1625,8.40875,-19.928001,-1.712,-17.592001,concentric,4,3.0,19336.0,139384.0,225236.0,275944.0,260541.0
2026-04-08 21:45:49.707084,196138,1609503921931494,1521897801,0.84912,-0.015616,-0.199104,-17.15875,3.9725,6.79875,-20.264002,-1.872,-17.624,concentric,4,3.0,19336.0,139384.0,225236.0,275944.0,260541.0
2026-04-08 21:45:49.709669,196139,1609503921940377,1521906510,0.84912,-0.015616,-0.199104,-12.69625,4.05125,4.94375,-20.264002,-1.872,-17.624,concentric,4,3.0,19336.0,139384.0,225236.0,275944.0,260541.0
2026-04-08 21:45:49.740806,196150,1609503921949692,1521915249,0.860832,-0.005856,-0.218624,-8.3475,4.9,6.06375,-19.864,-1.496,-17.592001,concentric,4,3.0,19398.0,139607.0,225410.0,276080.0,260617.0
2026-04-08 21:45:49.743312,196151,1609503921964543,1521930237,0.929152,-0.064416,-0.06832,-8.198751,5.705,8.225,-19.824001,-1.344,-16.992,concentric,4,3.0,19398.0,139607.0,225410.0,276080.0,260617.0
2026-04-08 21:45:49.745847,196152,1609503921973566,1521938921,0.929152,-0.064416,-0.06832,-13.92125,4.0075,8.49625,-19.824001,-1.344,-16.992,concentric,4,3.0,19398.0,139607.0,225410.0,276080.0,260617.0
2026-04-08 21:45:49.748706,196153,1609503921988500,1521953818,0.895968,-0.099552,-0.16592,-22.46125,0.455,5.01375,-20.0,-2.04,-16.504002,concentric,4,3.0,19398.0,139607.0,225410.0,276080.0,260617.0
2026-04-08 21:45:49.778578,196154,1609503921997837,1521964636,0.895968,-0.099552,-0.16592,-22.47,-1.70625,0.6475,-20.0,-2.04,-16.504002,concentric,4,3.0,19398.0,139607.0,225410.0,276080.0,260617.0
2026-04-08 21:45:49.782108,196155,1609503922006794,1521973316,0.86864,-0.031232,-0.169824,-13.90375,-2.555,-1.51375,-19.656,-1.76,-17.480001,concentric,4,3.0,19398.0,139607.0,225410.0,276080.0,260617.0
2026-04-08 21:45:49.784618,196156,1609503922021287,1521988165,0.86864,-0.031232,-0.169824,-1.96,-0.525,-0.23625,-19.656,-1.76,-17.480001,concentric,4,3.0,19398.0,139607.0,225410.0,276080.0,260617.0
2026-04-08 21:45:49.790699,196157,1609503922030215,1521996829,0.901824,-0.013664,-0.142496,4.24375,0.2625,2.9225,-20.0,-1.36,-16.696001,concentric,4,3.0,19398.0,139607.0,225410.0,276080.0,260617.0
2026-04-08 21:45:49.819873,196158,1609503922044693,1522011701,0.876448,-0.066368,-0.288896,-3.14125,-1.86375,2.91375,-19.672,-1.352,-18.240002,concentric,4,3.0,19398.0,139607.0,225410.0,276080.0,260617.0
2026-04-08 21:45:49.850832,196169,1609503922053716,1522020463,0.876448,-0.066368,-0.288896,-13.615,-2.4325,-0.84875,-19.672,-1.352,-18.240002,concentric,4,3.0,19432.0,139653.0,225397.0,276035.0,260601.0
2026-04-08 21:45:49.853340,196170,1609503922062619,1522029126,0.876448,-0.066368,-0.288896,-17.84125,-2.30125,-3.85875,-19.672,-1.352,-18.240002,concentric,4,3.0,19432.0,139653.0,225397.0,276035.0,260601.0
2026-04-08 21:45:49.855849,196171,1609503922077319,1522044049,0.825696,-0.00976,-0.093696,-16.40625,-0.2975,-4.9875,-19.376001,-1.712,-16.720001,concentric,4,3.0,19432.0,139653.0,225397.0,276035.0,260601.0
2026-04-08 21:45:49.858353,196172,1609503922086354,1522052779,0.837408,0.037088,-0.015616,-10.0625,1.11125,-3.1325,-19.696001,-1.792,-17.616001,concentric,4,3.0,19432.0,139653.0,225397.0,276035.0,260601.0
2026-04-08 21:45:49.861642,196173,1609503922100861,1522067678,0.837408,0.037088,-0.015616,-4.82125,1.96,-1.77625,-19.696001,-1.792,-17.616001,concentric,4,3.0,19432.0,139653.0,225397.0,276035.0,260601.0
2026-04-08 21:45:49.891326,196174,1609503922109807,1522076345,0.81984,0.0,-0.062464,-4.165,3.05375,-1.26,-19.36,-1.728,-17.384,eccentric,4,3.0,19432.0,139653.0,225397.0,276035.0,260601.0
2026-04-08 21:45:49.894678,196175,1609503922124333,1522091256,0.759328,-0.01952,-0.257664,-9.47625,2.6425,0.27125,-19.328001,-1.856,-17.160002,eccentric,4,3.0,19432.0,139653.0,225397.0,276035.0,260601.0
2026-04-08 21:45:49.897158,196176,1609503922133212,1522099912,0.759328,-0.01952,-0.257664,-18.2525,0.70875,-2.89625,-19.328001,-1.856,-17.160002,eccentric,4,3.0,19432.0,139653.0,225397.0,276035.0,260601.0
2026-04-08 21:45:49.900988,196177,1609503922142120,1522108622,0.759328,-0.01952,-0.257664,-21.91875,0.49,-7.1225,-19.328001,-1.856,-17.160002,eccentric,4,3.0,19432.0,139653.0,225397.0,276035.0,260601.0
2026-04-08 21:45:49.929651,196188,1609503922157007,1522123601,0.774944,0.017568,-0.08784,-16.38875,1.23375,-6.9475,-19.776001,-1.808,-17.544,eccentric,4,3.0,19351.0,139304.0,224876.0,275691.0,260464.0
2026-04-08 21:45:49.933152,196189,1609503922165983,1522132360,0.81008,-0.007808,-0.025376,-10.03625,2.54625,-5.85375,-19.416,-1.856,-19.648,eccentric,4,3.0,19351.0,139304.0,224876.0,275691.0,260464.0
2026-04-08 21:45:49.962349,196190,1609503922180491,1522147241,0.81008,-0.007808,-0.025376,-7.11375,2.42375,-4.0425,-19.416,-1.856,-19.648,eccentric,4,3.0,19351.0,139304.0,224876.0,275691.0,260464.0
2026-04-08 21:45:49.965927,196191,1609503922189388,1522155894,0.7808,-0.046848,-0.040992,-6.93875,1.855,-3.885,-19.152,-1.664,-17.456001,eccentric,4,3.0,19351.0,139304.0,224876.0,275691.0,260464.0
2026-04-08 21:45:49.968362,196192,1609503922198331,1522164558,0.7808,-0.046848,-0.040992,-8.0675,0.56,-6.08125,-19.152,-1.664,-17.456001,eccentric,4,3.0,19351.0,139304.0,224876.0,275691.0,260464.0
2026-04-08 21:45:49.970887,196193,1609503922212827,1522179459,0.792512,-0.017568,-0.007808,-10.57875,-2.1875,-7.62125,-19.072,-1.88,-17.488,eccentric,4,3.0,19351.0,139304.0,224876.0,275691.0,260464.0
2026-04-08 21:45:50.006102,196194,1609503922221745,1522188151,0.792512,-0.017568,-0.007808,-8.417501,-4.20875,-10.0275,-19.072,-1.88,-17.488,eccentric,4,3.0,19351.0,139304.0,224876.0,275691.0,260464.0
2026-04-08 21:45:50.009601,196195,1609503922236195,1522203011,0.778848,-0.054656,-0.046848,-2.56375,-5.60875,-9.9575,-19.320002,-2.0,-18.088001,eccentric,4,3.0,19351.0,139304.0,224876.0,275691.0,260464.0
2026-04-08 21:45:50.012251,196196,1609503922245112,1522211687,0.716384,-0.046848,-0.138592,-1.46125,-6.83375,-8.47875,-19.28,-1.92,-17.976002,eccentric,4,3.0,19351.0,139304.0,224876.0,275691.0,260464.0
2026-04-08 21:45:50.048566,196207,1609503922259771,1522226563,0.716384,-0.046848,-0.138592,0.55125,-7.44625,-9.24875,-19.28,-1.92,-17.976002,eccentric,4,3.0,19179.0,138865.0,224514.0,275632.0,260595.0
2026-04-08 21:45:50.050871,196208,1609503922268820,1522235267,0.77104,-0.052704,-0.033184,4.52375,-8.00625,-10.45625,-19.224,-2.392,-17.696001,eccentric,4,3.0,19179.0,138865.0,224514.0,275632.0,260595.0
2026-04-08 21:45:50.053325,196209,1609503922277843,1522244003,0.77104,-0.052704,-0.033184,5.4775,-8.75,-9.135,-19.224,-2.392,-17.696001,eccentric,4,3.0,19179.0,138865.0,224514.0,275632.0,260595.0
2026-04-08 21:45:50.055855,196210,1609503922292428,1522258964,0.74176,-0.062464,-0.162016,4.78625,-10.54375,-7.95375,-19.408,-2.224,-14.6,eccentric,4,3.0,19179.0,138865.0,224514.0,275632.0,260595.0
2026-04-08 21:45:50.060856,196211,1609503922301341,1522267635,0.74176,-0.062464,-0.162016,2.8875,-11.13875,-8.58375,-19.408,-2.224,-14.6,eccentric,4,3.0,19179.0,138865.0,224514.0,275632.0,260595.0
2026-04-08 21:45:50.091041,196212,1609503922315764,1522282485,0.837408,-0.076128,-0.052704,1.33,-10.56125,-8.4,-19.264002,-1.736,-16.888,eccentric,4,3.0,19179.0,138865.0,224514.0,275632.0,260595.0
2026-04-08 21:45:50.094709,196213,1609503922324725,1522291157,0.837408,-0.076128,-0.052704,4.43625,-8.82,-6.93,-19.264002,-1.736,-16.888,eccentric,4,3.0,19179.0,138865.0,224514.0,275632.0,260595.0
2026-04-08 21:45:50.098459,196214,1609503922339201,1522306020,0.813984,-0.093696,-0.240096,7.5075,-7.0175,-4.305,-18.84,-2.08,-16.976002,eccentric,4,3.0,19179.0,138865.0,224514.0,275632.0,260595.0
2026-04-08 21:45:50.154607,196225,1609503922348144,1522314723,0.786656,-0.07808,-0.26352,7.8925,-5.55625,-1.295,-19.368,-1.864,-17.880001,eccentric,4,3.0,19211.0,139069.0,224795.0,275899.0,260739.0
2026-04-08 21:45:50.157129,196226,1609503922357470,1522323459,0.786656,-0.07808,-0.26352,3.92875,-5.215,0.35875,-19.368,-1.864,-17.880001,eccentric,4,3.0,19211.0,139069.0,224795.0,275899.0,260739.0
2026-04-08 21:45:50.159604,196227,1609503922371918,1522338301,0.817888,-0.066368,-0.16592,1.9775,-4.24375,1.53125,-19.384,-1.928,-18.08,eccentric,4,3.0,19211.0,139069.0,224795.0,275899.0,260739.0
2026-04-08 21:45:50.162101,196228,1609503922380826,1522346971,0.817888,-0.066368,-0.16592,4.03375,-2.24,4.15625,-19.384,-1.928,-18.08,eccentric,4,3.0,19211.0,139069.0,224795.0,275899.0,260739.0
2026-04-08 21:45:50.164644,196229,1609503922395438,1522362005,0.860832,-0.083936,-0.119072,5.635,-1.085,8.28625,-18.976002,-1.336,-16.304,eccentric,4,3.0,19211.0,139069.0,224795.0,275899.0,260739.0
2026-04-08 21:45:50.167128,196230,1609503922404366,1522370678,0.860832,-0.083936,-0.119072,5.775,-0.42875,9.415,-18.976002,-1.336,-16.304,eccentric,4,3.0,19211.0,139069.0,224795.0,275899.0,260739.0
2026-04-08 21:45:50.170797,196231,1609503922413296,1522379376,0.86864,-0.093696,-0.128832,4.83875,0.44625,10.00125,-19.240002,-1.608,-15.848001,eccentric,4,3.0,19211.0,139069.0,224795.0,275899.0,260739.0
2026-04-08 21:45:50.201113,196232,1609503922427795,1522394251,0.835456,-0.0976,-0.197152,3.15,1.68,11.6375,-19.184,-1.616,-17.800001,eccentric,4,3.0,19211.0,139069.0,224795.0,275899.0,260739.0
2026-04-08 21:45:50.204652,196233,1609503922436740,1522402917,0.835456,-0.0976,-0.197152,1.5575,3.49125,13.886251,-19.184,-1.616,-17.800001,eccentric,4,3.0,19211.0,139069.0,224795.0,275899.0,260739.0
2026-04-08 21:45:50.234613,196244,1609503922451554,1522417832,0.759328,-0.054656,-0.210816,0.7,5.43375,16.86125,-19.2,-1.312,-17.896,eccentric,4,3.0,19235.0,139237.0,225053.0,276076.0,260873.0
2026-04-08 21:45:50.237168,196245,1609503922460602,1522426546,0.759328,-0.054656,-0.210816,0.69125,6.93875,18.92625,-19.2,-1.312,-17.896,eccentric,4,3.0,19235.0,139237.0,225053.0,276076.0,260873.0
2026-04-08 21:45:50.239599,196246,1609503922475175,1522441445,0.743712,-0.083936,-0.16592,-0.90125,7.14,20.71125,-19.824001,-1.08,-16.896,eccentric,4,3.0,19235.0,139237.0,225053.0,276076.0,260873.0
2026-04-08 21:45:50.242107,196247,1609503922484100,1522450204,0.743712,-0.083936,-0.16592,-4.68125,8.39125,22.86375,-19.824001,-1.08,-16.896,eccentric,4,3.0,19235.0,139237.0,225053.0,276076.0,260873.0
2026-04-08 21:45:50.304850,196248,1609503922493002,1522458924,0.788608,-0.095648,-0.119072,-7.77875,8.91625,24.4475,-19.568,-1.344,-16.096,eccentric,4,3.0,19235.0,139237.0,225053.0,276076.0,260873.0
2026-04-08 21:45:50.308424,196249,1609503922507470,1522473808,0.895968,-0.128832,0.011712,-7.81375,11.2875,25.41875,-19.696001,-0.968,-17.072,eccentric,4,3.0,19235.0,139237.0,225053.0,276076.0,260873.0
2026-04-08 21:45:50.314628,196250,1609503922516375,1522482489,0.895968,-0.128832,0.011712,-4.06,14.39375,26.3725,-19.696001,-0.968,-17.072,eccentric,4,3.0,19235.0,139237.0,225053.0,276076.0,260873.0
2026-04-08 21:45:50.317106,196251,1609503922530855,1522497332,0.784704,-0.150304,-0.046848,2.45875,17.1675,27.50125,-19.800001,-0.544,-17.44,eccentric,4,3.0,19235.0,139237.0,225053.0,276076.0,260873.0
2026-04-08 21:45:50.319589,196252,1609503922539824,1522505988,0.784704,-0.150304,-0.046848,11.1125,17.64,29.26875,-19.800001,-0.544,-17.44,eccentric,4,3.0,19235.0,139237.0,225053.0,276076.0,260873.0
2026-04-08 21:45:50.380843,196263,1609503922554417,1522521411,0.812032,-0.16592,-0.226432,13.4225,16.555,32.515,-19.872002,-0.896,-17.568,eccentric,4,3.0,19337.0,139513.0,225310.0,276162.0,260837.0
2026-04-08 21:45:50.383384,196264,1609503922563321,1522530151,0.812032,-0.16592,-0.226432,12.6,18.06875,34.27375,-19.872002,-0.896,-17.568,eccentric,4,3.0,19337.0,139513.0,225310.0,276162.0,260837.0
2026-04-08 21:45:50.385854,196265,1609503922572242,1522538847,0.876448,-0.15616,-0.148352,10.1325,20.60625,34.1775,-20.328001,-0.304,-17.008001,eccentric,4,3.0,19337.0,139513.0,225310.0,276162.0,260837.0
2026-04-08 21:45:50.388387,196266,1609503922586884,1522553736,0.876448,-0.150304,-0.044896,2.96625,24.38625,34.23,-20.328001,-0.304,-17.008001,eccentric,4,3.0,19337.0,139513.0,225310.0,276162.0,260837.0
2026-04-08 21:45:50.390847,196267,1609503922595790,1522562409,0.796416,-0.150304,-0.044896,-0.32375,26.74,33.78375,-20.832,0.048,-18.464,eccentric,4,3.0,19337.0,139513.0,225310.0,276162.0,260837.0
2026-04-08 21:45:50.393476,196268,1609503922610250,1522577295,0.776896,-0.208864,-0.099552,-1.12875,27.265,36.0675,-20.704,0.24,-16.848001,eccentric,4,3.0,19337.0,139513.0,225310.0,276162.0,260837.0
2026-04-08 21:45:50.395844,196269,1609503922619192,1522585962,0.776896,-0.208864,-0.099552,5.565,27.58875,38.2375,-20.704,0.24,-16.848001,eccentric,4,3.0,19337.0,139513.0,225310.0,276162.0,260837.0
2026-04-08 21:45:50.398397,196270,1609503922633708,1522600839,0.7808,-0.206912,-0.122976,10.42125,26.565,39.76,-21.296001,0.704,-15.6,eccentric,4,3.0,19337.0,139513.0,225310.0,276162.0,260837.0
2026-04-08 21:45:50.400863,196271,1609503922642635,1522609522,0.7808,-0.206912,-0.122976,6.195,24.43,40.8625,-21.296001,0.704,-15.6,eccentric,4,3.0,19337.0,139513.0,225310.0,276162.0,260837.0
2026-04-08 21:45:50.457133,196282,1609503922651743,1522618253,0.845216,-0.257664,-0.169824,-1.28625,23.178751,37.59,-21.632002,0.36,-14.896001,eccentric,4,3.0,19238.0,139233.0,225085.0,276097.0,260892.0
2026-04-08 21:45:50.459596,196283,1609503922666284,1522633160,0.845216,-0.257664,-0.169824,-3.24625,24.9025,33.87125,-21.632002,0.36,-14.896001,eccentric,4,3.0,19238.0,139233.0,225085.0,276097.0,260892.0
2026-04-08 21:45:50.462108,196284,1609503922675232,1522641832,0.730048,-0.179584,-0.095648,-2.6075,25.5325,34.72,-21.368002,0.696,-16.168001,eccentric,4,3.0,19238.0,139233.0,225085.0,276097.0,260892.0
2026-04-08 21:45:50.464583,196285,1609503922689741,1522656720,0.759328,-0.216672,0.064416,3.87625,25.095,36.505,-21.928001,1.472,-14.784,eccentric,4,3.0,19238.0,139233.0,225085.0,276097.0,260892.0
2026-04-08 21:45:50.467081,196286,1609503922698803,1522665408,0.759328,-0.216672,0.064416,9.30125,21.8925,38.263752,-21.928001,1.472,-14.784,eccentric,4,3.0,19238.0,139233.0,225085.0,276097.0,260892.0
2026-04-08 21:45:50.469601,196287,1609503922707819,1522674123,0.759328,-0.244,0.06832,9.10875,18.05125,39.45375,-21.928001,1.472,-12.736001,eccentric,4,3.0,19238.0,139233.0,225085.0,276097.0,260892.0
2026-04-08 21:45:50.499778,196288,1609503922722320,1522689059,0.870592,-0.244,0.06832,6.4575,14.8575,38.31625,-22.44,1.528,-14.080001,eccentric,4,3.0,19238.0,139233.0,225085.0,276097.0,260892.0
2026-04-08 21:45:50.503359,196289,1609503922731207,1522697713,0.952576,-0.2928,-0.0976,3.605,15.4525,34.79,-22.392,1.408,-15.504001,eccentric,4,3.0,19238.0,139233.0,225085.0,276097.0,260892.0
2026-04-08 21:45:50.505885,196290,1609503922745671,1522712581,0.952576,-0.2928,-0.0976,-0.91,15.96875,31.710001,-22.392,1.408,-15.504001,eccentric,4,3.0,19238.0,139233.0,225085.0,276097.0,260892.0
2026-04-08 21:45:50.533436,196301,1609503922754788,1522721279,0.815936,-0.232288,-0.099552,-6.8425,14.84875,30.02125,-22.744001,1.4,-15.112,eccentric,4,3.0,19333.0,139517.0,225395.0,276225.0,260936.0
2026-04-08 21:45:50.535870,196302,1609503922769427,1522736299,0.876448,-0.21472,0.042944,-3.15,16.24,29.54875,-22.896002,2.384,-14.648001,eccentric,4,3.0,19333.0,139517.0,225395.0,276225.0,260936.0
2026-04-08 21:45:50.538393,196303,1609503922778441,1522745009,0.876448,-0.21472,0.042944,5.83625,17.885,33.53875,-22.896002,2.384,-14.648001,eccentric,4,3.0,19333.0,139517.0,225395.0,276225.0,260936.0
2026-04-08 21:45:50.568545,196304,1609503922787387,1522753702,0.876448,-0.21472,0.042944,7.8925,18.7075,34.23875,-22.896002,2.384,-14.648001,eccentric,4,3.0,19333.0,139517.0,225395.0,276225.0,260936.0
2026-04-08 21:45:50.607404,196305,1609503922801930,1522768525,0.862784,-0.31232,-0.033184,4.445,17.01,31.29,-23.168001,2.344,-14.72,eccentric,4,3.0,19333.0,139517.0,225395.0,276225.0,260936.0
2026-04-08 21:45:50.610874,196306,1609503922810887,1522777211,0.837408,-0.327936,0.011712,0.06125,12.90625,29.95125,-23.424002,2.392,-14.896001,eccentric,4,3.0,19333.0,139517.0,225395.0,276225.0,260936.0
2026-04-08 21:45:50.613391,196307,1609503922825367,1522792096,0.837408,-0.327936,0.011712,0.51625,9.77375,26.1625,-23.424002,2.392,-14.896001,eccentric,4,3.0,19333.0,139517.0,225395.0,276225.0,260936.0
2026-04-08 21:45:50.615876,196308,1609503922834281,1522800753,0.915488,-0.318176,0.083936,4.5675,8.54875,21.32375,-23.616001,2.208,-14.752001,eccentric,4,3.0,19333.0,139517.0,225395.0,276225.0,260936.0
2026-04-08 21:45:50.618382,196309,1609503922848744,1522815614,0.837408,-0.284992,0.0488,10.5175,7.56,18.655,-23.616001,2.208,-14.752001,eccentric,4,3.0,19333.0,139517.0,225395.0,276225.0,260936.0
2026-04-08 21:45:50.649755,196320,1609503922857682,1522824345,0.83936,-0.284992,0.0488,17.5525,6.50125,16.9925,-23.832,2.264,-14.744,eccentric,4,3.0,19287.0,139406.0,225363.0,276269.0,260978.0
2026-04-08 21:45:50.652109,196321,1609503922866649,1522833059,0.83936,-0.284992,0.0488,18.87375,5.2325,15.846251,-23.832,2.264,-14.744,eccentric,4,3.0,19287.0,139406.0,225363.0,276269.0,260978.0
2026-04-08 21:45:50.654660,196322,1609503922881339,1522847992,0.833504,-0.308416,-0.121024,14.245,4.40125,13.30875,-24.112001,2.576,-13.424001,eccentric,4,3.0,19287.0,139406.0,225363.0,276269.0,260978.0
2026-04-08 21:45:50.657101,196323,1609503922890342,1522856675,0.894016,-0.335744,-0.230336,11.4975,4.4975,8.855001,-24.336,2.36,-13.128,eccentric,4,3.0,19287.0,139406.0,225363.0,276269.0,260978.0
2026-04-08 21:45:50.663414,196324,1609503922904849,1522871619,0.894016,-0.335744,-0.230336,5.3375,4.31375,4.41875,-24.336,2.36,-13.128,eccentric,4,3.0,19287.0,139406.0,225363.0,276269.0,260978.0
2026-04-08 21:45:50.693607,196325,1609503922913762,1522880279,0.925248,-0.3416,-0.042944,0.77,6.615,-2.89625,-24.464,2.016,-14.184001,eccentric,4,3.0,19287.0,139406.0,225363.0,276269.0,260978.0
2026-04-08 21:45:50.697091,196326,1609503922922675,1522888940,0.925248,-0.3416,-0.042944,3.19375,9.72125,-8.2425,-24.464,2.016,-14.184001,eccentric,4,3.0,19287.0,139406.0,225363.0,276269.0,260978.0
2026-04-08 21:45:50.699622,196327,1609503922937154,1522903800,0.860832,-0.2928,0.003904,5.6525,10.8675,-10.57,-25.032001,1.832,-13.816001,eccentric,4,3.0,19287.0,139406.0,225363.0,276269.0,260978.0
2026-04-08 21:45:50.704638,196328,1609503922946073,1522912502,0.860832,-0.2928,0.003904,5.32,10.36875,-13.79,-25.032001,1.832,-13.816001,eccentric,4,3.0,19287.0,139406.0,225363.0,276269.0,260978.0
2026-04-08 21:45:50.738916,196340,1609503922961007,1522927696,0.98576,-0.240096,0.046848,-0.53375,10.167501,-15.47875,-25.488,1.768,-13.616,eccentric,4,3.0,19311.0,139399.0,225367.0,276204.0,260839.0
2026-04-08 21:45:50.741380,196341,1609503922969964,1522936376,0.976,-0.197152,-0.140544,-3.5525,12.67,-17.272501,-25.496,1.528,-14.952001,eccentric,4,3.0,19311.0,139399.0,225367.0,276204.0,260839.0
2026-04-08 21:45:50.746299,196342,1609503922984598,1522951276,0.976,-0.197152,-0.140544,1.365,18.445,-18.585001,-25.496,1.528,-14.952001,eccentric,4,3.0,19311.0,139399.0,225367.0,276204.0,260839.0
2026-04-08 21:45:50.775202,196343,1609503922993521,1522959954,0.915488,-0.206912,-0.119072,1.67125,19.7225,-17.64,-26.336,0.784,-13.248001,eccentric,4,3.0,19311.0,139399.0,225367.0,276204.0,260839.0
2026-04-08 21:45:50.779401,196344,1609503923002421,1522968663,0.915488,-0.206912,-0.119072,-7.2625,18.34,-17.6575,-26.336,0.784,-13.248001,eccentric,4,3.0,19311.0,139399.0,225367.0,276204.0,260839.0
2026-04-08 21:45:50.780870,196345,1609503923016883,1522983532,1.06384,-0.267424,0.1952,-12.88,17.26375,-19.31125,-26.696001,0.456,-13.128,eccentric,4,3.0,19311.0,139399.0,225367.0,276204.0,260839.0
2026-04-08 21:45:50.785912,196346,1609503923025794,1522992219,1.06384,-0.267424,0.1952,-13.440001,18.50625,-20.06375,-26.696001,0.456,-13.128,eccentric,4,3.0,19311.0,139399.0,225367.0,276204.0,260839.0
2026-04-08 21:45:50.817018,196347,1609503923040364,1523007121,1.153632,-0.333792,-0.005856,-11.13,21.665,-24.47375,-27.152,0.16,-11.616,eccentric,4,3.0,19311.0,139399.0,225367.0,276204.0,260839.0
2026-04-08 21:45:50.819280,196348,1609503923049280,1523015783,1.153632,-0.333792,-0.005856,-8.47875,22.05875,-31.98125,-27.152,0.16,-11.616,eccentric,4,3.0,19311.0,139399.0,225367.0,276204.0,260839.0
2026-04-08 21:45:50.852723,196359,1609503923063795,1523030652,0.96624,-0.232288,-0.220576,-4.94375,21.51625,-38.4125,-27.568,-0.648,-12.248,eccentric,4,3.0,19136.0,138763.0,224744.0,275890.0,260723.0
2026-04-08 21:45:50.854391,196360,1609503923072886,1523040104,1.022848,-0.128832,-0.025376,3.14125,21.16625,-39.1825,-27.896002,-0.864,-11.200001,eccentric,4,3.0,19136.0,138763.0,224744.0,275890.0,260723.0
2026-04-08 21:45:50.855997,196361,1609503923081988,1523048809,1.022848,-0.128832,-0.025376,9.16125,22.0325,-34.93,-27.896002,-0.864,-11.200001,eccentric,4,3.0,19136.0,138763.0,224744.0,275890.0,260723.0
2026-04-08 21:45:50.863729,196362,1609503923096483,1523061648,1.10288,-0.122976,0.033184,8.30375,22.8725,-32.8825,-28.04,-1.12,-10.832001,eccentric,4,3.0,19136.0,138763.0,224744.0,275890.0,260723.0
2026-04-08 21:45:50.867478,196363,1609503923105681,1523072391,1.10288,-0.122976,0.033184,6.2825,23.70375,-34.60625,-28.04,-1.12,-10.832001,eccentric,4,3.0,19136.0,138763.0,224744.0,275890.0,260723.0
2026-04-08 21:45:50.904483,196364,1609503923120203,1523087275,0.894016,-0.132736,-0.173728,4.34875,20.755,-35.201252,-28.28,-2.064,-10.776001,eccentric,4,3.0,19136.0,138763.0,224744.0,275890.0,260723.0
2026-04-08 21:45:50.906717,196365,1609503923129120,1523095960,0.894016,-0.132736,-0.173728,-3.4825,14.56,-32.375,-28.28,-2.064,-10.776001,eccentric,4,3.0,19136.0,138763.0,224744.0,275890.0,260723.0
2026-04-08 21:45:50.911519,196366,1609503923138055,1523104611,1.036512,-0.113216,0.16592,-11.795,12.8975,-28.14875,-28.688002,-2.432,-10.976001,eccentric,4,3.0,19136.0,138763.0,224744.0,275890.0,260723.0
2026-04-08 21:45:50.937120,196377,1609503923152524,1523119405,0.983808,-0.089792,0.046848,-12.88,12.5825,-27.991251,-28.664001,-3.328,-11.368001,eccentric,4,3.0,18881.0,138127.0,224285.0,275840.0,260883.0
2026-04-08 21:45:50.941505,196378,1609503923161960,1523128163,0.983808,-0.089792,0.046848,-11.97875,14.44625,-31.3775,-28.664001,-3.328,-11.368001,eccentric,4,3.0,18881.0,138127.0,224285.0,275840.0,260883.0
2026-04-08 21:45:50.943077,196379,1609503923176518,1523143114,1.065792,-0.095648,0.0976,-10.98125,16.38,-33.9675,-29.240002,-3.168,-8.952001,eccentric,4,3.0,18881.0,138127.0,224285.0,275840.0,260883.0
2026-04-08 21:45:50.944640,196380,1609503923185431,1523152119,1.065792,-0.095648,0.0976,-10.17625,15.54875,-33.08375,-29.240002,-3.168,-8.952001,eccentric,4,3.0,18881.0,138127.0,224285.0,275840.0,260883.0
2026-04-08 21:45:50.975853,196381,1609503923194428,1523160819,1.011136,-0.0488,-0.109312,-13.81625,13.1425,-32.235,-29.760002,-3.512,-9.92,eccentric,4,3.0,18881.0,138127.0,224285.0,275840.0,260883.0
2026-04-08 21:45:50.980195,196382,1609503923208886,1523175695,1.011136,-0.0488,-0.109312,-14.91875,11.27,-32.1825,-29.760002,-3.512,-9.92,eccentric,4,3.0,18881.0,138127.0,224285.0,275840.0,260883.0
2026-04-08 21:45:50.982558,196383,1609503923217832,1523184393,0.993568,-0.00976,-0.066368,-12.53,10.9025,-31.01,-29.536001,-4.424,-10.320001,eccentric,4,3.0,18881.0,138127.0,224285.0,275840.0,260883.0
2026-04-08 21:45:51.014001,196384,1609503923232443,1523199275,1.020896,0.02928,-0.056608,-10.40375,11.22625,-27.92125,-29.784002,-4.584,-8.04,eccentric,4,3.0,18881.0,138127.0,224285.0,275840.0,260883.0
2026-04-08 21:45:51.015765,196385,1609503923241359,1523207928,1.020896,0.02928,-0.056608,-8.30375,11.585,-23.415,-29.784002,-4.584,-8.04,eccentric,4,3.0,18881.0,138127.0,224285.0,275840.0,260883.0
2026-04-08 21:45:51.042147,196396,1609503923255928,1523221136,1.15168,0.011712,0.02928,-8.12875,10.21125,-18.7775,-29.856,-5.12,-9.944,eccentric,4,3.0,18845.0,137961.0,224107.0,275695.0,260821.0
2026-04-08 21:45:51.046467,196397,1609503923265134,1523231913,1.15168,0.011712,0.02928,-9.77375,6.65875,-16.9225,-29.856,-5.12,-9.944,eccentric,4,3.0,18845.0,137961.0,224107.0,275695.0,260821.0
2026-04-08 21:45:51.048112,196398,1609503923274113,1523240635,1.056032,0.052704,0.062464,-11.7775,3.22875,-15.02375,-29.888,-4.904,-9.6,eccentric,4,3.0,18845.0,137961.0,224107.0,275695.0,260821.0
2026-04-08 21:45:51.050436,196399,1609503923288625,1523255585,1.056032,0.052704,0.062464,-13.658751,1.25125,-11.865,-29.888,-4.904,-9.6,eccentric,4,3.0,18845.0,137961.0,224107.0,275695.0,260821.0
2026-04-08 21:45:51.080749,196400,1609503923297553,1523264257,1.126304,0.074176,0.144448,-12.17125,0.04375,-8.60125,-29.920002,-5.032,-10.128,eccentric,4,3.0,18845.0,137961.0,224107.0,275695.0,260821.0
2026-04-08 21:45:51.082994,196401,1609503923312050,1523279100,1.095072,0.121024,0.081984,-9.63375,-0.48125,-3.89375,-29.920002,-5.16,-9.448001,eccentric,4,3.0,18845.0,137961.0,224107.0,275695.0,260821.0
2026-04-08 21:45:51.087597,196402,1609503923320995,1523287792,1.095072,0.121024,0.081984,-9.80875,-1.32125,0.2275,-29.976002,-5.16,-9.448001,eccentric,4,3.0,18845.0,137961.0,224107.0,275695.0,260821.0
2026-04-08 21:45:51.092152,196403,1609503923335480,1523300661,1.091168,0.10736,-0.103456,-10.22875,-2.8,2.625,-30.072,-5.096,-8.144,eccentric,4,3.0,18845.0,137961.0,224107.0,275695.0,260821.0
2026-04-08 21:45:51.125803,196404,1609503923344661,1523311431,1.091168,0.10736,-0.103456,-7.7175,-3.82375,5.565,-30.072,-5.096,-8.144,eccentric,4,3.0,18845.0,137961.0,224107.0,275695.0,260821.0
2026-04-08 21:45:51.164664,196415,1609503923353585,1523320164,1.091168,0.05856,-0.011712,-7.0175,-3.3775,8.5925,-30.160002,-5.032,-10.208,eccentric,4,3.0,18751.0,137675.0,223811.0,275542.0,260767.0
2026-04-08 21:45:51.171466,196416,1609503923368422,1523335068,1.091168,0.05856,-0.011712,-8.86375,-4.48,10.14125,-30.160002,-5.032,-10.208,eccentric,4,3.0,18751.0,137675.0,223811.0,275542.0,260767.0
2026-04-08 21:45:51.204531,196417,1609503923377345,1523343762,1.048224,0.060512,0.089792,-11.31375,-5.24125,10.167501,-29.920002,-5.008,-9.928,eccentric,4,3.0,18751.0,137675.0,223811.0,275542.0,260767.0
2026-04-08 21:45:51.206830,196418,1609503923391825,1523358657,1.048224,0.060512,0.074176,-9.5375,-6.25625,10.57875,-29.920002,-5.008,-9.928,eccentric,4,3.0,18751.0,137675.0,223811.0,275542.0,260767.0
2026-04-08 21:45:51.211525,196419,1609503923400805,1523367346,1.001376,0.056608,0.06832,-9.09125,-7.14,9.52,-30.064001,-5.192,-10.216001,eccentric,4,3.0,18751.0,137675.0,223811.0,275542.0,260767.0
2026-04-08 21:45:51.213200,196420,1609503923409749,1523376050,1.001376,0.056608,0.06832,-10.99875,-8.86375,8.61875,-30.064001,-5.192,-10.216001,eccentric,4,3.0,18751.0,137675.0,223811.0,275542.0,260767.0
2026-04-08 21:45:51.214692,196421,1609503923424313,1523390950,0.98576,0.03904,0.070272,-12.36375,-8.96,7.9275,-29.664001,-5.024,-9.832001,eccentric,4,3.0,18751.0,137675.0,223811.0,275542.0,260767.0
2026-04-08 21:45:51.218899,196422,1609503923433245,1523399616,0.958432,0.027328,-0.01952,-11.06875,-7.9975,7.6475,-30.112001,-5.184,-10.336,eccentric,4,3.0,18751.0,137675.0,223811.0,275542.0,260767.0
2026-04-08 21:45:51.220690,196423,1609503923447711,1523414454,0.958432,0.027328,-0.01952,-10.395,-7.55125,7.41125,-30.112001,-5.184,-10.336,eccentric,4,3.0,18751.0,137675.0,223811.0,275542.0,260767.0
2026-04-08 21:45:51.248892,196434,1609503923457080,1523423161,0.913536,0.083936,0.091744,-9.24,-6.74625,7.665,-29.816002,-4.88,-9.544001,eccentric,4,3.0,18765.0,137777.0,223959.0,275729.0,260876.0
2026-04-08 21:45:51.250608,196435,1609503923466072,1523431892,0.913536,0.083936,0.091744,-10.5875,-6.51,9.7125,-29.816002,-4.88,-9.544001,eccentric,4,3.0,18765.0,137777.0,223959.0,275729.0,260876.0
2026-04-08 21:45:51.252129,196436,1609503923480603,1523446783,0.948672,0.02928,0.052704,-13.34375,-7.455,10.71,-29.744001,-4.48,-9.728001,eccentric,4,3.0,18765.0,137777.0,223959.0,275729.0,260876.0
2026-04-08 21:45:51.256289,196437,1609503923489560,1523455502,0.948672,0.02928,0.052704,-13.8425,-8.72375,11.235,-29.744001,-4.48,-9.728001,eccentric,4,3.0,18765.0,137777.0,223959.0,275729.0,260876.0
