pc_time,serial_num,sensor_ts,host_ts,ax,ay,az,gx,gy,gz,mx,my,mz,phase,rpe,weight_kg,ppg_a,ppg_b,ppg_c,ppg_d,ppg_e
2026-04-08 21:45:56.090798,197342,1609503928292129,1528258930,0.964288,-0.062464,-0.072224,-0.6475,-8.5575,1.56625,-29.480001,-0.72,-9.624001,concentric,4,3.0,18953.0,138336.0,224381.0,275856.0,260856.0
2026-04-08 21:45:56.093291,197343,1609503928301048,1528267578,0.964288,-0.062464,-0.072224,1.1725,-8.925,0.11375,-29.480001,-0.72,-9.624001,concentric,4,3.0,18953.0,138336.0,224381.0,275856.0,260856.0
2026-04-08 21:45:56.095850,197344,1609503928315583,1528282501,0.989664,-0.064416,0.093696,-2.3975,-10.73625,-1.1375,-29.264002,-0.464,-9.816001,concentric,4,3.0,18953.0,138336.0,224381.0,275856.0,260856.0
2026-04-08 21:45:56.098439,197345,1609503928324519,1528291224,0.989664,-0.103456,0.122976,-6.71125,-13.125,-2.56375,-29.264002,-0.464,-9.816001,concentric,4,3.0,18953.0,138336.0,224381.0,275856.0,260856.0
2026-04-08 21:45:56.100812,197346,1609503928339022,1528306106,1.050176,-0.103456,0.122976,-7.5775,-15.35625,-5.075,-29.208002,-0.392,-11.088,concentric,4,3.0,18953.0,138336.0,224381.0,275856.0,260856.0
2026-04-08 21:45:56.108537,197347,1609503928347955,1528314810,1.061888,-0.113216,-0.01952,-4.69875,-16.1,-7.16625,-29.128002,-0.48,-9.368,concentric,4,3.0,18953.0,138336.0,224381.0,275856.0,260856.0
2026-04-08 21:45:56.138644,197348,1609503928356901,1528323509,1.061888,-0.113216,-0.01952,1.225,-17.54375,-8.8725,-29.128002,-0.48,-9.368,concentric,4,3.0,18953.0,138336.0,224381.0,275856.0,260856.0
2026-04-08 21:45:56.142228,197349,1609503928371367,1528338415,0.993568,-0.054656,-0.095648,4.52375,-17.80625,-10.3425,-28.592001,-0.368,-10.424001,concentric,4,3.0,18953.0,138336.0,224381.0,275856.0,260856.0
2026-04-08 21:45:56.169614,197360,1609503928380278,1528347121,0.993568,-0.054656,-0.095648,6.37875,-17.0975,-11.585,-28.592001,-0.368,-10.424001,concentric,4,3.0,19039.0,138379.0,224235.0,275531.0,260510.0
2026-04-08 21:45:56.172094,197361,1609503928395337,1528362053,1.048224,-0.10736,-0.033184,3.185,-18.1825,-13.62375,-28.28,-0.696,-11.280001,concentric,4,3.0,19039.0,138379.0,224235.0,275531.0,260510.0
2026-04-08 21:45:56.174618,197362,1609503928404335,1528370754,1.048224,-0.10736,-0.033184,-2.70375,-19.52125,-17.07125,-28.28,-0.696,-11.280001,concentric,4,3.0,19039.0,138379.0,224235.0,275531.0,260510.0
2026-04-08 21:45:56.177118,197363,1609503928413330,1528379525,1.08336,-0.144448,0.081984,-4.20875,-20.5275,-20.51875,-28.160002,-0.76,-10.936001,concentric,4,3.0,19039.0,138379.0,224235.0,275531.0,260510.0
2026-04-08 21:45:56.207328,197364,1609503928427850,1528394450,0.981856,-0.11712,-0.046848,-5.11875,-21.4725,-23.975,-28.176,-0.696,-10.792001,concentric,4,3.0,19039.0,138379.0,224235.0,275531.0,260510.0
2026-04-08 21:45:56.211145,197365,1609503928436786,1528403121,0.981856,-0.11712,-0.046848,-3.38625,-21.35875,-27.50125,-28.176,-0.696,-10.792001,concentric,4,3.0,19039.0,138379.0,224235.0,275531.0,260510.0
2026-04-08 21:45:56.217181,197366,1609503928451266,1528417973,1.007232,-0.13664,0.01952,-0.3325,-21.67375,-30.33625,-27.336,-0.808,-12.088,concentric,4,3.0,19039.0,138379.0,224235.0,275531.0,260510.0
2026-04-08 21:45:56.219572,197367,1609503928460210,1528426657,1.007232,-0.13664,0.01952,0.02625,-22.68,-33.5825,-27.336,-0.808,-12.088,concentric,4,3.0,19039.0,138379.0,224235.0,275531.0,260510.0
2026-04-08 21:45:56.249825,197368,1609503928474677,1528441541,0.98576,-0.158112,0.007808,0.2275,-24.4125,-37.75625,-27.424002,-0.808,-10.824,concentric,4,3.0,19039.0,138379.0,224235.0,275531.0,260510.0
2026-04-08 21:45:56.314673,197379,1609503928484180,1528450710,0.98576,-0.158112,0.007808,2.0825,-25.78625,-41.50125,-27.424002,-0.808,-10.824,concentric,4,3.0,19126.0,138459.0,224096.0,275203.0,260190.0
2026-04-08 21:45:56.317184,197380,1609503928493107,1528459382,1.011136,-0.167872,-0.02928,2.6425,-27.5625,-44.345,-27.008001,-1.552,-15.032001,concentric,4,3.0,19126.0,138459.0,224096.0,275203.0,260190.0
2026-04-08 21:45:56.319588,197381,1609503928507611,1528474368,1.036512,-0.189344,-0.052704,4.3925,-28.8925,-47.39875,-26.784,-1.552,-13.384001,concentric,4,3.0,19126.0,138459.0,224096.0,275203.0,260190.0
2026-04-08 21:45:56.322147,197382,1609503928516663,1528483080,1.036512,-0.189344,-0.052704,6.76375,-28.7525,-50.295002,-26.784,-1.552,-13.384001,concentric,4,3.0,19126.0,138459.0,224096.0,275203.0,260190.0
2026-04-08 21:45:56.324598,197383,1609503928531158,1528497962,1.016992,-0.134688,0.050752,6.9125,-29.25125,-51.58125,-26.208002,-1.984,-13.696001,concentric,4,3.0,19126.0,138459.0,224096.0,275203.0,260190.0
2026-04-08 21:45:56.327159,197384,1609503928540056,1528506628,1.016992,-0.134688,0.050752,5.9325,-30.72125,-53.68125,-26.208002,-1.984,-13.696001,concentric,4,3.0,19126.0,138459.0,224096.0,275203.0,260190.0
2026-04-08 21:45:56.329645,197385,1609503928548953,1528515277,1.08336,-0.16592,0.013664,6.58875,-31.57875,-54.43375,-26.032001,-2.352,-14.200001,concentric,4,3.0,19126.0,138459.0,224096.0,275203.0,260190.0
2026-04-08 21:45:56.332266,197386,1609503928563623,1528530276,1.08336,-0.16592,0.013664,6.95625,-31.692501,-54.285,-26.032001,-2.352,-14.200001,concentric,4,3.0,19126.0,138459.0,224096.0,275203.0,260190.0
2026-04-08 21:45:56.334704,197387,1609503928572569,1528538992,1.0248,-0.138592,0.056608,6.9475,-31.535,-54.48625,-25.528002,-2.232,-14.712001,concentric,4,3.0,19126.0,138459.0,224096.0,275203.0,260190.0
2026-04-08 21:45:56.370924,197398,1609503928587136,1528554000,1.067744,-0.160064,0.089792,6.36125,-31.0975,-55.947502,-25.464,-2.576,-13.888001,concentric,4,3.0,19271.0,138851.0,224427.0,275309.0,260156.0
2026-04-08 21:45:56.373401,197399,1609503928596077,1528562746,1.067744,-0.160064,0.089792,6.93,-31.26375,-56.9625,-25.464,-2.576,-13.888001,concentric,4,3.0,19271.0,138851.0,224427.0,275309.0,260156.0
2026-04-08 21:45:56.378388,197400,1609503928610570,1528577729,1.071648,-0.11712,-0.050752,8.435,-32.29625,-57.42625,-24.776001,-3.048,-14.968,concentric,4,3.0,19271.0,138851.0,224427.0,275309.0,260156.0
2026-04-08 21:45:56.380809,197401,1609503928619536,1528586452,1.071648,-0.11712,-0.050752,10.26375,-33.04,-56.72625,-24.776001,-3.048,-14.968,concentric,4,3.0,19271.0,138851.0,224427.0,275309.0,260156.0
2026-04-08 21:45:56.387120,197402,1609503928628472,1528595195,1.00528,-0.11712,0.013664,12.425,-32.43625,-55.01125,-24.352001,-3.024,-11.296001,concentric,4,3.0,19271.0,138851.0,224427.0,275309.0,260156.0
2026-04-08 21:45:56.419812,197403,1609503928642956,1528610108,1.00528,-0.11712,0.013664,12.94125,-32.83,-53.17375,-24.352001,-3.024,-11.296001,concentric,4,3.0,19271.0,138851.0,224427.0,275309.0,260156.0
2026-04-08 21:45:56.423375,197404,1609503928651847,1528618773,0.977952,-0.162016,-0.064416,12.71375,-34.5275,-53.68125,-23.472002,-3.312,-15.800001,concentric,4,3.0,19271.0,138851.0,224427.0,275309.0,260156.0
2026-04-08 21:45:56.425896,197405,1609503928666325,1528631583,0.977952,-0.162016,-0.064416,12.85375,-34.79875,-55.34375,-23.472002,-3.312,-15.800001,concentric,4,3.0,19271.0,138851.0,224427.0,275309.0,260156.0
2026-04-08 21:45:56.456128,197406,1609503928675581,1528642395,1.016992,-0.138592,-0.10736,12.60875,-35.00875,-55.5275,-23.496,-3.76,-16.168001,concentric,4,3.0,19271.0,138851.0,224427.0,275309.0,260156.0
2026-04-08 21:45:56.484571,197417,1609503928690183,1528657297,0.987712,-0.076128,-0.150304,10.36,-34.107502,-54.4425,-22.776001,-3.928,-16.088001,concentric,4,3.0,19348.0,139100.0,224625.0,275401.0,260191.0
2026-04-08 21:45:56.487053,197418,1609503928699082,1528665953,0.987712,-0.076128,-0.150304,8.085,-33.36375,-53.83875,-22.776001,-3.928,-16.088001,concentric,4,3.0,19348.0,139100.0,224625.0,275401.0,260191.0
2026-04-08 21:45:56.489544,197419,1609503928708044,1528674625,0.970144,-0.119072,-0.081984,6.37,-31.85,-52.45625,-22.648,-4.072,-15.448001,concentric,4,3.0,19348.0,139100.0,224625.0,275401.0,260191.0
2026-04-08 21:45:56.492061,197420,1609503928722571,1528689498,0.970144,-0.119072,-0.081984,3.5175,-30.89625,-50.61,-22.648,-4.072,-15.448001,concentric,4,3.0,19348.0,139100.0,224625.0,275401.0,260191.0
2026-04-08 21:45:56.494616,197421,1609503928731491,1528698162,0.89792,-0.142496,-0.128832,4.4625,-31.2375,-49.245,-22.12,-4.024,-15.936001,concentric,4,3.0,19348.0,139100.0,224625.0,275401.0,260191.0
2026-04-08 21:45:56.524883,197422,1609503928746033,1528713063,0.89792,-0.142496,-0.128832,6.055,-31.84125,-48.41375,-22.12,-4.024,-15.936001,concentric,4,3.0,19348.0,139100.0,224625.0,275401.0,260191.0
2026-04-08 21:45:56.528386,197423,1609503928754952,1528721723,0.948672,-0.103456,-0.007808,6.4925,-31.325,-47.985,-22.008001,-4.216,-17.816,concentric,4,3.0,19348.0,139100.0,224625.0,275401.0,260191.0
2026-04-08 21:45:56.530876,197424,1609503928769460,1528736597,0.950624,-0.07808,-0.111264,9.40625,-29.54,-46.90875,-21.28,-4.168,-17.800001,concentric,4,3.0,19348.0,139100.0,224625.0,275401.0,260191.0
2026-04-08 21:45:56.537130,197425,1609503928778422,1528745297,0.950624,-0.07808,-0.111264,10.3425,-26.83625,-44.31,-21.28,-4.168,-17.800001,concentric,4,3.0,19348.0,139100.0,224625.0,275401.0,260191.0
2026-04-08 21:45:56.567190,197436,1609503928787487,1528754306,0.950624,-0.07808,-0.111264,8.8375,-23.94,-40.915,-21.28,-4.168,-17.800001,concentric,4,3.0,19512.0,139508.0,224903.0,275533.0,260205.0
2026-04-08 21:45:56.569646,197437,1609503928802040,1528767211,0.93696,-0.025376,-0.113216,6.97375,-21.02625,-37.33625,-20.832,-4.8,-16.720001,concentric,4,3.0,19512.0,139508.0,224903.0,275533.0,260205.0
2026-04-08 21:45:56.604845,197438,1609503928811197,1528777941,1.03456,-0.099552,-0.122976,4.55875,-16.94875,-32.795002,-20.896002,-4.232,-15.400001,concentric,4,3.0,19512.0,139508.0,224903.0,275533.0,260205.0
2026-04-08 21:45:56.608393,197439,1609503928825689,1528792831,1.03456,-0.099552,-0.122976,-2.87,-13.79875,-28.95375,-20.896002,-4.232,-15.400001,concentric,4,3.0,19512.0,139508.0,224903.0,275533.0,260205.0
2026-04-08 21:45:56.610969,197440,1609503928834608,1528801483,0.972096,-0.101504,-0.193248,-12.92375,-12.075,-28.2275,-20.696001,-4.584,-17.824001,concentric,4,3.0,19512.0,139508.0,224903.0,275533.0,260205.0
2026-04-08 21:45:56.613400,197441,1609503928843514,1528810158,0.972096,-0.101504,-0.193248,-15.26875,-10.24625,-29.1725,-20.696001,-4.584,-17.824001,concentric,4,3.0,19512.0,139508.0,224903.0,275533.0,260205.0
2026-04-08 21:45:56.619262,197442,1609503928858040,1528825021,0.91744,-0.101504,-0.103456,-9.5025,-9.4675,-26.495,-20.288,-4.36,-18.096,concentric,4,3.0,19512.0,139508.0,224903.0,275533.0,260205.0
2026-04-08 21:45:56.648764,197443,1609503928867027,1528833709,0.91744,-0.101504,-0.103456,-3.08875,-10.535,-22.715,-20.288,-4.36,-18.096,concentric,4,3.0,19512.0,139508.0,224903.0,275533.0,260205.0
2026-04-08 21:45:56.680870,197454,1609503928881486,1528848528,0.894016,-0.037088,-0.10736,1.54,-11.9525,-21.88375,-19.952002,-4.776,-17.792002,concentric,4,3.0,19646.0,139978.0,225360.0,275832.0,260375.0
2026-04-08 21:45:56.683384,197455,1609503928890420,1528857193,0.993568,0.001952,-0.167872,5.01375,-12.52125,-20.5625,-19.768002,-4.704,-19.792002,concentric,4,3.0,19646.0,139978.0,225360.0,275832.0,260375.0
2026-04-08 21:45:56.685882,197456,1609503928904909,1528870109,0.993568,0.001952,-0.167872,2.275,-10.89375,-17.82375,-19.768002,-4.704,-19.792002,concentric,4,3.0,19646.0,139978.0,225360.0,275832.0,260375.0
2026-04-08 21:45:56.688371,197457,1609503928914289,1528880874,0.892064,0.027328,-0.249856,-1.9075,-8.47875,-16.66875,-19.528002,-4.48,-17.336,concentric,4,3.0,19646.0,139978.0,225360.0,275832.0,260375.0
2026-04-08 21:45:56.690848,197458,1609503928923343,1528889582,0.892064,0.027328,-0.249856,-6.44875,-5.85375,-14.63875,-19.528002,-4.48,-17.336,concentric,4,3.0,19646.0,139978.0,225360.0,275832.0,260375.0
2026-04-08 21:45:56.695913,197459,1609503928937895,1528904533,0.935008,-0.003904,-0.011712,-12.46875,-5.52125,-12.3725,-19.408,-4.392,-17.344002,concentric,4,3.0,19646.0,139978.0,225360.0,275832.0,260375.0
2026-04-08 21:45:56.726180,197460,1609503928947007,1528913234,0.935008,-0.003904,-0.011712,-14.41125,-7.69125,-11.22625,-19.408,-4.392,-17.344002,concentric,4,3.0,19646.0,139978.0,225360.0,275832.0,260375.0
2026-04-08 21:45:56.729663,197461,1609503928961477,1528928085,0.880352,0.037088,-0.081984,-10.4475,-10.7275,-11.4275,-19.248001,-4.504,-16.336,concentric,4,3.0,19646.0,139978.0,225360.0,275832.0,260375.0
2026-04-08 21:45:56.732118,197462,1609503928970388,1528936779,0.884256,0.062464,-0.203008,-1.89,-11.865,-11.0775,-19.024,-4.272,-19.712002,concentric,4,3.0,19646.0,139978.0,225360.0,275832.0,260375.0
2026-04-08 21:45:56.759750,197463,1609503928979317,1528945441,0.884256,0.062464,-0.203008,2.835,-11.73375,-10.35125,-19.024,-4.272,-19.712002,concentric,4,3.0,19646.0,139978.0,225360.0,275832.0,260375.0
2026-04-08 21:45:56.787106,197474,1609503928993890,1528960365,0.935008,0.040992,-0.162016,-2.23125,-11.41,-9.345,-18.816,-4.64,-18.36,concentric,4,3.0,19695.0,140239.0,225598.0,275979.0,260461.0
2026-04-08 21:45:56.789737,197475,1609503929002772,1528969003,0.935008,0.040992,-0.162016,-10.45625,-12.0575,-10.325,-18.816,-4.64,-18.36,concentric,4,3.0,19695.0,140239.0,225598.0,275979.0,260461.0
2026-04-08 21:45:56.792181,197476,1609503929017288,1528983928,0.950624,0.013664,-0.30256,-15.33,-13.86,-10.823751,-18.808,-4.576,-18.832,concentric,4,3.0,19695.0,140239.0,225598.0,275979.0,260461.0
2026-04-08 21:45:56.794991,197477,1609503929026350,1528992623,0.950624,0.013664,-0.30256,-14.04375,-15.18125,-10.57875,-18.808,-4.576,-18.832,concentric,4,3.0,19695.0,140239.0,225598.0,275979.0,260461.0
2026-04-08 21:45:56.799634,197478,1609503929040851,1529007638,0.9272,0.103456,-0.16592,-3.7975,-12.495,-10.31625,-18.2,-4.544,-18.632,concentric,4,3.0,19695.0,140239.0,225598.0,275979.0,260461.0
2026-04-08 21:45:56.831758,197479,1609503929049769,1529016307,0.911584,0.095648,-0.208864,10.21125,-8.505,-7.9625,-18.2,-4.544,-19.264002,concentric,4,3.0,19695.0,140239.0,225598.0,275979.0,260461.0
2026-04-08 21:45:56.833708,197480,1609503929058697,1529024958,0.91744,0.095648,-0.208864,17.08,-4.75125,-5.6,-18.312,-4.288,-19.264002,concentric,4,3.0,19695.0,140239.0,225598.0,275979.0,260461.0
2026-04-08 21:45:56.835841,197481,1609503929073165,1529039815,0.806176,0.0976,-0.0976,5.71375,-4.17375,-7.63,-18.032001,-4.192,-18.816,concentric,4,3.0,19695.0,140239.0,225598.0,275979.0,260461.0
2026-04-08 21:45:56.840843,197482,1609503929082106,1529048524,0.806176,0.0976,-0.0976,-13.1775,-3.9025,-12.67,-18.032001,-4.192,-18.816,concentric,4,3.0,19695.0,140239.0,225598.0,275979.0,260461.0
2026-04-08 21:45:56.868337,197493,1609503929096646,1529063515,0.815936,0.050752,-0.255712,-20.825,-5.06625,-15.3475,-18.096,-4.072,-18.168001,concentric,4,3.0,20174.0,141107.0,225812.0,275681.0,259939.0
2026-04-08 21:45:56.870823,197494,1609503929105621,1529072228,0.815936,0.050752,-0.255712,-21.035,-5.67875,-15.88125,-18.096,-4.072,-18.168001,concentric,4,3.0,20174.0,141107.0,225812.0,275681.0,259939.0
2026-04-08 21:45:56.906115,197495,1609503929120136,1529087172,0.778848,0.122976,-0.122976,-12.55625,-3.255,-18.025,-17.84,-4.4,-18.896002,concentric,4,3.0,20174.0,141107.0,225812.0,275681.0,259939.0
2026-04-08 21:45:56.910723,197496,1609503929129157,1529095857,0.778848,0.122976,-0.122976,1.16375,1.1025,-17.3775,-17.84,-4.4,-18.896002,concentric,4,3.0,20174.0,141107.0,225812.0,275681.0,259939.0
2026-04-08 21:45:56.913591,197497,1609503929138096,1529104526,0.650016,0.056608,-0.249856,2.905,3.63125,-13.93,-17.560001,-4.296,-19.328001,concentric,4,3.0,20174.0,141107.0,225812.0,275681.0,259939.0
2026-04-08 21:45:56.914707,197498,1609503929152564,1529119368,0.730048,0.035136,-0.054656,-8.70625,2.17,-16.51125,-17.448,-4.656,-18.992,concentric,4,3.0,20174.0,141107.0,225812.0,275681.0,259939.0
2026-04-08 21:45:56.920893,197499,1609503929161490,1529128031,0.730048,0.035136,-0.054656,-23.135,-1.925,-25.1825,-17.448,-4.656,-18.992,concentric,4,3.0,20174.0,141107.0,225812.0,275681.0,259939.0
2026-04-08 21:45:56.953829,197500,1609503929175965,1529142923,0.732,0.144448,-0.21472,-23.72125,-3.98125,-31.8325,-17.376001,-4.632,-19.016,concentric,4,3.0,20174.0,141107.0,225812.0,275681.0,259939.0
2026-04-08 21:45:56.981427,197511,1609503929185195,1529151653,0.732,0.144448,-0.21472,-9.905,-0.8225,-28.665,-17.376001,-4.632,-19.016,concentric,4,3.0,19987.0,140897.0,225889.0,276150.0,260551.0
2026-04-08 21:45:56.983152,197512,1609503929194285,1529160477,0.61488,0.187392,-0.091744,6.30875,2.555,-21.8925,-17.568,-4.808,-18.696001,concentric,4,3.0,19987.0,140897.0,225889.0,276150.0,260551.0
2026-04-08 21:45:56.984665,197513,1609503929208832,1529175373,0.61488,0.187392,-0.091744,9.765,3.08875,-18.94375,-17.568,-4.808,-18.696001,concentric,4,3.0,19987.0,140897.0,225889.0,276150.0,260551.0
2026-04-08 21:45:56.988748,197514,1609503929217809,1529184055,0.632448,0.042944,-0.179584,-6.02,-1.645,-23.7125,-17.328001,-4.384,-17.912,concentric,4,3.0,19987.0,140897.0,225889.0,276150.0,260551.0
2026-04-08 21:45:56.994628,197515,1609503929232344,1529198946,0.659776,0.066368,-0.281088,-23.2575,-4.24375,-32.83875,-17.096,-4.704,-17.560001,concentric,4,3.0,19987.0,140897.0,225889.0,276150.0,260551.0
2026-04-08 21:45:57.022475,197516,1609503929241251,1529207592,0.659776,0.066368,-0.281088,-20.991251,-6.48375,-33.985,-17.096,-4.704,-17.560001,concentric,4,3.0,19987.0,140897.0,225889.0,276150.0,260551.0
2026-04-08 21:45:57.026748,197517,1609503929255755,1529222528,0.655872,0.181536,-0.167872,-8.02375,-6.965,-27.62375,-17.112001,-5.24,-18.712002,concentric,4,3.0,19987.0,140897.0,225889.0,276150.0,260551.0
2026-04-08 21:45:57.032202,197518,1609503929264644,1529231194,0.655872,0.181536,-0.167872,5.635,-5.46,-23.66875,-17.112001,-5.24,-18.712002,concentric,4,3.0,19987.0,140897.0,225889.0,276150.0,260551.0
2026-04-08 21:45:57.034661,197519,1609503929273554,1529239843,0.589504,0.134688,-0.25376,9.2575,-3.10625,-23.38875,-16.960001,-5.032,-18.096,concentric,4,3.0,19987.0,140897.0,225889.0,276150.0,260551.0
2026-04-08 21:45:57.090795,197530,1609503929288675,1529254955,0.589504,0.134688,-0.25376,1.16375,-0.105,-24.0975,-16.960001,-5.032,-18.096,concentric,4,3.0,19723.0,140474.0,225754.0,276350.0,260929.0
2026-04-08 21:45:57.093349,197531,1609503929297620,1529263609,0.616832,0.105408,-0.08784,-7.28,0.0175,-25.4975,-16.728,-5.816001,-18.92,concentric,4,3.0,19723.0,140474.0,225754.0,276350.0,260929.0
2026-04-08 21:45:57.095865,197532,1609503929312090,1529278462,0.667584,0.124928,-0.001952,-12.4425,-2.14375,-24.92,-16.816,-5.488,-20.736,concentric,4,3.0,19723.0,140474.0,225754.0,276350.0,260929.0
2026-04-08 21:45:57.098366,197533,1609503929321023,1529287145,0.667584,0.124928,-0.001952,-8.95125,-4.9525,-22.6275,-16.816,-5.488,-20.736,concentric,4,3.0,19723.0,140474.0,225754.0,276350.0,260929.0
2026-04-08 21:45:57.100866,197534,1609503929330093,1529295903,0.667584,0.124928,-0.001952,1.68875,-7.56,-19.10125,-16.816,-5.488,-20.736,concentric,4,3.0,19723.0,140474.0,225754.0,276350.0,260929.0
2026-04-08 21:45:57.103364,197535,1609503929344620,1529310796,0.665632,0.093696,-0.277184,8.54875,-7.13125,-16.12625,-16.76,-5.384,-19.504002,concentric,4,3.0,19723.0,140474.0,225754.0,276350.0,260929.0
2026-04-08 21:45:57.134889,197536,1609503929353549,1529319453,0.77104,0.089792,-0.021472,7.8925,-5.39875,-14.980001,-16.656,-5.008,-16.024,concentric,4,3.0,19723.0,140474.0,225754.0,276350.0,260929.0
2026-04-08 21:45:57.138456,197537,1609503929368025,1529334292,0.77104,0.089792,-0.021472,2.3975,-3.26375,-14.595,-16.656,-5.008,-16.024,concentric,4,3.0,19723.0,140474.0,225754.0,276350.0,260929.0
2026-04-08 21:45:57.140908,197538,1609503929376963,1529342972,0.763232,0.072224,-0.16592,0.035,-2.68625,-13.658751,-16.832,-5.712,-18.968,concentric,4,3.0,19723.0,140474.0,225754.0,276350.0,260929.0
2026-04-08 21:45:57.168362,197549,1609503929391587,1529357874,0.763232,0.072224,-0.16592,3.045,-2.275,-11.68125,-16.832,-5.712,-18.968,concentric,4,3.0,19751.0,140777.0,226334.0,276855.0,261279.0
2026-04-08 21:45:57.170828,197550,1609503929400558,1529366677,0.75152,0.101504,-0.167872,10.5525,-1.3825,-7.98875,-17.0,-5.296001,-20.720001,eccentric,4,3.0,19751.0,140777.0,226334.0,276855.0,261279.0
2026-04-08 21:45:57.207355,197551,1609503929409556,1529375415,0.75152,0.101504,-0.167872,14.805,-0.7175,-3.08875,-17.0,-5.296001,-20.720001,eccentric,4,3.0,19751.0,140777.0,226334.0,276855.0,261279.0
2026-04-08 21:45:57.210866,197552,1609503929424072,1529390341,0.704672,0.11712,-0.296704,11.6375,0.6475,-0.6125,-16.944,-5.336,-18.056002,eccentric,4,3.0,19751.0,140777.0,226334.0,276855.0,261279.0
2026-04-08 21:45:57.213456,197553,1609503929432966,1529399011,0.696864,0.130784,-0.160064,4.75125,2.6775,-0.77875,-16.720001,-5.456,-20.216002,eccentric,4,3.0,19751.0,140777.0,226334.0,276855.0,261279.0
2026-04-08 21:45:57.215855,197554,1609503929447419,1529413859,0.696864,0.130784,-0.160064,0.49,4.38375,1.79375,-16.720001,-5.456,-20.216002,eccentric,4,3.0,19751.0,140777.0,226334.0,276855.0,261279.0
2026-04-08 21:45:57.218367,197555,1609503929456346,1529422530,0.808128,0.11712,-0.07808,2.10875,5.8625,6.51875,-16.76,-5.416,-18.824001,eccentric,4,3.0,19751.0,140777.0,226334.0,276855.0,261279.0
2026-04-08 21:45:57.251134,197556,1609503929470778,1529437367,0.808128,0.11712,-0.07808,3.395,6.93,10.0975,-16.76,-5.416,-18.824001,eccentric,4,3.0,19751.0,140777.0,226334.0,276855.0,261279.0
2026-04-08 21:45:57.254646,197557,1609503929479709,1529446046,0.792512,0.113216,-0.042944,3.29875,8.16375,11.375,-17.112001,-5.232,-19.528002,eccentric,4,3.0,19751.0,140777.0,226334.0,276855.0,261279.0
2026-04-08 21:45:57.287615,197568,1609503929488730,1529454758,0.792512,0.113216,-0.042944,3.3775,8.77625,13.79,-17.112001,-5.232,-19.528002,eccentric,4,3.0,19692.0,140713.0,226352.0,276927.0,261352.0
2026-04-08 21:45:57.289353,197569,1609503929503313,1529469666,0.80032,0.095648,-0.021472,2.91375,8.04125,17.54375,-17.496,-5.04,-19.064001,eccentric,4,3.0,19692.0,140713.0,226352.0,276927.0,261352.0
2026-04-08 21:45:57.291804,197570,1609503929512231,1529478327,0.80032,0.095648,-0.021472,3.22,8.33875,18.515,-17.496,-5.04,-19.064001,eccentric,4,3.0,19692.0,140713.0,226352.0,276927.0,261352.0
2026-04-08 21:45:57.293333,197571,1609503929526746,1529493271,0.792512,0.044896,-0.21472,3.675,8.645,19.31125,-17.432001,-4.824,-17.240002,eccentric,4,3.0,19692.0,140713.0,226352.0,276927.0,261352.0
2026-04-08 21:45:57.297479,197572,1609503929535675,1529501966,0.831552,0.0976,-0.085888,5.285,9.19625,21.210001,-17.688002,-5.032,-18.376001,eccentric,4,3.0,19692.0,140713.0,226352.0,276927.0,261352.0
2026-04-08 21:45:57.326055,197573,1609503929550232,1529516831,0.831552,0.0976,-0.085888,8.25125,11.43625,22.39125,-17.688002,-5.032,-18.376001,eccentric,4,3.0,19692.0,140713.0,226352.0,276927.0,261352.0
2026-04-08 21:45:57.330598,197574,1609503929559159,1529525499,0.823744,0.06832,-0.265472,8.84625,13.46625,23.66875,-17.984001,-4.92,-18.616001,eccentric,4,3.0,19692.0,140713.0,226352.0,276927.0,261352.0
2026-04-08 21:45:57.332932,197575,1609503929568075,1529534182,0.823744,0.06832,-0.265472,6.69375,15.2775,25.3925,-17.984001,-4.92,-18.616001,eccentric,4,3.0,19692.0,140713.0,226352.0,276927.0,261352.0
2026-04-08 21:45:57.363285,197576,1609503929582519,1529549089,0.837408,0.066368,-0.052704,2.33625,17.38625,25.97,-17.832,-4.848,-18.328001,eccentric,4,3.0,19692.0,140713.0,226352.0,276927.0,261352.0
2026-04-08 21:45:57.391979,197587,1609503929591632,1529557816,0.837408,0.066368,-0.052704,-0.035,19.59125,25.89125,-17.832,-4.848,-18.328001,eccentric,4,3.0,19579.0,140426.0,226135.0,276811.0,261297.0
2026-04-08 21:45:57.393736,197588,1609503929606133,1529572711,0.730048,0.060512,-0.191296,-0.00875,20.0025,27.23,-18.168001,-4.584,-20.720001,eccentric,4,3.0,19579.0,140426.0,226135.0,276811.0,261297.0
2026-04-08 21:45:57.397659,197589,1609503929615089,1529581426,0.899872,0.021472,-0.066368,1.5575,17.815,29.5575,-18.384,-4.568,-18.776001,eccentric,4,3.0,19579.0,140426.0,226135.0,276811.0,261297.0
2026-04-08 21:45:57.399352,197590,1609503929629738,1529596442,0.899872,0.021472,-0.066368,2.89625,14.84,29.785,-18.384,-4.568,-18.776001,eccentric,4,3.0,19579.0,140426.0,226135.0,276811.0,261297.0
2026-04-08 21:45:57.400892,197591,1609503929638659,1529605159,0.899872,0.023424,-0.183488,8.09375,13.02875,28.665,-18.784,-4.376,-17.312,eccentric,4,3.0,19579.0,140426.0,226135.0,276811.0,261297.0
2026-04-08 21:45:57.408744,197592,1609503929647595,1529613867,0.899872,0.023424,-0.183488,16.80875,14.35,28.95375,-18.784,-4.376,-17.312,eccentric,4,3.0,19579.0,140426.0,226135.0,276811.0,261297.0
2026-04-08 21:45:57.439509,197593,1609503929662055,1529628721,0.915488,0.046848,-0.111264,20.9475,15.58375,31.9375,-19.304,-3.96,-17.736,eccentric,4,3.0,19579.0,140426.0,226135.0,276811.0,261297.0
2026-04-08 21:45:57.440935,197594,1609503929671062,1529637431,0.915488,0.046848,-0.111264,17.815,16.8175,33.565,-19.304,-3.96,-17.736,eccentric,4,3.0,19579.0,140426.0,226135.0,276811.0,261297.0
2026-04-08 21:45:57.509629,197605,1609503929685521,1529652736,0.938912,0.046848,-0.11712,10.7275,19.15375,32.89125,-19.408,-4.0,-18.072,eccentric,4,3.0,19829.0,141195.0,226959.0,277260.0,261423.0
2026-04-08 21:45:57.511806,197606,1609503929694509,1529661473,0.903776,0.054656,-0.035136,1.82,21.6825,32.64625,-19.792002,-4.0,-15.320001,eccentric,4,3.0,19829.0,141195.0,226959.0,277260.0,261423.0
2026-04-08 21:45:57.516400,197607,1609503929709117,1529674373,0.903776,0.054656,-0.035136,-4.50625,24.36875,33.915,-19.792002,-4.0,-15.320001,eccentric,4,3.0,19829.0,141195.0,226959.0,277260.0,261423.0
2026-04-08 21:45:57.518113,197608,1609503929718359,1529685168,0.882304,0.025376,0.015616,-7.245,26.2325,36.16375,-20.064001,-3.464,-15.544001,eccentric,4,3.0,19829.0,141195.0,226959.0,277260.0,261423.0
2026-04-08 21:45:57.519852,197609,1609503929727288,1529693837,0.882304,0.025376,0.015616,-9.33625,28.18375,36.67125,-20.064001,-3.464,-15.544001,eccentric,4,3.0,19829.0,141195.0,226959.0,277260.0,261423.0
2026-04-08 21:45:57.523881,197610,1609503929741763,1529708782,0.931104,-0.0488,0.042944,-7.595,28.7175,34.7025,-20.024,-3.496,-15.016001,eccentric,4,3.0,19829.0,141195.0,226959.0,277260.0,261423.0
2026-04-08 21:45:57.525626,197611,1609503929750674,1529717434,0.931104,-0.0488,0.042944,-4.52375,28.875,34.55375,-20.024,-3.496,-15.016001,eccentric,4,3.0,19829.0,141195.0,226959.0,277260.0,261423.0
2026-04-08 21:45:57.527178,197612,1609503929765218,1529732335,0.938912,-0.056608,-0.072224,-4.87375,28.44625,36.26875,-20.856,-3.384,-17.112001,eccentric,4,3.0,19829.0,141195.0,226959.0,277260.0,261423.0
2026-04-08 21:45:57.559499,197613,1609503929774237,1529741041,0.938912,-0.056608,-0.113216,-5.7575,28.3675,36.785,-20.856,-3.384,-17.112001,eccentric,4,3.0,19829.0,141195.0,226959.0,277260.0,261423.0
2026-04-08 21:45:57.562025,197614,1609503929783154,1529749688,0.89792,-0.0488,-0.113216,-5.145,29.09375,36.995,-20.784,-3.384,-19.704,eccentric,4,3.0,19829.0,141195.0,226959.0,277260.0,261423.0
2026-04-08 21:45:57.590131,197625,1609503929797644,1529764643,0.88816,-0.089792,-0.109312,-5.53875,30.17,40.29375,-21.424002,-3.32,-16.552,eccentric,4,3.0,19698.0,140637.0,226282.0,276815.0,261198.0
2026-04-08 21:45:57.591877,197626,1609503929806557,1529773283,0.88816,-0.089792,-0.109312,-8.855001,28.8225,42.83125,-21.424002,-3.32,-16.552,eccentric,4,3.0,19698.0,140637.0,226282.0,276815.0,261198.0
2026-04-08 21:45:57.593421,197627,1609503929821063,1529788192,0.909632,-0.10736,-0.007808,-9.77375,27.02,41.44,-21.800001,-2.528,-15.184001,eccentric,4,3.0,19698.0,140637.0,226282.0,276815.0,261198.0
2026-04-08 21:45:57.597472,197628,1609503929830084,1529796887,0.909632,-0.10736,-0.007808,-4.82125,27.5975,40.0225,-21.800001,-2.528,-15.184001,eccentric,4,3.0,19698.0,140637.0,226282.0,276815.0,261198.0
2026-04-08 21:45:57.603710,197629,1609503929844628,1529809781,0.954528,-0.144448,0.013664,2.7475,26.241251,41.37875,-22.328001,-2.776,-15.048,eccentric,4,3.0,19698.0,140637.0,226282.0,276815.0,261198.0
2026-04-08 21:45:57.633811,197630,1609503929853791,1529820542,0.954528,-0.144448,0.013664,2.485,23.66875,43.33,-22.328001,-2.776,-15.048,eccentric,4,3.0,19698.0,140637.0,226282.0,276815.0,261198.0
2026-04-08 21:45:57.636817,197631,1609503929862684,1529829191,0.880352,-0.105408,0.031232,0.8225,21.44625,42.14,-22.464,-2.744,-16.104,eccentric,4,3.0,19698.0,140637.0,226282.0,276815.0,261198.0
2026-04-08 21:45:57.638379,197632,1609503929877175,1529844053,0.921344,-0.134688,-0.023424,4.43625,21.28,42.41125,-22.784,-2.336,-15.968,eccentric,4,3.0,19698.0,140637.0,226282.0,276815.0,261198.0
2026-04-08 21:45:57.669541,197633,1609503929886118,1529852760,0.921344,-0.134688,-0.023424,7.9275,21.385,46.68125,-22.784,-2.336,-15.968,eccentric,4,3.0,19698.0,140637.0,226282.0,276815.0,261198.0
2026-04-08 21:45:57.699759,197644,1609503929900759,1529867622,0.958432,-0.17568,-0.076128,7.42875,20.65,47.67875,-23.144001,-1.696,-15.52,eccentric,4,3.0,19688.0,140551.0,226308.0,276894.0,261274.0
2026-04-08 21:45:57.703922,197645,1609503929909687,1529876275,0.958432,-0.17568,-0.076128,3.6225,21.428751,44.44125,-23.144001,-1.696,-15.52,eccentric,4,3.0,19688.0,140551.0,226308.0,276894.0,261274.0
2026-04-08 21:45:57.705625,197646,1609503929924268,1529891138,0.882304,-0.15616,-0.124928,-2.59875,22.56625,42.14,-23.168001,-1.552,-15.048,eccentric,4,3.0,19688.0,140551.0,226308.0,276894.0,261274.0
2026-04-08 21:45:57.708051,197647,1609503929933234,1529899832,0.882304,-0.15616,-0.124928,-3.9375,24.28125,41.93,-23.168001,-1.552,-15.048,eccentric,4,3.0,19688.0,140551.0,226308.0,276894.0,261274.0
2026-04-08 21:45:57.709908,197648,1609503929942180,1529908551,0.851072,-0.18544,-0.124928,-3.29875,25.03375,43.18125,-24.168001,-1.4,-12.944,eccentric,4,3.0,19688.0,140551.0,226308.0,276894.0,261274.0
2026-04-08 21:45:57.717476,197649,1609503929956720,1529923432,0.88816,-0.193248,0.052704,-7.16625,24.36875,42.9275,-24.296001,-1.136,-12.784,eccentric,4,3.0,19688.0,140551.0,226308.0,276894.0,261274.0
2026-04-08 21:45:57.746118,197650,1609503929965617,1529932085,0.88816,-0.193248,0.052704,-10.01875,22.95125,40.92375,-24.296001,-1.136,-12.784,eccentric,4,3.0,19688.0,140551.0,226308.0,276894.0,261274.0
2026-04-08 21:45:57.749795,197651,1609503929980103,1529946928,1.036512,-0.249856,-0.093696,-8.14625,21.58625,40.29375,-24.480001,-1.224,-14.392001,eccentric,4,3.0,19688.0,140551.0,226308.0,276894.0,261274.0
2026-04-08 21:45:57.814006,197662,1609503929989471,1529955649,1.036512,-0.249856,-0.093696,-9.09125,20.02,39.55,-24.480001,-1.224,-14.392001,eccentric,4,3.0,19697.0,140281.0,225887.0,276454.0,260893.0
2026-04-08 21:45:57.815637,197663,1609503929998449,1529964333,1.048224,-0.206912,0.054656,-10.00125,20.685,36.785,-25.208002,-0.984,-12.976001,eccentric,4,3.0,19697.0,140281.0,225887.0,276454.0,260893.0
2026-04-08 21:45:57.817294,197664,1609503930012950,1529979229,1.048224,-0.206912,0.054656,-4.66375,22.3125,35.04375,-25.208002,-0.984,-12.976001,eccentric,4,3.0,19697.0,140281.0,225887.0,276454.0,260893.0
2026-04-08 21:45:57.821447,197665,1609503930021919,1529987893,1.048224,-0.197152,0.06832,-0.18375,23.44125,37.68625,-25.176,-0.864,-12.784,eccentric,4,3.0,19697.0,140281.0,225887.0,276454.0,260893.0
2026-04-08 21:45:57.823133,197666,1609503930036396,1530002742,1.098976,-0.240096,0.023424,1.39125,23.7125,40.15375,-25.176,-0.864,-15.144001,eccentric,4,3.0,19697.0,140281.0,225887.0,276454.0,260893.0
2026-04-08 21:45:57.824756,197667,1609503930045325,1530011397,1.098976,-0.240096,0.023424,-2.09125,22.21625,39.80375,-25.576002,-0.88,-15.144001,eccentric,4,3.0,19697.0,140281.0,225887.0,276454.0,260893.0
2026-04-08 21:45:57.828899,197668,1609503930059813,1530026261,1.032608,-0.208864,-0.031232,-6.5275,20.9825,38.2725,-26.288002,-0.448,-13.112,eccentric,4,3.0,19697.0,140281.0,225887.0,276454.0,260893.0
2026-04-08 21:45:57.831344,197669,1609503930068789,1530034974,1.032608,-0.208864,-0.031232,-4.62,22.435,37.87,-26.288002,-0.448,-13.112,eccentric,4,3.0,19697.0,140281.0,225887.0,276454.0,260893.0
2026-04-08 21:45:57.859813,197670,1609503930077718,1530043640,1.114592,-0.206912,0.025376,-1.68,24.28125,38.52625,-25.920002,-0.152,-13.584001,eccentric,4,3.0,19697.0,140281.0,225887.0,276454.0,260893.0
2026-04-08 21:45:57.891889,197681,1609503930092829,1530058601,1.114592,-0.206912,0.025376,-2.3275,24.64875,38.01,-25.920002,-0.152,-13.584001,eccentric,4,3.0,19600.0,139876.0,225454.0,276141.0,260689.0
2026-04-08 21:45:57.893376,197682,1609503930101808,1530067316,1.03456,-0.201056,-0.11712,-4.96125,25.095,36.155,-26.392002,-0.52,-12.544001,eccentric,4,3.0,19600.0,139876.0,225454.0,276141.0,260689.0
2026-04-08 21:45:57.897626,197683,1609503930116705,1530082213,1.03456,-0.20496,-0.093696,-6.4925,25.4275,36.19875,-26.392002,-0.52,-12.544001,eccentric,4,3.0,19600.0,139876.0,225454.0,276141.0,260689.0
2026-04-08 21:45:57.900356,197684,1609503930125969,1530092945,1.08336,-0.20496,-0.093696,-7.91875,25.41875,36.6625,-27.272001,0.144,-11.168,eccentric,4,3.0,19600.0,139876.0,225454.0,276141.0,260689.0
2026-04-08 21:45:57.911471,197685,1609503930134911,1530101684,1.08336,-0.20496,-0.093696,-7.95375,25.3925,35.21875,-27.272001,0.144,-11.168,eccentric,4,3.0,19600.0,139876.0,225454.0,276141.0,260689.0
2026-04-08 21:45:57.913795,197686,1609503930149424,1530116568,1.136064,-0.206912,0.109312,-7.945,24.6225,34.02,-27.328001,0.272,-11.096001,eccentric,4,3.0,19600.0,139876.0,225454.0,276141.0,260689.0
2026-04-08 21:45:57.920001,197687,1609503930158343,1530125249,0.997472,-0.150304,-0.074176,-7.27125,24.52625,32.865,-27.648,0.4,-11.864,eccentric,4,3.0,19600.0,139876.0,225454.0,276141.0,260689.0
2026-04-08 21:45:57.949611,197688,1609503930172803,1530138054,0.997472,-0.150304,-0.074176,-6.43125,24.38625,31.78,-27.648,0.4,-11.864,eccentric,4,3.0,19600.0,139876.0,225454.0,276141.0,260689.0
2026-04-08 21:45:57.952385,197689,1609503930182074,1530148804,1.018944,-0.150304,0.033184,-6.88625,24.00125,31.7625,-27.632002,0.576,-11.192,eccentric,4,3.0,19600.0,139876.0,225454.0,276141.0,260689.0
2026-04-08 21:45:57.979685,197700,1609503930191553,1530157701,1.018944,-0.150304,0.033184,-9.73875,22.645,31.61375,-27.632002,0.576,-11.192,eccentric,4,3.0,19417.0,139209.0,224795.0,275730.0,260513.0
2026-04-08 21:45:57.983861,197701,1609503930206152,1530172607,1.089216,-0.1952,0.0488,-11.96125,21.06125,30.1525,-27.880001,0.736,-9.904,eccentric,4,3.0,19417.0,139209.0,224795.0,275730.0,260513.0
2026-04-08 21:45:57.986343,197702,1609503930215172,1530181305,1.089216,-0.1952,0.0488,-9.77375,20.29125,28.0525,-27.880001,0.736,-9.904,eccentric,4,3.0,19417.0,139209.0,224795.0,275730.0,260513.0
2026-04-08 21:45:57.989952,197703,1609503930229634,1530196225,1.059936,-0.171776,0.035136,-6.8775,19.88875,27.125,-28.056002,1.32,-9.360001,eccentric,4,3.0,19417.0,139209.0,224795.0,275730.0,260513.0
2026-04-08 21:45:58.037028,197704,1609503930238555,1530204926,1.046272,-0.103456,0.152256,-6.265,20.2825,26.4425,-28.560001,0.984,-9.936001,eccentric,4,3.0,19417.0,139209.0,224795.0,275730.0,260513.0
2026-04-08 21:45:58.039276,197705,1609503930247465,1530213574,1.046272,-0.103456,0.152256,-7.04375,19.635,26.04875,-28.560001,0.984,-9.936001,eccentric,4,3.0,19417.0,139209.0,224795.0,275730.0,260513.0
2026-04-08 21:45:58.043895,197706,1609503930261915,1530228455,1.030656,-0.132736,0.16592,-10.85875,18.865,26.10125,-28.44,1.008,-9.784,eccentric,4,3.0,19417.0,139209.0,224795.0,275730.0,260513.0
2026-04-08 21:45:58.045574,197707,1609503930270832,1530237163,1.030656,-0.132736,0.16592,-16.19625,17.42125,24.96375,-28.44,1.008,-9.784,eccentric,4,3.0,19417.0,139209.0,224795.0,275730.0,260513.0
2026-04-08 21:45:58.047171,197708,1609503930285308,1530252029,1.009184,-0.150304,0.132736,-16.94875,15.75875,24.0625,-29.096,1.296,-9.512,eccentric,4,3.0,19417.0,139209.0,224795.0,275730.0,260513.0
2026-04-08 21:45:58.114606,197719,1609503930294520,1530260793,1.009184,-0.150304,0.132736,-12.15375,15.085,23.6775,-29.096,1.296,-9.512,eccentric,4,3.0,19223.0,138610.0,224183.0,275390.0,260380.0
2026-04-08 21:45:58.116298,197720,1609503930309118,1530275697,1.061888,-0.16592,0.074176,-6.8775,14.9275,23.75625,-28.968002,1.512,-7.128,eccentric,4,3.0,19223.0,138610.0,224183.0,275390.0,260380.0
2026-04-08 21:45:58.120226,197721,1609503930318035,1530284394,1.061888,-0.134688,-0.072224,-5.0225,15.1025,22.365,-28.968002,1.512,-7.128,eccentric,4,3.0,19223.0,138610.0,224183.0,275390.0,260380.0
2026-04-08 21:45:58.121864,197722,1609503930326930,1530293045,1.016992,-0.134688,-0.072224,-6.6325,14.18375,21.4375,-28.984001,1.704,-9.032001,eccentric,4,3.0,19223.0,138610.0,224183.0,275390.0,260380.0
2026-04-08 21:45:58.123500,197723,1609503930341359,1530307936,0.964288,-0.130784,-0.111264,-9.1,13.37,20.9475,-29.28,1.64,-8.440001,eccentric,4,3.0,19223.0,138610.0,224183.0,275390.0,260380.0
2026-04-08 21:45:58.127689,197724,1609503930350263,1530316569,0.964288,-0.130784,-0.111264,-10.4475,12.04875,21.14875,-29.28,1.64,-8.440001,eccentric,4,3.0,19223.0,138610.0,224183.0,275390.0,260380.0
2026-04-08 21:45:58.129277,197725,1609503930364782,1530331468,0.999424,-0.132736,0.122976,-10.8675,11.698751,21.06125,-29.248001,1.984,-8.52,eccentric,4,3.0,19223.0,138610.0,224183.0,275390.0,260380.0
2026-04-08 21:45:58.133741,197726,1609503930373715,1530340177,0.999424,-0.132736,0.122976,-10.57,11.2875,21.04375,-29.248001,1.984,-8.52,eccentric,4,3.0,19223.0,138610.0,224183.0,275390.0,260380.0
2026-04-08 21:45:58.162328,197727,1609503930388200,1530355045,0.977952,-0.173728,0.001952,-10.78,10.395,20.01125,-29.44,1.88,-7.32,eccentric,4,3.0,19223.0,138610.0,224183.0,275390.0,260380.0
2026-04-08 21:45:58.197041,197738,1609503930397146,1530363814,0.977952,-0.173728,0.001952,-9.275,9.47625,17.7975,-29.44,1.88,-7.32,eccentric,4,3.0,19132.0,138380.0,224015.0,275366.0,260383.0
2026-04-08 21:45:58.199611,197739,1609503930406073,1530372468,0.983808,-0.191296,0.011712,-8.44375,8.05875,16.66,-29.368002,2.288,-8.728001,eccentric,4,3.0,19132.0,138380.0,224015.0,275366.0,260383.0
2026-04-08 21:45:58.202070,197740,1609503930420575,1530387424,0.997472,-0.167872,0.13664,-8.33875,5.90625,15.46125,-29.44,2.352,-7.936,eccentric,4,3.0,19132.0,138380.0,224015.0,275366.0,260383.0
2026-04-08 21:45:58.204591,197741,1609503930429547,1530396114,0.997472,-0.167872,0.13664,-7.6125,4.0075,12.97625,-29.44,2.352,-7.936,eccentric,4,3.0,19132.0,138380.0,224015.0,275366.0,260383.0
2026-04-08 21:45:58.207064,197742,1609503930444091,1530410997,0.921344,-0.173728,-0.083936,-7.7875,2.35375,11.24375,-29.624,2.4,-7.896,eccentric,4,3.0,19132.0,138380.0,224015.0,275366.0,260383.0
2026-04-08 21:45:58.212135,197743,1609503930453051,1530419773,0.921344,-0.173728,-0.083936,-6.825,2.2575,9.9225,-29.624,2.4,-7.896,eccentric,4,3.0,19132.0,138380.0,224015.0,275366.0,260383.0
2026-04-08 21:45:58.242350,197744,1609503930467566,1530434662,0.958432,-0.187392,0.007808,-7.09625,1.5575,8.8375,-29.448002,2.728,-8.168,eccentric,4,3.0,19132.0,138380.0,224015.0,275366.0,260383.0
2026-04-08 21:45:58.245868,197745,1609503930476498,1530443365,0.958432,-0.187392,0.007808,-7.77,0.58625,6.9125,-29.448002,2.728,-8.168,eccentric,4,3.0,19132.0,138380.0,224015.0,275366.0,260383.0
2026-04-08 21:45:58.248396,197746,1609503930485427,1530452030,0.884256,-0.183488,-0.0976,-7.3325,-0.2975,4.34875,-29.672,2.616,-7.888001,eccentric,4,3.0,19132.0,138380.0,224015.0,275366.0,260383.0
2026-04-08 21:45:58.278345,197757,1609503930500007,1530466962,0.874496,-0.154208,0.035136,-7.20125,-1.295,3.00125,-29.576002,2.8,-5.136,eccentric,4,3.0,19064.0,138241.0,223908.0,275260.0,260350.0
2026-04-08 21:45:58.280862,197758,1609503930508966,1530475651,0.874496,-0.154208,0.035136,-7.67375,-2.8875,0.84,-29.576002,2.8,-5.136,eccentric,4,3.0,19064.0,138241.0,223908.0,275260.0,260350.0
2026-04-08 21:45:58.283363,197759,1609503930523450,1530490563,0.91744,-0.20496,-0.115168,-7.2975,-3.22875,-0.60375,-29.720001,2.672,-7.056,eccentric,4,3.0,19064.0,138241.0,223908.0,275260.0,260350.0
2026-04-08 21:45:58.292128,197760,1609503930532423,1530499241,0.91744,-0.20496,-0.115168,-6.62375,-3.92875,-2.54625,-29.720001,2.672,-7.056,eccentric,4,3.0,19064.0,138241.0,223908.0,275260.0,260350.0
2026-04-08 21:45:58.322355,197761,1609503930546936,1530512111,0.970144,-0.16592,0.035136,-6.95625,-4.27,-4.3925,-29.352001,2.888,-9.152,eccentric,4,3.0,19064.0,138241.0,223908.0,275260.0,260350.0
2026-04-08 21:45:58.325881,197762,1609503930556089,1530522840,0.970144,-0.16592,0.035136,-8.47,-4.34875,-4.8475,-29.352001,2.888,-9.152,eccentric,4,3.0,19064.0,138241.0,223908.0,275260.0,260350.0
2026-04-08 21:45:58.328413,197763,1609503930564992,1530531516,0.872544,-0.152256,-0.017568,-10.3775,-4.43625,-4.725,-29.408,2.76,-8.200001,eccentric,4,3.0,19064.0,138241.0,223908.0,275260.0,260350.0
2026-04-08 21:45:58.361075,197764,1609503930579574,1530546415,0.872544,-0.152256,-0.02928,-12.59125,-5.41625,-7.5075,-29.408,2.76,-8.200001,eccentric,4,3.0,19064.0,138241.0,223908.0,275260.0,260350.0
2026-04-08 21:45:58.364723,197765,1609503930588487,1530555071,0.944768,-0.228384,-0.02928,-13.51,-6.92125,-10.42125,-29.04,2.04,-8.528001,eccentric,4,3.0,19064.0,138241.0,223908.0,275260.0,260350.0
