pc_time,serial_num,sensor_ts,host_ts,ax,ay,az,gx,gy,gz,mx,my,mz,phase,rpe,weight_kg,ppg_a,ppg_b,ppg_c,ppg_d,ppg_e
2026-04-09 22:23:23.958534,381347,2333901417,2333902273,-1.05408,0.160064,0.105408,8.58375,11.75125,-1.89875,27.704,-8.024,22.872002,concentric,6,5.0,17592.0,403431.0,224194.0,81895.0,6943.0
2026-04-09 22:23:23.963579,381348,2333910433,2333910972,-1.05408,0.160064,0.105408,13.65,11.68125,-3.1325,27.704,-8.024,22.872002,concentric,6,5.0,17592.0,403431.0,224194.0,81895.0,6943.0
2026-04-09 22:23:23.966020,381349,2333925436,2333925950,-1.065792,0.206912,0.105408,16.4325,11.917501,-5.48625,27.168001,-8.576,22.504002,concentric,6,5.0,17592.0,403431.0,224194.0,81895.0,6943.0
2026-04-09 22:23:23.968471,381350,2333934940,2333936752,-1.065792,0.206912,0.105408,12.5125,12.24125,-7.6825,27.168001,-8.576,22.504002,concentric,6,5.0,17592.0,403431.0,224194.0,81895.0,6943.0
2026-04-09 22:23:24.031607,381351,2333943934,2333945489,-1.079456,0.15616,0.109312,5.425,12.6525,-9.2225,27.216002,-8.04,22.088001,concentric,6,5.0,17592.0,403431.0,224194.0,81895.0,6943.0
2026-04-09 22:23:24.034763,381352,2333952948,2333954224,-1.079456,0.15616,0.109312,-0.1575,13.265,-9.45,27.216002,-8.04,22.088001,concentric,6,5.0,17592.0,403431.0,224194.0,81895.0,6943.0
2026-04-09 22:23:24.037275,381353,2333967412,2333969161,-1.077504,0.132736,0.089792,-1.2075,13.93,-9.52,27.224,-7.216001,21.936,concentric,6,5.0,17592.0,403431.0,224194.0,81895.0,6943.0
2026-04-09 22:23:24.039772,381354,2333976305,2333977843,-1.077504,0.132736,0.089792,-0.91875,14.2975,-9.8875,27.224,-7.216001,21.936,concentric,6,5.0,17592.0,403431.0,224194.0,81895.0,6943.0
2026-04-09 22:23:24.042238,381355,2333985234,2333986540,-1.087264,0.201056,0.101504,-0.69125,15.67125,-9.24,26.896002,-7.856,21.432001,concentric,6,5.0,17592.0,403431.0,224194.0,81895.0,6943.0
2026-04-09 22:23:24.067301,381365,2333999706,2334001473,-1.106784,0.18544,0.093696,-1.07625,17.7975,-9.5725,26.544,-8.352,23.336,concentric,6,5.0,17559.0,403431.0,225383.0,82668.0,7145.0
2026-04-09 22:23:24.069758,381366,2334008637,2334010250,-1.106784,0.18544,0.093696,-5.74875,20.195,-10.96375,26.544,-8.352,23.336,concentric,6,5.0,17559.0,403431.0,225383.0,82668.0,7145.0
2026-04-09 22:23:24.072305,381367,2334017646,2334018989,-1.106784,0.18544,0.093696,-10.98125,21.70875,-9.765,26.544,-8.352,23.336,concentric,6,5.0,17559.0,403431.0,225383.0,82668.0,7145.0
2026-04-09 22:23:24.074724,381368,2334032268,2334033976,-1.147776,0.064416,0.007808,-15.09375,21.55125,-4.62875,25.192001,-8.352,22.176,concentric,6,5.0,17559.0,403431.0,225383.0,82668.0,7145.0
2026-04-09 22:23:24.077474,381369,2334041286,2334042707,-1.165344,0.130784,0.11712,-8.58375,20.29125,-0.98,25.424002,-7.592001,22.056002,concentric,6,5.0,17559.0,403431.0,225383.0,82668.0,7145.0
2026-04-09 22:23:24.082287,381370,2334050270,2334051461,-1.165344,0.130784,0.11712,5.705,19.74,-4.48,25.424002,-7.592001,22.056002,concentric,6,5.0,17559.0,403431.0,225383.0,82668.0,7145.0
2026-04-09 22:23:24.114281,381371,2334059234,2334060207,-1.14192,0.384544,0.103456,17.4475,19.80125,-6.88625,26.288002,-8.032001,22.240002,concentric,6,5.0,17559.0,403431.0,225383.0,82668.0,7145.0
2026-04-09 22:23:24.116000,381372,2334073738,2334075103,-1.14192,0.384544,0.103456,21.28875,19.3025,-9.3975,26.288002,-8.032001,22.240002,concentric,6,5.0,17559.0,403431.0,225383.0,82668.0,7145.0
2026-04-09 22:23:24.118560,381373,2334082655,2334083791,-1.134112,0.36112,0.03904,17.31625,18.095,-19.1275,26.792002,-7.704001,20.808,concentric,6,5.0,17559.0,403431.0,225383.0,82668.0,7145.0
2026-04-09 22:23:24.123602,381374,2334091584,2334092487,-1.134112,0.36112,0.03904,1.47875,16.7475,-24.78,26.792002,-7.704001,20.808,concentric,6,5.0,17559.0,403431.0,225383.0,82668.0,7145.0
2026-04-09 22:23:24.151092,381385,2334106166,2334107485,-1.120448,0.226432,0.050752,-12.2675,15.12,-28.192501,26.432001,-7.568,20.0,concentric,6,5.0,17597.0,403431.0,225548.0,82493.0,6926.0
2026-04-09 22:23:24.158558,381386,2334115130,2334116263,-1.120448,0.226432,0.050752,-15.015,14.91,-32.69875,26.432001,-7.568,20.0,concentric,6,5.0,17597.0,403431.0,225548.0,82493.0,6926.0
2026-04-09 22:23:24.161033,381387,2334124069,2334124987,-1.130208,0.189344,0.099552,-11.29625,14.49,-35.6125,26.384,-7.384,21.016,concentric,6,5.0,17597.0,403431.0,225548.0,82493.0,6926.0
2026-04-09 22:23:24.192619,381388,2334138610,2334139915,-1.130208,0.189344,0.099552,-3.7625,14.67375,-38.263752,26.384,-7.384,21.016,concentric,6,5.0,17597.0,403431.0,225548.0,82493.0,6926.0
2026-04-09 22:23:24.195293,381389,2334147528,2334148656,-1.098976,0.288896,0.105408,1.12875,15.18125,-41.27375,25.464,-7.504,20.504002,concentric,6,5.0,17597.0,403431.0,225548.0,82493.0,6926.0
2026-04-09 22:23:24.231358,381390,2334156424,2334157377,-1.098976,0.288896,0.105408,-0.8225,16.38,-43.46125,25.464,-7.504,20.504002,concentric,6,5.0,17597.0,403431.0,225548.0,82493.0,6926.0
2026-04-09 22:23:24.242421,381391,2334170903,2334172265,-1.124352,0.245952,0.033184,-8.645,16.51125,-44.58125,25.568,-7.2,19.488,concentric,6,5.0,17597.0,403431.0,225548.0,82493.0,6926.0
2026-04-09 22:23:24.244969,381392,2334179818,2334180984,-1.13216,0.197152,0.021472,-14.83125,16.345,-46.06875,25.392002,-6.336,19.768002,concentric,6,5.0,17597.0,403431.0,225548.0,82493.0,6926.0
2026-04-09 22:23:24.247352,381393,2334188737,2334189704,-1.13216,0.197152,0.021472,-16.0475,16.17,-46.9875,25.392002,-6.336,19.768002,concentric,6,5.0,17597.0,403431.0,225548.0,82493.0,6926.0
2026-04-09 22:23:24.272580,381403,2334197842,2334198505,-1.13216,0.197152,0.021472,-12.67875,15.925,-47.565,25.392002,-6.336,19.768002,concentric,6,5.0,17549.0,403431.0,225639.0,82524.0,6914.0
2026-04-09 22:23:24.274913,381404,2334212767,2334213411,-1.120448,0.167872,0.089792,-9.5725,16.616251,-48.06375,25.312,-6.344,18.768002,concentric,6,5.0,17549.0,403431.0,225639.0,82524.0,6914.0
2026-04-09 22:23:24.277356,381405,2334222028,2334224207,-1.097024,0.189344,0.081984,-7.14875,16.2575,-48.85125,24.984001,-6.552001,18.816,concentric,6,5.0,17549.0,403431.0,225639.0,82524.0,6914.0
2026-04-09 22:23:24.279846,381406,2334231054,2334232944,-1.097024,0.189344,0.081984,-5.495,15.8725,-49.105,24.984001,-6.552001,18.816,concentric,6,5.0,17549.0,403431.0,225639.0,82524.0,6914.0
2026-04-09 22:23:24.282355,381407,2334245708,2334247889,-1.153632,0.201056,-0.031232,-6.545,16.12625,-46.99625,25.328001,-5.552,18.704,concentric,6,5.0,17549.0,403431.0,225639.0,82524.0,6914.0
2026-04-09 22:23:24.286097,381408,2334254642,2334256625,-1.153632,0.201056,-0.031232,-10.57,15.2425,-46.0075,25.328001,-5.552,18.704,concentric,6,5.0,17549.0,403431.0,225639.0,82524.0,6914.0
2026-04-09 22:23:24.331406,381409,2334263722,2334265324,-1.173152,0.124928,0.031232,-11.2525,14.56,-47.06625,24.992,-5.792,18.392,concentric,6,5.0,17549.0,403431.0,225639.0,82524.0,6914.0
2026-04-09 22:23:24.334889,381410,2334272699,2334274020,-1.173152,0.124928,0.031232,-5.15375,14.735,-45.94625,24.992,-5.792,18.392,concentric,6,5.0,17549.0,403431.0,225639.0,82524.0,6914.0
2026-04-09 22:23:24.337413,381411,2334287210,2334288954,-1.130208,0.169824,0.089792,-0.2975,15.47,-45.325,24.544,-5.480001,18.560001,concentric,6,5.0,17549.0,403431.0,225639.0,82524.0,6914.0
2026-04-09 22:23:24.364820,381421,2334296484,2334297682,-1.130208,0.169824,0.089792,3.2025,15.70625,-45.64875,24.544,-5.480001,18.560001,concentric,6,5.0,17491.0,403431.0,226571.0,83095.0,7076.0
2026-04-09 22:23:24.367322,381422,2334305462,2334306385,-1.157536,0.22448,0.121024,2.07375,16.94,-48.2475,24.144001,-5.376,17.960001,concentric,6,5.0,17491.0,403431.0,226571.0,83095.0,7076.0
2026-04-09 22:23:24.369892,381423,2334320037,2334321360,-1.159488,0.158112,0.056608,-8.54,19.48625,-48.65875,24.144001,-5.376,18.768002,concentric,6,5.0,17491.0,403431.0,226571.0,83095.0,7076.0
2026-04-09 22:23:24.372365,381424,2334329169,2334330180,-1.159488,0.158112,0.056608,-21.39375,21.945,-47.88,23.52,-5.216,18.768002,concentric,6,5.0,17491.0,403431.0,226571.0,83095.0,7076.0
2026-04-09 22:23:24.374870,381425,2334338222,2334338890,-1.159488,0.158112,0.056608,-23.205,24.465,-49.07875,23.52,-5.216,18.768002,concentric,6,5.0,17491.0,403431.0,226571.0,83095.0,7076.0
2026-04-09 22:23:24.379839,381426,2334347518,2334349646,-1.167296,0.132736,-0.021472,-19.81,25.7775,-50.91625,23.536001,-4.672,17.616001,concentric,6,5.0,17491.0,403431.0,226571.0,83095.0,7076.0
2026-04-09 22:23:24.409996,381427,2334362083,2334362548,-1.1712,0.177632,0.035136,-13.72,25.13,-51.388752,23.448002,-5.08,17.144001,concentric,6,5.0,17491.0,403431.0,226571.0,83095.0,7076.0
2026-04-09 22:23:24.413582,381428,2334371556,2334373328,-1.1712,0.177632,0.035136,-6.6675,24.535,-51.975,23.448002,-5.08,17.144001,concentric,6,5.0,17491.0,403431.0,226571.0,83095.0,7076.0
2026-04-09 22:23:24.416099,381429,2334380554,2334382019,-1.15168,0.208864,0.076128,-2.275,24.43,-53.576252,22.616001,-4.144,16.944,concentric,6,5.0,17491.0,403431.0,226571.0,83095.0,7076.0
2026-04-09 22:23:24.421160,381430,2334389488,2334390740,-1.15168,0.208864,0.076128,-1.32125,25.61125,-55.16,22.616001,-4.144,16.944,concentric,6,5.0,17491.0,403431.0,226571.0,83095.0,7076.0
2026-04-09 22:23:24.452469,381441,2334404094,2334405804,-1.15168,0.144448,-0.013664,-4.71625,24.94625,-56.2275,21.968,-4.0,17.616001,concentric,6,5.0,17385.0,403431.0,228325.0,84351.0,7520.0
2026-04-09 22:23:24.458583,381442,2334413119,2334414571,-1.15168,0.144448,-0.013664,-11.61125,24.56125,-56.65625,21.968,-4.0,17.616001,concentric,6,5.0,17385.0,403431.0,228325.0,84351.0,7520.0
2026-04-09 22:23:24.461047,381443,2334422070,2334423323,-1.173152,0.121024,-0.015616,-14.18375,23.5375,-55.51875,22.456001,-3.432,16.832,concentric,6,5.0,17385.0,403431.0,228325.0,84351.0,7520.0
2026-04-09 22:23:24.491240,381444,2334436568,2334438303,-1.173152,0.121024,-0.015616,-10.9025,23.1875,-54.8275,22.456001,-3.432,16.832,concentric,6,5.0,17385.0,403431.0,228325.0,84351.0,7520.0
2026-04-09 22:23:24.494845,381445,2334445511,2334447008,-1.182912,0.179584,-0.00976,-4.0075,22.8025,-53.1475,22.76,-3.752,17.088001,concentric,6,5.0,17385.0,403431.0,228325.0,84351.0,7520.0
2026-04-09 22:23:24.497273,381446,2334454445,2334455726,-1.182912,0.179584,-0.00976,-0.175,21.6125,-52.89375,22.76,-3.752,17.088001,concentric,6,5.0,17385.0,403431.0,228325.0,84351.0,7520.0
2026-04-09 22:23:24.499823,381447,2334468914,2334470679,-1.206336,0.16592,0.02928,-1.54,21.0875,-53.73375,22.096,-3.728,16.16,concentric,6,5.0,17385.0,403431.0,228325.0,84351.0,7520.0
2026-04-09 22:23:24.529988,381448,2334477900,2334479399,-1.206336,0.16592,0.02928,-6.83375,22.522501,-53.55875,22.096,-3.728,16.16,concentric,6,5.0,17385.0,403431.0,228325.0,84351.0,7520.0
2026-04-09 22:23:24.533679,381449,2334486809,2334488068,-1.20048,0.054656,0.023424,-11.57625,22.960001,-51.03875,21.096,-3.632,16.384,concentric,6,5.0,17385.0,403431.0,228325.0,84351.0,7520.0
2026-04-09 22:23:24.561139,381459,2334501449,2334502998,-1.290272,0.124928,-0.033184,-15.198751,21.77,-50.61,21.072,-3.352,15.536001,concentric,6,5.0,17479.0,403431.0,227322.0,83617.0,7255.0
2026-04-09 22:23:24.563584,381460,2334510399,2334511774,-1.290272,0.124928,-0.033184,-12.46875,21.93625,-47.6175,21.072,-3.352,15.536001,concentric,6,5.0,17479.0,403431.0,227322.0,83617.0,7255.0
2026-04-09 22:23:24.566049,381461,2334519382,2334520515,-1.290272,0.124928,-0.033184,-1.58375,21.805,-42.41125,21.072,-3.352,15.536001,concentric,6,5.0,17479.0,403431.0,227322.0,83617.0,7255.0
2026-04-09 22:23:24.568552,381462,2334528331,2334529210,-1.214144,0.162016,-0.011712,-1.0675,20.25625,-43.3475,20.936,-3.04,15.128,concentric,6,5.0,17479.0,403431.0,227322.0,83617.0,7255.0
2026-04-09 22:23:24.573545,381463,2334542871,2334544169,-1.175104,0.056608,0.03904,-7.805,20.1775,-42.37625,21.384,-2.92,15.112,concentric,6,5.0,17479.0,403431.0,227322.0,83617.0,7255.0
2026-04-09 22:23:24.631322,381464,2334551817,2334552899,-1.175104,0.056608,0.03904,-11.3225,21.32375,-40.670002,21.384,-2.92,15.112,concentric,6,5.0,17479.0,403431.0,227322.0,83617.0,7255.0
2026-04-09 22:23:24.634883,381465,2334560707,2334561590,-1.175104,0.066368,-0.02928,-11.92625,23.1,-38.9375,21.384,-2.92,17.160002,concentric,6,5.0,17479.0,403431.0,227322.0,83617.0,7255.0
2026-04-09 22:23:24.637326,381466,2334575196,2334576489,-1.233664,0.066368,-0.02928,-8.46125,23.96625,-36.785,20.392,-2.704,17.616001,concentric,6,5.0,17479.0,403431.0,227322.0,83617.0,7255.0
2026-04-09 22:23:24.639803,381467,2334584131,2334585245,-1.186816,0.093696,-0.05856,-4.6025,24.28125,-39.515,20.36,-3.392,14.936001,concentric,6,5.0,17479.0,403431.0,227322.0,83617.0,7255.0
2026-04-09 22:23:24.642373,381468,2334593032,2334593925,-1.186816,0.093696,-0.05856,-5.705,25.50625,-35.39375,20.36,-3.392,14.936001,concentric,6,5.0,17479.0,403431.0,227322.0,83617.0,7255.0
2026-04-09 22:23:24.671723,381478,2334607593,2334608854,-1.192672,0.122976,-0.02928,-3.185,27.16875,-32.55,19.912,-2.944,14.944,concentric,6,5.0,17447.0,403431.0,227612.0,83698.0,7233.0
2026-04-09 22:23:24.675207,381479,2334616554,2334617592,-1.192672,0.122976,-0.02928,-2.54625,27.2475,-36.1375,19.912,-2.944,14.944,concentric,6,5.0,17447.0,403431.0,227612.0,83698.0,7233.0
2026-04-09 22:23:24.676338,381480,2334625509,2334626398,-1.08336,0.064416,-0.050752,-5.8625,25.61125,-39.935,18.384,-2.6,16.168001,concentric,6,5.0,17447.0,403431.0,227612.0,83698.0,7233.0
2026-04-09 22:23:24.678735,381481,2334634401,2334635138,-1.08336,0.064416,-0.050752,-10.2025,25.655,-39.69,18.384,-2.6,16.168001,concentric,6,5.0,17447.0,403431.0,227612.0,83698.0,7233.0
2026-04-09 22:23:24.681073,381482,2334649310,2334650104,-1.147776,0.070272,-0.13664,-7.8575,25.69875,-37.75625,19.584002,-3.12,14.104001,concentric,6,5.0,17447.0,403431.0,227612.0,83698.0,7233.0
2026-04-09 22:23:24.711321,381483,2334658739,2334660881,-1.147776,0.070272,-0.13664,-6.6675,24.675,-39.3225,19.584002,-3.12,14.104001,concentric,6,5.0,17447.0,403431.0,227612.0,83698.0,7233.0
2026-04-09 22:23:24.714896,381484,2334667717,2334669582,-1.020896,-0.017568,-0.01952,-6.13375,24.5875,-41.335,18.504002,-3.192,13.968,concentric,6,5.0,17447.0,403431.0,227612.0,83698.0,7233.0
2026-04-09 22:23:24.717389,381485,2334682215,2334684509,-0.987712,0.01952,-0.005856,-7.49,26.18,-44.38,18.472,-2.408,12.976001,concentric,6,5.0,17447.0,403431.0,227612.0,83698.0,7233.0
2026-04-09 22:23:24.723625,381486,2334691157,2334693246,-0.987712,0.01952,-0.005856,-8.9425,29.4875,-44.275,18.472,-2.408,12.976001,concentric,6,5.0,17447.0,403431.0,227612.0,83698.0,7233.0
2026-04-09 22:23:24.755247,381497,2334700240,2334702112,-0.987712,0.01952,-0.005856,-5.6525,29.89,-41.13375,18.472,-2.408,12.976001,concentric,6,5.0,17852.0,403431.0,223725.0,80979.0,6337.0
2026-04-09 22:23:24.757324,381498,2334709259,2334710862,-1.110688,0.124928,-0.324032,-4.73375,26.355,-37.84375,18.240002,-2.744,13.168,concentric,6,5.0,17852.0,403431.0,223725.0,80979.0,6337.0
2026-04-09 22:23:24.759769,381499,2334723777,2334725841,-1.007232,-0.105408,-0.158112,-2.2575,19.36375,-38.98125,17.192001,-2.88,14.056001,concentric,6,5.0,17852.0,403431.0,223725.0,80979.0,6337.0
2026-04-09 22:23:24.764946,381500,2334732735,2334734529,-1.007232,-0.105408,-0.158112,-0.4025,13.37875,-43.855,17.192001,-2.88,14.056001,concentric,6,5.0,17852.0,403431.0,223725.0,80979.0,6337.0
2026-04-09 22:23:24.795176,381501,2334741729,2334743273,-0.952576,-0.148352,0.0488,-2.40625,12.136251,-44.94875,17.192001,-2.824,14.6,concentric,6,5.0,17852.0,403431.0,223725.0,80979.0,6337.0
2026-04-09 22:23:24.798688,381502,2334756195,2334758263,-0.952576,-0.148352,0.0488,0.63875,14.875,-41.62375,17.064001,-2.824,14.6,concentric,6,5.0,17852.0,403431.0,223725.0,80979.0,6337.0
2026-04-09 22:23:24.801056,381503,2334765095,2334766949,-0.923296,0.113216,-0.080032,7.2625,19.20625,-40.3725,17.44,-3.16,13.072001,concentric,6,5.0,17852.0,403431.0,223725.0,80979.0,6337.0
2026-04-09 22:23:24.806182,381504,2334774069,2334775670,-0.923296,0.113216,-0.080032,10.6925,21.30625,-39.9875,17.44,-3.16,13.072001,concentric,6,5.0,17852.0,403431.0,223725.0,80979.0,6337.0
2026-04-09 22:23:24.836662,381505,2334788563,2334790615,-1.007232,0.130784,-0.2928,6.195,19.0575,-42.5775,16.616001,-2.616,14.400001,concentric,6,5.0,17852.0,403431.0,223725.0,80979.0,6337.0
2026-04-09 22:23:24.862311,381515,2334797956,2334799638,-1.007232,0.130784,-0.2928,1.645,15.505,-46.31375,16.616001,-2.616,14.400001,concentric,6,5.0,18184.0,403431.0,219544.0,77822.0,5429.0
2026-04-09 22:23:24.864922,381516,2334806925,2334808365,-0.948672,-0.255712,-0.163968,-5.08375,13.23875,-48.3,17.384,-2.4,12.808001,concentric,6,5.0,18184.0,403431.0,219544.0,77822.0,5429.0
2026-04-09 22:23:24.867398,381517,2334815862,2334817056,-0.948672,-0.255712,-0.163968,-14.096251,9.72125,-48.16875,17.384,-2.4,12.808001,concentric,6,5.0,18184.0,403431.0,219544.0,77822.0,5429.0
2026-04-09 22:23:24.869928,381518,2334830336,2334832031,-0.952576,-0.212768,-0.167872,-9.835,9.37125,-44.24,16.344,-1.952,13.040001,concentric,6,5.0,18184.0,403431.0,219544.0,77822.0,5429.0
2026-04-09 22:23:24.872403,381519,2334839277,2334840788,-0.952576,-0.212768,-0.167872,12.95875,9.47625,-34.44875,16.344,-1.952,13.040001,concentric,6,5.0,18184.0,403431.0,219544.0,77822.0,5429.0
2026-04-09 22:23:24.878697,381520,2334848242,2334849574,-0.86864,0.052704,-0.037088,32.375,7.21,-31.08,16.976002,-1.912,12.952001,concentric,6,5.0,18184.0,403431.0,219544.0,77822.0,5429.0
2026-04-09 22:23:24.932648,381521,2334862740,2334864486,-0.933056,0.142496,-0.134688,28.14,4.8475,-36.96875,16.472,-1.512,12.968,concentric,6,5.0,18184.0,403431.0,219544.0,77822.0,5429.0
2026-04-09 22:23:24.936124,381522,2334871621,2334873185,-0.933056,0.142496,-0.134688,14.665,5.94125,-35.67375,16.472,-1.512,12.968,concentric,6,5.0,18184.0,403431.0,219544.0,77822.0,5429.0
2026-04-09 22:23:24.938544,381523,2334880551,2334881895,-0.933056,0.142496,-0.134688,9.1875,10.57875,-34.9125,16.472,-1.512,12.968,concentric,6,5.0,18184.0,403431.0,219544.0,77822.0,5429.0
2026-04-09 22:23:24.941198,381524,2334895014,2334896795,-0.974048,-0.13664,-0.242048,1.88125,11.795,-38.815,15.976001,-1.376,10.976001,concentric,6,5.0,18184.0,403431.0,219544.0,77822.0,5429.0
2026-04-09 22:23:24.967150,381534,2334903976,2334905495,-0.915488,-0.294752,-0.06832,-12.845,9.59875,-40.495,16.464,-1.216,13.504001,concentric,6,5.0,18484.0,403431.0,215641.0,74871.0,4679.0
2026-04-09 22:23:24.968693,381535,2334912919,2334914209,-0.915488,-0.294752,-0.06832,-7.09625,8.636251,-34.85125,16.464,-1.216,13.504001,concentric,6,5.0,18484.0,403431.0,215641.0,74871.0,4679.0
2026-04-09 22:23:24.972875,381536,2334927429,2334929161,-0.890112,-0.003904,-0.056608,12.03125,10.4125,-27.30875,15.336,-1.16,14.736001,concentric,6,5.0,18484.0,403431.0,215641.0,74871.0,4679.0
2026-04-09 22:23:24.974583,381537,2334936389,2334937912,-0.890112,-0.003904,-0.056608,27.973751,9.79125,-21.79625,15.336,-1.16,14.736001,concentric,6,5.0,18484.0,403431.0,215641.0,74871.0,4679.0
2026-04-09 22:23:24.976142,381538,2334945377,2334946650,-0.89792,-0.021472,-0.163968,29.79375,9.09125,-21.42,14.624001,-1.376,14.456,concentric,6,5.0,18484.0,403431.0,215641.0,74871.0,4679.0
2026-04-09 22:23:25.007587,381539,2334954319,2334955405,-0.89792,-0.021472,-0.163968,17.35125,8.085,-23.09125,14.624001,-1.376,14.456,concentric,6,5.0,18484.0,403431.0,215641.0,74871.0,4679.0
2026-04-09 22:23:25.011143,381540,2334968801,2334970313,-0.95648,-0.271328,-0.257664,3.99875,8.5925,-21.20125,15.960001,-0.84,12.552001,concentric,6,5.0,18484.0,403431.0,215641.0,74871.0,4679.0
2026-04-09 22:23:25.013700,381541,2334977714,2334979012,-0.95648,-0.271328,-0.257664,-0.315,6.6675,-15.26,15.960001,-0.84,12.552001,concentric,6,5.0,18484.0,403431.0,215641.0,74871.0,4679.0
2026-04-09 22:23:25.016061,381542,2334986629,2334987746,-0.876448,-0.216672,0.021472,10.3425,3.57875,-10.5525,16.52,-0.88,12.848001,concentric,6,5.0,18484.0,403431.0,215641.0,74871.0,4679.0
2026-04-09 22:23:25.073701,381553,2335001756,2335002678,-0.876448,-0.216672,0.021472,31.77125,2.26625,-7.0525,16.52,-0.88,12.848001,concentric,6,5.0,18621.0,403431.0,213158.0,72759.0,4171.0
2026-04-09 22:23:25.076851,381554,2335010697,2335011417,-0.776896,0.074176,-0.03904,40.1625,4.3575,-2.91375,16.104,-1.288,13.216001,concentric,6,5.0,18621.0,403431.0,213158.0,72759.0,4171.0
2026-04-09 22:23:25.077762,381555,2335020027,2335022191,-0.776896,0.074176,-0.03904,26.7575,3.99,-2.205,16.104,-1.288,13.216001,concentric,6,5.0,18621.0,403431.0,213158.0,72759.0,4171.0
2026-04-09 22:23:25.079885,381556,2335029134,2335030966,-0.940864,-0.060512,-0.240096,10.28125,6.3,-3.85,16.152,-1.04,12.944,concentric,6,5.0,18621.0,403431.0,213158.0,72759.0,4171.0
2026-04-09 22:23:25.082300,381557,2335043704,2335045897,-0.862784,-0.359168,-0.13664,-0.9975,5.76625,-1.09375,16.296001,-1.232,12.984,concentric,6,5.0,18621.0,403431.0,213158.0,72759.0,4171.0
2026-04-09 22:23:25.084857,381558,2335052639,2335054601,-0.862784,-0.359168,-0.13664,-8.68875,1.05,-0.2275,16.296001,-1.232,12.984,concentric,6,5.0,18621.0,403431.0,213158.0,72759.0,4171.0
2026-04-09 22:23:25.115160,381559,2335061592,2335063302,-0.862784,-0.359168,-0.13664,-0.07875,-0.04375,4.82125,16.296001,-1.232,12.984,concentric,6,5.0,18621.0,403431.0,213158.0,72759.0,4171.0
2026-04-09 22:23:25.118701,381560,2335076124,2335078164,-0.851072,-0.132736,-0.054656,23.397501,-0.18375,12.5475,16.016,-1.632,13.072001,concentric,6,5.0,18621.0,403431.0,213158.0,72759.0,4171.0
2026-04-09 22:23:25.121042,381561,2335085025,2335086875,-0.890112,0.109312,-0.011712,41.29125,1.28625,11.7775,16.048,-0.912,12.808001,concentric,6,5.0,18621.0,403431.0,213158.0,72759.0,4171.0
2026-04-09 22:23:25.124888,381562,2335094136,2335095584,-0.890112,0.109312,-0.011712,41.36125,2.4325,9.0475,16.048,-0.912,12.808001,concentric,6,5.0,18621.0,403431.0,213158.0,72759.0,4171.0
2026-04-09 22:23:25.152650,381572,2335103283,2335104401,-0.872544,-0.177632,-0.220576,19.8625,0.945,8.58375,16.048,-1.24,13.296001,concentric,6,5.0,19000.0,403431.0,207574.0,68329.0,3275.0
2026-04-09 22:23:25.155764,381573,2335117820,2335119387,-0.872544,-0.177632,-0.220576,-3.6575,-2.51125,9.23125,15.304001,-1.24,13.296001,concentric,6,5.0,19000.0,403431.0,207574.0,68329.0,3275.0
2026-04-09 22:23:25.157781,381574,2335126760,2335128097,-0.8784,-0.290848,0.013664,-13.41375,-4.0075,10.167501,15.688001,-1.096,13.016001,concentric,6,5.0,19000.0,403431.0,207574.0,68329.0,3275.0
2026-04-09 22:23:25.227937,381575,2335135725,2335136811,-0.8784,-0.290848,0.013664,4.2,-2.5725,11.3925,15.688001,-1.096,13.016001,eccentric,6,5.0,19000.0,403431.0,207574.0,68329.0,3275.0
2026-04-09 22:23:25.231747,381576,2335150250,2335151695,-0.812032,0.08784,0.085888,29.16375,2.51125,15.61875,16.04,-1.576,12.400001,eccentric,6,5.0,19000.0,403431.0,207574.0,68329.0,3275.0
2026-04-09 22:23:25.233712,381577,2335159158,2335160413,-0.812032,0.08784,0.085888,35.88375,7.385,16.03,16.04,-1.576,12.400001,eccentric,6,5.0,19000.0,403431.0,207574.0,68329.0,3275.0
2026-04-09 22:23:25.241161,381578,2335168092,2335169171,-0.864736,0.007808,-0.035136,20.79,9.52875,9.84375,15.832001,-1.728,12.68,eccentric,6,5.0,19000.0,403431.0,207574.0,68329.0,3275.0
2026-04-09 22:23:25.243572,381579,2335182600,2335184057,-0.864736,0.007808,-0.035136,-5.3375,10.64875,7.37625,15.832001,-1.728,12.68,eccentric,6,5.0,19000.0,403431.0,207574.0,68329.0,3275.0
2026-04-09 22:23:25.246078,381580,2335191522,2335192779,-0.905728,-0.17568,-0.080032,-21.805,7.9625,9.6425,16.608002,-1.816,16.12,eccentric,6,5.0,19000.0,403431.0,207574.0,68329.0,3275.0
2026-04-09 22:23:25.274934,381590,2335200534,2335201705,-0.905728,-0.17568,-0.080032,-23.84375,5.08375,8.33,16.608002,-1.816,16.12,eccentric,6,5.0,19374.0,403431.0,203538.0,64938.0,2708.0
2026-04-09 22:23:25.281098,381591,2335215139,2335216703,-0.884256,-0.152256,-0.085888,-14.23625,2.80875,9.17875,16.312,-1.432,12.6,eccentric,6,5.0,19374.0,403431.0,203538.0,64938.0,2708.0
2026-04-09 22:23:25.283675,381592,2335224093,2335225437,-0.925248,-0.050752,-0.140544,-3.745,-0.84875,18.34,16.416,-1.768,12.880001,eccentric,6,5.0,19374.0,403431.0,203538.0,64938.0,2708.0
2026-04-09 22:23:25.288577,381593,2335233074,2335234172,-0.925248,-0.050752,-0.140544,2.1,-4.8475,20.125,16.416,-1.768,12.880001,eccentric,6,5.0,19374.0,403431.0,203538.0,64938.0,2708.0
2026-04-09 22:23:25.291033,381594,2335242015,2335242913,-0.925248,-0.050752,-0.140544,-2.8875,-9.31,16.98375,16.416,-1.768,12.880001,eccentric,6,5.0,19374.0,403431.0,203538.0,64938.0,2708.0
2026-04-09 22:23:25.293603,381595,2335256599,2335257855,-0.913536,-0.091744,-0.01952,-9.09125,-12.27625,15.785,16.008001,-2.384,15.368001,eccentric,6,5.0,19374.0,403431.0,203538.0,64938.0,2708.0
2026-04-09 22:23:25.296072,381596,2335265536,2335266588,-0.892064,-0.044896,0.00976,-11.5325,-11.78625,16.5725,16.84,-1.936,12.664001,eccentric,6,5.0,19374.0,403431.0,203538.0,64938.0,2708.0
2026-04-09 22:23:25.326296,381597,2335274464,2335275321,-0.892064,-0.044896,0.00976,-12.67,-8.7325,17.2025,16.84,-1.936,12.664001,eccentric,6,5.0,19374.0,403431.0,203538.0,64938.0,2708.0
2026-04-09 22:23:25.329912,381598,2335288935,2335290218,-0.958432,0.05856,-0.066368,-11.9875,-4.13,19.1275,16.576,-2.392,12.792001,eccentric,6,5.0,19374.0,403431.0,203538.0,64938.0,2708.0
2026-04-09 22:23:25.332478,381599,2335297855,2335298949,-0.958432,0.05856,-0.066368,-16.66875,-0.77,17.47375,16.576,-2.392,12.792001,eccentric,6,5.0,19374.0,403431.0,203538.0,64938.0,2708.0
2026-04-09 22:23:25.363643,381610,2335306807,2335307659,-1.007232,-0.054656,-0.20496,-21.210001,1.05875,15.0325,16.168001,-2.344,13.840001,eccentric,6,5.0,19552.0,403431.0,201261.0,62806.0,2354.0
2026-04-09 22:23:25.366103,381611,2335321343,2335322620,-1.007232,-0.054656,-0.20496,-28.8225,0.34125,13.46625,16.168001,-2.344,13.840001,eccentric,6,5.0,19552.0,403431.0,201261.0,62806.0,2354.0
2026-04-09 22:23:25.368628,381612,2335330298,2335331377,-0.987712,-0.179584,-0.076128,-31.78,-1.19,12.67,17.056002,-2.936,12.704,eccentric,6,5.0,19552.0,403431.0,201261.0,62806.0,2354.0
2026-04-09 22:23:25.371097,381613,2335339253,2335340127,-0.987712,-0.179584,-0.076128,-24.56125,-1.5575,13.76375,17.056002,-2.936,12.704,eccentric,6,5.0,19552.0,403431.0,201261.0,62806.0,2354.0
2026-04-09 22:23:25.401310,381614,2335348178,2335348845,-0.91744,0.007808,-0.00976,-10.57875,0.09625,15.35625,17.216002,-2.504,12.728001,eccentric,6,5.0,19552.0,403431.0,201261.0,62806.0,2354.0
2026-04-09 22:23:25.404903,381615,2335363004,2335363733,-0.91744,0.007808,-0.00976,-5.06625,2.65125,16.23125,17.216002,-2.504,12.728001,eccentric,6,5.0,19552.0,403431.0,201261.0,62806.0,2354.0
2026-04-09 22:23:25.411182,381616,2335372453,2335374537,-0.999424,0.105408,-0.158112,-10.70125,4.095,17.98125,17.888,-3.392,12.976001,eccentric,6,5.0,19552.0,403431.0,201261.0,62806.0,2354.0
2026-04-09 22:23:25.413581,381617,2335381408,2335383255,-0.999424,0.105408,-0.158112,-16.6075,3.2375,18.66375,17.888,-3.392,12.976001,eccentric,6,5.0,19552.0,403431.0,201261.0,62806.0,2354.0
2026-04-09 22:23:25.443954,381618,2335395906,2335398142,-1.0248,-0.093696,-0.212768,-21.84875,-0.70875,15.295,17.512001,-2.88,13.920001,eccentric,6,5.0,19552.0,403431.0,201261.0,62806.0,2354.0
2026-04-09 22:23:25.474211,381628,2335404960,2335407151,-1.020896,-0.081984,-0.083936,-22.11125,-6.1425,15.51375,17.12,-2.968,13.656001,eccentric,6,5.0,19104.0,403431.0,205649.0,66546.0,2945.0
2026-04-09 22:23:25.511354,381629,2335413874,2335415839,-1.020896,-0.081984,-0.083936,-11.75125,-10.68375,17.6225,17.12,-2.968,13.656001,eccentric,6,5.0,19104.0,403431.0,205649.0,66546.0,2945.0
2026-04-09 22:23:25.536461,381630,2335422794,2335424546,-1.020896,-0.081984,-0.083936,3.36875,-12.27625,19.13625,17.12,-2.968,13.656001,eccentric,6,5.0,19104.0,403431.0,205649.0,66546.0,2945.0
2026-04-09 22:23:25.538661,381631,2335437474,2335439490,-0.931104,0.007808,-0.023424,8.70625,-13.0725,18.585001,17.12,-2.92,14.064001,eccentric,6,5.0,19104.0,403431.0,205649.0,66546.0,2945.0
2026-04-09 22:23:25.541168,381632,2335446514,2335448215,-0.997472,0.072224,-0.1464,4.57625,-13.27375,19.73125,17.784,-3.68,13.448001,eccentric,6,5.0,19104.0,403431.0,205649.0,66546.0,2945.0
2026-04-09 22:23:25.551365,381633,2335455423,2335456903,-0.997472,0.072224,-0.1464,2.415,-13.3175,22.82875,17.784,-3.68,13.448001,eccentric,6,5.0,19104.0,403431.0,205649.0,66546.0,2945.0
2026-04-09 22:23:25.555780,381634,2335469893,2335471807,-1.100928,0.046848,-0.162016,4.0425,-14.14875,22.79375,18.728,-4.0,13.464001,eccentric,6,5.0,19104.0,403431.0,205649.0,66546.0,2945.0
2026-04-09 22:23:25.559259,381635,2335478815,2335480497,-1.100928,0.046848,-0.162016,2.0825,-15.5225,21.175,18.728,-4.0,13.464001,eccentric,6,5.0,19104.0,403431.0,205649.0,66546.0,2945.0
2026-04-09 22:23:25.560408,381636,2335487744,2335489163,-0.99552,-0.035136,-0.013664,1.82875,-18.366251,20.5275,18.08,-3.336,13.840001,eccentric,6,5.0,19104.0,403431.0,205649.0,66546.0,2945.0
2026-04-09 22:23:25.592541,381646,2335502279,2335504129,-0.99552,-0.035136,-0.013664,2.4325,-20.5625,19.985,18.08,-3.336,13.840001,eccentric,6,5.0,18869.0,403431.0,207675.0,68249.0,3262.0
2026-04-09 22:23:25.594919,381647,2335511307,2335512874,-1.061888,0.037088,-0.162016,6.37,-20.3875,20.6675,18.776001,-3.44,14.056001,eccentric,6,5.0,18869.0,403431.0,207675.0,68249.0,3262.0
2026-04-09 22:23:25.597392,381648,2335520301,2335521614,-1.061888,0.037088,-0.162016,10.71,-21.1225,23.135,18.776001,-3.44,14.056001,eccentric,6,5.0,18869.0,403431.0,207675.0,68249.0,3262.0
2026-04-09 22:23:25.603674,381649,2335529363,2335530356,-1.089216,0.040992,-0.099552,14.27125,-21.175,24.17625,19.304,-3.52,14.088,eccentric,6,5.0,18869.0,403431.0,207675.0,68249.0,3262.0
2026-04-09 22:23:25.606256,381650,2335543871,2335545360,-1.089216,0.040992,-0.099552,15.77625,-21.09625,23.2575,19.304,-3.52,14.088,eccentric,6,5.0,18869.0,403431.0,207675.0,68249.0,3262.0
2026-04-09 22:23:25.608695,381651,2335552814,2335554115,-1.130208,0.091744,-0.01952,16.93125,-21.16625,26.10125,18.984001,-3.112,16.848001,eccentric,6,5.0,18869.0,403431.0,207675.0,68249.0,3262.0
2026-04-09 22:23:25.611166,381652,2335561737,2335562847,-1.130208,0.091744,-0.01952,17.38625,-21.49,23.835001,18.984001,-3.112,16.848001,eccentric,6,5.0,18869.0,403431.0,207675.0,68249.0,3262.0
2026-04-09 22:23:25.613591,381653,2335576212,2335577756,-1.003328,0.013664,0.07808,10.64875,-19.6,19.32875,19.480001,-3.256,14.384001,eccentric,6,5.0,18869.0,403431.0,207675.0,68249.0,3262.0
2026-04-09 22:23:25.617443,381654,2335585180,2335586442,-1.046272,0.105408,-0.074176,6.6325,-15.33875,20.85125,19.480001,-3.624,14.408001,eccentric,6,5.0,18869.0,403431.0,207675.0,68249.0,3262.0
2026-04-09 22:23:25.623766,381655,2335594090,2335595203,-1.046272,0.105408,-0.074176,3.73625,-12.2675,25.17375,18.488,-3.624,14.408001,eccentric,6,5.0,18869.0,403431.0,207675.0,68249.0,3262.0
2026-04-09 22:23:25.682468,381666,2335608727,2335610303,-1.130208,0.072224,-0.1464,7.09625,-10.605001,25.06875,19.872002,-3.68,14.896001,eccentric,6,5.0,18713.0,403431.0,209591.0,69817.0,3558.0
2026-04-09 22:23:25.684922,381667,2335617640,2335618992,-1.130208,0.072224,-0.1464,7.28,-13.0375,25.69875,19.872002,-3.68,14.896001,eccentric,6,5.0,18713.0,403431.0,209591.0,69817.0,3558.0
2026-04-09 22:23:25.687393,381668,2335626531,2335627701,-1.00528,0.011712,-0.027328,6.55375,-17.96375,24.71875,20.080002,-3.256,14.936001,eccentric,6,5.0,18713.0,403431.0,209591.0,69817.0,3558.0
2026-04-09 22:23:25.689863,381669,2335641027,2335642633,-1.00528,0.011712,-0.027328,11.97875,-20.43125,20.6675,20.080002,-3.256,14.936001,eccentric,6,5.0,18713.0,403431.0,209591.0,69817.0,3558.0
2026-04-09 22:23:25.692341,381670,2335649977,2335651368,-1.08336,0.142496,-0.03904,20.72875,-19.18,22.295,20.84,-3.528,15.336,eccentric,6,5.0,18713.0,403431.0,209591.0,69817.0,3558.0
2026-04-09 22:23:25.694872,381671,2335659021,2335660248,-1.08336,0.142496,-0.03904,23.84375,-18.57625,24.1675,20.84,-3.528,15.336,eccentric,6,5.0,18713.0,403431.0,209591.0,69817.0,3558.0
2026-04-09 22:23:25.698686,381672,2335667918,2335668993,-1.08336,0.113216,-0.023424,22.61875,-19.17125,22.86375,20.928001,-3.56,15.552001,eccentric,6,5.0,18713.0,403431.0,209591.0,69817.0,3558.0
2026-04-09 22:23:25.728904,381673,2335682389,2335683903,-1.08336,0.113216,-0.023424,17.955,-20.41375,22.015,20.928001,-3.56,15.552001,eccentric,6,5.0,18713.0,403431.0,209591.0,69817.0,3558.0
2026-04-09 22:23:25.732445,381674,2335691305,2335692612,-1.01504,0.054656,0.03904,13.230001,-21.0875,21.5075,21.408,-3.584,15.848001,eccentric,6,5.0,18713.0,403431.0,209591.0,69817.0,3558.0
2026-04-09 22:23:25.734915,381675,2335700228,2335701335,-1.01504,0.054656,0.03904,11.19125,-21.0525,22.645,21.408,-3.584,15.848001,eccentric,6,5.0,18713.0,403431.0,209591.0,69817.0,3558.0
2026-04-09 22:23:25.759915,381685,2335714737,2335716331,-1.069696,0.1952,0.040992,15.33875,-19.53,23.45,21.552002,-3.048,16.76,eccentric,6,5.0,18554.0,403431.0,211235.0,71272.0,3882.0
2026-04-09 22:23:25.762473,381686,2335723664,2335725069,-1.069696,0.1952,0.040992,20.2825,-16.86125,23.44125,21.552002,-3.048,16.76,eccentric,6,5.0,18554.0,403431.0,211235.0,71272.0,3882.0
2026-04-09 22:23:25.764868,381687,2335732609,2335733763,-1.128256,0.257664,-0.013664,21.0,-15.79375,23.37125,21.312,-3.92,19.336,eccentric,6,5.0,18554.0,403431.0,211235.0,71272.0,3882.0
2026-04-09 22:23:25.795904,381688,2335747072,2335748701,-1.0736,0.130784,0.0488,15.26,-15.1725,21.8575,21.432001,-3.912,16.480001,eccentric,6,5.0,18554.0,403431.0,211235.0,71272.0,3882.0
2026-04-09 22:23:25.798764,381689,2335755967,2335757409,-1.0736,0.130784,0.0488,5.13625,-15.505,17.885,21.432001,-3.912,16.480001,eccentric,6,5.0,18554.0,403431.0,211235.0,71272.0,3882.0
2026-04-09 22:23:25.838966,381690,2335764876,2335766124,-1.0736,0.130784,0.0488,-4.4625,-15.015,14.41125,21.432001,-3.912,16.480001,eccentric,6,5.0,18554.0,403431.0,211235.0,71272.0,3882.0
2026-04-09 22:23:25.842464,381691,2335779359,2335781086,-1.046272,0.072224,0.050752,-5.62625,-14.14875,13.18625,22.664001,-3.536,16.304,eccentric,6,5.0,18554.0,403431.0,211235.0,71272.0,3882.0
2026-04-09 22:23:25.844904,381692,2335788252,2335789760,-1.237568,0.247904,-0.011712,-0.4375,-11.9,16.49375,23.320002,-4.232,17.144001,eccentric,6,5.0,18554.0,403431.0,211235.0,71272.0,3882.0
2026-04-09 22:23:25.847376,381693,2335797183,2335798453,-1.237568,0.247904,-0.011712,10.00125,-10.64875,20.3875,23.320002,-4.232,17.144001,eccentric,6,5.0,18554.0,403431.0,211235.0,71272.0,3882.0
2026-04-09 22:23:25.875663,381703,2335806448,2335807355,-1.192672,0.226432,-0.013664,15.70625,-12.39875,20.09875,22.664001,-3.816,17.568,eccentric,6,5.0,18420.0,403431.0,212995.0,72796.0,4237.0
2026-04-09 22:23:25.877631,381704,2335821006,2335822268,-1.192672,0.226432,-0.013664,11.4975,-15.86375,16.89625,22.664001,-3.816,17.568,eccentric,6,5.0,18420.0,403431.0,212995.0,72796.0,4237.0
2026-04-09 22:23:25.879861,381705,2335829985,2335831010,-1.147776,0.0976,0.001952,4.94375,-18.31375,14.14,22.704,-3.696,18.424002,eccentric,6,5.0,18420.0,403431.0,212995.0,72796.0,4237.0
2026-04-09 22:23:25.882367,381706,2335839026,2335839733,-1.147776,0.0976,0.001952,0.6125,-19.5825,12.88,22.704,-3.696,18.424002,eccentric,6,5.0,18420.0,403431.0,212995.0,72796.0,4237.0
2026-04-09 22:23:25.884894,381707,2335854054,2335854652,-1.19072,0.158112,0.07808,0.04375,-19.425,15.575,23.352001,-3.48,19.592001,eccentric,6,5.0,18420.0,403431.0,212995.0,72796.0,4237.0
2026-04-09 22:23:25.915092,381708,2335863376,2335865467,-1.19072,0.158112,0.07808,6.93,-18.55875,20.5975,23.352001,-3.48,19.592001,eccentric,6,5.0,18420.0,403431.0,212995.0,72796.0,4237.0
2026-04-09 22:23:25.918731,381709,2335872339,2335874194,-1.247328,0.21472,0.037088,12.5125,-17.255,23.2925,24.208002,-3.736,18.696001,eccentric,6,5.0,18420.0,403431.0,212995.0,72796.0,4237.0
2026-04-09 22:23:25.921155,381710,2335881465,2335882902,-1.247328,0.21472,0.037088,8.715,-17.605,23.19625,24.208002,-3.736,18.696001,eccentric,6,5.0,18420.0,403431.0,212995.0,72796.0,4237.0
2026-04-09 22:23:25.952491,381711,2335895996,2335897819,-1.18096,0.140544,0.072224,0.105,-17.70125,23.68625,24.928001,-4.152,18.368,eccentric,6,5.0,18420.0,403431.0,212995.0,72796.0,4237.0
2026-04-09 22:23:25.977383,381721,2335905449,2335906579,-1.18096,0.140544,0.072224,-4.2175,-16.58125,24.465,24.928001,-4.152,18.368,eccentric,6,5.0,18339.0,403431.0,214553.0,74149.0,4590.0
2026-04-09 22:23:25.979924,381722,2335914505,2335915359,-1.198528,0.163968,0.072224,-2.42375,-14.875,24.9375,24.832,-3.776,18.592001,eccentric,6,5.0,18339.0,403431.0,214553.0,74149.0,4590.0
2026-04-09 22:23:25.982355,381723,2335923430,2335924067,-1.198528,0.163968,0.072224,-0.49875,-14.0525,26.3725,24.832,-3.776,18.592001,eccentric,6,5.0,18339.0,403431.0,214553.0,74149.0,4590.0
2026-04-09 22:23:25.984841,381724,2335938305,2335938981,-1.212192,0.191296,0.081984,-0.3325,-13.06375,26.52125,24.736002,-4.376,18.744001,eccentric,6,5.0,18339.0,403431.0,214553.0,74149.0,4590.0
2026-04-09 22:23:25.987439,381725,2335947610,2335949813,-1.22,0.16592,0.011712,-1.2425,-11.9,27.30875,23.896002,-4.832,19.848001,eccentric,6,5.0,18339.0,403431.0,214553.0,74149.0,4590.0
2026-04-09 22:23:25.989873,381726,2335956603,2335958530,-1.22,0.16592,0.011712,-3.6225,-13.99125,27.79,23.896002,-4.832,19.848001,eccentric,6,5.0,18339.0,403431.0,214553.0,74149.0,4590.0
2026-04-09 22:23:26.020138,381727,2335971147,2335973437,-1.175104,0.095648,-0.005856,-5.27625,-16.835001,27.9825,24.872002,-4.664,20.088001,eccentric,6,5.0,18339.0,403431.0,214553.0,74149.0,4590.0
2026-04-09 22:23:26.023715,381728,2335980075,2335982145,-1.175104,0.095648,-0.005856,-3.21125,-18.1125,28.35,24.872002,-4.664,20.088001,eccentric,6,5.0,18339.0,403431.0,214553.0,74149.0,4590.0
2026-04-09 22:23:26.027001,381729,2335989000,2335990850,-1.184864,0.124928,0.122976,5.46,-17.78875,29.19875,25.960001,-4.536,19.096,eccentric,6,5.0,18339.0,403431.0,214553.0,74149.0,4590.0
2026-04-09 22:23:26.028614,381730,2335997955,2335999575,-1.184864,0.124928,0.122976,14.16625,-16.16125,30.31875,25.960001,-4.536,19.096,eccentric,6,5.0,18339.0,403431.0,214553.0,74149.0,4590.0
2026-04-09 22:23:26.062373,381741,2336013088,2336014648,-1.165344,0.218624,0.132736,16.135,-13.02,30.38875,25.912,-4.592,20.544,eccentric,6,5.0,18191.0,403431.0,216079.0,75352.0,4904.0
2026-04-09 22:23:26.064917,381742,2336022107,2336023400,-1.165344,0.218624,0.132736,12.24125,-10.22875,30.817501,25.912,-4.592,20.544,eccentric,6,5.0,18191.0,403431.0,216079.0,75352.0,4904.0
2026-04-09 22:23:26.067372,381743,2336031177,2336032164,-1.177056,0.18544,0.056608,2.42375,-9.24875,29.505001,25.192001,-5.256,21.504002,eccentric,6,5.0,18191.0,403431.0,216079.0,75352.0,4904.0
2026-04-09 22:23:26.133857,381744,2336045791,2336047097,-1.177056,0.18544,0.056608,-8.1725,-9.555,29.715,25.192001,-5.256,21.504002,eccentric,6,5.0,18191.0,403431.0,216079.0,75352.0,4904.0
2026-04-09 22:23:26.137464,381745,2336054703,2336055791,-1.184864,0.093696,0.031232,-12.48625,-10.167501,30.178751,25.408,-5.288,21.864,eccentric,6,5.0,18191.0,403431.0,216079.0,75352.0,4904.0
2026-04-09 22:23:26.139838,381746,2336063626,2336064497,-1.184864,0.093696,0.031232,-8.47,-10.24625,29.91625,25.408,-5.288,21.864,eccentric,6,5.0,18191.0,403431.0,216079.0,75352.0,4904.0
2026-04-09 22:23:26.142388,381747,2336072569,2336073237,-1.157536,0.10736,0.060512,0.4375,-10.05375,30.02125,26.176,-5.28,21.152,eccentric,6,5.0,18191.0,403431.0,216079.0,75352.0,4904.0
2026-04-09 22:23:26.144868,381748,2336087388,2336088261,-1.139968,0.163968,0.052704,10.87625,-9.135,30.03,26.424002,-5.656,22.256,eccentric,6,5.0,18191.0,403431.0,216079.0,75352.0,4904.0
2026-04-09 22:23:26.147442,381749,2336096317,2336097002,-1.139968,0.163968,0.052704,15.89,-8.3825,29.40875,26.424002,-5.656,22.256,eccentric,6,5.0,18191.0,403431.0,216079.0,75352.0,4904.0
2026-04-09 22:23:26.172407,381759,2336106293,2336107792,-1.139968,0.163968,0.052704,14.9275,-8.40875,29.02375,26.424002,-5.656,22.256,eccentric,6,5.0,18075.0,403431.0,216956.0,76101.0,5121.0
2026-04-09 22:23:26.174919,381760,2336115266,2336116542,-1.147776,0.162016,0.103456,11.66375,-8.575,28.49,26.672,-5.664,21.016,eccentric,6,5.0,18075.0,403431.0,216956.0,76101.0,5121.0
2026-04-09 22:23:26.177377,381761,2336129831,2336131562,-1.126304,0.160064,0.099552,9.065,-8.0325,28.20125,27.28,-6.12,21.168001,eccentric,6,5.0,18075.0,403431.0,216956.0,76101.0,5121.0
2026-04-09 22:23:26.179942,381762,2336138828,2336140364,-1.126304,0.160064,0.099552,7.84,-5.845,28.0525,27.28,-6.12,21.168001,eccentric,6,5.0,18075.0,403431.0,216956.0,76101.0,5121.0
2026-04-09 22:23:26.182447,381763,2336147754,2336149098,-1.100928,0.158112,0.076128,6.13375,-4.725,26.18875,27.376001,-6.576,21.544,eccentric,6,5.0,18075.0,403431.0,216956.0,76101.0,5121.0
2026-04-09 22:23:26.212607,381764,2336162279,2336164031,-1.100928,0.158112,0.076128,4.865,-3.14125,24.9725,27.376001,-6.576,21.544,eccentric,6,5.0,18075.0,403431.0,216956.0,76101.0,5121.0
2026-04-09 22:23:26.216151,381765,2336171252,2336172827,-1.10288,0.124928,0.0488,4.0425,-2.87875,22.47,27.352001,-6.272,22.312,eccentric,6,5.0,18075.0,403431.0,216956.0,76101.0,5121.0
2026-04-09 22:23:26.224933,381766,2336180175,2336181576,-1.10288,0.124928,0.0488,4.24375,-2.40625,20.3525,27.352001,-6.272,22.312,eccentric,6,5.0,18075.0,403431.0,216956.0,76101.0,5121.0
2026-04-09 22:23:26.227398,381767,2336194682,2336196486,-1.100928,0.142496,0.03904,4.13,-2.45875,20.8775,27.632002,-6.768,22.384,eccentric,6,5.0,18075.0,403431.0,216956.0,76101.0,5121.0
2026-04-09 22:23:26.257295,381777,2336203665,2336205271,-1.100928,0.142496,0.03904,6.02,-2.63375,20.44,27.632002,-6.768,22.384,eccentric,6,5.0,18016.0,403431.0,217432.0,76590.0,5291.0
2026-04-09 22:23:26.259859,381778,2336212616,2336213971,-1.071648,0.130784,0.076128,6.6325,-2.3975,17.85875,27.36,-6.512,22.376001,eccentric,6,5.0,18016.0,403431.0,217432.0,76590.0,5291.0
2026-04-09 22:23:26.262530,381779,2336227233,2336228938,-1.071648,0.130784,0.07808,7.3325,-1.715,16.47625,27.36,-6.512,22.376001,eccentric,6,5.0,18016.0,403431.0,217432.0,76590.0,5291.0
2026-04-09 22:23:26.267424,381780,2336236213,2336237639,-1.067744,0.150304,0.07808,8.39125,-0.77875,15.67125,27.816002,-6.544,22.544,eccentric,6,5.0,18016.0,403431.0,217432.0,76590.0,5291.0
2026-04-09 22:23:26.297631,381781,2336245158,2336246328,-1.067744,0.150304,0.07808,9.695,-0.37625,14.1925,27.816002,-6.544,22.544,eccentric,6,5.0,18016.0,403431.0,217432.0,76590.0,5291.0
2026-04-09 22:23:26.301274,381782,2336254094,2336255043,-1.061888,0.144448,0.050752,10.255,0.55125,13.16875,27.912,-6.64,22.984001,eccentric,6,5.0,18016.0,403431.0,217432.0,76590.0,5291.0
2026-04-09 22:23:26.303625,381783,2336268564,2336269941,-1.052128,0.150304,0.052704,9.695,0.34125,11.41875,28.504002,-6.8,24.368002,eccentric,6,5.0,18016.0,403431.0,217432.0,76590.0,5291.0
2026-04-09 22:23:26.308598,381784,2336277489,2336278666,-1.052128,0.150304,0.052704,8.8375,1.28625,10.325,28.504002,-6.8,24.368002,eccentric,6,5.0,18016.0,403431.0,217432.0,76590.0,5291.0
2026-04-09 22:23:26.338984,381785,2336286408,2336287368,-1.052128,0.150304,0.052704,8.365,2.0825,8.40875,28.504002,-6.8,24.368002,eccentric,6,5.0,18016.0,403431.0,217432.0,76590.0,5291.0
2026-04-09 22:23:26.342368,381786,2336300861,2336302261,-1.038464,0.140544,0.076128,7.8225,2.7125,6.09,29.056002,-6.472,22.512001,eccentric,6,5.0,18016.0,403431.0,217432.0,76590.0,5291.0
2026-04-09 22:23:26.377379,381797,2336309931,2336311013,-1.03456,0.152256,0.064416,8.0675,3.6575,3.82375,28.752,-6.88,21.472,eccentric,6,5.0,17905.0,403431.0,218266.0,77322.0,5549.0
2026-04-09 22:23:26.379884,381798,2336318872,2336319672,-1.03456,0.152256,0.064416,8.02375,4.3925,4.27,28.752,-6.88,21.472,eccentric,6,5.0,17905.0,403431.0,218266.0,77322.0,5549.0
2026-04-09 22:23:26.382392,381799,2336333392,2336334638,-1.03456,0.142496,0.044896,7.21875,4.64625,4.3225,28.760002,-6.856,24.176,eccentric,6,5.0,17905.0,403431.0,218266.0,77322.0,5549.0
2026-04-09 22:23:26.384893,381800,2336342312,2336343389,-1.03456,0.142496,0.044896,5.87125,5.2325,2.7125,28.760002,-6.856,24.176,eccentric,6,5.0,17905.0,403431.0,218266.0,77322.0,5549.0
2026-04-09 22:23:26.387414,381801,2336351270,2336352143,-1.040416,0.142496,0.072224,4.69,5.87125,2.2925,27.736002,-7.192,24.344002,eccentric,6,5.0,17905.0,403431.0,218266.0,77322.0,5549.0
2026-04-09 22:23:26.389841,381802,2336360189,2336360874,-1.040416,0.142496,0.072224,4.99625,6.4225,0.51625,27.736002,-7.192,24.344002,eccentric,6,5.0,17905.0,403431.0,218266.0,77322.0,5549.0
2026-04-09 22:23:26.434429,381803,2336375058,2336375790,-1.046272,0.181536,0.085888,6.74625,7.49875,-2.00375,27.680002,-6.8,22.744001,eccentric,6,5.0,17905.0,403431.0,218266.0,77322.0,5549.0
2026-04-09 22:23:26.436361,381804,2336384377,2336386542,-1.046272,0.181536,0.085888,7.14,8.085,-4.20875,27.680002,-6.8,22.744001,eccentric,6,5.0,17905.0,403431.0,218266.0,77322.0,5549.0
2026-04-09 22:23:26.438642,381805,2336393307,2336395251,-1.056032,0.1952,0.050752,5.915,8.47875,-6.335,28.640001,-6.968,23.12,eccentric,6,5.0,17905.0,403431.0,218266.0,77322.0,5549.0
