pc_time,serial_num,sensor_ts,host_ts,ax,ay,az,gx,gy,gz,mx,my,mz,phase,rpe,weight_kg,ppg_a,ppg_b,ppg_c,ppg_d,ppg_e
2026-04-09 22:23:04.706519,377750,2314654598,2314656438,-1.075552,0.179584,0.062464,6.3,9.33625,-11.515,26.936,-10.232,19.512001,concentric,6,5.0,19078.0,403431.0,221218.0,81156.0,7124.0
2026-04-09 22:23:04.724640,377751,2314663523,2314665171,-1.067744,0.210816,0.089792,9.03875,9.02125,-13.02875,26.12,-10.744,21.84,concentric,6,5.0,19078.0,403431.0,221218.0,81156.0,7124.0
2026-04-09 22:23:04.726345,377752,2314672497,2314673857,-1.067744,0.210816,0.089792,9.65125,8.77625,-14.9275,26.12,-10.744,21.84,concentric,6,5.0,19078.0,403431.0,221218.0,81156.0,7124.0
2026-04-09 22:23:04.751729,377762,2314687197,2314688835,-1.052128,0.183488,0.083936,11.40125,8.68,-16.94875,26.256,-10.504001,21.952002,concentric,6,5.0,19033.0,403431.0,222103.0,81779.0,7308.0
2026-04-09 22:23:04.752916,377763,2314696114,2314697511,-1.052128,0.183488,0.083936,9.485,8.5225,-19.81,26.256,-10.504001,21.952002,concentric,6,5.0,19033.0,403431.0,222103.0,81779.0,7308.0
2026-04-09 22:23:04.757119,377764,2314705150,2314706218,-1.050176,0.201056,0.052704,7.69125,9.09125,-21.735,25.672,-10.528001,21.272001,concentric,6,5.0,19033.0,403431.0,222103.0,81779.0,7308.0
2026-04-09 22:23:04.758809,377765,2314714096,2314714956,-1.050176,0.201056,0.052704,8.2425,10.56125,-23.30125,25.672,-10.528001,21.272001,concentric,6,5.0,19033.0,403431.0,222103.0,81779.0,7308.0
2026-04-09 22:23:04.760360,377766,2314728585,2314729874,-1.085312,0.199104,0.072224,7.00875,12.136251,-25.2525,25.464,-10.088,21.032001,concentric,6,5.0,19033.0,403431.0,222103.0,81779.0,7308.0
2026-04-09 22:23:04.817770,377767,2314737494,2314738707,-1.085312,0.199104,0.072224,8.2775,12.06625,-25.29625,25.464,-10.088,21.032001,concentric,6,5.0,19033.0,403431.0,222103.0,81779.0,7308.0
2026-04-09 22:23:04.820010,377768,2314746395,2314747495,-1.061888,0.18544,0.091744,11.725,11.0775,-25.62875,25.976002,-9.896001,21.160002,concentric,6,5.0,19033.0,403431.0,222103.0,81779.0,7308.0
2026-04-09 22:23:04.824584,377769,2314760844,2314762404,-1.061888,0.18544,0.091744,13.667501,10.3075,-25.99625,25.976002,-9.896001,21.160002,concentric,6,5.0,19033.0,403431.0,222103.0,81779.0,7308.0
2026-04-09 22:23:04.827035,377770,2314769766,2314771115,-1.067744,0.275232,0.091744,16.70375,11.29625,-26.5125,25.624,-8.992001,20.168001,concentric,6,5.0,19033.0,403431.0,222103.0,81779.0,7308.0
2026-04-09 22:23:04.827936,377771,2314778766,2314779860,-1.067744,0.275232,0.091744,18.50625,12.145,-29.435,25.624,-8.992001,20.168001,concentric,6,5.0,19033.0,403431.0,222103.0,81779.0,7308.0
2026-04-09 22:23:04.857639,377781,2314793347,2314794803,-1.081408,0.300608,0.089792,15.39125,13.27375,-32.4975,25.976002,-8.856,20.344002,concentric,6,5.0,19009.0,403431.0,222303.0,81896.0,7347.0
2026-04-09 22:23:04.859170,377782,2314802316,2314803557,-1.081408,0.257664,0.08784,10.94625,13.755,-34.72875,25.976002,-8.856,22.392,concentric,6,5.0,19009.0,403431.0,222303.0,81896.0,7347.0
2026-04-09 22:23:04.863415,377783,2314811221,2314812304,-1.069696,0.257664,0.08784,8.155,14.06125,-37.51125,25.464,-9.200001,21.088001,concentric,6,5.0,19009.0,403431.0,222303.0,81896.0,7347.0
2026-04-09 22:23:04.865090,377784,2314825710,2314827272,-1.085312,0.259616,0.054656,6.95625,15.00625,-38.78875,24.928001,-8.272,20.816002,concentric,6,5.0,19009.0,403431.0,222303.0,81896.0,7347.0
2026-04-09 22:23:04.866662,377785,2314834700,2314835967,-1.085312,0.259616,0.054656,7.8225,14.752501,-39.17375,24.928001,-8.272,20.816002,concentric,6,5.0,19009.0,403431.0,222303.0,81896.0,7347.0
2026-04-09 22:23:04.897767,377786,2314843611,2314844700,-1.075552,0.251808,0.037088,8.8025,13.886251,-40.69625,25.056002,-8.08,20.160002,concentric,6,5.0,19009.0,403431.0,222303.0,81896.0,7347.0
2026-04-09 22:23:04.902185,377787,2314852528,2314853463,-1.075552,0.251808,0.037088,9.905,12.88,-41.58875,25.056002,-8.08,20.160002,concentric,6,5.0,19009.0,403431.0,222303.0,81896.0,7347.0
2026-04-09 22:23:04.903839,377788,2314867007,2314868361,-1.104832,0.259616,0.074176,11.64625,12.62625,-41.86,25.752,-7.968,19.640001,concentric,6,5.0,19009.0,403431.0,222303.0,81896.0,7347.0
2026-04-09 22:23:04.906040,377789,2314875898,2314877053,-1.104832,0.259616,0.074176,13.25625,12.5825,-42.201252,25.752,-7.968,19.640001,concentric,6,5.0,19009.0,403431.0,222303.0,81896.0,7347.0
2026-04-09 22:23:04.961842,377800,2314885477,2314885785,-1.089216,0.277184,0.1464,11.66375,13.2125,-42.65625,24.536001,-7.912,20.312,concentric,6,5.0,18933.0,403431.0,223389.0,82638.0,7538.0
2026-04-09 22:23:04.965943,377801,2314900257,2314900757,-1.089216,0.277184,0.1464,9.37125,14.595,-43.00625,24.536001,-7.912,20.312,concentric,6,5.0,18933.0,403431.0,223389.0,82638.0,7538.0
2026-04-09 22:23:04.967591,377802,2314909604,2314911525,-1.104832,0.275232,0.056608,6.76375,16.345,-43.30375,24.872002,-7.448,19.448002,concentric,6,5.0,18933.0,403431.0,223389.0,82638.0,7538.0
2026-04-09 22:23:04.969217,377803,2314918545,2314920264,-1.104832,0.275232,0.056608,2.45875,16.94875,-43.60125,24.872002,-7.448,19.448002,concentric,6,5.0,18933.0,403431.0,223389.0,82638.0,7538.0
2026-04-09 22:23:04.973458,377804,2314927498,2314929014,-1.114592,0.23424,0.056608,-0.76125,17.1325,-44.1175,25.44,-7.464,19.184,concentric,6,5.0,18933.0,403431.0,223389.0,82638.0,7538.0
2026-04-09 22:23:04.975011,377805,2314942062,2314944007,-1.114592,0.23424,0.056608,-0.8575,17.85,-45.0625,25.44,-7.464,19.184,concentric,6,5.0,18933.0,403431.0,223389.0,82638.0,7538.0
2026-04-09 22:23:04.982118,377806,2314951078,2314952748,-1.11264,0.261568,0.0976,2.19625,18.96125,-45.045002,24.768002,-7.104001,19.224,concentric,6,5.0,18933.0,403431.0,223389.0,82638.0,7538.0
2026-04-09 22:23:05.024092,377807,2314960043,2314961464,-1.11264,0.261568,0.0976,5.915,20.2125,-45.43875,24.768002,-7.104001,19.224,concentric,6,5.0,18933.0,403431.0,223389.0,82638.0,7538.0
2026-04-09 22:23:05.026318,377808,2314974522,2314976361,-1.128256,0.257664,0.037088,4.13875,20.0375,-44.98375,24.112001,-6.88,19.432001,concentric,6,5.0,18933.0,403431.0,223389.0,82638.0,7538.0
2026-04-09 22:23:05.053780,377818,2314983440,2314985229,-1.116544,0.208864,0.044896,-0.175,18.96125,-44.61625,24.472002,-6.512,15.824,concentric,6,5.0,18871.0,403431.0,224225.0,83262.0,7763.0
2026-04-09 22:23:05.056057,377819,2314992385,2314993909,-1.116544,0.208864,0.044896,-2.24875,18.69,-44.09125,24.472002,-6.512,15.824,concentric,6,5.0,18871.0,403431.0,224225.0,83262.0,7763.0
2026-04-09 22:23:05.057685,377820,2315001342,2315002654,-1.116544,0.208864,0.044896,-1.5225,17.75375,-44.31875,24.472002,-6.512,15.824,concentric,6,5.0,18871.0,403431.0,224225.0,83262.0,7763.0
2026-04-09 22:23:05.059192,377821,2315015901,2315017610,-1.143872,0.222528,0.031232,1.39125,16.98375,-44.45875,24.136002,-6.272,18.328001,concentric,6,5.0,18871.0,403431.0,224225.0,83262.0,7763.0
2026-04-09 22:23:05.063507,377822,2315024855,2315026377,-1.149728,0.218624,0.054656,4.62,16.56375,-43.3125,24.096,-6.216,18.608002,concentric,6,5.0,18871.0,403431.0,224225.0,83262.0,7763.0
2026-04-09 22:23:05.065877,377823,2315033922,2315035180,-1.149728,0.218624,0.054656,6.08125,15.37375,-41.825,24.096,-6.216,18.608002,concentric,6,5.0,18871.0,403431.0,224225.0,83262.0,7763.0
2026-04-09 22:23:05.119153,377824,2315048477,2315050131,-1.134112,0.183488,0.033184,5.1625,14.2275,-41.11625,24.184002,-5.792,17.568,concentric,6,5.0,18871.0,403431.0,224225.0,83262.0,7763.0
2026-04-09 22:23:05.121354,377825,2315057422,2315058887,-1.134112,0.183488,0.033184,4.1475,11.5675,-40.005,24.184002,-5.792,17.568,concentric,6,5.0,18871.0,403431.0,224225.0,83262.0,7763.0
2026-04-09 22:23:05.125956,377826,2315066341,2315067583,-1.118496,0.1952,0.0488,4.40125,10.0625,-39.29625,24.264002,-5.4,17.512001,concentric,6,5.0,18871.0,403431.0,224225.0,83262.0,7763.0
2026-04-09 22:23:05.127709,377827,2315080810,2315082529,-1.118496,0.1952,0.0488,4.38375,10.15875,-38.75375,24.264002,-5.4,17.512001,concentric,6,5.0,18871.0,403431.0,224225.0,83262.0,7763.0
2026-04-09 22:23:05.153501,377837,2315089921,2315091258,-1.100928,0.226432,0.099552,4.445,12.1625,-38.57,23.160002,-5.816001,17.792002,concentric,6,5.0,18787.0,403431.0,225519.0,84091.0,8035.0
2026-04-09 22:23:05.156598,377838,2315098934,2315099968,-1.100928,0.226432,0.099552,4.61125,15.715,-38.68375,23.160002,-5.816001,17.792002,concentric,6,5.0,18787.0,403431.0,225519.0,84091.0,8035.0
2026-04-09 22:23:05.157618,377839,2315108015,2315108814,-1.106784,0.232288,0.0976,1.00625,19.32,-38.535,22.808,-5.696,18.224,concentric,6,5.0,18787.0,403431.0,225519.0,84091.0,8035.0
2026-04-09 22:23:05.159166,377840,2315123186,2315123805,-1.106784,0.232288,0.066368,-3.77125,23.0825,-38.01875,22.808,-5.696,18.224,concentric,6,5.0,18787.0,403431.0,225519.0,84091.0,8035.0
2026-04-09 22:23:05.164684,377841,2315132502,2315134594,-1.085312,0.206912,0.076128,-9.33625,25.4625,-39.7425,22.68,-4.8,17.944,concentric,6,5.0,18787.0,403431.0,225519.0,84091.0,8035.0
2026-04-09 22:23:05.175919,377842,2315141472,2315143288,-1.085312,0.206912,0.076128,-13.265,27.23,-39.69875,22.68,-4.8,17.944,concentric,6,5.0,18787.0,403431.0,225519.0,84091.0,8035.0
2026-04-09 22:23:05.182128,377843,2315150496,2315152035,-1.097024,0.193248,0.007808,-16.14375,28.28875,-39.0075,22.160002,-4.976,16.912,concentric,6,5.0,18787.0,403431.0,225519.0,84091.0,8035.0
2026-04-09 22:23:05.210521,377844,2315164981,2315166957,-1.114592,0.17568,0.03904,-16.9575,29.286251,-39.82125,21.984001,-4.784,19.344002,concentric,6,5.0,18787.0,403431.0,225519.0,84091.0,8035.0
2026-04-09 22:23:05.215175,377845,2315173895,2315175643,-1.114592,0.17568,0.03904,-13.895,30.40625,-37.8875,21.984001,-4.784,19.344002,concentric,6,5.0,18787.0,403431.0,225519.0,84091.0,8035.0
2026-04-09 22:23:05.216656,377846,2315182839,2315184322,-1.114592,0.17568,0.03904,-11.795,30.65125,-37.75625,21.984001,-4.784,19.344002,concentric,6,5.0,18787.0,403431.0,225519.0,84091.0,8035.0
2026-04-09 22:23:05.246708,377857,2315197362,2315199243,-1.075552,0.171776,-0.001952,-12.95,30.03,-38.08,22.656,-4.736,16.432001,concentric,6,5.0,18801.0,403431.0,225273.0,84032.0,8042.0
2026-04-09 22:23:05.250976,377858,2315206359,2315207992,-1.1224,0.148352,-0.02928,-12.6,29.33875,-36.575,21.432001,-4.512,16.656,concentric,6,5.0,18801.0,403431.0,225273.0,84032.0,8042.0
2026-04-09 22:23:05.252526,377859,2315215529,2315216841,-1.1224,0.148352,-0.02928,-12.55625,27.8075,-36.8025,21.432001,-4.512,16.656,concentric,6,5.0,18801.0,403431.0,225273.0,84032.0,8042.0
2026-04-09 22:23:05.281906,377860,2315230114,2315231830,-1.09312,0.154208,-0.0488,-11.13875,27.20375,-35.06125,21.232,-4.432,16.968,concentric,6,5.0,18801.0,403431.0,225273.0,84032.0,8042.0
2026-04-09 22:23:05.285482,377861,2315239102,2315240535,-1.09312,0.154208,-0.0488,-8.785,26.32875,-34.4225,21.232,-4.432,16.968,concentric,6,5.0,18801.0,403431.0,225273.0,84032.0,8042.0
2026-04-09 22:23:05.287916,377862,2315248104,2315249248,-1.11264,0.122976,-0.025376,-7.5425,25.3225,-36.05,21.616001,-4.704,15.912001,concentric,6,5.0,18801.0,403431.0,225273.0,84032.0,8042.0
2026-04-09 22:23:05.290400,377863,2315257012,2315257946,-1.11264,0.122976,-0.025376,-6.1075,25.10375,-35.0875,21.616001,-4.704,15.912001,concentric,6,5.0,18801.0,403431.0,225273.0,84032.0,8042.0
2026-04-09 22:23:05.320646,377864,2315271533,2315272862,-1.130208,0.132736,-0.060512,-3.47375,24.61375,-33.32,21.072,-4.888,14.784,concentric,6,5.0,18801.0,403431.0,225273.0,84032.0,8042.0
2026-04-09 22:23:05.324197,377865,2315280460,2315281579,-1.130208,0.132736,-0.060512,-3.85,23.75625,-33.3725,21.072,-4.888,14.784,concentric,6,5.0,18801.0,403431.0,225273.0,84032.0,8042.0
2026-04-09 22:23:05.349163,377875,2315289897,2315290382,-1.104832,0.122976,-0.054656,-4.2175,23.73,-33.3725,21.68,-4.2,15.264001,concentric,6,5.0,18848.0,403431.0,223985.0,83118.0,7740.0
2026-04-09 22:23:05.351616,377876,2315304873,2315305338,-1.118496,0.122976,-0.015616,-7.4375,23.21375,-33.55625,19.672,-4.552,16.088001,concentric,6,5.0,18848.0,403431.0,223985.0,83118.0,7740.0
2026-04-09 22:23:05.354131,377877,2315314351,2315316097,-1.118496,0.122976,-0.015616,-10.43875,23.54625,-33.48625,19.672,-4.552,16.088001,concentric,6,5.0,18848.0,403431.0,223985.0,83118.0,7740.0
2026-04-09 22:23:05.356748,377878,2315323315,2315324864,-1.118496,0.122976,-0.015616,-8.46125,25.305,-33.7225,19.672,-4.552,16.088001,concentric,6,5.0,18848.0,403431.0,223985.0,83118.0,7740.0
2026-04-09 22:23:05.363014,377879,2315332257,2315333586,-1.057984,0.113216,0.013664,-9.073751,27.2825,-35.84,19.584002,-4.576,16.336,concentric,6,5.0,18848.0,403431.0,223985.0,83118.0,7740.0
2026-04-09 22:23:05.416970,377880,2315346763,2315348549,-1.09312,0.128832,-0.089792,-12.81875,30.26625,-37.35375,20.12,-3.672,14.624001,concentric,6,5.0,18848.0,403431.0,223985.0,83118.0,7740.0
2026-04-09 22:23:05.420457,377881,2315355724,2315357274,-1.09312,0.128832,-0.089792,-18.69875,32.1125,-35.7525,20.12,-3.672,14.624001,concentric,6,5.0,18848.0,403431.0,223985.0,83118.0,7740.0
2026-04-09 22:23:05.422954,377882,2315364653,2315365986,-1.077504,0.015616,-0.203008,-26.20625,29.18125,-34.615,20.12,-3.672,13.8,concentric,6,5.0,18848.0,403431.0,223985.0,83118.0,7740.0
2026-04-09 22:23:05.425482,377883,2315379146,2315380862,-1.077504,0.015616,-0.203008,-32.7775,23.87875,-34.5275,19.864,-3.928,13.8,concentric,6,5.0,18848.0,403431.0,223985.0,83118.0,7740.0
2026-04-09 22:23:05.450369,377893,2315388313,2315389750,-1.077504,0.025376,-0.111264,-27.9825,18.99625,-32.52375,19.768002,-4.328,14.096001,concentric,6,5.0,18917.0,403431.0,223381.0,82940.0,7822.0
2026-04-09 22:23:05.452952,377894,2315397264,2315398477,-1.077504,0.025376,-0.111264,-13.1075,15.56625,-30.66875,19.768002,-4.328,14.096001,concentric,6,5.0,18917.0,403431.0,223381.0,82940.0,7822.0
2026-04-09 22:23:05.455317,377895,2315406256,2315407205,-1.091168,0.074176,-0.066368,0.5075,14.07875,-30.54625,19.896002,-4.056,14.792001,concentric,6,5.0,18917.0,403431.0,223381.0,82940.0,7822.0
2026-04-09 22:23:05.457883,377896,2315420990,2315422097,-1.091168,0.074176,-0.066368,6.15125,12.6525,-29.35625,19.896002,-4.056,14.792001,concentric,6,5.0,18917.0,403431.0,223381.0,82940.0,7822.0
2026-04-09 22:23:05.460510,377897,2315429936,2315430826,-1.056032,0.033184,-0.054656,6.04625,12.73125,-29.75875,19.056002,-4.192,14.928,concentric,6,5.0,18917.0,403431.0,223381.0,82940.0,7822.0
2026-04-09 22:23:05.471755,377898,2315438883,2315439575,-1.056032,0.033184,-0.054656,1.33,13.965,-30.66875,19.056002,-4.192,14.928,concentric,6,5.0,18917.0,403431.0,223381.0,82940.0,7822.0
2026-04-09 22:23:05.500717,377899,2315453769,2315454447,-1.050176,0.052704,-0.015616,-0.595,16.8875,-30.5725,19.328001,-4.088,13.904,concentric,6,5.0,18917.0,403431.0,223381.0,82940.0,7822.0
2026-04-09 22:23:05.504189,377900,2315463114,2315465220,-1.050176,0.052704,-0.015616,-2.6075,18.9,-30.84375,19.328001,-4.088,13.904,concentric,6,5.0,18917.0,403431.0,223381.0,82940.0,7822.0
2026-04-09 22:23:05.506648,377901,2315472057,2315473954,-1.130208,0.062464,-0.083936,-3.77125,18.9175,-28.63875,19.36,-3.784,14.248001,concentric,6,5.0,18917.0,403431.0,223381.0,82940.0,7822.0
2026-04-09 22:23:05.510407,377902,2315480987,2315482651,-1.130208,0.062464,-0.083936,-5.075,19.18,-30.23125,19.36,-3.784,14.248001,concentric,6,5.0,18917.0,403431.0,223381.0,82940.0,7822.0
2026-04-09 22:23:05.540413,377913,2315495577,2315497623,-1.013088,-0.001952,-0.044896,-6.29125,19.94125,-32.27875,19.080002,-3.84,13.464001,concentric,6,5.0,18986.0,403431.0,221985.0,81778.0,7348.0
2026-04-09 22:23:05.542930,377914,2315504521,2315506336,-1.013088,-0.001952,-0.044896,-5.43375,21.83125,-32.66375,19.080002,-3.84,13.464001,concentric,6,5.0,18986.0,403431.0,221985.0,81778.0,7348.0
2026-04-09 22:23:05.545469,377915,2315513469,2315515089,-1.075552,0.003904,-0.046848,-3.99,24.36,-32.85625,17.92,-3.632,13.56,concentric,6,5.0,18986.0,403431.0,221985.0,81778.0,7348.0
2026-04-09 22:23:05.578167,377916,2315527971,2315529989,-1.0248,0.03904,-0.113216,-3.57,24.94625,-31.7275,18.744001,-3.536,13.296001,concentric,6,5.0,18986.0,403431.0,221985.0,81778.0,7348.0
2026-04-09 22:23:05.581672,377917,2315536868,2315538715,-1.0248,0.03904,-0.113216,-4.9525,23.4325,-31.59625,18.744001,-3.536,13.296001,concentric,6,5.0,18986.0,403431.0,221985.0,81778.0,7348.0
2026-04-09 22:23:05.584143,377918,2315545795,2315547387,-1.095072,0.103456,-0.072224,-4.73375,22.4175,-31.4125,18.448,-3.968,11.984,concentric,6,5.0,18986.0,403431.0,221985.0,81778.0,7348.0
2026-04-09 22:23:05.590411,377919,2315560400,2315562334,-1.095072,0.103456,-0.072224,0.90125,22.91625,-30.1175,18.448,-3.968,11.984,concentric,6,5.0,18986.0,403431.0,221985.0,81778.0,7348.0
2026-04-09 22:23:05.620697,377920,2315569316,2315571029,-1.011136,-0.035136,-0.134688,0.14875,22.04125,-32.6725,17.76,-3.552,14.256001,concentric,6,5.0,18986.0,403431.0,221985.0,81778.0,7348.0
2026-04-09 22:23:05.624215,377921,2315578215,2315579708,-1.011136,-0.035136,-0.134688,-8.8725,20.53625,-35.9275,17.76,-3.552,14.256001,concentric,6,5.0,18986.0,403431.0,221985.0,81778.0,7348.0
2026-04-09 22:23:05.649188,377931,2315592831,2315594893,-1.032608,-0.105408,-0.089792,-12.59125,18.9875,-35.23625,18.016,-3.984,12.712001,concentric,6,5.0,19001.0,403431.0,221307.0,81508.0,7361.0
2026-04-09 22:23:05.651630,377932,2315601755,2315603627,-1.032608,-0.105408,-0.089792,-6.25625,17.19375,-33.5125,18.016,-3.984,12.712001,concentric,6,5.0,19001.0,403431.0,221307.0,81508.0,7361.0
2026-04-09 22:23:05.654198,377933,2315610688,2315612395,-1.139968,0.064416,-0.119072,2.63375,16.6425,-30.065,17.808,-3.272,12.920001,concentric,6,5.0,19001.0,403431.0,221307.0,81508.0,7361.0
2026-04-09 22:23:05.656962,377934,2315619801,2315621111,-1.139968,0.064416,-0.119072,10.03625,16.52,-26.17125,17.808,-3.272,12.920001,concentric,6,5.0,19001.0,403431.0,221307.0,81508.0,7361.0
2026-04-09 22:23:05.664273,377935,2315634291,2315636083,-0.997472,-0.046848,-0.111264,9.56375,13.51,-28.665,17.936,-3.384,12.464001,concentric,6,5.0,19001.0,403431.0,221307.0,81508.0,7361.0
2026-04-09 22:23:05.715868,377936,2315643234,2315644814,-0.997472,-0.046848,-0.111264,0.32375,11.17375,-32.03375,17.936,-3.384,12.464001,concentric,6,5.0,19001.0,403431.0,221307.0,81508.0,7361.0
2026-04-09 22:23:05.719310,377937,2315652167,2315653519,-1.091168,-0.111264,-0.124928,-2.63375,9.065,-28.7875,17.448,-2.888,12.192,concentric,6,5.0,19001.0,403431.0,221307.0,81508.0,7361.0
2026-04-09 22:23:05.721720,377938,2315666639,2315668430,-1.013088,-0.056608,-0.140544,2.135,7.7525,-23.59,17.816,-3.328,13.312,concentric,6,5.0,19001.0,403431.0,221307.0,81508.0,7361.0
2026-04-09 22:23:05.724089,377939,2315675582,2315677132,-1.013088,-0.056608,-0.140544,9.58125,7.42,-20.20375,17.816,-3.328,13.312,concentric,6,5.0,19001.0,403431.0,221307.0,81508.0,7361.0
2026-04-09 22:23:05.726677,377940,2315684487,2315685822,-1.013088,-0.056608,-0.140544,10.78875,5.62625,-21.25375,17.816,-3.328,13.312,concentric,6,5.0,19001.0,403431.0,221307.0,81508.0,7361.0
2026-04-09 22:23:05.756563,377950,2315699153,2315700778,-1.022848,-0.011712,-0.109312,13.86875,4.73375,-20.51,17.664001,-3.352,12.656,concentric,6,5.0,19030.0,403431.0,220411.0,80897.0,7206.0
2026-04-09 22:23:05.759133,377951,2315708153,2315709517,-1.038464,-0.060512,-0.12688,16.65125,3.5,-20.72,17.768002,-2.912,13.744,concentric,6,5.0,19030.0,403431.0,220411.0,80897.0,7206.0
2026-04-09 22:23:05.761640,377952,2315717202,2315718288,-1.038464,-0.060512,-0.12688,12.69625,1.98625,-20.79875,17.768002,-2.912,13.744,concentric,6,5.0,19030.0,403431.0,220411.0,80897.0,7206.0
2026-04-09 22:23:05.764287,377953,2315726128,2315727036,-0.929152,-0.095648,-0.031232,10.94625,1.6625,-19.92375,17.768002,-2.912,13.344001,concentric,6,5.0,19030.0,403431.0,220411.0,80897.0,7206.0
2026-04-09 22:23:05.770459,377954,2315740727,2315741975,-0.935008,-0.095648,-0.031232,12.46,3.68375,-20.09,16.976002,-2.936,13.344001,concentric,6,5.0,19030.0,403431.0,220411.0,80897.0,7206.0
2026-04-09 22:23:05.800690,377955,2315749618,2315750711,-1.120448,0.01952,-0.160064,11.24375,7.42875,-20.09875,16.496,-2.824,12.6,concentric,6,5.0,19030.0,403431.0,220411.0,80897.0,7206.0
2026-04-09 22:23:05.804262,377956,2315758541,2315759407,-1.120448,0.01952,-0.160064,11.235,8.4,-15.9425,16.496,-2.824,12.6,concentric,6,5.0,19030.0,403431.0,220411.0,80897.0,7206.0
2026-04-09 22:23:05.806591,377957,2315773038,2315774336,-0.960384,-0.119072,-0.193248,13.37875,6.48375,-14.88375,16.968,-3.112,14.144001,concentric,6,5.0,19030.0,403431.0,220411.0,80897.0,7206.0
2026-04-09 22:23:05.811734,377958,2315781959,2315783034,-0.960384,-0.119072,-0.193248,7.0175,1.575,-20.25625,16.968,-3.112,14.144001,concentric,6,5.0,19030.0,403431.0,220411.0,80897.0,7206.0
2026-04-09 22:23:05.840429,377968,2315791532,2315791918,-0.911584,-0.179584,-0.10736,6.18625,-2.03,-18.15625,17.056002,-2.064,12.696001,concentric,6,5.0,19086.0,403431.0,219014.0,80021.0,7012.0
2026-04-09 22:23:05.843002,377969,2315801038,2315802816,-0.911584,-0.179584,-0.10736,11.261251,-0.41125,-12.32875,17.056002,-2.064,12.696001,concentric,6,5.0,19086.0,403431.0,219014.0,80021.0,7012.0
2026-04-09 22:23:05.845648,377970,2315815548,2315817739,-1.075552,0.1464,0.076128,23.87875,6.1775,-8.39125,17.464,-2.512,12.176001,concentric,6,5.0,19086.0,403431.0,219014.0,80021.0,7012.0
2026-04-09 22:23:05.875912,377971,2315824543,2315826440,-1.075552,0.1464,0.076128,31.85875,14.44625,-8.9075,17.464,-2.512,12.176001,concentric,6,5.0,19086.0,403431.0,219014.0,80021.0,7012.0
2026-04-09 22:23:05.879235,377972,2315833414,2315835129,-0.903776,0.021472,-0.255712,13.36125,16.4325,-17.053751,17.336,-2.552,12.992001,concentric,6,5.0,19086.0,403431.0,219014.0,80021.0,7012.0
2026-04-09 22:23:05.881745,377973,2315847885,2315850025,-0.989664,-0.386496,-0.171776,-16.37125,11.698751,-20.991251,16.512001,-2.536,12.6,concentric,6,5.0,19086.0,403431.0,219014.0,80021.0,7012.0
2026-04-09 22:23:05.886732,377974,2315856821,2315858812,-0.989664,-0.386496,-0.171776,-29.49625,5.31125,-19.13625,16.512001,-2.536,12.6,concentric,6,5.0,19086.0,403431.0,219014.0,80021.0,7012.0
2026-04-09 22:23:05.916936,377975,2315865739,2315867518,-0.989664,-0.386496,-0.171776,-20.3875,1.7675,-12.3025,16.512001,-2.536,12.6,concentric,6,5.0,19086.0,403431.0,219014.0,80021.0,7012.0
2026-04-09 22:23:05.920461,377976,2315880241,2315882432,-1.1224,-0.021472,-0.257664,13.46625,0.55125,1.0325,16.872002,-2.352,11.384001,concentric,6,5.0,19086.0,403431.0,219014.0,80021.0,7012.0
2026-04-09 22:23:05.955623,377987,2315889154,2315891177,-0.919392,0.001952,-0.113216,38.7625,-1.155,4.17375,16.904001,-2.448,12.648001,concentric,6,5.0,19164.0,403431.0,217813.0,79560.0,7091.0
2026-04-09 22:23:05.957425,377988,2315898579,2315899964,-0.919392,0.001952,-0.113216,38.17625,-4.94375,-3.91125,16.904001,-2.448,12.648001,concentric,6,5.0,19164.0,403431.0,217813.0,79560.0,7091.0
2026-04-09 22:23:05.959282,377989,2315907607,2315908739,-1.003328,-0.244,-0.103456,22.7325,-8.3125,-5.215,17.016,-2.28,12.76,concentric,6,5.0,19164.0,403431.0,217813.0,79560.0,7091.0
2026-04-09 22:23:05.961759,377990,2315922116,2315923685,-1.003328,-0.244,-0.103456,11.095,-11.1125,-3.15875,17.016,-2.28,12.76,concentric,6,5.0,19164.0,403431.0,217813.0,79560.0,7091.0
2026-04-09 22:23:05.964228,377991,2315931048,2315932404,-1.009184,-0.072224,-0.050752,12.25875,-9.765,-0.35875,15.944001,-2.632,13.64,concentric,6,5.0,19164.0,403431.0,217813.0,79560.0,7091.0
2026-04-09 22:23:05.970451,377992,2315940213,2315941175,-1.009184,-0.072224,-0.050752,21.7,-6.58875,6.01125,15.944001,-2.632,13.64,concentric,6,5.0,19164.0,403431.0,217813.0,79560.0,7091.0
2026-04-09 22:23:06.019452,377993,2315954662,2315956169,-0.997472,0.0,-0.18544,19.99375,-5.5825,5.7925,16.808,-2.296,12.528001,concentric,6,5.0,19164.0,403431.0,217813.0,79560.0,7091.0
2026-04-09 22:23:06.022972,377994,2315963619,2315964879,-0.997472,0.0,-0.18544,12.99375,-6.5975,3.43875,16.808,-2.296,12.528001,concentric,6,5.0,19164.0,403431.0,217813.0,79560.0,7091.0
2026-04-09 22:23:06.025457,377995,2315972564,2315973625,-0.950624,-0.212768,-0.12688,7.525,-8.1025,-0.035,17.336,-2.328,12.968,concentric,6,5.0,19164.0,403431.0,217813.0,79560.0,7091.0
2026-04-09 22:23:06.028089,377996,2315981498,2315982319,-0.950624,-0.212768,-0.12688,7.7875,-6.86875,-0.245,17.336,-2.328,12.968,concentric,6,5.0,19164.0,403431.0,217813.0,79560.0,7091.0
2026-04-09 22:23:06.052865,378006,2315996039,2315997243,-1.056032,-0.121024,-0.12688,11.515,-2.65125,4.75125,17.68,-2.536,13.000001,concentric,6,5.0,19220.0,403431.0,216722.0,78623.0,6745.0
2026-04-09 22:23:06.055425,378007,2316005023,2316006008,-1.056032,-0.121024,-0.12688,12.60875,-0.41125,7.77,17.68,-2.536,13.000001,concentric,6,5.0,19220.0,403431.0,216722.0,78623.0,6745.0
2026-04-09 22:23:06.057880,378008,2316013966,2316014748,-0.944768,-0.093696,-0.11712,11.34875,-1.5225,6.3875,17.08,-2.584,12.144001,concentric,6,5.0,19220.0,403431.0,216722.0,78623.0,6745.0
2026-04-09 22:23:06.060428,378009,2316028480,2316029680,-0.968192,-0.189344,-0.109312,7.14875,-1.51375,-0.21,16.76,-2.704,15.512001,concentric,6,5.0,19220.0,403431.0,216722.0,78623.0,6745.0
2026-04-09 22:23:06.090652,378010,2316037472,2316038401,-0.968192,-0.189344,-0.109312,3.78,-0.1225,-1.07625,16.76,-2.704,15.512001,concentric,6,5.0,19220.0,403431.0,216722.0,78623.0,6745.0
2026-04-09 22:23:06.094236,378011,2316046451,2316047120,-0.968192,-0.189344,-0.109312,3.57875,1.35625,2.205,16.76,-2.704,15.512001,concentric,6,5.0,19220.0,403431.0,216722.0,78623.0,6745.0
2026-04-09 22:23:06.096680,378012,2316061362,2316062031,-1.052128,-0.095648,-0.240096,10.96375,2.7825,4.3225,16.784,-2.672,11.424001,concentric,6,5.0,19220.0,403431.0,216722.0,78623.0,6745.0
2026-04-09 22:23:06.101788,378013,2316070654,2316072811,-0.931104,-0.171776,-0.072224,11.0775,0.44625,0.9625,17.272001,-2.368,12.776001,concentric,6,5.0,19220.0,403431.0,216722.0,78623.0,6745.0
2026-04-09 22:23:06.131925,378014,2316079654,2316081549,-0.931104,-0.171776,-0.072224,7.27125,-0.35,-2.65125,17.272001,-2.368,12.776001,concentric,6,5.0,19220.0,403431.0,216722.0,78623.0,6745.0
2026-04-09 22:23:06.135503,378015,2316088668,2316090294,-1.00528,-0.050752,-0.062464,14.7875,1.61,-2.2225,17.608002,-2.072,14.264001,concentric,6,5.0,19220.0,403431.0,216722.0,78623.0,6745.0
2026-04-09 22:23:06.162972,378026,2316103211,2316105210,-1.00528,-0.050752,-0.062464,19.2325,4.2875,-3.325,17.608002,-2.072,14.264001,concentric,6,5.0,19208.0,403431.0,216354.0,78415.0,6705.0
2026-04-09 22:23:06.166179,378027,2316112152,2316113960,-0.979904,-0.074176,-0.148352,17.4125,7.51625,-4.235,17.336,-2.808,13.088,concentric,6,5.0,19208.0,403431.0,216354.0,78415.0,6705.0
2026-04-09 22:23:06.168785,378028,2316121232,2316122714,-0.979904,-0.074176,-0.148352,8.505,8.54,-8.67125,17.336,-2.808,13.088,concentric,6,5.0,19208.0,403431.0,216354.0,78415.0,6705.0
2026-04-09 22:23:06.170509,378029,2316135779,2316137725,-1.01504,-0.179584,-0.0976,-4.4975,8.21625,-8.39125,16.576,-2.744,14.664001,concentric,6,5.0,19208.0,403431.0,216354.0,78415.0,6705.0
2026-04-09 22:23:06.175463,378030,2316144747,2316146435,-1.01504,-0.179584,-0.0976,-4.3225,8.09375,-5.4775,16.576,-2.744,14.664001,concentric,6,5.0,19208.0,403431.0,216354.0,78415.0,6705.0
2026-04-09 22:23:06.205596,378031,2316153782,2316155166,-0.993568,-0.076128,-0.130784,2.30125,8.68,-5.04,16.616001,-2.28,15.128,eccentric,6,5.0,19208.0,403431.0,216354.0,78415.0,6705.0
2026-04-09 22:23:06.209933,378032,2316162732,2316163897,-0.993568,-0.076128,-0.130784,9.4325,8.0325,-6.67625,16.616001,-2.28,15.128,eccentric,6,5.0,19208.0,403431.0,216354.0,78415.0,6705.0
2026-04-09 22:23:06.211669,378033,2316177248,2316178802,-0.948672,-0.095648,-0.046848,7.105,7.42,-9.21375,17.264,-2.536,13.040001,eccentric,6,5.0,19208.0,403431.0,216354.0,78415.0,6705.0
2026-04-09 22:23:06.217898,378034,2316186223,2316187535,-0.948672,-0.095648,-0.046848,2.61625,7.9275,-7.7,17.264,-2.536,13.040001,eccentric,6,5.0,19208.0,403431.0,216354.0,78415.0,6705.0
2026-04-09 22:23:06.242966,378044,2316195584,2316196784,-1.022848,-0.056608,-0.101504,3.1675,10.05375,-5.32875,17.048,-2.528,12.872001,eccentric,6,5.0,19233.0,403431.0,216011.0,78251.0,6740.0
2026-04-09 22:23:06.245405,378045,2316210173,2316211801,-0.99552,-0.080032,-0.119072,1.98625,10.0975,-6.99125,15.816001,-2.112,13.944,eccentric,6,5.0,19233.0,403431.0,216011.0,78251.0,6740.0
2026-04-09 22:23:06.247846,378046,2316219165,2316220558,-0.99552,-0.080032,-0.119072,-2.65125,8.6975,-7.81375,15.816001,-2.112,13.944,eccentric,6,5.0,19233.0,403431.0,216011.0,78251.0,6740.0
2026-04-09 22:23:06.331613,378047,2316228091,2316229250,-0.99552,-0.083936,-0.091744,-0.14875,7.02625,-5.38125,15.816001,-2.112,13.944,eccentric,6,5.0,19233.0,403431.0,216011.0,78251.0,6740.0
2026-04-09 22:23:06.333919,378048,2316242579,2316244135,-0.979904,-0.083936,-0.091744,3.4125,5.6,-6.76375,17.496,-2.336,12.968,eccentric,6,5.0,19233.0,403431.0,216011.0,78251.0,6740.0
2026-04-09 22:23:06.346384,378049,2316251537,2316252857,-0.98576,-0.054656,-0.076128,3.66625,5.08375,-6.79,17.392,-2.848,12.712001,eccentric,6,5.0,19233.0,403431.0,216011.0,78251.0,6740.0
2026-04-09 22:23:06.349482,378050,2316260453,2316261574,-0.98576,-0.054656,-0.076128,2.4675,5.41625,-4.82125,17.392,-2.848,12.712001,eccentric,6,5.0,19233.0,403431.0,216011.0,78251.0,6740.0
2026-04-09 22:23:06.350716,378051,2316269355,2316270288,-0.983808,-0.056608,-0.101504,2.59,5.81,-4.36625,16.880001,-2.528,12.752001,eccentric,6,5.0,19233.0,403431.0,216011.0,78251.0,6740.0
2026-04-09 22:23:06.353067,378052,2316283811,2316285184,-0.983808,-0.056608,-0.101504,-0.875,5.1975,-5.355,16.880001,-2.528,12.752001,eccentric,6,5.0,19233.0,403431.0,216011.0,78251.0,6740.0
2026-04-09 22:23:06.378931,378062,2316293034,2316293864,-0.997472,-0.044896,-0.173728,-4.85625,2.3975,-3.78,17.224,-2.128,12.664001,eccentric,6,5.0,19266.0,403431.0,215502.0,77860.0,6590.0
2026-04-09 22:23:06.380506,378063,2316302002,2316302579,-0.997472,-0.044896,-0.173728,-5.5475,0.04375,-1.505,17.224,-2.128,12.664001,eccentric,6,5.0,19266.0,403431.0,215502.0,77860.0,6590.0
2026-04-09 22:23:06.384680,378064,2316316805,2316317545,-1.001376,-0.101504,-0.0976,-6.53625,-1.88125,-2.40625,17.36,-2.576,13.488001,eccentric,6,5.0,19266.0,403431.0,215502.0,77860.0,6590.0
2026-04-09 22:23:06.386418,378065,2316326298,2316328378,-1.001376,-0.101504,-0.0976,-1.925,-2.00375,-0.5075,17.36,-2.576,13.488001,eccentric,6,5.0,19266.0,403431.0,215502.0,77860.0,6590.0
2026-04-09 22:23:06.388875,378066,2316335333,2316337127,-1.026752,-0.02928,-0.025376,5.88,-0.07,1.93375,17.104,-2.544,14.824,eccentric,6,5.0,19266.0,403431.0,215502.0,77860.0,6590.0
2026-04-09 22:23:06.390366,378067,2316344381,2316345832,-1.026752,-0.02928,-0.025376,6.685,2.1175,2.3275,17.104,-2.544,14.824,eccentric,6,5.0,19266.0,403431.0,215502.0,77860.0,6590.0
2026-04-09 22:23:06.394577,378068,2316359093,2316360871,-0.958432,-0.050752,-0.080032,-0.2625,2.82625,1.645,16.720001,-2.152,13.976001,eccentric,6,5.0,19266.0,403431.0,215502.0,77860.0,6590.0
2026-04-09 22:23:06.398766,378069,2316368110,2316369588,-0.958432,-0.050752,-0.080032,-9.61625,2.93125,1.93375,16.720001,-2.152,13.976001,eccentric,6,5.0,19266.0,403431.0,215502.0,77860.0,6590.0
2026-04-09 22:23:06.429997,378070,2316377040,2316378281,-1.065792,-0.025376,-0.179584,-12.78375,2.42375,6.2125,16.992,-2.264,12.424001,eccentric,6,5.0,19266.0,403431.0,215502.0,77860.0,6590.0
2026-04-09 22:23:06.455955,378080,2316391556,2316393657,-1.046272,-0.076128,-0.150304,-11.20875,-0.0875,9.03875,17.752,-2.496,12.912001,eccentric,6,5.0,19287.0,403431.0,214998.0,77340.0,6358.0
2026-04-09 22:23:06.457648,378081,2316400551,2316402370,-1.046272,-0.076128,-0.150304,-7.0,-3.955,8.28625,17.752,-2.496,12.912001,eccentric,6,5.0,19287.0,403431.0,214998.0,77340.0,6358.0
2026-04-09 22:23:06.459207,378082,2316409502,2316411093,-0.989664,-0.06832,-0.007808,-0.525,-5.5475,7.665,17.232,-2.744,15.488001,eccentric,6,5.0,19287.0,403431.0,214998.0,77340.0,6358.0
2026-04-09 22:23:06.463538,378083,2316418495,2316419865,-0.989664,-0.06832,-0.007808,4.41,-5.76625,7.42875,17.232,-2.744,15.488001,eccentric,6,5.0,19287.0,403431.0,214998.0,77340.0,6358.0
2026-04-09 22:23:06.465890,378084,2316433067,2316434826,-1.020896,0.017568,-0.085888,6.08125,-4.15625,10.17625,17.064001,-2.528,14.080001,eccentric,6,5.0,19287.0,403431.0,214998.0,77340.0,6358.0
2026-04-09 22:23:06.495723,378085,2316442019,2316443587,-1.020896,0.017568,-0.085888,2.33625,-2.38875,11.042501,17.064001,-2.528,14.080001,eccentric,6,5.0,19287.0,403431.0,214998.0,77340.0,6358.0
2026-04-09 22:23:06.499221,378086,2316451026,2316452295,-1.059936,-0.035136,-0.222528,-5.3725,-3.33375,12.92375,18.136002,-3.28,13.160001,eccentric,6,5.0,19287.0,403431.0,214998.0,77340.0,6358.0
2026-04-09 22:23:06.501668,378087,2316465492,2316467220,-1.059936,-0.035136,-0.222528,-9.31,-8.44375,12.7225,18.136002,-3.28,13.160001,eccentric,6,5.0,19287.0,403431.0,214998.0,77340.0,6358.0
2026-04-09 22:23:06.507919,378088,2316474406,2316476827,-0.989664,-0.10736,-0.109312,-7.665,-13.29125,11.62,18.264,-2.92,13.448001,eccentric,6,5.0,19287.0,403431.0,214998.0,77340.0,6358.0
2026-04-09 22:23:06.514487,378089,2316483438,2316485529,-0.989664,-0.10736,-0.109312,2.45875,-15.47,14.28875,18.264,-2.92,13.448001,eccentric,6,5.0,19287.0,403431.0,214998.0,77340.0,6358.0
2026-04-09 22:23:06.624209,378100,2316498076,2316498521,-0.99552,-0.031232,-0.064416,12.11875,-15.8375,15.49625,17.44,-2.848,14.728001,eccentric,6,5.0,19312.0,403431.0,214655.0,77434.0,6572.0
2026-04-09 22:23:06.629283,378101,2316507396,2316509276,-0.99552,-0.031232,-0.064416,16.178751,-14.4025,17.22875,17.44,-2.848,14.728001,eccentric,6,5.0,19312.0,403431.0,214655.0,77434.0,6572.0
2026-04-09 22:23:06.640530,378102,2316516292,2316517958,-1.20048,0.05856,-0.238144,16.10875,-16.7825,19.53875,18.808,-2.368,13.104001,eccentric,6,5.0,19312.0,403431.0,214655.0,77434.0,6572.0
2026-04-09 22:23:06.642955,378103,2316525178,2316526661,-1.20048,0.05856,-0.238144,10.64875,-22.3825,22.89875,18.808,-2.368,13.104001,eccentric,6,5.0,19312.0,403431.0,214655.0,77434.0,6572.0
2026-04-09 22:23:06.645579,378104,2316539694,2316541564,-1.018944,-0.109312,-0.183488,6.4575,-30.03875,21.1925,18.68,-2.384,13.68,eccentric,6,5.0,19312.0,403431.0,214655.0,77434.0,6572.0
2026-04-09 22:23:06.648013,378105,2316548877,2316550315,-1.018944,-0.109312,-0.183488,6.7725,-34.48375,18.2525,18.68,-2.384,13.68,eccentric,6,5.0,19312.0,403431.0,214655.0,77434.0,6572.0
2026-04-09 22:23:06.655532,378106,2316557788,2316559012,-1.065792,-0.10736,0.027328,17.12375,-33.95875,22.365,17.912,-2.816,15.632001,eccentric,6,5.0,19312.0,403431.0,214655.0,77434.0,6572.0
2026-04-09 22:23:06.657896,378107,2316572224,2316573951,-1.050176,0.15616,-0.017568,28.9275,-29.26,27.18625,19.912,-3.104,14.552001,eccentric,6,5.0,19312.0,403431.0,214655.0,77434.0,6572.0
2026-04-09 22:23:06.660433,378108,2316581144,2316582638,-1.050176,0.15616,-0.017568,34.6325,-23.616251,26.7575,19.912,-3.104,14.552001,eccentric,6,5.0,19312.0,403431.0,214655.0,77434.0,6572.0
2026-04-09 22:23:06.663290,378109,2316590087,2316591331,-1.087264,0.0976,-0.101504,24.185,-20.553751,20.01125,19.512001,-3.288,14.256001,eccentric,6,5.0,19312.0,403431.0,214655.0,77434.0,6572.0
2026-04-09 22:23:06.694212,378119,2316604817,2316606297,-1.087264,0.0976,-0.101504,9.68625,-20.86875,17.29875,19.512001,-3.288,14.256001,eccentric,6,5.0,19299.0,403431.0,214814.0,77821.0,6834.0
2026-04-09 22:23:06.696681,378120,2316613754,2316615013,-1.020896,-0.080032,-0.001952,6.3525,-21.0875,16.8875,19.888,-3.392,14.776001,eccentric,6,5.0,19299.0,403431.0,214814.0,77821.0,6834.0
2026-04-09 22:23:06.704791,378121,2316622843,2316623716,-1.020896,-0.080032,-0.001952,6.23875,-20.4225,13.60625,19.888,-3.392,14.776001,eccentric,6,5.0,19299.0,403431.0,214814.0,77821.0,6834.0
2026-04-09 22:23:06.706438,378122,2316631802,2316632509,-1.048224,0.0488,-0.015616,11.480001,-19.0575,18.7425,19.880001,-3.144,16.912,eccentric,6,5.0,19299.0,403431.0,214814.0,77821.0,6834.0
2026-04-09 22:23:06.707972,378123,2316646835,2316647459,-1.048224,0.0488,-0.015616,20.16875,-16.21375,22.88125,19.880001,-3.144,16.912,eccentric,6,5.0,19299.0,403431.0,214814.0,77821.0,6834.0
2026-04-09 22:23:06.712265,378124,2316656071,2316658240,-0.993568,0.072224,0.001952,23.205,-13.09,21.27125,19.736,-3.032,15.824,eccentric,6,5.0,19299.0,403431.0,214814.0,77821.0,6834.0
2026-04-09 22:23:06.713991,378125,2316665045,2316667000,-0.993568,0.072224,0.001952,16.59,-11.55875,16.33625,19.736,-3.032,15.824,eccentric,6,5.0,19299.0,403431.0,214814.0,77821.0,6834.0
2026-04-09 22:23:06.715526,378126,2316674099,2316675746,-1.13216,0.099552,-0.119072,8.12,-12.3725,15.96,19.672,-2.76,15.232,eccentric,6,5.0,19299.0,403431.0,214814.0,77821.0,6834.0
2026-04-09 22:23:06.720880,378127,2316688703,2316690761,-1.13216,0.099552,-0.119072,10.0275,-14.2625,21.28,19.672,-2.76,15.232,eccentric,6,5.0,19299.0,403431.0,214814.0,77821.0,6834.0
2026-04-09 22:23:06.747548,378137,2316698435,2316699612,-1.057984,-0.007808,-0.07808,12.59125,-18.2525,19.53,19.92,-2.832,14.6,eccentric,6,5.0,19314.0,403431.0,214767.0,77959.0,6987.0
2026-04-09 22:23:06.748906,378138,2316707396,2316708385,-1.057984,-0.007808,-0.07808,13.658751,-21.210001,17.22875,19.92,-2.832,14.6,eccentric,6,5.0,19314.0,403431.0,214767.0,77959.0,6987.0
2026-04-09 22:23:06.754143,378139,2316721913,2316723338,-1.040416,0.02928,0.072224,19.6175,-21.455,20.5625,20.552,-3.216,16.800001,eccentric,6,5.0,19314.0,403431.0,214767.0,77959.0,6987.0
2026-04-09 22:23:06.762137,378140,2316730928,2316732036,-1.106784,0.121024,0.042944,25.9175,-19.60875,20.5975,19.888,-3.16,17.952002,eccentric,6,5.0,19314.0,403431.0,214767.0,77959.0,6987.0
2026-04-09 22:23:06.769665,378141,2316739870,2316740763,-1.106784,0.121024,0.042944,26.880001,-15.855001,22.25125,19.888,-3.16,17.952002,eccentric,6,5.0,19314.0,403431.0,214767.0,77959.0,6987.0
2026-04-09 22:23:06.801252,378142,2316748829,2316749482,-1.106784,0.121024,0.042944,21.07875,-13.8425,23.14375,19.888,-3.16,17.952002,eccentric,6,5.0,19314.0,403431.0,214767.0,77959.0,6987.0
2026-04-09 22:23:06.802752,378143,2316763660,2316764394,-1.097024,0.121024,-0.001952,11.27,-13.055,21.1925,21.424002,-3.656,19.2,eccentric,6,5.0,19314.0,403431.0,214767.0,77959.0,6987.0
2026-04-09 22:23:06.804331,378144,2316773009,2316775152,-1.139968,0.0976,0.025376,8.5925,-12.36375,20.93,21.496,-4.088,16.616001,eccentric,6,5.0,19314.0,403431.0,214767.0,77959.0,6987.0
2026-04-09 22:23:06.837393,378145,2316782075,2316783859,-1.139968,0.0976,0.025376,10.08,-13.08125,19.13625,21.496,-4.088,16.616001,eccentric,6,5.0,19314.0,403431.0,214767.0,77959.0,6987.0
2026-04-09 22:23:06.839048,378146,2316791034,2316792625,-1.026752,0.076128,0.001952,12.97625,-12.355001,21.04375,22.416,-3.144,17.912,eccentric,6,5.0,19314.0,403431.0,214767.0,77959.0,6987.0
2026-04-09 22:23:06.881107,378157,2316805550,2316807553,-1.026752,0.076128,0.001952,13.85125,-11.445,20.265,22.416,-3.144,17.912,eccentric,6,5.0,19159.0,403431.0,215574.0,78284.0,6965.0
2026-04-09 22:23:06.882777,378158,2316814470,2316816260,-0.989664,0.076128,0.050752,11.4275,-10.465,17.54375,22.664001,-3.448,16.184,eccentric,6,5.0,19159.0,403431.0,215574.0,78284.0,6965.0
2026-04-09 22:23:06.884247,378159,2316823447,2316824993,-0.989664,0.076128,0.050752,10.115,-9.8,15.30375,22.664001,-3.448,16.184,eccentric,6,5.0,19159.0,403431.0,215574.0,78284.0,6965.0
2026-04-09 22:23:06.918350,378160,2316838005,2316839958,-1.149728,0.203008,-0.056608,7.49,-9.1525,13.9125,21.792002,-3.96,14.368001,eccentric,6,5.0,19159.0,403431.0,215574.0,78284.0,6965.0
2026-04-09 22:23:06.922697,378161,2316847034,2316848755,-1.149728,0.203008,-0.056608,10.35125,-9.1525,14.875,21.792002,-3.96,14.368001,eccentric,6,5.0,19159.0,403431.0,215574.0,78284.0,6965.0
2026-04-09 22:23:06.925199,378162,2316855997,2316857469,-1.056032,0.181536,-0.021472,23.45875,-9.86125,16.07375,21.304,-3.328,17.816,eccentric,6,5.0,19159.0,403431.0,215574.0,78284.0,6965.0
2026-04-09 22:23:06.926700,378163,2316870508,2316872367,-1.056032,0.025376,0.042944,20.1075,-12.4775,7.1575,21.304,-3.328,17.816,eccentric,6,5.0,19159.0,403431.0,215574.0,78284.0,6965.0
2026-04-09 22:23:06.931074,378164,2316879483,2316881073,-1.022848,0.027328,0.042944,8.3825,-14.2625,4.22625,21.048,-3.632,17.616001,eccentric,6,5.0,19159.0,403431.0,215574.0,78284.0,6965.0
2026-04-09 22:23:06.932823,378165,2316888404,2316889755,-1.022848,0.027328,0.042944,9.275,-13.615,6.74625,21.048,-3.632,17.616001,eccentric,6,5.0,19159.0,403431.0,215574.0,78284.0,6965.0
2026-04-09 22:23:06.960488,378175,2316902965,2316904738,-1.057984,0.134688,0.089792,10.92875,-11.0775,4.97,22.560001,-3.728,17.6,eccentric,6,5.0,19102.0,403431.0,215987.0,78359.0,6845.0
2026-04-09 22:23:06.964839,378176,2316911968,2316913536,-1.155584,0.189344,-0.01952,14.63875,-6.88625,8.61,22.624,-3.704,18.672,eccentric,6,5.0,19102.0,403431.0,215987.0,78359.0,6845.0
2026-04-09 22:23:06.966466,378177,2316921023,2316922304,-1.155584,0.189344,-0.01952,9.730001,-5.32875,11.20875,22.624,-3.704,18.672,eccentric,6,5.0,19102.0,403431.0,215987.0,78359.0,6845.0
2026-04-09 22:23:06.968029,378178,2316930085,2316931011,-1.155584,0.189344,-0.01952,0.55125,-6.5625,12.18875,22.624,-3.704,18.672,eccentric,6,5.0,19102.0,403431.0,215987.0,78359.0,6845.0
2026-04-09 22:23:06.975866,378179,2316944612,2316945970,-1.067744,0.11712,0.0,1.89875,-9.23125,10.465,22.152,-3.368,15.976001,eccentric,6,5.0,19102.0,403431.0,215987.0,78359.0,6845.0
2026-04-09 22:23:07.004524,378180,2316953612,2316954676,-1.1224,0.113216,0.023424,2.94,-11.235,6.23,22.464,-3.768,18.424002,eccentric,6,5.0,19102.0,403431.0,215987.0,78359.0,6845.0
2026-04-09 22:23:07.008907,378181,2316962591,2316963373,-1.1224,0.113216,0.023424,6.78125,-12.48625,8.26,22.464,-3.768,18.424002,eccentric,6,5.0,19102.0,403431.0,215987.0,78359.0,6845.0
2026-04-09 22:23:07.010451,378182,2316977092,2316978252,-1.157536,0.17568,0.021472,12.9675,-13.0375,10.96375,24.032001,-2.856,17.848001,eccentric,6,5.0,19102.0,403431.0,215987.0,78359.0,6845.0
2026-04-09 22:23:07.016223,378183,2316986016,2316986980,-1.157536,0.17568,0.021472,16.52875,-11.55,10.91125,24.032001,-2.856,17.848001,eccentric,6,5.0,19102.0,403431.0,215987.0,78359.0,6845.0
2026-04-09 22:23:07.044497,378184,2316994978,2316995700,-1.11264,0.163968,0.081984,14.28875,-10.19375,9.61625,22.984001,-3.04,18.728,eccentric,6,5.0,19102.0,403431.0,215987.0,78359.0,6845.0
2026-04-09 22:23:07.074495,378194,2317004322,2317006511,-1.11264,0.163968,0.081984,9.3625,-9.205,7.25375,22.984001,-3.04,18.728,eccentric,6,5.0,19000.0,403431.0,217336.0,78858.0,6694.0
2026-04-09 22:23:07.076521,378195,2317018838,2317019350,-1.104832,0.11712,0.070272,6.615,-7.44625,6.22125,23.912,-3.272,17.936,eccentric,6,5.0,19000.0,403431.0,217336.0,78858.0,6694.0
2026-04-09 22:23:07.078949,378196,2317028432,2317030220,-1.104832,0.11712,0.070272,1.51375,-6.9125,6.685,23.912,-3.272,17.936,eccentric,6,5.0,19000.0,403431.0,217336.0,78858.0,6694.0
2026-04-09 22:23:07.080470,378197,2317037476,2317038915,-1.128256,0.0976,-0.015616,-0.4375,-6.615,8.417501,23.752,-3.408,18.664001,eccentric,6,5.0,19000.0,403431.0,217336.0,78858.0,6694.0
2026-04-09 22:23:07.082975,378198,2317053042,2317053932,-1.130208,0.089792,0.060512,3.07125,-6.825,10.9025,24.248001,-4.584,18.424002,eccentric,6,5.0,19000.0,403431.0,217336.0,78858.0,6694.0
2026-04-09 22:23:07.113191,378199,2317062018,2317062752,-1.130208,0.089792,0.060512,8.49625,-6.4575,12.83625,24.248001,-4.584,18.424002,eccentric,6,5.0,19000.0,403431.0,217336.0,78858.0,6694.0
2026-04-09 22:23:07.116820,378200,2317071357,2317073565,-1.130208,0.132736,0.105408,11.13,-5.495,15.1375,24.248001,-4.584,18.424002,eccentric,6,5.0,19000.0,403431.0,217336.0,78858.0,6694.0
2026-04-09 22:23:07.120073,378201,2317080288,2317082276,-1.100928,0.132736,0.105408,8.95125,-4.1125,16.905,24.184002,-4.224,17.800001,eccentric,6,5.0,19000.0,403431.0,217336.0,78858.0,6694.0
2026-04-09 22:23:07.128598,378202,2317094823,2317095149,-1.10288,0.13664,0.070272,5.845,-2.8175,17.84125,24.296001,-3.688,20.552,eccentric,6,5.0,19000.0,403431.0,217336.0,78858.0,6694.0
2026-04-09 22:23:07.155222,378213,2317104123,2317106030,-1.10288,0.13664,0.070272,4.59375,-2.1875,17.96375,24.296001,-3.688,20.552,eccentric,6,5.0,18948.0,403431.0,218287.0,79319.0,6707.0
2026-04-09 22:23:07.158472,378214,2317113130,2317114812,-1.126304,0.150304,0.070272,0.32375,-1.54875,18.47125,23.272001,-3.856,20.0,eccentric,6,5.0,18948.0,403431.0,218287.0,79319.0,6707.0
2026-04-09 22:23:07.160980,378215,2317122175,2317123557,-1.126304,0.150304,0.070272,-0.74375,-1.12,19.635,23.272001,-3.856,20.0,eccentric,6,5.0,18948.0,403431.0,218287.0,79319.0,6707.0
2026-04-09 22:23:07.216672,378216,2317136661,2317138499,-1.110688,0.15616,0.056608,0.30625,-1.58375,19.1625,23.672,-3.952,20.016,eccentric,6,5.0,18948.0,403431.0,218287.0,79319.0,6707.0
2026-04-09 22:23:07.221099,378217,2317145672,2317147207,-1.110688,0.15616,0.056608,0.84,-2.35375,18.40125,23.672,-3.952,20.016,eccentric,6,5.0,18948.0,403431.0,218287.0,79319.0,6707.0
2026-04-09 22:23:07.222733,378218,2317154572,2317155946,-1.114592,0.160064,0.056608,4.06,-2.73,18.34875,25.304,-4.192,19.080002,eccentric,6,5.0,18948.0,403431.0,218287.0,79319.0,6707.0
2026-04-09 22:23:07.224310,378219,2317169053,2317170848,-1.114592,0.160064,0.056608,7.8925,-2.73,17.07125,25.304,-4.192,19.080002,eccentric,6,5.0,18948.0,403431.0,218287.0,79319.0,6707.0
2026-04-09 22:23:07.229650,378220,2317178015,2317179542,-1.14192,0.177632,0.105408,9.135,-3.80625,15.72375,25.488,-4.432,19.272001,eccentric,6,5.0,18948.0,403431.0,218287.0,79319.0,6707.0
2026-04-09 22:23:07.230233,378221,2317186920,2317188216,-1.14192,0.177632,0.105408,9.2575,-3.9375,15.225,25.488,-4.432,19.272001,eccentric,6,5.0,18948.0,403431.0,218287.0,79319.0,6707.0
2026-04-09 22:23:07.231801,378222,2317195814,2317196935,-1.163392,0.17568,0.113216,7.455,-3.10625,13.83375,25.088001,-4.192,19.608002,eccentric,6,5.0,18948.0,403431.0,218287.0,79319.0,6707.0
2026-04-09 22:23:07.260211,378232,2317210402,2317211912,-1.163392,0.17568,0.113216,5.0225,-3.7275,13.15125,25.088001,-4.192,19.608002,eccentric,6,5.0,18905.0,403431.0,218949.0,79584.0,6662.0
2026-04-09 22:23:07.262063,378233,2317219401,2317220640,-1.139968,0.158112,0.101504,3.2375,-3.4825,10.28125,24.816002,-4.216,20.168001,eccentric,6,5.0,18905.0,403431.0,218949.0,79584.0,6662.0
2026-04-09 22:23:07.265872,378234,2317228311,2317229382,-1.139968,0.158112,0.101504,0.3675,-3.6925,10.35125,24.816002,-4.216,20.168001,eccentric,6,5.0,18905.0,403431.0,218949.0,79584.0,6662.0
2026-04-09 22:23:07.294437,378235,2317242823,2317244297,-1.157536,0.144448,0.07808,-1.54,-2.695,12.1625,24.944,-3.744,20.464,eccentric,6,5.0,18905.0,403431.0,218949.0,79584.0,6662.0
2026-04-09 22:23:07.299072,378236,2317251731,2317253023,-1.157536,0.144448,0.07808,-1.93375,-3.21125,12.50375,24.944,-3.744,20.464,eccentric,6,5.0,18905.0,403431.0,218949.0,79584.0,6662.0
2026-04-09 22:23:07.300539,378237,2317260629,2317261726,-1.14192,0.109312,0.083936,0.3675,-3.885,13.37,26.072,-4.512,16.584002,eccentric,6,5.0,18905.0,403431.0,218949.0,79584.0,6662.0
2026-04-09 22:23:07.305923,378238,2317275137,2317276666,-1.14192,0.162016,0.076128,4.92625,-4.62,16.19625,25.240002,-4.544,21.12,eccentric,6,5.0,18905.0,403431.0,218949.0,79584.0,6662.0
2026-04-09 22:23:07.334492,378239,2317284074,2317285430,-1.14192,0.162016,0.076128,9.16125,-4.48,17.1325,25.240002,-4.544,21.12,eccentric,6,5.0,18905.0,403431.0,218949.0,79584.0,6662.0
2026-04-09 22:23:07.337990,378240,2317293004,2317294104,-1.138016,0.169824,0.083936,11.22625,-4.61125,17.70125,26.272001,-4.856,20.104,eccentric,6,5.0,18905.0,403431.0,218949.0,79584.0,6662.0
2026-04-09 22:23:07.363030,378250,2317307633,2317309167,-1.138016,0.169824,0.083936,9.765,-5.4075,17.63125,26.272001,-4.856,20.104,eccentric,6,5.0,18848.0,403431.0,219729.0,80156.0,6866.0
2026-04-09 22:23:07.367249,378251,2317316647,2317317946,-1.126304,0.150304,0.111264,6.92125,-5.6525,17.325,25.552002,-4.816001,21.320002,eccentric,6,5.0,18848.0,403431.0,219729.0,80156.0,6866.0
2026-04-09 22:23:07.368949,378252,2317325659,2317326699,-1.126304,0.150304,0.111264,3.465,-5.45125,17.272501,25.552002,-4.816001,21.320002,eccentric,6,5.0,18848.0,403431.0,219729.0,80156.0,6866.0
2026-04-09 22:23:07.370473,378253,2317334589,2317335412,-1.138016,0.1464,0.103456,0.9625,-4.7425,17.2025,25.768002,-4.872,21.088001,eccentric,6,5.0,18848.0,403431.0,219729.0,80156.0,6866.0
2026-04-09 22:23:07.401705,378254,2317349605,2317350381,-1.138016,0.1464,0.103456,2.66875,-4.20875,17.94625,25.768002,-4.872,21.088001,eccentric,6,5.0,18848.0,403431.0,219729.0,80156.0,6866.0
2026-04-09 22:23:07.404348,378255,2317358975,2317361143,-1.11264,0.1464,0.080032,3.9375,-3.42125,17.14125,26.456001,-4.696,20.736,eccentric,6,5.0,18848.0,403431.0,219729.0,80156.0,6866.0
2026-04-09 22:23:07.412343,378256,2317367856,2317369826,-1.11264,0.1464,0.080032,2.8175,-3.54375,16.59,26.456001,-4.696,20.736,eccentric,6,5.0,18848.0,403431.0,219729.0,80156.0,6866.0
2026-04-09 22:23:07.413869,378257,2317382376,2317382710,-1.100928,0.119072,0.091744,0.7875,-3.43,17.01,26.296001,-5.584,20.584002,eccentric,6,5.0,18848.0,403431.0,219729.0,80156.0,6866.0
2026-04-09 22:23:07.444245,378258,2317391630,2317393517,-1.100928,0.119072,0.091744,0.83125,-3.6575,17.61375,26.296001,-5.584,20.584002,eccentric,6,5.0,18848.0,403431.0,219729.0,80156.0,6866.0
2026-04-09 22:23:07.474371,378269,2317401065,2317402246,-1.091168,0.13664,0.076128,1.81125,-3.84125,17.82375,26.856,-5.424,21.776001,eccentric,6,5.0,18792.0,403431.0,220409.0,80778.0,7129.0
2026-04-09 22:23:07.475402,378270,2317410083,2317410999,-1.091168,0.13664,0.076128,4.655,-4.26125,18.3225,26.856,-5.424,21.776001,eccentric,6,5.0,18792.0,403431.0,220409.0,80778.0,7129.0
2026-04-09 22:23:07.476838,378271,2317424707,2317426103,-1.085312,0.163968,0.093696,6.86,-3.15875,18.38375,26.792002,-6.104,21.336,eccentric,6,5.0,18792.0,403431.0,220409.0,80778.0,7129.0
2026-04-09 22:23:07.481116,378272,2317433792,2317434831,-1.069696,0.160064,0.0976,5.88,-2.61625,17.52625,26.760002,-6.128,21.176,eccentric,6,5.0,18792.0,403431.0,220409.0,80778.0,7129.0
2026-04-09 22:23:07.482739,378273,2317442867,2317443565,-1.069696,0.160064,0.0976,2.70375,-2.2225,16.24,26.760002,-6.128,21.176,eccentric,6,5.0,18792.0,403431.0,220409.0,80778.0,7129.0
2026-04-09 22:23:07.484286,378274,2317452328,2317454454,-1.069696,0.160064,0.0976,-0.945,-1.44375,14.735,26.760002,-6.128,21.176,eccentric,6,5.0,18792.0,403431.0,220409.0,80778.0,7129.0
2026-04-09 22:23:07.519149,378275,2317466803,2317467381,-1.075552,0.142496,0.074176,-3.45625,-1.54875,14.542501,26.736002,-5.864,21.024,eccentric,6,5.0,18792.0,403431.0,220409.0,80778.0,7129.0
2026-04-09 22:23:07.521428,378276,2317475929,2317478142,-1.077504,0.11712,0.06832,-3.5875,-1.295,14.28875,26.816002,-6.184001,21.784,eccentric,6,5.0,18792.0,403431.0,220409.0,80778.0,7129.0
2026-04-09 22:23:07.526064,378277,2317484848,2317486838,-1.077504,0.11712,0.06832,-2.26625,-0.88375,13.965,26.816002,-6.184001,21.784,eccentric,6,5.0,18792.0,403431.0,220409.0,80778.0,7129.0
2026-04-09 22:23:07.552119,378287,2317499680,2317502000,-1.085312,0.132736,0.074176,-1.30375,-0.9975,13.93875,27.248001,-6.624001,21.544,eccentric,6,5.0,18669.0,403431.0,221685.0,81742.0,7447.0
2026-04-09 22:23:07.553933,378288,2317508682,2317510791,-1.085312,0.132736,0.074176,0.91875,-0.97125,13.79875,27.248001,-6.624001,21.544,eccentric,6,5.0,18669.0,403431.0,221685.0,81742.0,7447.0
2026-04-09 22:23:07.555343,378289,2317517662,2317519490,-1.081408,0.132736,0.083936,1.47875,-0.9625,13.230001,27.2,-6.688,21.68,eccentric,6,5.0,18669.0,403431.0,221685.0,81742.0,7447.0
2026-04-09 22:23:07.590366,378290,2317526626,2317528224,-1.081408,0.132736,0.083936,0.7875,-0.8925,13.22125,27.2,-6.688,21.68,eccentric,6,5.0,18669.0,403431.0,221685.0,81742.0,7447.0
2026-04-09 22:23:07.595033,378291,2317541137,2317543148,-1.069696,0.1464,0.072224,0.35,-0.735,13.09875,27.416,-6.368001,22.184002,eccentric,6,5.0,18669.0,403431.0,221685.0,81742.0,7447.0
2026-04-09 22:23:07.601078,378292,2317550069,2317551847,-1.069696,0.1464,0.072224,-0.6125,0.385,11.61125,27.416,-6.368001,22.184002,eccentric,6,5.0,18669.0,403431.0,221685.0,81742.0,7447.0
2026-04-09 22:23:07.602752,378293,2317558996,2317560572,-1.081408,0.130784,0.081984,-3.07125,0.48125,10.78875,27.072,-6.736001,21.296001,eccentric,6,5.0,18669.0,403431.0,221685.0,81742.0,7447.0
2026-04-09 22:23:07.605231,378294,2317573516,2317575547,-1.065792,0.111264,0.080032,-4.45375,0.0875,10.815,27.072,-6.736001,21.296001,eccentric,6,5.0,18669.0,403431.0,221685.0,81742.0,7447.0
2026-04-09 22:23:07.634378,378295,2317582452,2317584268,-1.071648,0.111264,0.080032,-4.9175,0.95375,10.40375,26.448002,-6.696,22.416,eccentric,6,5.0,18669.0,403431.0,221685.0,81742.0,7447.0
2026-04-09 22:23:07.637967,378296,2317591410,2317592973,-1.071648,0.111264,0.080032,-5.915,1.18125,9.4325,26.448002,-6.696,22.416,eccentric,6,5.0,18669.0,403431.0,221685.0,81742.0,7447.0
