pc_time,serial_num,sensor_ts,host_ts,ax,ay,az,gx,gy,gz,mx,my,mz,phase,rpe,weight_kg,ppg_a,ppg_b,ppg_c,ppg_d,ppg_e,ppg_f,ppg_g,ppg_h,ppg_i,ppg_j
2026-05-06 15:49:01.904739,396831,1609504805387954,2405300574,0.911584,-0.027328,0.00976,-9.70375,-0.77875,-1.7325,-34.576,-13.088,-88.520004,inter_set_rest,4,5.0,34655.0,44612.0,73789.0,103700.0,30838.0,52740.0,30940.0,58908.0,20408.0,18302.0
2026-05-06 15:49:01.907416,396832,1609504805397049,2405309411,0.903776,-0.031232,0.003904,-10.5,-0.88375,-2.6425,-35.192,-12.824,-88.58401,inter_set_rest,4,5.0,34655.0,44612.0,73789.0,103700.0,30838.0,52740.0,30940.0,58908.0,20408.0,18302.0
2026-05-06 15:49:01.909879,396833,1609504805411607,2405324340,0.9272,-0.044896,0.031232,-10.465,-1.04125,-2.77375,-35.112003,-13.056001,-88.048004,inter_set_rest,4,5.0,34655.0,44612.0,73789.0,103700.0,30838.0,52740.0,30940.0,58908.0,20408.0,18302.0
2026-05-06 15:49:01.916156,396834,1609504805420576,2405333048,0.9272,-0.044896,0.031232,-9.26625,-1.0325,-3.05375,-35.112003,-13.056001,-88.048004,inter_set_rest,4,5.0,34655.0,44612.0,73789.0,103700.0,30838.0,52740.0,30940.0,58908.0,20408.0,18302.0
2026-05-06 15:49:01.924886,396835,1609504805429511,2405341864,0.9272,-0.044896,0.031232,-8.68,-1.16375,-2.61625,-35.112003,-13.056001,-88.048004,inter_set_rest,4,5.0,34655.0,44612.0,73789.0,103700.0,30838.0,52740.0,30940.0,58908.0,20408.0,18302.0
2026-05-06 15:49:01.937348,396836,1609504805444023,2405354774,0.909632,-0.031232,0.017568,-8.7325,-1.28625,-1.89,-35.120003,-14.240001,-85.424,inter_set_rest,4,5.0,34655.0,44612.0,73789.0,103700.0,30838.0,52740.0,30940.0,58908.0,20408.0,18302.0
2026-05-06 15:49:01.948643,396837,1609504805453212,2405365545,0.9272,-0.035136,0.040992,-7.30625,-1.68875,-1.4,-35.272003,-14.280001,-87.032005,inter_set_rest,4,5.0,34655.0,44612.0,73789.0,103700.0,30838.0,52740.0,30940.0,58908.0,20408.0,18302.0
2026-05-06 15:49:01.964841,396838,1609504805467789,2405380474,0.9272,-0.035136,0.040992,-6.32625,-1.88125,-2.16125,-35.272003,-14.280001,-87.032005,inter_set_rest,4,5.0,34655.0,44612.0,73789.0,103700.0,30838.0,52740.0,30940.0,58908.0,20408.0,18302.0
2026-05-06 15:49:01.971182,396839,1609504805476688,2405389331,0.901824,-0.033184,0.001952,-6.8425,-1.82875,-2.38,-35.120003,-12.976001,-88.47201,inter_set_rest,4,5.0,34655.0,44612.0,73789.0,103700.0,30838.0,52740.0,30940.0,58908.0,20408.0,18302.0
2026-05-06 15:49:02.067704,396850,1609504805485811,2405398234,0.901824,-0.033184,0.001952,-7.1575,-1.6975,-2.07375,-35.120003,-12.976001,-88.47201,inter_set_rest,4,5.0,34476.0,44536.0,73824.0,103680.0,30843.0,52773.0,30945.0,58914.0,20416.0,18324.0
2026-05-06 15:49:02.070219,396851,1609504805500456,2405413212,0.899872,-0.031232,0.015616,-6.1075,-1.7325,-2.24,-35.304,-14.000001,-87.088005,inter_set_rest,4,5.0,34476.0,44536.0,73824.0,103680.0,30843.0,52773.0,30945.0,58914.0,20416.0,18324.0
2026-05-06 15:49:02.072753,396852,1609504805509425,2405421971,0.899872,-0.031232,0.015616,-6.27375,-1.70625,-1.82875,-35.304,-14.000001,-87.088005,inter_set_rest,4,5.0,34476.0,44536.0,73824.0,103680.0,30843.0,52773.0,30945.0,58914.0,20416.0,18324.0
2026-05-06 15:49:02.075227,396853,1609504805524100,2405434857,0.915488,-0.05856,-0.023424,-7.06125,-1.6975,-1.61875,-34.784,-12.848001,-88.26401,inter_set_rest,4,5.0,34476.0,44536.0,73824.0,103680.0,30843.0,52773.0,30945.0,58914.0,20416.0,18324.0
2026-05-06 15:49:02.079142,396854,1609504805533443,2405445628,0.909632,-0.046848,-0.03904,-6.3525,-1.54,-1.4875,-35.072002,-12.848001,-88.22401,inter_set_rest,4,5.0,34476.0,44536.0,73824.0,103680.0,30843.0,52773.0,30945.0,58914.0,20416.0,18324.0
2026-05-06 15:49:02.079907,396855,1609504805542558,2405454439,0.909632,-0.046848,-0.03904,-4.83,-1.26,-1.51375,-35.072002,-12.848001,-88.22401,inter_set_rest,4,5.0,34476.0,44536.0,73824.0,103680.0,30843.0,52773.0,30945.0,58914.0,20416.0,18324.0
2026-05-06 15:49:02.084734,396856,1609504805557049,2405469414,0.903776,-0.027328,-0.017568,-4.08625,-1.05875,-1.8375,-34.792,-13.040001,-88.128006,inter_set_rest,4,5.0,34476.0,44536.0,73824.0,103680.0,30843.0,52773.0,30945.0,58914.0,20416.0,18324.0
2026-05-06 15:49:02.086091,396857,1609504805565973,2405478123,0.903776,-0.027328,-0.017568,-5.85375,-1.015,-1.95125,-34.792,-13.040001,-88.128006,inter_set_rest,4,5.0,34476.0,44536.0,73824.0,103680.0,30843.0,52773.0,30945.0,58914.0,20416.0,18324.0
2026-05-06 15:49:02.087600,396858,1609504805580495,2405493087,0.911584,-0.052704,0.02928,-9.3275,-0.86625,-2.1525,-35.016003,-13.000001,-88.344,inter_set_rest,4,5.0,34476.0,44536.0,73824.0,103680.0,30843.0,52773.0,30945.0,58914.0,20416.0,18324.0
2026-05-06 15:49:02.115169,396869,1609504805590057,2405501879,0.911584,-0.052704,0.02928,-11.3225,-0.27125,-2.275,-35.016003,-13.000001,-88.344,inter_set_rest,4,5.0,34469.0,44319.0,73767.0,103649.0,30896.0,52796.0,30950.0,58926.0,20458.0,18356.0
2026-05-06 15:49:02.117624,396870,1609504805599072,2405510664,0.911584,-0.080032,-0.017568,-10.52625,-0.65625,-2.10875,-35.184002,-15.544001,-87.72,inter_set_rest,4,5.0,34469.0,44319.0,73767.0,103649.0,30896.0,52796.0,30950.0,58926.0,20458.0,18356.0
2026-05-06 15:49:02.120194,396871,1609504805613654,2405525883,0.911584,-0.050752,0.001952,-7.62125,-0.7525,-1.60125,-35.064003,-15.176001,-85.552,inter_set_rest,4,5.0,34469.0,44319.0,73767.0,103649.0,30896.0,52796.0,30950.0,58926.0,20458.0,18356.0
2026-05-06 15:49:02.122724,396872,1609504805622631,2405534599,0.911584,-0.050752,0.001952,-4.34,-1.25125,-1.365,-35.064003,-15.176001,-85.552,inter_set_rest,4,5.0,34469.0,44319.0,73767.0,103649.0,30896.0,52796.0,30950.0,58926.0,20458.0,18356.0
2026-05-06 15:49:02.138956,396873,1609504805637170,2405549551,0.929152,-0.050752,0.011712,-2.68625,-1.86375,-0.98875,-34.752003,-12.888001,-88.240005,inter_set_rest,4,5.0,34469.0,44319.0,73767.0,103649.0,30896.0,52796.0,30950.0,58926.0,20458.0,18356.0
2026-05-06 15:49:02.141522,396874,1609504805646107,2405558229,0.929152,-0.050752,0.011712,-3.08,-1.7325,-1.3475,-34.752003,-12.888001,-88.240005,inter_set_rest,4,5.0,34469.0,44319.0,73767.0,103649.0,30896.0,52796.0,30950.0,58926.0,20458.0,18356.0
2026-05-06 15:49:02.155028,396875,1609504805660623,2405573173,0.911584,-0.072224,-0.035136,-3.68375,-1.86375,-1.72375,-34.856003,-14.928,-86.288,inter_set_rest,4,5.0,34469.0,44319.0,73767.0,103649.0,30896.0,52796.0,30950.0,58926.0,20458.0,18356.0
2026-05-06 15:49:02.168758,396876,1609504805669601,2405581890,0.911584,-0.072224,-0.035136,-3.61375,-2.00375,-1.785,-34.856003,-14.928,-86.288,inter_set_rest,4,5.0,34469.0,44319.0,73767.0,103649.0,30896.0,52796.0,30950.0,58926.0,20458.0,18356.0
2026-05-06 15:49:02.174777,396877,1609504805678573,2405590585,0.915488,-0.05856,0.011712,-2.38875,-2.275,-2.1175,-35.456,-14.696001,-86.816,inter_set_rest,4,5.0,34469.0,44319.0,73767.0,103649.0,30896.0,52796.0,30950.0,58926.0,20458.0,18356.0
2026-05-06 15:49:02.208527,396888,1609504805693264,2405605749,0.894016,-0.050752,-0.03904,-1.8375,-2.31875,-2.2575,-35.248,-14.040001,-89.248,inter_set_rest,4,5.0,34520.0,44212.0,73752.0,103658.0,30886.0,52770.0,30956.0,58956.0,20459.0,18351.0
2026-05-06 15:49:02.211064,396889,1609504805702260,2405614532,0.894016,-0.050752,-0.03904,-1.68,-2.38,-2.12625,-35.248,-14.040001,-89.248,inter_set_rest,4,5.0,34520.0,44212.0,73752.0,103658.0,30886.0,52770.0,30956.0,58956.0,20459.0,18351.0
2026-05-06 15:49:02.213465,396890,1609504805716793,2405627591,0.895968,-0.064416,-0.02928,-2.66875,-2.1525,-2.28375,-35.376003,-16.392,-86.43201,inter_set_rest,4,5.0,34520.0,44212.0,73752.0,103658.0,30886.0,52770.0,30956.0,58956.0,20459.0,18351.0
2026-05-06 15:49:02.222611,396891,1609504805726189,2405638448,0.895968,-0.064416,-0.02928,-4.05125,-2.10875,-2.24875,-35.376003,-16.392,-86.43201,inter_set_rest,4,5.0,34520.0,44212.0,73752.0,103658.0,30886.0,52770.0,30956.0,58956.0,20459.0,18351.0
2026-05-06 15:49:02.228676,396892,1609504805735182,2405647256,0.899872,-0.070272,0.01952,-4.99625,-1.98625,-1.84625,-34.904003,-13.312,-88.43201,inter_set_rest,4,5.0,34520.0,44212.0,73752.0,103658.0,30886.0,52770.0,30956.0,58956.0,20459.0,18351.0
2026-05-06 15:49:02.252702,396893,1609504805749675,2405662181,0.899872,-0.070272,0.01952,-3.885,-2.17875,-0.9275,-34.904003,-13.312,-88.43201,inter_set_rest,4,5.0,34520.0,44212.0,73752.0,103658.0,30886.0,52770.0,30956.0,58956.0,20459.0,18351.0
2026-05-06 15:49:02.255245,396894,1609504805758612,2405670877,0.894016,-0.074176,-0.00976,-2.68625,-2.415,-0.11375,-35.056004,-12.984,-88.456,inter_set_rest,4,5.0,34520.0,44212.0,73752.0,103658.0,30886.0,52770.0,30956.0,58956.0,20459.0,18351.0
2026-05-06 15:49:02.268963,396895,1609504805773128,2405683967,0.851072,-0.081984,-0.037088,-2.6425,-2.00375,1.12,-35.056004,-13.064001,-88.288,inter_set_rest,4,5.0,34520.0,44212.0,73752.0,103658.0,30886.0,52770.0,30956.0,58956.0,20459.0,18351.0
2026-05-06 15:49:02.277650,396896,1609504805782387,2405694742,0.851072,-0.081984,-0.037088,-2.96625,-1.68875,2.28375,-35.176003,-13.064001,-88.288,inter_set_rest,4,5.0,34520.0,44212.0,73752.0,103658.0,30886.0,52770.0,30956.0,58956.0,20459.0,18351.0
2026-05-06 15:49:02.308694,396907,1609504805792062,2405703639,0.851072,-0.081984,-0.037088,-3.75375,-1.9775,3.5525,-35.176003,-13.064001,-88.288,inter_set_rest,4,5.0,34635.0,44366.0,73745.0,103616.0,30934.0,52776.0,30917.0,58858.0,20483.0,18324.0
2026-05-06 15:49:02.311003,396908,1609504805806655,2405718598,0.854976,-0.113216,-0.070272,-3.03625,-1.46125,5.50375,-34.52,-13.576,-89.84801,inter_set_rest,4,5.0,34635.0,44366.0,73745.0,103616.0,30934.0,52776.0,30917.0,58858.0,20483.0,18324.0
2026-05-06 15:49:02.313606,396909,1609504805815864,2405727370,0.853024,-0.134688,-0.06832,-2.6425,-1.61875,7.42,-35.024002,-13.072001,-88.43201,inter_set_rest,4,5.0,34635.0,44366.0,73745.0,103616.0,30934.0,52776.0,30917.0,58858.0,20483.0,18324.0
2026-05-06 15:49:02.327320,396910,1609504805830419,2405742316,0.853024,-0.134688,-0.06832,-2.31875,-1.14625,10.115,-35.024002,-13.072001,-88.43201,inter_set_rest,4,5.0,34635.0,44366.0,73745.0,103616.0,30934.0,52776.0,30917.0,58858.0,20483.0,18324.0
2026-05-06 15:49:02.333569,396911,1609504805839336,2405751000,0.84912,-0.11712,-0.040992,-4.45375,-0.63,12.27625,-35.208,-13.848001,-86.984,inter_set_rest,4,5.0,34635.0,44366.0,73745.0,103616.0,30934.0,52776.0,30917.0,58858.0,20483.0,18324.0
2026-05-06 15:49:02.342362,396912,1609504805848312,2405759934,0.84912,-0.11712,-0.040992,-4.97875,0.245,14.525,-35.208,-13.848001,-86.984,inter_set_rest,4,5.0,34635.0,44366.0,73745.0,103616.0,30934.0,52776.0,30917.0,58858.0,20483.0,18324.0
2026-05-06 15:49:02.358806,396913,1609504805862899,2405774939,0.835456,-0.08784,-0.017568,-4.725,0.48125,15.26875,-35.136,-13.912001,-88.504005,inter_set_rest,4,5.0,34635.0,44366.0,73745.0,103616.0,30934.0,52776.0,30917.0,58858.0,20483.0,18324.0
2026-05-06 15:49:02.392493,396914,1609504805871842,2405783701,0.835456,-0.08784,-0.017568,-5.06625,1.02375,16.58125,-35.136,-13.912001,-88.504005,inter_set_rest,4,5.0,34635.0,44366.0,73745.0,103616.0,30934.0,52776.0,30917.0,58858.0,20483.0,18324.0
2026-05-06 15:49:02.416153,396915,1609504805886347,2405798694,0.784704,-0.124928,-0.044896,-6.7725,0.53375,18.69875,-35.216003,-11.872001,-88.73601,inter_set_rest,4,5.0,34635.0,44366.0,73745.0,103616.0,30934.0,52776.0,30917.0,58858.0,20483.0,18324.0
2026-05-06 15:49:02.510152,396926,1609504805895489,2405807480,0.798368,-0.220576,-0.050752,-6.6325,-0.105,23.89625,-34.824,-12.064,-87.90401,inter_set_rest,4,5.0,34822.0,44247.0,73392.0,104111.0,31100.0,52655.0,30748.0,59147.0,20562.0,18322.0
2026-05-06 15:49:02.516418,396927,1609504805904426,2405816197,0.798368,-0.220576,-0.050752,-6.23875,-1.44375,30.5025,-34.824,-12.064,-87.90401,inter_set_rest,4,5.0,34822.0,44247.0,73392.0,104111.0,31100.0,52655.0,30748.0,59147.0,20562.0,18322.0
2026-05-06 15:49:02.522605,396928,1609504805918923,2405831150,0.860832,-0.249856,-0.081984,-8.7675,-3.2375,35.27125,-35.064003,-11.232,-88.288,inter_set_rest,4,5.0,34822.0,44247.0,73392.0,104111.0,31100.0,52655.0,30748.0,59147.0,20562.0,18322.0
2026-05-06 15:49:02.524933,396929,1609504805927823,2405839989,0.860832,-0.249856,-0.081984,-10.96375,-3.82375,38.2025,-35.064003,-11.232,-88.288,inter_set_rest,4,5.0,34822.0,44247.0,73392.0,104111.0,31100.0,52655.0,30748.0,59147.0,20562.0,18322.0
2026-05-06 15:49:02.527402,396930,1609504805942306,2405854940,0.778848,-0.06832,-0.00976,-9.79125,-2.2225,39.45375,-35.232002,-10.832001,-88.48,inter_set_rest,4,5.0,34822.0,44247.0,73392.0,104111.0,31100.0,52655.0,30748.0,59147.0,20562.0,18322.0
2026-05-06 15:49:02.530013,396931,1609504805951243,2405864329,0.778848,-0.06832,-0.00976,-8.88125,-1.12,38.64,-35.232002,-10.832001,-88.48,inter_set_rest,4,5.0,34822.0,44247.0,73392.0,104111.0,31100.0,52655.0,30748.0,59147.0,20562.0,18322.0
2026-05-06 15:49:02.532590,396932,1609504805965930,2405877174,0.694912,-0.044896,-0.001952,-10.15875,-0.7875,40.1975,-35.480003,-12.008,-87.648,inter_set_rest,4,5.0,34822.0,44247.0,73392.0,104111.0,31100.0,52655.0,30748.0,59147.0,20562.0,18322.0
2026-05-06 15:49:02.535156,396933,1609504805975081,2405885935,0.806176,-0.298656,-0.083936,-15.46125,-1.295,45.701252,-35.56,-10.024,-89.352005,inter_set_rest,4,5.0,34822.0,44247.0,73392.0,104111.0,31100.0,52655.0,30748.0,59147.0,20562.0,18322.0
2026-05-06 15:49:02.538432,396934,1609504805984387,2405896760,0.806176,-0.298656,-0.083936,-22.00625,-1.9425,51.6425,-35.56,-10.024,-89.352005,concentric,4,5.0,34822.0,44247.0,73392.0,104111.0,31100.0,52655.0,30748.0,59147.0,20562.0,18322.0
2026-05-06 15:49:02.571092,396945,1609504805999246,2405911752,0.931104,-0.355264,-0.027328,-33.18,-3.5525,49.201252,-34.920002,-10.056001,-88.37601,concentric,4,5.0,34805.0,44140.0,72814.0,104842.0,31070.0,52637.0,30451.0,59546.0,20558.0,18326.0
2026-05-06 15:49:02.571225,396946,1609504806008254,2405920579,0.931104,-0.355264,-0.027328,-42.14,-3.0625,42.65625,-34.920002,-10.056001,-88.37601,concentric,4,5.0,34805.0,44140.0,72814.0,104842.0,31070.0,52637.0,30451.0,59546.0,20558.0,18326.0
2026-05-06 15:49:02.573582,396947,1609504806022970,2405935608,0.700768,-0.042944,0.056608,-27.46625,-0.175,44.5375,-35.368,-12.648001,-86.22401,concentric,4,5.0,34805.0,44140.0,72814.0,104842.0,31070.0,52637.0,30451.0,59546.0,20558.0,18326.0
2026-05-06 15:49:02.576467,396948,1609504806031949,2405944354,0.700768,-0.042944,0.056608,-9.37125,-1.46125,45.325,-35.368,-12.648001,-86.22401,concentric,4,5.0,34805.0,44140.0,72814.0,104842.0,31070.0,52637.0,30451.0,59546.0,20558.0,18326.0
2026-05-06 15:49:02.578667,396949,1609504806041064,2405953108,0.599264,-0.154208,0.054656,-10.54375,-2.765,48.11625,-35.152,-8.248,-88.72,concentric,4,5.0,34805.0,44140.0,72814.0,104842.0,31070.0,52637.0,30451.0,59546.0,20558.0,18326.0
2026-05-06 15:49:02.581499,396950,1609504806055839,2405968111,0.69296,-0.427488,-0.132736,-20.825,-2.6075,57.0325,-35.312,-7.456,-86.656006,concentric,4,5.0,34805.0,44140.0,72814.0,104842.0,31070.0,52637.0,30451.0,59546.0,20558.0,18326.0
2026-05-06 15:49:02.583915,396951,1609504806064819,2405976913,0.69296,-0.427488,-0.132736,-25.76875,-3.5875,66.683754,-35.312,-7.456,-86.656006,concentric,4,5.0,34805.0,44140.0,72814.0,104842.0,31070.0,52637.0,30451.0,59546.0,20558.0,18326.0
2026-05-06 15:49:02.586485,396952,1609504806079422,2405991974,0.886208,-0.470432,-0.08784,-31.9025,-4.9,68.32875,-35.272003,-8.832001,-87.496,concentric,4,5.0,34805.0,44140.0,72814.0,104842.0,31070.0,52637.0,30451.0,59546.0,20558.0,18326.0
2026-05-06 15:49:02.591526,396953,1609504806088388,2406000698,0.886208,-0.470432,-0.08784,-39.64625,-1.93375,61.425,-35.272003,-8.832001,-87.496,concentric,4,5.0,34805.0,44140.0,72814.0,104842.0,31070.0,52637.0,30451.0,59546.0,20558.0,18326.0
2026-05-06 15:49:02.619073,396964,1609504806097618,2406009528,0.552416,-0.062464,0.046848,-38.78875,2.38,53.0425,-35.104,-9.032001,-87.54401,concentric,4,5.0,35095.0,44520.0,72381.0,106232.0,31374.0,53015.0,30210.0,60231.0,20700.0,18507.0
2026-05-06 15:49:02.621564,396965,1609504806112302,2406024507,0.552416,-0.062464,0.046848,-24.50875,3.17625,51.4675,-35.104,-9.032001,-87.54401,concentric,4,5.0,35095.0,44520.0,72381.0,106232.0,31374.0,53015.0,30210.0,60231.0,20700.0,18507.0
2026-05-06 15:49:02.623978,396966,1609504806121329,2406033295,0.476288,-0.119072,-0.0488,9.66875,-1.93375,60.4975,-35.472,-7.32,-87.616005,concentric,4,5.0,35095.0,44520.0,72381.0,106232.0,31374.0,53015.0,30210.0,60231.0,20700.0,18507.0
2026-05-06 15:49:02.635120,396967,1609504806135955,2406048228,0.62464,-0.42944,-0.119072,18.17375,-4.48,68.1975,-35.352,-4.368,-89.512,concentric,4,5.0,35095.0,44520.0,72381.0,106232.0,31374.0,53015.0,30210.0,60231.0,20700.0,18507.0
2026-05-06 15:49:02.641359,396968,1609504806144918,2406057002,0.62464,-0.42944,-0.119072,-4.48875,-6.08125,68.13625,-35.352,-4.368,-89.512,concentric,4,5.0,35095.0,44520.0,72381.0,106232.0,31374.0,53015.0,30210.0,60231.0,20700.0,18507.0
2026-05-06 15:49:02.647510,396969,1609504806153828,2406065717,0.62464,-0.42944,-0.119072,-19.2675,-2.6775,68.6175,-35.352,-4.368,-89.512,concentric,4,5.0,35095.0,44520.0,72381.0,106232.0,31374.0,53015.0,30210.0,60231.0,20700.0,18507.0
2026-05-06 15:49:02.665003,396970,1609504806168298,2406080697,0.98576,-0.515328,-0.109312,-33.0925,1.89875,56.1225,-35.440002,-4.04,-87.632,concentric,4,5.0,35095.0,44520.0,72381.0,106232.0,31374.0,53015.0,30210.0,60231.0,20700.0,18507.0
2026-05-06 15:49:02.674987,396971,1609504806177194,2406089405,0.667584,-0.140544,0.122976,-55.53625,12.355001,37.8,-35.608,-4.376,-86.856,concentric,4,5.0,35095.0,44520.0,72381.0,106232.0,31374.0,53015.0,30210.0,60231.0,20700.0,18507.0
2026-05-06 15:49:02.718978,396982,1609504806192392,2406104518,0.667584,-0.140544,0.122976,-43.16375,18.5675,23.14375,-35.608,-4.376,-86.856,concentric,4,5.0,35557.0,44752.0,72327.0,107222.0,31786.0,53279.0,30227.0,60720.0,20863.0,18566.0
2026-05-06 15:49:02.721539,396983,1609504806201424,2406113311,0.558272,-0.236192,0.01952,-21.81375,18.3925,32.66375,-35.528,-4.32,-89.07201,concentric,4,5.0,35557.0,44752.0,72327.0,107222.0,31786.0,53279.0,30227.0,60720.0,20863.0,18566.0
2026-05-06 15:49:02.724050,396984,1609504806210404,2406122104,0.558272,-0.236192,0.01952,-21.95375,16.65125,45.7275,-35.528,-4.32,-89.07201,concentric,4,5.0,35557.0,44752.0,72327.0,107222.0,31786.0,53279.0,30227.0,60720.0,20863.0,18566.0
2026-05-06 15:49:02.726553,396985,1609504806225052,2406137137,0.646112,-0.411872,-0.169824,-24.84125,13.62375,51.73875,-35.856003,-3.032,-89.11201,concentric,4,5.0,35557.0,44752.0,72327.0,107222.0,31786.0,53279.0,30227.0,60720.0,20863.0,18566.0
2026-05-06 15:49:02.728761,396986,1609504806234111,2406145842,0.646112,-0.411872,-0.169824,-26.678751,14.0175,48.0725,-35.856003,-3.032,-89.11201,concentric,4,5.0,35557.0,44752.0,72327.0,107222.0,31786.0,53279.0,30227.0,60720.0,20863.0,18566.0
2026-05-06 15:49:02.761625,396987,1609504806248613,2406160795,0.81984,-0.435296,-0.150304,-29.085001,16.37125,32.375,-36.264,-2.76,-88.00001,concentric,4,5.0,35557.0,44752.0,72327.0,107222.0,31786.0,53279.0,30227.0,60720.0,20863.0,18566.0
2026-05-06 15:49:02.786096,396988,1609504806257516,2406169480,0.817888,-0.357216,0.158112,-46.34875,21.2275,18.41,-36.592003,-2.712,-89.392006,concentric,4,5.0,35557.0,44752.0,72327.0,107222.0,31786.0,53279.0,30227.0,60720.0,20863.0,18566.0
2026-05-06 15:49:02.802606,396989,1609504806272153,2406184551,0.817888,-0.357216,0.158112,-50.18125,27.5975,3.045,-36.592003,-2.712,-89.392006,concentric,4,5.0,35557.0,44752.0,72327.0,107222.0,31786.0,53279.0,30227.0,60720.0,20863.0,18566.0
2026-05-06 15:49:02.805067,396990,1609504806281087,2406193258,0.772992,-0.447008,0.12688,-32.1825,33.24125,-1.7675,-36.84,-3.016,-88.536,concentric,4,5.0,35557.0,44752.0,72327.0,107222.0,31786.0,53279.0,30227.0,60720.0,20863.0,18566.0
2026-05-06 15:49:02.807568,396991,1609504806290070,2406201938,0.772992,-0.447008,0.12688,-11.40125,31.6225,14.11375,-36.84,-3.016,-88.536,concentric,4,5.0,35557.0,44752.0,72327.0,107222.0,31786.0,53279.0,30227.0,60720.0,20863.0,18566.0
2026-05-06 15:49:02.834880,397002,1609504806304626,2406216943,0.648064,-0.28304,0.031232,-10.92,31.7275,33.1975,-37.416,-2.264,-88.12,concentric,4,5.0,37222.0,46353.0,74176.0,108039.0,33083.0,54752.0,31119.0,61029.0,21523.0,19182.0
2026-05-06 15:49:02.837407,397003,1609504806313552,2406225699,0.648064,-0.28304,0.031232,-10.73625,31.036251,27.536251,-37.416,-2.264,-88.12,concentric,4,5.0,37222.0,46353.0,74176.0,108039.0,33083.0,54752.0,31119.0,61029.0,21523.0,19182.0
2026-05-06 15:49:02.839744,397004,1609504806328226,2406240706,0.81984,-0.335744,-0.152256,-12.74875,30.54625,22.1375,-37.984,-1.624,-87.64001,concentric,4,5.0,37222.0,46353.0,74176.0,108039.0,33083.0,54752.0,31119.0,61029.0,21523.0,19182.0
2026-05-06 15:49:02.842150,397005,1609504806337206,2406249437,0.821792,-0.31232,0.054656,-9.79125,31.22,14.1225,-37.984,-1.632,-87.728004,concentric,4,5.0,37222.0,46353.0,74176.0,108039.0,33083.0,54752.0,31119.0,61029.0,21523.0,19182.0
2026-05-06 15:49:02.844779,397006,1609504806346297,2406258211,0.821792,-0.31232,0.054656,-32.83,35.420002,-6.335,-38.208,-1.632,-87.728004,concentric,4,5.0,37222.0,46353.0,74176.0,108039.0,33083.0,54752.0,31119.0,61029.0,21523.0,19182.0
2026-05-06 15:49:02.862397,397007,1609504806360878,2406273159,0.66368,-0.279136,0.081984,-41.04625,36.33,-13.9125,-38.592003,-1.808,-87.600006,concentric,4,5.0,37222.0,46353.0,74176.0,108039.0,33083.0,54752.0,31119.0,61029.0,21523.0,19182.0
2026-05-06 15:49:02.865103,397008,1609504806369830,2406281904,0.66368,-0.279136,0.081984,-20.95625,32.2875,-5.4425,-38.592003,-1.808,-87.600006,concentric,4,5.0,37222.0,46353.0,74176.0,108039.0,33083.0,54752.0,31119.0,61029.0,21523.0,19182.0
2026-05-06 15:49:02.878688,397009,1609504806384339,2406296836,0.806176,-0.366976,0.070272,-3.3775,29.12,-2.98375,-39.192,-1.152,-87.632,concentric,4,5.0,37222.0,46353.0,74176.0,108039.0,33083.0,54752.0,31119.0,61029.0,21523.0,19182.0
2026-05-06 15:49:02.912556,397020,1609504806393766,2406305600,0.806176,-0.366976,0.070272,-2.65125,28.07875,0.07875,-39.192,-1.152,-87.632,concentric,4,5.0,37587.0,46763.0,75648.0,106544.0,33255.0,54935.0,31776.0,60103.0,21609.0,19196.0
2026-05-06 15:49:02.914840,397021,1609504806402831,2406314384,0.825696,-0.339648,0.081984,-6.86875,29.51375,0.09625,-39.688004,-1.208,-86.888,concentric,4,5.0,37587.0,46763.0,75648.0,106544.0,33255.0,54935.0,31776.0,60103.0,21609.0,19196.0
2026-05-06 15:49:02.917520,397022,1609504806417356,2406329429,0.825696,-0.339648,0.109312,-11.5325,35.6825,-0.9975,-39.688004,-1.208,-86.888,concentric,4,5.0,37587.0,46763.0,75648.0,106544.0,33255.0,54935.0,31776.0,60103.0,21609.0,19196.0
2026-05-06 15:49:02.919966,397023,1609504806426422,2406338231,0.876448,-0.343552,0.109312,-13.667501,38.185,-13.23875,-40.368,-1.704,-86.04,concentric,4,5.0,37587.0,46763.0,75648.0,106544.0,33255.0,54935.0,31776.0,60103.0,21609.0,19196.0
2026-05-06 15:49:02.953906,397024,1609504806440938,2406353149,0.85888,-0.22448,-0.011712,-28.20125,37.96625,-22.505,-40.976,-1.408,-86.79201,concentric,4,5.0,37587.0,46763.0,75648.0,106544.0,33255.0,54935.0,31776.0,60103.0,21609.0,19196.0
2026-05-06 15:49:02.956390,397025,1609504806449907,2406361931,0.85888,-0.22448,-0.011712,-25.8475,34.8775,-29.05875,-40.976,-1.408,-86.79201,concentric,4,5.0,37587.0,46763.0,75648.0,106544.0,33255.0,54935.0,31776.0,60103.0,21609.0,19196.0
2026-05-06 15:49:02.958837,397026,1609504806464389,2406376844,0.960384,-0.23424,0.050752,-37.4325,28.7175,-27.60625,-41.184002,-2.192,-86.54401,concentric,4,5.0,37587.0,46763.0,75648.0,106544.0,33255.0,54935.0,31776.0,60103.0,21609.0,19196.0
2026-05-06 15:49:02.967586,397027,1609504806473334,2406385551,0.960384,-0.23424,0.050752,-54.11875,26.775,-32.3925,-41.184002,-2.192,-86.54401,concentric,4,5.0,37587.0,46763.0,75648.0,106544.0,33255.0,54935.0,31776.0,60103.0,21609.0,19196.0
2026-05-06 15:49:02.981397,397028,1609504806482378,2406394246,0.915488,-0.447008,0.103456,-43.46125,23.38,-31.71875,-41.944,-2.368,-86.240005,concentric,4,5.0,37587.0,46763.0,75648.0,106544.0,33255.0,54935.0,31776.0,60103.0,21609.0,19196.0
2026-05-06 15:49:03.012690,397039,1609504806497163,2406409257,0.915488,-0.447008,0.103456,-24.03625,25.15625,-30.4325,-41.944,-2.368,-86.240005,concentric,4,5.0,37736.0,47519.0,76269.0,106110.0,33260.0,55495.0,31991.0,59776.0,21574.0,19399.0
2026-05-06 15:49:03.015100,397040,1609504806506289,2406418054,0.993568,-0.415776,0.187392,-10.6225,23.8175,-42.2625,-42.272003,-3.624,-85.26401,concentric,4,5.0,37736.0,47519.0,76269.0,106110.0,33260.0,55495.0,31991.0,59776.0,21574.0,19399.0
2026-05-06 15:49:03.017568,397041,1609504806520896,2406433089,1.052128,-0.220576,0.148352,3.00125,21.76125,-44.415,-42.784,-5.832,-83.568,concentric,4,5.0,37736.0,47519.0,76269.0,106110.0,33260.0,55495.0,31991.0,59776.0,21574.0,19399.0
2026-05-06 15:49:03.023961,397042,1609504806529836,2406441837,1.052128,-0.220576,0.148352,6.39625,18.78625,-41.64125,-42.784,-5.832,-83.568,concentric,4,5.0,37736.0,47519.0,76269.0,106110.0,33260.0,55495.0,31991.0,59776.0,21574.0,19399.0
2026-05-06 15:49:03.035143,397043,1609504806538771,2406450549,1.069696,-0.242048,0.115168,9.87,16.4325,-46.33125,-44.832,-3.304,-85.58401,concentric,4,5.0,37736.0,47519.0,76269.0,106110.0,33260.0,55495.0,31991.0,59776.0,21574.0,19399.0
2026-05-06 15:49:03.058856,397044,1609504806553293,2406465474,1.069696,-0.242048,0.115168,9.0825,15.02375,-51.73875,-43.024002,-3.304,-85.58401,concentric,4,5.0,37736.0,47519.0,76269.0,106110.0,33260.0,55495.0,31991.0,59776.0,21574.0,19399.0
2026-05-06 15:49:03.061458,397045,1609504806562209,2406474182,1.08336,-0.355264,0.212768,6.81625,15.65375,-51.205,-43.36,-4.048,-85.784004,concentric,4,5.0,37736.0,47519.0,76269.0,106110.0,33260.0,55495.0,31991.0,59776.0,21574.0,19399.0
2026-05-06 15:49:03.072590,397046,1609504806576731,2406489131,1.08336,-0.355264,0.212768,4.43625,17.7275,-49.7,-43.36,-4.048,-85.784004,concentric,4,5.0,37736.0,47519.0,76269.0,106110.0,33260.0,55495.0,31991.0,59776.0,21574.0,19399.0
2026-05-06 15:49:03.081433,397047,1609504806585676,2406497872,1.030656,-0.318176,0.28304,7.0175,19.6,-51.1175,-43.584003,-3.84,-85.20801,concentric,4,5.0,37736.0,47519.0,76269.0,106110.0,33260.0,55495.0,31991.0,59776.0,21574.0,19399.0
2026-05-06 15:49:03.201541,397058,1609504806600266,2406512943,1.11264,-0.220576,0.124928,1.96875,23.345,-48.23875,-44.280003,-4.656,-87.16801,concentric,4,5.0,36987.0,47091.0,76072.0,104627.0,32548.0,54952.0,31886.0,58928.0,21209.0,19102.0
2026-05-06 15:49:03.203947,397059,1609504806609303,2406521658,1.11264,-0.220576,0.124928,3.84125,22.28625,-45.4475,-44.280003,-4.656,-87.16801,concentric,4,5.0,36987.0,47091.0,76072.0,104627.0,32548.0,54952.0,31886.0,58928.0,21209.0,19102.0
2026-05-06 15:49:03.206582,397060,1609504806618221,2406530354,1.11264,-0.220576,0.124928,5.4425,23.56375,-48.29125,-44.280003,-4.656,-87.16801,concentric,4,5.0,36987.0,47091.0,76072.0,104627.0,32548.0,54952.0,31886.0,58928.0,21209.0,19102.0
2026-05-06 15:49:03.209027,397061,1609504806632839,2406545254,1.223904,-0.304512,0.18544,7.72625,23.555,-49.34125,-44.504,-4.544,-85.304,concentric,4,5.0,36987.0,47091.0,76072.0,104627.0,32548.0,54952.0,31886.0,58928.0,21209.0,19102.0
2026-05-06 15:49:03.211522,397062,1609504806641774,2406553946,1.20048,-0.365024,0.208864,7.81375,25.96125,-46.85625,-45.56,-6.752,-84.448006,concentric,4,5.0,36987.0,47091.0,76072.0,104627.0,32548.0,54952.0,31886.0,58928.0,21209.0,19102.0
2026-05-06 15:49:03.213899,397063,1609504806656272,2406568831,1.20048,-0.365024,0.208864,8.77625,26.94125,-46.76875,-45.56,-6.752,-84.448006,concentric,4,5.0,36987.0,47091.0,76072.0,104627.0,32548.0,54952.0,31886.0,58928.0,21209.0,19102.0
2026-05-06 15:49:03.216552,397064,1609504806665238,2406577634,1.223904,-0.296704,0.249856,12.53875,25.47125,-45.08,-45.600002,-5.424,-84.32001,concentric,4,5.0,36987.0,47091.0,76072.0,104627.0,32548.0,54952.0,31886.0,58928.0,21209.0,19102.0
2026-05-06 15:49:03.219009,397065,1609504806679701,2406590486,1.218048,-0.306464,0.228384,13.4925,24.96375,-41.67625,-45.600002,-5.488,-84.248,concentric,4,5.0,36987.0,47091.0,76072.0,104627.0,32548.0,54952.0,31886.0,58928.0,21209.0,19102.0
2026-05-06 15:49:03.221530,397066,1609504806688918,2406601290,1.218048,-0.306464,0.228384,12.95875,24.99875,-39.62875,-45.832,-5.488,-84.248,concentric,4,5.0,36987.0,47091.0,76072.0,104627.0,32548.0,54952.0,31886.0,58928.0,21209.0,19102.0
2026-05-06 15:49:03.248568,397077,1609504806698138,2406610067,1.218048,-0.306464,0.228384,15.09375,24.99875,-38.5,-45.832,-5.488,-84.248,concentric,4,5.0,36538.0,46324.0,75380.0,104405.0,32121.0,54270.0,31578.0,58848.0,21019.0,18879.0
2026-05-06 15:49:03.251077,397078,1609504806712769,2406625167,1.206336,-0.450912,0.1952,21.46375,26.565,-35.735,-46.176003,-5.888001,-81.84801,concentric,4,5.0,36538.0,46324.0,75380.0,104405.0,32121.0,54270.0,31578.0,58848.0,21019.0,18879.0
2026-05-06 15:49:03.253819,397079,1609504806721848,2406633927,1.14192,-0.38064,0.26352,25.935,28.63875,-31.395,-46.624,-8.064,-81.136,concentric,4,5.0,36538.0,46324.0,75380.0,104405.0,32121.0,54270.0,31578.0,58848.0,21019.0,18879.0
2026-05-06 15:49:03.256379,397080,1609504806736400,2406648969,1.14192,-0.38064,0.26352,28.3325,30.49375,-25.20875,-46.624,-8.064,-81.136,concentric,4,5.0,36538.0,46324.0,75380.0,104405.0,32121.0,54270.0,31578.0,58848.0,21019.0,18879.0
2026-05-06 15:49:03.258786,397081,1609504806745396,2406657732,1.06384,-0.23424,0.163968,31.15875,30.47625,-20.25625,-46.912003,-8.064,-81.600006,concentric,4,5.0,36538.0,46324.0,75380.0,104405.0,32121.0,54270.0,31578.0,58848.0,21019.0,18879.0
2026-05-06 15:49:03.261501,397082,1609504806754450,2406666457,1.06384,-0.23424,0.163968,29.00625,30.1175,-18.13875,-46.912003,-8.064,-81.600006,concentric,4,5.0,36538.0,46324.0,75380.0,104405.0,32121.0,54270.0,31578.0,58848.0,21019.0,18879.0
2026-05-06 15:49:03.263764,397083,1609504806768964,2406681388,1.048224,-0.261568,0.177632,26.55625,28.5425,-16.485,-47.096,-7.624001,-81.152,concentric,4,5.0,36538.0,46324.0,75380.0,104405.0,32121.0,54270.0,31578.0,58848.0,21019.0,18879.0
2026-05-06 15:49:03.272587,397084,1609504806777949,2406690138,1.048224,-0.261568,0.177632,25.0425,27.475,-13.97375,-47.096,-7.624001,-81.152,concentric,4,5.0,36538.0,46324.0,75380.0,104405.0,32121.0,54270.0,31578.0,58848.0,21019.0,18879.0
2026-05-06 15:49:03.295064,397085,1609504806792589,2406705224,0.997472,-0.37088,0.220576,25.54125,28.56,-11.41,-47.568,-7.216001,-80.80801,concentric,4,5.0,36538.0,46324.0,75380.0,104405.0,32121.0,54270.0,31578.0,58848.0,21019.0,18879.0
2026-05-06 15:49:03.325752,397096,1609504806801660,2406713978,0.940864,-0.23424,0.167872,23.51125,27.90375,-9.10875,-47.816,-5.616,-84.22401,concentric,4,5.0,36067.0,46017.0,74748.0,103850.0,31722.0,53908.0,31230.0,58557.0,20818.0,18739.0
2026-05-06 15:49:03.325875,397097,1609504806810655,2406722732,0.940864,-0.23424,0.167872,23.05625,26.1975,-8.33,-47.816,-5.616,-84.22401,concentric,4,5.0,36067.0,46017.0,74748.0,103850.0,31722.0,53908.0,31230.0,58557.0,20818.0,18739.0
2026-05-06 15:49:03.328372,397098,1609504806825180,2406737687,0.931104,-0.103456,0.150304,23.89625,23.0125,-6.39625,-47.768,-7.08,-79.896,concentric,4,5.0,36067.0,46017.0,74748.0,103850.0,31722.0,53908.0,31230.0,58557.0,20818.0,18739.0
2026-05-06 15:49:03.329837,397099,1609504806834208,2406746420,0.931104,-0.103456,0.150304,20.67625,19.43375,-4.78625,-47.768,-7.08,-79.896,concentric,4,5.0,36067.0,46017.0,74748.0,103850.0,31722.0,53908.0,31230.0,58557.0,20818.0,18739.0
2026-05-06 15:49:03.343838,397100,1609504806848743,2406761379,0.90768,-0.179584,0.158112,12.22375,15.46125,-7.7,-47.832,-7.728,-78.864006,concentric,4,5.0,36067.0,46017.0,74748.0,103850.0,31722.0,53908.0,31230.0,58557.0,20818.0,18739.0
2026-05-06 15:49:03.352646,397101,1609504806857665,2406770133,0.90768,-0.179584,0.158112,4.66375,12.55625,-9.58125,-47.832,-7.728,-78.864006,concentric,4,5.0,36067.0,46017.0,74748.0,103850.0,31722.0,53908.0,31230.0,58557.0,20818.0,18739.0
2026-05-06 15:49:03.366527,397102,1609504806872186,2406782982,0.899872,-0.230336,0.16592,1.84625,9.59,-9.275,-48.280003,-7.904,-80.368004,concentric,4,5.0,36067.0,46017.0,74748.0,103850.0,31722.0,53908.0,31230.0,58557.0,20818.0,18739.0
2026-05-06 15:49:03.380051,397103,1609504806881435,2406793780,0.83936,-0.10736,0.261568,-1.35625,7.11375,-8.00625,-48.168003,-5.848,-80.176,concentric,4,5.0,36067.0,46017.0,74748.0,103850.0,31722.0,53908.0,31230.0,58557.0,20818.0,18739.0
2026-05-06 15:49:03.386305,397104,1609504806890354,2406802472,0.83936,-0.10736,0.261568,-0.6475,5.57375,-5.85375,-48.168003,-5.848,-80.176,concentric,4,5.0,36067.0,46017.0,74748.0,103850.0,31722.0,53908.0,31230.0,58557.0,20818.0,18739.0
2026-05-06 15:49:03.418723,397116,1609504806905068,2406817598,0.851072,-0.099552,0.28304,-2.66,3.42125,-4.66375,-48.152,-5.744,-80.968,concentric,4,5.0,35689.0,45466.0,74106.0,103529.0,31432.0,53326.0,30943.0,58368.0,20708.0,18519.0
2026-05-06 15:49:03.422819,397117,1609504806914030,2406826333,0.851072,-0.099552,0.28304,-7.86625,1.18125,-4.97,-48.152,-5.744,-80.968,concentric,4,5.0,35689.0,45466.0,74106.0,103529.0,31432.0,53326.0,30943.0,58368.0,20708.0,18519.0
2026-05-06 15:49:03.423658,397118,1609504806928730,2406841292,0.931104,-0.238144,0.281088,-10.9375,-1.2075,-6.71125,-48.024002,-5.824,-80.4,concentric,4,5.0,35689.0,45466.0,74106.0,103529.0,31432.0,53326.0,30943.0,58368.0,20708.0,18519.0
2026-05-06 15:49:03.437574,397119,1609504806937845,2406850048,0.931104,-0.238144,0.281088,-15.81125,-2.24,-7.8925,-48.024002,-5.824,-80.4,concentric,4,5.0,35689.0,45466.0,74106.0,103529.0,31432.0,53326.0,30943.0,58368.0,20708.0,18519.0
2026-05-06 15:49:03.440078,397120,1609504806946810,2406858822,1.003328,-0.244,0.329888,-23.49375,-2.17875,-7.7525,-47.88,-6.632,-80.936005,concentric,4,5.0,35689.0,45466.0,74106.0,103529.0,31432.0,53326.0,30943.0,58368.0,20708.0,18519.0
2026-05-06 15:49:03.481555,397121,1609504806961301,2406873830,1.003328,-0.228384,0.349408,-23.73,-1.1025,-3.21125,-47.88,-6.632,-80.936005,concentric,4,5.0,35689.0,45466.0,74106.0,103529.0,31432.0,53326.0,30943.0,58368.0,20708.0,18519.0
2026-05-06 15:49:03.508625,397122,1609504806970213,2406882521,1.001376,-0.232288,0.349408,-19.11875,0.23625,1.7325,-47.944004,-7.384,-81.344,concentric,4,5.0,35689.0,45466.0,74106.0,103529.0,31432.0,53326.0,30943.0,58368.0,20708.0,18519.0
2026-05-06 15:49:03.528647,397123,1609504806984685,2406895521,1.020896,-0.28304,0.337696,-17.98125,2.07375,3.08,-47.848003,-6.216,-80.944,concentric,4,5.0,35689.0,45466.0,74106.0,103529.0,31432.0,53326.0,30943.0,58368.0,20708.0,18519.0
2026-05-06 15:49:03.531239,397124,1609504806993925,2406906324,1.020896,-0.28304,0.337696,-17.2025,3.1675,6.62375,-47.848003,-6.216,-80.944,concentric,4,5.0,35689.0,45466.0,74106.0,103529.0,31432.0,53326.0,30943.0,58368.0,20708.0,18519.0
2026-05-06 15:49:03.561503,397135,1609504807002970,2406915186,1.079456,-0.314272,0.28304,-13.9125,3.84125,10.49125,-47.992,-5.992,-80.704,concentric,4,5.0,36214.0,45654.0,74296.0,104286.0,31921.0,53562.0,31086.0,58804.0,20953.0,18680.0
2026-05-06 15:49:03.563977,397136,1609504807017565,2406930245,1.079456,-0.314272,0.28304,-12.66125,5.17125,11.83,-47.992,-5.992,-80.704,concentric,4,5.0,36214.0,45654.0,74296.0,104286.0,31921.0,53562.0,31086.0,58804.0,20953.0,18680.0
2026-05-06 15:49:03.566529,397137,1609504807026510,2406938979,1.095072,-0.325984,0.281088,-9.49375,4.4625,13.7375,-47.760002,-6.520001,-80.616005,concentric,4,5.0,36214.0,45654.0,74296.0,104286.0,31921.0,53562.0,31086.0,58804.0,20953.0,18680.0
2026-05-06 15:49:03.568982,397138,1609504807041013,2406951831,1.095072,-0.325984,0.281088,-8.2075,2.56375,13.0725,-47.760002,-6.520001,-80.616005,concentric,4,5.0,36214.0,45654.0,74296.0,104286.0,31921.0,53562.0,31086.0,58804.0,20953.0,18680.0
2026-05-06 15:49:03.571570,397139,1609504807050497,2406962683,1.091168,-0.35136,0.28304,-10.10625,0.1225,13.36125,-48.256,-8.96,-78.76,concentric,4,5.0,36214.0,45654.0,74296.0,104286.0,31921.0,53562.0,31086.0,58804.0,20953.0,18680.0
2026-05-06 15:49:03.577410,397140,1609504807059467,2406971501,1.091168,-0.35136,0.28304,-8.575,-1.8725,16.87,-48.256,-8.96,-78.76,eccentric,4,5.0,36214.0,45654.0,74296.0,104286.0,31921.0,53562.0,31086.0,58804.0,20953.0,18680.0
2026-05-06 15:49:03.580109,397141,1609504807073949,2406986407,1.071648,-0.308416,0.320128,-3.77125,-2.93125,17.36875,-47.88,-9.320001,-78.464005,eccentric,4,5.0,36214.0,45654.0,74296.0,104286.0,31921.0,53562.0,31086.0,58804.0,20953.0,18680.0
2026-05-06 15:49:03.582664,397142,1609504807082943,2406995237,1.126304,-0.26352,0.247904,2.3275,-4.375,16.12625,-47.280003,-6.888001,-79.824005,eccentric,4,5.0,36214.0,45654.0,74296.0,104286.0,31921.0,53562.0,31086.0,58804.0,20953.0,18680.0
2026-05-06 15:49:03.622596,397153,1609504807097494,2407010267,1.126304,-0.26352,0.247904,-1.77625,-7.11375,16.30125,-47.280003,-6.888001,-79.824005,eccentric,4,5.0,35907.0,45343.0,73608.0,104504.0,31666.0,53334.0,30748.0,58892.0,20797.0,18568.0
2026-05-06 15:49:03.625126,397154,1609504807106583,2407019105,1.065792,-0.281088,0.220576,-13.57125,-8.81125,13.74625,-46.968002,-5.992,-81.048004,eccentric,4,5.0,35907.0,45343.0,73608.0,104504.0,31666.0,53334.0,30748.0,58892.0,20797.0,18568.0
2026-05-06 15:49:03.627642,397155,1609504807121153,2407032036,1.065792,-0.281088,0.220576,-19.13625,-12.215,10.185,-46.968002,-5.992,-81.048004,eccentric,4,5.0,35907.0,45343.0,73608.0,104504.0,31666.0,53334.0,30748.0,58892.0,20797.0,18568.0
2026-05-06 15:49:03.629997,397156,1609504807130588,2407042810,1.059936,-0.450912,0.177632,-14.315001,-12.01375,10.40375,-46.912003,-7.688,-80.952,eccentric,4,5.0,35907.0,45343.0,73608.0,104504.0,31666.0,53334.0,30748.0,58892.0,20797.0,18568.0
2026-05-06 15:49:03.632588,397157,1609504807139536,2407051625,1.059936,-0.450912,0.177632,-8.91625,-14.35875,9.3975,-46.912003,-7.688,-80.952,eccentric,4,5.0,35907.0,45343.0,73608.0,104504.0,31666.0,53334.0,30748.0,58892.0,20797.0,18568.0
2026-05-06 15:49:03.666318,397158,1609504807154024,2407066557,0.96624,-0.36112,0.308416,-11.165,-14.95375,9.98375,-46.152,-7.6,-80.288,eccentric,4,5.0,35907.0,45343.0,73608.0,104504.0,31666.0,53334.0,30748.0,58892.0,20797.0,18568.0
2026-05-06 15:49:03.668720,397159,1609504807163028,2407075324,0.981856,-0.20496,0.132736,-1.54875,-15.365,8.96875,-46.152,-7.6,-82.01601,eccentric,4,5.0,35907.0,45343.0,73608.0,104504.0,31666.0,53334.0,30748.0,58892.0,20797.0,18568.0
2026-05-06 15:49:03.672569,397160,1609504807177523,2407090255,0.981856,-0.20496,0.132736,3.885,-17.0625,7.90125,-46.256,-5.76,-82.01601,eccentric,4,5.0,35907.0,45343.0,73608.0,104504.0,31666.0,53334.0,30748.0,58892.0,20797.0,18568.0
2026-05-06 15:49:03.686543,397161,1609504807186509,2407098979,1.056032,-0.162016,0.144448,10.01875,-20.01125,6.93875,-45.744003,-6.504,-81.72,eccentric,4,5.0,35907.0,45343.0,73608.0,104504.0,31666.0,53334.0,30748.0,58892.0,20797.0,18568.0
2026-05-06 15:49:03.690246,397162,1609504807195463,2407107716,1.056032,-0.162016,0.144448,-5.66125,-20.41375,2.6775,-45.744003,-6.504,-81.72,eccentric,4,5.0,35907.0,45343.0,73608.0,104504.0,31666.0,53334.0,30748.0,58892.0,20797.0,18568.0
2026-05-06 15:49:03.720009,397173,1609504807210105,2407122762,1.011136,-0.3416,0.251808,-11.73375,-18.3575,-3.92,-45.280003,-9.856001,-79.192,eccentric,4,5.0,35773.0,45209.0,72852.0,104253.0,31518.0,53224.0,30341.0,58762.0,20733.0,18508.0
2026-05-06 15:49:03.722604,397174,1609504807219039,2407131530,1.011136,-0.3416,0.251808,-15.9775,-18.82125,-9.8875,-45.280003,-9.856001,-79.192,eccentric,4,5.0,35773.0,45209.0,72852.0,104253.0,31518.0,53224.0,30341.0,58762.0,20733.0,18508.0
2026-05-06 15:49:03.728727,397175,1609504807233722,2407146440,0.93696,-0.259616,0.333792,-26.9325,-18.99625,-8.54875,-45.152,-10.120001,-80.07201,eccentric,4,5.0,35773.0,45209.0,72852.0,104253.0,31518.0,53224.0,30341.0,58762.0,20733.0,18508.0
2026-05-06 15:49:03.765254,397176,1609504807242673,2407155134,0.93696,-0.259616,0.333792,-24.28125,-18.94375,-4.69,-45.152,-10.120001,-80.07201,eccentric,4,5.0,35773.0,45209.0,72852.0,104253.0,31518.0,53224.0,30341.0,58762.0,20733.0,18508.0
2026-05-06 15:49:03.767739,397177,1609504807257344,2407168107,1.013088,-0.148352,0.222528,-4.9,-20.90375,-5.52125,-44.608,-6.904,-81.69601,eccentric,4,5.0,35773.0,45209.0,72852.0,104253.0,31518.0,53224.0,30341.0,58762.0,20733.0,18508.0
2026-05-06 15:49:03.770279,397178,1609504807266707,2407178891,0.979904,-0.1464,0.181536,3.89375,-21.525,-7.18375,-44.096,-7.424,-82.600006,eccentric,4,5.0,35773.0,45209.0,72852.0,104253.0,31518.0,53224.0,30341.0,58762.0,20733.0,18508.0
2026-05-06 15:49:03.772748,397179,1609504807275789,2407187606,0.979904,-0.1464,0.181536,8.26,-21.866251,-10.8325,-44.096,-7.424,-82.600006,eccentric,4,5.0,35773.0,45209.0,72852.0,104253.0,31518.0,53224.0,30341.0,58762.0,20733.0,18508.0
2026-05-06 15:49:03.789924,397180,1609504807290316,2407202521,0.968192,-0.288896,0.245952,5.15375,-22.39125,-17.77125,-44.008003,-9.608001,-82.208,eccentric,4,5.0,35773.0,45209.0,72852.0,104253.0,31518.0,53224.0,30341.0,58762.0,20733.0,18508.0
2026-05-06 15:49:03.819920,397191,1609504807299605,2407211365,0.968192,-0.288896,0.245952,-2.00375,-22.35625,-21.18375,-44.008003,-9.608001,-82.208,eccentric,4,5.0,35868.0,44993.0,72740.0,104276.0,31597.0,52998.0,30297.0,58765.0,20713.0,18389.0
2026-05-06 15:49:03.822606,397192,1609504807308794,2407220224,1.020896,-0.206912,0.30256,0.58625,-21.55125,-18.76875,-43.672,-8.368,-83.600006,eccentric,4,5.0,35868.0,44993.0,72740.0,104276.0,31597.0,52998.0,30297.0,58765.0,20713.0,18389.0
2026-05-06 15:49:03.825037,397193,1609504807323324,2407235199,1.020896,-0.206912,0.30256,5.76625,-19.04875,-16.87875,-43.672,-8.368,-83.600006,eccentric,4,5.0,35868.0,44993.0,72740.0,104276.0,31597.0,52998.0,30297.0,58765.0,20713.0,18389.0
2026-05-06 15:49:03.827601,397194,1609504807332281,2407243911,0.931104,-0.091744,0.220576,3.61375,-13.51875,-18.8475,-43.008003,-9.496,-81.688,eccentric,4,5.0,35868.0,44993.0,72740.0,104276.0,31597.0,52998.0,30297.0,58765.0,20713.0,18389.0
2026-05-06 15:49:03.861584,397195,1609504807346825,2407258859,0.962336,-0.144448,0.162016,4.66375,-10.14125,-20.39625,-42.992,-8.872001,-82.704,eccentric,4,5.0,35868.0,44993.0,72740.0,104276.0,31597.0,52998.0,30297.0,58765.0,20713.0,18389.0
2026-05-06 15:49:03.889315,397196,1609504807355898,2407267671,0.962336,-0.144448,0.162016,7.6125,-8.54875,-23.54625,-42.992,-8.872001,-82.704,eccentric,4,5.0,35868.0,44993.0,72740.0,104276.0,31597.0,52998.0,30297.0,58765.0,20713.0,18389.0
2026-05-06 15:49:03.911212,397197,1609504807370372,2407282585,0.942816,-0.22448,0.199104,13.83375,-8.3125,-26.13625,-42.816,-9.496,-83.48801,eccentric,4,5.0,35868.0,44993.0,72740.0,104276.0,31597.0,52998.0,30297.0,58765.0,20713.0,18389.0
2026-05-06 15:49:03.926480,397198,1609504807379290,2407291277,0.942816,-0.22448,0.199104,19.285,-8.35625,-28.875,-42.816,-9.496,-83.48801,eccentric,4,5.0,35868.0,44993.0,72740.0,104276.0,31597.0,52998.0,30297.0,58765.0,20713.0,18389.0
2026-05-06 15:49:03.928776,397199,1609504807388365,2407299992,0.942816,-0.150304,0.144448,23.52,-7.1575,-33.24125,-42.312,-10.120001,-83.240005,eccentric,4,5.0,35868.0,44993.0,72740.0,104276.0,31597.0,52998.0,30297.0,58765.0,20713.0,18389.0
2026-05-06 15:49:03.961194,397210,1609504807403109,2407315091,0.942816,-0.150304,0.144448,28.1225,-7.0525,-31.9725,-42.312,-10.120001,-83.240005,eccentric,4,5.0,36499.0,46111.0,73661.0,104421.0,32075.0,54018.0,30754.0,58839.0,20955.0,18764.0
2026-05-06 15:49:03.963819,397211,1609504807412099,2407323770,0.845216,0.062464,0.111264,38.955,-7.97125,-27.29125,-41.800003,-10.352,-83.616005,eccentric,4,5.0,36499.0,46111.0,73661.0,104421.0,32075.0,54018.0,30754.0,58839.0,20955.0,18764.0
2026-05-06 15:49:03.966525,397212,1609504807426706,2407338725,0.788608,0.031232,0.189344,44.52,-10.386251,-30.21375,-41.888,-11.968,-82.352005,eccentric,4,5.0,36499.0,46111.0,73661.0,104421.0,32075.0,54018.0,30754.0,58839.0,20955.0,18764.0
2026-05-06 15:49:03.968963,397213,1609504807435736,2407347443,0.788608,0.031232,0.189344,35.77875,-12.46875,-37.9925,-41.888,-11.968,-82.352005,eccentric,4,5.0,36499.0,46111.0,73661.0,104421.0,32075.0,54018.0,30754.0,58839.0,20955.0,18764.0
2026-05-06 15:49:03.971554,397214,1609504807444639,2407356195,0.788608,0.031232,0.173728,21.98875,-11.90875,-42.23625,-41.888,-11.968,-82.352005,eccentric,4,5.0,36499.0,46111.0,73661.0,104421.0,32075.0,54018.0,30754.0,58839.0,20955.0,18764.0
2026-05-06 15:49:03.977086,397215,1609504807459344,2407371126,0.847168,-0.11712,0.18544,9.1525,-10.5175,-43.1725,-41.616,-12.696001,-81.96001,eccentric,4,5.0,36499.0,46111.0,73661.0,104421.0,32075.0,54018.0,30754.0,58839.0,20955.0,18764.0
2026-05-06 15:49:03.977692,397216,1609504807468459,2407379964,0.862784,-0.02928,0.099552,1.54,-9.12625,-43.23375,-41.144,-13.792001,-82.976006,eccentric,4,5.0,36499.0,46111.0,73661.0,104421.0,32075.0,54018.0,30754.0,58839.0,20955.0,18764.0
2026-05-06 15:49:03.978760,397217,1609504807483023,2407395027,0.862784,-0.02928,0.099552,9.17,-10.12375,-43.3125,-41.144,-13.792001,-82.976006,eccentric,4,5.0,36499.0,46111.0,73661.0,104421.0,32075.0,54018.0,30754.0,58839.0,20955.0,18764.0
2026-05-06 15:49:03.987913,397218,1609504807491976,2407403737,0.853024,0.044896,0.210816,23.397501,-11.90875,-46.87375,-40.448,-12.368001,-84.296005,eccentric,4,5.0,36499.0,46111.0,73661.0,104421.0,32075.0,54018.0,30754.0,58839.0,20955.0,18764.0
2026-05-06 15:49:04.021510,397229,1609504807501625,2407412637,0.853024,0.044896,0.210816,29.6275,-10.56125,-48.51875,-40.448,-12.368001,-84.296005,eccentric,4,5.0,36420.0,46489.0,73541.0,105011.0,32102.0,54401.0,30720.0,59123.0,20980.0,18915.0
2026-05-06 15:49:04.023973,397230,1609504807516757,2407427668,0.716384,-0.017568,0.290848,23.87,-5.6875,-47.57375,-40.248,-13.280001,-84.20801,eccentric,4,5.0,36420.0,46489.0,73541.0,105011.0,32102.0,54401.0,30720.0,59123.0,20980.0,18915.0
2026-05-06 15:49:04.026556,397231,1609504807526130,2407438464,0.71248,-0.033184,0.099552,14.0875,-3.57875,-45.15,-40.312,-13.8,-83.512,eccentric,4,5.0,36420.0,46489.0,73541.0,105011.0,32102.0,54401.0,30720.0,59123.0,20980.0,18915.0
2026-05-06 15:49:04.030176,397232,1609504807535171,2407447186,0.71248,-0.033184,0.099552,7.74375,-4.66375,-42.8225,-40.312,-13.8,-83.512,eccentric,4,5.0,36420.0,46489.0,73541.0,105011.0,32102.0,54401.0,30720.0,59123.0,20980.0,18915.0
2026-05-06 15:49:04.046527,397233,1609504807549660,2407462125,0.919392,0.101504,0.027328,7.6125,-7.04375,-39.55875,-39.928,-15.168001,-84.408005,eccentric,4,5.0,36420.0,46489.0,73541.0,105011.0,32102.0,54401.0,30720.0,59123.0,20980.0,18915.0
2026-05-06 15:49:04.053977,397234,1609504807558581,2407470912,0.919392,0.101504,0.027328,16.37125,-8.636251,-39.97875,-39.928,-15.168001,-84.408005,eccentric,4,5.0,36420.0,46489.0,73541.0,105011.0,32102.0,54401.0,30720.0,59123.0,20980.0,18915.0
2026-05-06 15:49:04.071048,397235,1609504807573091,2407485855,0.80032,0.093696,0.158112,19.565,-7.74375,-52.5,-39.512,-14.68,-84.576004,eccentric,4,5.0,36420.0,46489.0,73541.0,105011.0,32102.0,54401.0,30720.0,59123.0,20980.0,18915.0
2026-05-06 15:49:04.081419,397236,1609504807582029,2407494577,0.80032,0.093696,0.158112,21.51625,-4.29625,-59.99,-39.512,-14.68,-84.576004,eccentric,4,5.0,36420.0,46489.0,73541.0,105011.0,32102.0,54401.0,30720.0,59123.0,20980.0,18915.0
2026-05-06 15:49:04.090049,397237,1609504807596549,2407507427,0.6344,0.042944,0.318176,21.11375,-2.1,-56.28,-39.272003,-15.424001,-84.728004,eccentric,4,5.0,36420.0,46489.0,73541.0,105011.0,32102.0,54401.0,30720.0,59123.0,20980.0,18915.0
2026-05-06 15:49:04.130121,397248,1609504807606115,2407518289,0.6344,0.042944,0.177632,15.54875,-1.9075,-49.315,-39.272003,-15.424001,-84.728004,eccentric,4,5.0,36176.0,46206.0,73207.0,105112.0,31835.0,54052.0,30578.0,59171.0,20907.0,18819.0
2026-05-06 15:49:04.132701,397249,1609504807615095,2407527100,0.59536,-0.011712,0.177632,10.31625,-3.4125,-43.645,-39.224003,-17.144001,-83.248,eccentric,4,5.0,36176.0,46206.0,73207.0,105112.0,31835.0,54052.0,30578.0,59171.0,20907.0,18819.0
2026-05-06 15:49:04.135272,397250,1609504807629652,2407542179,0.81008,0.027328,0.150304,12.97625,-7.63,-41.055,-38.688004,-16.688002,-84.560005,eccentric,4,5.0,36176.0,46206.0,73207.0,105112.0,31835.0,54052.0,30578.0,59171.0,20907.0,18819.0
2026-05-06 15:49:04.137732,397251,1609504807638711,2407550956,0.81008,0.027328,0.150304,28.56,-12.53,-41.545002,-38.688004,-16.688002,-84.560005,eccentric,4,5.0,36176.0,46206.0,73207.0,105112.0,31835.0,54052.0,30578.0,59171.0,20907.0,18819.0
2026-05-06 15:49:04.151546,397252,1609504807653401,2407566021,0.745664,0.040992,0.134688,51.44125,-11.8825,-47.3725,-38.160004,-16.192001,-84.928,eccentric,4,5.0,36176.0,46206.0,73207.0,105112.0,31835.0,54052.0,30578.0,59171.0,20907.0,18819.0
2026-05-06 15:49:04.157731,397253,1609504807662342,2407574800,0.745664,0.040992,0.134688,61.81875,-7.8225,-51.1875,-38.160004,-16.192001,-84.928,eccentric,4,5.0,36176.0,46206.0,73207.0,105112.0,31835.0,54052.0,30578.0,59171.0,20907.0,18819.0
2026-05-06 15:49:04.167026,397254,1609504807671300,2407583539,0.607072,0.134688,0.119072,52.71875,-5.355,-50.9075,-37.968002,-16.6,-85.32001,eccentric,4,5.0,36176.0,46206.0,73207.0,105112.0,31835.0,54052.0,30578.0,59171.0,20907.0,18819.0
2026-05-06 15:49:04.180081,397255,1609504807685860,2407598536,0.607072,0.134688,0.119072,32.19125,-5.08375,-47.565,-37.968002,-16.6,-85.32001,eccentric,4,5.0,36176.0,46206.0,73207.0,105112.0,31835.0,54052.0,30578.0,59171.0,20907.0,18819.0
2026-05-06 15:49:04.193845,397256,1609504807694836,2407607241,0.72224,0.122976,0.052704,16.5725,-5.8275,-44.555,-38.088,-16.752,-85.43201,eccentric,4,5.0,36176.0,46206.0,73207.0,105112.0,31835.0,54052.0,30578.0,59171.0,20907.0,18819.0
2026-05-06 15:49:04.287579,397267,1609504807710043,2407622425,0.804224,0.033184,0.099552,10.2725,-6.23,-45.80625,-37.792004,-21.112001,-82.784004,eccentric,4,5.0,36552.0,46685.0,74080.0,104719.0,32025.0,54439.0,31001.0,58912.0,20979.0,18944.0
2026-05-06 15:49:04.290105,397268,1609504807718964,2407631178,0.804224,0.033184,0.099552,9.8,-3.71875,-47.87125,-37.792004,-21.112001,-82.784004,eccentric,4,5.0,36552.0,46685.0,74080.0,104719.0,32025.0,54439.0,31001.0,58912.0,20979.0,18944.0
2026-05-06 15:49:04.292612,397269,1609504807727877,2407639892,0.630496,-0.001952,0.203008,11.89125,-1.0675,-48.0725,-37.264,-18.096,-83.048004,eccentric,4,5.0,36552.0,46685.0,74080.0,104719.0,32025.0,54439.0,31001.0,58912.0,20979.0,18944.0
2026-05-06 15:49:04.295274,397270,1609504807742540,2407654827,0.630496,-0.001952,0.203008,9.485,-0.62125,-45.885,-37.264,-18.096,-83.048004,eccentric,4,5.0,36552.0,46685.0,74080.0,104719.0,32025.0,54439.0,31001.0,58912.0,20979.0,18944.0
2026-05-06 15:49:04.297681,397271,1609504807751523,2407663555,0.61488,-0.02928,0.115168,6.81625,-2.9575,-40.4075,-37.232002,-18.976002,-85.08,eccentric,4,5.0,36552.0,46685.0,74080.0,104719.0,32025.0,54439.0,31001.0,58912.0,20979.0,18944.0
2026-05-06 15:49:04.300206,397272,1609504807766136,2407678592,0.61488,-0.02928,0.115168,9.073751,-6.7025,-30.8,-37.232002,-18.976002,-85.08,eccentric,4,5.0,36552.0,46685.0,74080.0,104719.0,32025.0,54439.0,31001.0,58912.0,20979.0,18944.0
2026-05-06 15:49:04.302677,397273,1609504807775029,2407687297,0.825696,0.042944,0.054656,12.22375,-10.75375,-22.05,-37.032,-18.912,-85.328,eccentric,4,5.0,36552.0,46685.0,74080.0,104719.0,32025.0,54439.0,31001.0,58912.0,20979.0,18944.0
2026-05-06 15:49:04.305200,397274,1609504807784108,2407696202,0.825696,0.042944,0.054656,20.5275,-13.08125,-23.8875,-37.032,-18.912,-85.328,eccentric,4,5.0,36552.0,46685.0,74080.0,104719.0,32025.0,54439.0,31001.0,58912.0,20979.0,18944.0
2026-05-06 15:49:04.307728,397275,1609504807798629,2407711230,0.79056,0.179584,0.037088,34.18625,-12.95875,-29.26,-36.736,-20.184,-84.616005,eccentric,4,5.0,36552.0,46685.0,74080.0,104719.0,32025.0,54439.0,31001.0,58912.0,20979.0,18944.0
2026-05-06 15:49:04.337729,397286,1609504807807806,2407719987,0.79056,0.15616,0.12688,40.232502,-12.24125,-31.22,-36.736,-20.184,-85.16,eccentric,4,5.0,37014.0,47032.0,74573.0,105228.0,32330.0,54667.0,31233.0,59200.0,21070.0,19001.0
2026-05-06 15:49:04.340249,397287,1609504807822385,2407734971,0.786656,0.15616,0.12688,33.34625,-12.39875,-32.27,-36.52,-20.800001,-85.16,eccentric,4,5.0,37014.0,47032.0,74573.0,105228.0,32330.0,54667.0,31233.0,59200.0,21070.0,19001.0
2026-05-06 15:49:04.342787,397288,1609504807831376,2407743684,0.7808,-0.011712,0.281088,13.79875,-11.042501,-30.66875,-36.024002,-21.664001,-84.856,eccentric,4,5.0,37014.0,47032.0,74573.0,105228.0,32330.0,54667.0,31233.0,59200.0,21070.0,19001.0
2026-05-06 15:49:04.345324,397289,1609504807845868,2407756734,0.7808,-0.011712,0.281088,-7.5775,-6.965,-25.68125,-36.024002,-21.664001,-84.856,eccentric,4,5.0,37014.0,47032.0,74573.0,105228.0,32330.0,54667.0,31233.0,59200.0,21070.0,19001.0
2026-05-06 15:49:04.354976,397290,1609504807855171,2407767538,0.755424,-0.042944,0.203008,-24.43875,-5.8975,-21.6825,-36.096,-21.704,-83.816,eccentric,4,5.0,37014.0,47032.0,74573.0,105228.0,32330.0,54667.0,31233.0,59200.0,21070.0,19001.0
2026-05-06 15:49:04.362062,397291,1609504807864237,2407776286,0.755424,-0.042944,0.203008,-24.8325,-8.32125,-18.9175,-36.096,-21.704,-83.816,eccentric,4,5.0,37014.0,47032.0,74573.0,105228.0,32330.0,54667.0,31233.0,59200.0,21070.0,19001.0
2026-05-06 15:49:04.376285,397292,1609504807878892,2407791331,0.812032,0.062464,-0.00976,-6.99125,-13.3,-17.70125,-36.008003,-21.672,-84.560005,eccentric,4,5.0,37014.0,47032.0,74573.0,105228.0,32330.0,54667.0,31233.0,59200.0,21070.0,19001.0
2026-05-06 15:49:04.405262,397293,1609504807887837,2407800067,0.812032,0.062464,-0.00976,15.26875,-15.225,-15.04125,-36.008003,-21.672,-84.560005,eccentric,4,5.0,37014.0,47032.0,74573.0,105228.0,32330.0,54667.0,31233.0,59200.0,21070.0,19001.0
2026-05-06 15:49:04.435257,397304,1609504807902368,2407815080,0.884256,0.091744,-0.027328,26.7575,-15.46125,-10.49125,-35.824,-19.544,-86.664,eccentric,4,5.0,37997.0,48222.0,75343.0,106053.0,33119.0,55642.0,31605.0,59541.0,21447.0,19356.0
2026-05-06 15:49:04.437697,397305,1609504807911364,2407823839,0.817888,0.095648,0.011712,19.425,-13.69375,-10.4125,-35.664,-20.320002,-85.976006,eccentric,4,5.0,37997.0,48222.0,75343.0,106053.0,33119.0,55642.0,31605.0,59541.0,21447.0,19356.0
2026-05-06 15:49:04.440252,397306,1609504807920331,2407832620,0.817888,0.095648,0.011712,-1.77625,-9.87875,-9.1525,-35.664,-20.320002,-85.976006,eccentric,4,5.0,37997.0,48222.0,75343.0,106053.0,33119.0,55642.0,31605.0,59541.0,21447.0,19356.0
2026-05-06 15:49:04.442739,397307,1609504807934910,2407847551,0.796416,0.085888,0.080032,-20.18625,-8.39125,-9.09125,-35.616,-22.216002,-84.75201,eccentric,4,5.0,37997.0,48222.0,75343.0,106053.0,33119.0,55642.0,31605.0,59541.0,21447.0,19356.0
2026-05-06 15:49:04.445229,397308,1609504807943854,2407856380,0.796416,0.085888,0.080032,-26.36375,-9.1525,-8.12,-35.616,-22.216002,-84.75201,eccentric,4,5.0,37997.0,48222.0,75343.0,106053.0,33119.0,55642.0,31605.0,59541.0,21447.0,19356.0
2026-05-06 15:49:04.451384,397309,1609504807958581,2407869344,0.792512,0.042944,0.085888,-23.835001,-9.975,-7.385,-35.432003,-22.296001,-84.776,eccentric,4,5.0,37997.0,48222.0,75343.0,106053.0,33119.0,55642.0,31605.0,59541.0,21447.0,19356.0
2026-05-06 15:49:04.465677,397310,1609504807967870,2407880220,0.792512,0.042944,0.085888,-17.70125,-10.73625,-5.0925,-35.432003,-22.296001,-84.776,eccentric,4,5.0,37997.0,48222.0,75343.0,106053.0,33119.0,55642.0,31605.0,59541.0,21447.0,19356.0
2026-05-06 15:49:04.471402,397311,1609504807976798,2407888952,0.847168,-0.025376,0.05856,-12.3375,-11.9,-2.79125,-35.496002,-20.160002,-84.01601,eccentric,4,5.0,37997.0,48222.0,75343.0,106053.0,33119.0,55642.0,31605.0,59541.0,21447.0,19356.0
2026-05-06 15:49:04.485120,397312,1609504807991337,2407903834,0.903776,0.017568,0.01952,-5.0925,-11.57625,0.7175,-35.4,-20.416,-86.36,eccentric,4,5.0,37997.0,48222.0,75343.0,106053.0,33119.0,55642.0,31605.0,59541.0,21447.0,19356.0
2026-05-06 15:49:04.498975,397313,1609504808000252,2407912698,0.903776,0.017568,0.01952,-4.76875,-11.3225,5.95,-35.4,-20.416,-86.36,eccentric,4,5.0,37997.0,48222.0,75343.0,106053.0,33119.0,55642.0,31605.0,59541.0,21447.0,19356.0
2026-05-06 15:49:04.526219,397324,1609504808014788,2407925642,0.892064,0.173728,-0.007808,-9.82625,-9.8175,7.7,-35.184002,-20.536001,-86.37601,eccentric,4,5.0,38384.0,48465.0,75640.0,106334.0,33540.0,55863.0,31754.0,59753.0,21663.0,19443.0
2026-05-06 15:49:04.534906,397325,1609504808024136,2407936508,0.892064,0.173728,-0.007808,-14.455,-9.10875,3.5525,-35.184002,-20.536001,-86.37601,eccentric,4,5.0,38384.0,48465.0,75640.0,106334.0,33540.0,55863.0,31754.0,59753.0,21663.0,19443.0
2026-05-06 15:49:04.535045,397326,1609504808038649,2407949503,0.901824,0.10736,0.0,-24.465,-7.86625,-0.79625,-35.416,-24.312,-83.80801,eccentric,4,5.0,38384.0,48465.0,75640.0,106334.0,33540.0,55863.0,31754.0,59753.0,21663.0,19443.0
2026-05-06 15:49:04.542569,397327,1609504808048144,2407960336,0.901824,0.10736,0.0,-27.116251,-6.65875,-2.905,-35.416,-24.312,-83.80801,eccentric,4,5.0,38384.0,48465.0,75640.0,106334.0,33540.0,55863.0,31754.0,59753.0,21663.0,19443.0
2026-05-06 15:49:04.551379,397328,1609504808057097,2407969063,0.901824,-0.01952,0.091744,-21.04375,-7.315,-2.4325,-35.192,-22.136002,-86.07201,eccentric,4,5.0,38384.0,48465.0,75640.0,106334.0,33540.0,55863.0,31754.0,59753.0,21663.0,19443.0
2026-05-06 15:49:04.591483,397329,1609504808071607,2407983996,0.929152,0.081984,0.0976,-14.542501,-7.83125,1.23375,-35.352,-20.808,-87.464005,eccentric,4,5.0,38384.0,48465.0,75640.0,106334.0,33540.0,55863.0,31754.0,59753.0,21663.0,19443.0
2026-05-06 15:49:04.616528,397330,1609504808080565,2407992801,0.929152,0.081984,0.0976,-8.89875,-7.46375,5.20625,-35.352,-20.808,-87.464005,eccentric,4,5.0,38384.0,48465.0,75640.0,106334.0,33540.0,55863.0,31754.0,59753.0,21663.0,19443.0
2026-05-06 15:49:04.641394,397331,1609504808095044,2408007734,0.905728,0.158112,-0.005856,-9.44125,-7.21,5.88,-35.152,-20.896002,-86.04,eccentric,4,5.0,38384.0,48465.0,75640.0,106334.0,33540.0,55863.0,31754.0,59753.0,21663.0,19443.0
2026-05-06 15:49:04.677770,397342,1609504808104488,2408016714,0.905728,0.158112,-0.005856,-13.48375,-6.11625,4.48,-35.152,-20.896002,-86.04,eccentric,4,5.0,37762.0,47846.0,75351.0,105850.0,33125.0,55389.0,31669.0,59555.0,21465.0,19261.0
2026-05-06 15:49:04.680227,397343,1609504808113543,2408025474,0.913536,0.064416,-0.040992,-17.710001,-5.74,3.045,-34.952003,-21.2,-86.096,eccentric,4,5.0,37762.0,47846.0,75351.0,105850.0,33125.0,55389.0,31669.0,59555.0,21465.0,19261.0
2026-05-06 15:49:04.682756,397344,1609504808128062,2408040428,0.913536,0.064416,-0.040992,-16.66875,-6.09,4.47125,-34.952003,-21.2,-86.096,eccentric,4,5.0,37762.0,47846.0,75351.0,105850.0,33125.0,55389.0,31669.0,59555.0,21465.0,19261.0
2026-05-06 15:49:04.685183,397345,1609504808137009,2408049146,0.892064,0.025376,0.027328,-11.7425,-6.8775,6.86,-35.392002,-22.688002,-85.16801,eccentric,4,5.0,37762.0,47846.0,75351.0,105850.0,33125.0,55389.0,31669.0,59555.0,21465.0,19261.0
2026-05-06 15:49:04.687815,397346,1609504808151555,2408064069,0.884256,0.074176,0.021472,-7.95375,-6.335,8.575,-34.944,-21.52,-87.648,eccentric,4,5.0,37762.0,47846.0,75351.0,105850.0,33125.0,55389.0,31669.0,59555.0,21465.0,19261.0
2026-05-06 15:49:04.690247,397347,1609504808160466,2408072904,0.884256,0.074176,0.021472,-7.77875,-4.66375,11.15625,-34.944,-21.52,-87.648,eccentric,4,5.0,37762.0,47846.0,75351.0,105850.0,33125.0,55389.0,31669.0,59555.0,21465.0,19261.0
2026-05-06 15:49:04.692775,397348,1609504808169418,2408081653,0.884256,0.074176,0.021472,-10.24625,-3.50875,12.25875,-34.944,-21.52,-87.648,eccentric,4,5.0,37762.0,47846.0,75351.0,105850.0,33125.0,55389.0,31669.0,59555.0,21465.0,19261.0
2026-05-06 15:49:04.695315,397349,1609504808184071,2408096575,0.86864,0.122976,0.070272,-12.69625,-2.31,11.48875,-34.656002,-22.6,-85.64001,eccentric,4,5.0,37762.0,47846.0,75351.0,105850.0,33125.0,55389.0,31669.0,59555.0,21465.0,19261.0
2026-05-06 15:49:04.697826,397350,1609504808193061,2408105302,0.8784,0.070272,0.021472,-13.755,-1.715,10.26375,-35.064003,-23.480001,-83.840004,eccentric,4,5.0,37762.0,47846.0,75351.0,105850.0,33125.0,55389.0,31669.0,59555.0,21465.0,19261.0
2026-05-06 15:49:04.728853,397361,1609504808207941,2408120315,0.8784,0.070272,0.021472,-12.74,-1.4525,8.575,-35.064003,-23.480001,-83.840004,eccentric,4,5.0,37301.0,47347.0,75203.0,105610.0,32863.0,55009.0,31592.0,59489.0,21348.0,19113.0
2026-05-06 15:49:04.734012,397362,1609504808217003,2408129056,0.931104,0.03904,-0.007808,-9.56375,-1.1375,8.5925,-35.456,-24.320002,-83.872,eccentric,4,5.0,37301.0,47347.0,75203.0,105610.0,32863.0,55009.0,31592.0,59489.0,21348.0,19113.0
2026-05-06 15:49:04.736494,397363,1609504808226079,2408137812,0.931104,0.03904,-0.007808,-5.87125,-0.91,9.54625,-35.456,-24.320002,-83.872,eccentric,4,5.0,37301.0,47347.0,75203.0,105610.0,32863.0,55009.0,31592.0,59489.0,21348.0,19113.0
2026-05-06 15:49:04.738957,397364,1609504808240604,2408152751,0.901824,0.095648,0.062464,-4.9,-0.0175,10.05375,-34.952003,-20.984001,-86.11201,eccentric,4,5.0,37301.0,47347.0,75203.0,105610.0,32863.0,55009.0,31592.0,59489.0,21348.0,19113.0
2026-05-06 15:49:04.745243,397365,1609504808249596,2408161485,0.901824,0.095648,0.062464,-10.815,1.07625,10.5,-34.952003,-20.984001,-86.11201,eccentric,4,5.0,37301.0,47347.0,75203.0,105610.0,32863.0,55009.0,31592.0,59489.0,21348.0,19113.0
2026-05-06 15:49:04.759066,397366,1609504808264111,2408176415,0.880352,0.0488,0.023424,-17.75375,1.5225,11.698751,-35.064003,-20.52,-85.552,eccentric,4,5.0,37301.0,47347.0,75203.0,105610.0,32863.0,55009.0,31592.0,59489.0,21348.0,19113.0
2026-05-06 15:49:04.772766,397367,1609504808273056,2408185137,0.876448,-0.007808,0.03904,-21.1925,1.54,12.775,-35.272003,-21.304,-84.952,eccentric,4,5.0,37301.0,47347.0,75203.0,105610.0,32863.0,55009.0,31592.0,59489.0,21348.0,19113.0
2026-05-06 15:49:04.781571,397368,1609504808287601,2408200102,0.876448,-0.007808,0.03904,-17.5175,1.0325,12.6525,-35.272003,-21.304,-84.952,eccentric,4,5.0,37301.0,47347.0,75203.0,105610.0,32863.0,55009.0,31592.0,59489.0,21348.0,19113.0
2026-05-06 15:49:04.795092,397369,1609504808296522,2408208926,0.903776,0.01952,0.0976,-10.68375,1.0675,12.6525,-35.2,-22.648,-84.536,eccentric,4,5.0,37301.0,47347.0,75203.0,105610.0,32863.0,55009.0,31592.0,59489.0,21348.0,19113.0
