pc_time,serial_num,sensor_ts,host_ts,ax,ay,az,gx,gy,gz,mx,my,mz,phase,rpe,weight_kg,ppg_a,ppg_b,ppg_c,ppg_d,ppg_e,ppg_f,ppg_g,ppg_h,ppg_i,ppg_j
2026-05-06 15:49:14.962566,399280,1609504818441826,2418354152,0.841312,0.074176,0.1952,1.77625,-5.775,9.30125,-39.408,-19.84,-80.688,concentric,4,5.0,39929.0,49799.0,77072.0,110197.0,35835.0,58128.0,32612.0,61865.0,22953.0,20440.0
2026-05-06 15:49:14.964927,399281,1609504818450850,2418362874,0.815936,0.025376,0.218624,-4.13875,-5.25875,8.47,-39.024002,-20.232,-80.408005,concentric,4,5.0,39929.0,49799.0,77072.0,110197.0,35835.0,58128.0,32612.0,61865.0,22953.0,20440.0
2026-05-06 15:49:14.992399,399292,1609504818465745,2418377888,0.815936,0.025376,0.218624,-9.54625,-5.2325,8.7675,-39.024002,-20.232,-80.408005,concentric,4,5.0,40429.0,50216.0,77458.0,110203.0,36302.0,58607.0,32803.0,61919.0,23178.0,20636.0
2026-05-06 15:49:14.994812,399293,1609504818474850,2418386714,0.841312,-0.031232,0.232288,-11.06,-5.97625,10.31625,-39.24,-20.304,-77.48801,concentric,4,5.0,40429.0,50216.0,77458.0,110203.0,36302.0,58607.0,32803.0,61919.0,23178.0,20636.0
2026-05-06 15:49:15.011556,399294,1609504818489561,2418401639,0.83936,0.035136,0.171776,-9.19625,-7.35,13.7375,-39.68,-21.000002,-79.656006,concentric,4,5.0,40429.0,50216.0,77458.0,110203.0,36302.0,58607.0,32803.0,61919.0,23178.0,20636.0
2026-05-06 15:49:15.011833,399295,1609504818498542,2418410424,0.83936,0.035136,0.171776,-7.02625,-9.292501,16.82625,-39.68,-21.000002,-79.656006,concentric,4,5.0,40429.0,50216.0,77458.0,110203.0,36302.0,58607.0,32803.0,61919.0,23178.0,20636.0
2026-05-06 15:49:15.011948,399296,1609504818507540,2418419213,0.837408,0.046848,0.163968,-5.32,-10.61375,18.96125,-39.68,-21.000002,-79.704,concentric,4,5.0,40429.0,50216.0,77458.0,110203.0,36302.0,58607.0,32803.0,61919.0,23178.0,20636.0
2026-05-06 15:49:15.037905,399297,1609504818522216,2418434192,0.837408,0.046848,0.163968,-7.46375,-11.41875,19.73125,-39.584003,-20.76,-79.704,concentric,4,5.0,40429.0,50216.0,77458.0,110203.0,36302.0,58607.0,32803.0,61919.0,23178.0,20636.0
2026-05-06 15:49:15.038662,399298,1609504818531347,2418442937,0.786656,-0.015616,0.212768,-10.5525,-12.10125,20.965,-39.432003,-18.744001,-80.992004,concentric,4,5.0,40429.0,50216.0,77458.0,110203.0,36302.0,58607.0,32803.0,61919.0,23178.0,20636.0
2026-05-06 15:49:15.041122,399299,1609504818545817,2418457846,0.786656,-0.015616,0.212768,-10.96375,-13.2825,23.1525,-39.432003,-18.744001,-80.992004,concentric,4,5.0,40429.0,50216.0,77458.0,110203.0,36302.0,58607.0,32803.0,61919.0,23178.0,20636.0
2026-05-06 15:49:15.050020,399300,1609504818554738,2418466615,0.786656,-0.027328,0.1952,-9.4675,-14.93625,28.595,-39.704002,-18.224,-81.256004,concentric,4,5.0,40429.0,50216.0,77458.0,110203.0,36302.0,58607.0,32803.0,61919.0,23178.0,20636.0
2026-05-06 15:49:15.058886,399301,1609504818563702,2418475369,0.786656,-0.027328,0.1952,-8.2775,-15.67125,35.245,-39.704002,-18.224,-81.256004,concentric,4,5.0,40429.0,50216.0,77458.0,110203.0,36302.0,58607.0,32803.0,61919.0,23178.0,20636.0
2026-05-06 15:49:15.086420,399312,1609504818578715,2418490484,0.75152,-0.003904,0.121024,-9.31875,-16.8175,40.0925,-39.304,-18.032001,-81.192,concentric,4,5.0,40698.0,50452.0,77545.0,110005.0,36529.0,58799.0,32847.0,61899.0,23257.0,20676.0
2026-05-06 15:49:15.088767,399313,1609504818588110,2418499283,0.778848,0.015616,0.119072,-13.2475,-18.1825,45.78,-39.304,-18.032001,-82.832,concentric,4,5.0,40698.0,50452.0,77545.0,110005.0,36529.0,58799.0,32847.0,61899.0,23257.0,20676.0
2026-05-06 15:49:15.095090,399314,1609504818597632,2418510125,0.778848,0.015616,0.119072,-15.67125,-19.45125,49.0525,-39.584003,-16.824001,-82.832,concentric,4,5.0,40698.0,50452.0,77545.0,110005.0,36529.0,58799.0,32847.0,61899.0,23257.0,20676.0
2026-05-06 15:49:15.108971,399315,1609504818612335,2418525029,0.765184,-0.017568,0.148352,-15.5575,-21.2975,49.2275,-39.208,-18.336,-80.712006,concentric,4,5.0,40698.0,50452.0,77545.0,110005.0,36529.0,58799.0,32847.0,61899.0,23257.0,20676.0
2026-05-06 15:49:15.117750,399316,1609504818621325,2418533783,0.765184,-0.017568,0.148352,-13.125,-23.38875,49.455,-39.208,-18.336,-80.712006,concentric,4,5.0,40698.0,50452.0,77545.0,110005.0,36529.0,58799.0,32847.0,61899.0,23257.0,20676.0
2026-05-06 15:49:15.131629,399317,1609504818635794,2418546735,0.75152,-0.064416,0.206912,-9.58125,-24.535,51.87,-39.24,-15.472001,-82.136,concentric,4,5.0,40698.0,50452.0,77545.0,110005.0,36529.0,58799.0,32847.0,61899.0,23257.0,20676.0
2026-05-06 15:49:15.140290,399318,1609504818645176,2418557509,0.75152,-0.064416,0.206912,-9.59875,-24.675,58.07375,-39.24,-15.472001,-82.136,concentric,4,5.0,40698.0,50452.0,77545.0,110005.0,36529.0,58799.0,32847.0,61899.0,23257.0,20676.0
2026-05-06 15:49:15.152718,399319,1609504818654099,2418566213,0.681248,-0.080032,0.167872,-14.48125,-23.70375,66.7975,-39.440002,-14.632001,-82.43201,concentric,4,5.0,40698.0,50452.0,77545.0,110005.0,36529.0,58799.0,32847.0,61899.0,23257.0,20676.0
2026-05-06 15:49:15.186584,399330,1609504818668876,2418579667,0.76128,-0.142496,0.111264,-23.205,-22.8025,74.66375,-39.440002,-14.112,-84.512,concentric,4,5.0,40909.0,51187.0,77740.0,110077.0,36697.0,59517.0,32946.0,61937.0,23334.0,20973.0
2026-05-06 15:49:15.188743,399331,1609504818678202,2418590601,0.76128,-0.142496,0.111264,-34.08125,-23.31875,78.925,-39.672,-14.112,-84.512,concentric,4,5.0,40909.0,51187.0,77740.0,110077.0,36697.0,59517.0,32946.0,61937.0,23334.0,20973.0
2026-05-06 15:49:15.191432,399332,1609504818692969,2418605649,0.753472,-0.056608,0.064416,-44.2575,-21.98875,77.14,-39.592003,-14.632001,-81.58401,concentric,4,5.0,40909.0,51187.0,77740.0,110077.0,36697.0,59517.0,32946.0,61937.0,23334.0,20973.0
2026-05-06 15:49:15.197578,399333,1609504818702016,2418614373,0.753472,-0.056608,0.064416,-39.20875,-21.48125,75.8275,-39.592003,-14.632001,-81.58401,concentric,4,5.0,40909.0,51187.0,77740.0,110077.0,36697.0,59517.0,32946.0,61937.0,23334.0,20973.0
2026-05-06 15:49:15.206514,399334,1609504818710969,2418623094,0.67344,-0.062464,0.148352,-25.9175,-23.00375,74.47125,-39.296,-12.000001,-83.200005,concentric,4,5.0,40909.0,51187.0,77740.0,110077.0,36697.0,59517.0,32946.0,61937.0,23334.0,20973.0
2026-05-06 15:49:15.223981,399335,1609504818725526,2418638044,0.67344,-0.062464,0.148352,-20.37875,-23.2925,74.10375,-39.296,-12.000001,-83.200005,concentric,4,5.0,40909.0,51187.0,77740.0,110077.0,36697.0,59517.0,32946.0,61937.0,23334.0,20973.0
2026-05-06 15:49:15.285283,399336,1609504818734419,2418646847,0.661728,-0.134688,0.12688,-25.08625,-23.31875,78.21625,-39.664,-12.968,-82.096,concentric,4,5.0,40909.0,51187.0,77740.0,110077.0,36697.0,59517.0,32946.0,61937.0,23334.0,20973.0
2026-05-06 15:49:15.310133,399337,1609504818748897,2418659705,0.661728,-0.134688,0.0488,-36.1375,-21.9275,81.935,-39.664,-12.968,-82.096,concentric,4,5.0,40909.0,51187.0,77740.0,110077.0,36697.0,59517.0,32946.0,61937.0,23334.0,20973.0
2026-05-06 15:49:15.317713,399338,1609504818758140,2418670619,0.85888,-0.316224,0.0488,-48.29125,-21.6825,77.98,-39.368,-10.264001,-82.968,concentric,4,5.0,40909.0,51187.0,77740.0,110077.0,36697.0,59517.0,32946.0,61937.0,23334.0,20973.0
2026-05-06 15:49:15.347369,399349,1609504818772936,2418685610,0.763232,-0.212768,0.115168,-67.29625,-18.66375,63.7875,-39.320004,-9.544001,-83.744,concentric,4,5.0,40200.0,51076.0,77873.0,109243.0,36048.0,59459.0,32948.0,61562.0,23012.0,20930.0
2026-05-06 15:49:15.350069,399350,1609504818781913,2418694347,0.763232,-0.212768,0.115168,-53.68125,-17.535,57.46125,-39.320004,-9.544001,-83.744,concentric,4,5.0,40200.0,51076.0,77873.0,109243.0,36048.0,59459.0,32948.0,61562.0,23012.0,20930.0
2026-05-06 15:49:15.355099,399351,1609504818791001,2418703067,0.710528,-0.142496,0.056608,-20.79875,-20.5275,56.56875,-39.024002,-9.048,-81.90401,concentric,4,5.0,40200.0,51076.0,77873.0,109243.0,36048.0,59459.0,32948.0,61562.0,23012.0,20930.0
2026-05-06 15:49:15.357533,399352,1609504818805480,2418717975,0.710528,-0.142496,0.056608,0.06125,-23.2225,54.888752,-39.024002,-9.048,-81.90401,concentric,4,5.0,40200.0,51076.0,77873.0,109243.0,36048.0,59459.0,32948.0,61562.0,23012.0,20930.0
2026-05-06 15:49:15.359986,399353,1609504818814394,2418726680,0.786656,-0.349408,0.052704,8.0675,-27.4925,52.40375,-39.032,-8.152,-84.69601,concentric,4,5.0,40200.0,51076.0,77873.0,109243.0,36048.0,59459.0,32948.0,61562.0,23012.0,20930.0
2026-05-06 15:49:15.362470,399354,1609504818828962,2418741631,0.786656,-0.349408,0.052704,1.05875,-29.02375,58.86125,-39.032,-8.152,-84.69601,concentric,4,5.0,40200.0,51076.0,77873.0,109243.0,36048.0,59459.0,32948.0,61562.0,23012.0,20930.0
2026-05-06 15:49:15.365123,399355,1609504818838034,2418750399,0.755424,-0.37088,0.064416,-17.52625,-28.0175,57.86375,-38.688004,-9.320001,-83.464005,concentric,4,5.0,40200.0,51076.0,77873.0,109243.0,36048.0,59459.0,32948.0,61562.0,23012.0,20930.0
2026-05-06 15:49:15.367614,399356,1609504818846962,2418759140,0.755424,-0.37088,0.064416,-30.9225,-23.31,51.8875,-38.688004,-9.320001,-83.464005,concentric,4,5.0,40200.0,51076.0,77873.0,109243.0,36048.0,59459.0,32948.0,61562.0,23012.0,20930.0
2026-05-06 15:49:15.370109,399357,1609504818861740,2418774049,0.804224,-0.22448,0.095648,-21.98875,-23.80875,49.93625,-38.736,-8.744,-83.688,concentric,4,5.0,40200.0,51076.0,77873.0,109243.0,36048.0,59459.0,32948.0,61562.0,23012.0,20930.0
2026-05-06 15:49:15.397778,399368,1609504818871293,2418783229,0.62464,-0.236192,0.062464,-15.47875,-23.09125,52.9375,-38.672,-7.912,-85.44,concentric,4,5.0,39685.0,50529.0,77567.0,107997.0,35563.0,58855.0,32750.0,60637.0,22858.0,20779.0
2026-05-06 15:49:15.400252,399369,1609504818885884,2418798213,0.62464,-0.236192,0.062464,-6.09,-24.928751,50.1025,-38.672,-7.912,-85.44,concentric,4,5.0,39685.0,50529.0,77567.0,107997.0,35563.0,58855.0,32750.0,60637.0,22858.0,20779.0
2026-05-06 15:49:15.402749,399370,1609504818894863,2418806961,0.657824,-0.355264,-0.095648,-7.67375,-27.475,52.745,-38.592003,-8.544001,-83.80801,concentric,4,5.0,39685.0,50529.0,77567.0,107997.0,35563.0,58855.0,32750.0,60637.0,22858.0,20779.0
2026-05-06 15:49:15.405274,399371,1609504818903813,2418815678,0.657824,-0.355264,-0.095648,-0.9275,-28.07,55.78125,-38.592003,-8.544001,-83.80801,concentric,4,5.0,39685.0,50529.0,77567.0,107997.0,35563.0,58855.0,32750.0,60637.0,22858.0,20779.0
2026-05-06 15:49:15.414015,399372,1609504818918339,2418830688,0.890112,-0.501664,-0.007808,-3.57875,-27.79875,58.02125,-38.280003,-7.712,-84.26401,concentric,4,5.0,39685.0,50529.0,77567.0,107997.0,35563.0,58855.0,32750.0,60637.0,22858.0,20779.0
2026-05-06 15:49:15.425747,399373,1609504818927286,2418839392,0.890112,-0.501664,-0.007808,-23.835001,-23.44125,45.5,-38.280003,-7.712,-84.26401,concentric,4,5.0,39685.0,50529.0,77567.0,107997.0,35563.0,58855.0,32750.0,60637.0,22858.0,20779.0
2026-05-06 15:49:15.456448,399374,1609504818941821,2418854285,0.704672,-0.18544,0.206912,-36.12875,-18.24375,33.0225,-38.032,-4.128,-86.888,concentric,4,5.0,39685.0,50529.0,77567.0,107997.0,35563.0,58855.0,32750.0,60637.0,22858.0,20779.0
2026-05-06 15:49:15.461313,399375,1609504818950925,2418863040,0.657824,-0.245952,-0.003904,-7.91875,-17.325,43.295002,-38.032,-4.128,-87.768005,concentric,4,5.0,39685.0,50529.0,77567.0,107997.0,35563.0,58855.0,32750.0,60637.0,22858.0,20779.0
2026-05-06 15:49:15.464007,399376,1609504818959846,2418871816,0.669536,-0.245952,-0.003904,11.6025,-19.9325,44.826252,-38.144,-2.768,-87.768005,concentric,4,5.0,39685.0,50529.0,77567.0,107997.0,35563.0,58855.0,32750.0,60637.0,22858.0,20779.0
2026-05-06 15:49:15.491538,399387,1609504818974716,2418886845,0.628544,-0.355264,-0.033184,1.8725,-18.41875,49.4375,-37.56,-2.464,-87.456,concentric,4,5.0,38583.0,49160.0,76963.0,106831.0,34833.0,57581.0,32474.0,59907.0,22569.0,20340.0
2026-05-06 15:49:15.493853,399388,1609504818983724,2418895655,0.628544,-0.355264,-0.033184,-0.76125,-15.995,47.215,-37.56,-2.464,-87.456,concentric,4,5.0,38583.0,49160.0,76963.0,106831.0,34833.0,57581.0,32474.0,59907.0,22569.0,20340.0
2026-05-06 15:49:15.496232,399389,1609504818998304,2418910589,0.716384,-0.415776,0.0976,-2.73875,-15.12875,46.47125,-37.800003,-3.144,-86.200005,concentric,4,5.0,38583.0,49160.0,76963.0,106831.0,34833.0,57581.0,32474.0,59907.0,22569.0,20340.0
2026-05-06 15:49:15.504949,399390,1609504819007258,2418919293,0.716384,-0.415776,0.0976,-12.11875,-11.27,45.2025,-37.800003,-3.144,-86.200005,concentric,4,5.0,38583.0,49160.0,76963.0,106831.0,34833.0,57581.0,32474.0,59907.0,22569.0,20340.0
2026-05-06 15:49:15.518866,399391,1609504819021949,2418934229,0.69296,-0.392352,0.064416,-14.4025,-7.0875,37.58125,-37.368,-0.952,-88.07201,concentric,4,5.0,38583.0,49160.0,76963.0,106831.0,34833.0,57581.0,32474.0,59907.0,22569.0,20340.0
2026-05-06 15:49:15.527414,399392,1609504819030858,2418942955,0.69296,-0.392352,0.03904,-10.167501,-5.6,27.37875,-37.368,-0.952,-88.07201,concentric,4,5.0,38583.0,49160.0,76963.0,106831.0,34833.0,57581.0,32474.0,59907.0,22569.0,20340.0
2026-05-06 15:49:15.536399,399393,1609504819039759,2418951683,0.679296,-0.249856,0.03904,-2.17875,-3.9375,24.57875,-37.760002,-1.808,-87.464005,concentric,4,5.0,38583.0,49160.0,76963.0,106831.0,34833.0,57581.0,32474.0,59907.0,22569.0,20340.0
2026-05-06 15:49:15.550090,399394,1609504819054310,2418966583,0.81008,-0.316224,-0.081984,5.95,-5.215,26.8625,-37.640003,-0.344,-86.52801,concentric,4,5.0,38583.0,49160.0,76963.0,106831.0,34833.0,57581.0,32474.0,59907.0,22569.0,20340.0
2026-05-06 15:49:15.558962,399395,1609504819063242,2418975411,0.81008,-0.316224,-0.081984,5.11,-4.7425,24.815,-37.640003,-0.344,-86.52801,concentric,4,5.0,38583.0,49160.0,76963.0,106831.0,34833.0,57581.0,32474.0,59907.0,22569.0,20340.0
2026-05-06 15:49:15.592433,399406,1609504819078236,2418990444,0.79056,-0.489952,0.07808,-4.69875,-2.555,23.31,-37.936,-2.008,-85.888,concentric,4,5.0,38033.0,48056.0,76758.0,105667.0,34414.0,56718.0,32410.0,59354.0,22346.0,19956.0
2026-05-06 15:49:15.594882,399407,1609504819087174,2418999239,0.79056,-0.489952,0.07808,-4.40125,1.21625,19.5475,-37.936,-2.008,-85.888,concentric,4,5.0,38033.0,48056.0,76758.0,105667.0,34414.0,56718.0,32410.0,59354.0,22346.0,19956.0
2026-05-06 15:49:15.621202,399408,1609504819096133,2419007965,0.757376,-0.450912,0.113216,-12.25,5.8625,13.9125,-37.800003,1.224,-88.32001,concentric,4,5.0,38033.0,48056.0,76758.0,105667.0,34414.0,56718.0,32410.0,59354.0,22346.0,19956.0
2026-05-06 15:49:15.644901,399409,1609504819110692,2419022881,0.757376,-0.450912,0.113216,-5.24125,11.5675,13.4575,-37.800003,1.224,-88.32001,concentric,4,5.0,38033.0,48056.0,76758.0,105667.0,34414.0,56718.0,32410.0,59354.0,22346.0,19956.0
2026-05-06 15:49:15.655167,399410,1609504819119622,2419031585,0.806176,-0.320128,0.074176,12.8625,13.23875,7.735,-38.112003,2.488,-87.416,concentric,4,5.0,38033.0,48056.0,76758.0,105667.0,34414.0,56718.0,32410.0,59354.0,22346.0,19956.0
2026-05-06 15:49:15.657701,399411,1609504819134155,2419046505,0.788608,-0.255712,0.00976,14.65625,15.408751,1.51375,-38.52,2.152,-86.648,concentric,4,5.0,38033.0,48056.0,76758.0,105667.0,34414.0,56718.0,32410.0,59354.0,22346.0,19956.0
2026-05-06 15:49:15.660213,399412,1609504819143149,2419055331,0.788608,-0.255712,0.00976,5.46875,18.1125,-3.45625,-38.52,2.152,-86.648,concentric,4,5.0,38033.0,48056.0,76758.0,105667.0,34414.0,56718.0,32410.0,59354.0,22346.0,19956.0
2026-05-06 15:49:15.662562,399413,1609504819157644,2419070324,0.91744,-0.443104,0.072224,-6.37875,18.48875,-6.3525,-38.712,3.008,-87.79201,concentric,4,5.0,38033.0,48056.0,76758.0,105667.0,34414.0,56718.0,32410.0,59354.0,22346.0,19956.0
2026-05-06 15:49:15.665264,399414,1609504819166578,2419079018,0.91744,-0.443104,0.072224,-19.565,18.2875,-17.28125,-38.712,3.008,-87.79201,concentric,4,5.0,38033.0,48056.0,76758.0,105667.0,34414.0,56718.0,32410.0,59354.0,22346.0,19956.0
2026-05-06 15:49:15.697531,399425,1609504819175899,2419087899,0.981856,-0.525088,0.099552,-28.7525,20.09,-21.1925,-39.36,0.232,-86.05601,concentric,4,5.0,38146.0,47934.0,77103.0,105280.0,34465.0,56672.0,32553.0,59173.0,22370.0,19933.0
2026-05-06 15:49:15.700250,399426,1609504819190540,2419102987,0.981856,-0.525088,0.099552,-26.85375,21.41125,-21.55125,-39.36,0.232,-86.05601,concentric,4,5.0,38146.0,47934.0,77103.0,105280.0,34465.0,56672.0,32553.0,59173.0,22370.0,19933.0
2026-05-06 15:49:15.702776,399427,1609504819199492,2419111709,0.991616,-0.35136,0.121024,-23.51125,22.4175,-22.65375,-39.832,0.512,-86.576004,concentric,4,5.0,38146.0,47934.0,77103.0,105280.0,34465.0,56672.0,32553.0,59173.0,22370.0,19933.0
2026-05-06 15:49:15.709063,399428,1609504819214058,2419126595,1.001376,-0.35136,0.083936,-15.627501,24.15,-22.70625,-40.408,-1.048,-84.816,concentric,4,5.0,38146.0,47934.0,77103.0,105280.0,34465.0,56672.0,32553.0,59173.0,22370.0,19933.0
2026-05-06 15:49:15.717674,399429,1609504819222983,2419135410,1.001376,-0.35136,0.083936,-12.425,25.235,-29.12,-40.408,-1.048,-84.816,concentric,4,5.0,38146.0,47934.0,77103.0,105280.0,34465.0,56672.0,32553.0,59173.0,22370.0,19933.0
2026-05-06 15:49:15.731446,399430,1609504819231943,2419144136,1.001376,-0.35136,0.083936,-13.09,26.241251,-35.0525,-40.408,-1.048,-84.816,concentric,4,5.0,38146.0,47934.0,77103.0,105280.0,34465.0,56672.0,32553.0,59173.0,22370.0,19933.0
2026-05-06 15:49:15.744815,399431,1609504819246444,2419159040,1.061888,-0.474336,0.099552,-9.9925,27.86875,-36.42625,-41.160004,0.064,-89.128006,concentric,4,5.0,38146.0,47934.0,77103.0,105280.0,34465.0,56672.0,32553.0,59173.0,22370.0,19933.0
2026-05-06 15:49:15.751371,399432,1609504819255389,2419167742,1.182912,-0.505568,0.22448,-2.82625,29.085001,-33.705,-41.160004,1.552,-86.992004,concentric,4,5.0,38146.0,47934.0,77103.0,105280.0,34465.0,56672.0,32553.0,59173.0,22370.0,19933.0
2026-05-06 15:49:15.792172,399443,1609504819270394,2419183150,1.182912,-0.505568,0.22448,9.03,28.65625,-29.00625,-41.160004,1.552,-86.992004,concentric,4,5.0,37759.0,47835.0,77126.0,104500.0,34141.0,56666.0,32541.0,58986.0,22165.0,19889.0
2026-05-06 15:49:15.794672,399444,1609504819279325,2419191970,1.284416,-0.394304,0.062464,23.9575,24.66625,-25.515,-41.928,1.8,-86.408005,concentric,4,5.0,37759.0,47835.0,77126.0,104500.0,34141.0,56666.0,32541.0,58986.0,22165.0,19889.0
2026-05-06 15:49:15.797226,399445,1609504819288329,2419200713,1.284416,-0.394304,0.062464,21.2275,20.27375,-24.115,-41.928,1.8,-86.408005,concentric,4,5.0,37759.0,47835.0,77126.0,104500.0,34141.0,56666.0,32541.0,58986.0,22165.0,19889.0
2026-05-06 15:49:15.800339,399446,1609504819302864,2419213626,1.167296,-0.238144,0.0976,-1.4,19.04,-29.23375,-42.456,-0.48,-85.200005,concentric,4,5.0,37759.0,47835.0,77126.0,104500.0,34141.0,56666.0,32541.0,58986.0,22165.0,19889.0
2026-05-06 15:49:15.806012,399447,1609504819312069,2419224468,1.167296,-0.238144,0.0976,-8.2075,17.045,-43.75,-42.456,-0.48,-85.200005,concentric,4,5.0,37759.0,47835.0,77126.0,104500.0,34141.0,56666.0,32541.0,58986.0,22165.0,19889.0
2026-05-06 15:49:15.820067,399448,1609504819326565,2419237324,1.23952,-0.558272,0.187392,-2.03,11.8125,-42.175,-42.544003,-0.584,-86.36,concentric,4,5.0,37759.0,47835.0,77126.0,104500.0,34141.0,56666.0,32541.0,58986.0,22165.0,19889.0
2026-05-06 15:49:15.833851,399449,1609504819335753,2419248143,1.149728,-0.593408,0.216672,-5.0575,11.61125,-34.335,-43.320004,0.992,-86.22401,concentric,4,5.0,37759.0,47835.0,77126.0,104500.0,34141.0,56666.0,32541.0,58986.0,22165.0,19889.0
2026-05-06 15:49:15.840150,399450,1609504819344666,2419256836,1.149728,-0.593408,0.216672,-4.3925,9.00375,-33.3025,-43.320004,0.992,-86.22401,concentric,4,5.0,37759.0,47835.0,77126.0,104500.0,34141.0,56666.0,32541.0,58986.0,22165.0,19889.0
2026-05-06 15:49:15.856565,399451,1609504819359202,2419271863,1.21024,-0.511424,0.130784,13.90375,4.97,-26.355,-43.288002,1.544,-86.48801,concentric,4,5.0,37759.0,47835.0,77126.0,104500.0,34141.0,56666.0,32541.0,58986.0,22165.0,19889.0
2026-05-06 15:49:15.865257,399452,1609504819368137,2419280608,1.21024,-0.511424,0.130784,16.93125,0.35875,-19.22375,-43.288002,1.544,-86.48801,concentric,4,5.0,37759.0,47835.0,77126.0,104500.0,34141.0,56666.0,32541.0,58986.0,22165.0,19889.0
2026-05-06 15:49:15.897494,399463,1609504819382736,2419293602,1.167296,-0.466528,0.138592,9.68625,-1.65375,-15.75,-42.856003,1.272,-85.976006,concentric,4,5.0,37713.0,47774.0,76983.0,103972.0,34150.0,56518.0,32493.0,58668.0,22210.0,19857.0
2026-05-06 15:49:15.925122,399464,1609504819392087,2419304448,1.167296,-0.466528,0.138592,7.20125,-1.54,-14.34125,-42.856003,1.272,-85.976006,concentric,4,5.0,37713.0,47774.0,76983.0,103972.0,34150.0,56518.0,32493.0,58668.0,22210.0,19857.0
2026-05-06 15:49:15.927547,399465,1609504819406664,2419319382,1.128256,-0.579744,0.163968,8.715,-0.945,-11.85625,-43.304,1.544,-85.90401,concentric,4,5.0,37713.0,47774.0,76983.0,103972.0,34150.0,56518.0,32493.0,58668.0,22210.0,19857.0
2026-05-06 15:49:15.930005,399466,1609504819415592,2419328100,1.065792,-0.523136,0.11712,13.43125,-0.7875,-8.37375,-43.56,1.656,-87.36,concentric,4,5.0,37713.0,47774.0,76983.0,103972.0,34150.0,56518.0,32493.0,58668.0,22210.0,19857.0
2026-05-06 15:49:15.932628,399467,1609504819424505,2419336812,1.065792,-0.523136,0.11712,18.17375,0.02625,-5.22375,-43.56,1.656,-87.36,concentric,4,5.0,37713.0,47774.0,76983.0,103972.0,34150.0,56518.0,32493.0,58668.0,22210.0,19857.0
2026-05-06 15:49:15.937682,399468,1609504819439078,2419351744,1.032608,-0.452864,0.08784,18.92625,-0.28,-2.1175,-43.600002,2.256,-86.08,concentric,4,5.0,37713.0,47774.0,76983.0,103972.0,34150.0,56518.0,32493.0,58668.0,22210.0,19857.0
2026-05-06 15:49:15.943897,399469,1609504819448148,2419360465,1.032608,-0.452864,0.08784,18.6025,-0.25375,2.05625,-43.600002,2.256,-86.08,concentric,4,5.0,37713.0,47774.0,76983.0,103972.0,34150.0,56518.0,32493.0,58668.0,22210.0,19857.0
2026-05-06 15:49:15.960216,399470,1609504819462826,2419375376,0.974048,-0.482144,0.12688,12.565,0.245,2.93125,-43.392002,2.496,-85.776,concentric,4,5.0,37713.0,47774.0,76983.0,103972.0,34150.0,56518.0,32493.0,58668.0,22210.0,19857.0
2026-05-06 15:49:16.056421,399481,1609504819472557,2419384372,0.974048,-0.482144,0.12688,5.11,0.65625,2.24,-43.392002,2.496,-85.776,concentric,4,5.0,37953.0,47756.0,76658.0,103469.0,34354.0,56420.0,32324.0,58224.0,22351.0,19856.0
2026-05-06 15:49:16.058886,399482,1609504819481631,2419393119,0.933056,-0.493856,0.074176,0.665,0.5075,2.1875,-43.384003,0.112,-84.840004,concentric,4,5.0,37953.0,47756.0,76658.0,103469.0,34354.0,56420.0,32324.0,58224.0,22351.0,19856.0
2026-05-06 15:49:16.061354,399483,1609504819496109,2419408077,0.911584,-0.365024,0.066368,-4.26125,0.76125,2.2225,-43.184002,2.352,-86.384,concentric,4,5.0,37953.0,47756.0,76658.0,103469.0,34354.0,56420.0,32324.0,58224.0,22351.0,19856.0
2026-05-06 15:49:16.063750,399484,1609504819505010,2419416800,0.911584,-0.365024,0.066368,-10.9375,2.835,3.17625,-43.184002,2.352,-86.384,concentric,4,5.0,37953.0,47756.0,76658.0,103469.0,34354.0,56420.0,32324.0,58224.0,22351.0,19856.0
2026-05-06 15:49:16.066458,399485,1609504819519499,2419431767,0.886208,-0.41968,0.064416,-16.695,3.70125,4.165,-43.528004,2.568,-85.984,concentric,4,5.0,37953.0,47756.0,76658.0,103469.0,34354.0,56420.0,32324.0,58224.0,22351.0,19856.0
2026-05-06 15:49:16.068910,399486,1609504819528526,2419440495,0.886208,-0.41968,0.064416,-19.59125,3.0975,3.57875,-43.528004,2.568,-85.984,concentric,4,5.0,37953.0,47756.0,76658.0,103469.0,34354.0,56420.0,32324.0,58224.0,22351.0,19856.0
2026-05-06 15:49:16.071462,399487,1609504819537460,2419449214,0.854976,-0.450912,0.046848,-20.90375,2.8175,3.7275,-43.216003,2.248,-85.79201,concentric,4,5.0,37953.0,47756.0,76658.0,103469.0,34354.0,56420.0,32324.0,58224.0,22351.0,19856.0
2026-05-06 15:49:16.073972,399488,1609504819552079,2419464159,0.854976,-0.450912,0.046848,-21.35875,2.8175,2.765,-43.216003,2.248,-85.79201,concentric,4,5.0,37953.0,47756.0,76658.0,103469.0,34354.0,56420.0,32324.0,58224.0,22351.0,19856.0
2026-05-06 15:49:16.076468,399489,1609504819561202,2419472900,0.833504,-0.374784,0.013664,-20.5975,2.89625,1.61,-43.384003,1.776,-85.75201,concentric,4,5.0,37953.0,47756.0,76658.0,103469.0,34354.0,56420.0,32324.0,58224.0,22351.0,19856.0
2026-05-06 15:49:16.110052,399501,1609504819576060,2419488116,0.81984,-0.357216,0.037088,-20.09,2.89625,2.3625,-43.376003,1.16,-85.328,eccentric,4,5.0,38081.0,47635.0,76530.0,103443.0,34451.0,56311.0,32205.0,58330.0,22368.0,19773.0
2026-05-06 15:49:16.112446,399502,1609504819585021,2419496942,0.81984,-0.357216,0.037088,-21.1225,2.485,2.03875,-43.376003,1.16,-85.328,eccentric,4,5.0,38081.0,47635.0,76530.0,103443.0,34451.0,56311.0,32205.0,58330.0,22368.0,19773.0
2026-05-06 15:49:16.115096,399503,1609504819594172,2419505699,0.81984,-0.357216,0.037088,-17.9025,1.61875,1.14625,-43.376003,1.16,-85.328,eccentric,4,5.0,38081.0,47635.0,76530.0,103443.0,34451.0,56311.0,32205.0,58330.0,22368.0,19773.0
2026-05-06 15:49:16.117612,399504,1609504819608738,2419520655,0.827648,-0.441152,0.10736,-12.285,0.7525,0.46375,-43.464,1.376,-85.856,eccentric,4,5.0,38081.0,47635.0,76530.0,103443.0,34451.0,56311.0,32205.0,58330.0,22368.0,19773.0
2026-05-06 15:49:16.120081,399505,1609504819617702,2419529422,0.83936,-0.425536,0.103456,-9.31,0.21,1.14625,-43.224003,0.032,-84.560005,eccentric,4,5.0,38081.0,47635.0,76530.0,103443.0,34451.0,56311.0,32205.0,58330.0,22368.0,19773.0
2026-05-06 15:49:16.128637,399506,1609504819632273,2419544400,0.83936,-0.425536,0.103456,-5.55625,-0.3675,2.12625,-43.224003,0.032,-84.560005,eccentric,4,5.0,38081.0,47635.0,76530.0,103443.0,34451.0,56311.0,32205.0,58330.0,22368.0,19773.0
2026-05-06 15:49:16.137668,399507,1609504819641194,2419553108,0.831552,-0.384544,-0.007808,-2.02125,-1.39125,1.12,-43.36,0.232,-84.704,eccentric,4,5.0,38081.0,47635.0,76530.0,103443.0,34451.0,56311.0,32205.0,58330.0,22368.0,19773.0
2026-05-06 15:49:16.151530,399508,1609504819655683,2419568128,0.831552,-0.384544,0.0488,-0.5775,-2.31,1.3125,-43.36,0.232,-84.704,eccentric,4,5.0,38081.0,47635.0,76530.0,103443.0,34451.0,56311.0,32205.0,58330.0,22368.0,19773.0
2026-05-06 15:49:16.160239,399509,1609504819664597,2419576898,0.870592,-0.40016,0.0488,-2.17,-3.325,1.0675,-43.320004,-0.352,-85.816,eccentric,4,5.0,38081.0,47635.0,76530.0,103443.0,34451.0,56311.0,32205.0,58330.0,22368.0,19773.0
2026-05-06 15:49:16.197411,399520,1609504819673750,2419585662,0.870592,-0.40016,0.0488,-2.89625,-3.49125,-0.11375,-43.320004,-0.352,-85.816,eccentric,4,5.0,38601.0,48209.0,76803.0,104164.0,34867.0,56864.0,32329.0,58701.0,22608.0,20019.0
2026-05-06 15:49:16.200063,399521,1609504819688327,2419600638,0.841312,-0.452864,0.06832,-2.03875,-4.22625,-0.81375,-42.784,1.088,-86.01601,eccentric,4,5.0,38601.0,48209.0,76803.0,104164.0,34867.0,56864.0,32329.0,58701.0,22608.0,20019.0
2026-05-06 15:49:16.205135,399522,1609504819697260,2419609391,0.911584,-0.534848,0.001952,3.10625,-5.8275,0.28875,-42.688004,1.64,-84.968,eccentric,4,5.0,38601.0,48209.0,76803.0,104164.0,34867.0,56864.0,32329.0,58701.0,22608.0,20019.0
2026-05-06 15:49:16.210067,399523,1609504819711907,2419624465,0.911584,-0.534848,0.001952,8.6975,-7.13125,3.36875,-42.688004,1.64,-84.968,eccentric,4,5.0,38601.0,48209.0,76803.0,104164.0,34867.0,56864.0,32329.0,58701.0,22608.0,20019.0
2026-05-06 15:49:16.216523,399524,1609504819720857,2419633182,1.040416,-0.521184,0.042944,5.55625,-8.81125,6.46625,-42.656002,1.568,-85.69601,eccentric,4,5.0,38601.0,48209.0,76803.0,104164.0,34867.0,56864.0,32329.0,58701.0,22608.0,20019.0
2026-05-06 15:49:16.225261,399525,1609504819729916,2419641938,1.040416,-0.521184,0.042944,-3.63125,-9.8875,8.3825,-42.656002,1.568,-85.69601,eccentric,4,5.0,38601.0,48209.0,76803.0,104164.0,34867.0,56864.0,32329.0,58701.0,22608.0,20019.0
2026-05-06 15:49:16.258983,399526,1609504819744595,2419656896,1.04432,-0.460672,0.109312,-10.255,-11.17375,12.6175,-42.472,2.176,-86.48,eccentric,4,5.0,38601.0,48209.0,76803.0,104164.0,34867.0,56864.0,32329.0,58701.0,22608.0,20019.0
2026-05-06 15:49:16.261548,399527,1609504819753537,2419665627,1.04432,-0.460672,0.109312,-7.7525,-12.0925,16.8525,-42.472,2.176,-86.48,eccentric,4,5.0,38601.0,48209.0,76803.0,104164.0,34867.0,56864.0,32329.0,58701.0,22608.0,20019.0
2026-05-06 15:49:16.263830,399528,1609504819768021,2419680545,1.001376,-0.618784,0.085888,-1.6275,-12.5125,12.90625,-42.448,1.8,-86.616005,eccentric,4,5.0,38601.0,48209.0,76803.0,104164.0,34867.0,56864.0,32329.0,58701.0,22608.0,20019.0
2026-05-06 15:49:16.291382,399539,1609504819777144,2419689340,1.059936,-0.568032,0.081984,7.32375,-14.3675,14.81375,-42.448,1.8,-85.12,eccentric,4,5.0,38872.0,48459.0,76800.0,104832.0,35081.0,57130.0,32363.0,59013.0,22694.0,20151.0
2026-05-06 15:49:16.293846,399540,1609504819791712,2419704279,1.059936,-0.568032,0.081984,11.34875,-15.12,21.2975,-42.088,0.544,-85.12,eccentric,4,5.0,38872.0,48459.0,76800.0,104832.0,35081.0,57130.0,32363.0,59013.0,22694.0,20151.0
2026-05-06 15:49:16.296248,399541,1609504819800677,2419713087,1.030656,-0.472384,0.050752,7.67375,-14.385,22.88125,-41.640003,1.016,-85.624,eccentric,4,5.0,38872.0,48459.0,76800.0,104832.0,35081.0,57130.0,32363.0,59013.0,22694.0,20151.0
2026-05-06 15:49:16.306454,399542,1609504819809693,2419721805,1.030656,-0.472384,0.050752,-1.8725,-12.985,20.3525,-41.640003,1.016,-85.624,eccentric,4,5.0,38872.0,48459.0,76800.0,104832.0,35081.0,57130.0,32363.0,59013.0,22694.0,20151.0
2026-05-06 15:49:16.320114,399543,1609504819824294,2419736792,1.00528,-0.534848,0.13664,-9.45875,-11.025,19.6,-41.336002,2.912,-86.47201,eccentric,4,5.0,38872.0,48459.0,76800.0,104832.0,35081.0,57130.0,32363.0,59013.0,22694.0,20151.0
2026-05-06 15:49:16.328898,399544,1609504819833321,2419745522,1.00528,-0.534848,0.13664,-10.31625,-9.58125,19.18,-41.336002,2.912,-86.47201,eccentric,4,5.0,38872.0,48459.0,76800.0,104832.0,35081.0,57130.0,32363.0,59013.0,22694.0,20151.0
2026-05-06 15:49:16.353913,399545,1609504819847924,2419760489,0.954528,-0.562176,0.199104,-7.84,-8.4875,18.803751,-41.192,2.792,-87.16801,eccentric,4,5.0,38872.0,48459.0,76800.0,104832.0,35081.0,57130.0,32363.0,59013.0,22694.0,20151.0
2026-05-06 15:49:16.378625,399546,1609504819856835,2419769194,0.954528,-0.562176,0.199104,-0.53375,-8.42625,20.4925,-41.192,2.792,-87.16801,eccentric,4,5.0,38872.0,48459.0,76800.0,104832.0,35081.0,57130.0,32363.0,59013.0,22694.0,20151.0
2026-05-06 15:49:16.393730,399547,1609504819865747,2419777891,0.960384,-0.46848,0.07808,3.6225,-8.49625,22.09375,-40.88,3.072,-85.608,eccentric,4,5.0,38872.0,48459.0,76800.0,104832.0,35081.0,57130.0,32363.0,59013.0,22694.0,20151.0
2026-05-06 15:49:16.423983,399558,1609504819880407,2419792953,0.942816,-0.3416,0.015616,-4.54125,-6.72,26.17125,-40.296,2.52,-87.05601,eccentric,4,5.0,38727.0,48615.0,76389.0,104688.0,35151.0,57283.0,32186.0,58842.0,22836.0,20300.0
2026-05-06 15:49:16.426339,399559,1609504819889321,2419801790,0.942816,-0.3416,0.015616,-20.0725,-4.375,22.3825,-40.296,2.52,-87.05601,eccentric,4,5.0,38727.0,48615.0,76389.0,104688.0,35151.0,57283.0,32186.0,58842.0,22836.0,20300.0
2026-05-06 15:49:16.428978,399560,1609504819903829,2419814646,0.935008,-0.447008,0.103456,-30.905,-2.86125,11.480001,-40.424004,2.336,-87.48801,eccentric,4,5.0,38727.0,48615.0,76389.0,104688.0,35151.0,57283.0,32186.0,58842.0,22836.0,20300.0
2026-05-06 15:49:16.431594,399561,1609504819913242,2419825474,0.935008,-0.447008,0.103456,-34.326252,-4.64625,2.31875,-40.424004,2.336,-87.48801,eccentric,4,5.0,38727.0,48615.0,76389.0,104688.0,35151.0,57283.0,32186.0,58842.0,22836.0,20300.0
2026-05-06 15:49:16.433973,399562,1609504819922259,2419834318,0.98576,-0.599264,0.1952,-27.79,-6.69375,1.96,-40.264004,1.952,-87.152,eccentric,4,5.0,38727.0,48615.0,76389.0,104688.0,35151.0,57283.0,32186.0,58842.0,22836.0,20300.0
2026-05-06 15:49:16.436602,399563,1609504819936758,2419849323,0.98576,-0.599264,0.1952,-19.13625,-9.6775,7.0875,-40.264004,1.952,-87.152,eccentric,4,5.0,38727.0,48615.0,76389.0,104688.0,35151.0,57283.0,32186.0,58842.0,22836.0,20300.0
2026-05-06 15:49:16.442738,399564,1609504819945696,2419858057,0.882304,-0.474336,0.074176,-8.56625,-8.505,13.15125,-40.136,2.176,-87.592,eccentric,4,5.0,38727.0,48615.0,76389.0,104688.0,35151.0,57283.0,32186.0,58842.0,22836.0,20300.0
2026-05-06 15:49:16.459934,399565,1609504819960221,2419871006,0.921344,-0.324032,0.054656,-4.795,-8.3825,9.1175,-39.872,1.232,-86.408005,eccentric,4,5.0,38727.0,48615.0,76389.0,104688.0,35151.0,57283.0,32186.0,58842.0,22836.0,20300.0
2026-05-06 15:49:16.466963,399566,1609504819969401,2419881760,0.921344,-0.324032,0.054656,-9.1875,-7.8225,7.39375,-39.872,1.232,-86.408005,eccentric,4,5.0,38727.0,48615.0,76389.0,104688.0,35151.0,57283.0,32186.0,58842.0,22836.0,20300.0
2026-05-06 15:49:16.495083,399577,1609504819984138,2419896798,0.91744,-0.40992,0.046848,-16.9925,-7.63875,4.3925,-39.648003,-0.984,-86.448006,eccentric,4,5.0,38127.0,47647.0,75969.0,104347.0,34713.0,56617.0,31999.0,58897.0,22542.0,19978.0
2026-05-06 15:49:16.497652,399578,1609504819993143,2419905520,0.91744,-0.40992,0.046848,-22.51375,-8.085,-3.91125,-39.648003,-0.984,-86.448006,eccentric,4,5.0,38127.0,47647.0,75969.0,104347.0,34713.0,56617.0,31999.0,58897.0,22542.0,19978.0
2026-05-06 15:49:16.500143,399579,1609504820002073,2419914227,0.894016,-0.528992,0.152256,-28.210001,-6.8075,-8.575,-39.656002,-1.232,-86.28001,eccentric,4,5.0,38127.0,47647.0,75969.0,104347.0,34713.0,56617.0,31999.0,58897.0,22542.0,19978.0
2026-05-06 15:49:16.515204,399580,1609504820016663,2419929195,0.894016,-0.528992,0.152256,-26.15375,-5.64375,-9.415,-39.656002,-1.232,-86.28001,eccentric,4,5.0,38127.0,47647.0,75969.0,104347.0,34713.0,56617.0,31999.0,58897.0,22542.0,19978.0
2026-05-06 15:49:16.521526,399581,1609504820025562,2419937903,0.860832,-0.454816,0.01952,-16.5725,-4.38375,-8.02375,-39.392002,0.424,-87.4,eccentric,4,5.0,38127.0,47647.0,75969.0,104347.0,34713.0,56617.0,31999.0,58897.0,22542.0,19978.0
2026-05-06 15:49:16.566201,399582,1609504820040077,2419952826,0.909632,-0.386496,-0.015616,-10.98125,-2.89625,-6.475,-39.624,0.224,-86.328,eccentric,4,5.0,38127.0,47647.0,75969.0,104347.0,34713.0,56617.0,31999.0,58897.0,22542.0,19978.0
2026-05-06 15:49:16.568831,399583,1609504820049007,2419961523,0.909632,-0.386496,-0.015616,-13.7375,-2.17,-9.93125,-39.624,0.224,-86.328,eccentric,4,5.0,38127.0,47647.0,75969.0,104347.0,34713.0,56617.0,31999.0,58897.0,22542.0,19978.0
2026-05-06 15:49:16.571434,399584,1609504820063574,2419974440,0.853024,-0.423584,0.10736,-20.41375,-0.0175,-16.2575,-39.4,-0.528,-87.44,eccentric,4,5.0,38127.0,47647.0,75969.0,104347.0,34713.0,56617.0,31999.0,58897.0,22542.0,19978.0
2026-05-06 15:49:16.602690,399595,1609504820072918,2419985666,0.853024,-0.423584,0.10736,-21.385,2.6775,-19.5125,-39.4,-0.528,-87.44,eccentric,4,5.0,38222.0,47610.0,76235.0,104908.0,34734.0,56737.0,32130.0,59289.0,22510.0,20024.0
2026-05-06 15:49:16.607724,399596,1609504820082029,2419994611,0.833504,-0.521184,0.115168,-12.53,4.9875,-17.815,-39.384003,-4.272,-86.48801,eccentric,4,5.0,38222.0,47610.0,76235.0,104908.0,34734.0,56737.0,32130.0,59289.0,22510.0,20024.0
2026-05-06 15:49:16.610222,399597,1609504820096545,2420007505,0.833504,-0.521184,0.115168,-4.2525,5.66125,-17.36875,-39.384003,-4.272,-86.48801,eccentric,4,5.0,38222.0,47610.0,76235.0,104908.0,34734.0,56737.0,32130.0,59289.0,22510.0,20024.0
2026-05-06 15:49:16.612563,399598,1609504820105994,2420018402,0.80032,-0.384544,0.023424,2.695,6.0025,-15.05875,-39.848003,-4.536,-87.32001,eccentric,4,5.0,38222.0,47610.0,76235.0,104908.0,34734.0,56737.0,32130.0,59289.0,22510.0,20024.0
2026-05-06 15:49:16.617507,399599,1609504820114960,2420027173,0.80032,-0.384544,0.023424,8.75875,5.66125,-14.28875,-39.848003,-4.536,-87.32001,eccentric,4,5.0,38222.0,47610.0,76235.0,104908.0,34734.0,56737.0,32130.0,59289.0,22510.0,20024.0
2026-05-06 15:49:16.625029,399600,1609504820129551,2420042150,0.792512,-0.327936,0.035136,6.01125,4.13,-19.29375,-39.192,-1.976,-86.392006,eccentric,4,5.0,38222.0,47610.0,76235.0,104908.0,34734.0,56737.0,32130.0,59289.0,22510.0,20024.0
2026-05-06 15:49:16.633872,399601,1609504820138629,2420050872,0.792512,-0.327936,0.035136,4.3925,3.26375,-26.145,-39.192,-1.976,-86.392006,eccentric,4,5.0,38222.0,47610.0,76235.0,104908.0,34734.0,56737.0,32130.0,59289.0,22510.0,20024.0
2026-05-06 15:49:16.647594,399602,1609504820153182,2420065830,0.72224,-0.359168,0.150304,7.51625,4.47125,-28.035,-39.816,-3.52,-82.336006,eccentric,4,5.0,38222.0,47610.0,76235.0,104908.0,34734.0,56737.0,32130.0,59289.0,22510.0,20024.0
2026-05-06 15:49:16.661220,399603,1609504820162136,2420074643,0.845216,-0.431392,0.066368,16.135,5.73125,-38.00125,-39.608,-4.176,-85.37601,eccentric,4,5.0,38222.0,47610.0,76235.0,104908.0,34734.0,56737.0,32130.0,59289.0,22510.0,20024.0
2026-05-06 15:49:16.695224,399614,1609504820176760,2420087698,0.845216,-0.431392,0.066368,14.04375,4.3225,-29.942501,-39.608,-4.176,-85.37601,eccentric,4,5.0,38617.0,48088.0,76088.0,104538.0,35020.0,57048.0,32038.0,58889.0,22700.0,20189.0
2026-05-06 15:49:16.697632,399615,1609504820186215,2420098666,0.882304,-0.324032,-0.056608,18.03375,7.28875,-14.8925,-39.496002,-3.056,-86.176,eccentric,4,5.0,38617.0,48088.0,76088.0,104538.0,35020.0,57048.0,32038.0,58889.0,22700.0,20189.0
2026-05-06 15:49:16.725284,399616,1609504820195324,2420107402,0.882304,-0.324032,-0.056608,16.9925,10.386251,-16.9225,-39.496002,-3.056,-86.176,eccentric,4,5.0,38617.0,48088.0,76088.0,104538.0,35020.0,57048.0,32038.0,58889.0,22700.0,20189.0
2026-05-06 15:49:16.752080,399617,1609504820209853,2420122413,0.854976,-0.368928,0.040992,2.2925,16.42375,-37.56375,-39.408,-5.824,-84.28001,eccentric,4,5.0,38617.0,48088.0,76088.0,104538.0,35020.0,57048.0,32038.0,58889.0,22700.0,20189.0
2026-05-06 15:49:16.775114,399618,1609504820218791,2420131106,0.854976,-0.368928,0.040992,-9.6425,13.32625,-48.4925,-39.408,-5.824,-84.28001,eccentric,4,5.0,38617.0,48088.0,76088.0,104538.0,35020.0,57048.0,32038.0,58889.0,22700.0,20189.0
2026-05-06 15:49:16.786424,399619,1609504820233297,2420146029,0.774944,-0.329888,0.247904,-8.32125,12.915,-35.70875,-39.640003,-4.312,-86.37601,eccentric,4,5.0,38617.0,48088.0,76088.0,104538.0,35020.0,57048.0,32038.0,58889.0,22700.0,20189.0
2026-05-06 15:49:16.788801,399620,1609504820242248,2420154759,0.794464,-0.464576,0.160064,12.565,11.1475,-33.25875,-39.2,-4.448,-83.84801,eccentric,4,5.0,38617.0,48088.0,76088.0,104538.0,35020.0,57048.0,32038.0,58889.0,22700.0,20189.0
2026-05-06 15:49:16.791515,399621,1609504820251156,2420163544,0.794464,-0.464576,0.160064,29.56625,5.39875,-35.6475,-39.2,-4.448,-83.84801,eccentric,4,5.0,38617.0,48088.0,76088.0,104538.0,35020.0,57048.0,32038.0,58889.0,22700.0,20189.0
2026-05-06 15:49:16.793999,399622,1609504820265655,2420176414,0.915488,-0.413824,-0.037088,26.005,8.225,-33.74,-39.624,-4.936,-85.336006,eccentric,4,5.0,38617.0,48088.0,76088.0,104538.0,35020.0,57048.0,32038.0,58889.0,22700.0,20189.0
2026-05-06 15:49:16.834090,399633,1609504820274877,2420187168,0.915488,-0.413824,-0.037088,18.82125,6.7375,-46.06875,-39.624,-4.936,-85.336006,eccentric,4,5.0,38468.0,47976.0,75664.0,105368.0,34804.0,56891.0,31810.0,59418.0,22518.0,20055.0
2026-05-06 15:49:16.834470,399634,1609504820289446,2420202134,0.89792,-0.179584,0.095648,9.9575,11.08625,-43.23375,-39.600002,-6.144,-85.024,eccentric,4,5.0,38468.0,47976.0,75664.0,105368.0,34804.0,56891.0,31810.0,59418.0,22518.0,20055.0
2026-05-06 15:49:16.836301,399635,1609504820298425,2420211016,0.89792,-0.179584,0.095648,2.80875,12.95,-49.28,-39.600002,-6.144,-85.024,eccentric,4,5.0,38468.0,47976.0,75664.0,105368.0,34804.0,56891.0,31810.0,59418.0,22518.0,20055.0
2026-05-06 15:49:16.839366,399636,1609504820307416,2420219780,0.806176,-0.203008,0.103456,10.64875,11.47125,-51.61625,-39.864002,-8.240001,-84.136,eccentric,4,5.0,38468.0,47976.0,75664.0,105368.0,34804.0,56891.0,31810.0,59418.0,22518.0,20055.0
2026-05-06 15:49:16.843013,399637,1609504820322091,2420234819,0.782752,-0.335744,0.072224,3.605,11.9,-53.27875,-39.84,-9.296001,-83.552,eccentric,4,5.0,38468.0,47976.0,75664.0,105368.0,34804.0,56891.0,31810.0,59418.0,22518.0,20055.0
2026-05-06 15:49:16.844400,399638,1609504820330984,2420243565,0.782752,-0.335744,0.072224,-1.5925,11.38375,-50.81125,-39.84,-9.296001,-83.552,eccentric,4,5.0,38468.0,47976.0,75664.0,105368.0,34804.0,56891.0,31810.0,59418.0,22518.0,20055.0
2026-05-06 15:49:16.846513,399639,1609504820345514,2420256575,0.792512,-0.413824,0.140544,-0.28875,10.49125,-49.875,-39.56,-9.944,-82.920006,eccentric,4,5.0,38468.0,47976.0,75664.0,105368.0,34804.0,56891.0,31810.0,59418.0,22518.0,20055.0
2026-05-06 15:49:16.851371,399640,1609504820354787,2420267444,0.792512,-0.413824,0.140544,-3.395,9.511251,-54.83625,-39.56,-9.944,-82.920006,eccentric,4,5.0,38468.0,47976.0,75664.0,105368.0,34804.0,56891.0,31810.0,59418.0,22518.0,20055.0
2026-05-06 15:49:16.862403,399641,1609504820369307,2420280372,0.817888,-0.257664,0.0488,6.5975,8.9775,-56.93625,-39.616,-9.184,-83.504005,eccentric,4,5.0,38468.0,47976.0,75664.0,105368.0,34804.0,56891.0,31810.0,59418.0,22518.0,20055.0
2026-05-06 15:49:16.896515,399652,1609504820378855,2420289781,0.817888,-0.257664,0.0488,24.0275,10.1325,-55.326252,-39.616,-9.184,-83.504005,eccentric,4,5.0,38597.0,47894.0,75807.0,105501.0,34893.0,56769.0,31910.0,59544.0,22535.0,19976.0
2026-05-06 15:49:16.899016,399653,1609504820388336,2420300680,0.794464,-0.091744,0.121024,44.24875,9.9225,-49.84875,-39.408,-11.040001,-83.47201,eccentric,4,5.0,38597.0,47894.0,75807.0,105501.0,34893.0,56769.0,31910.0,59544.0,22535.0,19976.0
2026-05-06 15:49:16.901502,399654,1609504820403082,2420315691,0.706624,-0.148352,0.054656,45.36875,10.73625,-49.25375,-39.832,-13.184001,-81.896,eccentric,4,5.0,38597.0,47894.0,75807.0,105501.0,34893.0,56769.0,31910.0,59544.0,22535.0,19976.0
2026-05-06 15:49:16.907463,399655,1609504820412190,2420324394,0.706624,-0.148352,0.054656,33.705,10.255,-51.87875,-39.832,-13.184001,-81.896,eccentric,4,5.0,38597.0,47894.0,75807.0,105501.0,34893.0,56769.0,31910.0,59544.0,22535.0,19976.0
2026-05-06 15:49:16.916336,399656,1609504820421126,2420333114,0.706624,-0.148352,0.054656,24.815,8.46125,-54.985,-39.832,-13.184001,-81.896,eccentric,4,5.0,38597.0,47894.0,75807.0,105501.0,34893.0,56769.0,31910.0,59544.0,22535.0,19976.0
2026-05-06 15:49:16.930163,399657,1609504820435646,2420348126,0.81008,-0.37088,0.081984,15.3825,4.64625,-62.86,-39.736,-10.504001,-83.32001,eccentric,4,5.0,38597.0,47894.0,75807.0,105501.0,34893.0,56769.0,31910.0,59544.0,22535.0,19976.0
2026-05-06 15:49:16.940094,399658,1609504820444603,2420356854,0.821792,-0.236192,0.18544,15.54875,5.2325,-68.7225,-39.528004,-10.872001,-83.01601,eccentric,4,5.0,38597.0,47894.0,75807.0,105501.0,34893.0,56769.0,31910.0,59544.0,22535.0,19976.0
2026-05-06 15:49:16.973843,399659,1609504820459130,2420371803,0.821792,-0.236192,0.18544,36.2075,8.75875,-64.61,-39.528004,-10.872001,-83.01601,eccentric,4,5.0,38597.0,47894.0,75807.0,105501.0,34893.0,56769.0,31910.0,59544.0,22535.0,19976.0
2026-05-06 15:49:16.976511,399660,1609504820468077,2420380524,0.689056,0.017568,0.064416,58.905,9.93125,-57.16375,-39.584003,-11.448001,-83.912,eccentric,4,5.0,38597.0,47894.0,75807.0,105501.0,34893.0,56769.0,31910.0,59544.0,22535.0,19976.0
2026-05-06 15:49:17.004025,399671,1609504820477538,2420389211,0.689056,0.017568,0.064416,66.115,7.09625,-55.78125,-39.584003,-11.448001,-83.912,eccentric,4,5.0,39059.0,48357.0,76321.0,105579.0,35222.0,57140.0,32168.0,59560.0,22642.0,20057.0
2026-05-06 15:49:17.006544,399672,1609504820492033,2420404181,0.870592,-0.154208,0.03904,46.38375,3.5525,-64.7325,-39.280003,-12.576,-83.872,eccentric,4,5.0,39059.0,48357.0,76321.0,105579.0,35222.0,57140.0,32168.0,59560.0,22642.0,20057.0
2026-05-06 15:49:17.008992,399673,1609504820501000,2420412976,0.870592,-0.154208,0.03904,21.9975,3.4825,-75.4425,-39.280003,-12.576,-83.872,eccentric,4,5.0,39059.0,48357.0,76321.0,105579.0,35222.0,57140.0,32168.0,59560.0,22642.0,20057.0
2026-05-06 15:49:17.011434,399674,1609504820515643,2420427930,0.862784,-0.1952,0.177632,20.1775,3.66625,-80.94625,-39.280003,-13.936001,-84.744,eccentric,4,5.0,39059.0,48357.0,76321.0,105579.0,35222.0,57140.0,32168.0,59560.0,22642.0,20057.0
2026-05-06 15:49:17.020252,399675,1609504820524682,2420436705,0.687104,-0.080032,0.208864,39.6725,9.05625,-80.61375,-38.976,-13.352,-83.424,eccentric,4,5.0,39059.0,48357.0,76321.0,105579.0,35222.0,57140.0,32168.0,59560.0,22642.0,20057.0
2026-05-06 15:49:17.030192,399676,1609504820533650,2420445422,0.687104,-0.080032,0.208864,56.6825,8.79375,-74.05125,-38.976,-13.352,-83.424,eccentric,4,5.0,39059.0,48357.0,76321.0,105579.0,35222.0,57140.0,32168.0,59560.0,22642.0,20057.0
2026-05-06 15:49:17.052317,399677,1609504820548148,2420460335,0.72224,-0.080032,0.113216,48.50125,5.48625,-70.04375,-39.0,-13.952001,-83.73601,eccentric,4,5.0,39059.0,48357.0,76321.0,105579.0,35222.0,57140.0,32168.0,59560.0,22642.0,20057.0
2026-05-06 15:49:17.054807,399678,1609504820557090,2420469054,0.72224,-0.080032,0.113216,34.5625,3.91125,-67.87375,-39.0,-13.952001,-83.73601,eccentric,4,5.0,39059.0,48357.0,76321.0,105579.0,35222.0,57140.0,32168.0,59560.0,22642.0,20057.0
2026-05-06 15:49:17.090108,399679,1609504820571639,2420483977,0.79056,-0.089792,0.103456,28.595,2.1525,-67.61125,-38.384003,-14.624001,-83.69601,eccentric,4,5.0,39059.0,48357.0,76321.0,105579.0,35222.0,57140.0,32168.0,59560.0,22642.0,20057.0
2026-05-06 15:49:17.205095,399690,1609504820581074,2420493013,0.79056,-0.089792,0.103456,30.9575,0.9975,-73.14125,-38.384003,-14.624001,-83.69601,eccentric,4,5.0,39792.0,48904.0,76586.0,106231.0,35785.0,57556.0,32365.0,59968.0,22887.0,20181.0
2026-05-06 15:49:17.208732,399691,1609504820595764,2420508062,0.700768,0.0,0.142496,51.35375,2.79125,-71.70625,-38.008003,-15.328001,-83.872,eccentric,4,5.0,39792.0,48904.0,76586.0,106231.0,35785.0,57556.0,32365.0,59968.0,22887.0,20181.0
2026-05-06 15:49:17.209962,399692,1609504820604707,2420516782,0.642208,0.054656,0.13664,54.67875,1.14625,-69.965004,-38.096,-17.36,-81.416,eccentric,4,5.0,39792.0,48904.0,76586.0,106231.0,35785.0,57556.0,32365.0,59968.0,22887.0,20181.0
2026-05-06 15:49:17.212460,399693,1609504820613685,2420525510,0.642208,0.054656,0.13664,42.201252,0.32375,-67.22625,-38.096,-17.36,-81.416,eccentric,4,5.0,39792.0,48904.0,76586.0,106231.0,35785.0,57556.0,32365.0,59968.0,22887.0,20181.0
2026-05-06 15:49:17.214972,399694,1609504820628251,2420540436,0.687104,0.02928,0.054656,27.15125,-1.60125,-61.71375,-38.056004,-15.928,-83.880005,eccentric,4,5.0,39792.0,48904.0,76586.0,106231.0,35785.0,57556.0,32365.0,59968.0,22887.0,20181.0
2026-05-06 15:49:17.219169,399695,1609504820637177,2420549169,0.687104,0.02928,0.054656,9.8875,-1.89875,-58.695,-38.056004,-15.928,-83.880005,eccentric,4,5.0,39792.0,48904.0,76586.0,106231.0,35785.0,57556.0,32365.0,59968.0,22887.0,20181.0
2026-05-06 15:49:17.220183,399696,1609504820651675,2420564102,0.716384,-0.021472,-0.003904,13.0725,-3.4825,-55.8425,-37.416,-16.408,-84.16801,eccentric,4,5.0,39792.0,48904.0,76586.0,106231.0,35785.0,57556.0,32365.0,59968.0,22887.0,20181.0
2026-05-06 15:49:17.222966,399697,1609504820660716,2420572815,0.716384,-0.021472,-0.003904,20.78125,-5.99375,-54.90625,-37.416,-16.408,-84.16801,eccentric,4,5.0,39792.0,48904.0,76586.0,106231.0,35785.0,57556.0,32365.0,59968.0,22887.0,20181.0
2026-05-06 15:49:17.225077,399698,1609504820669668,2420581519,0.71248,-0.031232,0.162016,22.84625,-7.37625,-52.49125,-37.688004,-17.224,-84.248,eccentric,4,5.0,39792.0,48904.0,76586.0,106231.0,35785.0,57556.0,32365.0,59968.0,22887.0,20181.0
2026-05-06 15:49:17.258937,399709,1609504820684305,2420596499,0.724192,0.03904,0.163968,19.1275,-8.2775,-49.02625,-37.264,-18.192001,-84.632,eccentric,4,5.0,41047.0,50246.0,77315.0,107417.0,36853.0,58756.0,32773.0,60589.0,23357.0,20649.0
2026-05-06 15:49:17.261581,399710,1609504820693315,2420605354,0.724192,0.03904,0.163968,17.35125,-6.81625,-41.92125,-37.264,-18.192001,-84.632,eccentric,4,5.0,41047.0,50246.0,77315.0,107417.0,36853.0,58756.0,32773.0,60589.0,23357.0,20649.0
