pc_time,serial_num,sensor_ts,host_ts,ax,ay,az,gx,gy,gz,mx,my,mz,phase,rpe,weight_kg,ppg_a,ppg_b,ppg_c,ppg_d,ppg_e,ppg_f,ppg_g,ppg_h,ppg_i,ppg_j
2026-05-06 15:49:17.266456,399711,1609504820707798,2420620289,0.788608,-0.037088,0.152256,9.9225,-6.3525,-34.81625,-37.272003,-18.072,-84.384,concentric,4,5.0,41047.0,50246.0,77315.0,107417.0,36853.0,58756.0,32773.0,60589.0,23357.0,20649.0
2026-05-06 15:49:17.269106,399712,1609504820716694,2420628988,0.788608,-0.037088,0.152256,-0.735,-7.28875,-27.01125,-37.272003,-18.072,-84.384,concentric,4,5.0,41047.0,50246.0,77315.0,107417.0,36853.0,58756.0,32773.0,60589.0,23357.0,20649.0
2026-05-06 15:49:17.269857,399713,1609504820731445,2420643924,0.794464,0.040992,0.056608,0.70875,-8.05,-18.3925,-36.992,-17.888,-82.73601,concentric,4,5.0,41047.0,50246.0,77315.0,107417.0,36853.0,58756.0,32773.0,60589.0,23357.0,20649.0
2026-05-06 15:49:17.275111,399714,1609504820740465,2420652712,0.794464,0.040992,0.056608,9.89625,-9.10875,-12.67875,-36.992,-17.888,-82.73601,concentric,4,5.0,41047.0,50246.0,77315.0,107417.0,36853.0,58756.0,32773.0,60589.0,23357.0,20649.0
2026-05-06 15:49:17.277480,399715,1609504820749482,2420661478,0.853024,0.072224,0.105408,12.0925,-10.36875,-10.29,-36.832,-18.152,-84.648,concentric,4,5.0,41047.0,50246.0,77315.0,107417.0,36853.0,58756.0,32773.0,60589.0,23357.0,20649.0
2026-05-06 15:49:17.279892,399716,1609504820764019,2420676434,0.853024,0.072224,0.1464,8.19,-9.38875,-9.42375,-36.832,-18.152,-84.648,concentric,4,5.0,41047.0,50246.0,77315.0,107417.0,36853.0,58756.0,32773.0,60589.0,23357.0,20649.0
2026-05-06 15:49:17.282369,399717,1609504820772971,2420685156,0.890112,-0.025376,0.1464,3.4125,-7.86625,-8.645,-37.36,-19.816002,-86.704,concentric,4,5.0,41047.0,50246.0,77315.0,107417.0,36853.0,58756.0,32773.0,60589.0,23357.0,20649.0
2026-05-06 15:49:17.310111,399728,1609504820788075,2420700417,0.886208,-0.056608,0.148352,-0.0875,-6.1775,-4.76875,-37.032,-19.216002,-83.328,concentric,4,5.0,41517.0,50879.0,77767.0,108292.0,37232.0,59294.0,33015.0,61025.0,23516.0,20805.0
2026-05-06 15:49:17.312461,399729,1609504820797010,2420709180,0.886208,-0.056608,0.148352,-3.21125,-4.87375,1.33875,-37.032,-19.216002,-83.328,concentric,4,5.0,41517.0,50879.0,77767.0,108292.0,37232.0,59294.0,33015.0,61025.0,23516.0,20805.0
2026-05-06 15:49:17.315032,399730,1609504820806107,2420717915,0.93696,0.02928,0.052704,-8.5575,-4.19125,5.74875,-36.784,-19.264002,-86.232,concentric,4,5.0,41517.0,50879.0,77767.0,108292.0,37232.0,59294.0,33015.0,61025.0,23516.0,20805.0
2026-05-06 15:49:17.317566,399731,1609504820820675,2420732871,0.93696,0.02928,0.052704,-8.2075,-4.19125,7.0175,-36.784,-19.264002,-86.232,concentric,4,5.0,41517.0,50879.0,77767.0,108292.0,37232.0,59294.0,33015.0,61025.0,23516.0,20805.0
2026-05-06 15:49:17.323848,399732,1609504820829650,2420741693,0.968192,0.08784,0.083936,-2.44125,-4.375,5.11875,-36.984,-19.168001,-83.824005,concentric,4,5.0,41517.0,50879.0,77767.0,108292.0,37232.0,59294.0,33015.0,61025.0,23516.0,20805.0
2026-05-06 15:49:17.343490,399733,1609504820844130,2420756608,0.968192,0.08784,0.083936,0.65625,-4.24375,2.66875,-36.984,-19.168001,-83.824005,concentric,4,5.0,41517.0,50879.0,77767.0,108292.0,37232.0,59294.0,33015.0,61025.0,23516.0,20805.0
2026-05-06 15:49:17.349887,399734,1609504820853080,2420765306,0.921344,0.056608,0.080032,-2.07375,-2.82625,1.07625,-37.104,-17.84,-85.128006,concentric,4,5.0,41517.0,50879.0,77767.0,108292.0,37232.0,59294.0,33015.0,61025.0,23516.0,20805.0
2026-05-06 15:49:17.357481,399735,1609504820862035,2420774005,0.921344,0.056608,0.080032,-10.36875,-1.47,1.855,-37.104,-17.84,-85.128006,concentric,4,5.0,41517.0,50879.0,77767.0,108292.0,37232.0,59294.0,33015.0,61025.0,23516.0,20805.0
2026-05-06 15:49:17.371461,399736,1609504820876538,2420788965,0.90768,0.013664,0.103456,-17.9375,-2.21375,4.865,-36.992,-17.688002,-84.58401,concentric,4,5.0,41517.0,50879.0,77767.0,108292.0,37232.0,59294.0,33015.0,61025.0,23516.0,20805.0
2026-05-06 15:49:17.399913,399747,1609504820885602,2420797736,0.909632,0.035136,0.080032,-21.0875,-2.8875,6.18625,-36.992,-17.824001,-83.54401,concentric,4,5.0,41678.0,51132.0,77803.0,108404.0,37291.0,59450.0,33007.0,61027.0,23568.0,20839.0
2026-05-06 15:49:17.402595,399748,1609504820900149,2420812791,0.909632,0.035136,0.080032,-17.54375,-2.70375,5.69625,-36.776,-17.824001,-83.54401,concentric,4,5.0,41678.0,51132.0,77803.0,108404.0,37291.0,59450.0,33007.0,61027.0,23568.0,20839.0
2026-05-06 15:49:17.405011,399749,1609504820909161,2420821486,0.870592,0.113216,0.099552,-13.6325,-2.14375,2.94875,-37.392002,-21.184002,-82.128006,concentric,4,5.0,41678.0,51132.0,77803.0,108404.0,37291.0,59450.0,33007.0,61027.0,23568.0,20839.0
2026-05-06 15:49:17.418847,399750,1609504820923823,2420836533,0.870592,0.113216,0.099552,-8.61875,-2.6075,2.33625,-37.392002,-21.184002,-82.128006,concentric,4,5.0,41678.0,51132.0,77803.0,108404.0,37291.0,59450.0,33007.0,61027.0,23568.0,20839.0
2026-05-06 15:49:17.427453,399751,1609504820932905,2420845258,0.895968,0.052704,0.119072,-3.7975,-2.44125,4.48875,-37.184002,-17.296001,-84.504005,concentric,4,5.0,41678.0,51132.0,77803.0,108404.0,37291.0,59450.0,33007.0,61027.0,23568.0,20839.0
2026-05-06 15:49:17.456419,399752,1609504820941850,2420854004,0.895968,0.052704,0.119072,-10.185,-1.9425,4.06875,-37.184002,-17.296001,-84.504005,concentric,4,5.0,41678.0,51132.0,77803.0,108404.0,37291.0,59450.0,33007.0,61027.0,23568.0,20839.0
2026-05-06 15:49:17.481363,399753,1609504820956348,2420868907,0.8784,0.01952,0.124928,-17.15875,-0.81375,4.935,-37.072002,-18.088001,-84.48801,concentric,4,5.0,41678.0,51132.0,77803.0,108404.0,37291.0,59450.0,33007.0,61027.0,23568.0,20839.0
2026-05-06 15:49:17.502477,399754,1609504820965314,2420877737,0.8784,0.01952,0.124928,-16.94,-0.46375,7.56875,-37.072002,-18.088001,-84.48801,concentric,4,5.0,41678.0,51132.0,77803.0,108404.0,37291.0,59450.0,33007.0,61027.0,23568.0,20839.0
2026-05-06 15:49:17.530069,399765,1609504820980625,2420892734,0.860832,0.060512,0.033184,-14.3675,0.04375,7.48125,-37.024002,-17.704,-84.192,concentric,4,5.0,41915.0,51288.0,77952.0,108636.0,37512.0,59627.0,33064.0,61176.0,23667.0,20930.0
2026-05-06 15:49:17.532665,399766,1609504820989678,2420901512,0.866688,0.031232,0.056608,-9.765,0.46375,7.4375,-36.912003,-17.704,-84.768005,concentric,4,5.0,41915.0,51288.0,77952.0,108636.0,37512.0,59627.0,33064.0,61176.0,23667.0,20930.0
2026-05-06 15:49:17.535169,399767,1609504820998599,2420910253,0.866688,0.031232,0.056608,-8.0325,0.91,9.0475,-36.912003,-17.704,-84.768005,concentric,4,5.0,41915.0,51288.0,77952.0,108636.0,37512.0,59627.0,33064.0,61176.0,23667.0,20930.0
2026-05-06 15:49:17.537729,399768,1609504821013089,2420925195,0.882304,0.003904,0.101504,-9.10875,0.86625,12.705,-37.288002,-17.304,-82.76,concentric,4,5.0,41915.0,51288.0,77952.0,108636.0,37512.0,59627.0,33064.0,61176.0,23667.0,20930.0
2026-05-06 15:49:17.540139,399769,1609504821022018,2420933927,0.882304,0.003904,0.101504,-11.34,1.26,14.42875,-37.288002,-17.304,-82.76,concentric,4,5.0,41915.0,51288.0,77952.0,108636.0,37512.0,59627.0,33064.0,61176.0,23667.0,20930.0
2026-05-06 15:49:17.542675,399770,1609504821036614,2420948889,0.847168,0.017568,0.11712,-12.59125,2.23125,15.9775,-37.4,-17.128,-84.240005,concentric,4,5.0,41915.0,51288.0,77952.0,108636.0,37512.0,59627.0,33064.0,61176.0,23667.0,20930.0
2026-05-06 15:49:17.545204,399771,1609504821045660,2420957650,0.847168,0.017568,0.11712,-14.42,2.84375,15.47,-37.4,-17.128,-84.240005,concentric,4,5.0,41915.0,51288.0,77952.0,108636.0,37512.0,59627.0,33064.0,61176.0,23667.0,20930.0
2026-05-06 15:49:17.551515,399772,1609504821054719,2420966368,0.8296,0.00976,0.080032,-17.1675,3.64875,16.345,-37.744003,-17.328001,-86.552,concentric,4,5.0,41915.0,51288.0,77952.0,108636.0,37512.0,59627.0,33064.0,61176.0,23667.0,20930.0
2026-05-06 15:49:17.567727,399773,1609504821069239,2420981330,0.825696,-0.003904,0.070272,-16.5375,4.13875,17.272501,-37.272003,-16.896,-84.352005,concentric,4,5.0,41915.0,51288.0,77952.0,108636.0,37512.0,59627.0,33064.0,61176.0,23667.0,20930.0
2026-05-06 15:49:17.573975,399774,1609504821078144,2420990078,0.825696,-0.003904,0.070272,-13.615,2.05625,17.6925,-37.272003,-16.896,-84.352005,concentric,4,5.0,41915.0,51288.0,77952.0,108636.0,37512.0,59627.0,33064.0,61176.0,23667.0,20930.0
2026-05-06 15:49:17.601869,399785,1609504821092766,2421005100,0.808128,-0.035136,0.046848,-9.16125,0.14875,20.06375,-37.376003,-18.368,-83.11201,concentric,4,5.0,41808.0,51194.0,77925.0,108758.0,37412.0,59581.0,33088.0,61299.0,23649.0,20956.0
2026-05-06 15:49:17.603619,399786,1609504821102053,2421013901,0.808128,-0.035136,0.046848,-3.38625,-1.91625,23.44125,-37.376003,-18.368,-83.11201,concentric,4,5.0,41808.0,51194.0,77925.0,108758.0,37412.0,59581.0,33088.0,61299.0,23649.0,20956.0
2026-05-06 15:49:17.612376,399787,1609504821116651,2421028893,0.835456,-0.074176,0.042944,-0.88375,-2.7825,26.94125,-37.736,-17.904001,-83.16801,concentric,4,5.0,41808.0,51194.0,77925.0,108758.0,37412.0,59581.0,33088.0,61299.0,23649.0,20956.0
2026-05-06 15:49:17.621257,399788,1609504821125610,2421037635,0.835456,-0.074176,0.042944,-5.9675,-2.31,30.09125,-37.736,-17.904001,-83.16801,concentric,4,5.0,41808.0,51194.0,77925.0,108758.0,37412.0,59581.0,33088.0,61299.0,23649.0,20956.0
2026-05-06 15:49:17.629783,399789,1609504821134572,2421046349,0.815936,0.01952,0.113216,-10.535,0.0875,31.84125,-37.68,-17.480001,-84.008,concentric,4,5.0,41808.0,51194.0,77925.0,108758.0,37412.0,59581.0,33088.0,61299.0,23649.0,20956.0
2026-05-06 15:49:17.643669,399790,1609504821149093,2421061299,0.733952,-0.015616,0.046848,-13.51,2.51125,30.817501,-38.120003,-14.928,-84.8,concentric,4,5.0,41808.0,51194.0,77925.0,108758.0,37412.0,59581.0,33088.0,61299.0,23649.0,20956.0
2026-05-06 15:49:17.652578,399791,1609504821158079,2421070150,0.733952,-0.015616,0.046848,-18.515,2.9575,29.505001,-38.120003,-14.928,-84.8,concentric,4,5.0,41808.0,51194.0,77925.0,108758.0,37412.0,59581.0,33088.0,61299.0,23649.0,20956.0
2026-05-06 15:49:17.678504,399792,1609504821172608,2421085070,0.739808,-0.11712,0.037088,-21.91875,1.5225,32.3225,-38.048,-15.312,-84.448006,concentric,4,5.0,41808.0,51194.0,77925.0,108758.0,37412.0,59581.0,33088.0,61299.0,23649.0,20956.0
2026-05-06 15:49:17.703835,399803,1609504821181783,2421093908,0.739808,-0.11712,0.037088,-20.125,0.25375,39.33125,-38.048,-15.312,-84.448006,concentric,4,5.0,41535.0,51215.0,77707.0,108765.0,37214.0,59621.0,32955.0,61312.0,23565.0,20991.0
2026-05-06 15:49:17.710200,399804,1609504821190795,2421102690,0.825696,-0.163968,0.089792,-16.8,-0.455,46.13,-38.04,-14.768001,-83.872,concentric,4,5.0,41535.0,51215.0,77707.0,108765.0,37214.0,59621.0,32955.0,61312.0,23565.0,20991.0
2026-05-06 15:49:17.712590,399805,1609504821205365,2421117643,0.825696,-0.163968,0.089792,-18.2175,-0.93625,49.28,-38.04,-14.768001,-83.872,concentric,4,5.0,41535.0,51215.0,77707.0,108765.0,37214.0,59621.0,32955.0,61312.0,23565.0,20991.0
2026-05-06 15:49:17.715234,399806,1609504821214433,2421126431,0.75152,-0.056608,0.115168,-22.505,-0.1225,50.295002,-38.392002,-13.920001,-84.368004,concentric,4,5.0,41535.0,51215.0,77707.0,108765.0,37214.0,59621.0,32955.0,61312.0,23565.0,20991.0
2026-05-06 15:49:17.728913,399807,1609504821228937,2421141358,0.61488,-0.015616,0.115168,-25.54125,-0.4725,49.5075,-38.632,-15.912001,-83.43201,concentric,4,5.0,41535.0,51215.0,77707.0,108765.0,37214.0,59621.0,32955.0,61312.0,23565.0,20991.0
2026-05-06 15:49:17.735252,399808,1609504821237852,2421150265,0.61488,-0.015616,0.115168,-25.48,-2.12625,49.16625,-38.632,-15.912001,-83.43201,concentric,4,5.0,41535.0,51215.0,77707.0,108765.0,37214.0,59621.0,32955.0,61312.0,23565.0,20991.0
2026-05-06 15:49:17.749039,399809,1609504821252388,2421163147,0.640256,-0.093696,0.07808,-22.8025,-3.84125,52.3775,-38.504,-14.296001,-82.96001,concentric,4,5.0,41535.0,51215.0,77707.0,108765.0,37214.0,59621.0,32955.0,61312.0,23565.0,20991.0
2026-05-06 15:49:17.757823,399810,1609504821261578,2421174050,0.640256,-0.093696,0.07808,-19.06625,-4.9525,58.791252,-38.504,-14.296001,-82.96001,concentric,4,5.0,41535.0,51215.0,77707.0,108765.0,37214.0,59621.0,32955.0,61312.0,23565.0,20991.0
2026-05-06 15:49:17.767792,399811,1609504821270635,2421182866,0.765184,-0.1952,-0.027328,-19.6525,-6.22125,65.4325,-38.336002,-11.912001,-84.336006,concentric,4,5.0,41535.0,51215.0,77707.0,108765.0,37214.0,59621.0,32955.0,61312.0,23565.0,20991.0
2026-05-06 15:49:17.850249,399822,1609504821285864,2421197835,0.765184,-0.1952,-0.027328,-24.61375,-4.17375,67.13875,-38.336002,-11.912001,-84.336006,concentric,4,5.0,40839.0,51151.0,77140.0,108489.0,36676.0,59631.0,32666.0,61158.0,23354.0,21063.0
2026-05-06 15:49:17.876899,399823,1609504821295032,2421206586,0.716384,-0.080032,0.0,-32.4625,-1.16375,63.88375,-38.72,-13.144001,-82.888,concentric,4,5.0,40839.0,51151.0,77140.0,108489.0,36676.0,59631.0,32666.0,61158.0,23354.0,21063.0
2026-05-06 15:49:17.892701,399824,1609504821304182,2421215355,0.716384,-0.080032,0.0,-39.41875,-0.9275,62.06375,-38.72,-13.144001,-82.888,concentric,4,5.0,40839.0,51151.0,77140.0,108489.0,36676.0,59631.0,32666.0,61158.0,23354.0,21063.0
2026-05-06 15:49:17.895198,399825,1609504821319097,2421230350,0.528992,-0.0488,0.167872,-43.47875,-4.13,59.89375,-39.216003,-12.440001,-83.48801,concentric,4,5.0,40839.0,51151.0,77140.0,108489.0,36676.0,59631.0,32666.0,61158.0,23354.0,21063.0
2026-05-06 15:49:17.897667,399826,1609504821328044,2421239086,0.528992,-0.0488,0.167872,-40.04,-7.83125,59.21125,-39.216003,-12.440001,-83.48801,concentric,4,5.0,40839.0,51151.0,77140.0,108489.0,36676.0,59631.0,32666.0,61158.0,23354.0,21063.0
2026-05-06 15:49:17.900185,399827,1609504821342837,2421254115,0.661728,-0.265472,0.037088,-29.53125,-10.8325,64.4175,-38.976,-9.56,-87.344,concentric,4,5.0,40839.0,51151.0,77140.0,108489.0,36676.0,59631.0,32666.0,61158.0,23354.0,21063.0
2026-05-06 15:49:17.902728,399828,1609504821351796,2421262832,0.757376,-0.316224,0.083936,-29.3125,-13.5975,68.9325,-39.096,-9.160001,-84.840004,concentric,4,5.0,40839.0,51151.0,77140.0,108489.0,36676.0,59631.0,32666.0,61158.0,23354.0,21063.0
2026-05-06 15:49:17.905243,399829,1609504821361030,2421273669,0.757376,-0.316224,0.083936,-32.655,-11.90875,67.29625,-39.096,-9.160001,-84.840004,concentric,4,5.0,40839.0,51151.0,77140.0,108489.0,36676.0,59631.0,32666.0,61158.0,23354.0,21063.0
2026-05-06 15:49:17.907685,399830,1609504821375520,2421286523,0.71248,-0.238144,0.052704,-27.92125,-8.75,67.515,-38.856003,-8.304001,-85.048004,concentric,4,5.0,40839.0,51151.0,77140.0,108489.0,36676.0,59631.0,32666.0,61158.0,23354.0,21063.0
2026-05-06 15:49:17.938760,399841,1609504821384924,2421295712,0.71248,-0.238144,0.052704,-26.59125,-11.83875,67.2,-38.856003,-8.304001,-85.048004,concentric,4,5.0,39424.0,50127.0,75865.0,108498.0,35619.0,58790.0,32027.0,61180.0,22886.0,20803.0
2026-05-06 15:49:17.941103,399842,1609504821394231,2421306527,0.60512,-0.072224,0.115168,-29.1725,-14.533751,65.77375,-38.88,-7.296001,-84.984,concentric,4,5.0,39424.0,50127.0,75865.0,108498.0,35619.0,58790.0,32027.0,61180.0,22886.0,20803.0
2026-05-06 15:49:17.943420,399843,1609504821408918,2421321426,0.60512,-0.072224,-0.056608,-8.89875,-14.533751,70.8925,-38.88,-7.296001,-84.984,concentric,4,5.0,39424.0,50127.0,75865.0,108498.0,35619.0,58790.0,32027.0,61180.0,22886.0,20803.0
2026-05-06 15:49:17.945985,399844,1609504821417976,2421330213,0.72224,-0.275232,-0.0488,9.730001,-17.5875,61.11875,-38.976,-5.816001,-86.600006,concentric,4,5.0,39424.0,50127.0,75865.0,108498.0,35619.0,58790.0,32027.0,61180.0,22886.0,20803.0
2026-05-06 15:49:17.948464,399845,1609504821432566,2421345265,0.933056,-0.46848,0.025376,8.88125,-16.84375,59.9725,-38.688004,-5.624,-85.144005,concentric,4,5.0,39424.0,50127.0,75865.0,108498.0,35619.0,58790.0,32027.0,61180.0,22886.0,20803.0
2026-05-06 15:49:17.951018,399846,1609504821441709,2421354013,0.933056,-0.46848,0.025376,-15.56625,-5.95875,55.88625,-38.688004,-5.624,-85.144005,concentric,4,5.0,39424.0,50127.0,75865.0,108498.0,35619.0,58790.0,32027.0,61180.0,22886.0,20803.0
2026-05-06 15:49:17.953484,399847,1609504821456216,2421369004,0.769088,-0.296704,0.222528,-40.4075,5.145,43.4875,-39.08,-6.344,-86.344,concentric,4,5.0,39424.0,50127.0,75865.0,108498.0,35619.0,58790.0,32027.0,61180.0,22886.0,20803.0
2026-05-06 15:49:17.962276,399848,1609504821465345,2421377707,0.769088,-0.296704,0.222528,-26.8275,9.63375,49.28,-39.08,-6.344,-86.344,concentric,4,5.0,39424.0,50127.0,75865.0,108498.0,35619.0,58790.0,32027.0,61180.0,22886.0,20803.0
2026-05-06 15:49:17.971311,399849,1609504821474329,2421386581,0.735904,-0.193248,0.054656,-14.39375,6.2125,50.33,-38.872,-3.96,-85.96001,concentric,4,5.0,39424.0,50127.0,75865.0,108498.0,35619.0,58790.0,32027.0,61180.0,22886.0,20803.0
2026-05-06 15:49:18.005196,399860,1609504821489053,2421401594,0.735904,-0.193248,0.054656,-10.8675,1.61875,45.28125,-38.872,-3.96,-85.96001,concentric,4,5.0,37556.0,48115.0,74847.0,107066.0,34219.0,56798.0,31488.0,60262.0,22193.0,19997.0
2026-05-06 15:49:18.010241,399861,1609504821498078,2421410362,0.77104,-0.220576,-0.183488,-17.2375,-1.05,34.326252,-39.528004,-5.36,-85.336006,concentric,4,5.0,37556.0,48115.0,74847.0,107066.0,34219.0,56798.0,31488.0,60262.0,22193.0,19997.0
2026-05-06 15:49:18.012585,399862,1609504821512611,2421425382,1.026752,-0.433344,-0.027328,-5.22375,-3.4825,23.30125,-39.472,-4.776,-83.920006,concentric,4,5.0,37556.0,48115.0,74847.0,107066.0,34219.0,56798.0,31488.0,60262.0,22193.0,19997.0
2026-05-06 15:49:18.018978,399863,1609504821521586,2421434077,1.026752,-0.433344,-0.027328,5.18,-4.41,17.43,-39.472,-4.776,-83.920006,concentric,4,5.0,37556.0,48115.0,74847.0,107066.0,34219.0,56798.0,31488.0,60262.0,22193.0,19997.0
2026-05-06 15:49:18.025227,399864,1609504821530598,2421442858,0.89792,-0.560224,0.386496,-8.14625,3.03625,10.19375,-39.472,-3.032,-86.064,concentric,4,5.0,37556.0,48115.0,74847.0,107066.0,34219.0,56798.0,31488.0,60262.0,22193.0,19997.0
2026-05-06 15:49:18.041535,399865,1609504821545090,2421457785,0.89792,-0.560224,0.386496,-36.40875,11.85625,7.7525,-39.768,-3.032,-86.064,concentric,4,5.0,37556.0,48115.0,74847.0,107066.0,34219.0,56798.0,31488.0,60262.0,22193.0,19997.0
2026-05-06 15:49:18.050210,399866,1609504821554023,2421466521,0.67344,-0.259616,0.197152,-31.3775,13.8075,19.59125,-39.384003,-2.728,-85.712006,concentric,4,5.0,37556.0,48115.0,74847.0,107066.0,34219.0,56798.0,31488.0,60262.0,22193.0,19997.0
2026-05-06 15:49:18.063638,399867,1609504821568524,2421479462,0.67344,-0.259616,0.197152,-5.04875,7.83125,27.6675,-39.384003,-2.728,-85.712006,concentric,4,5.0,37556.0,48115.0,74847.0,107066.0,34219.0,56798.0,31488.0,60262.0,22193.0,19997.0
2026-05-06 15:49:18.076182,399868,1609504821577888,2421490320,0.841312,-0.177632,0.001952,-7.97125,8.67125,20.37,-39.88,-2.32,-87.00001,concentric,4,5.0,37556.0,48115.0,74847.0,107066.0,34219.0,56798.0,31488.0,60262.0,22193.0,19997.0
2026-05-06 15:49:18.103671,399879,1609504821587308,2421499243,0.841312,-0.177632,0.001952,-6.48375,11.917501,2.26625,-39.88,-2.32,-87.00001,concentric,4,5.0,36662.0,46868.0,74578.0,105626.0,33481.0,55708.0,31371.0,59597.0,21834.0,19550.0
2026-05-06 15:49:18.106164,399880,1609504821601960,2421514290,0.929152,-0.30256,0.054656,-4.55875,13.13375,-9.835,-40.2,-1.672,-85.22401,concentric,4,5.0,36662.0,46868.0,74578.0,105626.0,33481.0,55708.0,31371.0,59597.0,21834.0,19550.0
2026-05-06 15:49:18.108573,399881,1609504821610936,2421522980,0.86864,-0.437248,0.11712,-0.58625,14.385,1.42625,-40.2,-1.672,-83.096,concentric,4,5.0,36662.0,46868.0,74578.0,105626.0,33481.0,55708.0,31371.0,59597.0,21834.0,19550.0
2026-05-06 15:49:18.122686,399882,1609504821625493,2421537937,0.86864,-0.437248,0.11712,-1.33,14.665,5.10125,-40.936,-3.104,-83.096,concentric,4,5.0,36662.0,46868.0,74578.0,105626.0,33481.0,55708.0,31371.0,59597.0,21834.0,19550.0
2026-05-06 15:49:18.131474,399883,1609504821634525,2421546693,0.804224,-0.310368,0.26352,-20.69375,15.4875,-10.26375,-41.088,-1.416,-86.07201,concentric,4,5.0,36662.0,46868.0,74578.0,105626.0,33481.0,55708.0,31371.0,59597.0,21834.0,19550.0
2026-05-06 15:49:18.140176,399884,1609504821643448,2421555467,0.804224,-0.310368,0.26352,-28.27125,15.4875,-11.03375,-41.088,-1.416,-86.07201,concentric,4,5.0,36662.0,46868.0,74578.0,105626.0,33481.0,55708.0,31371.0,59597.0,21834.0,19550.0
2026-05-06 15:49:18.160157,399885,1609504821658078,2421570372,0.84912,-0.169824,0.197152,-11.01625,13.67625,-1.96875,-40.704002,-1.272,-86.104004,concentric,4,5.0,36662.0,46868.0,74578.0,105626.0,33481.0,55708.0,31371.0,59597.0,21834.0,19550.0
2026-05-06 15:49:18.162430,399886,1609504821667029,2421579126,0.84912,-0.169824,0.197152,7.42,11.20875,-7.0525,-40.704002,-1.272,-86.104004,concentric,4,5.0,36662.0,46868.0,74578.0,105626.0,33481.0,55708.0,31371.0,59597.0,21834.0,19550.0
2026-05-06 15:49:18.191526,399887,1609504821681513,2421594039,0.931104,-0.259616,0.066368,14.49,8.1375,-16.23125,-41.4,-1.136,-86.096,concentric,4,5.0,36662.0,46868.0,74578.0,105626.0,33481.0,55708.0,31371.0,59597.0,21834.0,19550.0
2026-05-06 15:49:18.262395,399898,1609504821690515,2421602852,0.931104,-0.259616,0.066368,11.75125,8.505,-19.81875,-41.4,-1.136,-86.096,concentric,4,5.0,36711.0,46820.0,75243.0,104257.0,33514.0,55702.0,31707.0,58802.0,21917.0,19580.0
2026-05-06 15:49:18.265111,399899,1609504821705017,2421615778,0.991616,-0.394304,0.179584,-1.12,9.68625,-25.48,-41.752003,-1.016,-84.944,concentric,4,5.0,36711.0,46820.0,75243.0,104257.0,33514.0,55702.0,31707.0,58802.0,21917.0,19580.0
2026-05-06 15:49:18.267646,399900,1609504821714189,2421626681,0.909632,-0.407968,0.333792,-14.875,12.1625,-33.99375,-41.624,-1.488,-85.864006,concentric,4,5.0,36711.0,46820.0,75243.0,104257.0,33514.0,55702.0,31707.0,58802.0,21917.0,19580.0
2026-05-06 15:49:18.270125,399901,1609504821723116,2421635386,0.909632,-0.407968,0.333792,-20.545,12.53875,-39.7775,-41.624,-1.488,-85.864006,concentric,4,5.0,36711.0,46820.0,75243.0,104257.0,33514.0,55702.0,31707.0,58802.0,21917.0,19580.0
2026-05-06 15:49:18.272621,399902,1609504821737628,2421650302,0.98576,-0.347456,0.212768,-16.14375,10.4125,-42.3675,-42.344,-2.072,-85.608,concentric,4,5.0,36711.0,46820.0,75243.0,104257.0,33514.0,55702.0,31707.0,58802.0,21917.0,19580.0
2026-05-06 15:49:18.275128,399903,1609504821746577,2421658962,0.98576,-0.347456,0.212768,-0.6825,7.42875,-43.435,-42.344,-2.072,-85.608,concentric,4,5.0,36711.0,46820.0,75243.0,104257.0,33514.0,55702.0,31707.0,58802.0,21917.0,19580.0
2026-05-06 15:49:18.277636,399904,1609504821761113,2421671888,1.075552,-0.294752,0.22448,4.85625,6.5275,-44.415,-42.904003,-2.152,-85.32001,concentric,4,5.0,36711.0,46820.0,75243.0,104257.0,33514.0,55702.0,31707.0,58802.0,21917.0,19580.0
2026-05-06 15:49:18.280006,399905,1609504821770347,2421682697,1.075552,-0.294752,0.22448,3.325,9.695,-44.6425,-42.904003,-2.152,-85.32001,concentric,4,5.0,36711.0,46820.0,75243.0,104257.0,33514.0,55702.0,31707.0,58802.0,21917.0,19580.0
2026-05-06 15:49:18.282621,399906,1609504821779297,2421691478,1.009184,-0.456768,0.267424,6.1425,15.02375,-54.4075,-43.512,-4.064,-86.064,concentric,4,5.0,36711.0,46820.0,75243.0,104257.0,33514.0,55702.0,31707.0,58802.0,21917.0,19580.0
2026-05-06 15:49:18.316522,399918,1609504821794326,2421706433,1.020896,-0.392352,0.281088,7.83125,16.65125,-58.70375,-44.088,-5.336,-84.04,concentric,4,5.0,36292.0,46020.0,75044.0,103249.0,33013.0,55057.0,31575.0,58350.0,21636.0,19321.0
2026-05-06 15:49:18.319009,399919,1609504821803295,2421715194,1.020896,-0.392352,0.281088,9.94,19.5475,-52.395,-44.088,-5.336,-84.04,concentric,4,5.0,36292.0,46020.0,75044.0,103249.0,33013.0,55057.0,31575.0,58350.0,21636.0,19321.0
2026-05-06 15:49:18.321544,399920,1609504821817864,2421730192,1.03456,-0.222528,0.177632,12.4075,20.88625,-52.5875,-44.392002,-4.544,-85.288,concentric,4,5.0,36292.0,46020.0,75044.0,103249.0,33013.0,55057.0,31575.0,58350.0,21636.0,19321.0
2026-05-06 15:49:18.324025,399921,1609504821826968,2421738955,1.03456,-0.222528,0.177632,14.84875,22.40875,-52.82375,-44.392002,-4.544,-85.288,concentric,4,5.0,36292.0,46020.0,75044.0,103249.0,33013.0,55057.0,31575.0,58350.0,21636.0,19321.0
2026-05-06 15:49:18.332540,399922,1609504821835955,2421747718,1.100928,-0.281088,0.173728,9.7125,22.995,-55.4225,-44.4,-4.544,-84.384,concentric,4,5.0,36292.0,46020.0,75044.0,103249.0,33013.0,55057.0,31575.0,58350.0,21636.0,19321.0
2026-05-06 15:49:18.346284,399923,1609504821850512,2421762659,1.100928,-0.281088,0.173728,-1.995,24.2025,-58.2225,-44.4,-4.544,-84.384,concentric,4,5.0,36292.0,46020.0,75044.0,103249.0,33013.0,55057.0,31575.0,58350.0,21636.0,19321.0
2026-05-06 15:49:18.355097,399924,1609504821859408,2421771372,1.10288,-0.372832,0.247904,-14.735,23.42375,-59.0625,-44.912003,-5.232,-84.240005,concentric,4,5.0,36292.0,46020.0,75044.0,103249.0,33013.0,55057.0,31575.0,58350.0,21636.0,19321.0
2026-05-06 15:49:18.368719,399925,1609504821873917,2421786286,1.118496,-0.30256,0.183488,-20.116251,21.14875,-59.29875,-45.496002,-5.728,-84.96001,concentric,4,5.0,36292.0,46020.0,75044.0,103249.0,33013.0,55057.0,31575.0,58350.0,21636.0,19321.0
2026-05-06 15:49:18.378627,399926,1609504821882825,2421795010,1.118496,-0.30256,0.183488,-12.29375,16.86125,-57.25125,-45.496002,-5.728,-84.96001,concentric,4,5.0,36292.0,46020.0,75044.0,103249.0,33013.0,55057.0,31575.0,58350.0,21636.0,19321.0
2026-05-06 15:49:18.412553,399937,1609504821897412,2421810171,1.155584,-0.245952,0.189344,-3.50875,10.57,-55.265,-45.728,-6.6,-84.008,eccentric,4,5.0,36133.0,46151.0,75351.0,103146.0,32888.0,55081.0,31701.0,58262.0,21531.0,19254.0
2026-05-06 15:49:18.414953,399938,1609504821906529,2421818924,1.155584,-0.245952,0.189344,-3.6225,5.25875,-52.3425,-45.728,-6.6,-84.008,eccentric,4,5.0,36133.0,46151.0,75351.0,103146.0,32888.0,55081.0,31701.0,58262.0,21531.0,19254.0
2026-05-06 15:49:18.417614,399939,1609504821915481,2421827673,1.15168,-0.236192,0.113216,-8.19,1.435,-47.8275,-46.256,-8.752001,-82.888,eccentric,4,5.0,36133.0,46151.0,75351.0,103146.0,32888.0,55081.0,31701.0,58262.0,21531.0,19254.0
2026-05-06 15:49:18.426433,399940,1609504821930018,2421842629,1.15168,-0.236192,0.113216,-11.57625,-1.98625,-43.88125,-46.256,-8.752001,-82.888,eccentric,4,5.0,36133.0,46151.0,75351.0,103146.0,32888.0,55081.0,31701.0,58262.0,21531.0,19254.0
2026-05-06 15:49:18.435152,399941,1609504821938935,2421851364,1.225856,-0.316224,0.179584,-13.79875,-5.31125,-40.25875,-46.160004,-9.192,-82.912,eccentric,4,5.0,36133.0,46151.0,75351.0,103146.0,32888.0,55081.0,31701.0,58262.0,21531.0,19254.0
2026-05-06 15:49:18.448839,399942,1609504821953441,2421864229,1.163392,-0.31232,0.150304,-17.7625,-6.93,-36.575,-46.160004,-9.192,-82.48,eccentric,4,5.0,36133.0,46151.0,75351.0,103146.0,32888.0,55081.0,31701.0,58262.0,21531.0,19254.0
2026-05-06 15:49:18.458908,399943,1609504821962674,2421875086,1.155584,-0.31232,0.150304,-20.5625,-8.68875,-32.62875,-46.104004,-9.608001,-82.48,eccentric,4,5.0,36133.0,46151.0,75351.0,103146.0,32888.0,55081.0,31701.0,58262.0,21531.0,19254.0
2026-05-06 15:49:18.486560,399944,1609504821971607,2421883807,1.155584,-0.31232,0.150304,-20.3,-10.84125,-28.1225,-46.104004,-9.608001,-82.48,eccentric,4,5.0,36133.0,46151.0,75351.0,103146.0,32888.0,55081.0,31701.0,58262.0,21531.0,19254.0
2026-05-06 15:49:18.520065,399955,1609504821986453,2421899214,1.136064,-0.25376,0.150304,-17.3075,-12.0225,-22.855,-46.016003,-8.448,-85.200005,eccentric,4,5.0,36622.0,46693.0,75829.0,103649.0,33340.0,55518.0,31925.0,58533.0,21688.0,19360.0
2026-05-06 15:49:18.523336,399956,1609504821995497,2421908012,1.08336,-0.28304,0.083936,-15.3825,-11.50625,-19.01375,-46.128002,-8.576,-85.8,eccentric,4,5.0,36622.0,46693.0,75829.0,103649.0,33340.0,55518.0,31925.0,58533.0,21688.0,19360.0
2026-05-06 15:49:18.526849,399957,1609504822009981,2421920929,1.08336,-0.28304,0.083936,-15.65375,-10.08875,-15.015,-46.128002,-8.576,-85.8,eccentric,4,5.0,36622.0,46693.0,75829.0,103649.0,33340.0,55518.0,31925.0,58533.0,21688.0,19360.0
2026-05-06 15:49:18.527553,399958,1609504822019371,2421931726,1.030656,-0.279136,0.109312,-16.31875,-8.505,-11.585,-45.904003,-9.464001,-84.336006,eccentric,4,5.0,36622.0,46693.0,75829.0,103649.0,33340.0,55518.0,31925.0,58533.0,21688.0,19360.0
2026-05-06 15:49:18.530483,399959,1609504822028368,2421940444,1.030656,-0.279136,0.109312,-16.9925,-6.72,-8.26875,-45.904003,-9.464001,-84.336006,eccentric,4,5.0,36622.0,46693.0,75829.0,103649.0,33340.0,55518.0,31925.0,58533.0,21688.0,19360.0
2026-05-06 15:49:18.558872,399960,1609504822042879,2421955503,0.976,-0.286944,0.085888,-14.5075,-4.45375,-4.47125,-45.824,-9.392,-84.272,eccentric,4,5.0,36622.0,46693.0,75829.0,103649.0,33340.0,55518.0,31925.0,58533.0,21688.0,19360.0
2026-05-06 15:49:18.583910,399961,1609504822051808,2421964216,0.976,-0.286944,0.085888,-10.92,-2.79125,-1.95125,-45.824,-9.392,-84.272,eccentric,4,5.0,36622.0,46693.0,75829.0,103649.0,33340.0,55518.0,31925.0,58533.0,21688.0,19360.0
2026-05-06 15:49:18.602690,399962,1609504822066318,2421977180,0.913536,-0.244,0.103456,-7.07875,-2.1875,-1.12875,-45.832,-8.552,-84.568,eccentric,4,5.0,36622.0,46693.0,75829.0,103649.0,33340.0,55518.0,31925.0,58533.0,21688.0,19360.0
2026-05-06 15:49:18.607670,399963,1609504822075640,2421987938,0.909632,-0.148352,0.042944,-2.47625,-1.98625,-1.61,-45.664,-9.080001,-83.04,eccentric,4,5.0,36622.0,46693.0,75829.0,103649.0,33340.0,55518.0,31925.0,58533.0,21688.0,19360.0
2026-05-06 15:49:18.634916,399974,1609504822090560,2422002922,0.909632,-0.148352,0.042944,-0.77875,-1.0675,-2.345,-45.664,-9.080001,-83.04,eccentric,4,5.0,37542.0,47807.0,76235.0,104198.0,34079.0,56446.0,32081.0,58718.0,22027.0,19730.0
2026-05-06 15:49:18.637588,399975,1609504822099534,2422011612,0.884256,-0.130784,0.005856,-1.28625,-0.56,-3.885,-45.728,-9.648001,-84.80801,eccentric,4,5.0,37542.0,47807.0,76235.0,104198.0,34079.0,56446.0,32081.0,58718.0,22027.0,19730.0
2026-05-06 15:49:18.640100,399976,1609504822108427,2422020321,0.884256,-0.130784,0.005856,-6.9825,1.32125,-5.57375,-45.728,-9.648001,-84.80801,eccentric,4,5.0,37542.0,47807.0,76235.0,104198.0,34079.0,56446.0,32081.0,58718.0,22027.0,19730.0
2026-05-06 15:49:18.642585,399977,1609504822122954,2422035407,0.833504,-0.197152,0.03904,-15.085,3.535,-8.785,-45.904003,-11.000001,-83.176,eccentric,4,5.0,37542.0,47807.0,76235.0,104198.0,34079.0,56446.0,32081.0,58718.0,22027.0,19730.0
2026-05-06 15:49:18.644872,399978,1609504822131904,2422044179,0.833504,-0.197152,0.03904,-16.84375,4.05125,-11.52375,-45.904003,-11.000001,-83.176,eccentric,4,5.0,37542.0,47807.0,76235.0,104198.0,34079.0,56446.0,32081.0,58718.0,22027.0,19730.0
2026-05-06 15:49:18.647605,399979,1609504822146505,2422057282,0.854976,-0.179584,0.066368,-12.55625,2.6075,-11.1475,-45.896004,-11.432,-83.384,eccentric,4,5.0,37542.0,47807.0,76235.0,104198.0,34079.0,56446.0,32081.0,58718.0,22027.0,19730.0
2026-05-06 15:49:18.651366,399980,1609504822155728,2422068055,0.892064,-0.122976,0.099552,-4.6025,0.84875,-11.1475,-45.872,-11.64,-84.16801,eccentric,4,5.0,37542.0,47807.0,76235.0,104198.0,34079.0,56446.0,32081.0,58718.0,22027.0,19730.0
2026-05-06 15:49:18.660002,399981,1609504822164653,2422076779,0.892064,-0.122976,0.099552,-0.98,-0.21875,-11.515,-45.872,-11.64,-84.16801,eccentric,4,5.0,37542.0,47807.0,76235.0,104198.0,34079.0,56446.0,32081.0,58718.0,22027.0,19730.0
2026-05-06 15:49:18.673685,399982,1609504822179164,2422091693,0.890112,-0.124928,0.025376,-2.3625,0.65625,-11.83,-46.152,-11.504001,-82.96001,eccentric,4,5.0,37542.0,47807.0,76235.0,104198.0,34079.0,56446.0,32081.0,58718.0,22027.0,19730.0
2026-05-06 15:49:18.715052,399993,1609504822188703,2422100509,0.890112,-0.124928,0.025376,-5.215,1.9775,-13.25625,-46.152,-11.504001,-82.96001,eccentric,4,5.0,38013.0,48146.0,76330.0,104603.0,34397.0,56761.0,32118.0,58907.0,22213.0,19816.0
2026-05-06 15:49:18.722695,399994,1609504822203309,2422115561,0.950624,-0.130784,0.089792,-9.17,2.87,-14.5075,-45.88,-13.872001,-81.75201,eccentric,4,5.0,38013.0,48146.0,76330.0,104603.0,34397.0,56761.0,32118.0,58907.0,22213.0,19816.0
2026-05-06 15:49:18.723637,399995,1609504822212301,2422124260,0.950624,-0.130784,0.089792,-10.465,3.14125,-14.2275,-45.88,-13.872001,-81.75201,eccentric,4,5.0,38013.0,48146.0,76330.0,104603.0,34397.0,56761.0,32118.0,58907.0,22213.0,19816.0
2026-05-06 15:49:18.726430,399996,1609504822221351,2422132981,0.950624,-0.113216,0.121024,-6.8775,3.64,-12.8625,-45.920002,-14.048,-81.992004,eccentric,4,5.0,38013.0,48146.0,76330.0,104603.0,34397.0,56761.0,32118.0,58907.0,22213.0,19816.0
2026-05-06 15:49:18.730079,399997,1609504822235918,2422147956,0.98576,-0.181536,0.158112,0.0175,3.61375,-9.9575,-45.920002,-10.864,-84.16,eccentric,4,5.0,38013.0,48146.0,76330.0,104603.0,34397.0,56761.0,32118.0,58907.0,22213.0,19816.0
2026-05-06 15:49:18.743840,399998,1609504822244847,2422156729,0.98576,-0.181536,0.158112,3.885,4.03375,-7.7175,-45.656002,-10.864,-84.16,eccentric,4,5.0,38013.0,48146.0,76330.0,104603.0,34397.0,56761.0,32118.0,58907.0,22213.0,19816.0
2026-05-06 15:49:18.757676,399999,1609504822259373,2422171644,1.04432,-0.183488,0.122976,-2.8,6.23875,-4.87375,-45.88,-11.256001,-82.73601,eccentric,4,5.0,38013.0,48146.0,76330.0,104603.0,34397.0,56761.0,32118.0,58907.0,22213.0,19816.0
2026-05-06 15:49:18.764021,400000,1609504822268316,2422180371,1.04432,-0.183488,0.122976,-11.89125,9.70375,-2.24875,-45.88,-11.256001,-82.73601,eccentric,4,5.0,38013.0,48146.0,76330.0,104603.0,34397.0,56761.0,32118.0,58907.0,22213.0,19816.0
2026-05-06 15:49:18.777761,400001,1609504822282805,2422195376,1.0736,-0.124928,0.089792,-12.6525,12.01375,-0.62125,-45.760002,-12.440001,-82.69601,eccentric,4,5.0,38013.0,48146.0,76330.0,104603.0,34397.0,56761.0,32118.0,58907.0,22213.0,19816.0
2026-05-06 15:49:18.808679,400012,1609504822291918,2422204137,1.0736,-0.124928,0.089792,-3.56125,12.0575,3.01875,-45.760002,-12.440001,-82.69601,eccentric,4,5.0,38460.0,48480.0,76490.0,105348.0,34771.0,57138.0,32202.0,59327.0,22367.0,19962.0
2026-05-06 15:49:18.815670,400013,1609504822300989,2422212909,1.116544,-0.193248,0.193248,7.65625,11.2875,6.615,-46.296,-12.240001,-82.344,eccentric,4,5.0,38460.0,48480.0,76490.0,105348.0,34771.0,57138.0,32202.0,59327.0,22367.0,19962.0
2026-05-06 15:49:18.819946,400014,1609504822315497,2422227963,1.116544,-0.193248,0.193248,9.3275,12.8275,11.40125,-46.296,-12.240001,-82.344,eccentric,4,5.0,38460.0,48480.0,76490.0,105348.0,34771.0,57138.0,32202.0,59327.0,22367.0,19962.0
2026-05-06 15:49:18.822558,400015,1609504822324415,2422236685,1.108736,-0.269376,0.218624,-0.175,15.82875,16.7125,-46.048,-11.864,-82.032005,eccentric,4,5.0,38460.0,48480.0,76490.0,105348.0,34771.0,57138.0,32202.0,59327.0,22367.0,19962.0
2026-05-06 15:49:18.836352,400016,1609504822339014,2422251733,1.100928,-0.216672,0.20496,-9.905,17.9025,19.97625,-46.312004,-9.8,-82.944,eccentric,4,5.0,38460.0,48480.0,76490.0,105348.0,34771.0,57138.0,32202.0,59327.0,22367.0,19962.0
2026-05-06 15:49:18.845081,400017,1609504822347956,2422260516,1.100928,-0.216672,0.20496,-11.9875,18.27,21.8925,-46.312004,-9.8,-82.944,eccentric,4,5.0,38460.0,48480.0,76490.0,105348.0,34771.0,57138.0,32202.0,59327.0,22367.0,19962.0
2026-05-06 15:49:18.853997,400018,1609504822357005,2422269236,1.153632,-0.1952,0.160064,-5.425,18.235,25.585001,-46.208004,-9.784,-81.704,eccentric,4,5.0,38460.0,48480.0,76490.0,105348.0,34771.0,57138.0,32202.0,59327.0,22367.0,19962.0
2026-05-06 15:49:18.867725,400019,1609504822371534,2422284239,1.153632,-0.1952,0.160064,3.2025,17.15,27.30875,-46.208004,-9.784,-81.704,eccentric,4,5.0,38460.0,48480.0,76490.0,105348.0,34771.0,57138.0,32202.0,59327.0,22367.0,19962.0
2026-05-06 15:49:18.876537,400020,1609504822380489,2422292940,1.106784,-0.255712,0.085888,7.88375,13.39625,25.803751,-46.064003,-9.336,-82.704,eccentric,4,5.0,38460.0,48480.0,76490.0,105348.0,34771.0,57138.0,32202.0,59327.0,22367.0,19962.0
2026-05-06 15:49:18.972746,400031,1609504822395140,2422306096,1.106784,-0.255712,0.085888,8.77625,10.0275,24.99,-46.064003,-9.336,-82.704,eccentric,4,5.0,38893.0,48631.0,76590.0,105542.0,35056.0,57302.0,32236.0,59446.0,22527.0,20043.0
2026-05-06 15:49:18.975151,400032,1609504822404645,2422316919,1.098976,-0.279136,0.193248,5.4425,8.05875,26.53,-46.152,-9.096001,-82.248,eccentric,4,5.0,38893.0,48631.0,76590.0,105542.0,35056.0,57302.0,32236.0,59446.0,22527.0,20043.0
2026-05-06 15:49:18.977701,400033,1609504822413589,2422325633,1.098976,-0.279136,0.193248,-1.98625,6.50125,27.2125,-46.152,-9.096001,-82.248,eccentric,4,5.0,38893.0,48631.0,76590.0,105542.0,35056.0,57302.0,32236.0,59446.0,22527.0,20043.0
2026-05-06 15:49:18.980195,400034,1609504822428186,2422340669,1.046272,-0.220576,0.197152,-9.135,6.29125,26.9325,-45.800003,-8.872001,-82.192,eccentric,4,5.0,38893.0,48631.0,76590.0,105542.0,35056.0,57302.0,32236.0,59446.0,22527.0,20043.0
2026-05-06 15:49:18.982717,400035,1609504822437183,2422349368,1.079456,-0.210816,0.0976,-13.7025,6.51875,26.285,-45.800003,-8.872001,-82.272,eccentric,4,5.0,38893.0,48631.0,76590.0,105542.0,35056.0,57302.0,32236.0,59446.0,22527.0,20043.0
2026-05-06 15:49:18.985219,400036,1609504822451671,2422364265,1.079456,-0.210816,0.0976,-7.315,4.80375,24.928751,-45.936,-8.328,-82.272,eccentric,4,5.0,38893.0,48631.0,76590.0,105542.0,35056.0,57302.0,32236.0,59446.0,22527.0,20043.0
2026-05-06 15:49:18.987684,400037,1609504822460624,2422372945,0.993568,-0.286944,0.128832,1.86375,1.4525,24.1675,-45.456,-8.088,-82.16,eccentric,4,5.0,38893.0,48631.0,76590.0,105542.0,35056.0,57302.0,32236.0,59446.0,22527.0,20043.0
2026-05-06 15:49:18.993553,400038,1609504822475143,2422387877,0.993568,-0.286944,0.128832,0.8225,-1.47,18.6725,-45.456,-8.088,-82.16,eccentric,4,5.0,38893.0,48631.0,76590.0,105542.0,35056.0,57302.0,32236.0,59446.0,22527.0,20043.0
2026-05-06 15:49:18.993947,400039,1609504822484038,2422396597,1.013088,-0.318176,0.249856,3.64,-3.70125,15.627501,-45.464,-7.84,-82.208,eccentric,4,5.0,38893.0,48631.0,76590.0,105542.0,35056.0,57302.0,32236.0,59446.0,22527.0,20043.0
2026-05-06 15:49:19.023830,400050,1609504822493187,2422405375,1.013088,-0.318176,0.249856,-0.0525,-5.1975,18.64625,-45.464,-7.84,-82.208,eccentric,4,5.0,38988.0,48855.0,76663.0,105528.0,35133.0,57528.0,32278.0,59429.0,22548.0,20159.0
2026-05-06 15:49:19.026466,400051,1609504822508055,2422420506,1.007232,-0.203008,0.230336,-4.6025,-4.22625,22.8025,-45.064003,-9.824,-80.07201,eccentric,4,5.0,38988.0,48855.0,76663.0,105528.0,35133.0,57528.0,32278.0,59429.0,22548.0,20159.0
2026-05-06 15:49:19.028798,400052,1609504822517056,2422429262,1.007232,-0.203008,0.230336,-8.16375,-2.30125,22.3825,-45.064003,-9.824,-80.07201,eccentric,4,5.0,38988.0,48855.0,76663.0,105528.0,35133.0,57528.0,32278.0,59429.0,22548.0,20159.0
2026-05-06 15:49:19.031514,400053,1609504822531646,2422444235,0.999424,-0.113216,0.191296,-5.13625,-1.8725,18.6025,-44.984,-11.080001,-80.520004,eccentric,4,5.0,38988.0,48855.0,76663.0,105528.0,35133.0,57528.0,32278.0,59429.0,22548.0,20159.0
2026-05-06 15:49:19.037631,400054,1609504822540601,2422452951,1.087264,-0.255712,0.173728,-3.31625,-3.59625,11.3575,-44.552002,-7.936,-82.52801,eccentric,4,5.0,38988.0,48855.0,76663.0,105528.0,35133.0,57528.0,32278.0,59429.0,22548.0,20159.0
2026-05-06 15:49:19.046552,400055,1609504822549497,2422461728,1.087264,-0.255712,0.173728,-5.24125,-3.535,7.72625,-44.552002,-7.936,-82.52801,eccentric,4,5.0,38988.0,48855.0,76663.0,105528.0,35133.0,57528.0,32278.0,59429.0,22548.0,20159.0
2026-05-06 15:49:19.060236,400056,1609504822564001,2422476671,1.0248,-0.337696,0.308416,-7.72625,-2.275,5.90625,-44.432003,-7.968,-82.48,eccentric,4,5.0,38988.0,48855.0,76663.0,105528.0,35133.0,57528.0,32278.0,59429.0,22548.0,20159.0
2026-05-06 15:49:19.068992,400057,1609504822572945,2422485435,1.0248,-0.337696,0.308416,-3.9025,-0.0175,8.785,-44.432003,-7.968,-82.48,eccentric,4,5.0,38988.0,48855.0,76663.0,105528.0,35133.0,57528.0,32278.0,59429.0,22548.0,20159.0
2026-05-06 15:49:19.082716,400058,1609504822587490,2422498303,0.938912,-0.244,0.28304,3.4475,1.40875,12.6175,-43.872,-7.864,-81.272,eccentric,4,5.0,38988.0,48855.0,76663.0,105528.0,35133.0,57528.0,32278.0,59429.0,22548.0,20159.0
2026-05-06 15:49:19.137611,400069,1609504822596773,2422509125,0.938912,-0.244,0.28304,10.9025,2.1525,10.75375,-43.872,-7.864,-81.272,eccentric,4,5.0,39145.0,48547.0,76637.0,105575.0,35223.0,57286.0,32277.0,59503.0,22586.0,20061.0
2026-05-06 15:49:19.140014,400070,1609504822605740,2422517860,0.989664,-0.173728,0.105408,28.4375,0.98875,8.1025,-44.032,-9.080001,-81.01601,eccentric,4,5.0,39145.0,48547.0,76637.0,105575.0,35223.0,57286.0,32277.0,59503.0,22586.0,20061.0
2026-05-06 15:49:19.142732,400071,1609504822620221,2422532818,1.098976,-0.17568,0.101504,48.615,-0.14,7.945,-43.736004,-7.208,-83.184006,eccentric,4,5.0,39145.0,48547.0,76637.0,105575.0,35223.0,57286.0,32277.0,59503.0,22586.0,20061.0
2026-05-06 15:49:19.148987,400072,1609504822629117,2422541516,1.098976,-0.17568,0.101504,54.670002,-1.86375,5.22375,-43.736004,-7.208,-83.184006,eccentric,4,5.0,39145.0,48547.0,76637.0,105575.0,35223.0,57286.0,32277.0,59503.0,22586.0,20061.0
2026-05-06 15:49:19.151543,400073,1609504822643669,2422556415,0.925248,-0.0976,0.271328,40.013752,-2.23125,-0.74375,-43.640003,-7.296001,-82.008,eccentric,4,5.0,39145.0,48547.0,76637.0,105575.0,35223.0,57286.0,32277.0,59503.0,22586.0,20061.0
2026-05-06 15:49:19.153953,400074,1609504822652614,2422565153,0.925248,-0.0976,0.271328,18.64625,0.385,-4.59375,-43.640003,-7.296001,-82.008,eccentric,4,5.0,39145.0,48547.0,76637.0,105575.0,35223.0,57286.0,32277.0,59503.0,22586.0,20061.0
2026-05-06 15:49:19.160230,400075,1609504822667162,2422578067,0.808128,-0.072224,0.210816,1.61875,0.65625,-5.53,-43.288002,-9.456,-80.4,eccentric,4,5.0,39145.0,48547.0,76637.0,105575.0,35223.0,57286.0,32277.0,59503.0,22586.0,20061.0
2026-05-06 15:49:19.174778,400076,1609504822676560,2422588903,0.808128,-0.072224,0.210816,-9.40625,-1.2775,-8.88125,-43.288002,-9.456,-80.4,eccentric,4,5.0,39145.0,48547.0,76637.0,105575.0,35223.0,57286.0,32277.0,59503.0,22586.0,20061.0
2026-05-06 15:49:19.183056,400077,1609504822685495,2422597660,0.895968,-0.132736,0.070272,-8.00625,-5.29375,-13.46625,-43.224003,-9.568001,-83.22401,eccentric,4,5.0,39145.0,48547.0,76637.0,105575.0,35223.0,57286.0,32277.0,59503.0,22586.0,20061.0
2026-05-06 15:49:19.213963,400088,1609504822700035,2422612753,0.952576,-0.242048,0.30256,4.9,-7.875,-15.75,-43.136,-11.896001,-80.824005,eccentric,4,5.0,39285.0,48944.0,76629.0,105693.0,35360.0,57565.0,32257.0,59498.0,22676.0,20198.0
2026-05-06 15:49:19.216534,400089,1609504822709074,2422621537,0.952576,-0.242048,0.30256,8.505,-7.37625,-21.97125,-43.136,-11.896001,-80.824005,eccentric,4,5.0,39285.0,48944.0,76629.0,105693.0,35360.0,57565.0,32257.0,59498.0,22676.0,20198.0
2026-05-06 15:49:19.218983,400090,1609504822723720,2422634487,0.733952,-0.160064,0.300608,1.72375,-1.96,-28.70875,-42.832,-12.664001,-80.52801,eccentric,4,5.0,39285.0,48944.0,76629.0,105693.0,35360.0,57565.0,32257.0,59498.0,22676.0,20198.0
2026-05-06 15:49:19.228727,400091,1609504822732963,2422645299,0.733952,-0.160064,0.300608,2.8175,-1.16375,-26.52125,-42.832,-12.664001,-80.52801,eccentric,4,5.0,39285.0,48944.0,76629.0,105693.0,35360.0,57565.0,32257.0,59498.0,22676.0,20198.0
2026-05-06 15:49:19.237651,400092,1609504822741917,2422654005,0.798368,-0.081984,0.222528,7.39375,-3.80625,-21.02625,-42.472,-9.440001,-82.08,eccentric,4,5.0,39285.0,48944.0,76629.0,105693.0,35360.0,57565.0,32257.0,59498.0,22676.0,20198.0
2026-05-06 15:49:19.280126,400093,1609504822756443,2422668964,0.798368,-0.081984,0.222528,9.80875,-6.95625,-21.5075,-42.472,-9.440001,-82.08,eccentric,4,5.0,39285.0,48944.0,76629.0,105693.0,35360.0,57565.0,32257.0,59498.0,22676.0,20198.0
2026-05-06 15:49:19.305097,400094,1609504822765424,2422677695,0.899872,-0.105408,0.16592,15.4,-8.39125,-24.26375,-42.4,-10.016001,-82.096,eccentric,4,5.0,39285.0,48944.0,76629.0,105693.0,35360.0,57565.0,32257.0,59498.0,22676.0,20198.0
2026-05-06 15:49:19.330285,400095,1609504822779894,2422692590,0.88816,-0.18544,0.187392,23.8875,-8.70625,-28.83125,-42.4,-10.336,-81.75201,eccentric,4,5.0,39285.0,48944.0,76629.0,105693.0,35360.0,57565.0,32257.0,59498.0,22676.0,20198.0
2026-05-06 15:49:19.346597,400096,1609504822788813,2422701323,0.88816,-0.18544,0.187392,20.72875,-6.6675,-35.945,-42.032,-10.336,-81.75201,eccentric,4,5.0,39285.0,48944.0,76629.0,105693.0,35360.0,57565.0,32257.0,59498.0,22676.0,20198.0
2026-05-06 15:49:19.377292,400107,1609504822803414,2422714209,0.737856,-0.033184,0.242048,12.43375,-2.7825,-38.0975,-41.624,-10.712001,-82.344,eccentric,4,5.0,39071.0,48914.0,76319.0,105733.0,35156.0,57470.0,32097.0,59474.0,22600.0,20170.0
2026-05-06 15:49:19.380080,400108,1609504822812685,2422725063,0.737856,-0.033184,0.242048,11.80375,-1.1725,-32.655,-41.624,-10.712001,-82.344,eccentric,4,5.0,39071.0,48914.0,76319.0,105733.0,35156.0,57470.0,32097.0,59474.0,22600.0,20170.0
2026-05-06 15:49:19.382527,400109,1609504822821600,2422733769,0.747616,0.052704,0.162016,8.30375,-1.60125,-30.86125,-41.576,-11.480001,-82.144005,eccentric,4,5.0,39071.0,48914.0,76319.0,105733.0,35156.0,57470.0,32097.0,59474.0,22600.0,20170.0
2026-05-06 15:49:19.385046,400110,1609504822836106,2422748683,0.747616,0.052704,0.162016,7.1575,-5.11875,-37.485,-41.576,-11.480001,-82.144005,eccentric,4,5.0,39071.0,48914.0,76319.0,105733.0,35156.0,57470.0,32097.0,59474.0,22600.0,20170.0
2026-05-06 15:49:19.387561,400111,1609504822845179,2422757388,0.843264,-0.115168,0.251808,9.5025,-8.18125,-43.93375,-40.848003,-12.240001,-82.11201,eccentric,4,5.0,39071.0,48914.0,76319.0,105733.0,35156.0,57470.0,32097.0,59474.0,22600.0,20170.0
2026-05-06 15:49:19.390133,400112,1609504822859755,2422772422,0.843264,-0.115168,0.251808,11.97,-9.345,-51.24875,-40.848003,-12.240001,-82.11201,eccentric,4,5.0,39071.0,48914.0,76319.0,105733.0,35156.0,57470.0,32097.0,59474.0,22600.0,20170.0
2026-05-06 15:49:19.392639,400113,1609504822868851,2422781199,0.77104,-0.30256,0.36112,9.45,-6.83375,-51.98375,-41.088,-12.888001,-82.064,eccentric,4,5.0,39071.0,48914.0,76319.0,105733.0,35156.0,57470.0,32097.0,59474.0,22600.0,20170.0
2026-05-06 15:49:19.395043,400114,1609504822877924,2422789955,0.77104,-0.30256,0.36112,6.16,-4.0775,-48.6675,-41.088,-12.888001,-82.064,eccentric,4,5.0,39071.0,48914.0,76319.0,105733.0,35156.0,57470.0,32097.0,59474.0,22600.0,20170.0
2026-05-06 15:49:19.422630,400125,1609504822892975,2422805058,0.657824,-0.12688,0.220576,10.8675,-3.185,-44.66,-40.672,-16.872002,-80.568,eccentric,4,5.0,38545.0,48362.0,75790.0,105855.0,34747.0,57007.0,31850.0,59607.0,22410.0,19975.0
2026-05-06 15:49:19.425216,400126,1609504822902032,2422813850,0.778848,0.0488,0.103456,29.79375,-6.65,-43.77625,-40.352,-15.488001,-81.880005,eccentric,4,5.0,38545.0,48362.0,75790.0,105855.0,34747.0,57007.0,31850.0,59607.0,22410.0,19975.0
2026-05-06 15:49:19.427749,400127,1609504822916578,2422828831,0.778848,0.0488,0.103456,50.513752,-11.20875,-50.26,-40.352,-15.488001,-81.880005,eccentric,4,5.0,38545.0,48362.0,75790.0,105855.0,34747.0,57007.0,31850.0,59607.0,22410.0,19975.0
2026-05-06 15:49:19.430250,400128,1609504822925629,2422837572,0.905728,-0.033184,0.17568,66.7975,-12.15375,-57.4,-40.016003,-16.416,-81.240005,eccentric,4,5.0,38545.0,48362.0,75790.0,105855.0,34747.0,57007.0,31850.0,59607.0,22410.0,19975.0
2026-05-06 15:49:19.432702,400129,1609504822934622,2422846329,0.905728,-0.033184,0.17568,68.67,-7.39375,-62.65,-40.016003,-16.416,-81.240005,eccentric,4,5.0,38545.0,48362.0,75790.0,105855.0,34747.0,57007.0,31850.0,59607.0,22410.0,19975.0
2026-05-06 15:49:19.445195,400130,1609504822949210,2422861372,0.5856,-0.027328,0.281088,44.80875,0.65625,-67.47125,-39.800003,-16.728,-81.75201,eccentric,4,5.0,38545.0,48362.0,75790.0,105855.0,34747.0,57007.0,31850.0,59607.0,22410.0,19975.0
2026-05-06 15:49:19.454683,400131,1609504822958149,2422870125,0.5856,-0.027328,0.281088,18.2175,6.43125,-71.19,-39.800003,-16.728,-81.75201,eccentric,4,5.0,38545.0,48362.0,75790.0,105855.0,34747.0,57007.0,31850.0,59607.0,22410.0,19975.0
2026-05-06 15:49:19.487605,400132,1609504822972659,2422885083,0.509472,0.0976,0.197152,8.42625,5.775,-70.14,-39.192,-16.304,-82.54401,eccentric,4,5.0,38545.0,48362.0,75790.0,105855.0,34747.0,57007.0,31850.0,59607.0,22410.0,19975.0
2026-05-06 15:49:19.490113,400133,1609504822981602,2422893789,0.661728,0.023424,0.148352,14.56875,3.49125,-67.2,-39.120003,-16.568,-82.592,eccentric,4,5.0,38545.0,48362.0,75790.0,105855.0,34747.0,57007.0,31850.0,59607.0,22410.0,19975.0
2026-05-06 15:49:19.523920,400144,1609504822996425,2422908842,0.661728,0.023424,0.148352,28.04375,1.8725,-67.26125,-39.120003,-16.568,-82.592,eccentric,4,5.0,38514.0,48438.0,75729.0,105907.0,34685.0,57062.0,31887.0,59604.0,22300.0,19964.0
2026-05-06 15:49:19.526582,400145,1609504823005711,2422917619,0.66368,-0.101504,0.279136,34.25625,2.975,-68.425,-39.216003,-17.616001,-82.512,eccentric,4,5.0,38514.0,48438.0,75729.0,105907.0,34685.0,57062.0,31887.0,59604.0,22300.0,19964.0
2026-05-06 15:49:19.532693,400146,1609504823014753,2422926372,0.66368,-0.101504,0.279136,29.067501,6.09,-66.465004,-39.216003,-17.616001,-82.512,eccentric,4,5.0,38514.0,48438.0,75729.0,105907.0,34685.0,57062.0,31887.0,59604.0,22300.0,19964.0
2026-05-06 15:49:19.535229,400147,1609504823029319,2422941303,0.550464,-0.046848,0.095648,14.1225,8.35625,-60.541252,-38.72,-18.536001,-82.336006,eccentric,4,5.0,38514.0,48438.0,75729.0,105907.0,34685.0,57062.0,31887.0,59604.0,22300.0,19964.0
2026-05-06 15:49:19.537755,400148,1609504823038592,2422950102,0.550464,-0.046848,0.095648,0.2625,7.0525,-55.055,-38.72,-18.536001,-82.336006,eccentric,4,5.0,38514.0,48438.0,75729.0,105907.0,34685.0,57062.0,31887.0,59604.0,22300.0,19964.0
2026-05-06 15:49:19.541590,400149,1609504823047659,2422958824,0.648064,0.023424,-0.031232,-6.195,3.395,-50.3475,-38.472,-19.352001,-82.200005,eccentric,4,5.0,38514.0,48438.0,75729.0,105907.0,34685.0,57062.0,31887.0,59604.0,22300.0,19964.0
2026-05-06 15:49:19.561209,400150,1609504823062566,2422973794,0.6832,-0.025376,0.122976,2.6075,-0.1225,-43.4175,-38.56,-19.248001,-82.504005,eccentric,4,5.0,38514.0,48438.0,75729.0,105907.0,34685.0,57062.0,31887.0,59604.0,22300.0,19964.0
2026-05-06 15:49:19.567631,400151,1609504823071544,2422982509,0.6832,-0.025376,0.122976,11.6375,-3.64,-42.385,-38.56,-19.248001,-82.504005,eccentric,4,5.0,38514.0,48438.0,75729.0,105907.0,34685.0,57062.0,31887.0,59604.0,22300.0,19964.0
2026-05-06 15:49:19.582678,400152,1609504823086507,2422997550,0.67344,-0.154208,0.232288,9.87,-5.32,-39.0775,-37.968002,-19.624,-82.496,eccentric,4,5.0,38514.0,48438.0,75729.0,105907.0,34685.0,57062.0,31887.0,59604.0,22300.0,19964.0
2026-05-06 15:49:19.613988,400163,1609504823096293,2423008403,0.67344,-0.154208,0.232288,6.60625,-6.64125,-29.925,-37.968002,-19.624,-82.496,eccentric,4,5.0,39239.0,49286.0,76340.0,106167.0,35201.0,57776.0,32213.0,59755.0,22541.0,20223.0
2026-05-06 15:49:19.616592,400164,1609504823105292,2423017184,0.79056,-0.111264,0.199104,3.3425,-8.7325,-19.57375,-38.120003,-21.232,-81.520004,eccentric,4,5.0,39239.0,49286.0,76340.0,106167.0,35201.0,57776.0,32213.0,59755.0,22541.0,20223.0
2026-05-06 15:49:19.619004,400165,1609504823119968,2423032153,0.79056,-0.111264,0.199104,4.47125,-9.96625,-9.0125,-38.120003,-21.232,-81.520004,eccentric,4,5.0,39239.0,49286.0,76340.0,106167.0,35201.0,57776.0,32213.0,59755.0,22541.0,20223.0
2026-05-06 15:49:19.625220,400166,1609504823129037,2423040902,0.743712,0.081984,0.183488,3.17625,-10.15,-7.35875,-38.2,-20.952002,-81.52801,eccentric,4,5.0,39239.0,49286.0,76340.0,106167.0,35201.0,57776.0,32213.0,59755.0,22541.0,20223.0
2026-05-06 15:49:19.634000,400167,1609504823138019,2423049625,0.743712,0.081984,0.183488,5.53,-9.905,-7.55125,-38.2,-20.952002,-81.52801,eccentric,4,5.0,39239.0,49286.0,76340.0,106167.0,35201.0,57776.0,32213.0,59755.0,22541.0,20223.0
2026-05-06 15:49:19.662407,400168,1609504823152537,2423064547,0.802272,0.033184,0.130784,4.83,-10.52625,-8.07625,-37.84,-19.896002,-82.552,eccentric,4,5.0,39239.0,49286.0,76340.0,106167.0,35201.0,57776.0,32213.0,59755.0,22541.0,20223.0
2026-05-06 15:49:19.687626,400169,1609504823161554,2423073326,0.802272,0.033184,0.130784,0.60375,-10.36875,-9.33625,-37.84,-19.896002,-82.552,eccentric,4,5.0,39239.0,49286.0,76340.0,106167.0,35201.0,57776.0,32213.0,59755.0,22541.0,20223.0
