pc_time,serial_num,sensor_ts,host_ts,ax,ay,az,gx,gy,gz,mx,my,mz,phase,rpe,weight_kg,ppg_a,ppg_b,ppg_c,ppg_d,ppg_e,ppg_f,ppg_g,ppg_h,ppg_i,ppg_j
2026-05-06 15:49:22.543119,400715,1609504826041781,2425954372,0.886208,0.02928,0.0976,-4.19125,2.35375,-11.22625,-37.584003,-20.816002,-83.200005,concentric,4,5.0,36916.0,47464.0,75016.0,104605.0,33290.0,55788.0,31588.0,58617.0,21627.0,19421.0
2026-05-06 15:49:22.545087,400716,1609504826050879,2425963156,0.8784,0.011712,0.02928,-6.95625,1.96875,-8.37375,-37.128002,-20.808,-83.296005,concentric,4,5.0,36916.0,47464.0,75016.0,104605.0,33290.0,55788.0,31588.0,58617.0,21627.0,19421.0
2026-05-06 15:49:22.555199,400717,1609504826059867,2425971871,0.8784,0.011712,0.02928,-7.2625,0.6125,-6.29125,-37.128002,-20.808,-83.296005,concentric,4,5.0,36916.0,47464.0,75016.0,104605.0,33290.0,55788.0,31588.0,58617.0,21627.0,19421.0
2026-05-06 15:49:22.594995,400718,1609504826074363,2425986786,0.91744,-0.025376,0.03904,-1.6975,-1.4525,-2.835,-37.04,-21.192001,-83.152,concentric,4,5.0,36916.0,47464.0,75016.0,104605.0,33290.0,55788.0,31588.0,58617.0,21627.0,19421.0
2026-05-06 15:49:22.620207,400719,1609504826083293,2425995544,0.91744,-0.025376,0.03904,4.10375,-2.87875,-0.62125,-37.04,-21.192001,-83.152,concentric,4,5.0,36916.0,47464.0,75016.0,104605.0,33290.0,55788.0,31588.0,58617.0,21627.0,19421.0
2026-05-06 15:49:22.645235,400720,1609504826097806,2426010555,0.890112,0.031232,0.122976,6.195,-3.045,1.89875,-36.992,-20.992,-82.464005,concentric,4,5.0,36916.0,47464.0,75016.0,104605.0,33290.0,55788.0,31588.0,58617.0,21627.0,19421.0
2026-05-06 15:49:22.653994,400721,1609504826106764,2426019260,0.890112,0.052704,0.109312,5.145,-2.73,4.01625,-37.184002,-21.056002,-83.560005,concentric,4,5.0,36916.0,47464.0,75016.0,104605.0,33290.0,55788.0,31588.0,58617.0,21627.0,19421.0
2026-05-06 15:49:22.681375,400732,1609504826121346,2426032761,0.890112,0.052704,0.109312,-0.49875,-2.28375,4.865,-37.184002,-21.056002,-83.560005,concentric,4,5.0,36576.0,46817.0,74904.0,104516.0,33019.0,55421.0,31553.0,58615.0,21530.0,19288.0
2026-05-06 15:49:22.686438,400733,1609504826130259,2426041534,0.88816,0.027328,0.115168,-4.795,-1.93375,4.96125,-36.84,-21.152,-83.568,concentric,4,5.0,36576.0,46817.0,74904.0,104516.0,33019.0,55421.0,31553.0,58615.0,21530.0,19288.0
2026-05-06 15:49:22.692756,400734,1609504826139161,2426050282,0.88816,0.027328,0.115168,-1.53125,-2.51125,4.54125,-36.84,-21.152,-83.568,concentric,4,5.0,36576.0,46817.0,74904.0,104516.0,33019.0,55421.0,31553.0,58615.0,21530.0,19288.0
2026-05-06 15:49:22.694851,400735,1609504826154181,2426065230,0.91744,0.050752,0.095648,4.55,-3.00125,3.70125,-37.192,-20.152,-83.624,concentric,4,5.0,36576.0,46817.0,74904.0,104516.0,33019.0,55421.0,31553.0,58615.0,21530.0,19288.0
2026-05-06 15:49:22.697576,400736,1609504826163523,2426076038,0.91744,0.050752,0.095648,7.385,-2.59875,2.40625,-37.192,-20.152,-83.624,concentric,4,5.0,36576.0,46817.0,74904.0,104516.0,33019.0,55421.0,31553.0,58615.0,21530.0,19288.0
2026-05-06 15:49:22.699801,400737,1609504826172709,2426084898,0.921344,0.044896,0.138592,6.37,-1.89,1.65375,-36.976,-20.216002,-83.11201,concentric,4,5.0,36576.0,46817.0,74904.0,104516.0,33019.0,55421.0,31553.0,58615.0,21530.0,19288.0
2026-05-06 15:49:22.702424,400738,1609504826187201,2426099910,0.915488,0.01952,0.158112,2.135,-1.09375,2.625,-37.224003,-20.76,-83.80801,concentric,4,5.0,36576.0,46817.0,74904.0,104516.0,33019.0,55421.0,31553.0,58615.0,21530.0,19288.0
2026-05-06 15:49:22.704989,400739,1609504826196243,2426108668,0.915488,0.01952,0.158112,-2.8175,-0.28875,2.93125,-37.224003,-20.76,-83.80801,concentric,4,5.0,36576.0,46817.0,74904.0,104516.0,33019.0,55421.0,31553.0,58615.0,21530.0,19288.0
2026-05-06 15:49:22.707327,400740,1609504826210760,2426121659,0.901824,0.0488,0.105408,-3.40375,0.35,2.12625,-37.624,-23.744001,-81.568,concentric,4,5.0,36576.0,46817.0,74904.0,104516.0,33019.0,55421.0,31553.0,58615.0,21530.0,19288.0
2026-05-06 15:49:22.735198,400751,1609504826220349,2426132570,0.901824,0.0488,0.105408,-0.21875,-0.56875,1.61,-37.624,-23.744001,-81.568,concentric,4,5.0,36611.0,46780.0,74878.0,104728.0,33021.0,55364.0,31582.0,58762.0,21525.0,19287.0
2026-05-06 15:49:22.737740,400752,1609504826229320,2426141286,0.88816,0.08784,0.040992,3.36,-1.5925,0.93625,-37.52,-23.488,-81.704,concentric,4,5.0,36611.0,46780.0,74878.0,104728.0,33021.0,55364.0,31582.0,58762.0,21525.0,19287.0
2026-05-06 15:49:22.740223,400753,1609504826244037,2426156243,0.88816,0.08784,0.040992,4.13875,-1.47875,-0.4725,-37.52,-23.488,-81.704,concentric,4,5.0,36611.0,46780.0,74878.0,104728.0,33021.0,55364.0,31582.0,58762.0,21525.0,19287.0
2026-05-06 15:49:22.748999,400754,1609504826253019,2426164949,0.876448,0.089792,0.12688,3.19375,-0.74375,-1.54,-37.168003,-21.824001,-83.44,concentric,4,5.0,36611.0,46780.0,74878.0,104728.0,33021.0,55364.0,31582.0,58762.0,21525.0,19287.0
2026-05-06 15:49:22.762644,400755,1609504826267551,2426179922,0.862784,0.05856,0.171776,-1.09375,0.1925,-1.25125,-36.824,-20.784,-83.144005,concentric,4,5.0,36611.0,46780.0,74878.0,104728.0,33021.0,55364.0,31582.0,58762.0,21525.0,19287.0
2026-05-06 15:49:22.776082,400756,1609504826276505,2426188674,0.862784,0.05856,0.171776,-6.53625,0.95375,-1.085,-36.824,-20.784,-83.144005,concentric,4,5.0,36611.0,46780.0,74878.0,104728.0,33021.0,55364.0,31582.0,58762.0,21525.0,19287.0
2026-05-06 15:49:22.789975,400757,1609504826291088,2426203636,0.866688,0.01952,0.130784,-10.6225,2.09125,-0.1225,-37.432003,-19.896002,-83.76,concentric,4,5.0,36611.0,46780.0,74878.0,104728.0,33021.0,55364.0,31582.0,58762.0,21525.0,19287.0
2026-05-06 15:49:22.797662,400758,1609504826300159,2426212363,0.866688,0.01952,0.130784,-10.255,2.1175,0.95375,-37.432003,-19.896002,-83.76,concentric,4,5.0,36611.0,46780.0,74878.0,104728.0,33021.0,55364.0,31582.0,58762.0,21525.0,19287.0
2026-05-06 15:49:22.803894,400759,1609504826309085,2426221100,0.894016,0.01952,0.080032,-5.57375,1.53125,3.185,-37.304,-19.792002,-83.880005,concentric,4,5.0,36611.0,46780.0,74878.0,104728.0,33021.0,55364.0,31582.0,58762.0,21525.0,19287.0
2026-05-06 15:49:22.838787,400770,1609504826323688,2426236232,0.894016,0.01952,0.080032,-2.09125,0.20125,6.335,-37.304,-19.792002,-83.880005,concentric,4,5.0,36775.0,46817.0,75009.0,104710.0,33176.0,55371.0,31632.0,58801.0,21620.0,19301.0
2026-05-06 15:49:22.841265,400771,1609504826332876,2426245098,0.851072,0.056608,0.062464,-1.21625,0.30625,7.63,-37.016003,-19.552,-83.08,concentric,4,5.0,36775.0,46817.0,75009.0,104710.0,33176.0,55371.0,31632.0,58801.0,21620.0,19301.0
2026-05-06 15:49:22.846373,400772,1609504826347402,2426260215,0.835456,0.081984,0.074176,-1.75875,0.0175,9.24875,-37.52,-22.408,-81.672005,concentric,4,5.0,36775.0,46817.0,75009.0,104710.0,33176.0,55371.0,31632.0,58801.0,21620.0,19301.0
2026-05-06 15:49:22.852529,400773,1609504826356346,2426268916,0.835456,0.081984,0.074176,-1.61875,-1.1375,10.45625,-37.52,-22.408,-81.672005,concentric,4,5.0,36775.0,46817.0,75009.0,104710.0,33176.0,55371.0,31632.0,58801.0,21620.0,19301.0
2026-05-06 15:49:22.864490,400774,1609504826365264,2426277689,0.835456,0.081984,0.074176,-2.2925,-2.135,11.45375,-37.52,-22.408,-81.672005,concentric,4,5.0,36775.0,46817.0,75009.0,104710.0,33176.0,55371.0,31632.0,58801.0,21620.0,19301.0
2026-05-06 15:49:22.875094,400775,1609504826379755,2426290546,0.815936,0.027328,0.070272,-3.325,-2.66875,13.86,-37.56,-19.672,-85.48,concentric,4,5.0,36775.0,46817.0,75009.0,104710.0,33176.0,55371.0,31632.0,58801.0,21620.0,19301.0
2026-05-06 15:49:22.888901,400776,1609504826388968,2426301335,0.821792,-0.05856,0.138592,-3.255,-3.63125,18.06875,-37.784,-18.560001,-84.008,concentric,4,5.0,36775.0,46817.0,75009.0,104710.0,33176.0,55371.0,31632.0,58801.0,21620.0,19301.0
2026-05-06 15:49:22.900249,400777,1609504826403609,2426316246,0.821792,-0.05856,0.138592,-3.45625,-4.515,22.82,-37.784,-18.560001,-84.008,concentric,4,5.0,36775.0,46817.0,75009.0,104710.0,33176.0,55371.0,31632.0,58801.0,21620.0,19301.0
2026-05-06 15:49:22.937519,400788,1609504826412552,2426325047,0.812032,-0.056608,0.148352,-4.33125,-5.27625,28.5075,-37.472,-18.368,-83.832,concentric,4,5.0,36599.0,46521.0,74773.0,104504.0,33046.0,55080.0,31520.0,58850.0,21560.0,19196.0
2026-05-06 15:49:22.964864,400789,1609504826421620,2426333970,0.812032,-0.056608,0.148352,-6.685,-4.6725,33.50375,-37.472,-18.368,-83.832,concentric,4,5.0,36599.0,46521.0,74773.0,104504.0,33046.0,55080.0,31520.0,58850.0,21560.0,19196.0
2026-05-06 15:49:22.990118,400790,1609504826436135,2426346911,0.7808,-0.042944,0.062464,-7.02625,-4.69875,37.1525,-37.544003,-18.144001,-83.064,concentric,4,5.0,36599.0,46521.0,74773.0,104504.0,33046.0,55080.0,31520.0,58850.0,21560.0,19196.0
2026-05-06 15:49:23.036455,400791,1609504826445396,2426357702,0.7808,-0.042944,0.062464,-6.76375,-5.7575,40.8275,-37.544003,-18.144001,-83.064,concentric,4,5.0,36599.0,46521.0,74773.0,104504.0,33046.0,55080.0,31520.0,58850.0,21560.0,19196.0
2026-05-06 15:49:23.038744,400792,1609504826459850,2426370610,0.749568,0.023424,0.035136,-3.91125,-8.33,44.75625,-38.008003,-19.160002,-82.920006,concentric,4,5.0,36599.0,46521.0,74773.0,104504.0,33046.0,55080.0,31520.0,58850.0,21560.0,19196.0
2026-05-06 15:49:23.045397,400793,1609504826469039,2426381382,0.732,0.021472,0.081984,-3.2025,-11.24375,46.935,-37.856003,-16.784,-84.880005,concentric,4,5.0,36599.0,46521.0,74773.0,104504.0,33046.0,55080.0,31520.0,58850.0,21560.0,19196.0
2026-05-06 15:49:23.045514,400794,1609504826483533,2426394295,0.732,0.021472,0.081984,-6.7025,-12.87125,48.86,-37.856003,-16.784,-84.880005,concentric,4,5.0,36599.0,46521.0,74773.0,104504.0,33046.0,55080.0,31520.0,58850.0,21560.0,19196.0
2026-05-06 15:49:23.046102,400795,1609504826492775,2426405064,0.698816,-0.08784,0.105408,-12.39,-13.62375,52.64,-38.144,-15.712001,-84.54401,concentric,4,5.0,36599.0,46521.0,74773.0,104504.0,33046.0,55080.0,31520.0,58850.0,21560.0,19196.0
2026-05-06 15:49:23.048501,400796,1609504826501741,2426413772,0.698816,-0.08784,0.105408,-21.53375,-13.74625,56.2275,-38.144,-15.712001,-84.54401,concentric,4,5.0,36599.0,46521.0,74773.0,104504.0,33046.0,55080.0,31520.0,58850.0,21560.0,19196.0
2026-05-06 15:49:23.076555,400807,1609504826516358,2426427159,0.698816,-0.130784,0.089792,-32.48875,-13.8425,62.0025,-38.096,-15.208001,-84.16801,concentric,4,5.0,36444.0,46269.0,74355.0,104007.0,32841.0,54825.0,31276.0,58564.0,21421.0,19078.0
2026-05-06 15:49:23.078877,400808,1609504826525593,2426438011,0.698816,-0.130784,0.089792,-41.0725,-14.035,68.04,-38.096,-15.208001,-84.16801,concentric,4,5.0,36444.0,46269.0,74355.0,104007.0,32841.0,54825.0,31276.0,58564.0,21421.0,19078.0
2026-05-06 15:49:23.081431,400809,1609504826540050,2426450894,0.726144,-0.124928,0.011712,-43.732502,-14.70875,69.8075,-38.752003,-17.896,-80.4,concentric,4,5.0,36444.0,46269.0,74355.0,104007.0,32841.0,54825.0,31276.0,58564.0,21421.0,19078.0
2026-05-06 15:49:23.086592,400810,1609504826549265,2426461701,0.71248,-0.0488,0.103456,-39.9875,-15.05,67.27,-38.496002,-14.136001,-84.16801,concentric,4,5.0,36444.0,46269.0,74355.0,104007.0,32841.0,54825.0,31276.0,58564.0,21421.0,19078.0
2026-05-06 15:49:23.089001,400811,1609504826558424,2426470475,0.71248,-0.0488,0.103456,-28.848751,-15.32125,65.05625,-38.496002,-14.136001,-84.16801,concentric,4,5.0,36444.0,46269.0,74355.0,104007.0,32841.0,54825.0,31276.0,58564.0,21421.0,19078.0
2026-05-06 15:49:23.091575,400812,1609504826572992,2426485435,0.69296,-0.089792,0.132736,-20.1425,-15.39125,63.63,-38.432003,-13.328001,-85.008,concentric,4,5.0,36444.0,46269.0,74355.0,104007.0,32841.0,54825.0,31276.0,58564.0,21421.0,19078.0
2026-05-06 15:49:23.093993,400813,1609504826581993,2426494197,0.69296,-0.089792,0.132736,-22.51375,-14.28875,63.5775,-38.432003,-13.328001,-85.008,concentric,4,5.0,36444.0,46269.0,74355.0,104007.0,32841.0,54825.0,31276.0,58564.0,21421.0,19078.0
2026-05-06 15:49:23.096371,400814,1609504826596554,2426509094,0.895968,-0.316224,0.081984,-32.9875,-11.261251,64.295,-38.4,-12.888001,-85.336006,concentric,4,5.0,36444.0,46269.0,74355.0,104007.0,32841.0,54825.0,31276.0,58564.0,21421.0,19078.0
2026-05-06 15:49:23.102736,400815,1609504826605517,2426517798,0.895968,-0.316224,0.081984,-54.145,-6.4575,58.87,-38.4,-12.888001,-85.336006,concentric,4,5.0,36444.0,46269.0,74355.0,104007.0,32841.0,54825.0,31276.0,58564.0,21421.0,19078.0
2026-05-06 15:49:23.140982,400826,1609504826614885,2426526633,0.788608,-0.203008,0.138592,-75.25,-1.61,53.2,-38.952003,-13.624001,-83.64001,concentric,4,5.0,36160.0,46041.0,74116.0,104046.0,32628.0,54585.0,31100.0,58629.0,21318.0,18975.0
2026-05-06 15:49:23.142393,400827,1609504826629504,2426541667,0.677344,-0.220576,0.103456,-66.91125,-0.6825,52.80625,-39.024002,-13.136001,-83.96001,concentric,4,5.0,36160.0,46041.0,74116.0,104046.0,32628.0,54585.0,31100.0,58629.0,21318.0,18975.0
2026-05-06 15:49:23.144751,400828,1609504826638456,2426550440,0.677344,-0.220576,0.103456,-39.45375,-3.15875,52.701252,-39.024002,-13.136001,-83.96001,concentric,4,5.0,36160.0,46041.0,74116.0,104046.0,32628.0,54585.0,31100.0,58629.0,21318.0,18975.0
2026-05-06 15:49:23.147577,400829,1609504826653028,2426565472,0.659776,-0.201056,-0.005856,-11.585,-5.85375,58.8875,-38.936,-12.416,-84.656006,concentric,4,5.0,36160.0,46041.0,74116.0,104046.0,32628.0,54585.0,31100.0,58629.0,21318.0,18975.0
2026-05-06 15:49:23.161262,400830,1609504826661997,2426574189,0.659776,-0.201056,-0.005856,-3.6925,-6.50125,58.03,-38.936,-12.416,-84.656006,concentric,4,5.0,36160.0,46041.0,74116.0,104046.0,32628.0,54585.0,31100.0,58629.0,21318.0,18975.0
2026-05-06 15:49:23.167566,400831,1609504826670974,2426582898,0.821792,-0.306464,-0.056608,4.69875,-6.65,59.08,-39.248,-9.808001,-85.344,concentric,4,5.0,36160.0,46041.0,74116.0,104046.0,32628.0,54585.0,31100.0,58629.0,21318.0,18975.0
2026-05-06 15:49:23.181428,400832,1609504826685445,2426597802,0.821792,-0.306464,-0.056608,-0.945,-6.195,62.5275,-39.248,-9.808001,-85.344,concentric,4,5.0,36160.0,46041.0,74116.0,104046.0,32628.0,54585.0,31100.0,58629.0,21318.0,18975.0
2026-05-06 15:49:23.190178,400833,1609504826694365,2426606645,0.64416,-0.230336,0.042944,-25.83,-0.76125,55.4225,-39.512,-10.632001,-83.656006,concentric,4,5.0,36160.0,46041.0,74116.0,104046.0,32628.0,54585.0,31100.0,58629.0,21318.0,18975.0
2026-05-06 15:49:23.204032,400834,1609504826709039,2426621602,0.564128,-0.199104,0.148352,-31.10625,2.38,52.31625,-39.512,-10.472,-83.128006,concentric,4,5.0,36160.0,46041.0,74116.0,104046.0,32628.0,54585.0,31100.0,58629.0,21318.0,18975.0
2026-05-06 15:49:23.241522,400845,1609504826718519,2426630446,0.564128,-0.199104,0.148352,-20.405,-1.05875,59.52625,-39.584003,-10.472,-83.128006,concentric,4,5.0,35402.0,45530.0,73237.0,104533.0,32252.0,54145.0,30695.0,58843.0,21209.0,18886.0
2026-05-06 15:49:23.243842,400846,1609504826727720,2426639247,0.564128,-0.199104,0.148352,-12.425,-3.4475,56.1225,-39.584003,-10.472,-83.128006,concentric,4,5.0,35402.0,45530.0,73237.0,104533.0,32252.0,54145.0,30695.0,58843.0,21209.0,18886.0
2026-05-06 15:49:23.246365,400847,1609504826742441,2426654196,0.530944,-0.183488,0.001952,-11.62,-5.15375,57.67125,-39.36,-7.256001,-87.192,concentric,4,5.0,35402.0,45530.0,73237.0,104533.0,32252.0,54145.0,30695.0,58843.0,21209.0,18886.0
2026-05-06 15:49:23.248831,400848,1609504826751618,2426662921,0.708576,-0.308416,-0.080032,-3.325,-6.55375,60.13,-39.432003,-8.672001,-84.96001,concentric,4,5.0,35402.0,45530.0,73237.0,104533.0,32252.0,54145.0,30695.0,58843.0,21209.0,18886.0
2026-05-06 15:49:23.262354,400849,1609504826766126,2426677838,0.708576,-0.308416,-0.080032,-1.2425,-7.62125,59.50875,-39.432003,-8.672001,-84.96001,concentric,4,5.0,35402.0,45530.0,73237.0,104533.0,32252.0,54145.0,30695.0,58843.0,21209.0,18886.0
2026-05-06 15:49:23.271562,400850,1609504826775027,2426686588,0.778848,-0.32208,0.072224,-21.28,-3.92,50.19875,-39.648003,-5.960001,-84.656006,concentric,4,5.0,35402.0,45530.0,73237.0,104533.0,32252.0,54145.0,30695.0,58843.0,21209.0,18886.0
2026-05-06 15:49:23.277826,400851,1609504826784058,2426695340,0.778848,-0.32208,0.072224,-34.81625,3.22875,39.5325,-39.648003,-5.960001,-84.656006,concentric,4,5.0,35402.0,45530.0,73237.0,104533.0,32252.0,54145.0,30695.0,58843.0,21209.0,18886.0
2026-05-06 15:49:23.297586,400852,1609504826798588,2426710290,0.638304,-0.0488,0.140544,-27.1775,4.585,34.11625,-40.0,-7.184001,-84.69601,concentric,4,5.0,35402.0,45530.0,73237.0,104533.0,32252.0,54145.0,30695.0,58843.0,21209.0,18886.0
2026-05-06 15:49:23.303978,400853,1609504826807505,2426719021,0.638304,-0.0488,0.140544,-8.04125,2.59875,40.97625,-40.0,-7.184001,-84.69601,concentric,4,5.0,35402.0,45530.0,73237.0,104533.0,32252.0,54145.0,30695.0,58843.0,21209.0,18886.0
2026-05-06 15:49:23.396277,400864,1609504826822239,2426734238,0.65392,-0.189344,0.013664,3.3075,1.00625,36.96875,-39.544003,-6.192,-85.52801,concentric,4,5.0,34802.0,44488.0,72632.0,104401.0,31833.0,53494.0,30429.0,58762.0,20973.0,18659.0
2026-05-06 15:49:23.398965,400865,1609504826831342,2426743008,0.704672,-0.294752,0.0488,-3.31625,0.39375,36.505,-40.072002,-3.44,-85.928,concentric,4,5.0,34802.0,44488.0,72632.0,104401.0,31833.0,53494.0,30429.0,58762.0,20973.0,18659.0
2026-05-06 15:49:23.401532,400866,1609504826845815,2426757987,0.704672,-0.294752,0.0488,-4.2,2.52875,37.07375,-40.072002,-3.44,-85.928,concentric,4,5.0,34802.0,44488.0,72632.0,104401.0,31833.0,53494.0,30429.0,58762.0,20973.0,18659.0
2026-05-06 15:49:23.403965,400867,1609504826854739,2426766705,0.890112,-0.530944,0.099552,-2.7125,2.96625,32.1825,-40.304,-5.08,-83.912,concentric,4,5.0,34802.0,44488.0,72632.0,104401.0,31833.0,53494.0,30429.0,58762.0,20973.0,18659.0
2026-05-06 15:49:23.406495,400868,1609504826863696,2426775413,0.890112,-0.530944,0.099552,-16.8,6.13375,26.57375,-40.304,-5.08,-83.912,concentric,4,5.0,34802.0,44488.0,72632.0,104401.0,31833.0,53494.0,30429.0,58762.0,20973.0,18659.0
2026-05-06 15:49:23.408981,400869,1609504826878210,2426790357,0.796416,-0.130784,0.085888,-30.6425,11.59375,20.97375,-40.272003,-2.424,-86.384,concentric,4,5.0,34802.0,44488.0,72632.0,104401.0,31833.0,53494.0,30429.0,58762.0,20973.0,18659.0
2026-05-06 15:49:23.411609,400870,1609504826887150,2426799074,0.796416,-0.130784,0.085888,-10.33375,13.09,12.85375,-40.272003,-2.424,-86.384,concentric,4,5.0,34802.0,44488.0,72632.0,104401.0,31833.0,53494.0,30429.0,58762.0,20973.0,18659.0
2026-05-06 15:49:23.415692,400871,1609504826901742,2426814161,1.0736,-0.054656,-0.056608,1.02375,8.04125,6.92125,-40.264004,-2.2,-86.328,concentric,4,5.0,34802.0,44488.0,72632.0,104401.0,31833.0,53494.0,30429.0,58762.0,20973.0,18659.0
2026-05-06 15:49:23.416225,400872,1609504826910716,2426822944,1.022848,-0.355264,-0.00976,-14.14,8.54,13.755,-40.920002,-2.024,-86.08,concentric,4,5.0,34802.0,44488.0,72632.0,104401.0,31833.0,53494.0,30429.0,58762.0,20973.0,18659.0
2026-05-06 15:49:23.448665,400883,1609504826920169,2426831686,1.022848,-0.355264,-0.00976,-9.4325,8.98625,11.06875,-40.920002,-2.024,-86.08,concentric,4,5.0,34529.0,44050.0,72899.0,103831.0,31610.0,53169.0,30535.0,58511.0,20849.0,18530.0
2026-05-06 15:49:23.451366,400884,1609504826934921,2426846885,0.983808,-0.558272,0.13664,-18.83,9.16125,-7.875,-40.984,-2.36,-85.976006,concentric,4,5.0,34529.0,44050.0,72899.0,103831.0,31610.0,53169.0,30535.0,58511.0,20849.0,18530.0
2026-05-06 15:49:23.453755,400885,1609504826944183,2426855687,0.983808,-0.558272,0.13664,-32.83875,8.46125,-13.1425,-40.984,-2.36,-85.976006,concentric,4,5.0,34529.0,44050.0,72899.0,103831.0,31610.0,53169.0,30535.0,58511.0,20849.0,18530.0
2026-05-06 15:49:23.456455,400886,1609504826958684,2426870616,1.059936,-0.564128,0.228384,-27.545,6.1775,-11.41,-41.568,-3.208,-85.552,concentric,4,5.0,34529.0,44050.0,72899.0,103831.0,31610.0,53169.0,30535.0,58511.0,20849.0,18530.0
2026-05-06 15:49:23.465095,400887,1609504826967695,2426879381,1.059936,-0.564128,0.228384,0.04375,2.42375,-10.49125,-41.568,-3.208,-85.552,concentric,4,5.0,34529.0,44050.0,72899.0,103831.0,31610.0,53169.0,30535.0,58511.0,20849.0,18530.0
2026-05-06 15:49:23.471418,400888,1609504826976644,2426888083,1.067744,-0.251808,0.044896,18.2525,3.815,-11.3575,-41.584003,-2.504,-86.576004,concentric,4,5.0,34529.0,44050.0,72899.0,103831.0,31610.0,53169.0,30535.0,58511.0,20849.0,18530.0
2026-05-06 15:49:23.489039,400889,1609504826991207,2426902991,1.167296,-0.388448,0.162016,18.366251,6.60625,-27.2125,-41.584003,-1.848,-87.48,concentric,4,5.0,34529.0,44050.0,72899.0,103831.0,31610.0,53169.0,30535.0,58511.0,20849.0,18530.0
2026-05-06 15:49:23.494983,400890,1609504827000131,2426911808,1.167296,-0.388448,0.162016,23.45,9.05625,-34.265,-42.128002,-1.848,-87.48,concentric,4,5.0,34529.0,44050.0,72899.0,103831.0,31610.0,53169.0,30535.0,58511.0,20849.0,18530.0
2026-05-06 15:49:23.528604,400891,1609504827014628,2426926866,1.116544,-0.509472,0.160064,15.26,15.4525,-32.97,-42.384003,-1.288,-85.32001,concentric,4,5.0,34529.0,44050.0,72899.0,103831.0,31610.0,53169.0,30535.0,58511.0,20849.0,18530.0
2026-05-06 15:49:23.558969,400902,1609504827023733,2426935643,1.116544,-0.509472,0.160064,5.0575,20.83375,-29.3125,-42.384003,-1.288,-85.32001,concentric,4,5.0,33966.0,43005.0,72403.0,102602.0,31102.0,52246.0,30327.0,57877.0,20648.0,18187.0
2026-05-06 15:49:23.561382,400903,1609504827038292,2426950621,1.159488,-0.462624,0.236192,0.9275,25.585001,-31.92,-43.216003,-2.44,-85.152,concentric,4,5.0,33966.0,43005.0,72403.0,102602.0,31102.0,52246.0,30327.0,57877.0,20648.0,18187.0
2026-05-06 15:49:23.563842,400904,1609504827047215,2426959374,1.159488,-0.462624,0.236192,0.60375,31.0625,-36.295002,-43.216003,-2.44,-85.152,concentric,4,5.0,33966.0,43005.0,72403.0,102602.0,31102.0,52246.0,30327.0,57877.0,20648.0,18187.0
2026-05-06 15:49:23.566536,400905,1609504827056280,2426968204,1.155584,-0.415776,0.216672,8.02375,33.53,-35.84,-43.656002,-5.912,-82.880005,concentric,4,5.0,33966.0,43005.0,72403.0,102602.0,31102.0,52246.0,30327.0,57877.0,20648.0,18187.0
2026-05-06 15:49:23.568987,400906,1609504827070807,2426983134,1.155584,-0.415776,0.216672,15.05875,36.19875,-37.9925,-43.656002,-5.912,-82.880005,concentric,4,5.0,33966.0,43005.0,72403.0,102602.0,31102.0,52246.0,30327.0,57877.0,20648.0,18187.0
2026-05-06 15:49:23.575188,400907,1609504827079891,2426991956,1.118496,-0.3904,0.187392,27.536251,35.857502,-39.6025,-43.856003,-3.768,-83.344,concentric,4,5.0,33966.0,43005.0,72403.0,102602.0,31102.0,52246.0,30327.0,57877.0,20648.0,18187.0
2026-05-06 15:49:23.606422,400908,1609504827094560,2427006957,1.145824,-0.421632,0.218624,32.38375,34.3875,-43.8025,-44.480003,-1.992,-84.48801,concentric,4,5.0,33966.0,43005.0,72403.0,102602.0,31102.0,52246.0,30327.0,57877.0,20648.0,18187.0
2026-05-06 15:49:23.608870,400909,1609504827103509,2427015722,1.145824,-0.421632,0.218624,32.41875,32.76,-42.42875,-44.480003,-1.992,-84.48801,concentric,4,5.0,33966.0,43005.0,72403.0,102602.0,31102.0,52246.0,30327.0,57877.0,20648.0,18187.0
2026-05-06 15:49:23.611498,400910,1609504827112522,2427024451,1.108736,-0.40992,0.294752,26.69625,31.70125,-36.4,-45.304,-2.944,-84.288,concentric,4,5.0,33966.0,43005.0,72403.0,102602.0,31102.0,52246.0,30327.0,57877.0,20648.0,18187.0
2026-05-06 15:49:23.638736,400921,1609504827127146,2427039534,1.108736,-0.40992,0.294752,18.10375,30.7475,-32.935,-45.304,-2.944,-84.288,concentric,4,5.0,33966.0,42927.0,72935.0,102105.0,30989.0,52144.0,30522.0,57626.0,20590.0,18102.0
2026-05-06 15:49:23.641139,400922,1609504827136098,2427048247,1.16144,-0.411872,0.245952,10.73625,28.9275,-31.115,-45.632004,-4.336,-82.600006,concentric,4,5.0,33966.0,42927.0,72935.0,102105.0,30989.0,52144.0,30522.0,57626.0,20590.0,18102.0
2026-05-06 15:49:23.647272,400923,1609504827150644,2427063177,1.16144,-0.411872,0.245952,6.895,26.85375,-28.735,-45.632004,-4.336,-82.600006,concentric,4,5.0,33966.0,42927.0,72935.0,102105.0,30989.0,52144.0,30522.0,57626.0,20590.0,18102.0
2026-05-06 15:49:23.657634,400924,1609504827159712,2427072029,1.184864,-0.394304,0.197152,10.71,24.08,-25.0425,-45.336002,-2.608,-83.656006,concentric,4,5.0,33966.0,42927.0,72935.0,102105.0,30989.0,52144.0,30522.0,57626.0,20590.0,18102.0
2026-05-06 15:49:23.671525,400925,1609504827174223,2427085039,1.167296,-0.425536,0.158112,15.085,19.678751,-24.0975,-46.08,-2.76,-83.424,concentric,4,5.0,33966.0,42927.0,72935.0,102105.0,30989.0,52144.0,30522.0,57626.0,20590.0,18102.0
2026-05-06 15:49:23.680137,400926,1609504827183502,2427095811,1.167296,-0.425536,0.158112,17.9025,15.54875,-20.3175,-46.08,-2.76,-83.424,concentric,4,5.0,33966.0,42927.0,72935.0,102105.0,30989.0,52144.0,30522.0,57626.0,20590.0,18102.0
2026-05-06 15:49:23.706465,400927,1609504827192457,2427104529,1.15168,-0.423584,0.177632,17.89375,11.3925,-16.84375,-46.08,-2.76,-81.16,concentric,4,5.0,33966.0,42927.0,72935.0,102105.0,30989.0,52144.0,30522.0,57626.0,20590.0,18102.0
2026-05-06 15:49:23.731361,400928,1609504827206946,2427119407,1.153632,-0.423584,0.177632,12.90625,8.435,-12.915,-46.592003,-5.888001,-81.16,concentric,4,5.0,33966.0,42927.0,72935.0,102105.0,30989.0,52144.0,30522.0,57626.0,20590.0,18102.0
2026-05-06 15:49:23.756534,400929,1609504827215889,2427128137,1.098976,-0.398208,0.242048,8.07625,6.335,-6.23875,-46.192,-2.976,-83.11201,concentric,4,5.0,33966.0,42927.0,72935.0,102105.0,30989.0,52144.0,30522.0,57626.0,20590.0,18102.0
2026-05-06 15:49:23.797606,400940,1609504827230441,2427143114,1.098976,-0.398208,0.242048,0.79625,3.96375,-2.38875,-46.192,-2.976,-83.11201,eccentric,4,5.0,34464.0,43554.0,73340.0,101940.0,31253.0,52642.0,30684.0,57486.0,20678.0,18271.0
2026-05-06 15:49:23.800013,400941,1609504827239474,2427151836,1.0248,-0.392352,0.1952,-4.2875,0.90125,0.595,-45.960003,-2.84,-82.144005,eccentric,4,5.0,34464.0,43554.0,73340.0,101940.0,31253.0,52642.0,30684.0,57486.0,20678.0,18271.0
2026-05-06 15:49:23.802555,400942,1609504827248407,2427160548,1.0248,-0.392352,0.1952,-3.7975,-2.00375,4.5325,-45.960003,-2.84,-82.144005,eccentric,4,5.0,34464.0,43554.0,73340.0,101940.0,31253.0,52642.0,30684.0,57486.0,20678.0,18271.0
2026-05-06 15:49:23.805073,400943,1609504827263097,2427175442,1.013088,-0.386496,0.203008,0.2975,-3.71875,6.9125,-45.872,-2.4,-83.104004,eccentric,4,5.0,34464.0,43554.0,73340.0,101940.0,31253.0,52642.0,30684.0,57486.0,20678.0,18271.0
2026-05-06 15:49:23.807629,400944,1609504827272258,2427184284,1.013088,-0.386496,0.203008,2.2575,-5.2325,8.91625,-45.872,-2.4,-83.104004,eccentric,4,5.0,34464.0,43554.0,73340.0,101940.0,31253.0,52642.0,30684.0,57486.0,20678.0,18271.0
2026-05-06 15:49:23.810108,400945,1609504827286752,2427199236,0.923296,-0.35136,0.212768,0.67375,-5.13625,10.9025,-45.952003,-2.28,-82.128006,eccentric,4,5.0,34464.0,43554.0,73340.0,101940.0,31253.0,52642.0,30684.0,57486.0,20678.0,18271.0
2026-05-06 15:49:23.812731,400946,1609504827295706,2427207999,0.882304,-0.365024,0.113216,-5.4075,-3.52625,12.25,-45.832,-3.944,-82.256004,eccentric,4,5.0,34464.0,43554.0,73340.0,101940.0,31253.0,52642.0,30684.0,57486.0,20678.0,18271.0
2026-05-06 15:49:23.815145,400947,1609504827310311,2427223028,0.882304,-0.365024,0.113216,-4.13875,-3.96375,11.54125,-45.832,-3.944,-82.256004,eccentric,4,5.0,34464.0,43554.0,73340.0,101940.0,31253.0,52642.0,30684.0,57486.0,20678.0,18271.0
2026-05-06 15:49:23.842718,400958,1609504827319727,2427231853,0.8784,-0.349408,0.199104,-4.62,-3.325,7.595,-45.336002,-2.368,-83.616005,eccentric,4,5.0,35153.0,44347.0,73823.0,102053.0,31803.0,53304.0,30858.0,57467.0,20939.0,18556.0
2026-05-06 15:49:23.845133,400959,1609504827328871,2427240633,0.8784,-0.349408,0.199104,-1.98625,-5.0225,7.07875,-45.336002,-2.368,-83.616005,eccentric,4,5.0,35153.0,44347.0,73823.0,102053.0,31803.0,53304.0,30858.0,57467.0,20939.0,18556.0
2026-05-06 15:49:23.847619,400960,1609504827343490,2427255527,0.85888,-0.363072,0.15616,-3.91125,-5.45125,7.14875,-45.4,-2.232,-83.192,eccentric,4,5.0,35153.0,44347.0,73823.0,102053.0,31803.0,53304.0,30858.0,57467.0,20939.0,18556.0
2026-05-06 15:49:23.850199,400961,1609504827352673,2427264401,0.85888,-0.363072,0.15616,-2.0125,-7.3325,5.0575,-45.4,-2.232,-83.192,eccentric,4,5.0,35153.0,44347.0,73823.0,102053.0,31803.0,53304.0,30858.0,57467.0,20939.0,18556.0
2026-05-06 15:49:23.857663,400962,1609504827361626,2427273211,0.915488,-0.396256,0.181536,-7.63875,-6.23,0.7525,-45.2,-2.12,-82.832,eccentric,4,5.0,35153.0,44347.0,73823.0,102053.0,31803.0,53304.0,30858.0,57467.0,20939.0,18556.0
2026-05-06 15:49:23.871436,400963,1609504827376167,2427288113,0.960384,-0.347456,0.076128,-7.42875,-6.265,1.96875,-45.224003,-3.408,-83.672005,eccentric,4,5.0,35153.0,44347.0,73823.0,102053.0,31803.0,53304.0,30858.0,57467.0,20939.0,18556.0
2026-05-06 15:49:23.880127,400964,1609504827385110,2427296862,0.960384,-0.347456,0.076128,-2.47625,-5.17125,2.65125,-45.224003,-3.408,-83.672005,eccentric,4,5.0,35153.0,44347.0,73823.0,102053.0,31803.0,53304.0,30858.0,57467.0,20939.0,18556.0
2026-05-06 15:49:23.896319,400965,1609504827399649,2427311799,0.976,-0.324032,0.119072,-0.1575,-6.4225,-0.7,-45.128002,-2.128,-84.096,eccentric,4,5.0,35153.0,44347.0,73823.0,102053.0,31803.0,53304.0,30858.0,57467.0,20939.0,18556.0
2026-05-06 15:49:23.903773,400966,1609504827408565,2427320546,0.976,-0.324032,0.119072,-1.4,-7.21875,-5.66125,-45.128002,-2.128,-84.096,eccentric,4,5.0,35153.0,44347.0,73823.0,102053.0,31803.0,53304.0,30858.0,57467.0,20939.0,18556.0
2026-05-06 15:49:23.944976,400977,1609504827423424,2427335484,1.016992,-0.441152,0.226432,6.79,-10.14125,-3.92875,-44.800003,-1.888,-83.928,eccentric,4,5.0,35335.0,44664.0,73932.0,102238.0,31944.0,53497.0,30940.0,57571.0,21003.0,18618.0
2026-05-06 15:49:23.947799,400978,1609504827432483,2427344288,1.016992,-0.441152,0.226432,-2.1,-11.15625,-4.55875,-44.800003,-1.888,-83.928,eccentric,4,5.0,35335.0,44664.0,73932.0,102238.0,31944.0,53497.0,30940.0,57571.0,21003.0,18618.0
2026-05-06 15:49:23.950248,400979,1609504827441438,2427353017,1.026752,-0.456768,0.242048,-2.70375,-12.0925,0.945,-44.656002,-2.6,-82.968,eccentric,4,5.0,35335.0,44664.0,73932.0,102238.0,31944.0,53497.0,30940.0,57571.0,21003.0,18618.0
2026-05-06 15:49:23.952784,400980,1609504827456094,2427367966,1.08336,-0.337696,0.150304,5.90625,-13.0375,4.96125,-44.608,-3.608,-81.328,eccentric,4,5.0,35335.0,44664.0,73932.0,102238.0,31944.0,53497.0,30940.0,57571.0,21003.0,18618.0
2026-05-06 15:49:23.960043,400981,1609504827465099,2427376683,1.08336,-0.337696,0.150304,4.2,-11.33125,5.7925,-44.608,-3.608,-81.328,eccentric,4,5.0,35335.0,44664.0,73932.0,102238.0,31944.0,53497.0,30940.0,57571.0,21003.0,18618.0
2026-05-06 15:49:23.974049,400982,1609504827479617,2427391612,1.052128,-0.306464,0.208864,2.555,-8.89,5.97625,-44.272003,-2.176,-84.200005,eccentric,4,5.0,35335.0,44664.0,73932.0,102238.0,31944.0,53497.0,30940.0,57571.0,21003.0,18618.0
2026-05-06 15:49:23.987519,400983,1609504827488559,2427400330,1.052128,-0.306464,0.208864,3.9725,-7.105,3.0975,-44.272003,-2.176,-84.200005,eccentric,4,5.0,35335.0,44664.0,73932.0,102238.0,31944.0,53497.0,30940.0,57571.0,21003.0,18618.0
2026-05-06 15:49:23.993834,400984,1609504827497474,2427409030,1.036512,-0.347456,0.236192,-1.19,-6.79875,-0.93625,-43.848003,-2.104,-84.43201,eccentric,4,5.0,35335.0,44664.0,73932.0,102238.0,31944.0,53497.0,30940.0,57571.0,21003.0,18618.0
2026-05-06 15:49:24.007534,400985,1609504827511992,2427423980,1.036512,-0.347456,0.236192,-3.71875,-7.86625,0.77875,-43.848003,-2.104,-84.43201,eccentric,4,5.0,35335.0,44664.0,73932.0,102238.0,31944.0,53497.0,30940.0,57571.0,21003.0,18618.0
2026-05-06 15:49:24.038992,400996,1609504827521207,2427432960,1.048224,-0.415776,0.1952,-6.90375,-8.23375,4.12125,-43.904003,-2.944,-83.192,eccentric,4,5.0,35382.0,44799.0,73999.0,102232.0,31977.0,53573.0,30972.0,57543.0,21022.0,18639.0
2026-05-06 15:49:24.041510,400997,1609504827535920,2427448033,1.003328,-0.33184,0.183488,-6.23,-7.60375,7.0175,-43.592003,-2.312,-84.232,eccentric,4,5.0,35382.0,44799.0,73999.0,102232.0,31977.0,53573.0,30972.0,57543.0,21022.0,18639.0
2026-05-06 15:49:24.043956,400998,1609504827544986,2427456769,1.003328,-0.33184,0.183488,-4.90875,-6.85125,10.26375,-43.592003,-2.312,-84.232,eccentric,4,5.0,35382.0,44799.0,73999.0,102232.0,31977.0,53573.0,30972.0,57543.0,21022.0,18639.0
2026-05-06 15:49:24.072635,400999,1609504827553939,2427465517,1.003328,-0.33184,0.183488,-0.67375,-5.87125,7.09625,-43.592003,-2.312,-84.232,eccentric,4,5.0,35382.0,44799.0,73999.0,102232.0,31977.0,53573.0,30972.0,57543.0,21022.0,18639.0
2026-05-06 15:49:24.097365,401000,1609504827568451,2427480490,1.04432,-0.286944,0.138592,3.24625,-6.545,5.53875,-43.384003,-2.32,-85.824005,eccentric,4,5.0,35382.0,44799.0,73999.0,102232.0,31977.0,53573.0,30972.0,57543.0,21022.0,18639.0
2026-05-06 15:49:24.116531,401001,1609504827577346,2427489215,0.997472,-0.281088,0.232288,0.035,-6.475,3.84125,-43.272003,-2.056,-84.80801,eccentric,4,5.0,35382.0,44799.0,73999.0,102232.0,31977.0,53573.0,30972.0,57543.0,21022.0,18639.0
2026-05-06 15:49:24.121568,401002,1609504827591859,2427504112,0.997472,-0.281088,0.232288,-4.1125,-7.14,3.0275,-43.272003,-2.056,-84.80801,eccentric,4,5.0,35382.0,44799.0,73999.0,102232.0,31977.0,53573.0,30972.0,57543.0,21022.0,18639.0
2026-05-06 15:49:24.123966,401003,1609504827600804,2427512859,0.952576,-0.35136,0.17568,-2.84375,-8.77625,4.8475,-43.04,-2.592,-84.608,eccentric,4,5.0,35382.0,44799.0,73999.0,102232.0,31977.0,53573.0,30972.0,57543.0,21022.0,18639.0
2026-05-06 15:49:24.126545,401004,1609504827615309,2427527814,0.952576,-0.304512,0.189344,-2.58125,-9.84375,6.06375,-43.04,-2.592,-84.608,eccentric,4,5.0,35382.0,44799.0,73999.0,102232.0,31977.0,53573.0,30972.0,57543.0,21022.0,18639.0
2026-05-06 15:49:24.153832,401015,1609504827624431,2427536601,0.991616,-0.31232,0.189344,-3.6575,-8.77625,5.88875,-42.816,-2.576,-85.456,eccentric,4,5.0,35725.0,45415.0,74448.0,102507.0,32269.0,54115.0,31192.0,57672.0,21124.0,18793.0
2026-05-06 15:49:24.156276,401016,1609504827633443,2427545386,0.991616,-0.31232,0.189344,-4.4625,-7.0875,3.885,-42.816,-2.576,-85.456,eccentric,4,5.0,35725.0,45415.0,74448.0,102507.0,32269.0,54115.0,31192.0,57672.0,21124.0,18793.0
2026-05-06 15:49:24.158795,401017,1609504827648014,2427560357,0.94672,-0.173728,0.119072,-6.7725,-4.5675,2.7125,-42.592003,-4.176,-84.064,eccentric,4,5.0,35725.0,45415.0,74448.0,102507.0,32269.0,54115.0,31192.0,57672.0,21124.0,18793.0
2026-05-06 15:49:24.162340,401018,1609504827657062,2427569088,0.950624,-0.306464,0.163968,-4.0425,-4.55875,-1.04125,-42.320004,-4.704,-83.44,eccentric,4,5.0,35725.0,45415.0,74448.0,102507.0,32269.0,54115.0,31192.0,57672.0,21124.0,18793.0
2026-05-06 15:49:24.169097,401019,1609504827671656,2427584013,0.950624,-0.306464,0.163968,2.485,-5.5125,-4.8475,-42.320004,-4.704,-83.44,eccentric,4,5.0,35725.0,45415.0,74448.0,102507.0,32269.0,54115.0,31192.0,57672.0,21124.0,18793.0
2026-05-06 15:49:24.176223,401020,1609504827680613,2427592734,0.915488,-0.355264,0.179584,-3.10625,-5.31125,-4.76875,-42.136,-3.76,-84.600006,eccentric,4,5.0,35725.0,45415.0,74448.0,102507.0,32269.0,54115.0,31192.0,57672.0,21124.0,18793.0
2026-05-06 15:49:24.210146,401021,1609504827695143,2427607757,0.915488,-0.355264,0.179584,-8.365,-4.17375,-2.38875,-42.136,-3.76,-84.600006,eccentric,4,5.0,35725.0,45415.0,74448.0,102507.0,32269.0,54115.0,31192.0,57672.0,21124.0,18793.0
2026-05-06 15:49:24.212637,401022,1609504827704243,2427616499,0.894016,-0.226432,0.15616,-13.90375,-2.9925,-3.45625,-42.272003,-3.592,-84.768005,eccentric,4,5.0,35725.0,45415.0,74448.0,102507.0,32269.0,54115.0,31192.0,57672.0,21124.0,18793.0
2026-05-06 15:49:24.215233,401023,1609504827713187,2427625211,0.894016,-0.226432,0.15616,-10.4125,-2.59,-4.6025,-42.272003,-3.592,-84.768005,eccentric,4,5.0,35725.0,45415.0,74448.0,102507.0,32269.0,54115.0,31192.0,57672.0,21124.0,18793.0
2026-05-06 15:49:24.270060,401034,1609504827727968,2427640342,0.9272,-0.183488,0.13664,-0.49,-1.89875,-7.98,-41.696003,-3.992,-84.464005,eccentric,4,5.0,36430.0,46285.0,75037.0,103551.0,32836.0,54924.0,31467.0,58230.0,21411.0,19139.0
2026-05-06 15:49:24.272582,401035,1609504827736948,2427649062,0.942816,-0.23424,0.074176,6.8775,-1.365,-14.48125,-41.736004,-4.736,-87.11201,eccentric,4,5.0,36430.0,46285.0,75037.0,103551.0,32836.0,54924.0,31467.0,58230.0,21411.0,19139.0
2026-05-06 15:49:24.275086,401036,1609504827751429,2427663966,0.942816,-0.23424,0.074176,7.245,-0.595,-17.4125,-41.736004,-4.736,-87.11201,eccentric,4,5.0,36430.0,46285.0,75037.0,103551.0,32836.0,54924.0,31467.0,58230.0,21411.0,19139.0
2026-05-06 15:49:24.277561,401037,1609504827760496,2427672887,0.913536,-0.36112,0.144448,-1.715,1.19875,-17.272501,-41.08,-5.576,-84.176,eccentric,4,5.0,36430.0,46285.0,75037.0,103551.0,32836.0,54924.0,31467.0,58230.0,21411.0,19139.0
2026-05-06 15:49:24.280127,401038,1609504827769488,2427681654,0.913536,-0.36112,0.144448,-14.315001,4.1475,-23.30125,-41.08,-5.576,-84.176,eccentric,4,5.0,36430.0,46285.0,75037.0,103551.0,32836.0,54924.0,31467.0,58230.0,21411.0,19139.0
2026-05-06 15:49:24.282627,401039,1609504827784046,2427696633,0.798368,-0.232288,0.115168,-26.36375,3.24625,-29.303751,-41.704002,-6.864,-83.088005,eccentric,4,5.0,36430.0,46285.0,75037.0,103551.0,32836.0,54924.0,31467.0,58230.0,21411.0,19139.0
2026-05-06 15:49:24.288684,401040,1609504827793156,2427705351,0.798368,-0.232288,0.115168,-19.5475,-2.8175,-28.44625,-41.704002,-6.864,-83.088005,eccentric,4,5.0,36430.0,46285.0,75037.0,103551.0,32836.0,54924.0,31467.0,58230.0,21411.0,19139.0
2026-05-06 15:49:24.308922,401041,1609504827807656,2427720296,0.940864,-0.140544,-0.066368,4.15625,-11.7775,-30.695,-41.176003,-7.480001,-84.8,eccentric,4,5.0,36430.0,46285.0,75037.0,103551.0,32836.0,54924.0,31467.0,58230.0,21411.0,19139.0
2026-05-06 15:49:24.311552,401042,1609504827816572,2427729163,0.940864,-0.140544,0.105408,29.89875,-17.7975,-36.28625,-41.176003,-7.480001,-84.8,eccentric,4,5.0,36430.0,46285.0,75037.0,103551.0,32836.0,54924.0,31467.0,58230.0,21411.0,19139.0
2026-05-06 15:49:24.340251,401053,1609504827825816,2427737973,1.118496,-0.242048,0.0976,41.982502,-17.03625,-41.8425,-40.848003,-6.768,-86.928,eccentric,4,5.0,36455.0,46677.0,74425.0,104690.0,32966.0,55295.0,31220.0,58743.0,21586.0,19365.0
2026-05-06 15:49:24.342722,401054,1609504827840559,2427753073,0.872544,-0.35136,0.413824,24.50875,-6.57125,-45.56125,-40.952003,-9.136001,-83.144005,eccentric,4,5.0,36455.0,46677.0,74425.0,104690.0,32966.0,55295.0,31220.0,58743.0,21586.0,19365.0
2026-05-06 15:49:24.345140,401055,1609504827849624,2427761801,0.872544,-0.35136,0.413824,-6.60625,7.90125,-46.095,-40.952003,-9.136001,-83.144005,eccentric,4,5.0,36455.0,46677.0,74425.0,104690.0,32966.0,55295.0,31220.0,58743.0,21586.0,19365.0
2026-05-06 15:49:24.378810,401056,1609504827864182,2427776710,0.714432,-0.216672,0.21472,-22.7325,12.27625,-41.09,-40.760002,-11.6,-81.888,eccentric,4,5.0,36455.0,46677.0,74425.0,104690.0,32966.0,55295.0,31220.0,58743.0,21586.0,19365.0
2026-05-06 15:49:24.381467,401057,1609504827873260,2427785501,0.714432,-0.216672,0.21472,-9.975,11.12125,-37.63375,-40.760002,-11.6,-81.888,eccentric,4,5.0,36455.0,46677.0,74425.0,104690.0,32966.0,55295.0,31220.0,58743.0,21586.0,19365.0
2026-05-06 15:49:24.383837,401058,1609504827882288,2427794212,0.880352,-0.1952,0.056608,12.01375,8.225,-42.49,-40.584003,-8.952001,-83.872,eccentric,4,5.0,36455.0,46677.0,74425.0,104690.0,32966.0,55295.0,31220.0,58743.0,21586.0,19365.0
2026-05-06 15:49:24.392673,401059,1609504827896804,2427809208,0.880352,-0.1952,0.056608,33.5825,8.12875,-45.6925,-40.584003,-8.952001,-83.872,eccentric,4,5.0,36455.0,46677.0,74425.0,104690.0,32966.0,55295.0,31220.0,58743.0,21586.0,19365.0
2026-05-06 15:49:24.401579,401060,1609504827905720,2427817916,0.9272,-0.279136,0.220576,44.28375,13.7375,-49.14,-40.664,-9.728001,-83.944,eccentric,4,5.0,36455.0,46677.0,74425.0,104690.0,32966.0,55295.0,31220.0,58743.0,21586.0,19365.0
2026-05-06 15:49:24.525267,401071,1609504827920311,2427833077,0.706624,-0.140544,0.240096,37.30125,20.62375,-51.5375,-40.68,-10.120001,-83.11201,eccentric,4,5.0,35660.0,45866.0,73855.0,103676.0,32290.0,54464.0,30911.0,58265.0,21170.0,18947.0
2026-05-06 15:49:24.527779,401072,1609504827929325,2427841793,0.706624,-0.140544,0.240096,23.03,26.565,-51.765,-40.68,-10.120001,-83.11201,eccentric,4,5.0,35660.0,45866.0,73855.0,103676.0,32290.0,54464.0,30911.0,58265.0,21170.0,18947.0
2026-05-06 15:49:24.530267,401073,1609504827944010,2427856738,0.700768,0.037088,0.03904,19.85375,29.49625,-46.97875,-41.24,-10.352,-82.73601,eccentric,4,5.0,35660.0,45866.0,73855.0,103676.0,32290.0,54464.0,30911.0,58265.0,21170.0,18947.0
2026-05-06 15:49:24.532741,401074,1609504827953108,2427865475,0.700768,0.037088,0.03904,24.17625,30.6075,-43.6975,-41.24,-10.352,-82.73601,eccentric,4,5.0,35660.0,45866.0,73855.0,103676.0,32290.0,54464.0,30911.0,58265.0,21170.0,18947.0
2026-05-06 15:49:24.535266,401075,1609504827962013,2427874180,0.876448,-0.119072,0.060512,21.72625,30.72125,-50.9075,-41.048,-11.512,-82.288,eccentric,4,5.0,35660.0,45866.0,73855.0,103676.0,32290.0,54464.0,30911.0,58265.0,21170.0,18947.0
2026-05-06 15:49:24.539400,401076,1609504827976593,2427889118,0.876448,-0.119072,0.060512,15.96875,33.013752,-58.96625,-41.048,-11.512,-82.288,eccentric,4,5.0,35660.0,45866.0,73855.0,103676.0,32290.0,54464.0,30911.0,58265.0,21170.0,18947.0
2026-05-06 15:49:24.540018,401077,1609504827985533,2427897863,0.724192,-0.23424,0.320128,6.4225,35.5425,-64.9775,-40.872,-13.944,-83.520004,eccentric,4,5.0,35660.0,45866.0,73855.0,103676.0,32290.0,54464.0,30911.0,58265.0,21170.0,18947.0
2026-05-06 15:49:24.542545,401078,1609504828000025,2427910783,0.460672,-0.111264,0.232288,-2.9925,38.2725,-66.7275,-41.264004,-13.168,-81.4,eccentric,4,5.0,35660.0,45866.0,73855.0,103676.0,32290.0,54464.0,30911.0,58265.0,21170.0,18947.0
2026-05-06 15:49:24.548854,401079,1609504828009208,2427921611,0.460672,-0.111264,0.232288,8.28625,33.915,-60.865,-41.264004,-13.168,-81.4,eccentric,4,5.0,35660.0,45866.0,73855.0,103676.0,32290.0,54464.0,30911.0,58265.0,21170.0,18947.0
2026-05-06 15:49:24.551954,401080,1609504828018119,2427930341,0.460672,-0.111264,0.02928,18.43625,24.64,-58.03875,-41.264004,-13.168,-81.4,eccentric,4,5.0,35660.0,45866.0,73855.0,103676.0,32290.0,54464.0,30911.0,58265.0,21170.0,18947.0
2026-05-06 15:49:24.578644,401091,1609504828032749,2427945367,0.737856,-0.066368,0.025376,32.2175,17.56125,-52.91125,-40.984,-14.056001,-81.43201,eccentric,4,5.0,36207.0,46142.0,74234.0,103568.0,32722.0,54754.0,31127.0,58286.0,21431.0,19105.0
2026-05-06 15:49:24.581271,401092,1609504828041730,2427954150,0.923296,-0.06832,0.148352,44.8175,15.26875,-52.14125,-41.008003,-14.504001,-80.656006,eccentric,4,5.0,36207.0,46142.0,74234.0,103568.0,32722.0,54754.0,31127.0,58286.0,21431.0,19105.0
2026-05-06 15:49:24.583659,401093,1609504828056380,2427969096,0.923296,-0.06832,0.148352,42.30625,18.34875,-60.82125,-41.008003,-14.504001,-80.656006,eccentric,4,5.0,36207.0,46142.0,74234.0,103568.0,32722.0,54754.0,31127.0,58286.0,21431.0,19105.0
2026-05-06 15:49:24.588964,401094,1609504828065460,2427977821,0.513376,0.025376,0.300608,27.553751,23.93125,-71.04125,-40.600002,-15.440001,-80.704,eccentric,4,5.0,36207.0,46142.0,74234.0,103568.0,32722.0,54754.0,31127.0,58286.0,21431.0,19105.0
2026-05-06 15:49:24.591532,401095,1609504828080096,2427992722,0.495808,-0.021472,0.25376,12.76625,26.4775,-74.01625,-41.160004,-18.864,-79.128006,eccentric,4,5.0,36207.0,46142.0,74234.0,103568.0,32722.0,54754.0,31127.0,58286.0,21431.0,19105.0
2026-05-06 15:49:24.593796,401096,1609504828089154,2428001494,0.495808,-0.021472,0.25376,11.1125,22.3125,-67.47125,-41.160004,-18.864,-79.128006,eccentric,4,5.0,36207.0,46142.0,74234.0,103568.0,32722.0,54754.0,31127.0,58286.0,21431.0,19105.0
2026-05-06 15:49:24.596515,401097,1609504828098086,2428010250,0.495808,-0.021472,0.25376,8.82875,17.115,-64.0325,-41.160004,-18.864,-79.128006,eccentric,4,5.0,36207.0,46142.0,74234.0,103568.0,32722.0,54754.0,31127.0,58286.0,21431.0,19105.0
2026-05-06 15:49:24.610264,401098,1609504828112630,2428025178,0.735904,-0.238144,0.277184,9.2225,14.58625,-58.3275,-40.888,-16.568,-80.200005,eccentric,4,5.0,36207.0,46142.0,74234.0,103568.0,32722.0,54754.0,31127.0,58286.0,21431.0,19105.0
2026-05-06 15:49:24.646349,401110,1609504828121556,2428034365,0.696864,-0.144448,0.1952,16.065,14.93625,-52.395,-40.896004,-17.136002,-80.096,eccentric,4,5.0,36999.0,46619.0,74790.0,104704.0,33194.0,55214.0,31372.0,58867.0,21661.0,19292.0
2026-05-06 15:49:24.648896,401111,1609504828136134,2428047302,0.696864,-0.144448,0.1952,21.8925,15.190001,-53.3225,-40.896004,-17.136002,-80.096,eccentric,4,5.0,36999.0,46619.0,74790.0,104704.0,33194.0,55214.0,31372.0,58867.0,21661.0,19292.0
2026-05-06 15:49:24.651471,401112,1609504828145545,2428058149,0.65392,0.093696,0.17568,29.4525,14.4725,-52.47375,-40.640003,-19.984001,-78.52801,eccentric,4,5.0,36999.0,46619.0,74790.0,104704.0,33194.0,55214.0,31372.0,58867.0,21661.0,19292.0
2026-05-06 15:49:24.653864,401113,1609504828154663,2428066877,0.65392,0.093696,0.17568,29.61875,12.10125,-52.36,-40.640003,-19.984001,-78.52801,eccentric,4,5.0,36999.0,46619.0,74790.0,104704.0,33194.0,55214.0,31372.0,58867.0,21661.0,19292.0
2026-05-06 15:49:24.667786,401114,1609504828169254,2428081873,0.6344,0.021472,0.220576,23.4675,11.2175,-54.48625,-40.656002,-18.856,-79.856,eccentric,4,5.0,36999.0,46619.0,74790.0,104704.0,33194.0,55214.0,31372.0,58867.0,21661.0,19292.0
2026-05-06 15:49:24.674001,401115,1609504828178185,2428090582,0.6344,0.021472,0.220576,12.88,9.70375,-54.13625,-40.656002,-18.856,-79.856,eccentric,4,5.0,36999.0,46619.0,74790.0,104704.0,33194.0,55214.0,31372.0,58867.0,21661.0,19292.0
2026-05-06 15:49:24.687749,401116,1609504828192692,2428103462,0.679296,-0.11712,0.199104,2.84375,7.48125,-49.09625,-40.688004,-20.992,-79.728004,eccentric,4,5.0,36999.0,46619.0,74790.0,104704.0,33194.0,55214.0,31372.0,58867.0,21661.0,19292.0
2026-05-06 15:49:24.699007,401117,1609504828201907,2428114310,0.753472,-0.095648,0.177632,0.00875,4.9,-43.3825,-40.816,-22.544,-77.528,eccentric,4,5.0,36999.0,46619.0,74790.0,104704.0,33194.0,55214.0,31372.0,58867.0,21661.0,19292.0
2026-05-06 15:49:24.707522,401118,1609504828210834,2428123019,0.753472,-0.095648,0.177632,0.41125,3.40375,-38.3425,-40.816,-22.544,-77.528,eccentric,4,5.0,36999.0,46619.0,74790.0,104704.0,33194.0,55214.0,31372.0,58867.0,21661.0,19292.0
2026-05-06 15:49:24.746439,401129,1609504828226068,2428138061,0.767136,0.033184,0.226432,2.56375,2.065,-34.3875,-40.512,-23.104002,-78.68,eccentric,4,5.0,38010.0,47796.0,75475.0,106749.0,34026.0,56161.0,31750.0,59731.0,22051.0,19668.0
2026-05-06 15:49:24.748861,401130,1609504828235215,2428146843,0.767136,0.033184,0.226432,2.0125,1.32125,-32.03375,-40.512,-23.104002,-78.68,eccentric,4,5.0,38010.0,47796.0,75475.0,106749.0,34026.0,56161.0,31750.0,59731.0,22051.0,19668.0
2026-05-06 15:49:24.751396,401131,1609504828249741,2428161887,0.718336,0.037088,0.249856,-8.3825,1.785,-31.2025,-40.144,-20.176,-79.58401,eccentric,4,5.0,38010.0,47796.0,75475.0,106749.0,34026.0,56161.0,31750.0,59731.0,22051.0,19668.0
2026-05-06 15:49:24.753858,401132,1609504828258704,2428170654,0.718336,0.037088,0.249856,-14.91,2.205,-29.295,-40.144,-20.176,-79.58401,eccentric,4,5.0,38010.0,47796.0,75475.0,106749.0,34026.0,56161.0,31750.0,59731.0,22051.0,19668.0
2026-05-06 15:49:24.762620,401133,1609504828267746,2428179363,0.835456,-0.062464,0.222528,-17.84125,0.07875,-27.2825,-39.864002,-20.224,-79.576004,eccentric,4,5.0,38010.0,47796.0,75475.0,106749.0,34026.0,56161.0,31750.0,59731.0,22051.0,19668.0
2026-05-06 15:49:24.801641,401134,1609504828282235,2428194255,0.860832,-0.044896,0.286944,-14.9275,-1.4875,-24.2375,-39.960003,-22.376001,-78.472,eccentric,4,5.0,38010.0,47796.0,75475.0,106749.0,34026.0,56161.0,31750.0,59731.0,22051.0,19668.0
2026-05-06 15:49:24.826462,401135,1609504828291248,2428202963,0.860832,-0.044896,0.286944,-10.5875,-2.35375,-21.2625,-39.960003,-22.376001,-78.472,eccentric,4,5.0,38010.0,47796.0,75475.0,106749.0,34026.0,56161.0,31750.0,59731.0,22051.0,19668.0
2026-05-06 15:49:24.851327,401136,1609504828305734,2428217900,0.80032,0.003904,0.249856,-11.12125,-1.81125,-18.8825,-40.144,-20.800001,-79.448006,eccentric,4,5.0,38010.0,47796.0,75475.0,106749.0,34026.0,56161.0,31750.0,59731.0,22051.0,19668.0
2026-05-06 15:49:24.856369,401137,1609504828314741,2428226607,0.80032,0.003904,0.249856,-13.60625,-2.59,-15.75,-40.144,-20.800001,-79.448006,eccentric,4,5.0,38010.0,47796.0,75475.0,106749.0,34026.0,56161.0,31750.0,59731.0,22051.0,19668.0
2026-05-06 15:49:24.911414,401148,1609504828329407,2428241880,0.853024,0.015616,0.199104,-17.56125,-3.33375,-11.99625,-39.800003,-21.240002,-79.408005,eccentric,4,5.0,38118.0,48148.0,75683.0,107994.0,34181.0,56445.0,31916.0,60336.0,22109.0,19774.0
2026-05-06 15:49:24.916069,401149,1609504828338380,2428250577,0.853024,0.015616,0.199104,-18.8475,-4.40125,-8.56625,-39.800003,-21.240002,-79.408005,eccentric,4,5.0,38118.0,48148.0,75683.0,107994.0,34181.0,56445.0,31916.0,60336.0,22109.0,19774.0
2026-05-06 15:49:24.917090,401150,1609504828347287,2428259270,0.890112,0.003904,0.18544,-17.36875,-5.13625,-7.07875,-39.752003,-21.352001,-79.208,eccentric,4,5.0,38118.0,48148.0,75683.0,107994.0,34181.0,56445.0,31916.0,60336.0,22109.0,19774.0
2026-05-06 15:49:24.918998,401151,1609504828361861,2428274179,0.866688,0.02928,0.222528,-18.52375,-5.24125,-5.27625,-39.808002,-21.824001,-78.01601,eccentric,4,5.0,38118.0,48148.0,75683.0,107994.0,34181.0,56445.0,31916.0,60336.0,22109.0,19774.0
2026-05-06 15:49:24.921243,401152,1609504828370922,2428283027,0.866688,0.02928,0.222528,-22.1375,-4.13,-2.8525,-39.808002,-21.824001,-78.01601,eccentric,4,5.0,38118.0,48148.0,75683.0,107994.0,34181.0,56445.0,31916.0,60336.0,22109.0,19774.0
2026-05-06 15:49:24.923880,401153,1609504828385549,2428297928,0.872544,0.007808,0.265472,-25.27875,-3.7975,-3.17625,-39.768,-21.576,-79.576004,eccentric,4,5.0,38118.0,48148.0,75683.0,107994.0,34181.0,56445.0,31916.0,60336.0,22109.0,19774.0
2026-05-06 15:49:24.926414,401154,1609504828394492,2428306715,0.872544,0.007808,0.265472,-25.41,-3.75375,-2.555,-39.768,-21.576,-79.576004,eccentric,4,5.0,38118.0,48148.0,75683.0,107994.0,34181.0,56445.0,31916.0,60336.0,22109.0,19774.0
2026-05-06 15:49:24.928712,401155,1609504828403437,2428315509,0.854976,0.02928,0.228384,-21.16625,-3.70125,-1.54875,-39.872,-25.264002,-77.344,eccentric,4,5.0,38118.0,48148.0,75683.0,107994.0,34181.0,56445.0,31916.0,60336.0,22109.0,19774.0
2026-05-06 15:49:24.931427,401156,1609504828417970,2428330510,0.854976,0.02928,0.228384,-16.485,-3.5875,-1.61875,-39.872,-25.264002,-77.344,eccentric,4,5.0,38118.0,48148.0,75683.0,107994.0,34181.0,56445.0,31916.0,60336.0,22109.0,19774.0
2026-05-06 15:49:24.965218,401167,1609504828427570,2428339380,0.880352,0.105408,0.124928,-11.76875,-3.49125,-1.00625,-39.544003,-23.960001,-78.520004,eccentric,4,5.0,37983.0,48108.0,75656.0,108674.0,34078.0,56415.0,31874.0,60678.0,22105.0,19766.0
2026-05-06 15:49:24.970235,401168,1609504828442245,2428354485,0.847168,0.091744,0.197152,-10.19375,-2.73,-2.065,-39.88,-23.512001,-77.16,eccentric,4,5.0,37983.0,48108.0,75656.0,108674.0,34078.0,56415.0,31874.0,60678.0,22105.0,19766.0
2026-05-06 15:49:24.972674,401169,1609504828451410,2428363273,0.847168,0.091744,0.197152,-12.04875,-1.9075,-4.6375,-39.88,-23.512001,-77.16,eccentric,4,5.0,37983.0,48108.0,75656.0,108674.0,34078.0,56415.0,31874.0,60678.0,22105.0,19766.0
2026-05-06 15:49:24.975254,401170,1609504828460365,2428372005,0.847168,0.091744,0.197152,-11.725,-0.98,-6.60625,-39.88,-23.512001,-77.16,eccentric,4,5.0,37983.0,48108.0,75656.0,108674.0,34078.0,56415.0,31874.0,60678.0,22105.0,19766.0
2026-05-06 15:49:24.977744,401171,1609504828474985,2428386974,0.843264,0.076128,0.247904,-9.28375,-0.5075,-6.9475,-39.824,-23.76,-78.128006,eccentric,4,5.0,37983.0,48108.0,75656.0,108674.0,34078.0,56415.0,31874.0,60678.0,22105.0,19766.0
2026-05-06 15:49:24.980237,401172,1609504828484074,2428395855,0.860832,0.074176,0.279136,-6.755,0.455,-8.51375,-39.808002,-23.952002,-79.416,eccentric,4,5.0,37983.0,48108.0,75656.0,108674.0,34078.0,56415.0,31874.0,60678.0,22105.0,19766.0
2026-05-06 15:49:24.993891,401173,1609504828498642,2428410837,0.860832,0.074176,0.279136,-4.92625,0.7,-8.365,-39.808002,-23.952002,-79.416,eccentric,4,5.0,37983.0,48108.0,75656.0,108674.0,34078.0,56415.0,31874.0,60678.0,22105.0,19766.0
