pc_time,serial_num,sensor_ts,host_ts,ax,ay,az,gx,gy,gz,mx,my,mz,phase,rpe,weight_kg,ppg_a,ppg_b,ppg_c,ppg_d,ppg_e,ppg_f,ppg_g,ppg_h,ppg_i,ppg_j
2026-05-06 16:00:55.364886,531080,1609505518803448,3118715663,-1.104832,0.023424,-0.023424,-2.40625,0.06125,-1.715,41.024002,-40.24,-57.768,none,4,5.0,18573.0,24988.0,67471.0,76780.0,17722.0,33130.0,28105.0,43616.0,12736.0,9795.0
2026-05-06 16:00:55.377465,531081,1609505518812439,3118724402,-1.095072,0.021472,-0.00976,-1.56625,0.14875,-1.12,41.216003,-40.664,-57.680004,none,4,5.0,18573.0,24988.0,67471.0,76780.0,17722.0,33130.0,28105.0,43616.0,12736.0,9795.0
2026-05-06 16:00:55.379791,531082,1609505518827071,3118739446,-1.06384,0.042944,-0.044896,-1.16375,-0.21875,-0.63,41.216003,-40.664,-57.624004,none,4,5.0,18573.0,24988.0,67471.0,76780.0,17722.0,33130.0,28105.0,43616.0,12736.0,9795.0
2026-05-06 16:00:55.382519,531083,1609505518836136,3118748152,-1.077504,0.042944,-0.044896,-0.385,-0.665,0.00875,40.488003,-40.728,-57.624004,none,4,5.0,18573.0,24988.0,67471.0,76780.0,17722.0,33130.0,28105.0,43616.0,12736.0,9795.0
2026-05-06 16:00:55.385008,531084,1609505518850648,3118763055,-1.114592,0.03904,-0.0488,-0.4375,-0.3675,0.14,40.912003,-40.624,-57.640003,none,4,5.0,18573.0,24988.0,67471.0,76780.0,17722.0,33130.0,28105.0,43616.0,12736.0,9795.0
2026-05-06 16:00:55.387541,531085,1609505518859605,3118771756,-1.114592,0.03904,-0.0488,0.20125,-0.0525,-1.21625,40.912003,-40.624,-57.640003,none,4,5.0,18573.0,24988.0,67471.0,76780.0,17722.0,33130.0,28105.0,43616.0,12736.0,9795.0
2026-05-06 16:00:55.417346,531097,1609505518869160,3118780583,-1.091168,0.023424,-0.021472,-0.5425,-0.25375,-2.35375,40.56,-42.2,-57.152004,none,4,5.0,18573.0,24943.0,67434.0,76858.0,17715.0,33118.0,28096.0,43651.0,12713.0,9773.0
2026-05-06 16:00:55.444947,531098,1609505518883799,3118795578,-1.091168,0.023424,-0.021472,-1.365,-1.26875,-2.05625,40.56,-42.2,-57.152004,none,4,5.0,18573.0,24943.0,67434.0,76858.0,17715.0,33118.0,28096.0,43651.0,12713.0,9773.0
2026-05-06 16:00:55.447351,531099,1609505518892809,3118804312,-1.061888,0.02928,-0.003904,0.315,-1.575,-1.72375,40.392002,-43.256,-55.416004,none,4,5.0,18573.0,24943.0,67434.0,76858.0,17715.0,33118.0,28096.0,43651.0,12713.0,9773.0
2026-05-06 16:00:55.449836,531100,1609505518907336,3118819520,-1.061888,0.037088,-0.02928,2.40625,-1.53125,-2.30125,40.392002,-43.256,-55.416004,none,4,5.0,18573.0,24943.0,67434.0,76858.0,17715.0,33118.0,28096.0,43651.0,12713.0,9773.0
2026-05-06 16:00:55.454731,531101,1609505518916281,3118828234,-1.09312,0.037088,-0.02928,3.605,-0.805,-2.52875,40.528004,-40.896004,-57.704002,none,4,5.0,18573.0,24943.0,67434.0,76858.0,17715.0,33118.0,28096.0,43651.0,12713.0,9773.0
2026-05-06 16:00:55.457364,531102,1609505518925196,3118836937,-1.09312,0.037088,-0.02928,2.8,-0.5075,-3.605,40.528004,-40.896004,-57.704002,none,4,5.0,18573.0,24943.0,67434.0,76858.0,17715.0,33118.0,28096.0,43651.0,12713.0,9773.0
2026-05-06 16:00:55.463635,531103,1609505518939712,3118851857,-1.097024,0.052704,-0.031232,0.6475,-0.93625,-3.2025,40.84,-41.24,-57.896004,none,4,5.0,18573.0,24943.0,67434.0,76858.0,17715.0,33118.0,28096.0,43651.0,12713.0,9773.0
2026-05-06 16:00:55.472167,531104,1609505518948679,3118860635,-1.075552,0.033184,-0.013664,-1.015,-1.16375,-1.9075,40.616,-40.672,-58.440002,none,4,5.0,18573.0,24943.0,67434.0,76858.0,17715.0,33118.0,28096.0,43651.0,12713.0,9773.0
2026-05-06 16:00:55.485993,531105,1609505518963209,3118875567,-1.075552,0.033184,-0.013664,-3.29,-0.60375,-2.07375,40.616,-40.672,-58.440002,none,4,5.0,18573.0,24943.0,67434.0,76858.0,17715.0,33118.0,28096.0,43651.0,12713.0,9773.0
2026-05-06 16:00:55.515146,531116,1609505518972329,3118884319,-1.095072,0.005856,-0.035136,-3.2375,-0.06125,-3.1325,40.792004,-41.280003,-57.632004,none,4,5.0,18528.0,24871.0,67381.0,76845.0,17660.0,33045.0,28058.0,43662.0,12698.0,9752.0
2026-05-06 16:00:55.517221,531117,1609505518981438,3118893122,-1.095072,0.005856,-0.035136,-1.9075,-0.02625,-3.255,40.792004,-41.280003,-57.632004,none,4,5.0,18528.0,24871.0,67381.0,76845.0,17660.0,33045.0,28058.0,43662.0,12698.0,9752.0
2026-05-06 16:00:55.519668,531118,1609505518995958,3118908119,-1.089216,0.02928,-0.023424,-0.97125,-0.32375,-1.98625,40.52,-42.688004,-56.760002,none,4,5.0,18528.0,24871.0,67381.0,76845.0,17660.0,33045.0,28058.0,43662.0,12698.0,9752.0
2026-05-06 16:00:55.528446,531119,1609505519005038,3118916842,-1.089216,0.02928,-0.023424,-0.56,-0.09625,-1.015,40.52,-42.688004,-56.760002,none,4,5.0,18528.0,24871.0,67381.0,76845.0,17660.0,33045.0,28058.0,43662.0,12698.0,9752.0
2026-05-06 16:00:55.542207,531120,1609505519019719,3118931762,-1.075552,0.06832,-0.01952,0.06125,-0.20125,-1.12875,40.872,-40.952003,-57.608,none,4,5.0,18528.0,24871.0,67381.0,76845.0,17660.0,33045.0,28058.0,43662.0,12698.0,9752.0
2026-05-06 16:00:55.556013,531121,1609505519028662,3118940474,-1.087264,0.042944,-0.062464,-0.3325,-0.3675,-1.70625,40.872,-40.584003,-57.216003,none,4,5.0,18528.0,24871.0,67381.0,76845.0,17660.0,33045.0,28058.0,43662.0,12698.0,9752.0
2026-05-06 16:00:55.564801,531122,1609505519043171,3118955500,-1.087264,0.042944,-0.062464,-2.79125,0.28,-3.045,40.536003,-40.584003,-57.216003,none,4,5.0,18528.0,24871.0,67381.0,76845.0,17660.0,33045.0,28058.0,43662.0,12698.0,9752.0
2026-05-06 16:00:55.578657,531123,1609505519052132,3118964218,-1.098976,0.017568,-0.054656,-5.81,0.2975,-4.41875,40.552002,-40.456,-57.752003,none,4,5.0,18528.0,24871.0,67381.0,76845.0,17660.0,33045.0,28058.0,43662.0,12698.0,9752.0
2026-05-06 16:00:55.584843,531124,1609505519061058,3118972924,-1.098976,0.017568,-0.054656,-6.02875,0.56875,-4.5675,40.552002,-40.456,-57.752003,none,4,5.0,18528.0,24871.0,67381.0,76845.0,17660.0,33045.0,28058.0,43662.0,12698.0,9752.0
2026-05-06 16:00:55.613675,531135,1609505519075711,3118987914,-1.056032,0.023424,-0.01952,-4.725,0.5425,-3.85,40.848003,-41.008003,-57.872,none,4,5.0,18437.0,24833.0,67310.0,76843.0,17587.0,32979.0,28041.0,43680.0,12640.0,9726.0
2026-05-06 16:00:55.616143,531136,1609505519084672,3118996609,-1.056032,0.023424,-0.01952,-3.1325,0.62125,-2.86125,40.848003,-41.008003,-57.872,none,4,5.0,18437.0,24833.0,67310.0,76843.0,17587.0,32979.0,28041.0,43680.0,12640.0,9726.0
2026-05-06 16:00:55.624951,531137,1609505519099335,3119011563,-1.085312,0.035136,-0.046848,-2.89625,0.9275,-3.45625,40.688004,-44.112003,-55.624004,none,4,5.0,18437.0,24833.0,67310.0,76843.0,17587.0,32979.0,28041.0,43680.0,12640.0,9726.0
2026-05-06 16:00:55.631162,531138,1609505519108394,3119020318,-1.085312,0.035136,-0.046848,-3.36,1.5575,-5.32,40.688004,-44.112003,-55.624004,none,4,5.0,18437.0,24833.0,67310.0,76843.0,17587.0,32979.0,28041.0,43680.0,12640.0,9726.0
2026-05-06 16:00:55.639862,531139,1609505519117474,3119029045,-1.126304,0.035136,-0.074176,-3.5525,2.19625,-5.705,40.760002,-40.440002,-56.24,none,4,5.0,18437.0,24833.0,67310.0,76843.0,17587.0,32979.0,28041.0,43680.0,12640.0,9726.0
2026-05-06 16:00:55.673771,531140,1609505519132013,3119043995,-1.075552,0.042944,-0.011712,-3.01875,1.44375,-4.62,40.576,-40.392002,-57.872,none,4,5.0,18437.0,24833.0,67310.0,76843.0,17587.0,32979.0,28041.0,43680.0,12640.0,9726.0
2026-05-06 16:00:55.676086,531141,1609505519141487,3119053282,-1.075552,0.042944,-0.011712,-2.7825,0.81375,-2.8875,40.576,-40.392002,-57.872,none,4,5.0,18437.0,24833.0,67310.0,76843.0,17587.0,32979.0,28041.0,43680.0,12640.0,9726.0
2026-05-06 16:00:55.678539,531142,1609505519155989,3119068202,-1.087264,0.033184,-0.040992,-2.03,1.0325,-3.36875,40.872,-40.616,-55.848003,none,4,5.0,18437.0,24833.0,67310.0,76843.0,17587.0,32979.0,28041.0,43680.0,12640.0,9726.0
2026-05-06 16:00:55.708755,531143,1609505519164963,3119076922,-1.087264,0.033184,-0.040992,-1.8025,1.35625,-4.20875,40.872,-40.616,-55.848003,none,4,5.0,18437.0,24833.0,67310.0,76843.0,17587.0,32979.0,28041.0,43680.0,12640.0,9726.0
2026-05-06 16:00:55.781668,531154,1609505519174040,3119086081,-1.124352,0.025376,-0.021472,-0.93625,1.68875,-5.03125,40.776,-40.952003,-58.144,none,4,5.0,18418.0,24781.0,67226.0,76754.0,17583.0,32954.0,28022.0,43631.0,12617.0,9712.0
2026-05-06 16:00:55.783134,531155,1609505519188516,3119101010,-1.124352,0.025376,-0.021472,-1.56625,1.46125,-4.55,40.776,-40.952003,-58.144,none,4,5.0,18418.0,24781.0,67226.0,76754.0,17583.0,32954.0,28022.0,43631.0,12617.0,9712.0
2026-05-06 16:00:55.785861,531156,1609505519197602,3119109732,-1.069696,0.021472,-0.042944,-1.575,1.23375,-2.63375,40.800003,-40.696003,-56.992004,none,4,5.0,18418.0,24781.0,67226.0,76754.0,17583.0,32954.0,28022.0,43631.0,12617.0,9712.0
2026-05-06 16:00:55.787324,531157,1609505519212099,3119124689,-1.081408,0.044896,-0.005856,-1.61,1.18125,-2.03,40.896004,-40.592003,-57.872,none,4,5.0,18418.0,24781.0,67226.0,76754.0,17583.0,32954.0,28022.0,43631.0,12617.0,9712.0
2026-05-06 16:00:55.789726,531158,1609505519221104,3119133402,-1.081408,0.044896,-0.005856,-1.4175,1.21625,-3.35125,40.896004,-40.592003,-57.872,none,4,5.0,18418.0,24781.0,67226.0,76754.0,17583.0,32954.0,28022.0,43631.0,12617.0,9712.0
2026-05-06 16:00:55.792247,531159,1609505519235584,3119148297,-1.089216,0.033184,-0.015616,0.14875,1.96,-4.20875,41.000004,-40.184002,-58.04,none,4,5.0,18418.0,24781.0,67226.0,76754.0,17583.0,32954.0,28022.0,43631.0,12617.0,9712.0
2026-05-06 16:00:55.794773,531160,1609505519244530,3119157046,-1.089216,0.033184,-0.015616,0.0175,1.9075,-3.61375,41.000004,-40.184002,-58.04,none,4,5.0,18418.0,24781.0,67226.0,76754.0,17583.0,32954.0,28022.0,43631.0,12617.0,9712.0
2026-05-06 16:00:55.797283,531161,1609505519253582,3119165828,-1.067744,0.042944,-0.056608,-1.21625,1.40875,-2.7125,41.056004,-40.936,-57.928,none,4,5.0,18418.0,24781.0,67226.0,76754.0,17583.0,32954.0,28022.0,43631.0,12617.0,9712.0
2026-05-06 16:00:55.825126,531172,1609505519268131,3119180699,-1.067744,0.042944,-0.056608,-1.77625,1.84625,-2.56375,41.056004,-40.936,-57.928,none,4,5.0,18467.0,24815.0,67287.0,76753.0,17615.0,32986.0,28018.0,43627.0,12659.0,9751.0
2026-05-06 16:00:55.827541,531173,1609505519277136,3119189577,-1.1224,0.027328,-0.06832,-3.4125,2.56375,-4.10375,40.992,-42.136,-58.336002,none,4,5.0,18467.0,24815.0,67287.0,76753.0,17615.0,32986.0,28018.0,43627.0,12659.0,9751.0
2026-05-06 16:00:55.830261,531174,1609505519291724,3119202558,-1.077504,0.017568,-0.01952,-3.42125,2.975,-5.17125,40.856003,-42.4,-56.752003,none,4,5.0,18467.0,24815.0,67287.0,76753.0,17615.0,32986.0,28018.0,43627.0,12659.0,9751.0
2026-05-06 16:00:55.832696,531175,1609505519301218,3119213360,-1.077504,0.017568,-0.01952,-2.09125,2.3625,-3.98125,40.856003,-42.4,-56.752003,none,4,5.0,18467.0,24815.0,67287.0,76753.0,17615.0,32986.0,28018.0,43627.0,12659.0,9751.0
2026-05-06 16:00:55.835088,531176,1609505519310284,3119222066,-1.077504,0.017568,-0.042944,0.18375,2.16125,-3.0975,40.856003,-42.4,-56.752003,none,4,5.0,18467.0,24815.0,67287.0,76753.0,17615.0,32986.0,28018.0,43627.0,12659.0,9751.0
2026-05-06 16:00:55.848752,531177,1609505519324795,3119237009,-1.048224,0.01952,-0.042944,2.4325,2.58125,-3.92,40.800003,-42.128002,-59.04,none,4,5.0,18467.0,24815.0,67287.0,76753.0,17615.0,32986.0,28018.0,43627.0,12659.0,9751.0
2026-05-06 16:00:55.857581,531178,1609505519333720,3119245751,-1.100928,0.03904,-0.060512,1.7675,2.86125,-6.16875,41.024002,-40.248,-58.200005,none,4,5.0,18467.0,24815.0,67287.0,76753.0,17615.0,32986.0,28018.0,43627.0,12659.0,9751.0
2026-05-06 16:00:55.873767,531179,1609505519348234,3119260694,-1.100928,0.03904,-0.060512,0.21,3.0275,-6.405,41.024002,-40.248,-58.200005,none,4,5.0,18467.0,24815.0,67287.0,76753.0,17615.0,32986.0,28018.0,43627.0,12659.0,9751.0
2026-05-06 16:00:55.883031,531180,1609505519357140,3119269400,-1.091168,0.042944,-0.054656,-1.05,3.045,-5.11875,40.960003,-40.440002,-58.288002,none,4,5.0,18467.0,24815.0,67287.0,76753.0,17615.0,32986.0,28018.0,43627.0,12659.0,9751.0
2026-05-06 16:00:55.916449,531191,1609505519372137,3119284367,-1.065792,0.015616,-0.042944,-3.15875,2.93125,-4.34,41.248,-40.368,-58.448,none,4,5.0,18430.0,24779.0,67292.0,76730.0,17598.0,32962.0,28064.0,43623.0,12651.0,9732.0
2026-05-06 16:00:55.918933,531192,1609505519381157,3119293131,-1.065792,0.015616,-0.042944,-4.71625,3.00125,-4.24375,41.248,-40.368,-58.448,none,4,5.0,18430.0,24779.0,67292.0,76730.0,17598.0,32962.0,28064.0,43623.0,12651.0,9732.0
2026-05-06 16:00:55.921450,531193,1609505519390328,3119301828,-1.065792,0.015616,-0.042944,-4.48,3.3075,-5.36375,41.248,-40.368,-58.448,none,4,5.0,18430.0,24779.0,67292.0,76730.0,17598.0,32962.0,28064.0,43623.0,12651.0,9732.0
2026-05-06 16:00:55.927593,531194,1609505519404949,3119316827,-1.075552,0.011712,-0.035136,-1.96,3.50875,-5.075,41.176003,-43.664,-56.480003,none,4,5.0,18430.0,24779.0,67292.0,76730.0,17598.0,32962.0,28064.0,43623.0,12651.0,9732.0
2026-05-06 16:00:55.941332,531195,1609505519413878,3119325529,-1.081408,0.044896,-0.042944,-0.245,3.45625,-5.0925,41.224003,-40.36,-58.064003,none,4,5.0,18430.0,24779.0,67292.0,76730.0,17598.0,32962.0,28064.0,43623.0,12651.0,9732.0
2026-05-06 16:00:55.943892,531196,1609505519422850,3119334370,-1.081408,0.044896,-0.042944,0.51625,2.8875,-4.34875,41.224003,-40.36,-58.064003,none,4,5.0,18430.0,24779.0,67292.0,76730.0,17598.0,32962.0,28064.0,43623.0,12651.0,9732.0
2026-05-06 16:00:55.977266,531197,1609505519437350,3119349320,-1.05408,0.037088,-0.050752,-1.085,3.2725,-4.9175,41.408,-40.504,-58.368004,none,4,5.0,18430.0,24779.0,67292.0,76730.0,17598.0,32962.0,28064.0,43623.0,12651.0,9732.0
2026-05-06 16:00:55.979698,531198,1609505519446263,3119358047,-1.05408,0.037088,-0.050752,-4.165,3.85875,-5.565,41.408,-40.504,-58.368004,none,4,5.0,18430.0,24779.0,67292.0,76730.0,17598.0,32962.0,28064.0,43623.0,12651.0,9732.0
2026-05-06 16:00:55.986146,531199,1609505519460910,3119372954,-1.081408,0.01952,-0.052704,-6.475,4.54125,-6.37875,41.648003,-40.608,-58.464005,none,4,5.0,18430.0,24779.0,67292.0,76730.0,17598.0,32962.0,28064.0,43623.0,12651.0,9732.0
2026-05-06 16:00:56.017562,531210,1609505519469898,3119381841,-1.081408,0.01952,-0.052704,-6.69375,4.61125,-7.245,41.648003,-40.608,-58.464005,none,4,5.0,18463.0,24775.0,67286.0,76732.0,17623.0,32973.0,28054.0,43626.0,12664.0,9736.0
2026-05-06 16:00:56.020075,531211,1609505519484519,3119396857,-1.09312,0.015616,-0.062464,-6.51,4.29625,-7.28,41.352,-42.312,-56.864002,none,4,5.0,18463.0,24775.0,67286.0,76732.0,17623.0,32973.0,28054.0,43626.0,12664.0,9736.0
2026-05-06 16:00:56.022452,531212,1609505519493580,3119405648,-1.061888,0.033184,-0.042944,-5.29375,4.57625,-6.36125,41.816,-41.776,-58.872,none,4,5.0,18463.0,24775.0,67286.0,76732.0,17623.0,32973.0,28054.0,43626.0,12664.0,9736.0
2026-05-06 16:00:56.025189,531213,1609505519502509,3119414367,-1.061888,0.033184,-0.042944,-3.6225,4.48875,-5.41625,41.816,-41.776,-58.872,none,4,5.0,18463.0,24775.0,67286.0,76732.0,17623.0,32973.0,28054.0,43626.0,12664.0,9736.0
2026-05-06 16:00:56.072349,531214,1609505519517031,3119429284,-1.077504,0.040992,-0.031232,-2.51125,4.7775,-6.16875,41.84,-40.592003,-58.768,none,4,5.0,18463.0,24775.0,67286.0,76732.0,17623.0,32973.0,28054.0,43626.0,12664.0,9736.0
2026-05-06 16:00:56.097520,531215,1609505519525960,3119438024,-1.077504,0.040992,-0.031232,-2.835,5.04875,-6.74625,41.84,-40.592003,-58.768,none,4,5.0,18463.0,24775.0,67286.0,76732.0,17623.0,32973.0,28054.0,43626.0,12664.0,9736.0
2026-05-06 16:00:56.122503,531216,1609505519540475,3119452898,-1.085312,0.03904,-0.093696,-4.235,5.43375,-7.28875,42.008003,-40.128002,-58.408,none,4,5.0,18463.0,24775.0,67286.0,76732.0,17623.0,32973.0,28054.0,43626.0,12664.0,9736.0
2026-05-06 16:00:56.142493,531217,1609505519549435,3119461608,-1.085312,0.03904,-0.093696,-5.25875,5.48625,-7.04375,42.008003,-40.128002,-58.408,concentric,4,5.0,18463.0,24775.0,67286.0,76732.0,17623.0,32973.0,28054.0,43626.0,12664.0,9736.0
2026-05-06 16:00:56.146664,531218,1609505519563943,3119476558,-1.0736,0.015616,-0.040992,-7.14,5.1625,-7.07875,41.872,-40.36,-58.04,concentric,4,5.0,18463.0,24775.0,67286.0,76732.0,17623.0,32973.0,28054.0,43626.0,12664.0,9736.0
2026-05-06 16:00:56.172507,531229,1609505519573330,3119485309,-1.052128,0.001952,-0.042944,-9.38,5.06625,-7.09625,41.944,-40.304,-57.24,concentric,4,5.0,18478.0,24782.0,67336.0,76789.0,17657.0,32995.0,28074.0,43643.0,12684.0,9756.0
2026-05-06 16:00:56.177346,531230,1609505519582362,3119494154,-1.052128,0.001952,-0.042944,-8.37375,5.08375,-6.16875,41.944,-40.304,-57.24,concentric,4,5.0,18478.0,24782.0,67336.0,76789.0,17657.0,32995.0,28074.0,43643.0,12684.0,9756.0
2026-05-06 16:00:56.179795,531231,1609505519596838,3119509079,-1.120448,0.01952,-0.066368,-7.455,5.1975,-5.9675,41.792004,-40.368,-58.480003,concentric,4,5.0,18478.0,24782.0,67336.0,76789.0,17657.0,32995.0,28074.0,43643.0,12684.0,9756.0
2026-05-06 16:00:56.182198,531232,1609505519605767,3119517908,-1.120448,0.01952,-0.066368,-9.38,5.005,-5.985,41.792004,-40.368,-58.480003,concentric,4,5.0,18478.0,24782.0,67336.0,76789.0,17657.0,32995.0,28074.0,43643.0,12684.0,9756.0
2026-05-06 16:00:56.184594,531233,1609505519620340,3119532919,-1.106784,0.021472,-0.074176,-9.6075,4.55875,-6.1075,41.672,-40.0,-58.056004,concentric,4,5.0,18478.0,24782.0,67336.0,76789.0,17657.0,32995.0,28074.0,43643.0,12684.0,9756.0
2026-05-06 16:00:56.187226,531234,1609505519629502,3119541630,-1.106784,0.021472,-0.074176,-8.77625,4.61125,-5.43375,41.672,-40.0,-58.056004,concentric,4,5.0,18478.0,24782.0,67336.0,76789.0,17657.0,32995.0,28074.0,43643.0,12684.0,9756.0
2026-05-06 16:00:56.189720,531235,1609505519638616,3119550392,-1.120448,0.005856,-0.11712,-9.1,4.62875,-4.655,41.824,-41.992,-57.432003,concentric,4,5.0,18478.0,24782.0,67336.0,76789.0,17657.0,32995.0,28074.0,43643.0,12684.0,9756.0
2026-05-06 16:00:56.196049,531236,1609505519653280,3119565411,-1.13216,-0.003904,-0.080032,-10.386251,4.8825,-4.92625,41.824,-41.992,-58.696003,concentric,4,5.0,18478.0,24782.0,67336.0,76789.0,17657.0,32995.0,28074.0,43643.0,12684.0,9756.0
2026-05-06 16:00:56.198479,531237,1609505519662263,3119574294,-1.13216,-0.003904,-0.080032,-9.59875,4.73375,-4.99625,41.872,-41.640003,-58.696003,concentric,4,5.0,18478.0,24782.0,67336.0,76789.0,17657.0,32995.0,28074.0,43643.0,12684.0,9756.0
2026-05-06 16:00:56.226404,531248,1609505519676988,3119589337,-1.116544,0.005856,-0.06832,-9.09125,4.27,-4.795,42.056004,-40.280003,-58.120003,concentric,4,5.0,18418.0,24666.0,67214.0,76768.0,17605.0,32896.0,28017.0,43651.0,12665.0,9708.0
2026-05-06 16:00:56.228915,531249,1609505519686075,3119598091,-1.116544,0.005856,-0.06832,-11.13875,4.6025,-3.535,42.056004,-40.280003,-58.120003,concentric,4,5.0,18418.0,24666.0,67214.0,76768.0,17605.0,32896.0,28017.0,43651.0,12665.0,9708.0
2026-05-06 16:00:56.231468,531250,1609505519695099,3119606829,-1.14192,0.013664,-0.132736,-10.64,4.94375,-2.70375,41.728,-41.656002,-54.120003,concentric,4,5.0,18418.0,24666.0,67214.0,76768.0,17605.0,32896.0,28017.0,43651.0,12665.0,9708.0
2026-05-06 16:00:56.233935,531251,1609505519709913,3119621866,-1.14192,0.013664,-0.132736,-9.72125,4.3225,-2.9575,41.728,-41.656002,-54.120003,concentric,4,5.0,18418.0,24666.0,67214.0,76768.0,17605.0,32896.0,28017.0,43651.0,12665.0,9708.0
2026-05-06 16:00:56.242477,531252,1609505519719001,3119630674,-1.147776,0.0,-0.064416,-10.85875,4.5325,-2.66875,41.584003,-42.84,-55.704002,concentric,4,5.0,18418.0,24666.0,67214.0,76768.0,17605.0,32896.0,28017.0,43651.0,12665.0,9708.0
2026-05-06 16:00:56.256116,531253,1609505519733488,3119645636,-1.147776,0.0,-0.074176,-12.2675,4.71625,-1.995,41.584003,-42.84,-55.704002,concentric,4,5.0,18418.0,24666.0,67214.0,76768.0,17605.0,32896.0,28017.0,43651.0,12665.0,9708.0
2026-05-06 16:00:56.264745,531254,1609505519742406,3119654342,-1.08336,-0.031232,-0.074176,-11.55875,4.54125,-0.3675,41.736004,-40.432003,-58.320004,concentric,4,5.0,18418.0,24666.0,67214.0,76768.0,17605.0,32896.0,28017.0,43651.0,12665.0,9708.0
2026-05-06 16:00:56.276015,531255,1609505519751324,3119663092,-1.08336,-0.031232,-0.074176,-8.21625,4.2525,0.245,41.736004,-40.432003,-58.320004,concentric,4,5.0,18418.0,24666.0,67214.0,76768.0,17605.0,32896.0,28017.0,43651.0,12665.0,9708.0
2026-05-06 16:00:56.289882,531256,1609505519765835,3119678113,-1.09312,0.003904,-0.095648,-4.64625,4.235,0.7,41.856003,-40.120003,-58.144,concentric,4,5.0,18418.0,24666.0,67214.0,76768.0,17605.0,32896.0,28017.0,43651.0,12665.0,9708.0
2026-05-06 16:00:56.321491,531267,1609505519774809,3119686976,-1.104832,0.02928,-0.080032,-3.9725,4.3925,1.4,41.904003,-40.248,-57.968002,concentric,4,5.0,18489.0,24739.0,67257.0,76856.0,17685.0,32977.0,28031.0,43698.0,12695.0,9750.0
2026-05-06 16:00:56.323682,531268,1609505519789450,3119701936,-1.104832,0.02928,-0.080032,-4.6725,4.26125,1.09375,41.904003,-40.248,-57.968002,concentric,4,5.0,18489.0,24739.0,67257.0,76856.0,17685.0,32977.0,28031.0,43698.0,12695.0,9750.0
2026-05-06 16:00:56.326450,531269,1609505519798467,3119710698,-1.10288,0.025376,-0.066368,-4.62,3.63125,0.97125,41.68,-41.928,-57.152004,concentric,4,5.0,18489.0,24739.0,67257.0,76856.0,17685.0,32977.0,28031.0,43698.0,12695.0,9750.0
2026-05-06 16:00:56.342554,531270,1609505519813043,3119725639,-1.10288,0.025376,-0.066368,-4.9,3.07125,0.21875,41.68,-41.928,-57.152004,concentric,4,5.0,18489.0,24739.0,67257.0,76856.0,17685.0,32977.0,28031.0,43698.0,12695.0,9750.0
2026-05-06 16:00:56.346041,531271,1609505519821957,3119734439,-1.057984,0.02928,-0.046848,-4.27,2.33625,-0.2275,41.624,-41.744003,-58.552002,concentric,4,5.0,18489.0,24739.0,67257.0,76856.0,17685.0,32977.0,28031.0,43698.0,12695.0,9750.0
2026-05-06 16:00:56.354703,531272,1609505519830903,3119743195,-1.057984,0.02928,-0.046848,-2.51125,2.065,-0.49875,41.624,-41.744003,-58.552002,concentric,4,5.0,18489.0,24739.0,67257.0,76856.0,17685.0,32977.0,28031.0,43698.0,12695.0,9750.0
2026-05-06 16:00:56.368829,531273,1609505519845394,3119758152,-1.057984,0.0488,-0.072224,-0.77875,1.91625,-1.23375,42.2,-40.592003,-58.224003,concentric,4,5.0,18489.0,24739.0,67257.0,76856.0,17685.0,32977.0,28031.0,43698.0,12695.0,9750.0
2026-05-06 16:00:56.377628,531274,1609505519854367,3119766860,-1.057984,0.0488,-0.066368,-1.5225,1.74125,-2.49375,42.2,-40.592003,-58.224003,concentric,4,5.0,18489.0,24739.0,67257.0,76856.0,17685.0,32977.0,28031.0,43698.0,12695.0,9750.0
2026-05-06 16:00:56.391162,531275,1609505519868877,3119779709,-1.071648,0.031232,-0.066368,-2.94875,1.37375,-3.7975,41.776,-39.968002,-59.264004,concentric,4,5.0,18489.0,24739.0,67257.0,76856.0,17685.0,32977.0,28031.0,43698.0,12695.0,9750.0
2026-05-06 16:00:56.466495,531286,1609505519878312,3119790628,-1.028704,-0.013664,-0.042944,-5.04875,0.77,-3.8325,41.504,-40.664,-58.064003,concentric,4,5.0,18496.0,24760.0,67249.0,76822.0,17680.0,32997.0,28060.0,43668.0,12698.0,9760.0
2026-05-06 16:00:56.481446,531287,1609505519887301,3119799365,-1.028704,-0.013664,-0.042944,-6.72875,0.1925,-4.1825,41.504,-40.664,-58.064003,concentric,4,5.0,18496.0,24760.0,67249.0,76822.0,17680.0,32997.0,28060.0,43668.0,12698.0,9760.0
2026-05-06 16:00:56.483958,531288,1609505519901921,3119814505,-1.036512,-0.027328,-0.06832,-6.685,0.0875,-4.375,42.000004,-40.112003,-57.832005,concentric,4,5.0,18496.0,24760.0,67249.0,76822.0,17680.0,32997.0,28060.0,43668.0,12698.0,9760.0
2026-05-06 16:00:56.486460,531289,1609505519910978,3119823236,-1.036512,-0.027328,-0.06832,-4.4625,-0.035,-4.59375,42.000004,-40.112003,-57.832005,concentric,4,5.0,18496.0,24760.0,67249.0,76822.0,17680.0,32997.0,28060.0,43668.0,12698.0,9760.0
2026-05-06 16:00:56.488924,531290,1609505519925471,3119838254,-1.04432,0.00976,-0.042944,-1.9775,0.25375,-4.375,41.712,-40.376003,-58.256004,concentric,4,5.0,18496.0,24760.0,67249.0,76822.0,17680.0,32997.0,28060.0,43668.0,12698.0,9760.0
2026-05-06 16:00:56.491122,531291,1609505519934418,3119846957,-1.04432,0.00976,-0.042944,-0.51625,0.105,-3.61375,41.712,-40.376003,-58.256004,concentric,4,5.0,18496.0,24760.0,67249.0,76822.0,17680.0,32997.0,28060.0,43668.0,12698.0,9760.0
2026-05-06 16:00:56.493934,531292,1609505519948934,3119859801,-1.020896,0.025376,-0.060512,-2.6775,0.46375,-2.93125,41.584003,-39.856003,-58.08,concentric,4,5.0,18496.0,24760.0,67249.0,76822.0,17680.0,32997.0,28060.0,43668.0,12698.0,9760.0
2026-05-06 16:00:56.500197,531293,1609505519958373,3119870649,-1.016992,-0.003904,-0.093696,-5.4425,0.90125,-3.75375,42.032,-40.128002,-58.128002,concentric,4,5.0,18496.0,24760.0,67249.0,76822.0,17680.0,32997.0,28060.0,43668.0,12698.0,9760.0
2026-05-06 16:00:56.502749,531294,1609505519967297,3119879381,-1.016992,-0.003904,-0.093696,-7.1925,1.6275,-5.4075,42.032,-40.128002,-58.128002,concentric,4,5.0,18496.0,24760.0,67249.0,76822.0,17680.0,32997.0,28060.0,43668.0,12698.0,9760.0
2026-05-06 16:00:56.532068,531305,1609505519982369,3119894450,-1.00528,0.005856,-0.040992,-7.67375,2.1,-6.23875,41.88,-41.752003,-56.712,concentric,4,5.0,18519.0,24781.0,67292.0,76719.0,17710.0,33037.0,28073.0,43601.0,12728.0,9779.0
2026-05-06 16:00:56.532240,531306,1609505519991357,3119903232,-1.00528,0.005856,-0.040992,-5.88875,2.19625,-5.62625,41.88,-41.752003,-56.712,concentric,4,5.0,18519.0,24781.0,67292.0,76719.0,17710.0,33037.0,28073.0,43601.0,12728.0,9779.0
2026-05-06 16:00:56.534780,531307,1609505520000563,3119912034,-1.016992,0.027328,-0.080032,-5.48625,2.6775,-5.635,41.752003,-41.944,-56.896004,concentric,4,5.0,18519.0,24781.0,67292.0,76719.0,17710.0,33037.0,28073.0,43601.0,12728.0,9779.0
2026-05-06 16:00:56.537495,531308,1609505520015113,3119926956,-1.016992,0.027328,-0.080032,-9.730001,2.80875,-7.37625,41.752003,-41.944,-56.896004,concentric,4,5.0,18519.0,24781.0,67292.0,76719.0,17710.0,33037.0,28073.0,43601.0,12728.0,9779.0
2026-05-06 16:00:56.546395,531309,1609505520024074,3119935696,-1.013088,0.011712,-0.095648,-13.76375,3.87625,-8.9425,42.264004,-40.096,-57.352,concentric,4,5.0,18519.0,24781.0,67292.0,76719.0,17710.0,33037.0,28073.0,43601.0,12728.0,9779.0
2026-05-06 16:00:56.580246,531310,1609505520038670,3119950608,-0.999424,-0.001952,-0.072224,-15.05,4.43625,-9.555,42.248,-39.904003,-57.608,concentric,4,5.0,18519.0,24781.0,67292.0,76719.0,17710.0,33037.0,28073.0,43601.0,12728.0,9779.0
2026-05-06 16:00:56.582686,531311,1609505520047573,3119959371,-0.999424,-0.001952,-0.072224,-14.88375,4.54125,-9.765,42.248,-39.904003,-57.608,concentric,4,5.0,18519.0,24781.0,67292.0,76719.0,17710.0,33037.0,28073.0,43601.0,12728.0,9779.0
2026-05-06 16:00:56.585193,531312,1609505520062085,3119974278,-0.983808,0.005856,-0.07808,-14.00875,4.82125,-9.345,42.36,-39.536003,-57.440002,concentric,4,5.0,18519.0,24781.0,67292.0,76719.0,17710.0,33037.0,28073.0,43601.0,12728.0,9779.0
2026-05-06 16:00:56.598952,531313,1609505520071209,3119983015,-0.983808,0.005856,-0.07808,-14.595,5.6175,-9.073751,42.36,-39.536003,-57.440002,concentric,4,5.0,18519.0,24781.0,67292.0,76719.0,17710.0,33037.0,28073.0,43601.0,12728.0,9779.0
2026-05-06 16:00:56.631301,531324,1609505520080307,3119991770,-0.99552,-0.021472,-0.080032,-16.42375,6.3175,-9.66875,42.72,-40.136,-57.208004,concentric,4,5.0,18643.0,24893.0,67390.0,76597.0,17790.0,33133.0,28139.0,43504.0,12774.0,9841.0
2026-05-06 16:00:56.631419,531325,1609505520094985,3120006847,-0.99552,-0.021472,-0.080032,-19.95,7.0175,-10.5525,42.72,-40.136,-57.208004,concentric,4,5.0,18643.0,24893.0,67390.0,76597.0,17790.0,33133.0,28139.0,43504.0,12774.0,9841.0
2026-05-06 16:00:56.633616,531326,1609505520103994,3120015596,-0.999424,-0.023424,-0.08784,-21.95375,8.58375,-10.2025,42.664,-41.928,-56.552002,concentric,4,5.0,18643.0,24893.0,67390.0,76597.0,17790.0,33133.0,28139.0,43504.0,12774.0,9841.0
2026-05-06 16:00:56.642585,531327,1609505520118571,3120030621,-0.976,0.011712,-0.10736,-21.83125,8.75,-9.72125,43.064003,-40.944,-54.592003,concentric,4,5.0,18643.0,24893.0,67390.0,76597.0,17790.0,33133.0,28139.0,43504.0,12774.0,9841.0
2026-05-06 16:00:56.651719,531328,1609505520127476,3120039343,-0.976,0.011712,-0.10736,-20.1775,8.46125,-9.31,43.064003,-40.944,-54.592003,concentric,4,5.0,18643.0,24893.0,67390.0,76597.0,17790.0,33133.0,28139.0,43504.0,12774.0,9841.0
2026-05-06 16:00:56.660447,531329,1609505520136519,3120048051,-0.976,0.011712,-0.148352,-16.616251,8.30375,-9.49375,43.064003,-40.944,-54.592003,concentric,4,5.0,18643.0,24893.0,67390.0,76597.0,17790.0,33133.0,28139.0,43504.0,12774.0,9841.0
2026-05-06 16:00:56.673757,531330,1609505520151072,3120063060,-1.011136,0.0,-0.148352,-13.58,7.8575,-10.0275,43.136,-41.08,-55.576004,concentric,4,5.0,18643.0,24893.0,67390.0,76597.0,17790.0,33133.0,28139.0,43504.0,12774.0,9841.0
2026-05-06 16:00:56.683020,531331,1609505520160247,3120071785,-0.991616,-0.033184,-0.099552,-13.405,6.95625,-9.3975,43.272003,-38.984,-57.160004,concentric,4,5.0,18643.0,24893.0,67390.0,76597.0,17790.0,33133.0,28139.0,43504.0,12774.0,9841.0
2026-05-06 16:00:56.754091,531342,1609505520175096,3120086683,-0.991616,-0.033184,-0.099552,-16.70375,6.64125,-8.2425,43.272003,-38.984,-57.160004,concentric,4,5.0,18762.0,25035.0,67500.0,76693.0,17919.0,33293.0,28206.0,43548.0,12899.0,9917.0
2026-05-06 16:00:56.756166,531343,1609505520184192,3120095492,-0.931104,-0.027328,-0.080032,-17.535,6.83375,-6.825,43.840004,-39.616,-57.584003,concentric,4,5.0,18762.0,25035.0,67500.0,76693.0,17919.0,33293.0,28206.0,43548.0,12899.0,9917.0
2026-05-06 16:00:56.759069,531344,1609505520193146,3120104220,-0.931104,-0.027328,-0.080032,-15.95125,7.79625,-6.0725,43.840004,-39.616,-57.584003,concentric,4,5.0,18762.0,25035.0,67500.0,76693.0,17919.0,33293.0,28206.0,43548.0,12899.0,9917.0
2026-05-06 16:00:56.761548,531345,1609505520207956,3120119168,-0.972096,-0.011712,-0.130784,-14.69125,9.24,-6.32625,44.064003,-39.04,-56.680004,concentric,4,5.0,18762.0,25035.0,67500.0,76693.0,17919.0,33293.0,28206.0,43548.0,12899.0,9917.0
2026-05-06 16:00:56.764105,531346,1609505520217354,3120129974,-0.972096,0.027328,-0.081984,-13.55375,10.08,-6.7725,44.064003,-39.04,-58.728004,concentric,4,5.0,18762.0,25035.0,67500.0,76693.0,17919.0,33293.0,28206.0,43548.0,12899.0,9917.0
2026-05-06 16:00:56.766615,531347,1609505520232088,3120142922,-1.028704,0.027328,-0.081984,-11.445,9.03,-9.21375,44.288002,-39.2,-57.88,concentric,4,5.0,18762.0,25035.0,67500.0,76693.0,17919.0,33293.0,28206.0,43548.0,12899.0,9917.0
2026-05-06 16:00:56.769171,531348,1609505520241583,3120153764,-1.00528,0.056608,-0.091744,-8.785,8.93375,-10.605001,44.232002,-39.176003,-56.992004,concentric,4,5.0,18762.0,25035.0,67500.0,76693.0,17919.0,33293.0,28206.0,43548.0,12899.0,9917.0
2026-05-06 16:00:56.772407,531349,1609505520250651,3120162599,-1.00528,0.056608,-0.091744,-8.6625,8.51375,-9.59,44.232002,-39.176003,-56.992004,concentric,4,5.0,18762.0,25035.0,67500.0,76693.0,17919.0,33293.0,28206.0,43548.0,12899.0,9917.0
2026-05-06 16:00:56.806311,531350,1609505520265159,3120177528,-0.96624,0.066368,-0.046848,-11.0775,7.56,-9.765,44.416,-40.488003,-56.856003,concentric,4,5.0,18762.0,25035.0,67500.0,76693.0,17919.0,33293.0,28206.0,43548.0,12899.0,9917.0
2026-05-06 16:00:56.881652,531361,1609505520274106,3120186299,-0.96624,0.066368,-0.046848,-12.9675,7.23625,-11.38375,44.416,-40.488003,-56.856003,concentric,4,5.0,19239.0,25613.0,67899.0,77327.0,18400.0,33978.0,28423.0,43875.0,13206.0,10246.0
2026-05-06 16:00:56.884259,531362,1609505520288848,3120201241,-1.011136,0.011712,-0.093696,-13.71125,7.9275,-14.28875,45.112003,-39.0,-56.584003,concentric,4,5.0,19239.0,25613.0,67899.0,77327.0,18400.0,33978.0,28423.0,43875.0,13206.0,10246.0
2026-05-06 16:00:56.886760,531363,1609505520297732,3120209924,-1.011136,-0.035136,-0.163968,-15.35625,7.7175,-19.145,45.112003,-39.0,-56.584003,concentric,4,5.0,19239.0,25613.0,67899.0,77327.0,18400.0,33978.0,28423.0,43875.0,13206.0,10246.0
2026-05-06 16:00:56.888815,531364,1609505520306777,3120218821,-1.116544,-0.044896,-0.163968,-14.39375,7.6475,-20.4225,45.384003,-38.712,-56.784004,concentric,4,5.0,19239.0,25613.0,67899.0,77327.0,18400.0,33978.0,28423.0,43875.0,13206.0,10246.0
2026-05-06 16:00:56.891254,531365,1609505520321436,3120233879,-1.081408,-0.015616,-0.064416,-11.042501,6.5275,-17.9725,45.824,-38.496002,-56.56,concentric,4,5.0,19239.0,25613.0,67899.0,77327.0,18400.0,33978.0,28423.0,43875.0,13206.0,10246.0
2026-05-06 16:00:56.894212,531366,1609505520330399,3120242589,-1.081408,-0.015616,-0.064416,-9.1525,5.34625,-14.1925,45.824,-38.496002,-56.56,concentric,4,5.0,19239.0,25613.0,67899.0,77327.0,18400.0,33978.0,28423.0,43875.0,13206.0,10246.0
2026-05-06 16:00:56.896738,531367,1609505520344900,3120257615,-1.095072,0.03904,-0.0976,-1.67125,4.13875,-10.54375,45.88,-38.392002,-56.360004,concentric,4,5.0,19239.0,25613.0,67899.0,77327.0,18400.0,33978.0,28423.0,43875.0,13206.0,10246.0
2026-05-06 16:00:56.899245,531368,1609505520353915,3120266392,-1.095072,0.03904,-0.0976,-1.645,4.2175,-10.80625,45.88,-38.392002,-56.360004,concentric,4,5.0,19239.0,25613.0,67899.0,77327.0,18400.0,33978.0,28423.0,43875.0,13206.0,10246.0
2026-05-06 16:00:56.901507,531369,1609505520362890,3120275285,-1.1224,0.023424,-0.099552,-5.355,4.69875,-13.1425,46.296,-40.600002,-54.264004,concentric,4,5.0,19239.0,25613.0,67899.0,77327.0,18400.0,33978.0,28423.0,43875.0,13206.0,10246.0
2026-05-06 16:00:56.932518,531380,1609505520378085,3120290340,-1.1224,0.023424,-0.099552,-9.30125,4.3925,-14.28875,46.296,-40.600002,-54.264004,concentric,4,5.0,19290.0,25734.0,68052.0,77514.0,18458.0,34126.0,28482.0,43959.0,13230.0,10307.0
2026-05-06 16:00:56.935334,531381,1609505520387151,3120299198,-1.118496,-0.052704,-0.148352,-14.9975,4.2,-14.595,46.368004,-41.848003,-54.864002,concentric,4,5.0,19290.0,25734.0,68052.0,77514.0,18458.0,34126.0,28482.0,43959.0,13230.0,10307.0
2026-05-06 16:00:56.937866,531382,1609505520401762,3120314134,-1.040416,-0.115168,-0.162016,-16.79125,3.96375,-12.11875,46.552002,-41.624,-53.856003,concentric,4,5.0,19290.0,25734.0,68052.0,77514.0,18458.0,34126.0,28482.0,43959.0,13230.0,10307.0
2026-05-06 16:00:56.939800,531383,1609505520410720,3120322850,-1.040416,-0.115168,-0.162016,-12.76625,3.57,-7.8225,46.552002,-41.624,-53.856003,concentric,4,5.0,19290.0,25734.0,68052.0,77514.0,18458.0,34126.0,28482.0,43959.0,13230.0,10307.0
2026-05-06 16:00:56.942534,531384,1609505520419709,3120331563,-1.06384,-0.040992,-0.074176,-11.375,3.2725,-5.9325,46.976,-38.544003,-55.792004,concentric,4,5.0,19290.0,25734.0,68052.0,77514.0,18458.0,34126.0,28482.0,43959.0,13230.0,10307.0
2026-05-06 16:00:56.956176,531385,1609505520434217,3120346528,-1.06384,-0.040992,-0.074176,-9.135,3.15,-6.13375,46.976,-38.544003,-55.792004,concentric,4,5.0,19290.0,25734.0,68052.0,77514.0,18458.0,34126.0,28482.0,43959.0,13230.0,10307.0
2026-05-06 16:00:56.964964,531386,1609505520443144,3120355241,-1.036512,0.042944,-0.007808,-2.94875,1.925,-5.04875,46.912003,-38.288002,-56.160004,concentric,4,5.0,19290.0,25734.0,68052.0,77514.0,18458.0,34126.0,28482.0,43959.0,13230.0,10307.0
2026-05-06 16:00:56.981299,531387,1609505520457630,3120370179,-1.036512,0.042944,-0.007808,-2.17,0.7,-2.38,46.912003,-38.288002,-56.160004,concentric,4,5.0,19290.0,25734.0,68052.0,77514.0,18458.0,34126.0,28482.0,43959.0,13230.0,10307.0
2026-05-06 16:00:56.990425,531388,1609505520466533,3120379002,-1.042368,0.070272,-0.066368,-9.1,0.63,-1.68875,47.704002,-38.264,-56.864002,concentric,4,5.0,19290.0,25734.0,68052.0,77514.0,18458.0,34126.0,28482.0,43959.0,13230.0,10307.0
2026-05-06 16:00:57.025985,531399,1609505520481322,3120394003,-1.089216,-0.052704,-0.181536,-16.065,0.69125,-3.955,47.792004,-38.184002,-55.656002,concentric,4,5.0,19399.0,25834.0,68152.0,77374.0,18580.0,34226.0,28569.0,43902.0,13344.0,10362.0
2026-05-06 16:00:57.028467,531400,1609505520490337,3120402772,-1.089216,-0.052704,-0.181536,-19.1275,0.51625,-6.76375,47.792004,-38.184002,-55.656002,concentric,4,5.0,19399.0,25834.0,68152.0,77374.0,18580.0,34226.0,28569.0,43902.0,13344.0,10362.0
2026-05-06 16:00:57.030943,531401,1609505520499410,3120411538,-1.089216,-0.06832,-0.15616,-18.06875,-0.0525,-5.46875,47.792004,-38.184002,-55.656002,concentric,4,5.0,19399.0,25834.0,68152.0,77374.0,18580.0,34226.0,28569.0,43902.0,13344.0,10362.0
2026-05-06 16:00:57.037182,531402,1609505520513998,3120426462,-1.026752,-0.06832,-0.15616,-13.895,-1.39125,-3.605,47.52,-39.128002,-55.672,concentric,4,5.0,19399.0,25834.0,68152.0,77374.0,18580.0,34226.0,28569.0,43902.0,13344.0,10362.0
2026-05-06 16:00:57.045995,531403,1609505520522907,3120435191,-1.057984,0.017568,-0.111264,-2.98375,-3.7625,-3.92875,48.064003,-39.472,-53.840004,concentric,4,5.0,19399.0,25834.0,68152.0,77374.0,18580.0,34226.0,28569.0,43902.0,13344.0,10362.0
2026-05-06 16:00:57.080021,531404,1609505520537396,3120450161,-1.057984,0.017568,-0.111264,8.295,-5.6,-5.2325,48.064003,-39.472,-53.840004,concentric,4,5.0,19399.0,25834.0,68152.0,77374.0,18580.0,34226.0,28569.0,43902.0,13344.0,10362.0
2026-05-06 16:00:57.082521,531405,1609505520546339,3120458863,-1.130208,-0.001952,-0.121024,13.9125,-6.685,-5.97625,47.896004,-39.864002,-53.904003,concentric,4,5.0,19399.0,25834.0,68152.0,77374.0,18580.0,34226.0,28569.0,43902.0,13344.0,10362.0
2026-05-06 16:00:57.085059,531406,1609505520555275,3120467546,-1.130208,-0.001952,-0.121024,10.4125,-6.99125,-6.30875,47.896004,-39.864002,-53.904003,concentric,4,5.0,19399.0,25834.0,68152.0,77374.0,18580.0,34226.0,28569.0,43902.0,13344.0,10362.0
2026-05-06 16:00:57.094045,531407,1609505520569813,3120482557,-1.10288,-0.093696,-0.121024,4.4625,-5.915,-4.655,48.176003,-38.608,-55.048004,concentric,4,5.0,19399.0,25834.0,68152.0,77374.0,18580.0,34226.0,28569.0,43902.0,13344.0,10362.0
2026-05-06 16:00:57.125167,531418,1609505520579295,3120491418,-1.10288,-0.093696,-0.121024,1.47,-5.04,-3.465,48.176003,-38.608,-55.048004,concentric,4,5.0,19488.0,25855.0,68278.0,77495.0,18659.0,34268.0,28639.0,44034.0,13391.0,10392.0
2026-05-06 16:00:57.127642,531419,1609505520593917,3120506358,-1.08336,-0.0976,-0.103456,1.19,-4.82125,-1.8025,48.760002,-38.984,-54.360004,concentric,4,5.0,19488.0,25855.0,68278.0,77495.0,18659.0,34268.0,28639.0,44034.0,13391.0,10392.0
2026-05-06 16:00:57.130144,531420,1609505520602957,3120515087,-1.09312,-0.013664,-0.0976,3.07125,-4.94375,0.0175,48.248,-40.696003,-53.376003,concentric,4,5.0,19488.0,25855.0,68278.0,77495.0,18659.0,34268.0,28639.0,44034.0,13391.0,10392.0
2026-05-06 16:00:57.136389,531421,1609505520611971,3120523831,-1.09312,-0.013664,-0.0976,1.89,-5.29375,1.14625,48.248,-40.696003,-53.376003,concentric,4,5.0,19488.0,25855.0,68278.0,77495.0,18659.0,34268.0,28639.0,44034.0,13391.0,10392.0
2026-05-06 16:00:57.150131,531422,1609505520626502,3120538728,-1.145824,0.013664,-0.177632,0.90125,-5.67,2.4325,48.440002,-40.512,-53.512,concentric,4,5.0,19488.0,25855.0,68278.0,77495.0,18659.0,34268.0,28639.0,44034.0,13391.0,10392.0
2026-05-06 16:00:57.177695,531423,1609505520635466,3120547520,-1.145824,0.013664,-0.177632,-1.14625,-5.705,2.63375,48.440002,-40.512,-53.512,concentric,4,5.0,19488.0,25855.0,68278.0,77495.0,18659.0,34268.0,28639.0,44034.0,13391.0,10392.0
2026-05-06 16:00:57.202456,531424,1609505520649975,3120562422,-1.116544,-0.085888,-0.12688,-4.27875,-5.95,2.33625,48.648003,-39.280003,-54.312004,concentric,4,5.0,19488.0,25855.0,68278.0,77495.0,18659.0,34268.0,28639.0,44034.0,13391.0,10392.0
2026-05-06 16:00:57.227537,531425,1609505520658909,3120571119,-1.116544,-0.085888,-0.12688,-5.45125,-6.44,2.4675,48.648003,-39.280003,-54.312004,concentric,4,5.0,19488.0,25855.0,68278.0,77495.0,18659.0,34268.0,28639.0,44034.0,13391.0,10392.0
2026-05-06 16:00:57.238778,531426,1609505520673401,3120586044,-1.04432,-0.121024,-0.089792,-2.19625,-6.44,4.69875,48.568,-39.272003,-53.168003,concentric,4,5.0,19488.0,25855.0,68278.0,77495.0,18659.0,34268.0,28639.0,44034.0,13391.0,10392.0
2026-05-06 16:00:57.266375,531437,1609505520682536,3120594827,-1.095072,-0.00976,-0.083936,5.04875,-5.6875,5.95875,48.808002,-40.0,-53.840004,concentric,4,5.0,19511.0,25818.0,68349.0,77444.0,18682.0,34228.0,28678.0,44038.0,13387.0,10364.0
2026-05-06 16:00:57.268858,531438,1609505520691563,3120603602,-1.095072,-0.00976,-0.083936,14.23625,-5.52125,5.46875,48.808002,-40.0,-53.840004,concentric,4,5.0,19511.0,25818.0,68349.0,77444.0,18682.0,34228.0,28678.0,44038.0,13387.0,10364.0
2026-05-06 16:00:57.271510,531439,1609505520706039,3120618566,-1.202432,0.037088,-0.132736,18.69,-4.62,4.80375,49.032,-39.896004,-54.064003,concentric,4,5.0,19511.0,25818.0,68349.0,77444.0,18682.0,34228.0,28678.0,44038.0,13387.0,10364.0
2026-05-06 16:00:57.273918,531440,1609505520715048,3120627272,-1.202432,0.037088,-0.132736,12.88,-4.2,3.50875,49.032,-39.896004,-54.064003,concentric,4,5.0,19511.0,25818.0,68349.0,77444.0,18682.0,34228.0,28678.0,44038.0,13387.0,10364.0
2026-05-06 16:00:57.276357,531441,1609505520729693,3120642312,-1.147776,-0.033184,-0.103456,4.26125,-4.0775,1.23375,49.312004,-40.0,-54.168003,concentric,4,5.0,19511.0,25818.0,68349.0,77444.0,18682.0,34228.0,28678.0,44038.0,13387.0,10364.0
2026-05-06 16:00:57.278860,531442,1609505520738708,3120651082,-1.147776,-0.033184,-0.103456,-1.19,-5.52125,0.4375,49.312004,-40.0,-54.168003,concentric,4,5.0,19511.0,25818.0,68349.0,77444.0,18682.0,34228.0,28678.0,44038.0,13387.0,10364.0
2026-05-06 16:00:57.281397,531443,1609505520747640,3120659819,-1.028704,-0.095648,-0.124928,-2.17,-5.985,1.1025,48.824,-42.816,-52.688004,concentric,4,5.0,19511.0,25818.0,68349.0,77444.0,18682.0,34228.0,28678.0,44038.0,13387.0,10364.0
2026-05-06 16:00:57.287508,531444,1609505520762396,3120674750,-1.09312,-0.103456,-0.119072,0.3325,-4.92625,3.49125,49.312004,-41.904003,-52.952003,concentric,4,5.0,19511.0,25818.0,68349.0,77444.0,18682.0,34228.0,28678.0,44038.0,13387.0,10364.0
2026-05-06 16:00:57.294593,531445,1609505520771418,3120683654,-1.09312,-0.103456,-0.119072,2.765,-4.0425,4.24375,49.312004,-41.904003,-52.952003,concentric,4,5.0,19511.0,25818.0,68349.0,77444.0,18682.0,34228.0,28678.0,44038.0,13387.0,10364.0
2026-05-06 16:00:57.328875,531456,1609505520786080,3120698661,-1.134112,0.040992,-0.119072,0.0525,-3.92,3.08875,49.056004,-42.224003,-52.440002,concentric,4,5.0,19509.0,25795.0,68245.0,77172.0,18661.0,34143.0,28634.0,43871.0,13385.0,10372.0
2026-05-06 16:00:57.331395,531457,1609505520795059,3120707452,-1.134112,0.040992,-0.119072,-4.64625,-3.5875,1.9775,49.056004,-42.224003,-52.440002,concentric,4,5.0,19509.0,25795.0,68245.0,77172.0,18661.0,34143.0,28634.0,43871.0,13385.0,10372.0
2026-05-06 16:00:57.333908,531458,1609505520809737,3120722473,-1.130208,0.031232,-0.167872,-7.0525,-4.025,1.1375,49.04,-41.968002,-50.064003,concentric,4,5.0,19509.0,25795.0,68245.0,77172.0,18661.0,34143.0,28634.0,43871.0,13385.0,10372.0
2026-05-06 16:00:57.365223,531459,1609505520818857,3120731265,-1.130208,0.031232,-0.167872,-11.042501,-4.0425,-1.72375,49.04,-41.968002,-50.064003,concentric,4,5.0,19509.0,25795.0,68245.0,77172.0,18661.0,34143.0,28634.0,43871.0,13385.0,10372.0
2026-05-06 16:00:57.367702,531460,1609505520827768,3120739967,-1.149728,-0.101504,-0.089792,-12.565,-4.99625,-4.17375,49.792004,-40.344,-52.928,concentric,4,5.0,19509.0,25795.0,68245.0,77172.0,18661.0,34143.0,28634.0,43871.0,13385.0,10372.0
2026-05-06 16:00:57.370205,531461,1609505520842255,3120754893,-1.118496,-0.158112,-0.064416,-8.93375,-4.8475,-2.79125,49.792004,-40.344,-51.832,concentric,4,5.0,19509.0,25795.0,68245.0,77172.0,18661.0,34143.0,28634.0,43871.0,13385.0,10372.0
2026-05-06 16:00:57.380352,531462,1609505520851217,3120763683,-1.11264,-0.158112,-0.064416,-1.49625,-4.90875,-0.49875,49.36,-40.544003,-51.832,concentric,4,5.0,19509.0,25795.0,68245.0,77172.0,18661.0,34143.0,28634.0,43871.0,13385.0,10372.0
2026-05-06 16:00:57.390636,531463,1609505520865748,3120776614,-1.118496,0.0,-0.093696,7.97125,-5.04,-0.63,49.376003,-40.712,-52.472004,concentric,4,5.0,19509.0,25795.0,68245.0,77172.0,18661.0,34143.0,28634.0,43871.0,13385.0,10372.0
2026-05-06 16:00:57.398756,531464,1609505520875062,3120787407,-1.118496,0.0,-0.093696,14.1925,-4.47125,-0.84875,49.376003,-40.712,-52.472004,concentric,4,5.0,19509.0,25795.0,68245.0,77172.0,18661.0,34143.0,28634.0,43871.0,13385.0,10372.0
2026-05-06 16:00:57.426432,531475,1609505520884135,3120796454,-1.169248,0.050752,-0.22448,13.09875,-3.99875,-0.86625,49.664,-41.08,-52.848003,concentric,4,5.0,19484.0,25763.0,68158.0,77034.0,18657.0,34136.0,28563.0,43782.0,13391.0,10364.0
2026-05-06 16:00:57.432671,531476,1609505520898704,3120811422,-1.169248,0.050752,-0.22448,6.25625,-3.6925,-4.15625,49.664,-41.08,-52.848003,concentric,4,5.0,19484.0,25763.0,68158.0,77034.0,18657.0,34136.0,28563.0,43782.0,13391.0,10364.0
2026-05-06 16:00:57.435196,531477,1609505520907627,3120820202,-1.173152,-0.081984,-0.119072,-3.31625,-3.675,-7.98,49.840004,-40.920002,-52.320004,concentric,4,5.0,19484.0,25763.0,68158.0,77034.0,18657.0,34136.0,28563.0,43782.0,13391.0,10364.0
2026-05-06 16:00:57.443971,531478,1609505520922310,3120833073,-1.173152,-0.081984,-0.119072,-9.47625,-4.31375,-7.49,49.840004,-40.920002,-52.320004,concentric,4,5.0,19484.0,25763.0,68158.0,77034.0,18657.0,34136.0,28563.0,43782.0,13391.0,10364.0
2026-05-06 16:00:57.457704,531479,1609505520931619,3120843886,-1.14192,-0.15616,-0.06832,-5.60875,-4.66375,-4.22625,49.968002,-40.808002,-52.472004,concentric,4,5.0,19484.0,25763.0,68158.0,77034.0,18657.0,34136.0,28563.0,43782.0,13391.0,10364.0
2026-05-06 16:00:57.463960,531480,1609505520940582,3120852648,-1.14192,-0.15616,-0.06832,0.2275,-5.06625,-1.33875,49.968002,-40.808002,-52.472004,concentric,4,5.0,19484.0,25763.0,68158.0,77034.0,18657.0,34136.0,28563.0,43782.0,13391.0,10364.0
2026-05-06 16:00:57.497583,531481,1609505520955079,3120867554,-1.14192,-0.00976,-0.070272,4.1125,-5.32,0.65625,49.928,-42.344,-50.952003,concentric,4,5.0,19484.0,25763.0,68158.0,77034.0,18657.0,34136.0,28563.0,43782.0,13391.0,10364.0
2026-05-06 16:00:57.500035,531482,1609505520963980,3120876260,-1.188768,0.011712,-0.122976,6.30875,-4.55,-0.58625,50.120003,-40.88,-52.4,concentric,4,5.0,19484.0,25763.0,68158.0,77034.0,18657.0,34136.0,28563.0,43782.0,13391.0,10364.0
2026-05-06 16:00:57.587594,531493,1609505520978467,3120891157,-1.188768,0.011712,-0.122976,3.03625,-3.78,-4.3575,50.120003,-40.88,-52.4,eccentric,4,5.0,19484.0,25720.0,68161.0,76959.0,18639.0,34111.0,28568.0,43764.0,13379.0,10344.0
2026-05-06 16:00:57.590146,531494,1609505520987576,3120900047,-1.182912,-0.050752,-0.132736,-2.1175,-3.22875,-5.74,50.272003,-40.984,-51.888004,eccentric,4,5.0,19484.0,25720.0,68161.0,76959.0,18639.0,34111.0,28568.0,43764.0,13379.0,10344.0
2026-05-06 16:00:57.592595,531495,1609505521002158,3120912937,-1.182912,-0.050752,-0.132736,-8.4525,-2.38875,-5.71375,50.272003,-40.984,-51.888004,eccentric,4,5.0,19484.0,25720.0,68161.0,76959.0,18639.0,34111.0,28568.0,43764.0,13379.0,10344.0
2026-05-06 16:00:57.594890,531496,1609505521011394,3120923659,-1.208288,-0.10736,-0.08784,-6.20375,-2.6425,-7.23625,50.712,-41.216003,-52.4,eccentric,4,5.0,19484.0,25720.0,68161.0,76959.0,18639.0,34111.0,28568.0,43764.0,13379.0,10344.0
2026-05-06 16:00:57.597601,531497,1609505521020400,3120932415,-1.208288,-0.10736,-0.08784,1.61875,-2.9575,-6.72,50.712,-41.216003,-52.4,eccentric,4,5.0,19484.0,25720.0,68161.0,76959.0,18639.0,34111.0,28568.0,43764.0,13379.0,10344.0
2026-05-06 16:00:57.600185,531498,1609505521034888,3120947358,-1.1224,-0.081984,-0.128832,7.44625,-3.59625,-3.63125,50.848003,-41.320004,-51.568,eccentric,4,5.0,19484.0,25720.0,68161.0,76959.0,18639.0,34111.0,28568.0,43764.0,13379.0,10344.0
2026-05-06 16:00:57.602615,531499,1609505521043806,3120956064,-1.153632,-0.050752,-0.16592,10.22,-2.94875,-1.5575,50.848003,-41.320004,-51.544003,eccentric,4,5.0,19484.0,25720.0,68161.0,76959.0,18639.0,34111.0,28568.0,43764.0,13379.0,10344.0
2026-05-06 16:00:57.604907,531500,1609505521058331,3120971023,-1.145824,-0.050752,-0.16592,10.167501,-1.9775,-2.31,50.224003,-41.248,-51.544003,eccentric,4,5.0,19484.0,25720.0,68161.0,76959.0,18639.0,34111.0,28568.0,43764.0,13379.0,10344.0
2026-05-06 16:00:57.607644,531501,1609505521067228,3120979812,-1.21024,-0.035136,-0.040992,8.015,-1.3825,-3.605,50.728,-41.328003,-51.928,eccentric,4,5.0,19484.0,25720.0,68161.0,76959.0,18639.0,34111.0,28568.0,43764.0,13379.0,10344.0
2026-05-06 16:00:57.610142,531502,1609505521076203,3120988543,-1.21024,-0.035136,-0.040992,8.785,-1.88125,-3.675,50.728,-41.328003,-51.928,eccentric,4,5.0,19484.0,25720.0,68161.0,76959.0,18639.0,34111.0,28568.0,43764.0,13379.0,10344.0
2026-05-06 16:00:57.642685,531514,1609505521090851,3121001699,-1.153632,-0.02928,-0.091744,8.26,-2.70375,-2.0825,50.832,-41.832,-51.528004,eccentric,4,5.0,19461.0,25687.0,68127.0,77091.0,18627.0,34091.0,28559.0,43860.0,13372.0,10340.0
2026-05-06 16:00:57.645217,531515,1609505521100271,3121012462,-1.153632,-0.02928,-0.091744,5.87125,-2.765,-0.27125,50.832,-41.832,-51.528004,eccentric,4,5.0,19461.0,25687.0,68127.0,77091.0,18627.0,34091.0,28559.0,43860.0,13372.0,10340.0
2026-05-06 16:00:57.647705,531516,1609505521114796,3121027457,-1.184864,-0.033184,-0.138592,1.42625,-2.5725,-2.6775,50.696003,-43.064003,-50.584003,eccentric,4,5.0,19461.0,25687.0,68127.0,77091.0,18627.0,34091.0,28559.0,43860.0,13372.0,10340.0
2026-05-06 16:00:57.650232,531517,1609505521123703,3121036172,-1.184864,-0.033184,-0.138592,0.42,-3.10625,-6.86875,50.696003,-43.064003,-50.584003,eccentric,4,5.0,19461.0,25687.0,68127.0,77091.0,18627.0,34091.0,28559.0,43860.0,13372.0,10340.0
2026-05-06 16:00:57.656453,531518,1609505521132747,3121044929,-1.179008,-0.050752,-0.101504,-0.7875,-3.395,-9.14375,51.048004,-42.984,-51.448,eccentric,4,5.0,19461.0,25687.0,68127.0,77091.0,18627.0,34091.0,28559.0,43860.0,13372.0,10340.0
2026-05-06 16:00:57.670105,531519,1609505521147289,3121059950,-1.126304,-0.066368,-0.099552,1.715,-3.45625,-7.62125,51.096,-41.704002,-51.728,eccentric,4,5.0,19461.0,25687.0,68127.0,77091.0,18627.0,34091.0,28559.0,43860.0,13372.0,10340.0
2026-05-06 16:00:57.683747,531520,1609505521156208,3121068759,-1.126304,-0.066368,-0.099552,5.355,-2.765,-7.34125,51.096,-41.704002,-51.728,eccentric,4,5.0,19461.0,25687.0,68127.0,77091.0,18627.0,34091.0,28559.0,43860.0,13372.0,10340.0
2026-05-06 16:00:57.692668,531521,1609505521170705,3121081595,-1.182912,-0.040992,-0.10736,4.85625,-1.925,-9.72125,50.968002,-41.280003,-51.944004,eccentric,4,5.0,19461.0,25687.0,68127.0,77091.0,18627.0,34091.0,28559.0,43860.0,13372.0,10340.0
2026-05-06 16:00:57.731451,531532,1609505521180056,3121092373,-1.182912,-0.040992,-0.10736,5.06625,-1.40875,-10.4125,50.968002,-41.280003,-51.944004,eccentric,4,5.0,19377.0,25702.0,68133.0,77132.0,18614.0,34109.0,28601.0,43945.0,13348.0,10331.0
2026-05-06 16:00:57.733972,531533,1609505521194677,3121107393,-1.179008,-0.025376,-0.144448,3.96375,-1.96875,-9.275,51.248,-41.864002,-51.808002,eccentric,4,5.0,19377.0,25702.0,68133.0,77132.0,18614.0,34109.0,28601.0,43945.0,13348.0,10331.0
2026-05-06 16:00:57.736416,531534,1609505521203677,3121116169,-1.179008,-0.025376,-0.144448,1.74125,-2.59,-8.18125,51.248,-41.864002,-51.808002,eccentric,4,5.0,19377.0,25702.0,68133.0,77132.0,18614.0,34109.0,28601.0,43945.0,13348.0,10331.0
2026-05-06 16:00:57.738847,531535,1609505521212739,3121124905,-1.179008,-0.050752,-0.0976,-0.63875,-2.3975,-8.225,51.216003,-41.352,-53.176003,eccentric,4,5.0,19377.0,25702.0,68133.0,77132.0,18614.0,34109.0,28601.0,43945.0,13348.0,10331.0
2026-05-06 16:00:57.753467,531536,1609505521227256,3121139851,-1.169248,-0.052704,-0.037088,-0.58625,-1.995,-8.56625,51.408,-40.736,-51.992,eccentric,4,5.0,19377.0,25702.0,68133.0,77132.0,18614.0,34109.0,28601.0,43945.0,13348.0,10331.0
2026-05-06 16:00:57.760391,531537,1609505521236182,3121148562,-1.169248,-0.052704,-0.037088,0.6825,-1.74125,-7.8925,51.408,-40.736,-51.992,eccentric,4,5.0,19377.0,25702.0,68133.0,77132.0,18614.0,34109.0,28601.0,43945.0,13348.0,10331.0
2026-05-06 16:00:57.773785,531538,1609505521250697,3121161481,-1.1712,-0.005856,-0.121024,-0.70875,-0.945,-5.8625,51.184002,-42.784,-50.648003,eccentric,4,5.0,19377.0,25702.0,68133.0,77132.0,18614.0,34109.0,28601.0,43945.0,13348.0,10331.0
2026-05-06 16:00:57.782581,531539,1609505521259903,3121172273,-1.1712,-0.005856,-0.121024,-5.775,-0.0875,-5.635,51.184002,-42.784,-50.648003,eccentric,4,5.0,19377.0,25702.0,68133.0,77132.0,18614.0,34109.0,28601.0,43945.0,13348.0,10331.0
2026-05-06 16:00:57.791408,531540,1609505521268830,3121181030,-1.231712,-0.054656,-0.222528,-12.76625,0.37625,-9.555,51.192,-40.760002,-51.824,eccentric,4,5.0,19377.0,25702.0,68133.0,77132.0,18614.0,34109.0,28601.0,43945.0,13348.0,10331.0
2026-05-06 16:00:57.830139,531551,1609505521283756,3121196016,-1.231712,-0.054656,-0.222528,-15.015,-0.245,-12.85375,51.192,-40.760002,-51.824,eccentric,4,5.0,19298.0,25595.0,68072.0,77187.0,18550.0,34024.0,28542.0,44000.0,13319.0,10286.0
2026-05-06 16:00:57.832658,531552,1609505521292923,3121204824,-1.206336,-0.119072,-0.12688,-10.605001,-1.645,-11.19125,51.504,-40.824,-51.264004,eccentric,4,5.0,19298.0,25595.0,68072.0,77187.0,18550.0,34024.0,28542.0,44000.0,13319.0,10286.0
2026-05-06 16:00:57.835148,531553,1609505521307472,3121219854,-1.169248,-0.046848,-0.062464,-0.42,-2.45875,-6.6675,51.224003,-41.800003,-51.952003,eccentric,4,5.0,19298.0,25595.0,68072.0,77187.0,18550.0,34024.0,28542.0,44000.0,13319.0,10286.0
2026-05-06 16:00:57.841626,531554,1609505521316405,3121228588,-1.169248,-0.046848,-0.062464,9.5725,-3.0275,-3.33375,51.224003,-41.800003,-51.952003,eccentric,4,5.0,19298.0,25595.0,68072.0,77187.0,18550.0,34024.0,28542.0,44000.0,13319.0,10286.0
2026-05-06 16:00:57.847644,531555,1609505521325415,3121237305,-1.169248,-0.046848,-0.171776,8.89875,-2.73875,-3.31625,51.224003,-41.800003,-51.952003,eccentric,4,5.0,19298.0,25595.0,68072.0,77187.0,18550.0,34024.0,28542.0,44000.0,13319.0,10286.0
2026-05-06 16:00:57.863771,531556,1609505521339896,3121252260,-1.218048,0.01952,-0.163968,6.3525,-1.8725,-4.62875,51.272003,-42.448,-50.744003,eccentric,4,5.0,19298.0,25595.0,68072.0,77187.0,18550.0,34024.0,28542.0,44000.0,13319.0,10286.0
2026-05-06 16:00:57.872389,531557,1609505521348820,3121260971,-1.179008,-0.0488,-0.158112,0.86625,-2.3625,-6.34375,50.912003,-40.992,-51.488003,eccentric,4,5.0,19298.0,25595.0,68072.0,77187.0,18550.0,34024.0,28542.0,44000.0,13319.0,10286.0
2026-05-06 16:00:57.912634,531558,1609505521363301,3121275873,-1.179008,-0.0488,-0.158112,-5.005,-1.995,-5.81,50.912003,-40.992,-51.488003,eccentric,4,5.0,19298.0,25595.0,68072.0,77187.0,18550.0,34024.0,28542.0,44000.0,13319.0,10286.0
2026-05-06 16:00:57.941405,531559,1609505521372395,3121284648,-1.139968,-0.105408,-0.134688,-7.175,-1.5225,-4.47125,51.144,-40.648003,-51.800003,eccentric,4,5.0,19298.0,25595.0,68072.0,77187.0,18550.0,34024.0,28542.0,44000.0,13319.0,10286.0
2026-05-06 16:00:58.021464,531570,1609505521387101,3121299705,-1.223904,-0.05856,-0.109312,-7.6475,-0.88375,-4.2875,51.04,-40.600002,-50.904003,eccentric,4,5.0,19300.0,25591.0,68112.0,77219.0,18580.0,34052.0,28542.0,44011.0,13352.0,10315.0
2026-05-06 16:00:58.023927,531571,1609505521396025,3121308470,-1.223904,-0.05856,-0.109312,-7.0525,-0.0875,-6.1075,51.04,-40.600002,-50.904003,eccentric,4,5.0,19300.0,25591.0,68112.0,77219.0,18580.0,34052.0,28542.0,44011.0,13352.0,10315.0
2026-05-06 16:00:58.026431,531572,1609505521404982,3121317163,-1.223904,-0.05856,-0.109312,-2.94,-0.4025,-5.5125,51.04,-40.600002,-50.904003,eccentric,4,5.0,19300.0,25591.0,68112.0,77219.0,18580.0,34052.0,28542.0,44011.0,13352.0,10315.0
2026-05-06 16:00:58.028918,531573,1609505521419596,3121332076,-1.202432,-0.023424,-0.144448,-2.9925,-0.4375,-1.42625,50.992,-40.216003,-50.232002,eccentric,4,5.0,19300.0,25591.0,68112.0,77219.0,18580.0,34052.0,28542.0,44011.0,13352.0,10315.0
2026-05-06 16:00:58.034384,531574,1609505521428504,3121340804,-1.202432,-0.06832,-0.138592,-8.86375,-0.175,0.62125,50.816,-40.096,-51.712,eccentric,4,5.0,19300.0,25591.0,68112.0,77219.0,18580.0,34052.0,28542.0,44011.0,13352.0,10315.0
2026-05-06 16:00:58.034740,531575,1609505521443007,3121355702,-1.202432,-0.06832,-0.138592,-8.3475,0.41125,-0.76125,50.816,-40.096,-51.712,eccentric,4,5.0,19300.0,25591.0,68112.0,77219.0,18580.0,34052.0,28542.0,44011.0,13352.0,10315.0
2026-05-06 16:00:58.037953,531576,1609505521451955,3121364503,-1.218048,-0.115168,-0.201056,-3.28125,-0.035,-1.4875,51.064003,-41.736004,-51.192,eccentric,4,5.0,19300.0,25591.0,68112.0,77219.0,18580.0,34052.0,28542.0,44011.0,13352.0,10315.0
2026-05-06 16:00:58.038815,531577,1609505521466587,3121377397,-1.218048,-0.115168,-0.103456,2.6075,0.0875,0.455,51.064003,-41.736004,-51.192,eccentric,4,5.0,19300.0,25591.0,68112.0,77219.0,18580.0,34052.0,28542.0,44011.0,13352.0,10315.0
2026-05-06 16:00:58.042238,531578,1609505521475820,3121388166,-1.167296,-0.033184,-0.103456,7.16625,-1.00625,2.8,50.464,-40.456,-52.08,eccentric,4,5.0,19300.0,25591.0,68112.0,77219.0,18580.0,34052.0,28542.0,44011.0,13352.0,10315.0
2026-05-06 16:00:58.072447,531589,1609505521484952,3121397077,-1.167296,-0.033184,-0.103456,10.85,-1.70625,5.18875,50.464,-40.456,-52.08,eccentric,4,5.0,19189.0,25482.0,68094.0,77311.0,18540.0,34043.0,28555.0,44108.0,13306.0,10291.0
2026-05-06 16:00:58.075036,531590,1609505521499534,3121412075,-1.149728,0.02928,-0.081984,10.64875,-0.525,7.46375,50.408,-40.744003,-52.304,eccentric,4,5.0,19189.0,25482.0,68094.0,77311.0,18540.0,34043.0,28555.0,44108.0,13306.0,10291.0
2026-05-06 16:00:58.077482,531591,1609505521508466,3121420851,-1.253184,-0.042944,-0.169824,3.77125,1.65375,5.285,50.432003,-40.568,-52.016003,eccentric,4,5.0,19189.0,25482.0,68094.0,77311.0,18540.0,34043.0,28555.0,44108.0,13306.0,10291.0
2026-05-06 16:00:58.079905,531592,1609505521517549,3121429608,-1.253184,-0.042944,-0.169824,-2.72125,3.08875,0.90125,50.432003,-40.568,-52.016003,eccentric,4,5.0,19189.0,25482.0,68094.0,77311.0,18540.0,34043.0,28555.0,44108.0,13306.0,10291.0
2026-05-06 16:00:58.082360,531593,1609505521532228,3121444682,-1.251232,-0.091744,-0.16592,-6.79875,3.4475,-0.7,49.872,-40.208,-52.616,eccentric,4,5.0,19189.0,25482.0,68094.0,77311.0,18540.0,34043.0,28555.0,44108.0,13306.0,10291.0
2026-05-06 16:00:58.084841,531594,1609505521541174,3121453472,-1.251232,-0.091744,-0.16592,-6.25625,3.43875,3.0625,49.872,-40.208,-52.616,eccentric,4,5.0,19189.0,25482.0,68094.0,77311.0,18540.0,34043.0,28555.0,44108.0,13306.0,10291.0
2026-05-06 16:00:58.087345,531595,1609505521555718,3121468375,-1.192672,-0.060512,-0.138592,-1.54875,2.70375,7.2625,49.448,-43.952003,-50.160004,eccentric,4,5.0,19189.0,25482.0,68094.0,77311.0,18540.0,34043.0,28555.0,44108.0,13306.0,10291.0
2026-05-06 16:00:58.089733,531596,1609505521564684,3121477141,-1.192672,-0.060512,-0.138592,2.94,2.2575,8.7325,49.448,-43.952003,-50.160004,eccentric,4,5.0,19189.0,25482.0,68094.0,77311.0,18540.0,34043.0,28555.0,44108.0,13306.0,10291.0
2026-05-06 16:00:58.103801,531597,1609505521579178,3121490112,-1.167296,-0.021472,-0.179584,5.11875,2.9225,8.645,49.352,-42.280003,-51.648003,eccentric,4,5.0,19189.0,25482.0,68094.0,77311.0,18540.0,34043.0,28555.0,44108.0,13306.0,10291.0
2026-05-06 16:00:58.133437,531608,1609505521588665,3121501050,-1.202432,-0.01952,-0.158112,5.74875,3.255,7.9275,48.944004,-41.768,-52.36,eccentric,4,5.0,19070.0,25364.0,68052.0,77335.0,18470.0,33962.0,28541.0,44152.0,13260.0,10255.0
2026-05-06 16:00:58.136057,531609,1609505521597673,3121509802,-1.202432,-0.01952,-0.158112,6.23875,3.59625,5.20625,48.944004,-41.768,-52.36,eccentric,4,5.0,19070.0,25364.0,68052.0,77335.0,18470.0,33962.0,28541.0,44152.0,13260.0,10255.0
2026-05-06 16:00:58.138511,531610,1609505521612251,3121524701,-1.216096,-0.066368,0.054656,4.75125,3.54375,4.5675,48.768,-41.88,-52.656002,eccentric,4,5.0,19070.0,25364.0,68052.0,77335.0,18470.0,33962.0,28541.0,44152.0,13260.0,10255.0
2026-05-06 16:00:58.144992,531611,1609505521621302,3121533421,-1.216096,-0.066368,0.054656,5.0575,1.28625,5.50375,48.768,-41.88,-52.656002,eccentric,4,5.0,19070.0,25364.0,68052.0,77335.0,18470.0,33962.0,28541.0,44152.0,13260.0,10255.0
2026-05-06 16:00:58.168852,531612,1609505521635831,3121548353,-1.14192,-0.13664,-0.072224,3.255,0.735,-4.13875,48.424004,-40.392002,-53.872,eccentric,4,5.0,19070.0,25364.0,68052.0,77335.0,18470.0,33962.0,28541.0,44152.0,13260.0,10255.0
2026-05-06 16:00:58.171246,531613,1609505521644755,3121557104,-1.14192,-0.13664,-0.072224,1.68,2.1175,-4.50625,48.424004,-40.392002,-53.872,eccentric,4,5.0,19070.0,25364.0,68052.0,77335.0,18470.0,33962.0,28541.0,44152.0,13260.0,10255.0
2026-05-06 16:00:58.177667,531614,1609505521653672,3121565845,-1.1224,-0.050752,-0.128832,23.23125,2.485,6.055,48.344,-40.856003,-54.512,eccentric,4,5.0,19070.0,25364.0,68052.0,77335.0,18470.0,33962.0,28541.0,44152.0,13260.0,10255.0
2026-05-06 16:00:58.211422,531615,1609505521668195,3121580835,-1.1224,-0.050752,-0.183488,26.897501,4.13,8.1375,48.344,-40.856003,-54.512,eccentric,4,5.0,19070.0,25364.0,68052.0,77335.0,18470.0,33962.0,28541.0,44152.0,13260.0,10255.0
2026-05-06 16:00:58.213920,531616,1609505521677102,3121589515,-1.16144,-0.001952,-0.183488,22.741251,4.4975,6.8075,47.680004,-41.736004,-52.72,eccentric,4,5.0,19070.0,25364.0,68052.0,77335.0,18470.0,33962.0,28541.0,44152.0,13260.0,10255.0
2026-05-06 16:00:58.241271,531627,1609505521691700,3121602484,-1.126304,-0.076128,-0.15616,18.40125,4.48,5.7575,47.976,-41.176003,-55.152004,eccentric,4,5.0,19114.0,25360.0,68104.0,77379.0,18551.0,34003.0,28547.0,44203.0,13303.0,10268.0
2026-05-06 16:00:58.243703,531628,1609505521701002,3121613345,-1.126304,-0.076128,-0.15616,8.37375,5.355,5.95875,47.976,-41.176003,-55.152004,eccentric,4,5.0,19114.0,25360.0,68104.0,77379.0,18551.0,34003.0,28547.0,44203.0,13303.0,10268.0
2026-05-06 16:00:58.246287,531629,1609505521715587,3121626363,-1.013088,-0.064416,-0.081984,5.6875,4.4625,7.84,47.032,-44.328003,-53.832,eccentric,4,5.0,19114.0,25360.0,68104.0,77379.0,18551.0,34003.0,28547.0,44203.0,13303.0,10268.0
2026-05-06 16:00:58.248791,531630,1609505521724808,3121637194,-1.013088,-0.064416,-0.081984,10.10625,3.8675,11.2175,47.032,-44.328003,-53.832,eccentric,4,5.0,19114.0,25360.0,68104.0,77379.0,18551.0,34003.0,28547.0,44203.0,13303.0,10268.0
2026-05-06 16:00:58.280176,531631,1609505521733698,3121645932,-1.116544,0.003904,-0.17568,14.385,3.92875,13.0375,46.952003,-42.952003,-54.624004,eccentric,4,5.0,19114.0,25360.0,68104.0,77379.0,18551.0,34003.0,28547.0,44203.0,13303.0,10268.0
2026-05-06 16:00:58.305084,531632,1609505521748267,3121660898,-1.116544,0.003904,-0.17568,15.715,4.05125,11.55,46.952003,-42.952003,-54.624004,eccentric,4,5.0,19114.0,25360.0,68104.0,77379.0,18551.0,34003.0,28547.0,44203.0,13303.0,10268.0
2026-05-06 16:00:58.320947,531633,1609505521757184,3121669611,-1.196576,0.021472,-0.154208,14.25375,4.03375,8.67125,46.656002,-40.696003,-58.112003,eccentric,4,5.0,19114.0,25360.0,68104.0,77379.0,18551.0,34003.0,28547.0,44203.0,13303.0,10268.0
2026-05-06 16:00:58.322430,531634,1609505521771717,3121682485,-1.056032,0.021472,-0.093696,9.765,3.4125,9.47625,46.2,-41.000004,-56.592003,eccentric,4,5.0,19114.0,25360.0,68104.0,77379.0,18551.0,34003.0,28547.0,44203.0,13303.0,10268.0
2026-05-06 16:00:58.324825,531635,1609505521781068,3121693257,-1.056032,0.021472,-0.093696,6.0375,3.26375,12.67,46.2,-41.000004,-56.592003,eccentric,4,5.0,19114.0,25360.0,68104.0,77379.0,18551.0,34003.0,28547.0,44203.0,13303.0,10268.0
2026-05-06 16:00:58.352585,531646,1609505521790195,3121702107,-1.079456,-0.003904,-0.13664,2.3975,3.73625,10.85875,46.112003,-42.856003,-55.800003,eccentric,4,5.0,19196.0,25406.0,68181.0,77315.0,18633.0,34045.0,28613.0,44133.0,13351.0,10305.0
2026-05-06 16:00:58.354988,531647,1609505521804705,3121717158,-1.079456,-0.003904,-0.13664,0.98,3.815,5.83625,46.112003,-42.856003,-55.800003,eccentric,4,5.0,19196.0,25406.0,68181.0,77315.0,18633.0,34045.0,28613.0,44133.0,13351.0,10305.0
2026-05-06 16:00:58.357433,531648,1609505521813699,3121725955,-1.138016,-0.066368,-0.16592,3.0975,4.08625,2.80875,45.944004,-43.528004,-55.784004,eccentric,4,5.0,19196.0,25406.0,68181.0,77315.0,18633.0,34045.0,28613.0,44133.0,13351.0,10305.0
2026-05-06 16:00:58.359801,531649,1609505521828314,3121741049,-1.138016,-0.066368,-0.16592,4.83875,4.1125,2.75625,45.944004,-43.528004,-55.784004,eccentric,4,5.0,19196.0,25406.0,68181.0,77315.0,18633.0,34045.0,28613.0,44133.0,13351.0,10305.0
2026-05-06 16:00:58.362410,531650,1609505521837283,3121749788,-1.114592,-0.074176,-0.1952,5.3375,3.0975,4.83,45.744003,-43.896004,-55.304,eccentric,4,5.0,19196.0,25406.0,68181.0,77315.0,18633.0,34045.0,28613.0,44133.0,13351.0,10305.0
2026-05-06 16:00:58.370949,531651,1609505521846228,3121758505,-1.114592,-0.074176,-0.1952,8.44375,1.6275,6.965,45.744003,-43.896004,-55.304,eccentric,4,5.0,19196.0,25406.0,68181.0,77315.0,18633.0,34045.0,28613.0,44133.0,13351.0,10305.0
2026-05-06 16:00:58.387464,531652,1609505521860907,3121773480,-1.050176,0.001952,-0.091744,13.886251,1.18125,8.61,44.856003,-43.296,-57.424004,eccentric,4,5.0,19196.0,25406.0,68181.0,77315.0,18633.0,34045.0,28613.0,44133.0,13351.0,10305.0
2026-05-06 16:00:58.393893,531653,1609505521869827,3121782200,-1.050176,0.0488,-0.113216,20.8075,0.9975,9.17,44.856003,-43.296,-57.424004,eccentric,4,5.0,19196.0,25406.0,68181.0,77315.0,18633.0,34045.0,28613.0,44133.0,13351.0,10305.0
2026-05-06 16:00:58.432565,531664,1609505521884426,3121797160,-1.048224,0.054656,-0.113216,23.28375,1.40875,8.6625,44.736004,-41.08,-57.424004,eccentric,4,5.0,19254.0,25431.0,68210.0,77166.0,18652.0,34052.0,28611.0,44009.0,13375.0,10333.0
2026-05-06 16:00:58.434999,531665,1609505521894059,3121806008,-1.100928,0.06832,-0.128832,20.53625,2.4325,6.72,44.632004,-41.688004,-58.440002,eccentric,4,5.0,19254.0,25431.0,68210.0,77166.0,18652.0,34052.0,28611.0,44009.0,13375.0,10333.0
2026-05-06 16:00:58.437321,531666,1609505521903215,3121814793,-1.100928,0.06832,-0.128832,14.58625,2.37125,2.2925,44.632004,-41.688004,-58.440002,eccentric,4,5.0,19254.0,25431.0,68210.0,77166.0,18652.0,34052.0,28611.0,44009.0,13375.0,10333.0
2026-05-06 16:00:58.441064,531667,1609505521917820,3121829785,-1.052128,0.0,-0.099552,9.80875,1.47,0.16625,44.344,-43.104004,-58.456,eccentric,4,5.0,19254.0,25431.0,68210.0,77166.0,18652.0,34052.0,28611.0,44009.0,13375.0,10333.0
2026-05-06 16:00:58.449584,531668,1609505521926898,3121838526,-1.052128,0.0,-0.099552,6.58875,0.65625,0.07875,44.344,-43.104004,-58.456,eccentric,4,5.0,19254.0,25431.0,68210.0,77166.0,18652.0,34052.0,28611.0,44009.0,13375.0,10333.0
2026-05-06 16:00:58.463636,531669,1609505521941397,3121853473,-1.052128,-0.025376,-0.093696,2.82625,0.04375,1.32125,44.000004,-41.344,-58.840004,eccentric,4,5.0,19254.0,25431.0,68210.0,77166.0,18652.0,34052.0,28611.0,44009.0,13375.0,10333.0
2026-05-06 16:00:58.472475,531670,1609505521950372,3121862225,-1.052128,-0.025376,-0.064416,5.46,-0.49,2.37125,44.000004,-41.344,-58.840004,eccentric,4,5.0,19254.0,25431.0,68210.0,77166.0,18652.0,34052.0,28611.0,44009.0,13375.0,10333.0
2026-05-06 16:00:58.482579,531671,1609505521959308,3121871034,-1.155584,0.011712,-0.064416,10.17625,-1.04125,2.0125,44.128002,-41.024002,-58.376003,eccentric,4,5.0,19254.0,25431.0,68210.0,77166.0,18652.0,34052.0,28611.0,44009.0,13375.0,10333.0
2026-05-06 16:00:58.516250,531672,1609505521973870,3121886091,-1.14192,0.066368,-0.081984,11.73375,-0.3675,3.00125,43.800003,-41.08,-59.736004,eccentric,4,5.0,19254.0,25431.0,68210.0,77166.0,18652.0,34052.0,28611.0,44009.0,13375.0,10333.0
2026-05-06 16:00:58.518728,531673,1609505521982841,3121894839,-1.14192,0.066368,-0.081984,7.0525,-0.3675,4.89125,43.800003,-41.08,-59.736004,eccentric,4,5.0,19254.0,25431.0,68210.0,77166.0,18652.0,34052.0,28611.0,44009.0,13375.0,10333.0
2026-05-06 16:00:58.546261,531684,1609505521997388,3121909822,-1.052128,0.0,-0.093696,-1.02375,-0.805,5.08375,43.192,-41.176003,-59.576004,eccentric,4,5.0,19165.0,25383.0,68118.0,77203.0,18578.0,34024.0,28582.0,44051.0,13338.0,10308.0
2026-05-06 16:00:58.548834,531685,1609505522006362,3121918615,-1.052128,0.0,-0.093696,-8.295,-2.38,3.57,43.192,-41.176003,-59.576004,eccentric,4,5.0,19165.0,25383.0,68118.0,77203.0,18578.0,34024.0,28582.0,44051.0,13338.0,10308.0
2026-05-06 16:00:58.551376,531686,1609505522020887,3121933638,-1.01504,-0.021472,-0.042944,-9.555,-4.445,3.78875,42.84,-44.792004,-57.312004,eccentric,4,5.0,19165.0,25383.0,68118.0,77203.0,18578.0,34024.0,28582.0,44051.0,13338.0,10308.0
2026-05-06 16:00:58.553919,531687,1609505522029815,3121942402,-1.01504,-0.021472,-0.042944,-4.38375,-5.9325,5.95875,42.84,-44.792004,-57.312004,eccentric,4,5.0,19165.0,25383.0,68118.0,77203.0,18578.0,34024.0,28582.0,44051.0,13338.0,10308.0
2026-05-06 16:00:58.562629,531688,1609505522038915,3121951172,-1.06384,0.027328,-0.023424,1.37375,-6.78125,8.68875,42.352,-43.296,-58.376003,eccentric,4,5.0,19165.0,25383.0,68118.0,77203.0,18578.0,34024.0,28582.0,44051.0,13338.0,10308.0
2026-05-06 16:00:58.586413,531689,1609505522053548,3121966188,-1.081408,0.062464,0.023424,2.45,-7.385,10.08875,42.160004,-41.248,-59.680004,eccentric,4,5.0,19165.0,25383.0,68118.0,77203.0,18578.0,34024.0,28582.0,44051.0,13338.0,10308.0
2026-05-06 16:00:58.588729,531690,1609505522062660,3121974879,-1.081408,0.062464,0.023424,0.62125,-7.86625,11.27,42.160004,-41.248,-59.680004,eccentric,4,5.0,19165.0,25383.0,68118.0,77203.0,18578.0,34024.0,28582.0,44051.0,13338.0,10308.0
2026-05-06 16:00:58.602694,531691,1609505522077201,3121989775,-0.976,0.037088,-0.080032,-4.76875,-8.8725,11.68125,41.888,-43.096,-58.496002,eccentric,4,5.0,19165.0,25383.0,68118.0,77203.0,18578.0,34024.0,28582.0,44051.0,13338.0,10308.0
2026-05-06 16:00:58.721374,531702,1609505522086447,3121998508,-0.976,0.037088,-0.080032,-9.35375,-9.8175,11.06875,41.888,-43.096,-58.496002,eccentric,4,5.0,19138.0,25280.0,68040.0,77399.0,18579.0,33976.0,28579.0,44225.0,13322.0,10289.0
2026-05-06 16:00:58.723558,531703,1609505522095495,3122007465,-0.93696,0.037088,-0.02928,-8.82875,-11.03375,9.6775,41.784,-41.808002,-59.288002,eccentric,4,5.0,19138.0,25280.0,68040.0,77399.0,18579.0,33976.0,28579.0,44225.0,13322.0,10289.0
2026-05-06 16:00:58.726149,531704,1609505522110028,3122022460,-0.93696,0.037088,-0.02928,-7.7525,-11.698751,6.57125,41.784,-41.808002,-59.288002,eccentric,4,5.0,19138.0,25280.0,68040.0,77399.0,18579.0,33976.0,28579.0,44225.0,13322.0,10289.0
2026-05-06 16:00:58.728687,531705,1609505522118931,3122031247,-1.032608,0.0976,0.015616,-6.69375,-12.95875,3.52625,41.56,-41.544003,-60.376003,eccentric,4,5.0,19138.0,25280.0,68040.0,77399.0,18579.0,33976.0,28579.0,44225.0,13322.0,10289.0
2026-05-06 16:00:58.731153,531706,1609505522133545,3122046237,-1.069696,0.111264,-0.023424,-6.37,-13.3875,2.7475,41.384003,-41.552002,-58.944004,eccentric,4,5.0,19138.0,25280.0,68040.0,77399.0,18579.0,33976.0,28579.0,44225.0,13322.0,10289.0
2026-05-06 16:00:58.733510,531707,1609505522142490,3122054938,-1.069696,0.111264,-0.023424,-9.9925,-14.2275,2.1,41.384003,-41.552002,-58.944004,eccentric,4,5.0,19138.0,25280.0,68040.0,77399.0,18579.0,33976.0,28579.0,44225.0,13322.0,10289.0
2026-05-06 16:00:58.736018,531708,1609505522156989,3122067801,-0.964288,0.085888,-0.042944,-14.74375,-15.16375,2.54625,41.264004,-41.624,-59.056004,eccentric,4,5.0,19138.0,25280.0,68040.0,77399.0,18579.0,33976.0,28579.0,44225.0,13322.0,10289.0
2026-05-06 16:00:58.738478,531709,1609505522166248,3122078599,-0.964288,0.085888,-0.042944,-18.94375,-16.0825,2.3975,41.264004,-41.624,-59.056004,eccentric,4,5.0,19138.0,25280.0,68040.0,77399.0,18579.0,33976.0,28579.0,44225.0,13322.0,10289.0
2026-05-06 16:00:58.741006,531710,1609505522175148,3122087281,-0.925248,0.066368,-0.027328,-21.28875,-17.045,0.8925,40.696003,-41.4,-58.272003,eccentric,4,5.0,19138.0,25280.0,68040.0,77399.0,18579.0,33976.0,28579.0,44225.0,13322.0,10289.0
2026-05-06 16:00:58.768496,531721,1609505522190240,3122102240,-0.925248,0.066368,-0.027328,-22.91625,-18.69875,-0.5425,40.696003,-41.4,-58.272003,eccentric,4,5.0,19158.0,25272.0,68014.0,77461.0,18567.0,34077.0,28577.0,44244.0,13316.0,10291.0
2026-05-06 16:00:58.771144,531722,1609505522199340,3122110949,-0.987712,0.0488,-0.081984,-29.49625,-18.6725,-2.2225,40.776,-41.168003,-58.000004,eccentric,4,5.0,19158.0,25272.0,68014.0,77461.0,18567.0,34077.0,28577.0,44244.0,13316.0,10291.0
2026-05-06 16:00:58.773477,531723,1609505522208318,3122119728,-0.987712,0.0488,-0.081984,-32.48875,-18.1125,-3.01875,40.776,-41.168003,-58.000004,eccentric,4,5.0,19158.0,25272.0,68014.0,77461.0,18567.0,34077.0,28577.0,44244.0,13316.0,10291.0
2026-05-06 16:00:58.776042,531724,1609505522222844,3122134722,-1.01504,-0.013664,-0.044896,-34.195,-17.675,-2.91375,40.584003,-41.320004,-57.504,eccentric,4,5.0,19158.0,25272.0,68014.0,77461.0,18567.0,34077.0,28577.0,44244.0,13316.0,10291.0
2026-05-06 16:00:58.778677,531725,1609505522231908,3122143751,-1.01504,-0.013664,-0.044896,-33.95875,-18.27875,-0.14,40.584003,-41.320004,-57.504,eccentric,4,5.0,19158.0,25272.0,68014.0,77461.0,18567.0,34077.0,28577.0,44244.0,13316.0,10291.0
2026-05-06 16:00:58.781236,531726,1609505522246516,3122158741,-0.954528,0.017568,-0.044896,-29.785,-18.69875,4.96125,40.688004,-42.04,-56.176003,eccentric,4,5.0,19158.0,25272.0,68014.0,77461.0,18567.0,34077.0,28577.0,44244.0,13316.0,10291.0
2026-05-06 16:00:58.783771,531727,1609505522255458,3122167462,-0.938912,0.064416,-0.03904,-23.82625,-19.60875,8.19,39.976,-43.368004,-55.736004,eccentric,4,5.0,19158.0,25272.0,68014.0,77461.0,18567.0,34077.0,28577.0,44244.0,13316.0,10291.0
2026-05-06 16:00:58.799887,531728,1609505522270009,3122182452,-0.938912,0.064416,-0.03904,-18.1825,-20.18625,6.81625,39.976,-43.368004,-55.736004,eccentric,4,5.0,19158.0,25272.0,68014.0,77461.0,18567.0,34077.0,28577.0,44244.0,13316.0,10291.0
2026-05-06 16:00:58.802516,531729,1609505522278935,3122191170,-0.938912,0.072224,-0.06832,-16.7825,-20.1775,4.68125,39.808002,-41.488003,-56.632004,eccentric,4,5.0,19158.0,25272.0,68014.0,77461.0,18567.0,34077.0,28577.0,44244.0,13316.0,10291.0
2026-05-06 16:00:58.836292,531740,1609505522288365,3122200394,-0.938912,0.072224,-0.06832,-18.795,-19.94125,5.04,39.808002,-41.488003,-56.632004,eccentric,4,5.0,19137.0,25267.0,68050.0,77392.0,18532.0,34125.0,28618.0,44188.0,13323.0,10319.0
2026-05-06 16:00:58.838533,531741,1609505522303059,3122215421,-0.911584,0.064416,-0.035136,-18.375,-19.11875,6.0725,39.944,-41.408,-56.168003,eccentric,4,5.0,19137.0,25267.0,68050.0,77392.0,18532.0,34125.0,28618.0,44188.0,13323.0,10319.0
2026-05-06 16:00:58.841284,531742,1609505522312109,3122224138,-0.911584,0.064416,-0.035136,-18.0075,-17.7275,4.47125,39.944,-41.408,-56.168003,eccentric,4,5.0,19137.0,25267.0,68050.0,77392.0,18532.0,34125.0,28618.0,44188.0,13323.0,10319.0
2026-05-06 16:00:58.850036,531743,1609505522326632,3122239122,-0.979904,0.109312,0.027328,-18.99625,-16.0125,2.17875,39.504,-43.72,-51.632004,eccentric,4,5.0,19137.0,25267.0,68050.0,77392.0,18532.0,34125.0,28618.0,44188.0,13323.0,10319.0
2026-05-06 16:00:58.858841,531744,1609505522335586,3122247832,-1.00528,0.121024,-0.052704,-16.9925,-14.9275,0.98875,39.584003,-41.696003,-55.384003,eccentric,4,5.0,19137.0,25267.0,68050.0,77392.0,18532.0,34125.0,28618.0,44188.0,13323.0,10319.0
2026-05-06 16:00:58.867671,531745,1609505522344552,3122256548,-1.00528,0.121024,-0.052704,-14.49875,-15.02375,-0.60375,39.584003,-41.696003,-55.384003,eccentric,4,5.0,19137.0,25267.0,68050.0,77392.0,18532.0,34125.0,28618.0,44188.0,13323.0,10319.0
2026-05-06 16:00:58.901326,531746,1609505522358990,3122271525,-0.874496,0.11712,-0.054656,-13.405,-14.9975,-0.77875,39.672,-40.984,-55.368004,eccentric,4,5.0,19137.0,25267.0,68050.0,77392.0,18532.0,34125.0,28618.0,44188.0,13323.0,10319.0
2026-05-06 16:00:58.903779,531747,1609505522367923,3122280272,-0.874496,0.11712,-0.054656,-14.13125,-13.51875,-0.4725,39.672,-40.984,-55.368004,eccentric,4,5.0,19137.0,25267.0,68050.0,77392.0,18532.0,34125.0,28618.0,44188.0,13323.0,10319.0
2026-05-06 16:00:58.906245,531748,1609505522382569,3122295277,-0.958432,0.122976,0.02928,-17.5,-10.64,-2.98375,39.480003,-41.376003,-54.888004,eccentric,4,5.0,19137.0,25267.0,68050.0,77392.0,18532.0,34125.0,28618.0,44188.0,13323.0,10319.0
2026-05-06 16:00:58.937419,531759,1609505522391708,3122304095,-0.958432,0.122976,0.02928,-21.14,-6.6325,-9.66875,39.480003,-41.376003,-54.888004,eccentric,4,5.0,19116.0,25301.0,68039.0,77462.0,18543.0,34167.0,28629.0,44133.0,13309.0,10355.0
2026-05-06 16:00:58.939606,531760,1609505522406323,3122319034,-1.075552,0.07808,0.007808,-18.97875,-4.6725,-13.83375,39.728,-41.344,-54.704002,eccentric,4,5.0,19116.0,25301.0,68039.0,77462.0,18543.0,34167.0,28629.0,44133.0,13309.0,10355.0
2026-05-06 16:00:58.942225,531761,1609505522415257,3122327904,-1.04432,0.037088,-0.023424,-12.59125,-4.97875,-11.6025,39.408,-42.168003,-56.096004,eccentric,4,5.0,19116.0,25301.0,68039.0,77462.0,18543.0,34167.0,28629.0,44133.0,13309.0,10355.0
2026-05-06 16:00:58.948726,531762,1609505522424436,3122336666,-1.04432,0.037088,-0.023424,-9.42375,-5.81875,-6.3175,39.408,-42.168003,-56.096004,eccentric,4,5.0,19116.0,25301.0,68039.0,77462.0,18543.0,34167.0,28629.0,44133.0,13309.0,10355.0
2026-05-06 16:00:58.964717,531763,1609505522439074,3122351658,-0.948672,0.085888,0.013664,-3.7275,-6.34375,-1.68,39.456,-41.128002,-55.120003,eccentric,4,5.0,19116.0,25301.0,68039.0,77462.0,18543.0,34167.0,28629.0,44133.0,13309.0,10355.0
2026-05-06 16:00:58.975244,531764,1609505522448011,3122360337,-0.948672,0.085888,0.013664,2.70375,-5.62625,-0.14875,39.456,-41.128002,-55.120003,eccentric,4,5.0,19116.0,25301.0,68039.0,77462.0,18543.0,34167.0,28629.0,44133.0,13309.0,10355.0
2026-05-06 16:00:58.987189,531765,1609505522462649,3122375256,-1.01504,0.124928,0.007808,6.58,-4.795,-2.42375,39.472,-40.632004,-54.840004,eccentric,4,5.0,19116.0,25301.0,68039.0,77462.0,18543.0,34167.0,28629.0,44133.0,13309.0,10355.0
2026-05-06 16:00:59.015022,531766,1609505522471753,3122383986,-1.01504,0.124928,0.007808,7.63,-4.05125,-5.915,39.472,-40.632004,-54.840004,eccentric,4,5.0,19116.0,25301.0,68039.0,77462.0,18543.0,34167.0,28629.0,44133.0,13309.0,10355.0
2026-05-06 16:00:59.040134,531767,1609505522480660,3122392695,-1.157536,0.074176,0.02928,6.72,-3.10625,-7.41125,39.432003,-41.688004,-53.88,eccentric,4,5.0,19116.0,25301.0,68039.0,77462.0,18543.0,34167.0,28629.0,44133.0,13309.0,10355.0
2026-05-06 16:00:59.073833,531778,1609505522495392,3122407826,-1.08336,0.011712,0.031232,4.9525,-2.8175,-5.915,39.640003,-41.592003,-57.032,eccentric,4,5.0,19040.0,25232.0,67993.0,77443.0,18456.0,34105.0,28614.0,44148.0,13261.0,10330.0
2026-05-06 16:00:59.077295,531779,1609505522504406,3122416535,-1.08336,0.011712,0.031232,4.0075,-2.5375,-1.98625,39.640003,-41.592003,-57.032,eccentric,4,5.0,19040.0,25232.0,67993.0,77443.0,18456.0,34105.0,28614.0,44148.0,13261.0,10330.0
2026-05-06 16:00:59.078740,531780,1609505522518901,3122431462,-0.976,-0.003904,0.005856,9.49375,-2.59875,1.3475,39.552002,-40.856003,-55.360004,eccentric,4,5.0,19040.0,25232.0,67993.0,77443.0,18456.0,34105.0,28614.0,44148.0,13261.0,10330.0
2026-05-06 16:00:59.080912,531781,1609505522527854,3122440193,-0.976,-0.003904,0.005856,17.08875,-2.65125,3.01,39.552002,-40.856003,-55.360004,eccentric,4,5.0,19040.0,25232.0,67993.0,77443.0,18456.0,34105.0,28614.0,44148.0,13261.0,10330.0
2026-05-06 16:00:59.083433,531782,1609505522536787,3122448963,-1.030656,0.081984,0.031232,20.90375,-2.35375,4.06875,39.424004,-40.944,-55.824,eccentric,4,5.0,19040.0,25232.0,67993.0,77443.0,18456.0,34105.0,28614.0,44148.0,13261.0,10330.0
2026-05-06 16:00:59.087078,531783,1609505522551279,3122463972,-1.030656,0.081984,0.031232,24.85875,-1.53125,4.34,39.424004,-40.944,-55.824,eccentric,4,5.0,19040.0,25232.0,67993.0,77443.0,18456.0,34105.0,28614.0,44148.0,13261.0,10330.0
2026-05-06 16:00:59.090022,531784,1609505522560218,3122472761,-1.108736,0.095648,-0.050752,25.29625,-1.225,3.07125,39.152,-41.392002,-55.144,eccentric,4,5.0,19040.0,25232.0,67993.0,77443.0,18456.0,34105.0,28614.0,44148.0,13261.0,10330.0
2026-05-06 16:00:59.097371,531785,1609505522574843,3122485624,-1.108736,0.095648,-0.050752,20.25625,-1.505,3.045,39.152,-41.392002,-55.144,eccentric,4,5.0,19040.0,25232.0,67993.0,77443.0,18456.0,34105.0,28614.0,44148.0,13261.0,10330.0
2026-05-06 16:00:59.110010,531786,1609505522584076,3122496422,-1.0248,0.074176,-0.011712,14.42,-1.51375,4.87375,39.160004,-43.24,-55.072002,eccentric,4,5.0,19040.0,25232.0,67993.0,77443.0,18456.0,34105.0,28614.0,44148.0,13261.0,10330.0
2026-05-06 16:00:59.137431,531797,1609505522598703,3122511414,-0.98576,0.03904,0.050752,11.73375,-1.51375,6.83375,39.456,-42.280003,-56.232002,eccentric,4,5.0,19171.0,25324.0,68015.0,77219.0,18543.0,34170.0,28619.0,43952.0,13338.0,10368.0
