pc_time,serial_num,sensor_ts,host_ts,ax,ay,az,gx,gy,gz,mx,my,mz,phase,rpe,weight_kg,ppg_a,ppg_b,ppg_c,ppg_d,ppg_e,ppg_f,ppg_g,ppg_h,ppg_i,ppg_j
2026-05-06 16:00:59.139840,531798,1609505522607688,3122520202,-0.98576,0.03904,0.050752,10.325,-1.1025,4.47125,39.456,-42.280003,-56.232002,concentric,4,5.0,19171.0,25324.0,68015.0,77219.0,18543.0,34170.0,28619.0,43952.0,13338.0,10368.0
2026-05-06 16:00:59.142397,531799,1609505522616638,3122528911,-1.11264,-0.001952,-0.011712,10.9375,-1.02375,0.1925,39.088,-42.36,-57.248,concentric,4,5.0,19171.0,25324.0,68015.0,77219.0,18543.0,34170.0,28619.0,43952.0,13338.0,10368.0
2026-05-06 16:00:59.156155,531800,1609505522631245,3122543983,-1.11264,-0.001952,-0.011712,13.39625,-0.48125,-3.26375,39.088,-42.36,-57.248,concentric,4,5.0,19171.0,25324.0,68015.0,77219.0,18543.0,34170.0,28619.0,43952.0,13338.0,10368.0
2026-05-06 16:00:59.165735,531801,1609505522640170,3122552691,-1.126304,-0.01952,0.05856,15.4,-0.5425,-3.7975,39.344,-42.128002,-55.448,concentric,4,5.0,19171.0,25324.0,68015.0,77219.0,18543.0,34170.0,28619.0,43952.0,13338.0,10368.0
2026-05-06 16:00:59.178751,531802,1609505522654677,3122565583,-1.126304,-0.01952,0.05856,15.46125,-1.54,-2.79125,39.344,-42.128002,-55.448,concentric,4,5.0,19171.0,25324.0,68015.0,77219.0,18543.0,34170.0,28619.0,43952.0,13338.0,10368.0
2026-05-06 16:00:59.187531,531803,1609505522664148,3122576431,-1.05408,0.064416,0.105408,16.49375,-1.295,-2.0475,39.312,-43.544003,-56.664,concentric,4,5.0,19171.0,25324.0,68015.0,77219.0,18543.0,34170.0,28619.0,43952.0,13338.0,10368.0
2026-05-06 16:00:59.196275,531804,1609505522673194,3122585148,-1.05408,0.064416,0.105408,17.36,-0.86625,-3.70125,39.312,-43.544003,-56.664,concentric,4,5.0,19171.0,25324.0,68015.0,77219.0,18543.0,34170.0,28619.0,43952.0,13338.0,10368.0
2026-05-06 16:00:59.218517,531805,1609505522687680,3122600091,-1.022848,0.101504,0.056608,15.49625,0.20125,-6.4575,39.776,-42.024002,-57.120003,concentric,4,5.0,19171.0,25324.0,68015.0,77219.0,18543.0,34170.0,28619.0,43952.0,13338.0,10368.0
2026-05-06 16:00:59.246383,531816,1609505522696732,3122608913,-1.089216,0.044896,-0.033184,8.21625,1.96875,-9.87875,39.776,-41.68,-58.504,concentric,4,5.0,19160.0,25331.0,67965.0,77360.0,18556.0,34192.0,28620.0,44035.0,13330.0,10392.0
2026-05-06 16:00:59.248946,531817,1609505522711485,3122623872,-1.089216,0.044896,-0.033184,-0.28,3.31625,-13.877501,39.872,-41.68,-58.504,concentric,4,5.0,19160.0,25331.0,67965.0,77360.0,18556.0,34192.0,28620.0,44035.0,13330.0,10392.0
2026-05-06 16:00:59.251515,531818,1609505522720407,3122632585,-1.057984,0.031232,-0.031232,-3.045,3.42125,-14.8575,40.2,-43.536003,-55.896004,concentric,4,5.0,19160.0,25331.0,67965.0,77360.0,18556.0,34192.0,28620.0,44035.0,13330.0,10392.0
2026-05-06 16:00:59.253944,531819,1609505522729416,3122641356,-1.057984,0.031232,-0.031232,0.32375,4.01625,-11.6025,40.2,-43.536003,-55.896004,concentric,4,5.0,19160.0,25331.0,67965.0,77360.0,18556.0,34192.0,28620.0,44035.0,13330.0,10392.0
2026-05-06 16:00:59.285145,531820,1609505522743970,3122656303,-1.022848,0.105408,0.001952,5.67875,4.13,-9.3625,40.096,-42.504,-57.064003,concentric,4,5.0,19160.0,25331.0,67965.0,77360.0,18556.0,34192.0,28620.0,44035.0,13330.0,10392.0
2026-05-06 16:00:59.287426,531821,1609505522752925,3122665034,-1.022848,0.105408,0.001952,11.05125,4.34875,-10.885,40.096,-42.504,-57.064003,concentric,4,5.0,19160.0,25331.0,67965.0,77360.0,18556.0,34192.0,28620.0,44035.0,13330.0,10392.0
2026-05-06 16:00:59.291176,531822,1609505522767408,3122679934,-1.05408,0.122976,-0.023424,12.425,4.76,-13.7025,40.368,-41.592003,-57.656002,concentric,4,5.0,19160.0,25331.0,67965.0,77360.0,18556.0,34192.0,28620.0,44035.0,13330.0,10392.0
2026-05-06 16:00:59.299838,531823,1609505522776317,3122688767,-1.05408,0.122976,-0.023424,10.5875,4.725,-14.980001,40.368,-41.592003,-57.656002,concentric,4,5.0,19160.0,25331.0,67965.0,77360.0,18556.0,34192.0,28620.0,44035.0,13330.0,10392.0
2026-05-06 16:00:59.337710,531834,1609505522790962,3122703726,-1.100928,0.083936,-0.031232,8.855001,4.08625,-16.1175,40.544003,-40.84,-58.088,concentric,4,5.0,19115.0,25269.0,67969.0,77708.0,18520.0,34190.0,28631.0,44268.0,13317.0,10379.0
2026-05-06 16:00:59.340163,531835,1609505522800080,3122712545,-1.104832,0.050752,0.03904,8.28625,3.52625,-16.30125,40.832,-43.256,-55.712,concentric,4,5.0,19115.0,25269.0,67969.0,77708.0,18520.0,34190.0,28631.0,44268.0,13317.0,10379.0
2026-05-06 16:00:59.342709,531836,1609505522809077,3122721318,-1.104832,0.050752,0.03904,9.1175,3.24625,-14.69125,40.832,-43.256,-55.712,concentric,4,5.0,19115.0,25269.0,67969.0,77708.0,18520.0,34190.0,28631.0,44268.0,13317.0,10379.0
2026-05-06 16:00:59.348883,531837,1609505522823696,3122736313,-1.036512,0.044896,0.021472,7.28,3.19375,-12.495,40.584003,-44.176003,-55.824,concentric,4,5.0,19115.0,25269.0,67969.0,77708.0,18520.0,34190.0,28631.0,44268.0,13317.0,10379.0
2026-05-06 16:00:59.357548,531838,1609505522832688,3122745121,-1.036512,0.044896,0.021472,6.335,4.62875,-10.823751,40.584003,-44.176003,-55.824,concentric,4,5.0,19115.0,25269.0,67969.0,77708.0,18520.0,34190.0,28631.0,44268.0,13317.0,10379.0
2026-05-06 16:00:59.382535,531839,1609505522847154,3122757974,-1.065792,0.0488,0.00976,5.29375,7.42875,-10.45625,41.152,-41.368004,-58.104004,concentric,4,5.0,19115.0,25269.0,67969.0,77708.0,18520.0,34190.0,28631.0,44268.0,13317.0,10379.0
2026-05-06 16:00:59.407643,531840,1609505522856377,3122768745,-1.065792,0.0488,0.00976,4.4275,8.785,-11.43625,41.152,-41.368004,-58.104004,concentric,4,5.0,19115.0,25269.0,67969.0,77708.0,18520.0,34190.0,28631.0,44268.0,13317.0,10379.0
2026-05-06 16:00:59.421460,531841,1609505522865290,3122777536,-1.114592,0.015616,-0.013664,6.20375,9.6775,-10.78875,41.032,-40.424004,-58.296,concentric,4,5.0,19115.0,25269.0,67969.0,77708.0,18520.0,34190.0,28631.0,44268.0,13317.0,10379.0
2026-05-06 16:00:59.423911,531842,1609505522879772,3122792481,-1.075552,0.042944,0.00976,7.175,9.59,-9.23125,41.024002,-40.536003,-58.328003,concentric,4,5.0,19115.0,25269.0,67969.0,77708.0,18520.0,34190.0,28631.0,44268.0,13317.0,10379.0
2026-05-06 16:00:59.426376,531843,1609505522888688,3122801218,-1.075552,0.042944,0.00976,9.9925,8.9775,-6.30875,41.024002,-40.536003,-58.328003,concentric,4,5.0,19115.0,25269.0,67969.0,77708.0,18520.0,34190.0,28631.0,44268.0,13317.0,10379.0
2026-05-06 16:00:59.455713,531854,1609505522903289,3122814174,-1.022848,0.072224,0.033184,12.67,7.84,-5.565,41.208,-40.984,-58.680004,concentric,4,5.0,19227.0,25334.0,68046.0,77785.0,18613.0,34264.0,28648.0,44322.0,13356.0,10416.0
2026-05-06 16:00:59.455859,531855,1609505522912686,3122825006,-1.022848,0.072224,0.033184,15.33875,7.14875,-7.41125,41.208,-40.984,-58.680004,concentric,4,5.0,19227.0,25334.0,68046.0,77785.0,18613.0,34264.0,28648.0,44322.0,13356.0,10416.0
2026-05-06 16:00:59.458450,531856,1609505522921677,3122833772,-1.046272,0.044896,-0.015616,17.955,7.07875,-9.3975,41.432003,-42.384003,-57.752003,concentric,4,5.0,19227.0,25334.0,68046.0,77785.0,18613.0,34264.0,28648.0,44322.0,13356.0,10416.0
2026-05-06 16:00:59.461224,531857,1609505522936288,3122848747,-1.046272,0.044896,-0.015616,16.5025,7.70875,-11.36625,41.432003,-42.384003,-57.752003,concentric,4,5.0,19227.0,25334.0,68046.0,77785.0,18613.0,34264.0,28648.0,44322.0,13356.0,10416.0
2026-05-06 16:00:59.467524,531858,1609505522945279,3122857523,-1.085312,0.003904,-0.01952,9.695,7.84875,-12.53875,41.248,-42.152,-56.960003,concentric,4,5.0,19227.0,25334.0,68046.0,77785.0,18613.0,34264.0,28648.0,44322.0,13356.0,10416.0
2026-05-06 16:00:59.501468,531859,1609505522959765,3122872484,-1.032608,0.00976,-0.01952,5.31125,7.98875,-12.20625,41.816,-40.608,-59.744003,concentric,4,5.0,19227.0,25334.0,68046.0,77785.0,18613.0,34264.0,28648.0,44322.0,13356.0,10416.0
2026-05-06 16:00:59.503951,531860,1609505522968709,3122881186,-1.032608,0.00976,-0.01952,2.89625,7.735,-11.12125,41.816,-40.608,-59.744003,concentric,4,5.0,19227.0,25334.0,68046.0,77785.0,18613.0,34264.0,28648.0,44322.0,13356.0,10416.0
2026-05-06 16:00:59.507678,531861,1609505522983338,3122896061,-1.0248,0.062464,0.021472,3.255,7.595,-9.625,41.968002,-40.544003,-59.584003,concentric,4,5.0,19227.0,25334.0,68046.0,77785.0,18613.0,34264.0,28648.0,44322.0,13356.0,10416.0
2026-05-06 16:00:59.545023,531872,1609505522992965,3122905018,-1.0248,0.062464,0.021472,4.92625,8.32125,-8.82,41.968002,-40.544003,-59.584003,concentric,4,5.0,19220.0,25330.0,68027.0,77768.0,18632.0,34276.0,28632.0,44248.0,13381.0,10408.0
2026-05-06 16:00:59.545439,531873,1609505523001983,3122913861,-1.061888,0.05856,-0.013664,5.04,8.575,-10.01875,41.768,-43.784,-57.000004,concentric,4,5.0,19220.0,25330.0,68027.0,77768.0,18632.0,34276.0,28632.0,44248.0,13381.0,10408.0
2026-05-06 16:00:59.546150,531874,1609505523016488,3122928862,-1.061888,0.05856,-0.013664,2.07375,8.4525,-12.88875,41.768,-43.784,-57.000004,concentric,4,5.0,19220.0,25330.0,68027.0,77768.0,18632.0,34276.0,28632.0,44248.0,13381.0,10408.0
2026-05-06 16:00:59.548730,531875,1609505523025437,3122937593,-1.040416,0.013664,-0.040992,-2.555,8.35625,-14.761251,41.848003,-43.048,-58.08,concentric,4,5.0,19220.0,25330.0,68027.0,77768.0,18632.0,34276.0,28632.0,44248.0,13381.0,10408.0
2026-05-06 16:00:59.582414,531876,1609505523039962,3122952506,-1.036512,0.027328,-0.02928,-5.5475,9.37125,-14.971251,42.36,-39.992,-59.768,concentric,4,5.0,19220.0,25330.0,68027.0,77768.0,18632.0,34276.0,28632.0,44248.0,13381.0,10408.0
2026-05-06 16:00:59.584595,531877,1609505523048901,3122961322,-1.036512,0.027328,-0.02928,-6.9825,10.43,-14.533751,42.36,-39.992,-59.768,concentric,4,5.0,19220.0,25330.0,68027.0,77768.0,18632.0,34276.0,28632.0,44248.0,13381.0,10408.0
2026-05-06 16:00:59.587213,531878,1609505523057820,3122970041,-1.036512,0.027328,-0.02928,-5.81,10.9375,-14.00875,42.36,-39.992,-59.768,concentric,4,5.0,19220.0,25330.0,68027.0,77768.0,18632.0,34276.0,28632.0,44248.0,13381.0,10408.0
2026-05-06 16:00:59.596287,531879,1609505523072575,3122984994,-1.067744,0.052704,-0.037088,-5.635,11.10375,-14.175,42.288002,-39.640003,-59.736004,concentric,4,5.0,19220.0,25330.0,68027.0,77768.0,18632.0,34276.0,28632.0,44248.0,13381.0,10408.0
2026-05-06 16:00:59.604928,531880,1609505523081560,3122993746,-1.09312,0.06832,-0.033184,-7.4025,11.480001,-14.18375,42.752003,-39.656002,-59.672005,concentric,4,5.0,19220.0,25330.0,68027.0,77768.0,18632.0,34276.0,28632.0,44248.0,13381.0,10408.0
2026-05-06 16:00:59.643251,531891,1609505523096397,3123008809,-1.09312,0.06832,-0.033184,-8.9075,12.2325,-13.71125,42.752003,-39.656002,-59.672005,concentric,4,5.0,19296.0,25391.0,68093.0,77906.0,18682.0,34318.0,28662.0,44299.0,13417.0,10431.0
2026-05-06 16:00:59.645624,531892,1609505523105344,3123017655,-1.085312,0.007808,-0.017568,-9.38,11.9,-14.77875,42.968002,-40.936,-59.760002,concentric,4,5.0,19296.0,25391.0,68093.0,77906.0,18682.0,34318.0,28662.0,44299.0,13417.0,10431.0
2026-05-06 16:00:59.647205,531893,1609505523114290,3123026424,-1.085312,0.007808,-0.017568,-7.95375,10.0275,-16.1,42.968002,-40.936,-59.760002,concentric,4,5.0,19296.0,25391.0,68093.0,77906.0,18682.0,34318.0,28662.0,44299.0,13417.0,10431.0
2026-05-06 16:00:59.653627,531894,1609505523128830,3123041409,-1.030656,0.005856,-0.013664,-4.9525,9.3275,-14.9275,43.312,-41.288002,-58.032,concentric,4,5.0,19296.0,25391.0,68093.0,77906.0,18682.0,34318.0,28662.0,44299.0,13417.0,10431.0
2026-05-06 16:00:59.660022,531895,1609505523137845,3123050176,-1.030656,0.005856,-0.013664,-2.33625,9.65125,-13.886251,43.312,-41.288002,-58.032,concentric,4,5.0,19296.0,25391.0,68093.0,77906.0,18682.0,34318.0,28662.0,44299.0,13417.0,10431.0
2026-05-06 16:00:59.673726,531896,1609505523152348,3123063114,-1.085312,0.01952,-0.027328,1.61,9.96625,-14.14875,43.504,-39.136,-59.968002,concentric,4,5.0,19296.0,25391.0,68093.0,77906.0,18682.0,34318.0,28662.0,44299.0,13417.0,10431.0
2026-05-06 16:00:59.687302,531897,1609505523161557,3123073889,-1.104832,0.06832,-0.062464,-1.00625,9.31875,-15.02375,43.864002,-38.640003,-60.464005,concentric,4,5.0,19296.0,25391.0,68093.0,77906.0,18682.0,34318.0,28662.0,44299.0,13417.0,10431.0
2026-05-06 16:00:59.701380,531898,1609505523176244,3123088863,-1.104832,0.06832,-0.062464,-6.51,8.505,-13.5625,43.864002,-38.640003,-60.464005,concentric,4,5.0,19296.0,25391.0,68093.0,77906.0,18682.0,34318.0,28662.0,44299.0,13417.0,10431.0
2026-05-06 16:00:59.710182,531899,1609505523185332,3123097611,-1.0736,0.027328,-0.08784,-7.945,7.455,-11.795,43.936,-39.064003,-59.72,concentric,4,5.0,19296.0,25391.0,68093.0,77906.0,18682.0,34318.0,28662.0,44299.0,13417.0,10431.0
2026-05-06 16:00:59.801461,531911,1609505523194363,3123106414,-1.0736,0.027328,-0.08784,-9.17,6.65,-12.74875,43.936,-39.064003,-59.72,concentric,4,5.0,19531.0,25560.0,68183.0,78004.0,18863.0,34497.0,28752.0,44298.0,13565.0,10524.0
2026-05-06 16:00:59.803965,531912,1609505523209030,3123121395,-1.056032,-0.027328,-0.052704,-10.465,6.2475,-12.69625,44.136,-39.480003,-59.496002,concentric,4,5.0,19531.0,25560.0,68183.0,78004.0,18863.0,34497.0,28752.0,44298.0,13565.0,10524.0
2026-05-06 16:00:59.806141,531913,1609505523217965,3123130154,-1.056032,-0.027328,-0.052704,-11.41875,5.03125,-9.415,44.136,-39.480003,-59.496002,concentric,4,5.0,19531.0,25560.0,68183.0,78004.0,18863.0,34497.0,28752.0,44298.0,13565.0,10524.0
2026-05-06 16:00:59.808999,531914,1609505523232449,3123145181,-1.028704,-0.003904,0.015616,-13.37,5.53,-6.06375,44.000004,-39.008003,-59.856003,concentric,4,5.0,19531.0,25560.0,68183.0,78004.0,18863.0,34497.0,28752.0,44298.0,13565.0,10524.0
2026-05-06 16:00:59.811452,531915,1609505523241404,3123153912,-1.09312,0.005856,-0.044896,-15.505,5.67875,-5.95,44.464,-38.848003,-61.816,concentric,4,5.0,19531.0,25560.0,68183.0,78004.0,18863.0,34497.0,28752.0,44298.0,13565.0,10524.0
2026-05-06 16:00:59.813953,531916,1609505523250517,3123162751,-1.09312,0.005856,-0.044896,-18.15625,6.30875,-8.1375,44.464,-38.848003,-61.816,concentric,4,5.0,19531.0,25560.0,68183.0,78004.0,18863.0,34497.0,28752.0,44298.0,13565.0,10524.0
2026-05-06 16:00:59.816375,531917,1609505523265163,3123177684,-1.077504,-0.017568,-0.122976,-16.3275,5.7225,-7.8575,44.344,-38.416,-59.480003,concentric,4,5.0,19531.0,25560.0,68183.0,78004.0,18863.0,34497.0,28752.0,44298.0,13565.0,10524.0
2026-05-06 16:00:59.819005,531918,1609505523274203,3123186454,-1.077504,-0.017568,-0.122976,-11.4975,4.8125,-5.03125,44.344,-38.416,-59.480003,concentric,4,5.0,19531.0,25560.0,68183.0,78004.0,18863.0,34497.0,28752.0,44298.0,13565.0,10524.0
2026-05-06 16:00:59.824901,531919,1609505523288698,3123201430,-1.032608,0.00976,-0.072224,-6.81625,3.19375,-3.8675,44.624,-40.272003,-57.304,concentric,4,5.0,19531.0,25560.0,68183.0,78004.0,18863.0,34497.0,28752.0,44298.0,13565.0,10524.0
2026-05-06 16:00:59.851212,531930,1609505523297814,3123210210,-1.032608,0.00976,-0.072224,-4.0425,2.8,-3.22875,44.624,-40.272003,-57.304,concentric,4,5.0,19683.0,25649.0,68284.0,78456.0,18999.0,34602.0,28876.0,44554.0,13638.0,10600.0
2026-05-06 16:00:59.853763,531931,1609505523306898,3123219126,-1.052128,0.017568,-0.064416,-3.21125,2.2575,-2.82625,44.288002,-42.232002,-57.24,concentric,4,5.0,19683.0,25649.0,68284.0,78456.0,18999.0,34602.0,28876.0,44554.0,13638.0,10600.0
2026-05-06 16:00:59.856160,531932,1609505523321416,3123234092,-1.067744,-0.015616,-0.076128,-4.4275,2.86125,-3.89375,44.288002,-42.56,-54.024002,concentric,4,5.0,19683.0,25649.0,68284.0,78456.0,18999.0,34602.0,28876.0,44554.0,13638.0,10600.0
2026-05-06 16:00:59.858799,531933,1609505523330346,3123242870,-1.067744,-0.015616,-0.076128,-7.4375,2.73,-4.66375,44.632004,-42.56,-54.024002,concentric,4,5.0,19683.0,25649.0,68284.0,78456.0,18999.0,34602.0,28876.0,44554.0,13638.0,10600.0
2026-05-06 16:00:59.867635,531934,1609505523345086,3123255887,-1.026752,0.001952,-0.02928,-4.06,1.7325,-3.73625,45.168003,-40.856003,-57.960003,concentric,4,5.0,19683.0,25649.0,68284.0,78456.0,18999.0,34602.0,28876.0,44554.0,13638.0,10600.0
2026-05-06 16:00:59.881138,531935,1609505523354453,3123266659,-1.026752,0.001952,-0.02928,-1.225,1.07625,-2.33625,45.168003,-40.856003,-57.960003,concentric,4,5.0,19683.0,25649.0,68284.0,78456.0,18999.0,34602.0,28876.0,44554.0,13638.0,10600.0
2026-05-06 16:00:59.887670,531936,1609505523363414,3123275370,-1.050176,0.027328,-0.064416,-0.4725,0.79625,-2.59875,44.528004,-39.048,-60.120003,concentric,4,5.0,19683.0,25649.0,68284.0,78456.0,18999.0,34602.0,28876.0,44554.0,13638.0,10600.0
2026-05-06 16:00:59.925015,531937,1609505523377911,3123290307,-1.050176,0.027328,-0.064416,-0.53375,1.1025,-3.17625,44.528004,-39.048,-60.120003,concentric,4,5.0,19683.0,25649.0,68284.0,78456.0,18999.0,34602.0,28876.0,44554.0,13638.0,10600.0
2026-05-06 16:00:59.927510,531938,1609505523386829,3123299160,-1.050176,-0.017568,-0.101504,-5.41625,0.97125,-3.21125,44.824,-39.2,-59.200005,concentric,4,5.0,19683.0,25649.0,68284.0,78456.0,18999.0,34602.0,28876.0,44554.0,13638.0,10600.0
2026-05-06 16:00:59.959834,531949,1609505523401389,3123314175,-1.050176,-0.017568,-0.0976,-11.095,1.16375,-1.60125,44.824,-39.2,-59.200005,concentric,4,5.0,19922.0,25845.0,68514.0,79867.0,19197.0,34781.0,28965.0,45389.0,13797.0,10692.0
2026-05-06 16:00:59.962354,531950,1609505523410339,3123323024,-1.040416,-0.035136,-0.0976,-9.86125,0.56,-1.925,45.256,-39.608,-55.960003,concentric,4,5.0,19922.0,25845.0,68514.0,79867.0,19197.0,34781.0,28965.0,45389.0,13797.0,10692.0
2026-05-06 16:00:59.964686,531951,1609505523425026,3123336035,-1.03456,0.007808,-0.052704,-5.76625,0.2275,-3.10625,45.120003,-39.288002,-58.688004,concentric,4,5.0,19922.0,25845.0,68514.0,79867.0,19197.0,34781.0,28965.0,45389.0,13797.0,10692.0
2026-05-06 16:00:59.967135,531952,1609505523434269,3123346805,-1.03456,0.007808,-0.052704,-0.735,-0.3675,-3.08875,45.120003,-39.288002,-58.688004,concentric,4,5.0,19922.0,25845.0,68514.0,79867.0,19197.0,34781.0,28965.0,45389.0,13797.0,10692.0
2026-05-06 16:00:59.969693,531953,1609505523443322,3123355514,-1.020896,-0.040992,-0.119072,2.94875,-1.51375,-2.87,45.112003,-41.08,-58.944004,concentric,4,5.0,19922.0,25845.0,68514.0,79867.0,19197.0,34781.0,28965.0,45389.0,13797.0,10692.0
2026-05-06 16:00:59.983851,531954,1609505523457876,3123370471,-1.020896,-0.040992,-0.119072,1.645,-2.86125,-1.77625,45.112003,-41.08,-58.944004,concentric,4,5.0,19922.0,25845.0,68514.0,79867.0,19197.0,34781.0,28965.0,45389.0,13797.0,10692.0
2026-05-06 16:00:59.990049,531955,1609505523466769,3123379254,-1.018944,-0.064416,-0.0976,-2.66,-3.36,-0.42875,45.416,-40.0,-58.304005,concentric,4,5.0,19922.0,25845.0,68514.0,79867.0,19197.0,34781.0,28965.0,45389.0,13797.0,10692.0
2026-05-06 16:01:00.007680,531956,1609505523481311,3123392123,-1.018944,-0.064416,-0.0976,-1.3125,-3.17625,-1.89875,45.416,-40.0,-58.304005,concentric,4,5.0,19922.0,25845.0,68514.0,79867.0,19197.0,34781.0,28965.0,45389.0,13797.0,10692.0
2026-05-06 16:01:00.019273,531957,1609505523490574,3123402879,-1.08336,0.007808,-0.070272,4.585,-3.05375,-3.885,45.752003,-39.344,-60.696003,concentric,4,5.0,19922.0,25845.0,68514.0,79867.0,19197.0,34781.0,28965.0,45389.0,13797.0,10692.0
2026-05-06 16:01:00.044884,531968,1609505523499737,3123411968,-1.08336,0.007808,-0.070272,8.2075,-3.78,-3.955,45.752003,-39.344,-60.696003,concentric,4,5.0,20125.0,26037.0,68666.0,80714.0,19400.0,34974.0,29040.0,45843.0,13908.0,10784.0
2026-05-06 16:01:00.049846,531969,1609505523514413,3123426973,-1.052128,0.056608,-0.064416,6.86,-5.1975,-2.975,45.544003,-41.488003,-57.384003,concentric,4,5.0,20125.0,26037.0,68666.0,80714.0,19400.0,34974.0,29040.0,45843.0,13908.0,10784.0
2026-05-06 16:01:00.052507,531970,1609505523523452,3123435737,-1.03456,-0.056608,-0.076128,-2.6075,-4.48875,-2.82625,45.704002,-41.384003,-58.472004,concentric,4,5.0,20125.0,26037.0,68666.0,80714.0,19400.0,34974.0,29040.0,45843.0,13908.0,10784.0
2026-05-06 16:01:00.066311,531971,1609505523538133,3123450665,-1.03456,-0.056608,-0.076128,-15.1725,-2.65125,-4.24375,45.704002,-41.384003,-58.472004,concentric,4,5.0,20125.0,26037.0,68666.0,80714.0,19400.0,34974.0,29040.0,45843.0,13908.0,10784.0
2026-05-06 16:01:00.070076,531972,1609505523547032,3123459444,-1.065792,-0.11712,-0.121024,-21.8925,-2.555,-5.97625,45.72,-40.768,-56.472004,concentric,4,5.0,20125.0,26037.0,68666.0,80714.0,19400.0,34974.0,29040.0,45843.0,13908.0,10784.0
2026-05-06 16:01:00.078928,531973,1609505523556008,3123468177,-1.065792,-0.11712,-0.121024,-15.408751,-3.29875,-5.88875,45.72,-40.768,-56.472004,concentric,4,5.0,20125.0,26037.0,68666.0,80714.0,19400.0,34974.0,29040.0,45843.0,13908.0,10784.0
2026-05-06 16:01:00.118603,531974,1609505523570547,3123483183,-1.040416,-0.040992,-0.099552,-6.2825,-4.47125,-4.48875,45.848003,-40.920002,-56.584003,concentric,4,5.0,20125.0,26037.0,68666.0,80714.0,19400.0,34974.0,29040.0,45843.0,13908.0,10784.0
2026-05-06 16:01:00.143802,531975,1609505523579486,3123491903,-1.040416,-0.040992,-0.099552,2.66875,-5.775,-2.03875,45.848003,-40.920002,-56.584003,concentric,4,5.0,20125.0,26037.0,68666.0,80714.0,19400.0,34974.0,29040.0,45843.0,13908.0,10784.0
2026-05-06 16:01:00.204719,531986,1609505523594155,3123506924,-1.079456,0.037088,-0.062464,8.2075,-6.62375,-1.225,46.096,-40.192,-57.296,concentric,4,5.0,20233.0,26115.0,68646.0,80825.0,19495.0,35012.0,29048.0,45922.0,13994.0,10815.0
2026-05-06 16:01:00.207953,531987,1609505523603261,3123515720,-1.079456,0.007808,-0.089792,0.6475,-6.58875,-2.38875,46.096,-40.192,-57.296,concentric,4,5.0,20233.0,26115.0,68646.0,80825.0,19495.0,35012.0,29048.0,45922.0,13994.0,10815.0
2026-05-06 16:01:00.210166,531988,1609505523617806,3123528619,-1.104832,0.007808,-0.089792,-11.095,-5.88875,-2.79125,46.08,-41.36,-54.488003,concentric,4,5.0,20233.0,26115.0,68646.0,80825.0,19495.0,35012.0,29048.0,45922.0,13994.0,10815.0
2026-05-06 16:01:00.212314,531989,1609505523627033,3123539496,-1.104832,-0.091744,-0.119072,-18.33125,-5.11,-4.50625,46.584003,-39.800003,-56.984,concentric,4,5.0,20233.0,26115.0,68646.0,80825.0,19495.0,35012.0,29048.0,45922.0,13994.0,10815.0
2026-05-06 16:01:00.215001,531990,1609505523635957,3123548262,-1.104832,-0.091744,-0.119072,-16.65125,-5.43375,-8.3475,46.584003,-39.800003,-56.984,concentric,4,5.0,20233.0,26115.0,68646.0,80825.0,19495.0,35012.0,29048.0,45922.0,13994.0,10815.0
2026-05-06 16:01:00.217503,531991,1609505523650435,3123563244,-1.079456,-0.0976,-0.101504,-7.16625,-6.16,-8.67125,46.72,-39.952003,-56.192,concentric,4,5.0,20233.0,26115.0,68646.0,80825.0,19495.0,35012.0,29048.0,45922.0,13994.0,10815.0
2026-05-06 16:01:00.220004,531992,1609505523659352,3123571976,-1.079456,-0.0976,-0.101504,0.5775,-6.44875,-7.09625,46.72,-39.952003,-56.192,concentric,4,5.0,20233.0,26115.0,68646.0,80825.0,19495.0,35012.0,29048.0,45922.0,13994.0,10815.0
2026-05-06 16:01:00.222325,531993,1609505523673914,3123584907,-1.104832,-0.013664,-0.08784,2.59,-6.23875,-6.02875,46.624,-40.24,-56.520004,concentric,4,5.0,20233.0,26115.0,68646.0,80825.0,19495.0,35012.0,29048.0,45922.0,13994.0,10815.0
2026-05-06 16:01:00.225034,531994,1609505523683619,3123595767,-1.104832,-0.013664,-0.074176,-0.23625,-6.125,-5.9675,46.624,-40.24,-56.520004,concentric,4,5.0,20233.0,26115.0,68646.0,80825.0,19495.0,35012.0,29048.0,45922.0,13994.0,10815.0
2026-05-06 16:01:00.227613,531995,1609505523692674,3123604517,-1.067744,0.021472,-0.074176,-11.59375,-6.23,-4.61125,46.648003,-40.112003,-53.776,concentric,4,5.0,20233.0,26115.0,68646.0,80825.0,19495.0,35012.0,29048.0,45922.0,13994.0,10815.0
2026-05-06 16:01:00.254970,532006,1609505523707347,3123619681,-1.057984,-0.044896,-0.054656,-19.53875,-5.55625,-3.29875,47.336002,-41.136,-54.440002,concentric,4,5.0,20261.0,26136.0,68676.0,80803.0,19514.0,35041.0,29074.0,45989.0,14016.0,10832.0
2026-05-06 16:01:00.261455,532007,1609505523716341,3123628452,-1.057984,-0.044896,-0.054656,-22.09375,-5.11875,-5.32,47.336002,-41.136,-54.440002,concentric,4,5.0,20261.0,26136.0,68676.0,80803.0,19514.0,35041.0,29074.0,45989.0,14016.0,10832.0
2026-05-06 16:01:00.263976,532008,1609505523730912,3123641713,-1.04432,-0.099552,-0.091744,-18.94375,-5.145,-7.7525,47.280003,-41.424004,-54.576004,concentric,4,5.0,20261.0,26136.0,68676.0,80803.0,19514.0,35041.0,29074.0,45989.0,14016.0,10832.0
2026-05-06 16:01:00.266467,532009,1609505523740245,3123652523,-1.04432,-0.099552,-0.091744,-10.386251,-5.3725,-7.2275,47.280003,-41.424004,-54.576004,concentric,4,5.0,20261.0,26136.0,68676.0,80803.0,19514.0,35041.0,29074.0,45989.0,14016.0,10832.0
2026-05-06 16:01:00.272650,532010,1609505523749202,3123661264,-1.06384,-0.046848,-0.072224,-2.31,-5.7575,-6.37,47.712,-40.336002,-55.56,concentric,4,5.0,20261.0,26136.0,68676.0,80803.0,19514.0,35041.0,29074.0,45989.0,14016.0,10832.0
2026-05-06 16:01:00.288099,532011,1609505523763732,3123676218,-1.06384,-0.046848,-0.072224,3.885,-7.21875,-5.57375,47.712,-40.336002,-55.56,concentric,4,5.0,20261.0,26136.0,68676.0,80803.0,19514.0,35041.0,29074.0,45989.0,14016.0,10832.0
2026-05-06 16:01:00.295807,532012,1609505523772779,3123684946,-1.097024,-0.00976,-0.140544,6.53625,-8.4,-5.03125,47.584003,-39.888,-55.296,concentric,4,5.0,20261.0,26136.0,68676.0,80803.0,19514.0,35041.0,29074.0,45989.0,14016.0,10832.0
2026-05-06 16:01:00.328787,532013,1609505523787268,3123699877,-1.124352,-0.05856,-0.08784,2.0475,-8.26,-5.85375,47.904003,-40.288002,-55.08,concentric,4,5.0,20261.0,26136.0,68676.0,80803.0,19514.0,35041.0,29074.0,45989.0,14016.0,10832.0
2026-05-06 16:01:00.356326,532024,1609505523796671,3123708594,-1.124352,-0.05856,-0.08784,-0.95375,-8.46125,-7.70875,47.904003,-40.288002,-55.08,concentric,4,5.0,20335.0,26281.0,68910.0,81061.0,19594.0,35182.0,29151.0,46228.0,14030.0,10863.0
2026-05-06 16:01:00.358961,532025,1609505523805834,3123717387,-1.087264,-0.050752,0.015616,-1.81125,-8.74125,-7.97125,48.096,-39.944,-54.952003,concentric,4,5.0,20335.0,26281.0,68910.0,81061.0,19594.0,35182.0,29151.0,46228.0,14030.0,10863.0
2026-05-06 16:01:00.361463,532026,1609505523820345,3123732454,-1.087264,-0.050752,0.015616,1.6275,-8.7325,-5.08375,48.096,-39.944,-54.952003,concentric,4,5.0,20335.0,26281.0,68910.0,81061.0,19594.0,35182.0,29151.0,46228.0,14030.0,10863.0
2026-05-06 16:01:00.367687,532027,1609505523829413,3123741177,-1.056032,-0.015616,-0.052704,6.16,-8.21625,-1.67125,48.368004,-40.56,-54.960003,concentric,4,5.0,20335.0,26281.0,68910.0,81061.0,19594.0,35182.0,29151.0,46228.0,14030.0,10863.0
2026-05-06 16:01:00.370224,532028,1609505523843980,3123756145,-1.056032,-0.015616,-0.052704,4.4625,-6.2125,-0.74375,48.368004,-40.56,-54.960003,concentric,4,5.0,20335.0,26281.0,68910.0,81061.0,19594.0,35182.0,29151.0,46228.0,14030.0,10863.0
2026-05-06 16:01:00.376438,532029,1609505523852931,3123764895,-1.149728,-0.001952,-0.167872,-4.31375,-4.445,-3.5175,48.272003,-40.24,-53.752003,concentric,4,5.0,20335.0,26281.0,68910.0,81061.0,19594.0,35182.0,29151.0,46228.0,14030.0,10863.0
2026-05-06 16:01:00.385156,532030,1609505523861888,3123773633,-1.149728,-0.001952,-0.167872,-13.15125,-3.5,-7.4375,48.272003,-40.24,-53.752003,concentric,4,5.0,20335.0,26281.0,68910.0,81061.0,19594.0,35182.0,29151.0,46228.0,14030.0,10863.0
2026-05-06 16:01:00.398706,532031,1609505523876419,3123788675,-1.124352,-0.017568,-0.072224,-14.21,-4.445,-7.70875,48.768,-40.432003,-54.352,concentric,4,5.0,20335.0,26281.0,68910.0,81061.0,19594.0,35182.0,29151.0,46228.0,14030.0,10863.0
2026-05-06 16:01:00.407443,532032,1609505523885371,3123797395,-1.124352,-0.033184,0.003904,-13.51875,-4.97,-6.895,48.768,-40.432003,-54.352,concentric,4,5.0,20335.0,26281.0,68910.0,81061.0,19594.0,35182.0,29151.0,46228.0,14030.0,10863.0
2026-05-06 16:01:00.446213,532043,1609505523900542,3123812396,-1.071648,-0.033184,0.003904,-11.4975,-4.54125,-7.735,48.616,-41.464,-54.896004,concentric,4,5.0,20277.0,26255.0,68933.0,81064.0,19550.0,35171.0,29155.0,46245.0,13991.0,10875.0
2026-05-06 16:01:00.448697,532044,1609505523909537,3123821146,-1.165344,-0.080032,-0.12688,-11.3225,-2.275,-9.948751,49.04,-42.04,-52.832,concentric,4,5.0,20277.0,26255.0,68933.0,81064.0,19550.0,35171.0,29155.0,46245.0,13991.0,10875.0
2026-05-06 16:01:00.451186,532045,1609505523918471,3123829901,-1.165344,-0.080032,-0.12688,-11.6375,-1.015,-11.78625,49.04,-42.04,-52.832,concentric,4,5.0,20277.0,26255.0,68933.0,81064.0,19550.0,35171.0,29155.0,46245.0,13991.0,10875.0
2026-05-06 16:01:00.457354,532046,1609505523932989,3123844884,-1.159488,-0.056608,-0.11712,-9.65125,-1.2075,-11.917501,49.280003,-41.368004,-53.960003,concentric,4,5.0,20277.0,26255.0,68933.0,81064.0,19550.0,35171.0,29155.0,46245.0,13991.0,10875.0
2026-05-06 16:01:00.485017,532047,1609505523941978,3123853719,-1.159488,-0.056608,-0.11712,-5.6875,-1.9775,-9.42375,49.280003,-41.368004,-53.960003,concentric,4,5.0,20277.0,26255.0,68933.0,81064.0,19550.0,35171.0,29155.0,46245.0,13991.0,10875.0
2026-05-06 16:01:00.510011,532048,1609505523956507,3123868736,-1.179008,-0.031232,-0.021472,-3.6575,-1.81125,-8.5225,49.288002,-40.208,-53.288002,concentric,4,5.0,20277.0,26255.0,68933.0,81064.0,19550.0,35171.0,29155.0,46245.0,13991.0,10875.0
2026-05-06 16:01:00.525018,532049,1609505523965468,3123877493,-1.179008,-0.031232,-0.021472,-3.91125,-1.995,-9.26625,49.288002,-40.208,-53.288002,concentric,4,5.0,20277.0,26255.0,68933.0,81064.0,19550.0,35171.0,29155.0,46245.0,13991.0,10875.0
2026-05-06 16:01:00.527638,532050,1609505523979945,3123892405,-1.186816,-0.052704,-0.046848,-4.54125,-1.19875,-8.75,49.208004,-39.84,-53.936,concentric,4,5.0,20277.0,26255.0,68933.0,81064.0,19550.0,35171.0,29155.0,46245.0,13991.0,10875.0
2026-05-06 16:01:00.530112,532051,1609505523988893,3123901109,-1.182912,-0.113216,-0.160064,-5.46,-0.30625,-6.81625,49.904003,-39.832,-53.112003,concentric,4,5.0,20277.0,26255.0,68933.0,81064.0,19550.0,35171.0,29155.0,46245.0,13991.0,10875.0
2026-05-06 16:01:00.586241,532062,1609505523997959,3123910667,-1.182912,-0.113216,-0.160064,-5.2325,-0.41125,-6.3875,49.904003,-39.832,-53.112003,concentric,4,5.0,20085.0,26098.0,68901.0,80892.0,19396.0,35011.0,29128.0,46181.0,13891.0,10780.0
2026-05-06 16:01:00.588600,532063,1609505524012740,3123923536,-1.198528,-0.11712,-0.046848,-4.2525,-0.6475,-6.58875,49.88,-39.912003,-53.352,concentric,4,5.0,20085.0,26098.0,68901.0,80892.0,19396.0,35011.0,29128.0,46181.0,13891.0,10780.0
2026-05-06 16:01:00.591050,532064,1609505524022011,3123934362,-1.198528,-0.11712,-0.046848,-0.91875,-0.6125,-4.9875,49.88,-39.912003,-53.352,concentric,4,5.0,20085.0,26098.0,68901.0,80892.0,19396.0,35011.0,29128.0,46181.0,13891.0,10780.0
2026-05-06 16:01:00.593420,532065,1609505524036451,3123947238,-1.202432,-0.027328,-0.003904,1.8375,-0.04375,-2.345,50.088,-40.504,-53.04,concentric,4,5.0,20085.0,26098.0,68901.0,80892.0,19396.0,35011.0,29128.0,46181.0,13891.0,10780.0
2026-05-06 16:01:00.595897,532066,1609505524045747,3123958011,-1.202432,-0.027328,-0.003904,1.65375,0.72625,1.6275,50.088,-40.504,-53.04,concentric,4,5.0,20085.0,26098.0,68901.0,80892.0,19396.0,35011.0,29128.0,46181.0,13891.0,10780.0
2026-05-06 16:01:00.598442,532067,1609505524054861,3123966746,-1.196576,0.031232,-0.05856,-1.4175,2.37125,3.9725,50.048004,-40.456,-53.112003,concentric,4,5.0,20085.0,26098.0,68901.0,80892.0,19396.0,35011.0,29128.0,46181.0,13891.0,10780.0
2026-05-06 16:01:00.600991,532068,1609505524069478,3123981709,-1.18096,-0.027328,-0.101504,-8.11125,3.57,0.97125,50.088,-42.016003,-52.544003,concentric,4,5.0,20085.0,26098.0,68901.0,80892.0,19396.0,35011.0,29128.0,46181.0,13891.0,10780.0
2026-05-06 16:01:00.603442,532069,1609505524078504,3123990467,-1.18096,-0.027328,-0.101504,-10.94625,4.48875,-2.80875,50.088,-42.016003,-52.544003,concentric,4,5.0,20085.0,26098.0,68901.0,80892.0,19396.0,35011.0,29128.0,46181.0,13891.0,10780.0
2026-05-06 16:01:00.617506,532070,1609505524093003,3124005378,-1.214144,-0.080032,-0.050752,-14.51625,4.48875,-5.85375,50.448,-40.144,-53.152004,concentric,4,5.0,20085.0,26098.0,68901.0,80892.0,19396.0,35011.0,29128.0,46181.0,13891.0,10780.0
2026-05-06 16:01:00.645171,532081,1609505524102065,3124014169,-1.214144,-0.080032,-0.050752,-13.64125,4.445,-6.755,50.448,-40.144,-53.152004,concentric,4,5.0,19872.0,25918.0,68700.0,80812.0,19198.0,34848.0,29039.0,46162.0,13759.0,10703.0
2026-05-06 16:01:00.647704,532082,1609505524111214,3124022975,-1.231712,-0.074176,-0.015616,-6.405,4.4275,-6.62375,50.704002,-42.992,-50.440002,concentric,4,5.0,19872.0,25918.0,68700.0,80812.0,19198.0,34848.0,29039.0,46162.0,13759.0,10703.0
2026-05-06 16:01:00.650527,532083,1609505524125883,3124038059,-1.231712,-0.074176,-0.015616,-4.2875,4.68125,-4.13,50.704002,-42.992,-50.440002,concentric,4,5.0,19872.0,25918.0,68700.0,80812.0,19198.0,34848.0,29039.0,46162.0,13759.0,10703.0
2026-05-06 16:01:00.659552,532084,1609505524134946,3124046789,-1.184864,-0.013664,-0.093696,-7.875,4.8825,-1.295,50.568,-43.416,-51.112003,concentric,4,5.0,19872.0,25918.0,68700.0,80812.0,19198.0,34848.0,29039.0,46162.0,13759.0,10703.0
2026-05-06 16:01:00.682558,532085,1609505524149433,3124061700,-1.241472,-0.03904,-0.083936,-9.275,4.97,-2.87875,50.784004,-40.256,-52.072002,concentric,4,5.0,19872.0,25918.0,68700.0,80812.0,19198.0,34848.0,29039.0,46162.0,13759.0,10703.0
2026-05-06 16:01:00.684994,532086,1609505524158347,3124070422,-1.241472,-0.03904,-0.083936,-8.51375,4.6375,-6.72,50.784004,-40.256,-52.072002,concentric,4,5.0,19872.0,25918.0,68700.0,80812.0,19198.0,34848.0,29039.0,46162.0,13759.0,10703.0
2026-05-06 16:01:00.691272,532087,1609505524167242,3124079134,-1.241472,-0.03904,-0.021472,-8.6975,3.9725,-7.2625,50.784004,-40.256,-52.072002,concentric,4,5.0,19872.0,25918.0,68700.0,80812.0,19198.0,34848.0,29039.0,46162.0,13759.0,10703.0
2026-05-06 16:01:00.704899,532088,1609505524181751,3124094054,-1.241472,-0.093696,-0.021472,-7.55125,4.05125,-4.82125,50.872,-41.56,-52.488003,concentric,4,5.0,19872.0,25918.0,68700.0,80812.0,19198.0,34848.0,29039.0,46162.0,13759.0,10703.0
2026-05-06 16:01:00.713767,532089,1609505524190678,3124102813,-1.280512,-0.081984,-0.021472,-4.26125,3.57875,-3.40375,51.264004,-40.36,-53.024002,concentric,4,5.0,19872.0,25918.0,68700.0,80812.0,19198.0,34848.0,29039.0,46162.0,13759.0,10703.0
2026-05-06 16:01:00.746443,532100,1609505524205276,3124116066,-1.280512,-0.081984,-0.021472,-0.91,3.535,-1.65375,51.264004,-40.36,-53.024002,eccentric,4,5.0,19785.0,25827.0,68586.0,80722.0,19124.0,34752.0,28976.0,46110.0,13697.0,10664.0
2026-05-06 16:01:00.748557,532101,1609505524214564,3124126978,-1.25904,-0.02928,-0.080032,1.88125,3.68375,0.69125,50.952003,-42.36,-50.928,eccentric,4,5.0,19785.0,25827.0,68586.0,80722.0,19124.0,34752.0,28976.0,46110.0,13697.0,10664.0
2026-05-06 16:01:00.751028,532102,1609505524229117,3124139909,-1.251232,-0.0488,-0.111264,2.07375,4.66375,0.945,50.72,-41.968002,-49.808002,eccentric,4,5.0,19785.0,25827.0,68586.0,80722.0,19124.0,34752.0,28976.0,46110.0,13697.0,10664.0
2026-05-06 16:01:00.765049,532103,1609505524238522,3124150824,-1.251232,-0.0488,-0.111264,-1.05875,5.81,-0.105,50.72,-41.968002,-49.808002,eccentric,4,5.0,19785.0,25827.0,68586.0,80722.0,19124.0,34752.0,28976.0,46110.0,13697.0,10664.0
2026-05-06 16:01:00.771299,532104,1609505524247427,3124159520,-1.251232,-0.0488,-0.111264,-7.14875,6.1075,-2.58125,50.72,-41.968002,-49.808002,eccentric,4,5.0,19785.0,25827.0,68586.0,80722.0,19124.0,34752.0,28976.0,46110.0,13697.0,10664.0
2026-05-06 16:01:00.788677,532105,1609505524262012,3124174485,-1.272704,-0.091744,-0.064416,-10.59625,5.67,-3.2375,50.776,-39.936,-53.888004,eccentric,4,5.0,19785.0,25827.0,68586.0,80722.0,19124.0,34752.0,28976.0,46110.0,13697.0,10664.0
2026-05-06 16:01:00.795063,532106,1609505524270937,3124183191,-1.221952,-0.111264,-0.0488,-9.42375,4.83,-0.8925,50.736004,-41.84,-51.800003,eccentric,4,5.0,19785.0,25827.0,68586.0,80722.0,19124.0,34752.0,28976.0,46110.0,13697.0,10664.0
2026-05-06 16:01:00.808894,532107,1609505524285457,3124196227,-1.221952,-0.111264,-0.0488,-5.95,4.08625,2.52875,50.736004,-41.84,-51.800003,eccentric,4,5.0,19785.0,25827.0,68586.0,80722.0,19124.0,34752.0,28976.0,46110.0,13697.0,10664.0
2026-05-06 16:01:00.817661,532108,1609505524294680,3124207065,-1.204384,-0.046848,-0.042944,-0.83125,3.17625,4.0425,50.640003,-42.816,-52.904003,eccentric,4,5.0,19785.0,25827.0,68586.0,80722.0,19124.0,34752.0,28976.0,46110.0,13697.0,10664.0
2026-05-06 16:01:00.895110,532119,1609505524303819,3124215852,-1.204384,-0.046848,-0.042944,5.6175,2.5375,4.6025,50.640003,-42.816,-52.904003,eccentric,4,5.0,19718.0,25760.0,68522.0,80625.0,19065.0,34690.0,28956.0,46044.0,13685.0,10644.0
2026-05-06 16:01:00.897619,532120,1609505524318408,3124230836,-1.216096,0.003904,-0.050752,8.575,2.28375,4.43625,50.600002,-40.912003,-53.352,eccentric,4,5.0,19718.0,25760.0,68522.0,80625.0,19065.0,34690.0,28956.0,46044.0,13685.0,10644.0
2026-05-06 16:01:00.900129,532121,1609505524327342,3124239558,-1.216096,0.003904,-0.050752,4.38375,1.93375,3.745,50.600002,-40.912003,-53.352,eccentric,4,5.0,19718.0,25760.0,68522.0,80625.0,19065.0,34690.0,28956.0,46044.0,13685.0,10644.0
2026-05-06 16:01:00.902728,532122,1609505524341954,3124254600,-1.231712,-0.050752,-0.064416,-1.855,1.82,3.36875,50.216003,-40.456,-54.984,eccentric,4,5.0,19718.0,25760.0,68522.0,80625.0,19065.0,34690.0,28956.0,46044.0,13685.0,10644.0
2026-05-06 16:01:00.905035,532123,1609505524350896,3124263311,-1.22,-0.099552,-0.060512,-12.0575,2.44125,3.31625,49.768,-40.864002,-55.104004,eccentric,4,5.0,19718.0,25760.0,68522.0,80625.0,19065.0,34690.0,28956.0,46044.0,13685.0,10644.0
2026-05-06 16:01:00.907685,532124,1609505524359882,3124272011,-1.22,-0.099552,-0.060512,-17.43,3.03625,3.85875,49.768,-40.864002,-55.104004,eccentric,4,5.0,19718.0,25760.0,68522.0,80625.0,19065.0,34690.0,28956.0,46044.0,13685.0,10644.0
2026-05-06 16:01:00.910191,532125,1609505524374502,3124286981,-1.19072,-0.064416,-0.062464,-13.64125,3.17625,3.59625,49.4,-42.408,-52.640003,eccentric,4,5.0,19718.0,25760.0,68522.0,80625.0,19065.0,34690.0,28956.0,46044.0,13685.0,10644.0
2026-05-06 16:01:00.912737,532126,1609505524383649,3124295815,-1.19072,-0.064416,-0.062464,-6.4225,2.79125,4.82125,49.4,-42.408,-52.640003,eccentric,4,5.0,19718.0,25760.0,68522.0,80625.0,19065.0,34690.0,28956.0,46044.0,13685.0,10644.0
2026-05-06 16:01:00.946038,532137,1609505524398262,3124310818,-1.22,-0.007808,-0.056608,-0.58625,3.15,5.55625,49.2,-42.672,-52.512,eccentric,4,5.0,19682.0,25747.0,68497.0,80604.0,19043.0,34677.0,28925.0,46032.0,13659.0,10620.0
2026-05-06 16:01:00.948470,532138,1609505524407347,3124319601,-1.22,-0.007808,-0.056608,0.1575,2.87,3.0625,49.2,-42.672,-52.512,eccentric,4,5.0,19682.0,25747.0,68497.0,80604.0,19043.0,34677.0,28925.0,46032.0,13659.0,10620.0
2026-05-06 16:01:00.951272,532139,1609505524416591,3124328605,-1.214144,-0.0488,-0.101504,-3.29,2.765,2.8875,49.032,-41.144,-54.096,eccentric,4,5.0,19682.0,25747.0,68497.0,80604.0,19043.0,34677.0,28925.0,46032.0,13659.0,10620.0
2026-05-06 16:01:00.953807,532140,1609505524431203,3124343671,-1.167296,-0.089792,-0.115168,-9.77375,2.73,4.8125,48.736004,-40.736,-55.840004,eccentric,4,5.0,19682.0,25747.0,68497.0,80604.0,19043.0,34677.0,28925.0,46032.0,13659.0,10620.0
2026-05-06 16:01:00.965076,532141,1609505524440316,3124352378,-1.167296,-0.089792,-0.115168,-12.573751,1.505,5.34625,48.736004,-40.736,-55.840004,eccentric,4,5.0,19682.0,25747.0,68497.0,80604.0,19043.0,34677.0,28925.0,46032.0,13659.0,10620.0
2026-05-06 16:01:00.978863,532142,1609505524454838,3124367345,-1.18096,-0.064416,-0.072224,-6.43125,1.435,4.94375,48.608,-43.584003,-52.136,eccentric,4,5.0,19682.0,25747.0,68497.0,80604.0,19043.0,34677.0,28925.0,46032.0,13659.0,10620.0
2026-05-06 16:01:00.990171,532143,1609505524463757,3124376099,-1.18096,-0.064416,-0.072224,0.20125,0.83125,5.52125,48.608,-43.584003,-52.136,eccentric,4,5.0,19682.0,25747.0,68497.0,80604.0,19043.0,34677.0,28925.0,46032.0,13659.0,10620.0
2026-05-06 16:01:01.006191,532144,1609505524478318,3124391054,-1.177056,-0.013664,-0.113216,5.73125,0.665,6.5975,48.784004,-40.744003,-54.4,eccentric,4,5.0,19682.0,25747.0,68497.0,80604.0,19043.0,34677.0,28925.0,46032.0,13659.0,10620.0
2026-05-06 16:01:01.012456,532145,1609505524487261,3124399763,-1.177056,-0.013664,-0.113216,6.93875,0.88375,6.8075,48.784004,-40.744003,-54.4,eccentric,4,5.0,19682.0,25747.0,68497.0,80604.0,19043.0,34677.0,28925.0,46032.0,13659.0,10620.0
2026-05-06 16:01:01.021394,532146,1609505524496323,3124408571,-1.157536,-0.013664,-0.074176,1.75,0.49875,5.76625,47.856003,-40.928,-54.488003,eccentric,4,5.0,19682.0,25747.0,68497.0,80604.0,19043.0,34677.0,28925.0,46032.0,13659.0,10620.0
2026-05-06 16:01:01.048510,532157,1609505524511081,3124421915,-1.138016,-0.035136,-0.074176,-2.87875,0.98875,5.66125,47.256,-40.752003,-53.440002,eccentric,4,5.0,19697.0,25761.0,68536.0,80588.0,19045.0,34691.0,28961.0,46082.0,13652.0,10621.0
2026-05-06 16:01:01.051269,532158,1609505524520374,3124432826,-1.138016,-0.035136,-0.074176,-5.04,0.83125,5.17125,47.256,-40.752003,-53.440002,eccentric,4,5.0,19697.0,25761.0,68536.0,80588.0,19045.0,34691.0,28961.0,46082.0,13652.0,10621.0
2026-05-06 16:01:01.057484,532159,1609505524534875,3124445733,-1.124352,-0.03904,-0.060512,-3.47375,0.245,3.9025,47.4,-42.592003,-53.640003,eccentric,4,5.0,19697.0,25761.0,68536.0,80588.0,19045.0,34691.0,28961.0,46082.0,13652.0,10621.0
2026-05-06 16:01:01.071293,532160,1609505524544257,3124456573,-1.124352,-0.03904,-0.060512,1.46125,0.16625,3.3075,47.4,-42.592003,-53.640003,eccentric,4,5.0,19697.0,25761.0,68536.0,80588.0,19045.0,34691.0,28961.0,46082.0,13652.0,10621.0
2026-05-06 16:01:01.075124,532161,1609505524553169,3124465334,-1.124352,0.013664,-0.095648,3.64875,-0.0175,3.4125,47.432003,-41.136,-55.344,eccentric,4,5.0,19697.0,25761.0,68536.0,80588.0,19045.0,34691.0,28961.0,46082.0,13652.0,10621.0
2026-05-06 16:01:01.098925,532162,1609505524567800,3124480278,-1.124352,0.013664,-0.095648,6.93875,0.20125,4.2525,47.432003,-41.136,-55.344,eccentric,4,5.0,19697.0,25761.0,68536.0,80588.0,19045.0,34691.0,28961.0,46082.0,13652.0,10621.0
2026-05-06 16:01:01.101397,532163,1609505524576737,3124489007,-1.110688,0.001952,-0.074176,4.62,0.35875,3.40375,46.760002,-40.712,-55.424004,eccentric,4,5.0,19697.0,25761.0,68536.0,80588.0,19045.0,34691.0,28961.0,46082.0,13652.0,10621.0
2026-05-06 16:01:01.115188,532164,1609505524591246,3124503917,-1.106784,-0.037088,-0.064416,-0.1575,0.7875,2.2575,46.736004,-40.752003,-55.640003,eccentric,4,5.0,19697.0,25761.0,68536.0,80588.0,19045.0,34691.0,28961.0,46082.0,13652.0,10621.0
2026-05-06 16:01:01.148480,532175,1609505524600175,3124512702,-1.106784,-0.037088,-0.064416,-4.8475,1.18125,2.0475,46.736004,-40.752003,-55.640003,eccentric,4,5.0,19617.0,25699.0,68562.0,80615.0,18982.0,34668.0,28962.0,46109.0,13589.0,10609.0
2026-05-06 16:01:01.150868,532176,1609505524609277,3124521540,-1.106784,-0.037088,-0.064416,-6.09,0.8225,2.31,46.736004,-40.752003,-55.640003,eccentric,4,5.0,19617.0,25699.0,68562.0,80615.0,18982.0,34668.0,28962.0,46109.0,13589.0,10609.0
2026-05-06 16:01:01.153486,532177,1609505524623888,3124536640,-1.095072,-0.037088,-0.085888,-2.82625,1.8025,2.905,45.696003,-44.032,-54.480003,eccentric,4,5.0,19617.0,25699.0,68562.0,80615.0,18982.0,34668.0,28962.0,46109.0,13589.0,10609.0
2026-05-06 16:01:01.155979,532178,1609505524632823,3124545356,-1.075552,0.00976,-0.0976,-0.63875,2.24,2.1525,45.888,-44.328003,-53.120003,eccentric,4,5.0,19617.0,25699.0,68562.0,80615.0,18982.0,34668.0,28962.0,46109.0,13589.0,10609.0
2026-05-06 16:01:01.170018,532179,1609505524647339,3124558218,-1.075552,0.00976,-0.0976,0.7175,2.33625,1.61875,45.888,-44.328003,-53.120003,eccentric,4,5.0,19617.0,25699.0,68562.0,80615.0,18982.0,34668.0,28962.0,46109.0,13589.0,10609.0
2026-05-06 16:01:01.178751,532180,1609505524656798,3124568930,-1.077504,0.03904,-0.093696,3.05375,1.89,0.84875,45.952003,-41.336002,-55.528004,eccentric,4,5.0,19617.0,25699.0,68562.0,80615.0,18982.0,34668.0,28962.0,46109.0,13589.0,10609.0
2026-05-06 16:01:01.208866,532181,1609505524665840,3124577669,-1.077504,0.03904,-0.093696,1.8025,1.19,-0.72625,45.952003,-41.336002,-55.528004,eccentric,4,5.0,19617.0,25699.0,68562.0,80615.0,18982.0,34668.0,28962.0,46109.0,13589.0,10609.0
2026-05-06 16:01:01.234371,532182,1609505524680363,3124592557,-1.052128,0.001952,-0.115168,0.175,0.34125,-1.6625,45.808002,-41.04,-55.776,eccentric,4,5.0,19617.0,25699.0,68562.0,80615.0,18982.0,34668.0,28962.0,46109.0,13589.0,10609.0
2026-05-06 16:01:01.258761,532183,1609505524689355,3124601285,-1.052128,0.001952,-0.115168,-2.03,0.30625,-2.09125,45.808002,-41.04,-55.776,eccentric,4,5.0,19617.0,25699.0,68562.0,80615.0,18982.0,34668.0,28962.0,46109.0,13589.0,10609.0
2026-05-06 16:01:01.296030,532194,1609505524704053,3124614865,-0.999424,-0.037088,-0.076128,-5.6175,-0.0175,-2.26625,45.064003,-41.232002,-55.848003,eccentric,4,5.0,19638.0,25732.0,68525.0,80607.0,18991.0,34707.0,28970.0,46107.0,13618.0,10619.0
2026-05-06 16:01:01.298796,532195,1609505524713374,3124625727,-1.040416,0.005856,-0.076128,-5.5475,-0.1225,-2.28375,45.384003,-40.832,-55.888004,eccentric,4,5.0,19638.0,25732.0,68525.0,80607.0,18991.0,34707.0,28970.0,46107.0,13618.0,10619.0
2026-05-06 16:01:01.301371,532196,1609505524722465,3124634439,-1.040416,0.005856,-0.076128,-2.66875,0.315,-1.67125,45.384003,-40.832,-55.888004,eccentric,4,5.0,19638.0,25732.0,68525.0,80607.0,18991.0,34707.0,28970.0,46107.0,13618.0,10619.0
2026-05-06 16:01:01.303895,532197,1609505524737097,3124649394,-1.065792,-0.001952,-0.124928,-2.1,0.41125,-1.9425,45.096,-40.432003,-55.944004,eccentric,4,5.0,19638.0,25732.0,68525.0,80607.0,18991.0,34707.0,28970.0,46107.0,13618.0,10619.0
2026-05-06 16:01:01.308868,532198,1609505524746078,3124658111,-1.065792,-0.001952,-0.124928,-2.12625,0.0175,-3.31625,45.096,-40.432003,-55.944004,eccentric,4,5.0,19638.0,25732.0,68525.0,80607.0,18991.0,34707.0,28970.0,46107.0,13618.0,10619.0
2026-05-06 16:01:01.313850,532199,1609505524760660,3124673130,-0.979904,-0.03904,-0.099552,-0.49,-1.26875,-2.135,45.096,-40.488003,-56.032,eccentric,4,5.0,19638.0,25732.0,68525.0,80607.0,18991.0,34707.0,28970.0,46107.0,13618.0,10619.0
2026-05-06 16:01:01.314236,532200,1609505524769667,3124681888,-0.979904,-0.03904,-0.099552,-0.77875,-1.645,0.07,45.096,-40.488003,-56.032,eccentric,4,5.0,19638.0,25732.0,68525.0,80607.0,18991.0,34707.0,28970.0,46107.0,13618.0,10619.0
2026-05-06 16:01:01.316131,532201,1609505524778770,3124690623,-0.96624,-0.037088,-0.115168,1.785,-0.62125,0.9625,44.760002,-40.544003,-56.4,eccentric,4,5.0,19638.0,25732.0,68525.0,80607.0,18991.0,34707.0,28970.0,46107.0,13618.0,10619.0
2026-05-06 16:01:01.324295,532202,1609505524793259,3124705528,-1.026752,-0.003904,-0.050752,6.755,-0.44625,0.84875,44.768,-40.352,-57.104004,eccentric,4,5.0,19638.0,25732.0,68525.0,80607.0,18991.0,34707.0,28970.0,46107.0,13618.0,10619.0
2026-05-06 16:01:01.350170,532213,1609505524802503,3124714281,-1.026752,-0.003904,-0.050752,6.83375,-0.0175,-0.8925,44.768,-40.352,-57.104004,eccentric,4,5.0,19770.0,25866.0,68666.0,80814.0,19088.0,34882.0,29033.0,46236.0,13701.0,10693.0
2026-05-06 16:01:01.352596,532214,1609505524817221,3124729280,-1.04432,0.001952,-0.06832,6.8775,0.06125,-1.93375,44.136,-43.792004,-54.800003,eccentric,4,5.0,19770.0,25866.0,68666.0,80814.0,19088.0,34882.0,29033.0,46236.0,13701.0,10693.0
2026-05-06 16:01:01.355027,532215,1609505524826196,3124738031,-1.04432,0.001952,-0.06832,10.66625,-0.63,-1.16375,44.136,-43.792004,-54.800003,eccentric,4,5.0,19770.0,25866.0,68666.0,80814.0,19088.0,34882.0,29033.0,46236.0,13701.0,10693.0
2026-05-06 16:01:01.357504,532216,1609505524835255,3124746775,-1.011136,-0.013664,-0.103456,6.78125,-0.62125,-0.51625,44.304,-42.312,-55.72,eccentric,4,5.0,19770.0,25866.0,68666.0,80814.0,19088.0,34882.0,29033.0,46236.0,13701.0,10693.0
2026-05-06 16:01:01.391431,532217,1609505524849758,3124761719,-1.011136,-0.013664,-0.103456,1.575,-0.1575,0.30625,44.304,-42.312,-55.72,eccentric,4,5.0,19770.0,25866.0,68666.0,80814.0,19088.0,34882.0,29033.0,46236.0,13701.0,10693.0
2026-05-06 16:01:01.393945,532218,1609505524858667,3124770419,-1.026752,-0.017568,-0.091744,1.33,0.02625,-0.23625,44.048,-40.384003,-57.224003,eccentric,4,5.0,19770.0,25866.0,68666.0,80814.0,19088.0,34882.0,29033.0,46236.0,13701.0,10693.0
2026-05-06 16:01:01.396432,532219,1609505524873148,3124785345,-1.067744,-0.015616,-0.10736,2.26625,1.12875,-1.39125,44.048,-40.208,-56.456,eccentric,4,5.0,19770.0,25866.0,68666.0,80814.0,19088.0,34882.0,29033.0,46236.0,13701.0,10693.0
2026-05-06 16:01:01.410053,532220,1609505524882108,3124794095,-1.067744,-0.015616,-0.10736,1.26,2.1,-0.9625,44.064003,-40.208,-56.456,eccentric,4,5.0,19770.0,25866.0,68666.0,80814.0,19088.0,34882.0,29033.0,46236.0,13701.0,10693.0
2026-05-06 16:01:01.421202,532221,1609505524896631,3124809056,-1.097024,-0.005856,-0.115168,1.35625,1.6275,-1.65375,43.968002,-40.480003,-57.616,eccentric,4,5.0,19770.0,25866.0,68666.0,80814.0,19088.0,34882.0,29033.0,46236.0,13701.0,10693.0
2026-05-06 16:01:01.450142,532232,1609505524906034,3124817997,-1.097024,-0.005856,-0.115168,3.24625,1.9075,-2.07375,43.968002,-40.480003,-57.616,eccentric,4,5.0,19631.0,25749.0,68628.0,80882.0,18946.0,34741.0,29011.0,46296.0,13587.0,10644.0
2026-05-06 16:01:01.452531,532233,1609505524915443,3124826807,-1.067744,0.005856,-0.113216,4.59375,1.23375,-1.86375,44.440002,-40.776,-57.616,eccentric,4,5.0,19631.0,25749.0,68628.0,80882.0,18946.0,34741.0,29011.0,46296.0,13587.0,10644.0
2026-05-06 16:01:01.454942,532234,1609505524930045,3124841735,-1.067744,0.005856,-0.113216,3.92,1.21625,-0.18375,44.440002,-40.776,-57.616,eccentric,4,5.0,19631.0,25749.0,68628.0,80882.0,18946.0,34741.0,29011.0,46296.0,13587.0,10644.0
2026-05-06 16:01:01.461390,532235,1609505524938984,3124850503,-1.0248,-0.013664,-0.072224,2.16125,1.67125,1.32125,43.600002,-41.008003,-57.120003,eccentric,4,5.0,19631.0,25749.0,68628.0,80882.0,18946.0,34741.0,29011.0,46296.0,13587.0,10644.0
2026-05-06 16:01:01.495261,532236,1609505524953468,3124865432,-1.0248,-0.01952,-0.023424,-1.98625,2.65125,0.1225,43.600002,-41.008003,-59.168003,eccentric,4,5.0,19631.0,25749.0,68628.0,80882.0,18946.0,34741.0,29011.0,46296.0,13587.0,10644.0
2026-05-06 16:01:01.497733,532237,1609505524962384,3124874151,-1.065792,-0.01952,-0.023424,-3.33375,3.54375,-1.4875,43.448,-40.320004,-57.704002,eccentric,4,5.0,19631.0,25749.0,68628.0,80882.0,18946.0,34741.0,29011.0,46296.0,13587.0,10644.0
2026-05-06 16:01:01.500058,532238,1609505524971316,3124882827,-1.065792,-0.01952,-0.023424,-0.51625,3.2375,-2.37125,43.448,-40.320004,-57.704002,eccentric,4,5.0,19631.0,25749.0,68628.0,80882.0,18946.0,34741.0,29011.0,46296.0,13587.0,10644.0
2026-05-06 16:01:01.508927,532239,1609505524985865,3124897746,-1.085312,0.011712,-0.076128,4.55,3.19375,-1.54875,43.448,-40.624,-57.744003,eccentric,4,5.0,19631.0,25749.0,68628.0,80882.0,18946.0,34741.0,29011.0,46296.0,13587.0,10644.0
2026-05-06 16:01:01.520773,532240,1609505524994780,3124906463,-1.052128,0.017568,-0.121024,6.15125,3.2375,1.04125,43.368004,-41.944,-57.416004,eccentric,4,5.0,19631.0,25749.0,68628.0,80882.0,18946.0,34741.0,29011.0,46296.0,13587.0,10644.0
2026-05-06 16:01:01.551075,532251,1609505525009443,3124921486,-1.052128,0.017568,-0.121024,3.3425,3.0975,1.84625,43.368004,-41.944,-57.416004,eccentric,4,5.0,19382.0,25509.0,68486.0,80732.0,18776.0,34528.0,28914.0,46221.0,13453.0,10524.0
2026-05-06 16:01:01.553582,532252,1609505525018445,3124930301,-1.022848,-0.027328,-0.076128,-0.28875,2.73,0.04375,43.096,-42.264004,-56.808002,eccentric,4,5.0,19382.0,25509.0,68486.0,80732.0,18776.0,34528.0,28914.0,46221.0,13453.0,10524.0
2026-05-06 16:01:01.555997,532253,1609505525032986,3124945302,-1.022848,-0.027328,-0.076128,-2.0475,2.485,-1.30375,43.096,-42.264004,-56.808002,eccentric,4,5.0,19382.0,25509.0,68486.0,80732.0,18776.0,34528.0,28914.0,46221.0,13453.0,10524.0
2026-05-06 16:01:01.587548,532254,1609505525041976,3124954053,-1.042368,0.0,-0.07808,0.18375,2.1875,-0.315,42.688004,-42.032,-56.600002,eccentric,4,5.0,19382.0,25509.0,68486.0,80732.0,18776.0,34528.0,28914.0,46221.0,13453.0,10524.0
2026-05-06 16:01:01.613208,532255,1609505525050905,3124962769,-1.042368,0.0,-0.07808,7.44625,2.14375,0.49,42.688004,-42.032,-56.600002,eccentric,4,5.0,19382.0,25509.0,68486.0,80732.0,18776.0,34528.0,28914.0,46221.0,13453.0,10524.0
2026-05-06 16:01:01.637505,532256,1609505525065395,3124977657,-1.0736,0.00976,-0.093696,9.16125,1.67125,-1.16375,42.904003,-40.68,-59.000004,eccentric,4,5.0,19382.0,25509.0,68486.0,80732.0,18776.0,34528.0,28914.0,46221.0,13453.0,10524.0
2026-05-06 16:01:01.651197,532257,1609505525074292,3124986374,-1.0736,0.02928,-0.083936,7.9975,1.14625,0.20125,42.904003,-40.68,-59.000004,eccentric,4,5.0,19382.0,25509.0,68486.0,80732.0,18776.0,34528.0,28914.0,46221.0,13453.0,10524.0
2026-05-06 16:01:01.653806,532258,1609505525088767,3125001380,-1.036512,0.02928,-0.083936,6.475,0.6825,2.77375,42.736004,-40.152,-58.736004,eccentric,4,5.0,19382.0,25509.0,68486.0,80732.0,18776.0,34528.0,28914.0,46221.0,13453.0,10524.0
2026-05-06 16:01:01.656352,532259,1609505525097812,3125010158,-1.036512,0.033184,-0.093696,0.25375,0.6475,2.03875,42.784,-40.456,-58.920002,eccentric,4,5.0,19382.0,25509.0,68486.0,80732.0,18776.0,34528.0,28914.0,46221.0,13453.0,10524.0
2026-05-06 16:01:01.683689,532270,1609505525112687,3125025328,-1.036512,0.033184,-0.093696,-1.8725,1.1725,-0.105,42.784,-40.456,-58.920002,eccentric,4,5.0,19273.0,25374.0,68373.0,80722.0,18683.0,34434.0,28867.0,46267.0,13372.0,10474.0
2026-05-06 16:01:01.686110,532271,1609505525121769,3125034094,-1.069696,-0.001952,-0.023424,2.38875,0.55125,-2.09125,42.672,-40.288002,-59.008003,eccentric,4,5.0,19273.0,25374.0,68373.0,80722.0,18683.0,34434.0,28867.0,46267.0,13372.0,10474.0
2026-05-06 16:01:01.688724,532272,1609505525130742,3125042806,-1.069696,-0.001952,-0.023424,3.08875,-0.035,-2.28375,42.672,-40.288002,-59.008003,eccentric,4,5.0,19273.0,25374.0,68373.0,80722.0,18683.0,34434.0,28867.0,46267.0,13372.0,10474.0
2026-05-06 16:01:01.691187,532273,1609505525145282,3125057739,-1.018944,-0.011712,-0.037088,2.68625,-0.32375,0.34125,42.536003,-40.456,-58.840004,eccentric,4,5.0,19273.0,25374.0,68373.0,80722.0,18683.0,34434.0,28867.0,46267.0,13372.0,10474.0
2026-05-06 16:01:01.693677,532274,1609505525154244,3125066502,-1.018944,-0.011712,-0.037088,2.00375,-0.30625,1.9775,42.536003,-40.456,-58.840004,eccentric,4,5.0,19273.0,25374.0,68373.0,80722.0,18683.0,34434.0,28867.0,46267.0,13372.0,10474.0
2026-05-06 16:01:01.696232,532275,1609505525168886,3125081542,-1.009184,0.03904,-0.052704,-0.95375,-0.07875,1.12875,42.36,-40.104,-57.152004,eccentric,4,5.0,19273.0,25374.0,68373.0,80722.0,18683.0,34434.0,28867.0,46267.0,13372.0,10474.0
2026-05-06 16:01:01.702426,532276,1609505525178063,3125090337,-1.077504,0.06832,-0.031232,-1.16375,-0.23625,-0.9975,42.552002,-41.000004,-57.928,eccentric,4,5.0,19273.0,25374.0,68373.0,80722.0,18683.0,34434.0,28867.0,46267.0,13372.0,10474.0
2026-05-06 16:01:01.711393,532277,1609505525187027,3125099055,-1.077504,0.06832,-0.031232,-2.0475,0.02625,-2.82625,42.552002,-41.000004,-57.928,eccentric,4,5.0,19273.0,25374.0,68373.0,80722.0,18683.0,34434.0,28867.0,46267.0,13372.0,10474.0
2026-05-06 16:01:01.727506,532278,1609505525201532,3125113983,-1.050176,0.035136,-0.064416,-3.82375,-0.35875,-3.35125,42.168003,-41.792004,-58.064003,eccentric,4,5.0,19273.0,25374.0,68373.0,80722.0,18683.0,34434.0,28867.0,46267.0,13372.0,10474.0
2026-05-06 16:01:01.755007,532289,1609505525210609,3125122806,-1.050176,0.035136,-0.064416,-6.06375,-1.2425,-3.07125,42.168003,-41.792004,-58.064003,eccentric,4,5.0,19291.0,25412.0,68435.0,80807.0,18670.0,34466.0,28896.0,46247.0,13398.0,10489.0
2026-05-06 16:01:01.757696,532290,1609505525225374,3125137906,-0.977952,0.027328,0.001952,-9.4325,-1.26,-2.905,42.36,-42.072002,-58.08,eccentric,4,5.0,19291.0,25412.0,68435.0,80807.0,18670.0,34466.0,28896.0,46247.0,13398.0,10489.0
2026-05-06 16:01:01.760105,532291,1609505525234300,3125146604,-0.977952,0.027328,0.001952,-10.29875,-0.56875,-3.115,42.36,-42.072002,-58.08,eccentric,4,5.0,19291.0,25412.0,68435.0,80807.0,18670.0,34466.0,28896.0,46247.0,13398.0,10489.0
2026-05-06 16:01:01.766424,532292,1609505525243393,3125155408,-1.009184,0.001952,-0.040992,-12.7225,0.105,-4.725,42.176003,-40.368,-57.528004,eccentric,4,5.0,19291.0,25412.0,68435.0,80807.0,18670.0,34466.0,28896.0,46247.0,13398.0,10489.0
2026-05-06 16:01:01.801593,532293,1609505525258048,3125170448,-1.01504,0.01952,-0.06832,-16.415,0.3675,-5.565,42.2,-39.856003,-58.608,eccentric,4,5.0,19291.0,25412.0,68435.0,80807.0,18670.0,34466.0,28896.0,46247.0,13398.0,10489.0
2026-05-06 16:01:01.802372,532294,1609505525266988,3125179200,-1.01504,0.01952,-0.06832,-18.0425,0.21875,-4.01625,42.2,-39.856003,-58.608,eccentric,4,5.0,19291.0,25412.0,68435.0,80807.0,18670.0,34466.0,28896.0,46247.0,13398.0,10489.0
2026-05-06 16:01:01.804961,532295,1609505525281498,3125194120,-0.997472,0.02928,-0.070272,-17.4475,0.41125,-3.80625,42.52,-40.416,-58.376003,eccentric,4,5.0,19291.0,25412.0,68435.0,80807.0,18670.0,34466.0,28896.0,46247.0,13398.0,10489.0
2026-05-06 16:01:01.813893,532296,1609505525290442,3125202837,-0.997472,0.02928,-0.070272,-13.8075,0.23625,-3.955,42.52,-40.416,-58.376003,eccentric,4,5.0,19291.0,25412.0,68435.0,80807.0,18670.0,34466.0,28896.0,46247.0,13398.0,10489.0
2026-05-06 16:01:01.873917,532307,1609505525305431,3125218192,-1.001376,0.03904,-0.099552,-11.22625,-0.25375,-4.62,42.624,-40.456,-58.4,eccentric,4,5.0,19360.0,25429.0,68369.0,80828.0,18712.0,34506.0,28901.0,46247.0,13420.0,10528.0
2026-05-06 16:01:01.876417,532308,1609505525314423,3125227053,-1.001376,0.03904,-0.099552,-10.8675,-0.2625,-4.5325,42.624,-40.456,-58.4,eccentric,4,5.0,19360.0,25429.0,68369.0,80828.0,18712.0,34506.0,28901.0,46247.0,13420.0,10528.0
2026-05-06 16:01:01.878916,532309,1609505525323532,3125235770,-0.989664,0.037088,-0.031232,-10.73625,-0.42,-4.64625,42.272003,-39.712,-57.856003,eccentric,4,5.0,19360.0,25429.0,68369.0,80828.0,18712.0,34506.0,28901.0,46247.0,13420.0,10528.0
2026-05-06 16:01:01.881422,532310,1609505525338187,3125250739,-0.96624,0.044896,-0.060512,-12.6175,-0.6825,-4.80375,42.208,-41.232002,-56.336002,eccentric,4,5.0,19360.0,25429.0,68369.0,80828.0,18712.0,34506.0,28901.0,46247.0,13420.0,10528.0
2026-05-06 16:01:01.885515,532311,1609505525347288,3125259494,-0.96624,0.044896,-0.060512,-12.97625,-0.72625,-4.55875,42.208,-41.232002,-56.336002,eccentric,4,5.0,19360.0,25429.0,68369.0,80828.0,18712.0,34506.0,28901.0,46247.0,13420.0,10528.0
2026-05-06 16:01:01.886178,532312,1609505525356276,3125268186,-0.96624,0.044896,-0.105408,-11.24375,0.13125,-5.7225,42.208,-41.232002,-56.336002,eccentric,4,5.0,19360.0,25429.0,68369.0,80828.0,18712.0,34506.0,28901.0,46247.0,13420.0,10528.0
2026-05-06 16:01:01.894809,532313,1609505525370806,3125283202,-1.013088,0.025376,-0.105408,-8.39125,0.4375,-8.3825,42.648003,-41.56,-57.992004,eccentric,4,5.0,19360.0,25429.0,68369.0,80828.0,18712.0,34506.0,28901.0,46247.0,13420.0,10528.0
2026-05-06 16:01:01.903739,532314,1609505525379725,3125291928,-1.075552,0.021472,-0.099552,-7.16625,0.60375,-10.675,42.688004,-39.800003,-58.408,eccentric,4,5.0,19360.0,25429.0,68369.0,80828.0,18712.0,34506.0,28901.0,46247.0,13420.0,10528.0
2026-05-06 16:01:01.917558,532315,1609505525394232,3125306846,-1.075552,0.021472,-0.099552,-7.0525,0.48125,-9.8,42.688004,-39.800003,-58.408,eccentric,4,5.0,19360.0,25429.0,68369.0,80828.0,18712.0,34506.0,28901.0,46247.0,13420.0,10528.0
2026-05-06 16:01:01.952678,532316,1609505525403290,3125315612,-1.028704,0.042944,-0.085888,-5.67875,0.1225,-6.53625,42.576,-39.760002,-58.496002,eccentric,4,5.0,19360.0,25429.0,68369.0,80828.0,18712.0,34506.0,28901.0,46247.0,13420.0,10528.0
2026-05-06 16:01:02.018826,532328,1609505525417891,3125330669,-1.04432,0.042944,-0.091744,-5.80125,0.6475,-5.6875,42.848003,-39.552002,-58.24,eccentric,4,5.0,19321.0,25398.0,68377.0,80985.0,18684.0,34483.0,28900.0,46310.0,13389.0,10512.0
2026-05-06 16:01:02.021414,532329,1609505525426898,3125339377,-1.04432,0.042944,-0.091744,-6.62375,2.205,-7.56875,42.848003,-39.552002,-58.24,eccentric,4,5.0,19321.0,25398.0,68377.0,80985.0,18684.0,34483.0,28900.0,46310.0,13389.0,10512.0
2026-05-06 16:01:02.023862,532330,1609505525435996,3125348083,-1.04432,0.042944,-0.091744,-8.575,3.7975,-10.42125,42.848003,-39.552002,-58.24,eccentric,4,5.0,19321.0,25398.0,68377.0,80985.0,18684.0,34483.0,28900.0,46310.0,13389.0,10512.0
2026-05-06 16:01:02.026389,532331,1609505525450467,3125363045,-1.079456,0.015616,-0.070272,-9.24,4.4275,-11.27875,42.472,-42.600002,-55.976,eccentric,4,5.0,19321.0,25398.0,68377.0,80985.0,18684.0,34483.0,28900.0,46310.0,13389.0,10512.0
2026-05-06 16:01:02.031397,532332,1609505525459370,3125371761,-1.056032,-0.005856,-0.07808,-7.21875,4.80375,-10.325,42.616,-39.448,-60.264004,eccentric,4,5.0,19321.0,25398.0,68377.0,80985.0,18684.0,34483.0,28900.0,46310.0,13389.0,10512.0
2026-05-06 16:01:02.033889,532333,1609505525473958,3125386663,-1.056032,-0.005856,-0.07808,-5.705,4.34,-8.47,42.616,-39.448,-60.264004,eccentric,4,5.0,19321.0,25398.0,68377.0,80985.0,18684.0,34483.0,28900.0,46310.0,13389.0,10512.0
2026-05-06 16:01:02.036424,532334,1609505525482900,3125395392,-1.028704,0.001952,-0.083936,-4.1825,4.64625,-7.13125,43.000004,-39.448,-58.304005,eccentric,4,5.0,19321.0,25398.0,68377.0,80985.0,18684.0,34483.0,28900.0,46310.0,13389.0,10512.0
2026-05-06 16:01:02.038818,532335,1609505525497440,3125408267,-1.028704,-0.013664,-0.105408,-2.975,4.82125,-6.58875,43.000004,-39.448,-58.304005,eccentric,4,5.0,19321.0,25398.0,68377.0,80985.0,18684.0,34483.0,28900.0,46310.0,13389.0,10512.0
