pc_time,serial_num,sensor_ts,host_ts,ax,ay,az,gx,gy,gz,mx,my,mz,phase,rpe,weight_kg,ppg_a,ppg_b,ppg_c,ppg_d,ppg_e,ppg_f,ppg_g,ppg_h,ppg_i,ppg_j
2026-05-06 16:01:22.228670,536132,1609505545626928,3145538858,-1.108736,0.193248,-0.0488,10.99875,2.72125,-6.9125,37.072002,-44.760002,-58.272003,concentric,4,5.0,18765.0,25540.0,68966.0,83094.0,18971.0,35263.0,29528.0,47428.0,13659.0,10893.0
2026-05-06 16:01:22.234585,536133,1609505545636078,3145547620,-1.085312,0.171776,-0.005856,8.715,2.87,-8.1725,37.632,-44.464,-58.536003,concentric,4,5.0,18765.0,25540.0,68966.0,83094.0,18971.0,35263.0,29528.0,47428.0,13659.0,10893.0
2026-05-06 16:01:22.234810,536134,1609505545650664,3145562595,-1.065792,0.162016,0.005856,5.39,2.94875,-8.505,37.344,-44.136,-58.432003,concentric,4,5.0,18765.0,25540.0,68966.0,83094.0,18971.0,35263.0,29528.0,47428.0,13659.0,10893.0
2026-05-06 16:01:22.234887,536135,1609505545659607,3145571274,-1.065792,0.162016,0.005856,3.7975,2.8875,-8.855001,37.344,-44.136,-58.432003,concentric,4,5.0,18765.0,25540.0,68966.0,83094.0,18971.0,35263.0,29528.0,47428.0,13659.0,10893.0
2026-05-06 16:01:22.237209,536136,1609505545674257,3145586330,-1.081408,0.111264,-0.044896,4.2175,3.2025,-10.64,37.616,-44.248,-58.528004,concentric,4,5.0,18765.0,25540.0,68966.0,83094.0,18971.0,35263.0,29528.0,47428.0,13659.0,10893.0
2026-05-06 16:01:22.239719,536137,1609505545683356,3145595050,-1.081408,0.111264,-0.044896,3.52625,3.40375,-11.94375,37.616,-44.248,-58.528004,concentric,4,5.0,18765.0,25540.0,68966.0,83094.0,18971.0,35263.0,29528.0,47428.0,13659.0,10893.0
2026-05-06 16:01:22.242225,536138,1609505545692270,3145603807,-1.059936,0.148352,0.001952,4.235,3.43,-10.36,37.68,-45.184002,-57.536003,concentric,4,5.0,18765.0,25540.0,68966.0,83094.0,18971.0,35263.0,29528.0,47428.0,13659.0,10893.0
2026-05-06 16:01:22.244689,536139,1609505545706912,3145618790,-1.059936,0.148352,0.001952,4.3925,3.4125,-9.730001,37.68,-45.184002,-57.536003,concentric,4,5.0,18765.0,25540.0,68966.0,83094.0,18971.0,35263.0,29528.0,47428.0,13659.0,10893.0
2026-05-06 16:01:22.247513,536140,1609505545715875,3145627550,-1.052128,0.171776,-0.021472,4.40125,3.94625,-10.08,37.936,-45.616,-56.312004,concentric,4,5.0,18765.0,25540.0,68966.0,83094.0,18971.0,35263.0,29528.0,47428.0,13659.0,10893.0
2026-05-06 16:01:22.274808,536151,1609505545731073,3145642504,-1.06384,0.140544,-0.0488,-0.16625,4.55,-11.57625,38.096,-45.816,-57.736004,concentric,4,5.0,18819.0,25538.0,68936.0,83173.0,19021.0,35302.0,29543.0,47482.0,13711.0,10905.0
2026-05-06 16:01:22.277583,536152,1609505545740061,3145651369,-1.06384,0.140544,-0.0488,-3.56125,5.1625,-12.5125,38.096,-45.816,-57.736004,concentric,4,5.0,18819.0,25538.0,68936.0,83173.0,19021.0,35302.0,29543.0,47482.0,13711.0,10905.0
2026-05-06 16:01:22.280095,536153,1609505545749086,3145660162,-1.026752,0.103456,-0.011712,-3.4125,4.305,-13.51875,38.096,-45.656002,-58.648003,concentric,4,5.0,18819.0,25538.0,68936.0,83173.0,19021.0,35302.0,29543.0,47482.0,13711.0,10905.0
2026-05-06 16:01:22.288623,536154,1609505545763931,3145675086,-1.026752,0.103456,-0.011712,-2.14375,4.06875,-13.51,38.016003,-45.656002,-58.648003,concentric,4,5.0,18819.0,25538.0,68936.0,83173.0,19021.0,35302.0,29543.0,47482.0,13711.0,10905.0
2026-05-06 16:01:22.328975,536155,1609505545773536,3145685898,-1.001376,0.12688,-0.023424,0.6825,3.77125,-13.48375,38.152,-43.944,-58.984,concentric,4,5.0,18819.0,25538.0,68936.0,83173.0,19021.0,35302.0,29543.0,47482.0,13711.0,10905.0
2026-05-06 16:01:22.329810,536156,1609505545788048,3145698804,-1.001376,0.12688,-0.023424,3.5,3.80625,-13.8425,38.152,-43.944,-58.984,concentric,4,5.0,18819.0,25538.0,68936.0,83173.0,19021.0,35302.0,29543.0,47482.0,13711.0,10905.0
2026-05-06 16:01:22.332519,536157,1609505545797225,3145709692,-1.085312,0.173728,-0.056608,4.515,4.05125,-14.91,38.528004,-43.624,-59.744003,concentric,4,5.0,18819.0,25538.0,68936.0,83173.0,19021.0,35302.0,29543.0,47482.0,13711.0,10905.0
2026-05-06 16:01:22.335021,536158,1609505545806174,3145718401,-1.085312,0.173728,-0.056608,3.255,3.08875,-16.38,38.528004,-43.624,-59.744003,concentric,4,5.0,18819.0,25538.0,68936.0,83173.0,19021.0,35302.0,29543.0,47482.0,13711.0,10905.0
2026-05-06 16:01:22.348845,536159,1609505545820733,3145733332,-1.059936,0.121024,-0.027328,0.5075,1.82875,-16.975,38.2,-43.456,-59.024002,concentric,4,5.0,18819.0,25538.0,68936.0,83173.0,19021.0,35302.0,29543.0,47482.0,13711.0,10905.0
2026-05-06 16:01:22.376174,536170,1609505545830151,3145742102,-1.022848,0.081984,-0.076128,0.175,0.6125,-15.198751,38.968002,-43.488003,-59.416004,concentric,4,5.0,18885.0,25616.0,68963.0,83208.0,19093.0,35360.0,29522.0,47497.0,13755.0,10934.0
2026-05-06 16:01:22.378740,536171,1609505545844791,3145757183,-1.022848,0.081984,-0.076128,0.7175,0.53375,-13.9125,38.968002,-43.488003,-59.416004,concentric,4,5.0,18885.0,25616.0,68963.0,83208.0,19093.0,35360.0,29522.0,47497.0,13755.0,10934.0
2026-05-06 16:01:22.381230,536172,1609505545853876,3145765917,-1.08336,0.0976,-0.017568,-0.53375,1.2775,-14.18375,38.992,-43.576,-58.224003,concentric,4,5.0,18885.0,25616.0,68963.0,83208.0,19093.0,35360.0,29522.0,47497.0,13755.0,10934.0
2026-05-06 16:01:22.387261,536173,1609505545862904,3145774622,-1.08336,0.0976,-0.017568,-2.70375,2.56375,-14.16625,38.992,-43.576,-58.224003,concentric,4,5.0,18885.0,25616.0,68963.0,83208.0,19093.0,35360.0,29522.0,47497.0,13755.0,10934.0
2026-05-06 16:01:22.401262,536174,1609505545877400,3145789560,-1.110688,0.11712,-0.033184,-2.87875,3.29875,-12.705,39.032,-42.976,-58.936005,concentric,4,5.0,18885.0,25616.0,68963.0,83208.0,19093.0,35360.0,29522.0,47497.0,13755.0,10934.0
2026-05-06 16:01:22.410038,536175,1609505545886315,3145798308,-1.110688,0.11712,-0.033184,-4.41,3.31625,-11.725,39.032,-42.976,-58.936005,concentric,4,5.0,18885.0,25616.0,68963.0,83208.0,19093.0,35360.0,29522.0,47497.0,13755.0,10934.0
2026-05-06 16:01:22.432504,536176,1609505545900821,3145813234,-1.075552,0.083936,-0.111264,-5.43375,2.9925,-11.33125,39.344,-43.016003,-59.152004,concentric,4,5.0,18885.0,25616.0,68963.0,83208.0,19093.0,35360.0,29522.0,47497.0,13755.0,10934.0
2026-05-06 16:01:22.435002,536177,1609505545909760,3145821970,-1.075552,0.089792,-0.040992,-4.795,3.15,-10.92,39.344,-43.016003,-61.200005,concentric,4,5.0,18885.0,25616.0,68963.0,83208.0,19093.0,35360.0,29522.0,47497.0,13755.0,10934.0
2026-05-06 16:01:22.441250,536178,1609505545918725,3145830697,-1.052128,0.089792,-0.040992,-4.61125,2.70375,-10.9725,39.544003,-42.960003,-60.792004,concentric,4,5.0,18885.0,25616.0,68963.0,83208.0,19093.0,35360.0,29522.0,47497.0,13755.0,10934.0
2026-05-06 16:01:22.480380,536189,1609505545933616,3145845726,-1.077504,0.122976,-0.027328,1.79375,1.1025,-10.45625,39.744003,-42.752003,-58.744003,concentric,4,5.0,18974.0,25623.0,68979.0,83172.0,19186.0,35360.0,29529.0,47448.0,13818.0,10973.0
2026-05-06 16:01:22.482616,536190,1609505545942588,3145854479,-1.077504,0.122976,-0.027328,5.5825,0.0525,-8.855001,39.744003,-42.752003,-58.744003,concentric,4,5.0,18974.0,25623.0,68979.0,83172.0,19186.0,35360.0,29529.0,47448.0,13818.0,10973.0
2026-05-06 16:01:22.485204,536191,1609505545957274,3145869462,-1.075552,0.089792,-0.060512,3.71,0.51625,-8.12,39.56,-42.688004,-58.864002,concentric,4,5.0,18974.0,25623.0,68979.0,83172.0,19186.0,35360.0,29529.0,47448.0,13818.0,10973.0
2026-05-06 16:01:22.491401,536192,1609505545966346,3145878211,-1.075552,0.089792,-0.060512,0.44625,1.32125,-8.00625,39.56,-42.688004,-58.864002,concentric,4,5.0,18974.0,25623.0,68979.0,83172.0,19186.0,35360.0,29529.0,47448.0,13818.0,10973.0
2026-05-06 16:01:22.497678,536193,1609505545975301,3145886873,-1.0248,0.080032,-0.03904,-1.98625,2.12625,-8.4525,40.128002,-42.84,-59.024002,concentric,4,5.0,18974.0,25623.0,68979.0,83172.0,19186.0,35360.0,29529.0,47448.0,13818.0,10973.0
2026-05-06 16:01:22.532335,536194,1609505545989784,3145901804,-1.0248,0.080032,-0.03904,-1.47875,2.45875,-8.51375,40.128002,-42.84,-59.024002,concentric,4,5.0,18974.0,25623.0,68979.0,83172.0,19186.0,35360.0,29529.0,47448.0,13818.0,10973.0
2026-05-06 16:01:22.557489,536195,1609505545998720,3145910546,-1.030656,0.122976,0.02928,0.175,1.995,-9.52,39.424004,-42.760002,-57.104004,concentric,4,5.0,18974.0,25623.0,68979.0,83172.0,19186.0,35360.0,29529.0,47448.0,13818.0,10973.0
2026-05-06 16:01:22.576413,536196,1609505546013218,3145925479,-1.067744,0.11712,-0.06832,0.735,1.4875,-9.12625,40.312,-42.552002,-59.296,concentric,4,5.0,18974.0,25623.0,68979.0,83172.0,19186.0,35360.0,29529.0,47448.0,13818.0,10973.0
2026-05-06 16:01:22.578941,536197,1609505546022141,3145934184,-1.067744,0.11712,-0.06832,0.20125,1.085,-8.645,40.312,-42.552002,-59.296,concentric,4,5.0,18974.0,25623.0,68979.0,83172.0,19186.0,35360.0,29529.0,47448.0,13818.0,10973.0
2026-05-06 16:01:22.606059,536208,1609505546036789,3145949169,-1.040416,0.093696,-0.042944,-3.00125,1.56625,-9.63375,40.112003,-42.824,-59.280003,concentric,4,5.0,19177.0,25758.0,69018.0,83113.0,19345.0,35476.0,29528.0,47382.0,13912.0,11020.0
2026-05-06 16:01:22.609957,536209,1609505546045796,3145958000,-1.040416,0.093696,-0.042944,-5.45125,2.09125,-10.52625,40.112003,-42.824,-59.280003,concentric,4,5.0,19177.0,25758.0,69018.0,83113.0,19345.0,35476.0,29528.0,47382.0,13912.0,11020.0
2026-05-06 16:01:22.611058,536210,1609505546054831,3145966726,-1.059936,0.064416,-0.03904,-3.5525,1.7325,-12.1625,40.312,-42.768,-58.856003,concentric,4,5.0,19177.0,25758.0,69018.0,83113.0,19345.0,35476.0,29528.0,47382.0,13912.0,11020.0
2026-05-06 16:01:22.613470,536211,1609505546069385,3145981670,-1.059936,0.064416,-0.03904,-1.33875,1.16375,-13.658751,40.312,-42.768,-58.856003,concentric,4,5.0,19177.0,25758.0,69018.0,83113.0,19345.0,35476.0,29528.0,47382.0,13912.0,11020.0
2026-05-06 16:01:22.616267,536212,1609505546078446,3145990428,-1.0248,0.05856,-0.05856,-0.37625,0.7875,-12.66125,40.296,-43.952003,-59.024002,concentric,4,5.0,19177.0,25758.0,69018.0,83113.0,19345.0,35476.0,29528.0,47382.0,13912.0,11020.0
2026-05-06 16:01:22.618711,536213,1609505546093191,3146005357,-1.036512,0.08784,-0.040992,-0.5075,0.74375,-11.38375,40.864002,-42.280003,-58.928,concentric,4,5.0,19177.0,25758.0,69018.0,83113.0,19345.0,35476.0,29528.0,47382.0,13912.0,11020.0
2026-05-06 16:01:22.627834,536214,1609505546102214,3146014132,-1.036512,0.08784,-0.040992,-0.70875,-0.41125,-11.261251,40.864002,-42.280003,-58.928,concentric,4,5.0,19177.0,25758.0,69018.0,83113.0,19345.0,35476.0,29528.0,47382.0,13912.0,11020.0
2026-05-06 16:01:22.637635,536215,1609505546111278,3146022865,-1.036512,0.072224,-0.003904,-1.82,-0.385,-9.72125,40.864002,-42.280003,-56.88,concentric,4,5.0,19177.0,25758.0,69018.0,83113.0,19345.0,35476.0,29528.0,47382.0,13912.0,11020.0
2026-05-06 16:01:22.651385,536216,1609505546125831,3146037792,-1.022848,0.072224,-0.003904,-3.78875,0.14,-9.21375,40.528004,-45.384003,-55.552002,concentric,4,5.0,19177.0,25758.0,69018.0,83113.0,19345.0,35476.0,29528.0,47382.0,13912.0,11020.0
2026-05-06 16:01:22.678622,536227,1609505546135132,3146046870,-1.056032,0.037088,-0.00976,-3.3775,0.88375,-9.765,41.056004,-42.696003,-58.632004,concentric,4,5.0,19322.0,25815.0,69091.0,82956.0,19481.0,35506.0,29600.0,47301.0,14013.0,11057.0
2026-05-06 16:01:22.681308,536228,1609505546149698,3146061870,-1.056032,0.037088,-0.00976,-0.53375,1.25125,-9.56375,41.056004,-42.696003,-58.632004,concentric,4,5.0,19322.0,25815.0,69091.0,82956.0,19481.0,35506.0,29600.0,47301.0,14013.0,11057.0
2026-05-06 16:01:22.683835,536229,1609505546158637,3146070592,-1.020896,0.056608,-0.081984,1.96,0.875,-6.7725,41.24,-42.472,-57.344,concentric,4,5.0,19322.0,25815.0,69091.0,82956.0,19481.0,35506.0,29600.0,47301.0,14013.0,11057.0
2026-05-06 16:01:22.697719,536230,1609505546173284,3146085502,-1.020896,0.06832,-0.054656,4.45375,0.91,-4.12125,40.936,-42.352,-61.680004,concentric,4,5.0,19322.0,25815.0,69091.0,82956.0,19481.0,35506.0,29600.0,47301.0,14013.0,11057.0
2026-05-06 16:01:22.706205,536231,1609505546182253,3146094292,-1.020896,0.06832,-0.054656,3.49125,1.05875,-4.36625,40.936,-42.352,-61.680004,concentric,4,5.0,19322.0,25815.0,69091.0,82956.0,19481.0,35506.0,29600.0,47301.0,14013.0,11057.0
2026-05-06 16:01:22.715080,536232,1609505546191231,3146103006,-1.020896,0.06832,-0.054656,0.525,1.6625,-6.11625,40.936,-42.352,-61.680004,concentric,4,5.0,19322.0,25815.0,69091.0,82956.0,19481.0,35506.0,29600.0,47301.0,14013.0,11057.0
2026-05-06 16:01:22.741409,536233,1609505546205724,3146117915,-1.030656,0.085888,-0.00976,-0.98875,3.05375,-7.0175,41.288002,-42.816,-57.456,concentric,4,5.0,19322.0,25815.0,69091.0,82956.0,19481.0,35506.0,29600.0,47301.0,14013.0,11057.0
2026-05-06 16:01:22.743899,536234,1609505546214681,3146126573,-1.050176,0.121024,-0.025376,-3.66625,4.06875,-8.04125,41.584003,-43.88,-58.440002,concentric,4,5.0,19322.0,25815.0,69091.0,82956.0,19481.0,35506.0,29600.0,47301.0,14013.0,11057.0
2026-05-06 16:01:22.777622,536245,1609505546229208,3146141469,-1.050176,0.121024,-0.025376,-3.75375,3.8675,-9.19625,41.584003,-43.88,-58.440002,concentric,4,5.0,19619.0,26152.0,69360.0,83237.0,19796.0,35892.0,29746.0,47494.0,14217.0,11213.0
2026-05-06 16:01:22.780154,536246,1609505546238362,3146150362,-1.038464,0.066368,-0.093696,-2.905,3.395,-10.815,41.592003,-42.536003,-58.944004,concentric,4,5.0,19619.0,26152.0,69360.0,83237.0,19796.0,35892.0,29746.0,47494.0,14217.0,11213.0
2026-05-06 16:01:22.785863,536247,1609505546247380,3146159206,-1.038464,0.066368,-0.093696,-4.2,3.22,-12.66125,41.592003,-42.536003,-58.944004,concentric,4,5.0,19619.0,26152.0,69360.0,83237.0,19796.0,35892.0,29746.0,47494.0,14217.0,11213.0
2026-05-06 16:01:22.786083,536248,1609505546261897,3146174196,-0.997472,0.025376,-0.080032,-4.06,4.19125,-13.615,41.968002,-42.664,-58.800003,concentric,4,5.0,19619.0,26152.0,69360.0,83237.0,19796.0,35892.0,29746.0,47494.0,14217.0,11213.0
2026-05-06 16:01:22.798777,536249,1609505546270844,3146182957,-0.997472,0.025376,-0.080032,-2.51125,4.76,-14.805,41.968002,-42.664,-58.800003,concentric,4,5.0,19619.0,26152.0,69360.0,83237.0,19796.0,35892.0,29746.0,47494.0,14217.0,11213.0
2026-05-06 16:01:22.812332,536250,1609505546285422,3146197859,-1.057984,0.074176,-0.007808,-0.875,3.99,-14.51625,42.184002,-42.72,-60.984,concentric,4,5.0,19619.0,26152.0,69360.0,83237.0,19796.0,35892.0,29746.0,47494.0,14217.0,11213.0
2026-05-06 16:01:22.821099,536251,1609505546294449,3146206541,-1.077504,0.042944,-0.031232,-1.14625,3.21125,-14.315001,42.512,-42.072002,-56.504,concentric,4,5.0,19619.0,26152.0,69360.0,83237.0,19796.0,35892.0,29746.0,47494.0,14217.0,11213.0
2026-05-06 16:01:22.835057,536252,1609505546308963,3146221478,-1.077504,0.042944,-0.031232,-2.72125,3.17625,-12.8625,42.512,-42.072002,-56.504,concentric,4,5.0,19619.0,26152.0,69360.0,83237.0,19796.0,35892.0,29746.0,47494.0,14217.0,11213.0
2026-05-06 16:01:22.841380,536253,1609505546317860,3146230235,-1.06384,-0.025376,-0.138592,-5.67875,3.4475,-11.8125,42.744003,-42.496002,-58.424004,concentric,4,5.0,19619.0,26152.0,69360.0,83237.0,19796.0,35892.0,29746.0,47494.0,14217.0,11213.0
2026-05-06 16:01:22.852619,536254,1609505546326955,3146238952,-1.06384,-0.025376,-0.138592,-5.92375,3.5,-10.36875,42.744003,-42.496002,-58.424004,concentric,4,5.0,19619.0,26152.0,69360.0,83237.0,19796.0,35892.0,29746.0,47494.0,14217.0,11213.0
2026-05-06 16:01:22.902530,536265,1609505546341707,3146254436,-0.983808,0.0,-0.111264,-1.4,2.79125,-7.98,43.048,-42.288002,-59.056004,concentric,4,5.0,19700.0,26236.0,69485.0,83127.0,19879.0,35986.0,29796.0,47509.0,14288.0,11248.0
2026-05-06 16:01:22.927618,536266,1609505546350685,3146263176,-0.983808,0.0,-0.111264,3.605,2.2225,-6.67625,43.048,-42.288002,-59.056004,concentric,4,5.0,19700.0,26236.0,69485.0,83127.0,19879.0,35986.0,29796.0,47509.0,14288.0,11248.0
2026-05-06 16:01:22.952684,536267,1609505546365229,3146276061,-1.0248,0.064416,-0.017568,4.76875,2.03875,-6.27375,42.968002,-41.944,-57.504,concentric,4,5.0,19700.0,26236.0,69485.0,83127.0,19879.0,35986.0,29796.0,47509.0,14288.0,11248.0
2026-05-06 16:01:22.971196,536268,1609505546374554,3146286867,-1.040416,0.052704,-0.066368,1.09375,1.8025,-6.65875,42.992,-42.24,-58.08,concentric,4,5.0,19700.0,26236.0,69485.0,83127.0,19879.0,35986.0,29796.0,47509.0,14288.0,11248.0
2026-05-06 16:01:22.975417,536269,1609505546383468,3146295602,-1.040416,0.052704,-0.066368,-5.6175,2.17,-6.41375,42.992,-42.24,-58.08,concentric,4,5.0,19700.0,26236.0,69485.0,83127.0,19879.0,35986.0,29796.0,47509.0,14288.0,11248.0
2026-05-06 16:01:22.976035,536270,1609505546397951,3146310521,-1.032608,0.011712,-0.111264,-12.4775,2.9225,-8.05875,43.336002,-41.768,-58.360004,concentric,4,5.0,19700.0,26236.0,69485.0,83127.0,19879.0,35986.0,29796.0,47509.0,14288.0,11248.0
2026-05-06 16:01:22.978599,536271,1609505546407006,3146319222,-1.032608,0.011712,-0.111264,-16.10875,3.045,-10.955,43.336002,-41.768,-58.360004,concentric,4,5.0,19700.0,26236.0,69485.0,83127.0,19879.0,35986.0,29796.0,47509.0,14288.0,11248.0
2026-05-06 16:01:22.982097,536272,1609505546421508,3146334286,-0.991616,0.027328,-0.056608,-11.15625,3.24625,-11.59375,43.976,-41.72,-58.152004,concentric,4,5.0,19700.0,26236.0,69485.0,83127.0,19879.0,35986.0,29796.0,47509.0,14288.0,11248.0
2026-05-06 16:01:23.008874,536283,1609505546430423,3146343052,-0.991616,0.027328,-0.056608,-4.6025,2.4675,-11.235,43.976,-41.72,-58.152004,concentric,4,5.0,19785.0,26259.0,69554.0,83111.0,19977.0,36030.0,29853.0,47511.0,14365.0,11283.0
2026-05-06 16:01:23.011367,536284,1609505546445013,3146355988,-1.038464,0.037088,-0.027328,-1.37375,2.205,-11.34875,44.24,-42.280003,-58.216003,concentric,4,5.0,19785.0,26259.0,69554.0,83111.0,19977.0,36030.0,29853.0,47511.0,14365.0,11283.0
2026-05-06 16:01:23.013882,536285,1609505546454432,3146366769,-1.036512,0.011712,-0.111264,-3.36,2.35375,-11.59375,44.216003,-42.208,-58.496002,concentric,4,5.0,19785.0,26259.0,69554.0,83111.0,19977.0,36030.0,29853.0,47511.0,14365.0,11283.0
2026-05-06 16:01:23.016620,536286,1609505546463370,3146375531,-1.036512,0.011712,-0.111264,-5.36375,2.4675,-11.17375,44.216003,-42.208,-58.496002,concentric,4,5.0,19785.0,26259.0,69554.0,83111.0,19977.0,36030.0,29853.0,47511.0,14365.0,11283.0
2026-05-06 16:01:23.018913,536287,1609505546478117,3146390676,-1.069696,0.021472,-0.08784,-5.67875,2.93125,-11.795,44.648003,-41.864002,-57.984,concentric,4,5.0,19785.0,26259.0,69554.0,83111.0,19977.0,36030.0,29853.0,47511.0,14365.0,11283.0
2026-05-06 16:01:23.021316,536288,1609505546487125,3146399408,-1.069696,0.021472,-0.08784,-6.37875,2.975,-15.44375,44.648003,-41.864002,-57.984,concentric,4,5.0,19785.0,26259.0,69554.0,83111.0,19977.0,36030.0,29853.0,47511.0,14365.0,11283.0
2026-05-06 16:01:23.023648,536289,1609505546496123,3146408178,-1.08336,0.0488,-0.017568,0.77,2.16125,-17.36875,44.904003,-41.352,-58.376003,concentric,4,5.0,19785.0,26259.0,69554.0,83111.0,19977.0,36030.0,29853.0,47511.0,14365.0,11283.0
2026-05-06 16:01:23.035089,536290,1609505546510636,3146423121,-1.08336,0.0488,-0.017568,8.75875,1.09375,-16.12625,44.904003,-41.352,-58.376003,concentric,4,5.0,19785.0,26259.0,69554.0,83111.0,19977.0,36030.0,29853.0,47511.0,14365.0,11283.0
2026-05-06 16:01:23.043835,536291,1609505546519589,3146431821,-1.036512,0.040992,-0.015616,7.00875,1.35625,-14.41125,45.376003,-41.36,-58.016003,concentric,4,5.0,19785.0,26259.0,69554.0,83111.0,19977.0,36030.0,29853.0,47511.0,14365.0,11283.0
2026-05-06 16:01:23.083739,536302,1609505546534493,3146445310,-1.036512,0.040992,-0.066368,0.0175,3.0625,-16.135,45.376003,-41.36,-58.016003,concentric,4,5.0,19945.0,26446.0,69701.0,83335.0,20155.0,36228.0,29953.0,47634.0,14481.0,11382.0
2026-05-06 16:01:23.086254,536303,1609505546543883,3146456178,-1.081408,-0.037088,-0.066368,-6.3,4.75125,-19.64375,45.608,-41.984,-58.528004,concentric,4,5.0,19945.0,26446.0,69701.0,83335.0,20155.0,36228.0,29953.0,47634.0,14481.0,11382.0
2026-05-06 16:01:23.088540,536304,1609505546552940,3146464929,-1.081408,-0.037088,-0.066368,-9.415,6.41375,-21.8575,45.608,-41.984,-58.528004,concentric,4,5.0,19945.0,26446.0,69701.0,83335.0,20155.0,36228.0,29953.0,47634.0,14481.0,11382.0
2026-05-06 16:01:23.091285,536305,1609505546567463,3146479893,-1.100928,0.0,-0.095648,-8.225,6.09,-21.56,46.232002,-42.608,-55.064003,concentric,4,5.0,19945.0,26446.0,69701.0,83335.0,20155.0,36228.0,29953.0,47634.0,14481.0,11382.0
2026-05-06 16:01:23.102593,536306,1609505546576506,3146488709,-1.059936,0.033184,-0.070272,-2.8,4.5325,-19.678751,46.384003,-42.512,-56.104004,concentric,4,5.0,19945.0,26446.0,69701.0,83335.0,20155.0,36228.0,29953.0,47634.0,14481.0,11382.0
2026-05-06 16:01:23.123691,536307,1609505546591022,3146503591,-1.059936,0.033184,-0.070272,-3.9375,3.6225,-17.50875,46.384003,-42.512,-56.104004,concentric,4,5.0,19945.0,26446.0,69701.0,83335.0,20155.0,36228.0,29953.0,47634.0,14481.0,11382.0
2026-05-06 16:01:23.126108,536308,1609505546599962,3146512319,-1.059936,-0.003904,-0.093696,-7.95375,2.24,-16.72125,47.168003,-41.552002,-57.632004,concentric,4,5.0,19945.0,26446.0,69701.0,83335.0,20155.0,36228.0,29953.0,47634.0,14481.0,11382.0
2026-05-06 16:01:23.139894,536309,1609505546614580,3146527238,-1.059936,-0.003904,-0.093696,-12.11875,2.17875,-17.1325,47.168003,-41.552002,-57.632004,concentric,4,5.0,19945.0,26446.0,69701.0,83335.0,20155.0,36228.0,29953.0,47634.0,14481.0,11382.0
2026-05-06 16:01:23.148895,536310,1609505546623483,3146535945,-1.104832,-0.060512,-0.070272,-16.26625,3.2025,-16.8525,46.88,-40.896004,-57.848003,concentric,4,5.0,19945.0,26446.0,69701.0,83335.0,20155.0,36228.0,29953.0,47634.0,14481.0,11382.0
2026-05-06 16:01:23.187461,536321,1609505546632436,3146544632,-1.104832,-0.060512,-0.070272,-16.4325,3.64875,-16.63375,46.88,-40.896004,-57.848003,concentric,4,5.0,19861.0,26442.0,69696.0,83339.0,20122.0,36185.0,29949.0,47671.0,14448.0,11367.0
2026-05-06 16:01:23.189854,536322,1609505546647362,3146559650,-1.042368,-0.0488,-0.10736,-12.1275,2.94875,-14.7875,47.04,-42.376003,-57.184002,concentric,4,5.0,19861.0,26442.0,69696.0,83339.0,20122.0,36185.0,29949.0,47671.0,14448.0,11367.0
2026-05-06 16:01:23.192655,536323,1609505546656316,3146568390,-1.052128,0.023424,-0.101504,-8.7675,2.75625,-12.2675,47.760002,-40.624,-57.592003,concentric,4,5.0,19861.0,26442.0,69696.0,83339.0,20122.0,36185.0,29949.0,47671.0,14448.0,11367.0
2026-05-06 16:01:23.195167,536324,1609505546670880,3146583393,-1.052128,0.023424,-0.101504,-10.47375,2.7475,-13.4225,47.760002,-40.624,-57.592003,concentric,4,5.0,19861.0,26442.0,69696.0,83339.0,20122.0,36185.0,29949.0,47671.0,14448.0,11367.0
2026-05-06 16:01:23.203907,536325,1609505546679830,3146592095,-1.095072,-0.003904,-0.101504,-10.9025,1.855,-16.52875,48.120003,-40.432003,-57.176003,concentric,4,5.0,19861.0,26442.0,69696.0,83339.0,20122.0,36185.0,29949.0,47671.0,14448.0,11367.0
2026-05-06 16:01:23.212681,536326,1609505546688738,3146600927,-1.095072,-0.003904,-0.101504,-6.44875,0.385,-17.745,48.120003,-40.432003,-57.176003,concentric,4,5.0,19861.0,26442.0,69696.0,83339.0,20122.0,36185.0,29949.0,47671.0,14448.0,11367.0
2026-05-06 16:01:23.259131,536327,1609505546703212,3146615812,-1.020896,-0.091744,-0.085888,-2.9225,-0.83125,-16.5025,48.512,-41.688004,-56.264004,concentric,4,5.0,19861.0,26442.0,69696.0,83339.0,20122.0,36185.0,29949.0,47671.0,14448.0,11367.0
2026-05-06 16:01:23.283752,536328,1609505546712109,3146624544,-1.020896,-0.091744,-0.085888,-0.00875,-1.5925,-14.0525,48.512,-41.688004,-56.264004,concentric,4,5.0,19861.0,26442.0,69696.0,83339.0,20122.0,36185.0,29949.0,47671.0,14448.0,11367.0
2026-05-06 16:01:23.301289,536329,1609505546726625,3146637402,-1.061888,-0.056608,-0.027328,3.01875,-1.925,-13.886251,48.824,-40.808002,-56.744003,concentric,4,5.0,19861.0,26442.0,69696.0,83339.0,20122.0,36185.0,29949.0,47671.0,14448.0,11367.0
2026-05-06 16:01:23.328871,536340,1609505546736529,3146648579,-1.100928,-0.013664,-0.083936,3.94625,-1.9425,-14.665,49.112003,-40.128002,-57.576004,concentric,4,5.0,19868.0,26407.0,69735.0,83307.0,20144.0,36160.0,29961.0,47682.0,14458.0,11361.0
2026-05-06 16:01:23.331361,536341,1609505546745512,3146657349,-1.100928,-0.013664,-0.083936,2.45875,-1.715,-14.542501,49.112003,-40.128002,-57.576004,concentric,4,5.0,19868.0,26407.0,69735.0,83307.0,20144.0,36160.0,29961.0,47682.0,14458.0,11361.0
2026-05-06 16:01:23.333885,536342,1609505546759996,3146672240,-1.05408,-0.031232,-0.0976,-1.63625,-1.9775,-12.55625,49.616,-40.088,-56.264004,concentric,4,5.0,19868.0,26407.0,69735.0,83307.0,20144.0,36160.0,29961.0,47682.0,14458.0,11361.0
2026-05-06 16:01:23.336392,536343,1609505546769053,3146681139,-1.05408,-0.031232,-0.0976,-5.66125,-1.2775,-9.7125,49.616,-40.088,-56.264004,concentric,4,5.0,19868.0,26407.0,69735.0,83307.0,20144.0,36160.0,29961.0,47682.0,14458.0,11361.0
2026-05-06 16:01:23.338680,536344,1609505546783553,3146696089,-1.089216,-0.089792,-0.062464,-10.35125,-0.0875,-9.8175,49.616,-40.52,-55.888004,concentric,4,5.0,19868.0,26407.0,69735.0,83307.0,20144.0,36160.0,29961.0,47682.0,14458.0,11361.0
2026-05-06 16:01:23.341367,536345,1609505546792521,3146704852,-1.089216,-0.089792,-0.062464,-12.71375,-0.2275,-10.40375,49.616,-40.52,-55.888004,concentric,4,5.0,19868.0,26407.0,69735.0,83307.0,20144.0,36160.0,29961.0,47682.0,14458.0,11361.0
2026-05-06 16:01:23.343848,536346,1609505546807069,3146717839,-1.15168,-0.066368,-0.132736,-11.8475,-0.84,-9.24,50.296,-40.648003,-55.832005,concentric,4,5.0,19868.0,26407.0,69735.0,83307.0,20144.0,36160.0,29961.0,47682.0,14458.0,11361.0
2026-05-06 16:01:23.346397,536347,1609505546816293,3146728643,-1.15168,0.011712,-0.08784,-7.91875,-1.58375,-6.74625,50.296,-40.648003,-55.832005,concentric,4,5.0,19868.0,26407.0,69735.0,83307.0,20144.0,36160.0,29961.0,47682.0,14458.0,11361.0
2026-05-06 16:01:23.348856,536348,1609505546825322,3146737396,-1.10288,0.001952,-0.08784,-5.075,-1.5575,-6.0025,50.288002,-41.024002,-56.08,concentric,4,5.0,19868.0,26407.0,69735.0,83307.0,20144.0,36160.0,29961.0,47682.0,14458.0,11361.0
2026-05-06 16:01:23.385042,536359,1609505546839897,3146752366,-1.095072,-0.013664,-0.128832,-5.85375,-0.90125,-6.16875,50.744003,-40.912003,-55.472004,concentric,4,5.0,19717.0,26221.0,69612.0,83406.0,19985.0,36025.0,29885.0,47762.0,14369.0,11287.0
2026-05-06 16:01:23.387673,536360,1609505546848892,3146761280,-1.095072,-0.013664,-0.128832,-7.14,0.14875,-7.23625,50.744003,-40.912003,-55.472004,concentric,4,5.0,19717.0,26221.0,69612.0,83406.0,19985.0,36025.0,29885.0,47762.0,14369.0,11287.0
2026-05-06 16:01:23.389849,536361,1609505546863432,3146774204,-1.155584,-0.109312,-0.103456,-11.33125,0.98,-11.3925,50.928,-40.24,-55.440002,concentric,4,5.0,19717.0,26221.0,69612.0,83406.0,19985.0,36025.0,29885.0,47762.0,14369.0,11287.0
2026-05-06 16:01:23.398776,536362,1609505546872730,3146785004,-1.155584,-0.109312,-0.103456,-15.23375,2.1525,-13.13375,50.928,-40.24,-55.440002,concentric,4,5.0,19717.0,26221.0,69612.0,83406.0,19985.0,36025.0,29885.0,47762.0,14369.0,11287.0
2026-05-06 16:01:23.404820,536363,1609505546881722,3146793796,-1.149728,-0.062464,-0.132736,-13.895,1.89,-12.62625,50.968002,-41.864002,-54.064003,concentric,4,5.0,19717.0,26221.0,69612.0,83406.0,19985.0,36025.0,29885.0,47762.0,14369.0,11287.0
2026-05-06 16:01:23.439787,536364,1609505546896229,3146808735,-1.149728,-0.062464,-0.132736,-7.16625,-0.02625,-11.68125,50.968002,-41.864002,-54.064003,concentric,4,5.0,19717.0,26221.0,69612.0,83406.0,19985.0,36025.0,29885.0,47762.0,14369.0,11287.0
2026-05-06 16:01:23.441220,536365,1609505546905289,3146817429,-1.130208,-0.02928,-0.076128,-1.46125,-1.225,-10.28125,51.192,-40.568,-54.624004,concentric,4,5.0,19717.0,26221.0,69612.0,83406.0,19985.0,36025.0,29885.0,47762.0,14369.0,11287.0
2026-05-06 16:01:23.443614,536366,1609505546919771,3146832368,-1.15168,-0.105408,-0.05856,-0.7175,-1.6625,-7.95375,51.464,-40.416,-54.808002,concentric,4,5.0,19717.0,26221.0,69612.0,83406.0,19985.0,36025.0,29885.0,47762.0,14369.0,11287.0
2026-05-06 16:01:23.452291,536367,1609505546928731,3146841250,-1.15168,-0.105408,-0.05856,-4.73375,-1.14625,-6.53625,51.464,-40.416,-54.808002,concentric,4,5.0,19717.0,26221.0,69612.0,83406.0,19985.0,36025.0,29885.0,47762.0,14369.0,11287.0
2026-05-06 16:01:23.487571,536378,1609505546938371,3146850109,-1.214144,-0.06832,-0.10736,-7.23625,-0.4725,-5.3025,51.696003,-40.4,-52.960003,concentric,4,5.0,19687.0,26186.0,69648.0,83251.0,19987.0,35955.0,29920.0,47722.0,14351.0,11256.0
2026-05-06 16:01:23.489998,536379,1609505546953244,3146865129,-1.214144,-0.06832,-0.10736,-9.275,0.25375,-5.03125,51.696003,-40.4,-52.960003,concentric,4,5.0,19687.0,26186.0,69648.0,83251.0,19987.0,35955.0,29920.0,47722.0,14351.0,11256.0
2026-05-06 16:01:23.492683,536380,1609505546962237,3146873894,-1.22,-0.040992,-0.189344,-11.41875,0.1575,-4.03375,51.592003,-43.896004,-51.576004,concentric,4,5.0,19687.0,26186.0,69648.0,83251.0,19987.0,35955.0,29920.0,47722.0,14351.0,11256.0
2026-05-06 16:01:23.501401,536381,1609505546976747,3146888837,-1.22,-0.040992,-0.189344,-17.82375,-0.27125,-2.555,51.592003,-43.896004,-51.576004,concentric,4,5.0,19687.0,26186.0,69648.0,83251.0,19987.0,35955.0,29920.0,47722.0,14351.0,11256.0
2026-05-06 16:01:23.510154,536382,1609505546985676,3146897558,-1.196576,-0.1952,-0.158112,-20.37875,-0.39375,-2.42375,52.024002,-40.36,-55.168003,concentric,4,5.0,19687.0,26186.0,69648.0,83251.0,19987.0,35955.0,29920.0,47722.0,14351.0,11256.0
2026-05-06 16:01:23.518924,536383,1609505546994646,3146906276,-1.196576,-0.1952,-0.158112,-13.39625,-0.88375,0.07,52.024002,-40.36,-55.168003,concentric,4,5.0,19687.0,26186.0,69648.0,83251.0,19987.0,35955.0,29920.0,47722.0,14351.0,11256.0
2026-05-06 16:01:23.553938,536384,1609505547009141,3146921370,-1.134112,-0.1464,0.017568,1.19875,-1.75,4.7425,52.392002,-41.128002,-53.968002,concentric,4,5.0,19687.0,26186.0,69648.0,83251.0,19987.0,35955.0,29920.0,47722.0,14351.0,11256.0
2026-05-06 16:01:23.554782,536385,1609505547018077,3146930131,-1.225856,0.089792,-0.083936,16.8875,-1.2075,7.48125,52.392002,-39.08,-55.296,concentric,4,5.0,19687.0,26186.0,69648.0,83251.0,19987.0,35955.0,29920.0,47722.0,14351.0,11256.0
2026-05-06 16:01:23.557214,536386,1609505547032577,3146945137,-1.225856,0.089792,-0.083936,19.88,-0.2975,5.67,52.016003,-40.904003,-55.296,concentric,4,5.0,19687.0,26186.0,69648.0,83251.0,19987.0,35955.0,29920.0,47722.0,14351.0,11256.0
2026-05-06 16:01:23.661961,536398,1609505547041662,3146953896,-1.216096,0.031232,-0.191296,8.54875,0.39375,1.84625,52.008003,-42.656002,-52.776,concentric,4,5.0,19595.0,26083.0,69423.0,83190.0,19866.0,35838.0,29795.0,47633.0,14284.0,11219.0
2026-05-06 16:01:23.681271,536399,1609505547056423,3146968907,-1.216096,0.031232,-0.191296,-11.06875,2.26625,-1.435,52.008003,-42.656002,-52.776,concentric,4,5.0,19595.0,26083.0,69423.0,83190.0,19866.0,35838.0,29795.0,47633.0,14284.0,11219.0
2026-05-06 16:01:23.686269,536400,1609505547065499,3146977645,-1.120448,-0.191296,-0.11712,-25.94375,4.03375,-2.94875,52.272003,-42.792004,-52.168003,concentric,4,5.0,19595.0,26083.0,69423.0,83190.0,19866.0,35838.0,29795.0,47633.0,14284.0,11219.0
2026-05-06 16:01:23.688603,536401,1609505547074530,3146986343,-1.120448,-0.191296,-0.11712,-27.098751,4.445,-1.89,52.272003,-42.792004,-52.168003,concentric,4,5.0,19595.0,26083.0,69423.0,83190.0,19866.0,35838.0,29795.0,47633.0,14284.0,11219.0
2026-05-06 16:01:23.691289,536402,1609505547089012,3147001255,-1.126304,-0.167872,-0.0488,-16.86125,3.59625,0.23625,52.272003,-41.544003,-53.688004,concentric,4,5.0,19595.0,26083.0,69423.0,83190.0,19866.0,35838.0,29795.0,47633.0,14284.0,11219.0
2026-05-06 16:01:23.693764,536403,1609505547097993,3147009976,-1.126304,-0.167872,-0.0488,-0.76125,1.9075,1.68875,52.272003,-41.544003,-53.688004,concentric,4,5.0,19595.0,26083.0,69423.0,83190.0,19866.0,35838.0,29795.0,47633.0,14284.0,11219.0
2026-05-06 16:01:23.696257,536404,1609505547112547,3147025004,-1.22,0.003904,-0.0488,9.28375,0.79625,1.68875,52.600002,-41.832,-56.120003,concentric,4,5.0,19595.0,26083.0,69423.0,83190.0,19866.0,35838.0,29795.0,47633.0,14284.0,11219.0
2026-05-06 16:01:23.698756,536405,1609505547121497,3147033707,-1.106784,0.025376,-0.101504,2.56375,0.72625,3.5525,52.280003,-41.432003,-53.872,concentric,4,5.0,19595.0,26083.0,69423.0,83190.0,19866.0,35838.0,29795.0,47633.0,14284.0,11219.0
2026-05-06 16:01:23.701188,536406,1609505547130424,3147042414,-1.106784,0.025376,-0.101504,-10.4475,1.435,6.36125,52.280003,-41.432003,-53.872,concentric,4,5.0,19595.0,26083.0,69423.0,83190.0,19866.0,35838.0,29795.0,47633.0,14284.0,11219.0
2026-05-06 16:01:23.731626,536417,1609505547145511,3147057537,-1.138016,-0.15616,-0.10736,-17.17625,1.645,4.13875,52.512,-42.440002,-53.256004,concentric,4,5.0,19473.0,25920.0,69324.0,82769.0,19805.0,35663.0,29708.0,47500.0,14224.0,11155.0
2026-05-06 16:01:23.731743,536418,1609505547154404,3147066243,-1.138016,-0.15616,-0.10736,-16.765,1.7675,1.8375,52.512,-42.440002,-53.256004,concentric,4,5.0,19473.0,25920.0,69324.0,82769.0,19805.0,35663.0,29708.0,47500.0,14224.0,11155.0
2026-05-06 16:01:23.734052,536419,1609505547168909,3147081185,-1.173152,-0.119072,-0.122976,-9.77375,1.8025,2.7125,52.184002,-42.136,-53.416004,concentric,4,5.0,19473.0,25920.0,69324.0,82769.0,19805.0,35663.0,29708.0,47500.0,14224.0,11155.0
2026-05-06 16:01:23.736132,536420,1609505547178072,3147089951,-1.173152,-0.119072,-0.122976,0.525,0.86625,4.025,52.184002,-42.136,-53.416004,concentric,4,5.0,19473.0,25920.0,69324.0,82769.0,19805.0,35663.0,29708.0,47500.0,14224.0,11155.0
2026-05-06 16:01:23.738535,536421,1609505547187126,3147098782,-1.1224,-0.007808,-0.074176,5.8625,-0.37625,4.4275,52.56,-41.960003,-51.768,concentric,4,5.0,19473.0,25920.0,69324.0,82769.0,19805.0,35663.0,29708.0,47500.0,14224.0,11155.0
2026-05-06 16:01:23.741208,536422,1609505547201712,3147113830,-1.15168,-0.021472,-0.13664,1.26,0.62125,5.25875,52.480003,-42.904003,-52.600002,concentric,4,5.0,19473.0,25920.0,69324.0,82769.0,19805.0,35663.0,29708.0,47500.0,14224.0,11155.0
2026-05-06 16:01:23.743803,536423,1609505547210717,3147122591,-1.15168,-0.021472,-0.13664,-4.59375,1.11125,4.31375,52.480003,-42.904003,-52.600002,concentric,4,5.0,19473.0,25920.0,69324.0,82769.0,19805.0,35663.0,29708.0,47500.0,14224.0,11155.0
2026-05-06 16:01:23.750017,536424,1609505547225208,3147137543,-1.18096,-0.0976,-0.128832,-9.3975,1.05,1.4,52.304,-43.920002,-51.960003,concentric,4,5.0,19473.0,25920.0,69324.0,82769.0,19805.0,35663.0,29708.0,47500.0,14224.0,11155.0
2026-05-06 16:01:23.758823,536425,1609505547234124,3147146388,-1.18096,-0.0976,-0.128832,-8.93375,0.44625,0.35875,52.304,-43.920002,-51.960003,concentric,4,5.0,19473.0,25920.0,69324.0,82769.0,19805.0,35663.0,29708.0,47500.0,14224.0,11155.0
2026-05-06 16:01:23.790202,536436,1609505547249004,3147161388,-1.194624,-0.054656,-0.105408,-2.93125,-0.7525,1.60125,52.704002,-43.272003,-53.344,concentric,4,5.0,19442.0,25886.0,69208.0,82707.0,19750.0,35609.0,29659.0,47469.0,14181.0,11109.0
2026-05-06 16:01:23.792493,536437,1609505547258019,3147170264,-1.194624,-0.054656,-0.105408,0.49875,-1.54875,1.05,52.704002,-43.272003,-53.344,concentric,4,5.0,19442.0,25886.0,69208.0,82707.0,19750.0,35609.0,29659.0,47469.0,14181.0,11109.0
2026-05-06 16:01:23.795160,536438,1609505547266968,3147178988,-1.221952,-0.01952,-0.081984,-3.96375,-1.75875,0.5425,52.344,-44.472004,-53.360004,concentric,4,5.0,19442.0,25886.0,69208.0,82707.0,19750.0,35609.0,29659.0,47469.0,14181.0,11109.0
2026-05-06 16:01:23.808964,536439,1609505547281591,3147193916,-1.270752,-0.095648,-0.134688,-11.305,-0.98,0.315,52.352,-42.912003,-52.728,concentric,4,5.0,19442.0,25886.0,69208.0,82707.0,19750.0,35609.0,29659.0,47469.0,14181.0,11109.0
2026-05-06 16:01:23.815215,536440,1609505547290559,3147202631,-1.270752,-0.095648,-0.134688,-14.51625,-0.14875,0.11375,52.352,-42.912003,-52.728,concentric,4,5.0,19442.0,25886.0,69208.0,82707.0,19750.0,35609.0,29659.0,47469.0,14181.0,11109.0
2026-05-06 16:01:23.829186,536441,1609505547305027,3147217570,-1.257088,-0.115168,-0.0976,-13.475,0.23625,0.34125,52.664,-42.528004,-52.952003,concentric,4,5.0,19442.0,25886.0,69208.0,82707.0,19750.0,35609.0,29659.0,47469.0,14181.0,11109.0
2026-05-06 16:01:23.837426,536442,1609505547313924,3147226272,-1.257088,-0.115168,-0.0976,-9.275,0.39375,1.60125,52.664,-42.528004,-52.952003,concentric,4,5.0,19442.0,25886.0,69208.0,82707.0,19750.0,35609.0,29659.0,47469.0,14181.0,11109.0
2026-05-06 16:01:23.851267,536443,1609505547322959,3147234985,-1.25904,-0.031232,-0.099552,-3.4125,-0.34125,2.9225,52.320004,-42.768,-53.08,concentric,4,5.0,19442.0,25886.0,69208.0,82707.0,19750.0,35609.0,29659.0,47469.0,14181.0,11109.0
2026-05-06 16:01:23.885174,536454,1609505547337573,3147250400,-1.25904,-0.031232,-0.099552,-0.60375,-1.6975,4.55,52.320004,-42.768,-53.08,concentric,4,5.0,19165.0,25719.0,69098.0,82502.0,19490.0,35428.0,29583.0,47401.0,14027.0,11020.0
2026-05-06 16:01:23.887642,536455,1609505547346769,3147259184,-1.27856,-0.02928,-0.070272,-5.145,-1.05,5.0925,52.208004,-43.376003,-52.936,concentric,4,5.0,19165.0,25719.0,69098.0,82502.0,19490.0,35428.0,29583.0,47401.0,14027.0,11020.0
2026-05-06 16:01:23.890186,536456,1609505547361320,3147272110,-1.245376,-0.031232,-0.083936,-8.21625,-0.97125,3.38625,51.816,-42.944,-52.152004,concentric,4,5.0,19165.0,25719.0,69098.0,82502.0,19490.0,35428.0,29583.0,47401.0,14027.0,11020.0
2026-05-06 16:01:23.895238,536457,1609505547370589,3147282936,-1.245376,-0.031232,-0.083936,-5.60875,-0.6125,2.275,51.816,-42.944,-52.152004,concentric,4,5.0,19165.0,25719.0,69098.0,82502.0,19490.0,35428.0,29583.0,47401.0,14027.0,11020.0
2026-05-06 16:01:23.903706,536458,1609505547379515,3147291647,-1.245376,-0.031232,-0.083936,-2.9575,-1.3475,2.03,51.816,-42.944,-52.152004,eccentric,4,5.0,19165.0,25719.0,69098.0,82502.0,19490.0,35428.0,29583.0,47401.0,14027.0,11020.0
2026-05-06 16:01:23.937542,536459,1609505547394034,3147306586,-1.260992,-0.064416,-0.150304,-1.995,-0.7175,0.48125,51.248,-44.464,-52.112003,eccentric,4,5.0,19165.0,25719.0,69098.0,82502.0,19490.0,35428.0,29583.0,47401.0,14027.0,11020.0
2026-05-06 16:01:23.940008,536460,1609505547403025,3147315313,-1.245376,-0.105408,-0.076128,-4.76,-0.76125,-1.61875,51.600002,-43.184002,-52.808002,eccentric,4,5.0,19165.0,25719.0,69098.0,82502.0,19490.0,35428.0,29583.0,47401.0,14027.0,11020.0
2026-05-06 16:01:23.942521,536461,1609505547417591,3147330265,-1.245376,-0.105408,-0.076128,-7.49875,-0.8225,0.74375,51.600002,-43.184002,-52.808002,eccentric,4,5.0,19165.0,25719.0,69098.0,82502.0,19490.0,35428.0,29583.0,47401.0,14027.0,11020.0
2026-05-06 16:01:23.951234,536462,1609505547426817,3147338986,-1.212192,-0.076128,-0.066368,-4.2525,-0.9625,5.8275,51.008003,-44.624,-51.952003,eccentric,4,5.0,19165.0,25719.0,69098.0,82502.0,19490.0,35428.0,29583.0,47401.0,14027.0,11020.0
2026-05-06 16:01:24.030102,536473,1609505547441532,3147354210,-1.227808,0.007808,-0.128832,1.67125,-1.35625,7.41125,53.056004,-43.640003,-52.496002,eccentric,4,5.0,18962.0,25506.0,68846.0,82246.0,19328.0,35232.0,29447.0,47293.0,13929.0,10917.0
2026-05-06 16:01:24.046361,536474,1609505547450608,3147362937,-1.227808,0.007808,-0.128832,4.57625,-1.4525,7.2625,51.344,-43.640003,-52.496002,eccentric,4,5.0,18962.0,25506.0,68846.0,82246.0,19328.0,35232.0,29447.0,47293.0,13929.0,10917.0
2026-05-06 16:01:24.048874,536475,1609505547459605,3147371724,-1.227808,0.007808,-0.128832,2.8875,-1.2425,6.4925,51.344,-43.640003,-52.496002,eccentric,4,5.0,18962.0,25506.0,68846.0,82246.0,19328.0,35232.0,29447.0,47293.0,13929.0,10917.0
2026-05-06 16:01:24.051348,536476,1609505547474091,3147386660,-1.247328,0.021472,-0.144448,0.42,-1.5225,4.68125,50.688004,-46.168003,-48.032,eccentric,4,5.0,18962.0,25506.0,68846.0,82246.0,19328.0,35232.0,29447.0,47293.0,13929.0,10917.0
2026-05-06 16:01:24.053887,536477,1609505547483046,3147395376,-1.243424,-0.037088,-0.10736,-7.0875,-1.68875,2.89625,50.832,-42.800003,-52.752003,eccentric,4,5.0,18962.0,25506.0,68846.0,82246.0,19328.0,35232.0,29447.0,47293.0,13929.0,10917.0
2026-05-06 16:01:24.056260,536478,1609505547497692,3147410334,-1.243424,-0.037088,-0.10736,-13.13375,-2.19625,2.835,50.832,-42.800003,-52.752003,eccentric,4,5.0,18962.0,25506.0,68846.0,82246.0,19328.0,35232.0,29447.0,47293.0,13929.0,10917.0
2026-05-06 16:01:24.058911,536479,1609505547506651,3147419062,-1.194624,-0.07808,-0.0976,-14.0875,-2.40625,3.99,50.192,-43.160004,-53.048004,eccentric,4,5.0,18962.0,25506.0,68846.0,82246.0,19328.0,35232.0,29447.0,47293.0,13929.0,10917.0
2026-05-06 16:01:24.061411,536480,1609505547515596,3147427964,-1.194624,-0.07808,-0.0976,-10.43875,-2.26625,4.69,50.192,-43.160004,-53.048004,eccentric,4,5.0,18962.0,25506.0,68846.0,82246.0,19328.0,35232.0,29447.0,47293.0,13929.0,10917.0
2026-05-06 16:01:24.063927,536481,1609505547530056,3147440912,-1.192672,-0.031232,-0.109312,-5.8275,-2.4675,3.78,50.064003,-43.000004,-53.08,eccentric,4,5.0,18962.0,25506.0,68846.0,82246.0,19328.0,35232.0,29447.0,47293.0,13929.0,10917.0
2026-05-06 16:01:24.091458,536492,1609505547539629,3147451810,-1.192672,-0.031232,-0.109312,-4.7425,-1.61875,2.98375,50.064003,-43.000004,-53.08,eccentric,4,5.0,18835.0,25395.0,68709.0,82164.0,19197.0,35109.0,29390.0,47259.0,13839.0,10872.0
2026-05-06 16:01:24.093947,536493,1609505547554253,3147466899,-1.204384,0.054656,-0.089792,-3.43,-2.02125,3.12375,49.856003,-44.68,-51.632004,eccentric,4,5.0,18835.0,25395.0,68709.0,82164.0,19197.0,35109.0,29390.0,47259.0,13839.0,10872.0
2026-05-06 16:01:24.096433,536494,1609505547563266,3147475625,-1.214144,-0.011712,-0.122976,-8.33,-1.79375,1.35625,49.600002,-44.192,-51.56,eccentric,4,5.0,18835.0,25395.0,68709.0,82164.0,19197.0,35109.0,29390.0,47259.0,13839.0,10872.0
2026-05-06 16:01:24.098946,536495,1609505547572202,3147484353,-1.214144,-0.011712,-0.122976,-13.1775,-1.54875,-0.02625,49.600002,-44.192,-51.56,eccentric,4,5.0,18835.0,25395.0,68709.0,82164.0,19197.0,35109.0,29390.0,47259.0,13839.0,10872.0
2026-05-06 16:01:24.114030,536496,1609505547586901,3147499348,-1.163392,-0.093696,-0.124928,-18.52375,-0.7525,-0.4375,49.064003,-44.336002,-51.88,eccentric,4,5.0,18835.0,25395.0,68709.0,82164.0,19197.0,35109.0,29390.0,47259.0,13839.0,10872.0
2026-05-06 16:01:24.119862,536497,1609505547595964,3147508060,-1.163392,-0.093696,-0.124928,-18.13875,-0.2975,0.9975,49.064003,-44.336002,-51.88,eccentric,4,5.0,18835.0,25395.0,68709.0,82164.0,19197.0,35109.0,29390.0,47259.0,13839.0,10872.0
2026-05-06 16:01:24.153727,536498,1609505547610496,3147523116,-1.118496,-0.031232,-0.070272,-12.32,-0.315,2.2575,49.280003,-42.584003,-53.224003,eccentric,4,5.0,18835.0,25395.0,68709.0,82164.0,19197.0,35109.0,29390.0,47259.0,13839.0,10872.0
2026-05-06 16:01:24.156171,536499,1609505547619400,3147531800,-1.118496,-0.031232,-0.070272,-3.185,-1.61,3.80625,49.280003,-42.584003,-53.224003,eccentric,4,5.0,18835.0,25395.0,68709.0,82164.0,19197.0,35109.0,29390.0,47259.0,13839.0,10872.0
2026-05-06 16:01:24.158637,536500,1609505547628430,3147540475,-1.13216,0.072224,-0.132736,3.57,-1.33875,4.12125,48.616,-42.808002,-53.416004,eccentric,4,5.0,18835.0,25395.0,68709.0,82164.0,19197.0,35109.0,29390.0,47259.0,13839.0,10872.0
2026-05-06 16:01:24.185913,536511,1609505547643160,3147555442,-1.179008,0.054656,-0.083936,-0.035,-0.5075,2.73,48.4,-45.808002,-50.992,eccentric,4,5.0,18873.0,25428.0,68654.0,82083.0,19211.0,35149.0,29371.0,47198.0,13842.0,10888.0
2026-05-06 16:01:24.188393,536512,1609505547652203,3147564243,-1.179008,0.054656,-0.083936,-7.14,-0.07875,-0.02625,48.4,-45.808002,-50.992,eccentric,4,5.0,18873.0,25428.0,68654.0,82083.0,19211.0,35149.0,29371.0,47198.0,13842.0,10888.0
2026-05-06 16:01:24.190874,536513,1609505547666756,3147579156,-1.149728,-0.044896,-0.119072,-15.49625,0.28,-2.86125,48.08,-45.168003,-52.688004,eccentric,4,5.0,18873.0,25428.0,68654.0,82083.0,19211.0,35149.0,29371.0,47198.0,13842.0,10888.0
2026-05-06 16:01:24.199743,536514,1609505547675719,3147587863,-1.149728,-0.044896,-0.119072,-22.46125,0.105,-0.4375,48.08,-45.168003,-52.688004,eccentric,4,5.0,18873.0,25428.0,68654.0,82083.0,19211.0,35149.0,29371.0,47198.0,13842.0,10888.0
2026-05-06 16:01:24.245120,536515,1609505547690232,3147602825,-1.104832,-0.0976,-0.1464,-24.605,0.2625,2.59875,47.840004,-42.000004,-52.248,eccentric,4,5.0,18873.0,25428.0,68654.0,82083.0,19211.0,35149.0,29371.0,47198.0,13842.0,10888.0
2026-05-06 16:01:24.247655,536516,1609505547699152,3147611553,-1.104832,-0.0976,-0.1464,-22.8375,0.245,2.98375,47.840004,-42.000004,-52.248,eccentric,4,5.0,18873.0,25428.0,68654.0,82083.0,19211.0,35149.0,29371.0,47198.0,13842.0,10888.0
2026-05-06 16:01:24.250035,536517,1609505547708271,3147620304,-1.130208,-0.003904,-0.072224,-15.93375,0.27125,3.17625,47.744003,-42.576,-53.496002,eccentric,4,5.0,18873.0,25428.0,68654.0,82083.0,19211.0,35149.0,29371.0,47198.0,13842.0,10888.0
2026-05-06 16:01:24.252441,536518,1609505547722768,3147635255,-1.130208,-0.003904,-0.072224,-5.8975,0.0875,5.24125,47.744003,-42.576,-53.496002,eccentric,4,5.0,18873.0,25428.0,68654.0,82083.0,19211.0,35149.0,29371.0,47198.0,13842.0,10888.0
2026-05-06 16:01:24.256333,536519,1609505547731779,3147643963,-1.1712,0.0488,-0.101504,-2.765,0.6475,6.16875,47.152,-42.304,-54.232002,eccentric,4,5.0,18873.0,25428.0,68654.0,82083.0,19211.0,35149.0,29371.0,47198.0,13842.0,10888.0
2026-05-06 16:01:24.287512,536530,1609505547746448,3147659036,-1.11264,0.003904,-0.11712,-2.12625,1.085,7.0875,47.120003,-42.368004,-53.928,eccentric,4,5.0,19048.0,25604.0,68832.0,82242.0,19354.0,35367.0,29424.0,47292.0,13962.0,10991.0
2026-05-06 16:01:24.290001,536531,1609505547755527,3147667778,-1.11264,0.003904,-0.11712,-5.62625,1.4875,6.86,47.120003,-42.368004,-53.928,eccentric,4,5.0,19048.0,25604.0,68832.0,82242.0,19354.0,35367.0,29424.0,47292.0,13962.0,10991.0
2026-05-06 16:01:24.292605,536532,1609505547764484,3147676637,-1.061888,-0.017568,-0.171776,-9.44125,1.54875,8.085,46.456,-44.072002,-52.768,eccentric,4,5.0,19048.0,25604.0,68832.0,82242.0,19354.0,35367.0,29424.0,47292.0,13962.0,10991.0
2026-05-06 16:01:24.306639,536533,1609505547779079,3147691564,-1.061888,-0.017568,-0.171776,-9.77375,1.67125,11.12125,46.456,-44.072002,-52.768,eccentric,4,5.0,19048.0,25604.0,68832.0,82242.0,19354.0,35367.0,29424.0,47292.0,13962.0,10991.0
2026-05-06 16:01:24.312369,536534,1609505547788165,3147700369,-1.069696,-0.040992,-0.119072,-10.73625,2.3275,11.698751,46.304,-42.488003,-53.712,eccentric,4,5.0,19048.0,25604.0,68832.0,82242.0,19354.0,35367.0,29424.0,47292.0,13962.0,10991.0
2026-05-06 16:01:24.335058,536535,1609505547802702,3147715345,-1.069696,-0.040992,-0.119072,-13.2125,2.63375,11.2525,46.304,-42.488003,-53.712,eccentric,4,5.0,19048.0,25604.0,68832.0,82242.0,19354.0,35367.0,29424.0,47292.0,13962.0,10991.0
2026-05-06 16:01:24.337542,536536,1609505547811586,3147724028,-1.0736,0.007808,-0.062464,-10.61375,2.38,12.355001,45.736004,-42.408,-53.344,eccentric,4,5.0,19048.0,25604.0,68832.0,82242.0,19354.0,35367.0,29424.0,47292.0,13962.0,10991.0
2026-05-06 16:01:24.372699,536537,1609505547826058,3147736892,-1.097024,0.064416,-0.07808,-6.6675,2.51125,13.90375,45.064003,-42.440002,-54.000004,eccentric,4,5.0,19048.0,25604.0,68832.0,82242.0,19354.0,35367.0,29424.0,47292.0,13962.0,10991.0
2026-05-06 16:01:24.397613,536538,1609505547835285,3147747659,-1.097024,0.064416,-0.07808,-4.26125,2.30125,15.575,45.064003,-42.440002,-54.000004,eccentric,4,5.0,19048.0,25604.0,68832.0,82242.0,19354.0,35367.0,29424.0,47292.0,13962.0,10991.0
2026-05-06 16:01:24.460153,536549,1609505547844315,3147756583,-1.081408,0.074176,-0.07808,-2.7475,2.73,16.66875,45.064003,-42.440002,-56.432003,eccentric,4,5.0,19190.0,25715.0,68885.0,82628.0,19491.0,35517.0,29489.0,47539.0,14006.0,11045.0
2026-05-06 16:01:24.462623,536550,1609505547858978,3147771542,-1.079456,0.074176,-0.07808,-7.0875,3.40375,17.01875,44.928,-42.688004,-56.432003,eccentric,4,5.0,19190.0,25715.0,68885.0,82628.0,19491.0,35517.0,29489.0,47539.0,14006.0,11045.0
2026-05-06 16:01:24.465163,536551,1609505547867927,3147780262,-1.016992,0.042944,-0.089792,-15.2075,4.01625,17.08,44.168003,-42.760002,-53.944004,eccentric,4,5.0,19190.0,25715.0,68885.0,82628.0,19491.0,35517.0,29489.0,47539.0,14006.0,11045.0
2026-05-06 16:01:24.467727,536552,1609505547882508,3147795159,-1.016992,0.042944,-0.089792,-22.61,4.85625,15.408751,44.168003,-42.760002,-53.944004,eccentric,4,5.0,19190.0,25715.0,68885.0,82628.0,19491.0,35517.0,29489.0,47539.0,14006.0,11045.0
2026-05-06 16:01:24.470146,536553,1609505547891462,3147803879,-1.06384,0.0,-0.150304,-22.9425,4.99625,13.41375,44.144,-42.88,-54.576004,eccentric,4,5.0,19190.0,25715.0,68885.0,82628.0,19491.0,35517.0,29489.0,47539.0,14006.0,11045.0
2026-05-06 16:01:24.472554,536554,1609505547900390,3147812593,-1.06384,0.0,-0.150304,-20.23,5.41625,13.405,44.144,-42.88,-54.576004,eccentric,4,5.0,19190.0,25715.0,68885.0,82628.0,19491.0,35517.0,29489.0,47539.0,14006.0,11045.0
2026-05-06 16:01:24.475114,536555,1609505547914877,3147827509,-1.10288,0.040992,-0.113216,-14.595,3.85875,15.93375,43.36,-43.2,-54.616,eccentric,4,5.0,19190.0,25715.0,68885.0,82628.0,19491.0,35517.0,29489.0,47539.0,14006.0,11045.0
2026-05-06 16:01:24.477610,536556,1609505547924022,3147836498,-1.10288,0.040992,-0.113216,-8.12875,3.15875,21.7875,43.36,-43.2,-54.616,eccentric,4,5.0,19190.0,25715.0,68885.0,82628.0,19491.0,35517.0,29489.0,47539.0,14006.0,11045.0
2026-05-06 16:01:24.505080,536567,1609505547938769,3147851718,-1.06384,0.042944,-0.103456,-6.97375,1.3125,24.5525,42.88,-43.216003,-53.88,eccentric,4,5.0,19219.0,25710.0,68832.0,82924.0,19490.0,35568.0,29477.0,47652.0,14013.0,11049.0
2026-05-06 16:01:24.507246,536568,1609505547947790,3147860428,-1.048224,0.103456,-0.037088,-10.08875,0.6825,24.14125,42.184002,-43.608,-54.168003,eccentric,4,5.0,19219.0,25710.0,68832.0,82924.0,19490.0,35568.0,29477.0,47652.0,14013.0,11049.0
2026-05-06 16:01:24.509971,536569,1609505547956864,3147869224,-1.048224,0.103456,-0.037088,-8.37375,-0.34125,23.1875,42.184002,-43.608,-54.168003,eccentric,4,5.0,19219.0,25710.0,68832.0,82924.0,19490.0,35568.0,29477.0,47652.0,14013.0,11049.0
2026-05-06 16:01:24.512540,536570,1609505547971418,3147882217,-1.028704,0.115168,-0.0488,-7.49,-0.09625,21.48125,41.808002,-44.160004,-54.872,eccentric,4,5.0,19219.0,25710.0,68832.0,82924.0,19490.0,35568.0,29477.0,47652.0,14013.0,11049.0
2026-05-06 16:01:24.515036,536571,1609505547980695,3147893067,-1.028704,0.115168,-0.0488,-5.6875,0.1225,19.2675,41.808002,-44.160004,-54.872,eccentric,4,5.0,19219.0,25710.0,68832.0,82924.0,19490.0,35568.0,29477.0,47652.0,14013.0,11049.0
2026-05-06 16:01:24.517520,536572,1609505547995215,3147905967,-1.057984,0.152256,-0.046848,-2.37125,0.98,17.3775,41.088,-44.480003,-54.600002,eccentric,4,5.0,19219.0,25710.0,68832.0,82924.0,19490.0,35568.0,29477.0,47652.0,14013.0,11049.0
2026-05-06 16:01:24.530076,536573,1609505548004495,3147916788,-1.057984,0.152256,-0.046848,1.3475,0.9275,16.1,41.088,-44.480003,-54.600002,eccentric,4,5.0,19219.0,25710.0,68832.0,82924.0,19490.0,35568.0,29477.0,47652.0,14013.0,11049.0
2026-05-06 16:01:24.536365,536574,1609505548013433,3147925535,-1.067744,0.132736,-0.109312,4.71625,0.7175,14.28875,40.640003,-43.712,-53.440002,eccentric,4,5.0,19219.0,25710.0,68832.0,82924.0,19490.0,35568.0,29477.0,47652.0,14013.0,11049.0
2026-05-06 16:01:24.569950,536575,1609505548027944,3147940453,-1.032608,0.13664,-0.042944,3.3075,0.49875,12.60875,40.304,-45.048,-54.08,eccentric,4,5.0,19219.0,25710.0,68832.0,82924.0,19490.0,35568.0,29477.0,47652.0,14013.0,11049.0
2026-05-06 16:01:24.572602,536576,1609505548036875,3147949143,-1.032608,0.13664,-0.042944,-0.90125,0.35,11.66375,40.304,-45.048,-54.08,eccentric,4,5.0,19219.0,25710.0,68832.0,82924.0,19490.0,35568.0,29477.0,47652.0,14013.0,11049.0
2026-05-06 16:01:24.599965,536587,1609505548051499,3147964138,-1.013088,0.179584,-0.017568,-1.6275,-0.00875,11.54125,40.256,-44.24,-55.352,eccentric,4,5.0,19154.0,25613.0,68709.0,83348.0,19436.0,35525.0,29450.0,47764.0,13997.0,11013.0
2026-05-06 16:01:24.602514,536588,1609505548060474,3147972985,-1.013088,0.179584,-0.017568,-2.5025,-1.19,10.66625,40.256,-44.24,-55.352,eccentric,4,5.0,19154.0,25613.0,68709.0,83348.0,19436.0,35525.0,29450.0,47764.0,13997.0,11013.0
2026-05-06 16:01:24.604856,536589,1609505548075067,3147985862,-0.991616,0.099552,-0.122976,-1.2075,-1.9075,8.65375,39.84,-45.904003,-54.344,eccentric,4,5.0,19154.0,25613.0,68709.0,83348.0,19436.0,35525.0,29450.0,47764.0,13997.0,11013.0
2026-05-06 16:01:24.608770,536590,1609505548084364,3147996715,-0.991616,0.099552,-0.122976,-3.36875,-0.83125,6.92125,39.84,-45.904003,-54.344,eccentric,4,5.0,19154.0,25613.0,68709.0,83348.0,19436.0,35525.0,29450.0,47764.0,13997.0,11013.0
2026-05-06 16:01:24.622490,536591,1609505548093279,3148005441,-1.042368,0.07808,-0.08784,-4.36625,-0.3675,6.3175,39.84,-45.448,-58.04,eccentric,4,5.0,19154.0,25613.0,68709.0,83348.0,19436.0,35525.0,29450.0,47764.0,13997.0,11013.0
2026-05-06 16:01:24.632685,536592,1609505548107884,3148020390,-1.065792,0.15616,0.02928,-1.04125,-0.8575,6.755,39.224003,-47.000004,-51.536003,eccentric,4,5.0,19154.0,25613.0,68709.0,83348.0,19436.0,35525.0,29450.0,47764.0,13997.0,11013.0
2026-05-06 16:01:24.641436,536593,1609505548116970,3148029113,-1.065792,0.15616,0.02928,2.24,-2.61625,7.35,39.224003,-47.000004,-51.536003,eccentric,4,5.0,19154.0,25613.0,68709.0,83348.0,19436.0,35525.0,29450.0,47764.0,13997.0,11013.0
2026-05-06 16:01:24.675179,536594,1609505548131507,3148044017,-0.987712,0.203008,-0.06832,4.69,-4.89125,7.95375,38.736,-44.120003,-55.864002,eccentric,4,5.0,19154.0,25613.0,68709.0,83348.0,19436.0,35525.0,29450.0,47764.0,13997.0,11013.0
2026-05-06 16:01:24.702201,536605,1609505548140431,3148053004,-0.987712,0.203008,-0.06832,7.48125,-5.95875,8.9425,38.736,-44.120003,-55.864002,eccentric,4,5.0,19073.0,25620.0,68710.0,83808.0,19412.0,35533.0,29482.0,47963.0,13970.0,11029.0
2026-05-06 16:01:24.704808,536606,1609505548149527,3148061743,-0.974048,0.134688,-0.10736,5.11875,-6.3,8.4,38.592003,-44.304,-55.632004,eccentric,4,5.0,19073.0,25620.0,68710.0,83808.0,19412.0,35533.0,29482.0,47963.0,13970.0,11029.0
2026-05-06 16:01:24.707249,536607,1609505548164188,3148076777,-0.974048,0.134688,-0.10736,-3.00125,-5.1975,7.32375,38.592003,-44.304,-55.632004,eccentric,4,5.0,19073.0,25620.0,68710.0,83808.0,19412.0,35533.0,29482.0,47963.0,13970.0,11029.0
2026-05-06 16:01:24.709717,536608,1609505548173140,3148085650,-1.030656,0.080032,-0.062464,-6.4225,-5.10125,6.65,38.376003,-46.08,-54.888004,eccentric,4,5.0,19073.0,25620.0,68710.0,83808.0,19412.0,35533.0,29482.0,47963.0,13970.0,11029.0
2026-05-06 16:01:24.712513,536609,1609505548187729,3148098544,-1.030656,0.0976,0.00976,-5.62625,-6.34375,7.90125,38.136,-46.496002,-56.776,eccentric,4,5.0,19073.0,25620.0,68710.0,83808.0,19412.0,35533.0,29482.0,47963.0,13970.0,11029.0
2026-05-06 16:01:24.740051,536610,1609505548197112,3148109350,-1.030656,0.0976,0.00976,-1.5575,-7.245,9.86125,38.136,-46.496002,-56.776,eccentric,4,5.0,19073.0,25620.0,68710.0,83808.0,19412.0,35533.0,29482.0,47963.0,13970.0,11029.0
2026-05-06 16:01:24.765141,536611,1609505548206133,3148118078,-1.030656,0.0976,0.00976,1.86375,-9.12625,11.62875,38.136,-46.496002,-56.776,eccentric,4,5.0,19073.0,25620.0,68710.0,83808.0,19412.0,35533.0,29482.0,47963.0,13970.0,11029.0
2026-05-06 16:01:24.781411,536612,1609505548220638,3148133026,-0.987712,0.181536,0.01952,6.67625,-10.75375,12.1625,37.784,-44.592003,-57.432003,eccentric,4,5.0,19073.0,25620.0,68710.0,83808.0,19412.0,35533.0,29482.0,47963.0,13970.0,11029.0
2026-05-06 16:01:24.781539,536613,1609505548229558,3148141756,-0.90768,0.230336,-0.056608,9.47625,-12.71375,11.90875,37.280003,-44.576,-56.064003,eccentric,4,5.0,19073.0,25620.0,68710.0,83808.0,19412.0,35533.0,29482.0,47963.0,13970.0,11029.0
2026-05-06 16:01:24.808816,536624,1609505548244686,3148156754,-0.90768,0.230336,-0.056608,8.9775,-12.43375,11.22625,37.280003,-44.576,-56.064003,eccentric,4,5.0,18970.0,25529.0,68779.0,84032.0,19324.0,35515.0,29524.0,48058.0,13921.0,11033.0
2026-05-06 16:01:24.811345,536625,1609505548253718,3148165521,-0.989664,0.12688,-0.109312,1.61875,-9.58125,6.4925,37.672,-44.912003,-55.4,eccentric,4,5.0,18970.0,25529.0,68779.0,84032.0,19324.0,35515.0,29524.0,48058.0,13921.0,11033.0
2026-05-06 16:01:24.813847,536626,1609505548262794,3148174218,-0.989664,0.12688,-0.109312,-5.32875,-7.14875,0.56,37.672,-44.912003,-55.4,eccentric,4,5.0,18970.0,25529.0,68779.0,84032.0,19324.0,35515.0,29524.0,48058.0,13921.0,11033.0
2026-05-06 16:01:24.816385,536627,1609505548277423,3148189151,-1.036512,0.08784,0.01952,-2.21375,-7.46375,-0.98875,36.768,-47.712,-53.272003,eccentric,4,5.0,18970.0,25529.0,68779.0,84032.0,19324.0,35515.0,29524.0,48058.0,13921.0,11033.0
2026-05-06 16:01:24.818781,536628,1609505548286409,3148197907,-1.036512,0.08784,0.01952,3.4825,-8.925,1.155,36.768,-47.712,-53.272003,eccentric,4,5.0,18970.0,25529.0,68779.0,84032.0,19324.0,35515.0,29524.0,48058.0,13921.0,11033.0
2026-05-06 16:01:24.825176,536629,1609505548300924,3148212848,-0.935008,0.160064,0.052704,8.32125,-10.68375,4.83875,36.84,-47.728,-54.408,eccentric,4,5.0,18970.0,25529.0,68779.0,84032.0,19324.0,35515.0,29524.0,48058.0,13921.0,11033.0
2026-05-06 16:01:24.833906,536630,1609505548309865,3148221619,-0.960384,0.179584,-0.035136,10.465,-11.41875,5.34625,36.592003,-44.72,-55.936,eccentric,4,5.0,18970.0,25529.0,68779.0,84032.0,19324.0,35515.0,29524.0,48058.0,13921.0,11033.0
2026-05-06 16:01:24.849986,536631,1609505548324383,3148236564,-0.960384,0.179584,-0.035136,6.4225,-10.57875,2.4325,36.592003,-44.72,-55.936,eccentric,4,5.0,18970.0,25529.0,68779.0,84032.0,19324.0,35515.0,29524.0,48058.0,13921.0,11033.0
2026-05-06 16:01:24.856359,536632,1609505548333304,3148245356,-0.989664,0.128832,-0.076128,0.105,-9.730001,-0.2975,36.488003,-44.808002,-56.064003,eccentric,4,5.0,18970.0,25529.0,68779.0,84032.0,19324.0,35515.0,29524.0,48058.0,13921.0,11033.0
2026-05-06 16:01:24.910092,536643,1609505548342221,3148254202,-0.989664,0.128832,-0.076128,-4.7425,-9.56375,0.41125,36.488003,-44.808002,-56.064003,eccentric,4,5.0,18845.0,25457.0,68754.0,84097.0,19246.0,35442.0,29511.0,48140.0,13869.0,10982.0
2026-05-06 16:01:24.912446,536644,1609505548356747,3148269113,-0.954528,0.12688,-0.003904,-8.65375,-9.66875,1.19875,36.208,-45.024002,-55.568,eccentric,4,5.0,18845.0,25457.0,68754.0,84097.0,19246.0,35442.0,29511.0,48140.0,13869.0,10982.0
2026-05-06 16:01:24.915006,536645,1609505548365657,3148277838,-0.954528,0.12688,-0.003904,-8.0675,-10.2025,0.90125,36.208,-45.024002,-55.568,eccentric,4,5.0,18845.0,25457.0,68754.0,84097.0,19246.0,35442.0,29511.0,48140.0,13869.0,10982.0
2026-05-06 16:01:24.917474,536646,1609505548380219,3148292799,-0.942816,0.144448,0.003904,-4.27,-10.64875,0.84,36.192,-46.488003,-54.56,eccentric,4,5.0,18845.0,25457.0,68754.0,84097.0,19246.0,35442.0,29511.0,48140.0,13869.0,10982.0
2026-05-06 16:01:24.919793,536647,1609505548389250,3148301529,-1.038464,0.144448,-0.05856,-2.93125,-9.905,-0.44625,36.24,-46.552002,-53.808002,eccentric,4,5.0,18845.0,25457.0,68754.0,84097.0,19246.0,35442.0,29511.0,48140.0,13869.0,10982.0
2026-05-06 16:01:24.928446,536648,1609505548403798,3148316489,-1.038464,0.144448,-0.05856,-3.0275,-9.28375,-1.70625,36.24,-46.552002,-53.808002,eccentric,4,5.0,18845.0,25457.0,68754.0,84097.0,19246.0,35442.0,29511.0,48140.0,13869.0,10982.0
2026-05-06 16:01:24.937545,536649,1609505548412754,3148325203,-0.989664,0.154208,-0.06832,-2.17,-9.7125,-2.93125,36.072002,-45.312,-55.712,eccentric,4,5.0,18845.0,25457.0,68754.0,84097.0,19246.0,35442.0,29511.0,48140.0,13869.0,10982.0
2026-05-06 16:01:24.947513,536650,1609505548421784,3148333914,-0.989664,0.154208,-0.06832,-1.30375,-10.21125,-1.53125,36.072002,-45.312,-55.712,eccentric,4,5.0,18845.0,25457.0,68754.0,84097.0,19246.0,35442.0,29511.0,48140.0,13869.0,10982.0
2026-05-06 16:01:24.962845,536651,1609505548436409,3148348861,-0.90768,0.150304,-0.021472,1.70625,-10.8325,-1.015,35.952003,-44.512,-54.384003,eccentric,4,5.0,18845.0,25457.0,68754.0,84097.0,19246.0,35442.0,29511.0,48140.0,13869.0,10982.0
2026-05-06 16:01:24.992263,536662,1609505548445866,3148357704,-0.90768,0.150304,-0.021472,2.0825,-10.395,-2.96625,35.952003,-44.512,-54.384003,eccentric,4,5.0,18846.0,25472.0,68767.0,84340.0,19265.0,35507.0,29568.0,48306.0,13879.0,11006.0
2026-05-06 16:01:24.994790,536663,1609505548460558,3148372686,-0.993568,0.148352,-0.027328,1.6275,-10.15,-6.09875,35.672,-46.648003,-53.952003,eccentric,4,5.0,18846.0,25472.0,68767.0,84340.0,19265.0,35507.0,29568.0,48306.0,13879.0,11006.0
2026-05-06 16:01:24.997505,536664,1609505548469660,3148381507,-1.042368,0.16592,-0.044896,1.715,-10.21125,-8.42625,36.0,-47.816,-51.056004,eccentric,4,5.0,18846.0,25472.0,68767.0,84340.0,19265.0,35507.0,29568.0,48306.0,13879.0,11006.0
2026-05-06 16:01:25.003792,536665,1609505548478707,3148390256,-1.042368,0.16592,-0.044896,2.47625,-10.07125,-7.35,36.0,-47.816,-51.056004,eccentric,4,5.0,18846.0,25472.0,68767.0,84340.0,19265.0,35507.0,29568.0,48306.0,13879.0,11006.0
2026-05-06 16:01:25.020110,536666,1609505548493228,3148405153,-1.001376,0.169824,-0.017568,2.52,-10.21125,-6.0725,35.968002,-44.336002,-55.448,eccentric,4,5.0,18846.0,25472.0,68767.0,84340.0,19265.0,35507.0,29568.0,48306.0,13879.0,11006.0
2026-05-06 16:01:25.026375,536667,1609505548502173,3148413953,-1.001376,0.169824,-0.017568,1.26,-9.24,-7.23625,35.968002,-44.336002,-55.448,eccentric,4,5.0,18846.0,25472.0,68767.0,84340.0,19265.0,35507.0,29568.0,48306.0,13879.0,11006.0
2026-05-06 16:01:25.048937,536668,1609505548516659,3148428896,-1.04432,0.1464,-0.046848,2.1,-8.33,-9.38875,36.328003,-44.688004,-55.416004,eccentric,4,5.0,18846.0,25472.0,68767.0,84340.0,19265.0,35507.0,29568.0,48306.0,13879.0,11006.0
2026-05-06 16:01:25.051431,536669,1609505548525571,3148437617,-1.04432,0.1464,-0.046848,6.8775,-7.805,-11.08625,36.328003,-44.688004,-55.416004,eccentric,4,5.0,18846.0,25472.0,68767.0,84340.0,19265.0,35507.0,29568.0,48306.0,13879.0,11006.0
2026-05-06 16:01:25.060049,536670,1609505548534636,3148446374,-1.040416,0.122976,-0.095648,10.10625,-7.86625,-10.24625,36.208,-44.464,-55.576004,eccentric,4,5.0,18846.0,25472.0,68767.0,84340.0,19265.0,35507.0,29568.0,48306.0,13879.0,11006.0
2026-05-06 16:01:25.143763,536681,1609505548549671,3148461719,-1.095072,0.148352,-0.046848,11.2,-7.35875,-9.4675,36.208,-46.512,-54.664,eccentric,4,5.0,18832.0,25476.0,68830.0,84483.0,19265.0,35506.0,29556.0,48354.0,13867.0,11000.0
2026-05-06 16:01:25.146283,536682,1609505548558880,3148470538,-1.095072,0.148352,-0.046848,11.62,-6.9125,-11.12125,36.128002,-46.488003,-54.664,eccentric,4,5.0,18832.0,25476.0,68830.0,84483.0,19265.0,35506.0,29556.0,48354.0,13867.0,11000.0
2026-05-06 16:01:25.148709,536683,1609505548573429,3148485617,-1.081408,0.158112,-0.007808,12.11,-6.615,-11.36625,36.456,-44.08,-55.640003,eccentric,4,5.0,18832.0,25476.0,68830.0,84483.0,19265.0,35506.0,29556.0,48354.0,13867.0,11000.0
2026-05-06 16:01:25.156981,536684,1609505548582351,3148494314,-1.081408,0.158112,-0.007808,12.32875,-6.30875,-9.065,36.456,-44.08,-55.640003,eccentric,4,5.0,18832.0,25476.0,68830.0,84483.0,19265.0,35506.0,29556.0,48354.0,13867.0,11000.0
2026-05-06 16:01:25.157127,536685,1609505548591320,3148503017,-1.036512,0.150304,-0.031232,10.185,-5.85375,-7.88375,36.264,-46.072002,-54.752003,eccentric,4,5.0,18832.0,25476.0,68830.0,84483.0,19265.0,35506.0,29556.0,48354.0,13867.0,11000.0
2026-05-06 16:01:25.159208,536686,1609505548605813,3148518029,-1.036512,0.150304,-0.031232,11.55875,-4.61125,-8.12875,36.264,-46.072002,-54.752003,eccentric,4,5.0,18832.0,25476.0,68830.0,84483.0,19265.0,35506.0,29556.0,48354.0,13867.0,11000.0
2026-05-06 16:01:25.161016,536687,1609505548614740,3148526739,-1.09312,0.154208,-0.054656,13.6325,-3.8325,-8.995,36.656002,-44.440002,-55.856003,eccentric,4,5.0,18832.0,25476.0,68830.0,84483.0,19265.0,35506.0,29556.0,48354.0,13867.0,11000.0
2026-05-06 16:01:25.163738,536688,1609505548629272,3148541664,-1.09312,0.154208,-0.054656,12.8625,-3.5,-9.695,36.656002,-44.440002,-55.856003,eccentric,4,5.0,18832.0,25476.0,68830.0,84483.0,19265.0,35506.0,29556.0,48354.0,13867.0,11000.0
2026-05-06 16:01:25.166257,536689,1609505548638252,3148550423,-1.098976,0.119072,-0.099552,10.87625,-4.27,-9.485,36.432003,-47.52,-53.328003,eccentric,4,5.0,18832.0,25476.0,68830.0,84483.0,19265.0,35506.0,29556.0,48354.0,13867.0,11000.0
2026-05-06 16:01:25.193787,536700,1609505548652981,3148565426,-1.059936,0.095648,-0.044896,10.96375,-5.39875,-7.6125,36.800003,-46.384003,-55.176003,eccentric,4,5.0,18776.0,25406.0,68737.0,84338.0,19203.0,35395.0,29474.0,48257.0,13842.0,10951.0
2026-05-06 16:01:25.196404,536701,1609505548662050,3148574233,-1.059936,0.095648,-0.044896,12.5825,-5.81875,-6.02,36.800003,-46.384003,-55.176003,eccentric,4,5.0,18776.0,25406.0,68737.0,84338.0,19203.0,35395.0,29474.0,48257.0,13842.0,10951.0
2026-05-06 16:01:25.198939,536702,1609505548670988,3148582971,-1.075552,0.130784,0.017568,15.77625,-5.6175,-5.3025,36.456,-46.008003,-53.960003,eccentric,4,5.0,18776.0,25406.0,68737.0,84338.0,19203.0,35395.0,29474.0,48257.0,13842.0,10951.0
2026-05-06 16:01:25.212674,536703,1609505548685631,3148597904,-1.075552,0.130784,0.017568,18.13875,-4.795,-5.0925,36.456,-46.008003,-53.960003,eccentric,4,5.0,18776.0,25406.0,68737.0,84338.0,19203.0,35395.0,29474.0,48257.0,13842.0,10951.0
2026-05-06 16:01:25.218913,536704,1609505548694570,3148606589,-1.08336,0.169824,-0.02928,18.50625,-4.34,-4.97,36.816,-45.064003,-55.928,eccentric,4,5.0,18776.0,25406.0,68737.0,84338.0,19203.0,35395.0,29474.0,48257.0,13842.0,10951.0
2026-05-06 16:01:25.252432,536705,1609505548709083,3148621597,-1.08336,0.169824,-0.02928,16.84375,-3.45625,-5.4075,36.816,-45.064003,-55.928,eccentric,4,5.0,18776.0,25406.0,68737.0,84338.0,19203.0,35395.0,29474.0,48257.0,13842.0,10951.0
2026-05-06 16:01:25.254922,536706,1609505548718056,3148630308,-1.03456,0.134688,-0.02928,14.65625,-2.9575,-5.81875,36.488003,-45.376003,-54.520004,eccentric,4,5.0,18776.0,25406.0,68737.0,84338.0,19203.0,35395.0,29474.0,48257.0,13842.0,10951.0
2026-05-06 16:01:25.259948,536707,1609505548726977,3148639042,-1.03456,0.134688,-0.02928,12.97625,-2.56375,-6.41375,36.488003,-45.376003,-54.520004,eccentric,4,5.0,18776.0,25406.0,68737.0,84338.0,19203.0,35395.0,29474.0,48257.0,13842.0,10951.0
2026-05-06 16:01:25.266016,536708,1609505548741520,3148653987,-1.065792,0.122976,-0.00976,11.6025,-1.7325,-7.175,37.064003,-44.992,-57.032,eccentric,4,5.0,18776.0,25406.0,68737.0,84338.0,19203.0,35395.0,29474.0,48257.0,13842.0,10951.0
2026-05-06 16:01:25.293838,536719,1609505548750627,3148662817,-1.065792,0.122976,-0.025376,10.92,-1.6975,-7.56,37.064003,-44.992,-57.032,eccentric,4,5.0,18727.0,25329.0,68638.0,84193.0,19159.0,35331.0,29476.0,48204.0,13804.0,10951.0
2026-05-06 16:01:25.296355,536720,1609505548765484,3148677986,-1.079456,0.124928,-0.031232,10.167501,-1.3475,-6.9125,36.72,-44.440002,-56.856003,eccentric,4,5.0,18727.0,25329.0,68638.0,84193.0,19159.0,35331.0,29476.0,48204.0,13804.0,10951.0
2026-05-06 16:01:25.298844,536721,1609505548774436,3148686706,-1.067744,0.128832,-0.0488,10.605001,-1.04125,-6.57125,36.688004,-43.784,-57.480003,eccentric,4,5.0,18727.0,25329.0,68638.0,84193.0,19159.0,35331.0,29476.0,48204.0,13804.0,10951.0
2026-05-06 16:01:25.307632,536722,1609505548783418,3148695444,-1.067744,0.128832,-0.0488,10.36,-0.8575,-8.25125,36.688004,-43.784,-57.480003,eccentric,4,5.0,18727.0,25329.0,68638.0,84193.0,19159.0,35331.0,29476.0,48204.0,13804.0,10951.0
2026-05-06 16:01:25.321387,536723,1609505548797945,3148710397,-1.059936,0.134688,-0.046848,9.42375,-0.7875,-9.19625,37.04,-47.056004,-55.176003,eccentric,4,5.0,18727.0,25329.0,68638.0,84193.0,19159.0,35331.0,29476.0,48204.0,13804.0,10951.0
2026-05-06 16:01:25.335151,536724,1609505548806937,3148719114,-1.059936,0.134688,-0.046848,8.77625,-0.98875,-9.0825,37.04,-47.056004,-55.176003,eccentric,4,5.0,18727.0,25329.0,68638.0,84193.0,19159.0,35331.0,29476.0,48204.0,13804.0,10951.0
2026-05-06 16:01:25.348653,536725,1609505548821432,3148734020,-1.0736,0.124928,-0.025376,6.7375,0.0175,-10.14125,38.024002,-44.656002,-57.896004,eccentric,4,5.0,18727.0,25329.0,68638.0,84193.0,19159.0,35331.0,29476.0,48204.0,13804.0,10951.0
2026-05-06 16:01:25.354897,536726,1609505548830380,3148742769,-1.0736,0.124928,-0.025376,5.95,0.02625,-11.40125,38.024002,-44.656002,-57.896004,eccentric,4,5.0,18727.0,25329.0,68638.0,84193.0,19159.0,35331.0,29476.0,48204.0,13804.0,10951.0
