pc_time,serial_num,sensor_ts,host_ts,ax,ay,az,gx,gy,gz,mx,my,mz,phase,rpe,weight_kg,ppg_a,ppg_b,ppg_c,ppg_d,ppg_e,ppg_f,ppg_g,ppg_h,ppg_i,ppg_j
2026-05-06 15:57:44.088854,495088,1609505327523605,2927436282,-1.09312,0.0976,0.070272,-4.40125,8.28625,9.5725,24.288002,-50.88,-68.90401,concentric,4,5.0,23282.0,27326.0,59552.0,76261.0,21034.0,34363.0,23771.0,43492.0,14606.0,10434.0
2026-05-06 15:57:44.091266,495089,1609505327532645,2927445030,-1.06384,0.13664,0.115168,-7.14,7.91,8.91625,24.328001,-51.216003,-69.75201,concentric,4,5.0,23282.0,27326.0,59552.0,76261.0,21034.0,34363.0,23771.0,43492.0,14606.0,10434.0
2026-05-06 15:57:44.093810,495090,1609505327547187,2927457993,-1.06384,0.13664,0.115168,-12.32,8.225,9.38,24.328001,-51.216003,-69.75201,concentric,4,5.0,23282.0,27326.0,59552.0,76261.0,21034.0,34363.0,23771.0,43492.0,14606.0,10434.0
2026-05-06 15:57:44.096390,495091,1609505327556562,2927468805,-1.067744,0.142496,0.0976,-17.36,8.79375,9.2225,24.024002,-51.128002,-68.840004,concentric,4,5.0,23282.0,27326.0,59552.0,76261.0,21034.0,34363.0,23771.0,43492.0,14606.0,10434.0
2026-05-06 15:57:44.098850,495092,1609505327571117,2927483850,-1.085312,0.128832,0.13664,-22.14625,7.9275,7.77875,24.032001,-51.336002,-69.232,concentric,4,5.0,23282.0,27326.0,59552.0,76261.0,21034.0,34363.0,23771.0,43492.0,14606.0,10434.0
2026-05-06 15:57:44.101400,495093,1609505327580061,2927492569,-1.085312,0.128832,0.13664,-26.678751,7.63,6.965,24.032001,-51.336002,-69.232,concentric,4,5.0,23282.0,27326.0,59552.0,76261.0,21034.0,34363.0,23771.0,43492.0,14606.0,10434.0
2026-05-06 15:57:44.105166,495094,1609505327589019,2927501311,-1.10288,0.148352,0.150304,-28.7,6.9125,6.04625,23.688002,-53.2,-66.824005,concentric,4,5.0,23282.0,27326.0,59552.0,76261.0,21034.0,34363.0,23771.0,43492.0,14606.0,10434.0
2026-05-06 15:57:44.117715,495095,1609505327603566,2927514389,-1.10288,0.148352,0.150304,-29.26875,6.86,5.01375,23.688002,-53.2,-66.824005,concentric,4,5.0,23282.0,27326.0,59552.0,76261.0,21034.0,34363.0,23771.0,43492.0,14606.0,10434.0
2026-05-06 15:57:44.131395,495096,1609505327613327,2927525205,-1.081408,0.199104,0.064416,-31.24625,6.8075,5.2325,23.288002,-51.568,-68.376,concentric,4,5.0,23282.0,27326.0,59552.0,76261.0,21034.0,34363.0,23771.0,43492.0,14606.0,10434.0
2026-05-06 15:57:44.158682,495107,1609505327622967,2927534038,-1.081408,0.199104,0.064416,-34.81625,6.29125,4.935,23.288002,-51.568,-68.376,concentric,4,5.0,23190.0,27192.0,59206.0,76701.0,21019.0,34318.0,23648.0,43782.0,14570.0,10370.0
2026-05-06 15:57:44.161413,495108,1609505327638100,2927549045,-1.042368,0.210816,0.070272,-39.82125,4.96125,5.20625,23.12,-53.576004,-65.64,concentric,4,5.0,23190.0,27192.0,59206.0,76701.0,21019.0,34318.0,23648.0,43782.0,14570.0,10370.0
2026-05-06 15:57:44.163820,495109,1609505327647503,2927559913,-1.042368,0.210816,0.070272,-48.25625,4.50625,2.9225,23.12,-53.576004,-65.64,concentric,4,5.0,23190.0,27192.0,59206.0,76701.0,21019.0,34318.0,23648.0,43782.0,14570.0,10370.0
2026-05-06 15:57:44.172607,495110,1609505327656529,2927568674,-1.09312,0.158112,0.033184,-43.96,3.47375,-1.40875,23.432001,-55.08,-66.376,concentric,4,5.0,23190.0,27192.0,59206.0,76701.0,21019.0,34318.0,23648.0,43782.0,14570.0,10370.0
2026-05-06 15:57:44.196309,495111,1609505327671051,2927583593,-1.077504,0.144448,0.05856,-38.61375,1.8025,-6.825,23.216002,-51.960003,-66.688,concentric,4,5.0,23190.0,27192.0,59206.0,76701.0,21019.0,34318.0,23648.0,43782.0,14570.0,10370.0
2026-05-06 15:57:44.198640,495112,1609505327679978,2927592326,-1.077504,0.144448,0.05856,-39.97,-0.56875,-7.65625,23.216002,-51.960003,-66.688,concentric,4,5.0,23190.0,27192.0,59206.0,76701.0,21019.0,34318.0,23648.0,43782.0,14570.0,10370.0
2026-05-06 15:57:44.212554,495113,1609505327694539,2927607272,-1.030656,0.148352,0.066368,-38.80625,1.9425,-5.565,23.264002,-53.808002,-65.064,concentric,4,5.0,23190.0,27192.0,59206.0,76701.0,21019.0,34318.0,23648.0,43782.0,14570.0,10370.0
2026-05-06 15:57:44.237676,495114,1609505327703459,2927616098,-1.030656,0.148352,0.066368,-45.28125,1.81125,-9.1175,23.264002,-53.808002,-65.064,concentric,4,5.0,23190.0,27192.0,59206.0,76701.0,21019.0,34318.0,23648.0,43782.0,14570.0,10370.0
2026-05-06 15:57:44.262623,495115,1609505327717995,2927628938,-1.095072,0.144448,0.046848,-46.725,5.0925,-10.68375,23.968,-51.928,-65.408005,concentric,4,5.0,23190.0,27192.0,59206.0,76701.0,21019.0,34318.0,23648.0,43782.0,14570.0,10370.0
2026-05-06 15:57:44.298748,495126,1609505327727391,2927639861,-1.095072,0.144448,0.046848,-50.18125,6.825,-14.21,23.968,-51.928,-65.408005,concentric,4,5.0,23439.0,27104.0,58631.0,77634.0,21347.0,34340.0,23357.0,44342.0,14717.0,10316.0
2026-05-06 15:57:44.301214,495127,1609505327736310,2927648712,-1.139968,0.066368,0.00976,-49.93625,6.8425,-16.37125,24.04,-53.192,-65.352005,concentric,4,5.0,23439.0,27104.0,58631.0,77634.0,21347.0,34340.0,23357.0,44342.0,14717.0,10316.0
2026-05-06 15:57:44.303722,495128,1609505327750814,2927661571,-1.138016,-0.027328,0.037088,-44.835,5.67,-17.89375,24.296001,-51.752003,-64.464005,concentric,4,5.0,23439.0,27104.0,58631.0,77634.0,21347.0,34340.0,23357.0,44342.0,14717.0,10316.0
2026-05-06 15:57:44.306009,495129,1609505327760007,2927672437,-1.138016,-0.027328,0.037088,-35.4375,4.5325,-17.54375,24.296001,-51.752003,-64.464005,concentric,4,5.0,23439.0,27104.0,58631.0,77634.0,21347.0,34340.0,23357.0,44342.0,14717.0,10316.0
2026-05-06 15:57:44.308483,495130,1609505327774538,2927685358,-1.128256,0.089792,0.132736,-22.61875,4.795,-12.9675,24.184002,-53.424004,-64.256004,concentric,4,5.0,23439.0,27104.0,58631.0,77634.0,21347.0,34340.0,23357.0,44342.0,14717.0,10316.0
2026-05-06 15:57:44.311227,495131,1609505327783900,2927696260,-1.128256,0.089792,0.132736,-18.26125,7.7525,-5.3375,24.184002,-53.424004,-64.256004,concentric,4,5.0,23439.0,27104.0,58631.0,77634.0,21347.0,34340.0,23357.0,44342.0,14717.0,10316.0
2026-05-06 15:57:44.316340,495132,1609505327792863,2927705081,-1.196576,0.247904,0.080032,-20.09875,12.18,0.02625,24.272001,-51.768,-64.632,concentric,4,5.0,23439.0,27104.0,58631.0,77634.0,21347.0,34340.0,23357.0,44342.0,14717.0,10316.0
2026-05-06 15:57:44.327690,495133,1609505327807561,2927719987,-1.196576,0.247904,0.080032,-23.23125,15.1025,-2.61625,24.272001,-51.768,-64.632,concentric,4,5.0,23439.0,27104.0,58631.0,77634.0,21347.0,34340.0,23357.0,44342.0,14717.0,10316.0
2026-05-06 15:57:44.331432,495134,1609505327816582,2927728787,-1.204384,0.193248,0.111264,-38.115,13.8075,-10.6225,24.76,-51.832,-63.448,concentric,4,5.0,23439.0,27104.0,58631.0,77634.0,21347.0,34340.0,23357.0,44342.0,14717.0,10316.0
2026-05-06 15:57:44.358809,495145,1609505327831300,2927742090,-1.143872,-0.052704,-0.050752,-50.8375,13.29125,-15.67125,24.920002,-51.488003,-62.584003,concentric,4,5.0,24230.0,26968.0,57523.0,79038.0,22054.0,34212.0,22824.0,45093.0,15117.0,10225.0
2026-05-06 15:57:44.363825,495146,1609505327840588,2927752906,-1.143872,-0.052704,-0.050752,-48.99125,13.22125,-15.2075,24.920002,-51.488003,-62.584003,concentric,4,5.0,24230.0,26968.0,57523.0,79038.0,22054.0,34212.0,22824.0,45093.0,15117.0,10225.0
2026-05-06 15:57:44.366369,495147,1609505327849542,2927761629,-1.143872,-0.052704,-0.050752,-43.26875,13.02,-12.67875,24.920002,-51.488003,-62.584003,concentric,4,5.0,24230.0,26968.0,57523.0,79038.0,22054.0,34212.0,22824.0,45093.0,15117.0,10225.0
2026-05-06 15:57:44.380198,495148,1609505327864047,2927776798,-1.206336,-0.060512,-0.015616,-22.995,15.636251,-3.71,25.080002,-51.456,-63.480003,concentric,4,5.0,24230.0,26968.0,57523.0,79038.0,22054.0,34212.0,22824.0,45093.0,15117.0,10225.0
2026-05-06 15:57:44.393929,495149,1609505327872919,2927785507,-1.257088,0.105408,0.130784,3.815,18.61125,8.636251,24.776001,-51.352,-63.896004,concentric,4,5.0,24230.0,26968.0,57523.0,79038.0,22054.0,34212.0,22824.0,45093.0,15117.0,10225.0
2026-05-06 15:57:44.402676,495150,1609505327887591,2927798425,-1.257088,0.105408,0.130784,11.165,17.43875,12.4775,24.776001,-51.352,-63.896004,concentric,4,5.0,24230.0,26968.0,57523.0,79038.0,22054.0,34212.0,22824.0,45093.0,15117.0,10225.0
2026-05-06 15:57:44.412669,495151,1609505327896981,2927809196,-1.1224,0.35136,0.177632,4.40125,17.8675,8.2775,24.696001,-51.640003,-63.944004,concentric,4,5.0,24230.0,26968.0,57523.0,79038.0,22054.0,34212.0,22824.0,45093.0,15117.0,10225.0
2026-05-06 15:57:44.421469,495152,1609505327905962,2927817993,-1.1224,0.35136,0.177632,1.6275,21.16625,5.06625,24.696001,-51.640003,-63.944004,concentric,4,5.0,24230.0,26968.0,57523.0,79038.0,22054.0,34212.0,22824.0,45093.0,15117.0,10225.0
2026-05-06 15:57:44.468832,495163,1609505327920481,2927832941,-1.212192,0.31232,-0.005856,-9.87,23.9575,-1.46125,24.872002,-52.904003,-63.968002,concentric,4,5.0,24246.0,26927.0,56762.0,79575.0,22079.0,34128.0,22470.0,45321.0,15177.0,10228.0
2026-05-06 15:57:44.471454,495164,1609505327929985,2927841668,-1.212192,0.31232,-0.005856,-25.515,22.32125,-8.8725,24.872002,-52.904003,-63.968002,concentric,4,5.0,24246.0,26927.0,56762.0,79575.0,22079.0,34128.0,22470.0,45321.0,15177.0,10228.0
2026-05-06 15:57:44.473824,495165,1609505327944627,2927856721,-1.235616,0.08784,0.011712,-36.91625,19.897501,-11.82125,25.088001,-52.824,-62.680004,concentric,4,5.0,24246.0,26927.0,56762.0,79575.0,22079.0,34128.0,22470.0,45321.0,15177.0,10228.0
2026-05-06 15:57:44.476428,495166,1609505327953723,2927865451,-1.153632,0.031232,0.050752,-40.7575,16.37125,-10.9725,25.36,-53.000004,-62.192,concentric,4,5.0,24246.0,26927.0,56762.0,79575.0,22079.0,34128.0,22470.0,45321.0,15177.0,10228.0
2026-05-06 15:57:44.478917,495167,1609505327962672,2927874184,-1.153632,0.031232,0.050752,-31.92,17.57875,-8.53125,25.36,-53.000004,-62.192,concentric,4,5.0,24246.0,26927.0,56762.0,79575.0,22079.0,34128.0,22470.0,45321.0,15177.0,10228.0
2026-05-06 15:57:44.492502,495168,1609505327977191,2927889107,-1.153632,0.245952,0.08784,-13.95625,22.05,-4.515,25.272001,-53.832,-61.744003,concentric,4,5.0,24246.0,26927.0,56762.0,79575.0,22079.0,34128.0,22470.0,45321.0,15177.0,10228.0
2026-05-06 15:57:44.501350,495169,1609505327986139,2927897802,-1.153632,0.245952,0.08784,-2.975,25.366251,-3.29875,25.272001,-53.832,-61.744003,concentric,4,5.0,24246.0,26927.0,56762.0,79575.0,22079.0,34128.0,22470.0,45321.0,15177.0,10228.0
2026-05-06 15:57:44.515132,495170,1609505328000659,2927912790,-1.216096,0.3416,0.005856,2.975,25.4975,-5.66125,25.616001,-52.176003,-64.48,concentric,4,5.0,24246.0,26927.0,56762.0,79575.0,22079.0,34128.0,22470.0,45321.0,15177.0,10228.0
2026-05-06 15:57:44.531304,495171,1609505328009644,2927921529,-1.216096,0.3416,0.005856,-4.99625,23.275,-10.50875,25.616001,-52.176003,-64.48,concentric,4,5.0,24246.0,26927.0,56762.0,79575.0,22079.0,34128.0,22470.0,45321.0,15177.0,10228.0
2026-05-06 15:57:44.533776,495172,1609505328018559,2927930260,-1.108736,0.208864,-0.011712,-16.6775,17.115,-14.4025,25.816002,-50.904003,-63.944004,concentric,4,5.0,24246.0,26927.0,56762.0,79575.0,22079.0,34128.0,22470.0,45321.0,15177.0,10228.0
2026-05-06 15:57:44.566481,495183,1609505328033266,2927945463,-1.089216,0.167872,-0.011712,-23.19625,13.92125,-17.22,26.28,-52.112003,-62.976,concentric,4,5.0,24721.0,27280.0,56360.0,80279.0,22599.0,34456.0,22305.0,45685.0,15520.0,10403.0
2026-05-06 15:57:44.568838,495184,1609505328042253,2927954137,-1.089216,0.167872,-0.011712,-21.18375,12.11,-18.87375,26.28,-52.112003,-62.976,concentric,4,5.0,24721.0,27280.0,56360.0,80279.0,22599.0,34456.0,22305.0,45685.0,15520.0,10403.0
2026-05-06 15:57:44.572546,495185,1609505328056898,2927969084,-1.179008,0.284992,-0.027328,-7.14875,13.79875,-16.695,26.464,-51.448,-63.376003,concentric,4,5.0,24721.0,27280.0,56360.0,80279.0,22599.0,34456.0,22305.0,45685.0,15520.0,10403.0
2026-05-06 15:57:44.581172,495186,1609505328065920,2927977787,-1.179008,0.284992,-0.027328,4.22625,16.03,-14.2275,26.464,-51.448,-63.376003,concentric,4,5.0,24721.0,27280.0,56360.0,80279.0,22599.0,34456.0,22305.0,45685.0,15520.0,10403.0
2026-05-06 15:57:44.606443,495187,1609505328080424,2927992864,-1.20048,0.300608,0.066368,5.29375,16.2575,-15.1025,27.080002,-49.704002,-64.776,concentric,4,5.0,24721.0,27280.0,56360.0,80279.0,22599.0,34456.0,22305.0,45685.0,15520.0,10403.0
2026-05-06 15:57:44.631451,495188,1609505328089394,2928001599,-1.20048,0.300608,0.066368,-2.905,14.2275,-18.5675,27.080002,-49.704002,-64.776,concentric,4,5.0,24721.0,27280.0,56360.0,80279.0,22599.0,34456.0,22305.0,45685.0,15520.0,10403.0
2026-05-06 15:57:44.647518,495189,1609505328098428,2928010311,-1.116544,0.267424,-0.011712,-10.4125,12.67875,-19.565,27.312002,-49.496002,-64.560005,concentric,4,5.0,24721.0,27280.0,56360.0,80279.0,22599.0,34456.0,22305.0,45685.0,15520.0,10403.0
2026-05-06 15:57:44.650048,495190,1609505328112932,2928025215,-1.188768,0.288896,-0.046848,-12.88,12.10125,-20.335001,27.528002,-49.016003,-64.976006,concentric,4,5.0,24721.0,27280.0,56360.0,80279.0,22599.0,34456.0,22305.0,45685.0,15520.0,10403.0
2026-05-06 15:57:44.679856,495201,1609505328121965,2928034027,-1.188768,0.288896,-0.046848,-7.04375,11.66375,-21.30625,27.528002,-49.016003,-64.976006,concentric,4,5.0,24897.0,27657.0,56335.0,80589.0,22856.0,34865.0,22331.0,45828.0,15688.0,10583.0
2026-05-06 15:57:44.682374,495202,1609505328137049,2928049039,-1.28832,0.279136,-0.060512,4.10375,13.440001,-18.7775,27.864002,-49.160004,-65.344,concentric,4,5.0,24897.0,27657.0,56335.0,80589.0,22856.0,34865.0,22331.0,45828.0,15688.0,10583.0
2026-05-06 15:57:44.684838,495203,1609505328146239,2928057841,-1.28832,0.279136,-0.060512,10.29,13.57125,-14.56,27.864002,-49.160004,-65.344,concentric,4,5.0,24897.0,27657.0,56335.0,80589.0,22856.0,34865.0,22331.0,45828.0,15688.0,10583.0
2026-05-06 15:57:44.691117,495204,1609505328155280,2928066575,-1.19072,0.18544,0.027328,4.20875,10.54375,-10.36875,27.656002,-51.960003,-63.136,concentric,4,5.0,24897.0,27657.0,56335.0,80589.0,22856.0,34865.0,22331.0,45828.0,15688.0,10583.0
2026-05-06 15:57:44.693660,495205,1609505328169835,2928081534,-1.19072,0.18544,0.027328,-10.9725,5.6875,-8.0675,27.656002,-51.960003,-63.136,concentric,4,5.0,24897.0,27657.0,56335.0,80589.0,22856.0,34865.0,22331.0,45828.0,15688.0,10583.0
2026-05-06 15:57:44.724751,495206,1609505328178774,2928090264,-1.138016,0.28304,-0.031232,-8.715,3.9025,-5.20625,27.776001,-51.72,-64.816,concentric,4,5.0,24897.0,27657.0,56335.0,80589.0,22856.0,34865.0,22331.0,45828.0,15688.0,10583.0
2026-05-06 15:57:44.727190,495207,1609505328193261,2928105173,-1.136064,0.437248,-0.031232,3.59625,6.755,-2.70375,27.760002,-48.464,-66.456,concentric,4,5.0,24897.0,27657.0,56335.0,80589.0,22856.0,34865.0,22331.0,45828.0,15688.0,10583.0
2026-05-06 15:57:44.729779,495208,1609505328202197,2928113916,-1.136064,0.437248,-0.031232,9.45,9.68625,-2.695,27.760002,-48.464,-66.456,concentric,4,5.0,24897.0,27657.0,56335.0,80589.0,22856.0,34865.0,22331.0,45828.0,15688.0,10583.0
2026-05-06 15:57:44.732215,495209,1609505328211148,2928122623,-1.136064,0.437248,-0.031232,3.3075,12.74,-6.20375,27.760002,-48.464,-66.456,concentric,4,5.0,24897.0,27657.0,56335.0,80589.0,22856.0,34865.0,22331.0,45828.0,15688.0,10583.0
2026-05-06 15:57:44.765044,495220,1609505328226314,2928137615,-1.09312,0.45872,0.01952,-5.8975,14.2625,-13.16875,28.232002,-48.088,-66.112,concentric,4,5.0,24571.0,27471.0,56490.0,80391.0,22607.0,34685.0,22403.0,45734.0,15548.0,10492.0
2026-05-06 15:57:44.767496,495221,1609505328235996,2928148513,-1.0736,0.247904,-0.066368,-18.7075,13.0725,-24.19375,28.216002,-49.552002,-65.032005,concentric,4,5.0,24571.0,27471.0,56490.0,80391.0,22607.0,34685.0,22403.0,45734.0,15548.0,10492.0
2026-05-06 15:57:44.770036,495222,1609505328245087,2928157314,-1.0736,0.247904,-0.066368,-26.34625,10.47375,-31.29,28.216002,-49.552002,-65.032005,concentric,4,5.0,24571.0,27471.0,56490.0,80391.0,22607.0,34685.0,22403.0,45734.0,15548.0,10492.0
2026-05-06 15:57:44.776199,495223,1609505328259621,2928172276,-1.106784,0.089792,-0.095648,-27.22125,6.9825,-34.3525,28.656002,-49.528004,-65.064,concentric,4,5.0,24571.0,27471.0,56490.0,80391.0,22607.0,34685.0,22403.0,45734.0,15548.0,10492.0
2026-05-06 15:57:44.786301,495224,1609505328268549,2928181073,-1.106784,0.089792,-0.095648,-22.05875,6.51,-32.27,28.656002,-49.528004,-65.064,concentric,4,5.0,24571.0,27471.0,56490.0,80391.0,22607.0,34685.0,22403.0,45734.0,15548.0,10492.0
2026-05-06 15:57:44.797588,495225,1609505328283075,2928193952,-1.032608,0.226432,-0.025376,-9.86125,8.925,-24.91125,29.2,-47.016003,-66.288,concentric,4,5.0,24571.0,27471.0,56490.0,80391.0,22607.0,34685.0,22403.0,45734.0,15548.0,10492.0
2026-05-06 15:57:44.810301,495226,1609505328292409,2928204828,-1.032608,0.226432,-0.025376,-1.16375,14.4025,-19.985,29.2,-47.016003,-66.288,concentric,4,5.0,24571.0,27471.0,56490.0,80391.0,22607.0,34685.0,22403.0,45734.0,15548.0,10492.0
2026-05-06 15:57:44.826315,495227,1609505328307006,2928219750,-1.071648,0.355264,-0.07808,1.93375,15.89875,-21.95375,29.288002,-46.848003,-65.43201,concentric,4,5.0,24571.0,27471.0,56490.0,80391.0,22607.0,34685.0,22403.0,45734.0,15548.0,10492.0
2026-05-06 15:57:44.832458,495228,1609505328315993,2928228463,-1.138016,0.216672,-0.169824,-0.98875,10.96375,-28.8925,29.992,-47.792004,-65.384,concentric,4,5.0,24571.0,27471.0,56490.0,80391.0,22607.0,34685.0,22403.0,45734.0,15548.0,10492.0
2026-05-06 15:57:44.866317,495239,1609505328324973,2928237213,-1.138016,0.216672,-0.169824,-6.3,4.45375,-34.825,29.992,-47.792004,-65.384,concentric,4,5.0,25011.0,27633.0,56146.0,80803.0,23006.0,34869.0,22258.0,45925.0,15792.0,10597.0
2026-05-06 15:57:44.868665,495240,1609505328339607,2928252279,-1.04432,0.0488,-0.03904,-9.5725,0.84,-36.4,30.168001,-49.432003,-64.064,concentric,4,5.0,25011.0,27633.0,56146.0,80803.0,23006.0,34869.0,22258.0,45925.0,15792.0,10597.0
2026-05-06 15:57:44.871105,495241,1609505328348591,2928261003,-1.04432,0.0488,-0.03904,-10.22,0.76125,-35.70875,30.168001,-49.432003,-64.064,concentric,4,5.0,25011.0,27633.0,56146.0,80803.0,23006.0,34869.0,22258.0,45925.0,15792.0,10597.0
2026-05-06 15:57:44.880010,495242,1609505328363258,2928275998,-0.993568,0.187392,-0.003904,-2.07375,4.69,-31.15875,30.640001,-49.160004,-65.528,concentric,4,5.0,25011.0,27633.0,56146.0,80803.0,23006.0,34869.0,22258.0,45925.0,15792.0,10597.0
2026-05-06 15:57:44.888844,495243,1609505328372280,2928284694,-0.993568,0.187392,-0.003904,9.87875,8.93375,-25.59375,30.640001,-49.160004,-65.528,concentric,4,5.0,25011.0,27633.0,56146.0,80803.0,23006.0,34869.0,22258.0,45925.0,15792.0,10597.0
2026-05-06 15:57:44.901090,495244,1609505328381215,2928293419,-1.081408,0.318176,-0.05856,14.0,10.745,-27.48375,31.128002,-45.064003,-67.408005,concentric,4,5.0,25011.0,27633.0,56146.0,80803.0,23006.0,34869.0,22258.0,45925.0,15792.0,10597.0
2026-05-06 15:57:44.911288,495245,1609505328395724,2928308343,-1.09312,0.22448,-0.124928,5.81875,8.785,-34.23,31.600002,-44.696003,-68.816,concentric,4,5.0,25011.0,27633.0,56146.0,80803.0,23006.0,34869.0,22258.0,45925.0,15792.0,10597.0
2026-05-06 15:57:44.919636,495246,1609505328404663,2928317076,-1.09312,0.22448,-0.124928,-6.29125,5.2325,-36.855,31.600002,-44.696003,-68.816,concentric,4,5.0,25011.0,27633.0,56146.0,80803.0,23006.0,34869.0,22258.0,45925.0,15792.0,10597.0
2026-05-06 15:57:44.933631,495247,1609505328419169,2928329946,-1.04432,0.083936,-0.0976,-15.3825,1.88125,-40.15375,31.872002,-45.248,-67.43201,concentric,4,5.0,25011.0,27633.0,56146.0,80803.0,23006.0,34869.0,22258.0,45925.0,15792.0,10597.0
2026-05-06 15:57:45.012325,495258,1609505328428603,2928340904,-1.04432,0.083936,-0.0976,-20.44,-0.7175,-45.64875,31.872002,-45.248,-67.43201,concentric,4,5.0,24775.0,27469.0,56625.0,80144.0,22756.0,34652.0,22465.0,45606.0,15649.0,10505.0
2026-05-06 15:57:45.014712,495259,1609505328437755,2928349683,-0.987712,0.089792,0.005856,-12.90625,2.17,-45.0275,32.32,-45.424004,-66.128006,concentric,4,5.0,24775.0,27469.0,56625.0,80144.0,22756.0,34652.0,22465.0,45606.0,15649.0,10505.0
2026-05-06 15:57:45.017205,495260,1609505328452287,2928364649,-0.987712,0.089792,0.005856,-2.09125,3.89375,-40.32,32.32,-45.424004,-66.128006,concentric,4,5.0,24775.0,27469.0,56625.0,80144.0,22756.0,34652.0,22465.0,45606.0,15649.0,10505.0
2026-05-06 15:57:45.019725,495261,1609505328461250,2928373411,-1.14192,0.095648,-0.089792,2.82625,3.33375,-40.67875,33.256,-43.208,-67.632,concentric,4,5.0,24775.0,27469.0,56625.0,80144.0,22756.0,34652.0,22465.0,45606.0,15649.0,10505.0
2026-05-06 15:57:45.022254,495262,1609505328475773,2928388354,-1.098976,0.144448,-0.013664,8.25125,0.8225,-43.28625,33.192,-42.84,-67.408005,concentric,4,5.0,24775.0,27469.0,56625.0,80144.0,22756.0,34652.0,22465.0,45606.0,15649.0,10505.0
2026-05-06 15:57:45.024797,495263,1609505328484688,2928397172,-1.098976,0.144448,-0.013664,11.8125,-0.805,-40.8625,33.192,-42.84,-67.408005,concentric,4,5.0,24775.0,27469.0,56625.0,80144.0,22756.0,34652.0,22465.0,45606.0,15649.0,10505.0
2026-05-06 15:57:45.027547,495264,1609505328499184,2928410117,-0.991616,0.148352,-0.017568,8.60125,-2.07375,-36.39125,34.064003,-42.576,-67.840004,concentric,4,5.0,24775.0,27469.0,56625.0,80144.0,22756.0,34652.0,22465.0,45606.0,15649.0,10505.0
2026-05-06 15:57:45.030041,495265,1609505328508654,2928421011,-0.991616,0.148352,-0.017568,3.6225,-1.88125,-36.89,34.064003,-42.576,-67.840004,concentric,4,5.0,24775.0,27469.0,56625.0,80144.0,22756.0,34652.0,22465.0,45606.0,15649.0,10505.0
2026-05-06 15:57:45.033789,495266,1609505328517724,2928429772,-1.0736,0.0976,0.06832,1.6625,-4.0425,-43.35625,34.504,-43.168003,-67.112,concentric,4,5.0,24775.0,27469.0,56625.0,80144.0,22756.0,34652.0,22465.0,45606.0,15649.0,10505.0
2026-05-06 15:57:45.067584,495277,1609505328532333,2928444715,-1.0736,0.0976,0.06832,0.665,-6.3175,-47.97625,34.504,-43.168003,-67.112,concentric,4,5.0,24726.0,27447.0,56744.0,79812.0,22698.0,34618.0,22514.0,45408.0,15630.0,10526.0
2026-05-06 15:57:45.070141,495278,1609505328541419,2928453519,-1.081408,0.056608,-0.042944,-4.75125,-7.21,-47.6175,34.584003,-43.312,-66.69601,concentric,4,5.0,24726.0,27447.0,56744.0,79812.0,22698.0,34618.0,22514.0,45408.0,15630.0,10526.0
2026-05-06 15:57:45.072629,495279,1609505328555935,2928468476,-1.104832,0.001952,-0.128832,-10.85875,-7.74375,-45.87625,35.232002,-42.2,-66.064,concentric,4,5.0,24726.0,27447.0,56744.0,79812.0,22698.0,34618.0,22514.0,45408.0,15630.0,10526.0
2026-05-06 15:57:45.081399,495280,1609505328564865,2928477311,-1.104832,0.001952,-0.128832,-15.72375,-9.70375,-47.3375,35.232002,-42.2,-66.064,concentric,4,5.0,24726.0,27447.0,56744.0,79812.0,22698.0,34618.0,22514.0,45408.0,15630.0,10526.0
2026-05-06 15:57:45.088869,495281,1609505328573786,2928486032,-1.104832,0.001952,-0.128832,-8.14625,-13.2475,-49.105,35.232002,-42.2,-66.064,concentric,4,5.0,24726.0,27447.0,56744.0,79812.0,22698.0,34618.0,22514.0,45408.0,15630.0,10526.0
2026-05-06 15:57:45.108758,495282,1609505328588285,2928500942,-1.032608,-0.007808,0.017568,3.35125,-17.29,-47.670002,35.752003,-41.752003,-68.464005,concentric,4,5.0,24726.0,27447.0,56744.0,79812.0,22698.0,34618.0,22514.0,45408.0,15630.0,10526.0
2026-05-06 15:57:45.115043,495283,1609505328597226,2928509668,-0.962336,-0.0488,-0.021472,9.6075,-18.99625,-41.125,36.576,-39.480003,-69.176,concentric,4,5.0,24726.0,27447.0,56744.0,79812.0,22698.0,34618.0,22514.0,45408.0,15630.0,10526.0
2026-05-06 15:57:45.148923,495284,1609505328611790,2928522572,-0.962336,-0.0488,-0.021472,2.16125,-14.096251,-37.6775,36.576,-39.480003,-69.176,concentric,4,5.0,24726.0,27447.0,56744.0,79812.0,22698.0,34618.0,22514.0,45408.0,15630.0,10526.0
2026-05-06 15:57:45.151430,495285,1609505328621016,2928533342,-1.091168,0.01952,-0.220576,-9.345,-13.7725,-38.82375,36.824,-38.704002,-67.36,concentric,4,5.0,24726.0,27447.0,56744.0,79812.0,22698.0,34618.0,22514.0,45408.0,15630.0,10526.0
2026-05-06 15:57:45.183779,495297,1609505328630119,2928542643,-1.091168,0.01952,-0.220576,2.40625,-16.45,-40.36375,36.824,-38.704002,-67.36,concentric,4,5.0,24735.0,27635.0,57313.0,79031.0,22679.0,34771.0,22798.0,44998.0,15669.0,10631.0
2026-05-06 15:57:45.186511,495298,1609505328644652,2928555501,-0.974048,-0.017568,-0.033184,13.11625,-20.0375,-44.1,37.08,-37.936,-67.584,concentric,4,5.0,24735.0,27635.0,57313.0,79031.0,22679.0,34771.0,22798.0,44998.0,15669.0,10631.0
2026-05-06 15:57:45.188951,495299,1609505328653963,2928566316,-0.974048,-0.017568,-0.033184,9.91375,-24.4475,-44.68625,37.08,-37.936,-67.584,concentric,4,5.0,24735.0,27635.0,57313.0,79031.0,22679.0,34771.0,22798.0,44998.0,15669.0,10631.0
2026-05-06 15:57:45.193275,495300,1609505328668709,2928581321,-0.942816,-0.066368,-0.031232,1.63625,-21.805,-40.451252,37.504,-40.968002,-65.28001,concentric,4,5.0,24735.0,27635.0,57313.0,79031.0,22679.0,34771.0,22798.0,44998.0,15669.0,10631.0
2026-05-06 15:57:45.193737,495301,1609505328677793,2928590102,-0.970144,-0.109312,-0.013664,3.05375,-19.53,-35.735,38.08,-39.608,-66.448006,concentric,4,5.0,24735.0,27635.0,57313.0,79031.0,22679.0,34771.0,22798.0,44998.0,15669.0,10631.0
2026-05-06 15:57:45.204430,495302,1609505328686757,2928598837,-0.970144,-0.109312,-0.013664,6.7375,-17.535,-39.6025,38.08,-39.608,-66.448006,concentric,4,5.0,24735.0,27635.0,57313.0,79031.0,22679.0,34771.0,22798.0,44998.0,15669.0,10631.0
2026-05-06 15:57:45.216309,495303,1609505328701292,2928613751,-0.944768,-0.001952,-0.011712,3.49125,-14.98875,-42.14875,38.448,-37.336002,-67.464005,concentric,4,5.0,24735.0,27635.0,57313.0,79031.0,22679.0,34771.0,22798.0,44998.0,15669.0,10631.0
2026-05-06 15:57:45.224839,495304,1609505328710200,2928622467,-0.944768,-0.001952,-0.011712,9.12625,-12.6,-34.0025,38.448,-37.336002,-67.464005,concentric,4,5.0,24735.0,27635.0,57313.0,79031.0,22679.0,34771.0,22798.0,44998.0,15669.0,10631.0
2026-05-06 15:57:45.288971,495315,1609505328724728,2928637464,-0.935008,0.056608,-0.181536,16.345,-14.07,-27.39625,38.84,-36.624,-66.512,concentric,4,5.0,25146.0,28021.0,57712.0,79066.0,23051.0,35203.0,23041.0,45017.0,15902.0,10836.0
2026-05-06 15:57:45.293992,495316,1609505328733719,2928646224,-0.935008,0.056608,-0.181536,15.14625,-17.52625,-29.70625,38.84,-36.624,-66.512,concentric,4,5.0,25146.0,28021.0,57712.0,79066.0,23051.0,35203.0,23041.0,45017.0,15902.0,10836.0
2026-05-06 15:57:45.294374,495317,1609505328748234,2928659062,-0.882304,-0.095648,-0.015616,6.58,-20.39625,-34.92125,39.128002,-36.784,-67.22401,concentric,4,5.0,25146.0,28021.0,57712.0,79066.0,23051.0,35203.0,23041.0,45017.0,15902.0,10836.0
2026-05-06 15:57:45.296218,495318,1609505328757706,2928669937,-0.8296,-0.16592,0.216672,-6.86875,-20.48375,-39.06875,39.496002,-37.128002,-67.248,concentric,4,5.0,25146.0,28021.0,57712.0,79066.0,23051.0,35203.0,23041.0,45017.0,15902.0,10836.0
2026-05-06 15:57:45.301819,495319,1609505328766854,2928678734,-0.8296,-0.16592,0.216672,-12.08375,-14.30625,-37.79125,39.496002,-37.128002,-67.248,concentric,4,5.0,25146.0,28021.0,57712.0,79066.0,23051.0,35203.0,23041.0,45017.0,15902.0,10836.0
2026-05-06 15:57:45.301948,495320,1609505328781444,2928693647,-0.909632,-0.00976,-0.025376,-5.06625,-9.31,-32.138752,39.696003,-35.256,-67.464005,concentric,4,5.0,25146.0,28021.0,57712.0,79066.0,23051.0,35203.0,23041.0,45017.0,15902.0,10836.0
2026-05-06 15:57:45.306003,495321,1609505328790471,2928702484,-0.909632,-0.00976,-0.025376,8.14625,-4.13,-22.70625,39.696003,-35.256,-67.464005,concentric,4,5.0,25146.0,28021.0,57712.0,79066.0,23051.0,35203.0,23041.0,45017.0,15902.0,10836.0
2026-05-06 15:57:45.338788,495322,1609505328804944,2928717417,-0.847168,0.007808,0.005856,15.190001,-1.19875,-18.69875,39.824,-37.616,-65.032005,concentric,4,5.0,25146.0,28021.0,57712.0,79066.0,23051.0,35203.0,23041.0,45017.0,15902.0,10836.0
2026-05-06 15:57:45.368914,495323,1609505328813855,2928726128,-0.847168,0.007808,0.005856,12.3375,-1.0675,-23.6425,39.824,-37.616,-65.032005,concentric,4,5.0,25146.0,28021.0,57712.0,79066.0,23051.0,35203.0,23041.0,45017.0,15902.0,10836.0
2026-05-06 15:57:45.393694,495324,1609505328822923,2928734816,-0.894016,-0.074176,0.07808,0.56,-0.35875,-28.76125,40.208,-34.56,-67.528,concentric,4,5.0,25146.0,28021.0,57712.0,79066.0,23051.0,35203.0,23041.0,45017.0,15902.0,10836.0
2026-05-06 15:57:45.438908,495335,1609505328837605,2928749995,-0.894016,-0.042944,0.0488,-8.54875,2.70375,-25.97875,40.208,-34.56,-67.528,eccentric,4,5.0,25630.0,28317.0,57947.0,79484.0,23439.0,35608.0,23179.0,45252.0,16133.0,11022.0
2026-05-06 15:57:45.441287,495336,1609505328846573,2928758752,-0.886208,-0.042944,0.0488,-13.1775,4.80375,-18.5325,40.096,-34.464,-67.984,eccentric,4,5.0,25630.0,28317.0,57947.0,79484.0,23439.0,35608.0,23179.0,45252.0,16133.0,11022.0
2026-05-06 15:57:45.443753,495337,1609505328861062,2928773708,-0.870592,-0.046848,-0.142496,-15.23375,5.29375,-12.90625,40.536003,-34.024002,-67.44,eccentric,4,5.0,25630.0,28317.0,57947.0,79484.0,23439.0,35608.0,23179.0,45252.0,16133.0,11022.0
2026-05-06 15:57:45.446392,495338,1609505328869977,2928782430,-0.870592,-0.046848,-0.142496,-8.56625,2.94875,-11.76875,40.536003,-34.024002,-67.44,eccentric,4,5.0,25630.0,28317.0,57947.0,79484.0,23439.0,35608.0,23179.0,45252.0,16133.0,11022.0
2026-05-06 15:57:45.448774,495339,1609505328884438,2928795301,-0.960384,-0.171776,0.054656,0.4725,0.76125,-17.00125,40.464,-34.2,-67.832,eccentric,4,5.0,25630.0,28317.0,57947.0,79484.0,23439.0,35608.0,23179.0,45252.0,16133.0,11022.0
2026-05-06 15:57:45.451310,495340,1609505328893724,2928806093,-0.960384,-0.171776,0.054656,2.1,0.16625,-16.0125,40.464,-34.2,-67.832,eccentric,4,5.0,25630.0,28317.0,57947.0,79484.0,23439.0,35608.0,23179.0,45252.0,16133.0,11022.0
2026-05-06 15:57:45.453737,495341,1609505328902784,2928814848,-0.948672,-0.06832,0.173728,0.84,3.01875,-3.3425,40.312,-34.264,-67.816,eccentric,4,5.0,25630.0,28317.0,57947.0,79484.0,23439.0,35608.0,23179.0,45252.0,16133.0,11022.0
2026-05-06 15:57:45.458866,495342,1609505328917343,2928829850,-0.948672,-0.06832,0.173728,-0.35,6.685,8.19,40.312,-34.264,-67.816,eccentric,4,5.0,25630.0,28317.0,57947.0,79484.0,23439.0,35608.0,23179.0,45252.0,16133.0,11022.0
2026-05-06 15:57:45.488695,495353,1609505328926314,2928838668,-0.95648,0.05856,-0.109312,-1.2775,8.82875,9.8875,40.192,-36.168003,-67.22401,eccentric,4,5.0,25838.0,28468.0,57923.0,79692.0,23600.0,35738.0,23186.0,45363.0,16272.0,11116.0
2026-05-06 15:57:45.491286,495354,1609505328940895,2928853623,-1.03456,-0.0488,-0.013664,-1.40875,9.7475,5.97625,40.36,-36.4,-66.552,eccentric,4,5.0,25838.0,28468.0,57923.0,79692.0,23600.0,35738.0,23186.0,45363.0,16272.0,11116.0
2026-05-06 15:57:45.493776,495355,1609505328949918,2928862465,-1.03456,-0.0488,-0.013664,-4.165,6.3175,-0.30625,40.36,-36.4,-66.552,eccentric,4,5.0,25838.0,28468.0,57923.0,79692.0,23600.0,35738.0,23186.0,45363.0,16272.0,11116.0
2026-05-06 15:57:45.496308,495356,1609505328959016,2928871284,-1.056032,-0.193248,0.103456,-9.52,3.4475,-4.47125,40.264004,-36.192,-65.552,eccentric,4,5.0,25838.0,28468.0,57923.0,79692.0,23600.0,35738.0,23186.0,45363.0,16272.0,11116.0
2026-05-06 15:57:45.498755,495357,1609505328973552,2928886259,-1.056032,-0.193248,0.103456,-12.8625,4.90875,1.89875,40.264004,-36.192,-65.552,eccentric,4,5.0,25838.0,28468.0,57923.0,79692.0,23600.0,35738.0,23186.0,45363.0,16272.0,11116.0
2026-05-06 15:57:45.501304,495358,1609505328982512,2928894972,-1.001376,-0.105408,0.017568,-16.555,4.71625,13.02,39.712,-38.4,-65.184006,eccentric,4,5.0,25838.0,28468.0,57923.0,79692.0,23600.0,35738.0,23186.0,45363.0,16272.0,11116.0
2026-05-06 15:57:45.515091,495359,1609505328997058,2928907892,-1.001376,-0.105408,0.017568,-10.24625,7.83125,19.69625,39.712,-38.4,-65.184006,eccentric,4,5.0,25838.0,28468.0,57923.0,79692.0,23600.0,35738.0,23186.0,45363.0,16272.0,11116.0
2026-05-06 15:57:45.521248,495360,1609505329006338,2928918698,-1.009184,-0.015616,-0.042944,-1.155,8.6275,18.7775,39.872,-35.624,-66.920006,eccentric,4,5.0,25838.0,28468.0,57923.0,79692.0,23600.0,35738.0,23186.0,45363.0,16272.0,11116.0
2026-05-06 15:57:45.529778,495361,1609505329015337,2928927453,-1.009184,-0.015616,-0.042944,4.1125,7.91875,15.82875,39.872,-35.624,-66.920006,eccentric,4,5.0,25838.0,28468.0,57923.0,79692.0,23600.0,35738.0,23186.0,45363.0,16272.0,11116.0
2026-05-06 15:57:45.571519,495372,1609505329030074,2928940903,-1.04432,-0.06832,-0.07808,1.68875,4.6375,16.70375,39.992,-35.768,-67.656006,eccentric,4,5.0,26425.0,28818.0,57295.0,80637.0,24100.0,36115.0,22914.0,45818.0,16597.0,11297.0
2026-05-06 15:57:45.577947,495373,1609505329039460,2928951807,-1.042368,-0.109312,0.0,-6.37875,-0.25375,19.11,39.992,-37.328003,-64.648,eccentric,4,5.0,26425.0,28818.0,57295.0,80637.0,24100.0,36115.0,22914.0,45818.0,16597.0,11297.0
2026-05-06 15:57:45.582162,495374,1609505329054061,2928966793,-1.042368,-0.109312,0.0,-11.0775,-2.80875,22.05875,39.424004,-37.328003,-64.648,eccentric,4,5.0,26425.0,28818.0,57295.0,80637.0,24100.0,36115.0,22914.0,45818.0,16597.0,11297.0
2026-05-06 15:57:45.582253,495375,1609505329063011,2928975548,-0.974048,-0.040992,0.05856,-9.31875,-2.24875,25.19125,39.104,-38.52,-66.54401,eccentric,4,5.0,26425.0,28818.0,57295.0,80637.0,24100.0,36115.0,22914.0,45818.0,16597.0,11297.0
2026-05-06 15:57:45.588828,495376,1609505329072114,2928984311,-0.974048,-0.040992,0.05856,-5.27625,1.00625,27.16,39.104,-38.52,-66.54401,eccentric,4,5.0,26425.0,28818.0,57295.0,80637.0,24100.0,36115.0,22914.0,45818.0,16597.0,11297.0
2026-05-06 15:57:45.602466,495377,1609505329086642,2928999261,-0.999424,-0.007808,-0.017568,-0.7175,3.87625,27.6325,38.68,-36.752003,-67.54401,eccentric,4,5.0,26425.0,28818.0,57295.0,80637.0,24100.0,36115.0,22914.0,45818.0,16597.0,11297.0
2026-05-06 15:57:45.611152,495378,1609505329095548,2929008041,-0.999424,-0.007808,-0.017568,-2.10875,4.55,27.58,38.68,-36.752003,-67.54401,eccentric,4,5.0,26425.0,28818.0,57295.0,80637.0,24100.0,36115.0,22914.0,45818.0,16597.0,11297.0
2026-05-06 15:57:45.625131,495379,1609505329110084,2929020924,-1.01504,0.00976,-0.085888,-6.74625,3.10625,28.21875,38.928,-37.52,-67.43201,eccentric,4,5.0,26425.0,28818.0,57295.0,80637.0,24100.0,36115.0,22914.0,45818.0,16597.0,11297.0
2026-05-06 15:57:45.638964,495380,1609505329119376,2929031745,-1.01504,0.00976,0.072224,-8.40875,2.00375,29.8725,38.928,-37.52,-67.43201,eccentric,4,5.0,26425.0,28818.0,57295.0,80637.0,24100.0,36115.0,22914.0,45818.0,16597.0,11297.0
2026-05-06 15:57:45.676245,495391,1609505329128657,2929040467,-0.942816,-0.027328,0.072224,-6.57125,1.785,29.84625,38.488003,-37.792004,-69.90401,eccentric,4,5.0,26379.0,28842.0,57304.0,80748.0,24103.0,36169.0,22920.0,45888.0,16586.0,11304.0
2026-05-06 15:57:45.676370,495392,1609505329143188,2929055449,-0.968192,0.017568,0.013664,-3.71,2.70375,29.785,37.480003,-41.104,-64.952,eccentric,4,5.0,26379.0,28842.0,57304.0,80748.0,24103.0,36169.0,22920.0,45888.0,16586.0,11304.0
2026-05-06 15:57:45.676425,495393,1609505329152128,2929064206,-0.968192,0.017568,0.013664,-0.98875,3.80625,32.47125,37.480003,-41.104,-64.952,eccentric,4,5.0,26379.0,28842.0,57304.0,80748.0,24103.0,36169.0,22920.0,45888.0,16586.0,11304.0
2026-05-06 15:57:45.681462,495394,1609505329166652,2929079153,-0.972096,0.037088,-0.007808,0.69125,3.15875,34.8775,37.0,-41.784,-65.032005,eccentric,4,5.0,26379.0,28842.0,57304.0,80748.0,24103.0,36169.0,22920.0,45888.0,16586.0,11304.0
2026-05-06 15:57:45.706372,495395,1609505329175630,2929087876,-0.972096,0.037088,-0.007808,-3.12375,-0.0875,34.2125,37.0,-41.784,-65.032005,eccentric,4,5.0,26379.0,28842.0,57304.0,80748.0,24103.0,36169.0,22920.0,45888.0,16586.0,11304.0
2026-05-06 15:57:45.731469,495396,1609505329190099,2929102808,-0.931104,0.011712,-0.054656,-5.83625,-2.09125,34.09875,37.160004,-39.864002,-67.064,eccentric,4,5.0,26379.0,28842.0,57304.0,80748.0,24103.0,36169.0,22920.0,45888.0,16586.0,11304.0
2026-05-06 15:57:45.748740,495397,1609505329199095,2929111524,-0.931104,0.011712,-0.054656,-4.57625,-1.54,34.30875,37.160004,-39.864002,-67.064,eccentric,4,5.0,26379.0,28842.0,57304.0,80748.0,24103.0,36169.0,22920.0,45888.0,16586.0,11304.0
2026-05-06 15:57:45.751332,495398,1609505329208130,2929120351,-0.989664,0.066368,0.031232,-1.0325,-0.28875,34.2825,36.600002,-40.224003,-65.816,eccentric,4,5.0,26379.0,28842.0,57304.0,80748.0,24103.0,36169.0,22920.0,45888.0,16586.0,11304.0
2026-05-06 15:57:45.753638,495399,1609505329222641,2929135305,-0.962336,0.11712,0.040992,10.64875,3.2375,35.95375,36.608,-40.288002,-67.056,eccentric,4,5.0,26379.0,28842.0,57304.0,80748.0,24103.0,36169.0,22920.0,45888.0,16586.0,11304.0
2026-05-06 15:57:45.781307,495410,1609505329232252,2929144085,-0.962336,0.11712,0.040992,12.32,5.01375,36.04125,36.608,-40.288002,-67.056,eccentric,4,5.0,26165.0,28765.0,57449.0,80552.0,23904.0,36101.0,23010.0,45833.0,16458.0,11266.0
2026-05-06 15:57:45.783790,495411,1609505329246824,2929159182,-0.870592,0.093696,0.013664,1.2425,6.825,34.3875,35.416,-42.696003,-65.728004,eccentric,4,5.0,26165.0,28765.0,57449.0,80552.0,23904.0,36101.0,23010.0,45833.0,16458.0,11266.0
2026-05-06 15:57:45.786333,495412,1609505329255782,2929167923,-0.870592,0.093696,0.013664,-11.47125,9.37125,34.06375,35.416,-42.696003,-65.728004,eccentric,4,5.0,26165.0,28765.0,57449.0,80552.0,23904.0,36101.0,23010.0,45833.0,16458.0,11266.0
2026-05-06 15:57:45.791252,495413,1609505329264738,2929176655,-0.974048,0.105408,-0.138592,-19.25,11.61125,33.635,35.424,-43.344,-65.656006,eccentric,4,5.0,26165.0,28765.0,57449.0,80552.0,23904.0,36101.0,23010.0,45833.0,16458.0,11266.0
2026-05-06 15:57:45.795167,495414,1609505329279293,2929191559,-0.974048,0.105408,-0.138592,-11.655,12.60875,34.326252,35.424,-43.344,-65.656006,eccentric,4,5.0,26165.0,28765.0,57449.0,80552.0,23904.0,36101.0,23010.0,45833.0,16458.0,11266.0
2026-05-06 15:57:45.803837,495415,1609505329288405,2929200387,-1.077504,0.1464,-0.033184,3.33375,11.75125,33.215,34.776,-41.856003,-68.112,eccentric,4,5.0,26165.0,28765.0,57449.0,80552.0,23904.0,36101.0,23010.0,45833.0,16458.0,11266.0
2026-05-06 15:57:45.837732,495416,1609505329302925,2929215346,-0.89792,0.10736,0.01952,13.7375,11.0075,30.66875,34.624,-42.112003,-67.256004,eccentric,4,5.0,26165.0,28765.0,57449.0,80552.0,23904.0,36101.0,23010.0,45833.0,16458.0,11266.0
2026-05-06 15:57:45.840252,495417,1609505329311887,2929224040,-0.89792,0.10736,0.01952,10.24625,11.025,29.33,34.624,-42.112003,-67.256004,eccentric,4,5.0,26165.0,28765.0,57449.0,80552.0,23904.0,36101.0,23010.0,45833.0,16458.0,11266.0
2026-05-06 15:57:45.842785,495418,1609505329320830,2929232769,-0.89792,0.10736,0.1464,-1.65375,12.7575,29.19875,34.624,-42.112003,-67.256004,eccentric,4,5.0,26165.0,28765.0,57449.0,80552.0,23904.0,36101.0,23010.0,45833.0,16458.0,11266.0
2026-05-06 15:57:45.870176,495429,1609505329335658,2929247842,-0.925248,0.13664,0.1464,-10.92,15.96,28.90125,34.192,-42.784,-67.664,eccentric,4,5.0,26455.0,28875.0,57113.0,81244.0,24173.0,36218.0,22848.0,46180.0,16636.0,11336.0
2026-05-06 15:57:45.872643,495430,1609505329344676,2929256627,-1.106784,0.21472,-0.12688,-6.685,19.95,29.05875,33.752003,-43.312,-67.088005,eccentric,4,5.0,26455.0,28875.0,57113.0,81244.0,24173.0,36218.0,22848.0,46180.0,16636.0,11336.0
2026-05-06 15:57:45.875089,495431,1609505329359231,2929271603,-1.106784,0.21472,-0.12688,3.08,20.86,30.0475,33.752003,-43.312,-67.088005,eccentric,4,5.0,26455.0,28875.0,57113.0,81244.0,24173.0,36218.0,22848.0,46180.0,16636.0,11336.0
2026-05-06 15:57:45.883557,495432,1609505329368522,2929280470,-1.056032,0.191296,-0.15616,5.565,14.74375,29.79375,33.184002,-43.688004,-67.464005,eccentric,4,5.0,26455.0,28875.0,57113.0,81244.0,24173.0,36218.0,22848.0,46180.0,16636.0,11336.0
2026-05-06 15:57:45.893532,495433,1609505329377594,2929289163,-1.056032,0.191296,-0.15616,-0.90125,8.636251,27.0375,33.184002,-43.688004,-67.464005,eccentric,4,5.0,26455.0,28875.0,57113.0,81244.0,24173.0,36218.0,22848.0,46180.0,16636.0,11336.0
2026-05-06 15:57:45.907469,495434,1609505329392119,2929304096,-0.979904,0.091744,-0.074176,-9.9925,4.19125,25.3225,32.872,-44.352,-66.76,eccentric,4,5.0,26455.0,28875.0,57113.0,81244.0,24173.0,36218.0,22848.0,46180.0,16636.0,11336.0
2026-05-06 15:57:45.916386,495435,1609505329401054,2929312840,-0.979904,0.091744,-0.074176,-12.0925,0.7175,27.755001,32.872,-44.352,-66.76,eccentric,4,5.0,26455.0,28875.0,57113.0,81244.0,24173.0,36218.0,22848.0,46180.0,16636.0,11336.0
2026-05-06 15:57:45.951954,495436,1609505329415668,2929327784,-1.120448,0.191296,-0.089792,5.62625,2.1,32.97875,31.832,-46.120003,-65.528,eccentric,4,5.0,26455.0,28875.0,57113.0,81244.0,24173.0,36218.0,22848.0,46180.0,16636.0,11336.0
2026-05-06 15:57:45.952189,495437,1609505329424533,2929336510,-1.167296,0.279136,-0.062464,19.15375,2.94875,35.16625,31.920002,-46.088,-67.12,eccentric,4,5.0,26455.0,28875.0,57113.0,81244.0,24173.0,36218.0,22848.0,46180.0,16636.0,11336.0
2026-05-06 15:57:46.008950,495448,1609505329433949,2929345428,-1.167296,0.279136,-0.062464,18.725,-1.0325,36.6275,31.920002,-46.088,-67.12,eccentric,4,5.0,26529.0,28824.0,56537.0,81712.0,24282.0,36223.0,22577.0,46461.0,16680.0,11303.0
2026-05-06 15:57:46.011461,495449,1609505329448665,2929360398,-1.028704,0.208864,-0.064416,12.88,-3.395,36.32125,30.976002,-47.496002,-65.64,eccentric,4,5.0,26529.0,28824.0,56537.0,81712.0,24282.0,36223.0,22577.0,46461.0,16680.0,11303.0
2026-05-06 15:57:46.013981,495450,1609505329457762,2929369152,-1.028704,0.208864,-0.064416,-1.89,-6.93875,33.6875,30.976002,-47.496002,-65.64,eccentric,4,5.0,26529.0,28824.0,56537.0,81712.0,24282.0,36223.0,22577.0,46461.0,16680.0,11303.0
2026-05-06 15:57:46.016506,495451,1609505329472330,2929384094,-1.169248,0.269376,-0.02928,-3.14125,-7.21,34.755,30.600002,-47.776,-64.984,eccentric,4,5.0,26529.0,28824.0,56537.0,81712.0,24282.0,36223.0,22577.0,46461.0,16680.0,11303.0
2026-05-06 15:57:46.018951,495452,1609505329481257,2929392814,-1.169248,0.269376,-0.02928,9.5025,-2.73,35.5075,30.600002,-47.776,-64.984,eccentric,4,5.0,26529.0,28824.0,56537.0,81712.0,24282.0,36223.0,22577.0,46461.0,16680.0,11303.0
2026-05-06 15:57:46.021547,495453,1609505329495764,2929407709,-1.159488,0.296704,-0.025376,7.62125,-1.3825,33.145,30.096,-46.872,-66.368004,eccentric,4,5.0,26529.0,28824.0,56537.0,81712.0,24282.0,36223.0,22577.0,46461.0,16680.0,11303.0
2026-05-06 15:57:46.023719,495454,1609505329504684,2929416584,-1.100928,0.244,-0.072224,4.025,-2.77375,31.85,29.36,-46.760002,-66.616005,eccentric,4,5.0,26529.0,28824.0,56537.0,81712.0,24282.0,36223.0,22577.0,46461.0,16680.0,11303.0
2026-05-06 15:57:46.030027,495455,1609505329513673,2929425318,-1.100928,0.244,-0.072224,-1.645,-0.2975,32.85625,29.36,-46.760002,-66.616005,eccentric,4,5.0,26529.0,28824.0,56537.0,81712.0,24282.0,36223.0,22577.0,46461.0,16680.0,11303.0
2026-05-06 15:57:46.046928,495456,1609505329528165,2929440314,-1.155584,0.238144,0.050752,-12.5825,-0.63875,33.52125,29.224,-49.512,-65.392006,eccentric,4,5.0,26529.0,28824.0,56537.0,81712.0,24282.0,36223.0,22577.0,46461.0,16680.0,11303.0
2026-05-06 15:57:46.126501,495467,1609505329537251,2929449177,-1.155584,0.238144,0.050752,-15.95125,-2.45,36.63625,29.224,-49.512,-65.392006,eccentric,4,5.0,26670.0,28785.0,56236.0,82018.0,24409.0,36181.0,22429.0,46598.0,16754.0,11330.0
2026-05-06 15:57:46.134660,495468,1609505329551768,2929464133,-1.212192,0.3416,-0.099552,-6.8075,-0.91,41.6325,28.192001,-48.448,-65.976006,eccentric,4,5.0,26670.0,28785.0,56236.0,82018.0,24409.0,36181.0,22429.0,46598.0,16754.0,11330.0
2026-05-06 15:57:46.135079,495469,1609505329560675,2929472819,-1.212192,0.3416,-0.099552,-1.60125,-0.735,42.37625,28.192001,-48.448,-65.976006,eccentric,4,5.0,26670.0,28785.0,56236.0,82018.0,24409.0,36181.0,22429.0,46598.0,16754.0,11330.0
2026-05-06 15:57:46.136345,495470,1609505329575161,2929487735,-1.175104,0.310368,-0.142496,1.28625,-3.2025,39.375,27.488,-48.536003,-65.792,eccentric,4,5.0,26670.0,28785.0,56236.0,82018.0,24409.0,36181.0,22429.0,46598.0,16754.0,11330.0
2026-05-06 15:57:46.138711,495471,1609505329584057,2929496586,-1.108736,0.277184,-0.046848,0.76125,-6.71125,34.95625,26.904001,-49.152,-65.216,eccentric,4,5.0,26670.0,28785.0,56236.0,82018.0,24409.0,36181.0,22429.0,46598.0,16754.0,11330.0
2026-05-06 15:57:46.142657,495472,1609505329592982,2929505289,-1.108736,0.277184,-0.046848,-3.96375,-11.1825,33.0225,26.904001,-49.152,-65.216,eccentric,4,5.0,26670.0,28785.0,56236.0,82018.0,24409.0,36181.0,22429.0,46598.0,16754.0,11330.0
2026-05-06 15:57:46.143615,495473,1609505329607661,2929520299,-1.255136,0.310368,-0.021472,-1.0325,-14.4025,34.7375,26.080002,-51.416004,-64.576004,eccentric,4,5.0,26670.0,28785.0,56236.0,82018.0,24409.0,36181.0,22429.0,46598.0,16754.0,11330.0
2026-05-06 15:57:46.146703,495474,1609505329616707,2929529025,-1.255136,0.310368,-0.021472,7.91,-15.23375,37.58125,26.080002,-51.416004,-64.576004,eccentric,4,5.0,26670.0,28785.0,56236.0,82018.0,24409.0,36181.0,22429.0,46598.0,16754.0,11330.0
2026-05-06 15:57:46.173498,495485,1609505329631696,2929544457,-1.231712,0.33184,-0.046848,8.61875,-15.39125,36.63625,25.472002,-51.832,-64.168,eccentric,4,5.0,26431.0,28567.0,56216.0,81736.0,24157.0,35951.0,22421.0,46461.0,16620.0,11188.0
2026-05-06 15:57:46.176134,495486,1609505329640784,2929553284,-1.231712,0.33184,-0.046848,1.0675,-16.98375,36.513752,25.472002,-51.832,-64.168,eccentric,4,5.0,26431.0,28567.0,56216.0,81736.0,24157.0,35951.0,22421.0,46461.0,16620.0,11188.0
2026-05-06 15:57:46.178586,495487,1609505329649776,2929562067,-1.159488,0.310368,0.033184,3.43,-18.05125,38.0625,24.464,-53.368004,-62.744003,eccentric,4,5.0,26431.0,28567.0,56216.0,81736.0,24157.0,35951.0,22421.0,46461.0,16620.0,11188.0
2026-05-06 15:57:46.181158,495488,1609505329664510,2929577184,-1.202432,0.32208,-0.074176,0.63875,-19.95875,36.1025,24.080002,-54.728004,-63.664,eccentric,4,5.0,26431.0,28567.0,56216.0,81736.0,24157.0,35951.0,22421.0,46461.0,16620.0,11188.0
2026-05-06 15:57:46.190139,495489,1609505329673462,2929585901,-1.202432,0.32208,-0.074176,0.2275,-22.3825,35.44625,24.080002,-54.728004,-63.664,eccentric,4,5.0,26431.0,28567.0,56216.0,81736.0,24157.0,35951.0,22421.0,46461.0,16620.0,11188.0
2026-05-06 15:57:46.202619,495490,1609505329688003,2929598821,-1.257088,0.306464,-0.011712,6.1075,-22.645,36.30375,23.432001,-51.712,-64.976006,eccentric,4,5.0,26431.0,28567.0,56216.0,81736.0,24157.0,35951.0,22421.0,46461.0,16620.0,11188.0
2026-05-06 15:57:46.216428,495491,1609505329697292,2929609583,-1.257088,0.306464,-0.011712,15.35625,-21.77875,37.03875,23.432001,-51.712,-64.976006,eccentric,4,5.0,26431.0,28567.0,56216.0,81736.0,24157.0,35951.0,22421.0,46461.0,16620.0,11188.0
2026-05-06 15:57:46.222660,495492,1609505329706250,2929618304,-1.194624,0.318176,0.02928,14.096251,-20.69375,36.18125,22.640001,-51.832,-64.44,eccentric,4,5.0,26431.0,28567.0,56216.0,81736.0,24157.0,35951.0,22421.0,46461.0,16620.0,11188.0
2026-05-06 15:57:46.239257,495493,1609505329720782,2929633224,-1.194624,0.318176,0.02928,10.045,-19.46875,37.23125,22.640001,-51.832,-64.44,eccentric,4,5.0,26431.0,28567.0,56216.0,81736.0,24157.0,35951.0,22421.0,46461.0,16620.0,11188.0
2026-05-06 15:57:46.244999,495494,1609505329729718,2929641944,-1.198528,0.3416,0.031232,9.35375,-17.43875,37.3975,22.448002,-52.760002,-64.44,eccentric,4,5.0,26431.0,28567.0,56216.0,81736.0,24157.0,35951.0,22421.0,46461.0,16620.0,11188.0
2026-05-06 15:57:46.272603,495505,1609505329744305,2929657034,-1.198528,0.35136,0.011712,4.50625,-17.22875,34.62375,22.448002,-52.760002,-64.44,eccentric,4,5.0,25544.0,27995.0,56968.0,80502.0,23430.0,35396.0,22766.0,45850.0,16159.0,10955.0
2026-05-06 15:57:46.274950,495506,1609505329753295,2929665789,-1.264896,0.35136,0.011712,1.8025,-17.42125,33.232502,21.480001,-54.808002,-64.128006,eccentric,4,5.0,25544.0,27995.0,56968.0,80502.0,23430.0,35396.0,22766.0,45850.0,16159.0,10955.0
2026-05-06 15:57:46.278995,495507,1609505329762339,2929674518,-1.264896,0.35136,0.011712,0.49,-17.45625,32.1475,21.480001,-54.808002,-64.128006,eccentric,4,5.0,25544.0,27995.0,56968.0,80502.0,23430.0,35396.0,22766.0,45850.0,16159.0,10955.0
2026-05-06 15:57:46.292666,495508,1609505329776859,2929689451,-1.204384,0.30256,0.013664,-3.75375,-18.41875,29.61875,20.632002,-54.712,-62.952003,eccentric,4,5.0,25544.0,27995.0,56968.0,80502.0,23430.0,35396.0,22766.0,45850.0,16159.0,10955.0
2026-05-06 15:57:46.302689,495509,1609505329785767,2929698153,-1.221952,0.279136,0.01952,-1.47875,-21.07,27.58,20.0,-55.4,-62.712,eccentric,4,5.0,25544.0,27995.0,56968.0,80502.0,23430.0,35396.0,22766.0,45850.0,16159.0,10955.0
2026-05-06 15:57:46.317530,495510,1609505329800420,2929713112,-1.221952,0.279136,0.01952,6.16875,-20.4225,27.04625,20.0,-55.4,-62.712,eccentric,4,5.0,25544.0,27995.0,56968.0,80502.0,23430.0,35396.0,22766.0,45850.0,16159.0,10955.0
2026-05-06 15:57:46.328121,495511,1609505329809358,2929721819,-1.22976,0.244,0.03904,12.775,-19.50375,27.5275,18.912,-54.072002,-62.528004,eccentric,4,5.0,25544.0,27995.0,56968.0,80502.0,23430.0,35396.0,22766.0,45850.0,16159.0,10955.0
2026-05-06 15:57:46.340096,495512,1609505329823893,2929734777,-1.22976,0.244,0.03904,12.45125,-18.3925,28.88375,18.912,-54.072002,-62.528004,eccentric,4,5.0,25544.0,27995.0,56968.0,80502.0,23430.0,35396.0,22766.0,45850.0,16159.0,10955.0
2026-05-06 15:57:46.375183,495523,1609505329833804,2929745651,-1.216096,0.300608,0.07808,10.87625,-16.28375,31.675,18.36,-55.440002,-61.664,eccentric,4,5.0,24605.0,27606.0,57952.0,79021.0,22595.0,35053.0,23193.0,45090.0,15621.0,10780.0
2026-05-06 15:57:46.377750,495524,1609505329842875,2929754419,-1.216096,0.300608,0.07808,10.47375,-12.5475,32.80375,18.36,-55.440002,-61.664,eccentric,4,5.0,24605.0,27606.0,57952.0,79021.0,22595.0,35053.0,23193.0,45090.0,15621.0,10780.0
2026-05-06 15:57:46.380175,495525,1609505329857436,2929769618,-1.212192,0.324032,0.050752,8.715,-9.96625,31.21125,17.28,-54.472004,-64.12,eccentric,4,5.0,24605.0,27606.0,57952.0,79021.0,22595.0,35053.0,23193.0,45090.0,15621.0,10780.0
2026-05-06 15:57:46.382697,495526,1609505329866428,2929778416,-1.22,0.265472,0.00976,6.4925,-8.91625,28.95375,16.768002,-57.344,-61.24,eccentric,4,5.0,24605.0,27606.0,57952.0,79021.0,22595.0,35053.0,23193.0,45090.0,15621.0,10780.0
2026-05-06 15:57:46.396508,495527,1609505329881000,2929793373,-1.22,0.265472,0.00976,-0.58625,-8.44375,26.215,16.768002,-57.344,-61.24,eccentric,4,5.0,24605.0,27606.0,57952.0,79021.0,22595.0,35053.0,23193.0,45090.0,15621.0,10780.0
2026-05-06 15:57:46.405204,495528,1609505329889910,2929802098,-1.192672,0.222528,-0.007808,-5.8975,-7.7,26.53875,16.184,-54.696003,-63.488003,eccentric,4,5.0,24605.0,27606.0,57952.0,79021.0,22595.0,35053.0,23193.0,45090.0,15621.0,10780.0
2026-05-06 15:57:46.421811,495529,1609505329898877,2929810801,-1.192672,0.222528,-0.007808,-6.27375,-5.7925,27.685,16.184,-54.696003,-63.488003,eccentric,4,5.0,24605.0,27606.0,57952.0,79021.0,22595.0,35053.0,23193.0,45090.0,15621.0,10780.0
2026-05-06 15:57:46.443815,495530,1609505329913382,2929825707,-1.15168,0.210816,0.025376,-6.81625,-4.43625,28.55125,15.504001,-56.416004,-62.224003,eccentric,4,5.0,24605.0,27606.0,57952.0,79021.0,22595.0,35053.0,23193.0,45090.0,15621.0,10780.0
2026-05-06 15:57:46.468864,495531,1609505329922317,2929834427,-1.15168,0.210816,0.025376,-6.09,-2.8,30.065,15.504001,-56.416004,-62.224003,eccentric,4,5.0,24605.0,27606.0,57952.0,79021.0,22595.0,35053.0,23193.0,45090.0,15621.0,10780.0
2026-05-06 15:57:46.509813,495542,1609505329937264,2929849594,-1.116544,0.249856,0.042944,-5.355,-1.56625,31.12375,15.256001,-55.616,-63.424004,eccentric,4,5.0,24231.0,27481.0,58436.0,78334.0,22271.0,34918.0,23414.0,44724.0,15421.0,10742.0
2026-05-06 15:57:46.511143,495543,1609505329946218,2929858289,-1.104832,0.249856,-0.00976,-4.33125,0.175,30.8525,13.208,-54.976,-65.0,eccentric,4,5.0,24231.0,27481.0,58436.0,78334.0,22271.0,34918.0,23414.0,44724.0,15421.0,10742.0
2026-05-06 15:57:46.515340,495544,1609505329955129,2929867114,-1.104832,0.249856,-0.00976,-3.82375,1.4,29.6975,14.240001,-54.976,-65.0,eccentric,4,5.0,24231.0,27481.0,58436.0,78334.0,22271.0,34918.0,23414.0,44724.0,15421.0,10742.0
2026-05-06 15:57:46.516173,495545,1609505329969904,2929882222,-1.091168,0.222528,0.0,-6.90375,1.09375,27.475,13.552001,-54.936,-62.912003,eccentric,4,5.0,24231.0,27481.0,58436.0,78334.0,22271.0,34918.0,23414.0,44724.0,15421.0,10742.0
2026-05-06 15:57:46.518493,495546,1609505329978988,2929890951,-1.091168,0.222528,0.0,-7.3325,-0.0525,27.02875,13.552001,-54.936,-62.912003,eccentric,4,5.0,24231.0,27481.0,58436.0,78334.0,22271.0,34918.0,23414.0,44724.0,15421.0,10742.0
2026-05-06 15:57:46.521321,495547,1609505329993518,2929905995,-1.061888,0.23424,0.00976,-4.17375,-0.91875,26.85375,12.688001,-58.520004,-60.624004,eccentric,4,5.0,24231.0,27481.0,58436.0,78334.0,22271.0,34918.0,23414.0,44724.0,15421.0,10742.0
2026-05-06 15:57:46.523607,495548,1609505330002485,2929914726,-1.061888,0.23424,0.00976,-0.18375,-0.735,26.022501,12.688001,-58.520004,-60.624004,eccentric,4,5.0,24231.0,27481.0,58436.0,78334.0,22271.0,34918.0,23414.0,44724.0,15421.0,10742.0
2026-05-06 15:57:46.526302,495549,1609505330011467,2929923494,-1.042368,0.281088,0.050752,2.24,-0.02625,24.28125,12.56,-59.232002,-62.304005,eccentric,4,5.0,24231.0,27481.0,58436.0,78334.0,22271.0,34918.0,23414.0,44724.0,15421.0,10742.0
2026-05-06 15:57:46.560034,495550,1609505330025932,2929938385,-1.042368,0.281088,0.050752,1.33875,1.0675,22.295,12.56,-59.232002,-62.304005,eccentric,4,5.0,24231.0,27481.0,58436.0,78334.0,22271.0,34918.0,23414.0,44724.0,15421.0,10742.0
2026-05-06 15:57:46.587471,495561,1609505330034925,2929947330,-1.030656,0.294752,-0.003904,-1.35625,2.1,18.99625,11.832001,-55.368004,-64.552,eccentric,4,5.0,23956.0,27350.0,58710.0,77874.0,22019.0,34800.0,23538.0,44478.0,15270.0,10686.0
2026-05-06 15:57:46.589908,495562,1609505330049653,2929962326,-1.03456,0.242048,0.0,-3.8675,2.30125,15.09375,12.008,-55.704002,-63.184002,eccentric,4,5.0,23956.0,27350.0,58710.0,77874.0,22019.0,34800.0,23538.0,44478.0,15270.0,10686.0
2026-05-06 15:57:46.592483,495563,1609505330058596,2929971068,-1.03456,0.242048,0.0,-7.14875,2.2575,13.15125,12.008,-55.704002,-63.184002,eccentric,4,5.0,23956.0,27350.0,58710.0,77874.0,22019.0,34800.0,23538.0,44478.0,15270.0,10686.0
2026-05-06 15:57:46.594916,495564,1609505330073182,2929984042,-1.042368,0.226432,0.011712,-9.93125,2.19625,12.8275,11.336,-57.016003,-61.616,eccentric,4,5.0,23956.0,27350.0,58710.0,77874.0,22019.0,34800.0,23538.0,44478.0,15270.0,10686.0
2026-05-06 15:57:46.597329,495565,1609505330082532,2929994819,-1.042368,0.226432,0.011712,-9.37125,3.01,13.0375,11.336,-57.016003,-61.616,eccentric,4,5.0,23956.0,27350.0,58710.0,77874.0,22019.0,34800.0,23538.0,44478.0,15270.0,10686.0
2026-05-06 15:57:46.611714,495566,1609505330091538,2930003571,-1.0248,0.255712,0.05856,-3.89375,3.71875,13.43125,11.072001,-57.776,-61.960003,eccentric,4,5.0,23956.0,27350.0,58710.0,77874.0,22019.0,34800.0,23538.0,44478.0,15270.0,10686.0
