pc_time,serial_num,sensor_ts,host_ts,ax,ay,az,gx,gy,gz,mx,my,mz,phase,rpe,weight_kg,ppg_a,ppg_b,ppg_c,ppg_d,ppg_e
2026-04-14 17:59:22.124979,664235,1609507055778314,4655748022,0.509472,0.474336,-0.407968,-21.9275,80.92,103.36375,-36.424004,6.456,0.568,eccentric,5,3.0,105347.0,221535.0,163385.0,213059.0,187513.0
2026-04-14 17:59:22.142138,664236,1609507055787246,4655756729,0.616832,0.583648,-0.093696,-17.053751,81.29625,99.81125,-36.456,8.288,2.768,eccentric,5,3.0,105347.0,221535.0,163385.0,213059.0,187513.0
2026-04-14 17:59:22.151140,664237,1609507055801921,4655771619,0.616832,0.583648,-0.093696,-16.397501,82.32875,94.5525,-36.456,8.288,2.768,eccentric,5,3.0,105347.0,221535.0,163385.0,213059.0,187513.0
2026-04-14 17:59:22.165574,664238,1609507055811038,4655780420,0.56608,0.476288,-0.30256,-21.455,86.24,88.59375,-35.152,9.224,3.712,eccentric,5,3.0,105347.0,221535.0,163385.0,213059.0,187513.0
2026-04-14 17:59:22.193242,664249,1609507055825733,4655795392,0.56608,0.472384,-0.261568,-21.49875,81.59375,88.375,-36.096,11.016001,5.28,eccentric,5,3.0,112213.0,229084.0,169892.0,217949.0,192546.0
2026-04-14 17:59:22.195013,664250,1609507055834712,4655804085,0.56608,0.472384,-0.261568,-26.29375,78.47875,91.06125,-36.096,11.016001,5.28,eccentric,5,3.0,112213.0,229084.0,169892.0,217949.0,192546.0
2026-04-14 17:59:22.196191,664251,1609507055843679,4655812851,0.56608,0.472384,-0.261568,-11.43625,73.325,91.16625,-36.096,11.016001,5.28,eccentric,5,3.0,112213.0,229084.0,169892.0,217949.0,192546.0
2026-04-14 17:59:22.210943,664252,1609507055858173,4655827764,0.665632,0.474336,-0.113216,-5.0925,73.49125,85.12875,-35.992,11.256001,3.312,eccentric,5,3.0,112213.0,229084.0,169892.0,217949.0,192546.0
2026-04-14 17:59:22.221444,664253,1609507055867117,4655836484,0.763232,0.50752,0.040992,-8.085,71.2075,82.39,-34.264,12.632001,6.024,eccentric,5,3.0,112213.0,229084.0,169892.0,217949.0,192546.0
2026-04-14 17:59:22.228708,664254,1609507055881649,4655851454,0.763232,0.50752,0.040992,-11.57625,71.68,81.9525,-34.264,12.632001,6.024,eccentric,5,3.0,112213.0,229084.0,169892.0,217949.0,192546.0
2026-04-14 17:59:22.238636,664255,1609507055890597,4655860183,0.696864,0.38064,-0.128832,-18.27,70.9625,80.2025,-32.896,12.960001,5.696,eccentric,5,3.0,112213.0,229084.0,169892.0,217949.0,192546.0
2026-04-14 17:59:22.252523,664256,1609507055905108,4655875112,0.739808,0.335744,0.099552,-21.4725,65.19625,77.86625,-32.896,12.960001,6.888001,eccentric,5,3.0,112213.0,229084.0,169892.0,217949.0,192546.0
2026-04-14 17:59:22.359887,664267,1609507055914653,4655884306,0.739808,0.335744,0.099552,-20.5975,59.50875,72.73875,-32.408,13.936001,6.888001,eccentric,5,3.0,102466.0,232390.0,156338.0,220675.0,179004.0
2026-04-14 17:59:22.362648,664268,1609507055923771,4655893153,0.739808,0.335744,0.099552,-16.695,51.61625,68.06625,-32.408,13.936001,6.888001,eccentric,5,3.0,102466.0,232390.0,156338.0,220675.0,179004.0
2026-04-14 17:59:22.365100,664269,1609507055938286,4655908089,0.739808,0.35136,0.148352,-11.12125,45.07125,63.58625,-32.632,14.728001,8.464001,eccentric,5,3.0,102466.0,232390.0,156338.0,220675.0,179004.0
2026-04-14 17:59:22.367678,664270,1609507055947193,4655916756,0.77104,0.267424,-0.035136,-12.18,39.20875,57.63625,-32.304,15.592001,8.08,eccentric,5,3.0,102466.0,232390.0,156338.0,220675.0,179004.0
2026-04-14 17:59:22.370171,664271,1609507055961705,4655931691,0.77104,0.267424,-0.035136,-15.645,32.36625,53.3225,-32.304,15.592001,8.08,eccentric,5,3.0,102466.0,232390.0,156338.0,220675.0,179004.0
2026-04-14 17:59:22.372708,664272,1609507055970682,4655940378,0.689056,0.33184,0.005856,-16.84375,30.0125,48.58875,-31.224,15.768001,7.368001,eccentric,5,3.0,102466.0,232390.0,156338.0,220675.0,179004.0
2026-04-14 17:59:22.375127,664273,1609507055979639,4655949089,0.689056,0.33184,0.005856,-18.24375,25.48875,41.405,-31.224,15.768001,7.368001,eccentric,5,3.0,102466.0,232390.0,156338.0,220675.0,179004.0
2026-04-14 17:59:22.377695,664274,1609507055994170,4655963959,0.6832,0.251808,-0.050752,-20.25625,22.65375,36.12875,-30.680002,16.128,7.384,eccentric,5,3.0,102466.0,232390.0,156338.0,220675.0,179004.0
2026-04-14 17:59:22.380134,664275,1609507056003155,4655972636,0.6832,0.251808,-0.050752,-19.18,18.17375,31.01875,-30.680002,16.128,7.384,eccentric,5,3.0,102466.0,232390.0,156338.0,220675.0,179004.0
2026-04-14 17:59:22.408077,664286,1609507056017931,4655987680,0.708576,0.228384,0.05856,-15.627501,10.47375,24.0625,-30.680002,16.68,7.224001,eccentric,5,3.0,100446.0,229552.0,153338.0,217593.0,176063.0
2026-04-14 17:59:22.410087,664287,1609507056026902,4655996436,0.687104,0.308416,-0.054656,-8.19,5.74,17.80625,-30.28,16.512001,7.72,eccentric,5,3.0,100446.0,229552.0,153338.0,217593.0,176063.0
2026-04-14 17:59:22.412970,664288,1609507056035866,4656005163,0.687104,0.308416,-0.054656,-2.0825,2.6775,12.2325,-30.28,16.512001,7.72,eccentric,5,3.0,100446.0,229552.0,153338.0,217593.0,176063.0
2026-04-14 17:59:22.415482,664289,1609507056050467,4656020207,0.765184,0.28304,0.140544,-1.25125,0.0525,6.8075,-30.520002,16.480001,7.152,eccentric,5,3.0,100446.0,229552.0,153338.0,217593.0,176063.0
2026-04-14 17:59:22.417980,664290,1609507056059581,4656028947,0.765184,0.28304,0.140544,-2.8875,-2.70375,1.37375,-30.520002,16.480001,7.152,eccentric,5,3.0,100446.0,229552.0,153338.0,217593.0,176063.0
2026-04-14 17:59:22.424271,664291,1609507056074163,4656043852,0.79056,0.28304,0.13664,-4.73375,-6.3,-5.22375,-30.152002,16.472,7.448,eccentric,5,3.0,100446.0,229552.0,153338.0,217593.0,176063.0
2026-04-14 17:59:22.433982,664292,1609507056083177,4656052632,0.79056,0.28304,0.13664,-3.85,-11.05125,-8.05,-30.152002,16.472,7.448,eccentric,5,3.0,100446.0,229552.0,153338.0,217593.0,176063.0
2026-04-14 17:59:22.445425,664293,1609507056097652,4656067585,0.813984,0.275232,0.035136,-1.70625,-14.8225,-11.3925,-30.824001,16.848001,7.256001,eccentric,5,3.0,100446.0,229552.0,153338.0,217593.0,176063.0
2026-04-14 17:59:22.454937,664294,1609507056106662,4656076286,0.808128,0.290848,-0.003904,-2.79125,-18.34,-16.70375,-30.824001,16.832,7.424,eccentric,5,3.0,100446.0,229552.0,153338.0,217593.0,176063.0
2026-04-14 17:59:22.486395,664305,1609507056116118,4656085495,0.808128,0.290848,-0.003904,-4.55,-23.8525,-18.83,-31.192001,16.832,7.424,eccentric,5,3.0,101689.0,232566.0,155736.0,220596.0,178620.0
2026-04-14 17:59:22.489216,664306,1609507056130756,4656100491,0.831552,0.31232,-0.089792,-3.19375,-26.7925,-20.20375,-32.184002,16.664001,7.016,eccentric,5,3.0,101689.0,232566.0,155736.0,220596.0,178620.0
2026-04-14 17:59:22.491719,664307,1609507056139946,4656109262,0.831552,0.31232,-0.089792,1.19,-25.0075,-24.08,-32.184002,16.664001,7.016,eccentric,5,3.0,101689.0,232566.0,155736.0,220596.0,178620.0
2026-04-14 17:59:22.496727,664308,1609507056148914,4656118073,0.798368,0.30256,-0.10736,2.5025,-26.5125,-28.595,-31.304,15.928,6.176,eccentric,5,3.0,101689.0,232566.0,155736.0,220596.0,178620.0
2026-04-14 17:59:22.511710,664309,1609507056163458,4656132998,0.798368,0.30256,-0.10736,1.4175,-28.07,-31.395,-31.304,15.928,6.176,eccentric,5,3.0,101689.0,232566.0,155736.0,220596.0,178620.0
2026-04-14 17:59:22.518564,664310,1609507056172389,4656141740,0.85888,0.335744,-0.021472,3.85875,-29.54,-31.7275,-31.736002,15.272,6.296001,eccentric,5,3.0,101689.0,232566.0,155736.0,220596.0,178620.0
2026-04-14 17:59:22.535296,664311,1609507056186906,4656156639,0.786656,0.3904,-0.064416,6.46625,-32.24375,-32.40125,-31.736002,15.272,4.0,eccentric,5,3.0,101689.0,232566.0,155736.0,220596.0,178620.0
2026-04-14 17:59:22.545247,664312,1609507056195789,4656165321,0.786656,0.3904,-0.064416,6.29125,-34.55375,-36.0675,-32.272003,15.064001,4.0,eccentric,5,3.0,101689.0,232566.0,155736.0,220596.0,178620.0
2026-04-14 17:59:22.557954,664313,1609507056210372,4656180315,0.76128,0.38064,-0.228384,4.62875,-36.96875,-37.44125,-32.744003,14.488001,6.2,eccentric,5,3.0,101689.0,232566.0,155736.0,220596.0,178620.0
2026-04-14 17:59:22.586761,664324,1609507056219471,4656189073,0.76128,0.38064,-0.228384,5.69625,-37.61625,-37.1875,-32.744003,14.488001,6.2,eccentric,5,3.0,99863.0,232784.0,155094.0,221061.0,178337.0
2026-04-14 17:59:22.589293,664325,1609507056228568,4656197773,0.798368,0.40016,0.056608,8.5925,-38.33375,-38.745,-32.928,13.728001,5.032,eccentric,5,3.0,99863.0,232784.0,155094.0,221061.0,178337.0
2026-04-14 17:59:22.591745,664326,1609507056243179,4656212729,0.798368,0.40016,0.056608,12.29375,-40.355,-40.13625,-32.928,13.728001,5.032,eccentric,5,3.0,99863.0,232784.0,155094.0,221061.0,178337.0
2026-04-14 17:59:22.601767,664327,1609507056252306,4656221438,0.806176,0.411872,-0.007808,12.792501,-41.62375,-41.99125,-33.24,13.096001,4.144,eccentric,5,3.0,99863.0,232784.0,155094.0,221061.0,178337.0
2026-04-14 17:59:22.615045,664328,1609507056266861,4656236325,0.806176,0.411872,-0.163968,11.57625,-45.07125,-44.3275,-33.24,13.096001,4.144,eccentric,5,3.0,99863.0,232784.0,155094.0,221061.0,178337.0
2026-04-14 17:59:22.623979,664329,1609507056275794,4656245038,0.69296,0.47824,-0.169824,11.06,-46.73375,-46.54125,-33.232002,12.72,3.28,eccentric,5,3.0,99863.0,232784.0,155094.0,221061.0,178337.0
2026-04-14 17:59:22.631568,664330,1609507056284870,4656253736,0.69296,0.47824,-0.169824,9.31,-48.265,-47.92375,-33.232002,12.72,3.28,eccentric,5,3.0,99863.0,232784.0,155094.0,221061.0,178337.0
2026-04-14 17:59:22.664122,664331,1609507056299420,4656268614,0.753472,0.445056,-0.115168,7.41125,-48.79,-49.4375,-33.792,12.264001,4.24,eccentric,5,3.0,99863.0,232784.0,155094.0,221061.0,178337.0
2026-04-14 17:59:22.688889,664332,1609507056308339,4656277281,0.704672,0.423584,-0.23424,10.85875,-49.58625,-51.345,-34.920002,11.936001,3.752,eccentric,5,3.0,99863.0,232784.0,155094.0,221061.0,178337.0
2026-04-14 17:59:22.716510,664343,1609507056323039,4656292680,0.704672,0.423584,-0.23424,13.58875,-50.33,-53.90875,-34.920002,11.936001,3.752,eccentric,5,3.0,98639.0,228696.0,155045.0,217885.0,178384.0
2026-04-14 17:59:22.718761,664344,1609507056331995,4656301403,0.69296,0.482144,-0.238144,16.24,-52.99,-56.0175,-35.480003,11.184001,3.288,eccentric,5,3.0,98639.0,228696.0,155045.0,217885.0,178384.0
2026-04-14 17:59:22.721468,664345,1609507056346528,4656316351,0.69296,0.482144,-0.238144,17.115,-56.245,-58.03875,-35.480003,11.184001,3.288,eccentric,5,3.0,98639.0,228696.0,155045.0,217885.0,178384.0
2026-04-14 17:59:22.724071,664346,1609507056355464,4656325134,0.698816,0.515328,-0.275232,15.365,-58.3275,-60.66375,-36.0,10.816001,3.248,eccentric,5,3.0,98639.0,228696.0,155045.0,217885.0,178384.0
2026-04-14 17:59:22.726645,664347,1609507056364491,4656333896,0.698816,0.515328,-0.275232,11.03375,-61.76625,-62.055,-36.0,10.816001,3.248,eccentric,5,3.0,98639.0,228696.0,155045.0,217885.0,178384.0
2026-04-14 17:59:22.730139,664348,1609507056379063,4656348886,0.669536,0.515328,-0.183488,10.40375,-61.08375,-61.74,-36.592003,9.632001,2.32,eccentric,5,3.0,98639.0,228696.0,155045.0,217885.0,178384.0
2026-04-14 17:59:22.737333,664349,1609507056388109,4656357618,0.669536,0.50752,-0.306464,13.85125,-59.228752,-63.665,-36.592003,9.632001,0.272,eccentric,5,3.0,98639.0,228696.0,155045.0,217885.0,178384.0
2026-04-14 17:59:22.750385,664350,1609507056402621,4656372603,0.599264,0.50752,-0.306464,17.24625,-60.0075,-68.1275,-36.864002,9.264001,0.072,eccentric,5,3.0,98639.0,228696.0,155045.0,217885.0,178384.0
2026-04-14 17:59:22.759952,664351,1609507056411557,4656381303,0.610976,0.540704,-0.251808,19.29375,-61.7925,-69.7375,-36.616,8.168,-0.256,eccentric,5,3.0,98639.0,228696.0,155045.0,217885.0,178384.0
2026-04-14 17:59:22.796567,664362,1609507056420743,4656390075,0.610976,0.540704,-0.251808,17.54375,-64.09375,-70.13125,-36.616,8.168,-0.256,eccentric,5,3.0,96597.0,224053.0,153684.0,214637.0,177189.0
2026-04-14 17:59:22.797495,664363,1609507056435479,4656405109,0.55632,0.591456,-0.443104,13.3175,-67.6375,-72.0475,-36.368,6.432,-3.056,eccentric,5,3.0,96597.0,224053.0,153684.0,214637.0,177189.0
2026-04-14 17:59:22.808390,664364,1609507056444419,4656413813,0.55632,0.591456,-0.443104,12.94125,-70.21875,-74.558754,-36.368,6.432,-3.056,eccentric,5,3.0,96597.0,224053.0,153684.0,214637.0,177189.0
2026-04-14 17:59:22.808476,664365,1609507056458987,4656428876,0.618784,0.511424,-0.257664,9.10875,-70.51625,-76.39625,-36.616,5.776001,-2.28,eccentric,5,3.0,96597.0,224053.0,153684.0,214637.0,177189.0
2026-04-14 17:59:22.816598,664366,1609507056467991,4656437623,0.618784,0.511424,-0.257664,9.28375,-71.75,-74.2,-36.616,5.776001,-2.28,eccentric,5,3.0,96597.0,224053.0,153684.0,214637.0,177189.0
2026-04-14 17:59:22.831608,664367,1609507056482479,4656452716,0.482144,0.56608,-0.427488,18.26125,-70.56,-75.13625,-36.832,5.416,-1.736,eccentric,5,3.0,96597.0,224053.0,153684.0,214637.0,177189.0
2026-04-14 17:59:22.839204,664368,1609507056491495,4656461429,0.437248,0.620736,-0.433344,25.27,-69.0375,-81.47125,-36.808002,4.072,-3.832,eccentric,5,3.0,96597.0,224053.0,153684.0,214637.0,177189.0
2026-04-14 17:59:22.849257,664369,1609507056500467,4656470164,0.437248,0.620736,-0.433344,24.24625,-71.98625,-85.18125,-36.808002,4.072,-3.832,eccentric,5,3.0,96597.0,224053.0,153684.0,214637.0,177189.0
2026-04-14 17:59:22.892698,664380,1609507056515077,4656485376,0.441152,0.671488,-0.394304,18.96125,-75.78375,-83.71125,-38.224003,3.44,-4.648,eccentric,5,3.0,93733.0,218504.0,150667.0,210275.0,173999.0
2026-04-14 17:59:22.896932,664381,1609507056524073,4656494097,0.441152,0.671488,-0.394304,14.04375,-80.1325,-83.02875,-38.224003,3.44,-4.648,eccentric,5,3.0,93733.0,218504.0,150667.0,210275.0,173999.0
2026-04-14 17:59:22.897478,664382,1609507056538605,4656507084,0.402112,0.626592,-0.486048,13.965,-83.2475,-83.265,-37.872,2.256,-4.52,eccentric,5,3.0,93733.0,218504.0,150667.0,210275.0,173999.0
2026-04-14 17:59:22.899938,664383,1609507056547961,4656517935,0.402112,0.626592,-0.486048,17.185,-79.695,-84.11375,-37.872,2.256,-4.52,eccentric,5,3.0,93733.0,218504.0,150667.0,210275.0,173999.0
2026-04-14 17:59:22.905462,664384,1609507056556907,4656526640,0.407968,0.642208,-0.51728,20.09875,-77.35,-86.3625,-38.192,1.176,-7.68,eccentric,5,3.0,93733.0,218504.0,150667.0,210275.0,173999.0
2026-04-14 17:59:22.921302,664385,1609507056571398,4656541552,0.296704,0.720288,-0.450912,21.11375,-76.895,-89.73125,-37.264,0.096,-6.960001,eccentric,5,3.0,93733.0,218504.0,150667.0,210275.0,173999.0
2026-04-14 17:59:22.927450,664386,1609507056580340,4656550316,0.296704,0.720288,-0.450912,17.7625,-79.31,-91.4725,-37.264,0.096,-6.960001,eccentric,5,3.0,93733.0,218504.0,150667.0,210275.0,173999.0
2026-04-14 17:59:22.942321,664387,1609507056594909,4656565250,0.2928,0.677344,-0.480192,12.08375,-84.13125,-90.11625,-37.320004,-0.856,-7.656,eccentric,5,3.0,93733.0,218504.0,150667.0,210275.0,173999.0
2026-04-14 17:59:22.954640,664388,1609507056603844,4656573934,0.2928,0.677344,-0.480192,12.46875,-87.47375,-87.05375,-37.320004,-0.856,-7.656,eccentric,5,3.0,93733.0,218504.0,150667.0,210275.0,173999.0
2026-04-14 17:59:23.056255,664399,1609507056618718,4656588863,0.261568,0.733952,-0.571936,19.45125,-88.10375,-87.7625,-37.496002,-1.888,-9.856001,eccentric,5,3.0,85896.0,208815.0,140479.0,201591.0,162494.0
2026-04-14 17:59:23.059352,664400,1609507056627743,4656597599,0.261568,0.733952,-0.571936,27.1775,-88.6375,-89.9675,-37.496002,-1.888,-9.856001,eccentric,5,3.0,85896.0,208815.0,140479.0,201591.0,162494.0
2026-04-14 17:59:23.061290,664401,1609507056636752,4656606321,0.2928,0.75152,-0.503616,31.98125,-84.035,-91.1575,-36.032,-3.096,-12.320001,eccentric,5,3.0,85896.0,208815.0,140479.0,201591.0,162494.0
2026-04-14 17:59:23.064265,664402,1609507056651439,4656621259,0.232288,0.782752,-0.476288,27.9125,-82.85375,-91.48125,-36.04,-3.976,-11.896001,eccentric,5,3.0,85896.0,208815.0,140479.0,201591.0,162494.0
2026-04-14 17:59:23.066736,664403,1609507056660462,4656629944,0.232288,0.782752,-0.476288,18.515,-85.28625,-90.79875,-36.04,-3.976,-11.896001,eccentric,5,3.0,85896.0,208815.0,140479.0,201591.0,162494.0
2026-04-14 17:59:23.069250,664404,1609507056675023,4656644881,0.191296,0.698816,-0.577792,9.415,-85.6625,-90.9125,-35.816,-4.984,-12.216001,eccentric,5,3.0,85896.0,208815.0,140479.0,201591.0,162494.0
2026-04-14 17:59:23.074233,664405,1609507056684071,4656653597,0.191296,0.698816,-0.577792,10.0625,-87.4825,-89.775,-35.816,-4.984,-12.216001,eccentric,5,3.0,85896.0,208815.0,140479.0,201591.0,162494.0
2026-04-14 17:59:23.076301,664406,1609507056693109,4656662290,0.105408,0.728096,-0.841312,18.585001,-82.915,-90.48375,-35.872,-5.416,-13.152,eccentric,5,3.0,85896.0,208815.0,140479.0,201591.0,162494.0
2026-04-14 17:59:23.078731,664407,1609507056707616,4656677167,0.105408,0.728096,-0.841312,24.24625,-81.52375,-93.51125,-35.872,-5.416,-13.152,eccentric,5,3.0,85896.0,208815.0,140479.0,201591.0,162494.0
2026-04-14 17:59:23.081741,664408,1609507056716667,4656685906,0.060512,0.794464,-0.636352,27.64125,-76.81625,-93.89625,-35.640003,-6.184001,-13.936001,eccentric,5,3.0,85896.0,208815.0,140479.0,201591.0,162494.0
2026-04-14 17:59:23.108775,664419,1609507056731172,4656700853,0.03904,0.765184,-0.66368,20.88625,-74.0075,-96.94125,-35.176003,-7.608,-15.592001,eccentric,5,3.0,61823.0,188686.0,113217.0,184368.0,131679.0
2026-04-14 17:59:23.111351,664420,1609507056740112,4656709555,0.03904,0.765184,-0.66368,5.9325,-82.67,-97.34375,-35.176003,-7.608,-15.592001,eccentric,5,3.0,61823.0,188686.0,113217.0,184368.0,131679.0
2026-04-14 17:59:23.113631,664421,1609507056749137,4656718329,0.03904,0.765184,-0.66368,-1.07625,-83.86,-94.64875,-35.176003,-7.608,-15.592001,eccentric,5,3.0,61823.0,188686.0,113217.0,184368.0,131679.0
2026-04-14 17:59:23.116305,664422,1609507056763701,4656733261,-0.044896,0.745664,-0.841312,-0.86625,-87.47375,-96.38125,-34.296,-8.88,-15.52,eccentric,5,3.0,61823.0,188686.0,113217.0,184368.0,131679.0
2026-04-14 17:59:23.121281,664423,1609507056772750,4656741968,-0.074176,0.827648,-0.778848,8.0325,-84.88375,-97.41375,-33.848003,-8.864,-15.872001,eccentric,5,3.0,61823.0,188686.0,113217.0,184368.0,131679.0
2026-04-14 17:59:23.135099,664424,1609507056787391,4656756846,-0.074176,0.827648,-0.778848,15.0675,-83.06375,-97.06375,-33.848003,-8.864,-15.872001,eccentric,5,3.0,61823.0,188686.0,113217.0,184368.0,131679.0
2026-04-14 17:59:23.143646,664425,1609507056796424,4656765559,-0.138592,0.774944,-0.581696,21.97125,-77.32375,-94.36,-31.688002,-10.512,-18.400002,eccentric,5,3.0,61823.0,188686.0,113217.0,184368.0,131679.0
2026-04-14 17:59:23.159996,664426,1609507056810965,4656780463,-0.138592,0.80032,-0.788608,15.18125,-75.41625,-94.45625,-31.688002,-10.512,-20.448002,eccentric,5,3.0,61823.0,188686.0,113217.0,184368.0,131679.0
2026-04-14 17:59:23.193585,664437,1609507056820070,4656789393,-0.142496,0.80032,-0.788608,1.11125,-82.99375,-92.39125,-30.800001,-11.440001,-19.184,eccentric,5,3.0,54109.0,184910.0,104352.0,180541.0,120808.0
2026-04-14 17:59:23.196386,664438,1609507056829146,4656798280,-0.142496,0.80032,-0.788608,2.1875,-81.97875,-88.87375,-30.800001,-11.440001,-19.184,eccentric,5,3.0,54109.0,184910.0,104352.0,180541.0,120808.0
2026-04-14 17:59:23.198877,664439,1609507056843691,4656813235,-0.21472,0.81984,-0.735904,10.955,-81.20875,-90.965004,-30.888002,-11.824,-18.576,eccentric,5,3.0,54109.0,184910.0,104352.0,180541.0,120808.0
2026-04-14 17:59:23.201412,664440,1609507056852660,4656821972,-0.244,0.923296,-0.89792,12.705,-81.80375,-91.70875,-30.088001,-13.200001,-18.480001,eccentric,5,3.0,54109.0,184910.0,104352.0,180541.0,120808.0
2026-04-14 17:59:23.217733,664441,1609507056867151,4656836894,-0.244,0.923296,-0.89792,2.6075,-84.81375,-88.22625,-30.088001,-13.200001,-18.480001,eccentric,5,3.0,54109.0,184910.0,104352.0,180541.0,120808.0
2026-04-14 17:59:23.226232,664442,1609507056876080,4656845594,-0.244,0.769088,-0.648064,-1.9425,-81.6725,-84.402504,-28.592001,-13.52,-20.888,eccentric,5,3.0,54109.0,184910.0,104352.0,180541.0,120808.0
2026-04-14 17:59:23.232753,664443,1609507056885011,4656854301,-0.244,0.769088,-0.648064,-5.1625,-79.3625,-84.9975,-28.592001,-13.52,-20.888,eccentric,5,3.0,54109.0,184910.0,104352.0,180541.0,120808.0
2026-04-14 17:59:23.247810,664444,1609507056899416,4656869228,-0.329888,0.743712,-0.8296,-4.655,-77.32375,-83.81625,-27.704,-14.208001,-21.480001,eccentric,5,3.0,54109.0,184910.0,104352.0,180541.0,120808.0
2026-04-14 17:59:23.256478,664445,1609507056908345,4656877901,-0.329888,0.743712,-0.8296,7.98875,-70.665,-81.3925,-27.704,-14.208001,-21.480001,eccentric,5,3.0,54109.0,184910.0,104352.0,180541.0,120808.0
2026-04-14 17:59:23.296399,664456,1609507056923030,4656892889,-0.288896,0.88816,-0.689056,19.69625,-66.66625,-83.1775,-26.224,-14.936001,-23.248001,eccentric,5,3.0,47081.0,178649.0,96100.0,175306.0,111434.0
2026-04-14 17:59:23.298832,664457,1609507056932017,4656901691,-0.286944,0.9272,-0.71248,21.0875,-68.53,-83.93,-26.224,-15.344001,-26.352001,eccentric,5,3.0,47081.0,178649.0,96100.0,175306.0,111434.0
2026-04-14 17:59:23.301406,664458,1609507056946580,4656916619,-0.286944,0.9272,-0.71248,13.37875,-69.8075,-82.2325,-25.080002,-15.344001,-26.352001,eccentric,5,3.0,47081.0,178649.0,96100.0,175306.0,111434.0
2026-04-14 17:59:23.303913,664459,1609507056955703,4656925337,-0.249856,0.794464,-0.552416,-6.23,-73.96375,-82.845,-23.728,-15.888001,-24.232,eccentric,5,3.0,47081.0,178649.0,96100.0,175306.0,111434.0
2026-04-14 17:59:23.311294,664460,1609507056964781,4656934085,-0.249856,0.794464,-0.552416,-15.408751,-75.005,-79.9925,-23.728,-15.888001,-24.232,eccentric,5,3.0,47081.0,178649.0,96100.0,175306.0,111434.0
2026-04-14 17:59:23.327480,664461,1609507056979255,4656949042,-0.3416,0.69296,-0.52704,-8.5925,-70.7175,-80.59625,-22.816002,-16.512001,-24.752,eccentric,5,3.0,47081.0,178649.0,96100.0,175306.0,111434.0
2026-04-14 17:59:23.336663,664462,1609507056988217,4656957768,-0.3416,0.69296,-0.52704,3.73625,-66.45625,-82.635,-22.816002,-16.512001,-24.752,eccentric,5,3.0,47081.0,178649.0,96100.0,175306.0,111434.0
2026-04-14 17:59:23.351753,664463,1609507057002938,4656972888,-0.415776,0.864736,-0.882304,17.605,-62.326252,-81.13,-21.68,-16.712,-25.656002,eccentric,5,3.0,47081.0,178649.0,96100.0,175306.0,111434.0
2026-04-14 17:59:23.359113,664464,1609507057012004,4656981621,-0.415776,0.864736,-0.772992,24.57,-61.66125,-80.84125,-21.68,-16.712,-25.656002,eccentric,5,3.0,47081.0,178649.0,96100.0,175306.0,111434.0
2026-04-14 17:59:23.443763,664475,1609507057021104,4656990515,-0.427488,0.837408,-0.772992,18.7075,-62.16,-82.433754,-20.336,-17.136002,-26.264002,eccentric,5,3.0,43729.0,174406.0,92273.0,172237.0,107411.0
2026-04-14 17:59:23.446288,664476,1609507057035693,4657005497,-0.415776,0.691008,-0.732,-0.875,-67.26125,-82.285,-19.52,-17.536001,-26.592001,eccentric,5,3.0,43729.0,174406.0,92273.0,172237.0,107411.0
2026-04-14 17:59:23.449053,664477,1609507057044635,4657014197,-0.415776,0.691008,-0.732,-10.6575,-67.54125,-78.505,-19.52,-17.536001,-26.592001,eccentric,5,3.0,43729.0,174406.0,92273.0,172237.0,107411.0
2026-04-14 17:59:23.454272,664478,1609507057059133,4657029104,-0.513376,0.630496,-0.831552,-2.21375,-63.37625,-80.07125,-18.088001,-17.912,-26.256,eccentric,5,3.0,43729.0,174406.0,92273.0,172237.0,107411.0
2026-04-14 17:59:23.456768,664479,1609507057068224,4657037798,-0.513376,0.630496,-0.831552,11.92625,-61.0225,-81.52375,-18.088001,-17.912,-26.256,eccentric,5,3.0,43729.0,174406.0,92273.0,172237.0,107411.0
2026-04-14 17:59:23.459311,664480,1609507057077176,4657046471,-0.640256,0.759328,-0.778848,27.8425,-56.00875,-78.30375,-17.752,-17.616001,-26.344002,eccentric,5,3.0,43729.0,174406.0,92273.0,172237.0,107411.0
2026-04-14 17:59:23.464124,664481,1609507057091658,4657061389,-0.640256,0.759328,-0.778848,28.02625,-56.805,-77.9975,-17.752,-17.616001,-26.344002,eccentric,5,3.0,43729.0,174406.0,92273.0,172237.0,107411.0
2026-04-14 17:59:23.464459,664482,1609507057100606,4657070114,-0.657824,0.794464,-0.798368,16.975,-59.01875,-77.30625,-16.824001,-17.968,-26.736002,eccentric,5,3.0,43729.0,174406.0,92273.0,172237.0,107411.0
2026-04-14 17:59:23.469720,664483,1609507057115288,4657085032,-0.601216,0.665632,-0.620736,4.57625,-60.83,-75.46875,-15.408001,-18.312,-27.328001,eccentric,5,3.0,43729.0,174406.0,92273.0,172237.0,107411.0
2026-04-14 17:59:23.501376,664494,1609507057124365,4657093868,-0.601216,0.665632,-0.620736,-3.815,-63.11375,-75.3725,-15.408001,-18.312,-27.328001,eccentric,5,3.0,41177.0,174551.0,87718.0,172096.0,101910.0
2026-04-14 17:59:23.503879,664495,1609507057138980,4657108768,-0.626592,0.554368,-0.667584,3.49125,-59.3425,-73.59625,-14.176001,-18.048,-27.584002,eccentric,5,3.0,41177.0,174551.0,87718.0,172096.0,101910.0
2026-04-14 17:59:23.506394,664496,1609507057147897,4657117454,-0.626592,0.554368,-0.667584,14.525,-54.76625,-72.96625,-14.176001,-18.048,-27.584002,eccentric,5,3.0,41177.0,174551.0,87718.0,172096.0,101910.0
2026-04-14 17:59:23.508955,664497,1609507057156952,4657126213,-0.6832,0.724192,-0.720288,21.0,-52.05375,-70.175,-13.312,-18.056002,-27.04,eccentric,5,3.0,41177.0,174551.0,87718.0,172096.0,101910.0
2026-04-14 17:59:23.520214,664498,1609507057171392,4657141341,-0.6832,0.724192,-0.720288,23.2225,-51.826252,-67.76875,-13.312,-18.056002,-27.04,eccentric,5,3.0,41177.0,174551.0,87718.0,172096.0,101910.0
2026-04-14 17:59:23.527638,664499,1609507057180313,4657150147,-0.765184,0.71248,-0.700768,22.0325,-52.3075,-66.6225,-12.584001,-18.392,-28.680002,eccentric,5,3.0,41177.0,174551.0,87718.0,172096.0,101910.0
2026-04-14 17:59:23.543922,664500,1609507057194868,4657165038,-0.720288,0.62464,-0.691008,13.36125,-51.8525,-64.82875,-10.872001,-18.712002,-31.104002,eccentric,5,3.0,41177.0,174551.0,87718.0,172096.0,101910.0
2026-04-14 17:59:23.553914,664501,1609507057203843,4657173743,-0.720288,0.62464,-0.691008,5.53,-51.05625,-59.9375,-10.872001,-18.712002,-31.104002,eccentric,5,3.0,41177.0,174551.0,87718.0,172096.0,101910.0
2026-04-14 17:59:23.566355,664502,1609507057218386,4657188682,-0.823744,0.675392,-0.642208,10.87625,-47.355,-56.02625,-10.352,-18.528002,-29.168001,eccentric,5,3.0,41177.0,174551.0,87718.0,172096.0,101910.0
2026-04-14 17:59:23.597353,664513,1609507057227388,4657197504,-0.823744,0.675392,-0.642208,19.15375,-43.4,-56.91875,-10.352,-18.528002,-29.168001,concentric,5,3.0,36127.0,172950.0,80704.0,170840.0,94195.0
2026-04-14 17:59:23.600272,664514,1609507057236371,4657206243,-0.71248,0.743712,-0.470432,17.15,-40.53875,-57.4875,-9.240001,-18.088001,-29.264002,concentric,5,3.0,36127.0,172950.0,80704.0,170840.0,94195.0
2026-04-14 17:59:23.623816,664515,1609507057250891,4657221156,-0.71248,0.743712,-0.470432,8.37375,-41.15125,-56.0875,-9.240001,-18.088001,-29.264002,concentric,5,3.0,36127.0,172950.0,80704.0,170840.0,94195.0
2026-04-14 17:59:23.633947,664516,1609507057259882,4657229909,-0.70272,0.657824,-0.69296,2.3625,-40.97625,-54.9675,-8.496,-18.272001,-29.288002,concentric,5,3.0,36127.0,172950.0,80704.0,170840.0,94195.0
2026-04-14 17:59:23.636436,664517,1609507057274355,4657242766,-0.650016,0.691008,-0.704672,1.40875,-40.60875,-55.13375,-7.568,-18.184,-28.504002,concentric,5,3.0,36127.0,172950.0,80704.0,170840.0,94195.0
2026-04-14 17:59:23.638758,664518,1609507057283624,4657253527,-0.650016,0.691008,-0.704672,3.6925,-41.37875,-54.8975,-7.568,-18.184,-28.504002,concentric,5,3.0,36127.0,172950.0,80704.0,170840.0,94195.0
2026-04-14 17:59:23.641282,664519,1609507057292576,4657262207,-0.650016,0.691008,-0.704672,8.11125,-42.3675,-53.9875,-7.568,-18.184,-28.504002,concentric,5,3.0,36127.0,172950.0,80704.0,170840.0,94195.0
2026-04-14 17:59:23.653975,664520,1609507057307175,4657277160,-0.745664,0.685152,-0.587552,7.525,-43.8025,-54.425,-6.992,-18.632,-31.600002,concentric,5,3.0,36127.0,172950.0,80704.0,170840.0,94195.0
2026-04-14 17:59:23.666244,664521,1609507057316238,4657285930,-0.759328,0.587552,-0.638304,1.30375,-45.605,-52.80625,-5.248,-18.464,-31.880001,concentric,5,3.0,36127.0,172950.0,80704.0,170840.0,94195.0
2026-04-14 17:59:23.696221,664532,1609507057330928,4657300911,-0.759328,0.587552,-0.638304,0.2625,-43.0325,-49.23625,-5.248,-18.464,-31.880001,concentric,5,3.0,36746.0,173276.0,81344.0,170804.0,94982.0
2026-04-14 17:59:23.698724,664533,1609507057339901,4657309665,-0.80032,0.610976,-0.616832,-0.48125,-41.265,-48.13375,-4.144,-18.536001,-31.024002,concentric,5,3.0,36746.0,173276.0,81344.0,170804.0,94982.0
2026-04-14 17:59:23.701085,664534,1609507057348856,4657318382,-0.80032,0.610976,-0.616832,1.89875,-40.15375,-45.22,-4.144,-18.536001,-31.024002,concentric,5,3.0,36746.0,173276.0,81344.0,170804.0,94982.0
2026-04-14 17:59:23.711731,664535,1609507057363376,4657333272,-0.903776,0.648064,-0.632448,2.89625,-40.18,-43.16375,-3.536,-18.44,-31.144001,concentric,5,3.0,36746.0,173276.0,81344.0,170804.0,94982.0
2026-04-14 17:59:23.719049,664536,1609507057372357,4657342002,-0.903776,0.648064,-0.632448,0.28875,-40.495,-42.0,-3.536,-18.44,-31.144001,concentric,5,3.0,36746.0,173276.0,81344.0,170804.0,94982.0
2026-04-14 17:59:23.735327,664537,1609507057386913,4657356898,-0.831552,0.587552,-0.532896,-4.6025,-40.76625,-42.07,-2.624,-18.656,-30.872002,concentric,5,3.0,36746.0,173276.0,81344.0,170804.0,94982.0
2026-04-14 17:59:23.769113,664538,1609507057395871,4657365592,-0.862784,0.513376,-0.6832,-7.81375,-38.78,-40.57375,-3.752,-17.984001,-28.056002,concentric,5,3.0,36746.0,173276.0,81344.0,170804.0,94982.0
2026-04-14 17:59:23.771378,664539,1609507057410395,4657380474,-0.862784,0.513376,-0.6832,-3.5,-35.735,-38.80625,-3.752,-17.984001,-28.056002,concentric,5,3.0,36746.0,173276.0,81344.0,170804.0,94982.0
2026-04-14 17:59:23.774234,664540,1609507057419313,4657389182,-0.837408,0.544608,-0.484096,-0.62125,-35.07,-38.56125,-1.536,-18.456001,-31.208002,concentric,5,3.0,36746.0,173276.0,81344.0,170804.0,94982.0
2026-04-14 17:59:23.824269,664551,1609507057428332,4657397902,-0.837408,0.544608,-0.484096,-0.28875,-35.35875,-36.44375,-1.536,-18.456001,-31.208002,concentric,5,3.0,35847.0,169201.0,80084.0,167827.0,93483.0
2026-04-14 17:59:23.826344,664552,1609507057442811,4657412883,-0.890112,0.513376,-0.599264,1.33,-35.84,-33.50375,-0.744,-18.216002,-31.28,concentric,5,3.0,35847.0,169201.0,80084.0,167827.0,93483.0
2026-04-14 17:59:23.829104,664553,1609507057451737,4657421604,-0.890112,0.513376,-0.599264,1.2775,-34.97375,-32.138752,-0.744,-18.216002,-31.28,concentric,5,3.0,35847.0,169201.0,80084.0,167827.0,93483.0
2026-04-14 17:59:23.833103,664554,1609507057466497,4657436597,-0.886208,0.454816,-0.69296,-0.49875,-32.76,-29.12875,-0.496,-18.432001,-30.008001,concentric,5,3.0,35847.0,169201.0,80084.0,167827.0,93483.0
2026-04-14 17:59:23.833574,664555,1609507057475596,4657445303,-0.870592,0.447008,-0.491904,2.695,-28.647501,-24.1675,-0.592,-17.712,-25.856,concentric,5,3.0,35847.0,169201.0,80084.0,167827.0,93483.0
2026-04-14 17:59:23.838910,664556,1609507057490129,4657460405,-0.870592,0.447008,-0.491904,9.2225,-24.19375,-22.11125,-0.592,-17.712,-25.856,concentric,5,3.0,35847.0,169201.0,80084.0,167827.0,93483.0
2026-04-14 17:59:23.849074,664557,1609507057499055,4657469083,-0.929152,0.511424,-0.61488,12.8275,-20.02875,-21.32375,-0.648,-17.712,-31.208002,concentric,5,3.0,35847.0,169201.0,80084.0,167827.0,93483.0
2026-04-14 17:59:23.855410,664558,1609507057508023,4657477788,-0.929152,0.511424,-0.61488,11.62875,-18.24375,-18.17375,-0.648,-17.712,-31.208002,concentric,5,3.0,35847.0,169201.0,80084.0,167827.0,93483.0
2026-04-14 17:59:23.894099,664569,1609507057522956,4657493325,-0.831552,0.528992,-0.460672,11.68125,-16.94,-15.627501,0.88,-17.672,-31.488,concentric,5,3.0,34505.0,168743.0,78028.0,167711.0,91139.0
2026-04-14 17:59:23.896745,664570,1609507057532025,4657502046,-0.831552,0.528992,-0.460672,10.675,-16.12625,-16.8175,0.88,-17.672,-31.488,concentric,5,3.0,34505.0,168743.0,78028.0,167711.0,91139.0
2026-04-14 17:59:23.899247,664571,1609507057546566,4657515076,-0.827648,0.515328,-0.374784,11.06875,-14.69125,-15.198751,0.0,-17.168001,-29.992,concentric,5,3.0,34505.0,168743.0,78028.0,167711.0,91139.0
2026-04-14 17:59:23.904249,664572,1609507057556155,4657525871,-0.794464,0.486048,-0.49776,11.80375,-11.585,-12.565,-2.048,-16.832,-31.272001,concentric,5,3.0,34505.0,168743.0,78028.0,167711.0,91139.0
2026-04-14 17:59:23.913021,664573,1609507057565138,4657534587,-0.794464,0.486048,-0.49776,11.62875,-8.67125,-12.355001,-0.312,-16.832,-31.272001,concentric,5,3.0,34505.0,168743.0,78028.0,167711.0,91139.0
2026-04-14 17:59:23.928839,664574,1609507057579652,4657549481,-0.815936,0.519232,-0.437248,14.595,-6.3525,-9.948751,0.904,-16.976002,-31.816002,concentric,5,3.0,34505.0,168743.0,78028.0,167711.0,91139.0
2026-04-14 17:59:23.936834,664575,1609507057588617,4657558235,-0.815936,0.519232,-0.437248,18.50625,-5.24125,-8.4525,0.904,-16.976002,-31.816002,concentric,5,3.0,34505.0,168743.0,78028.0,167711.0,91139.0
2026-04-14 17:59:23.951592,664576,1609507057603149,4657573156,-0.8296,0.484096,-0.665632,20.44,-5.46875,-8.155,1.104,-16.928001,-32.336002,concentric,5,3.0,34505.0,168743.0,78028.0,167711.0,91139.0
2026-04-14 17:59:23.959940,664577,1609507057612060,4657581857,-0.8296,0.484096,-0.665632,22.54,-4.06,-5.8625,1.104,-16.928001,-32.336002,concentric,5,3.0,34505.0,168743.0,78028.0,167711.0,91139.0
2026-04-14 17:59:23.969183,664578,1609507057620990,4657590540,-0.880352,0.54656,-0.503616,24.78,-1.855,-5.27625,1.664,-16.640001,-32.04,concentric,5,3.0,34505.0,168743.0,78028.0,167711.0,91139.0
2026-04-14 17:59:24.000097,664589,1609507057635680,4657605498,-0.880352,0.54656,-0.64416,25.33125,-0.18375,-5.52125,1.664,-16.640001,-32.04,concentric,5,3.0,34599.0,168074.0,77970.0,166925.0,91108.0
2026-04-14 17:59:24.002665,664590,1609507057644629,4657614234,-0.913536,0.538752,-0.642208,22.49625,-0.04375,-4.55875,1.256,-16.192001,-33.248,concentric,5,3.0,34599.0,168074.0,77970.0,166925.0,91108.0
2026-04-14 17:59:24.010078,664591,1609507057659360,4657629178,-0.81008,0.46848,-0.50752,17.68375,-0.04375,-3.87625,0.976,-15.856001,-30.880001,concentric,5,3.0,34599.0,168074.0,77970.0,166925.0,91108.0
2026-04-14 17:59:24.016766,664592,1609507057668480,4657637901,-0.81008,0.46848,-0.50752,13.23875,-0.00875,-3.78875,0.976,-15.856001,-30.880001,concentric,5,3.0,34599.0,168074.0,77970.0,166925.0,91108.0
2026-04-14 17:59:24.027299,664593,1609507057677534,4657646636,-0.853024,0.423584,-0.669536,13.69375,1.23375,-1.74125,0.408,-15.896001,-31.928001,concentric,5,3.0,34599.0,168074.0,77970.0,166925.0,91108.0
2026-04-14 17:59:24.039094,664594,1609507057692045,4657661577,-0.853024,0.423584,-0.669536,16.84375,3.21125,0.8575,0.408,-15.896001,-31.928001,concentric,5,3.0,34599.0,168074.0,77970.0,166925.0,91108.0
2026-04-14 17:59:24.049223,664595,1609507057700975,4657670314,-0.915488,0.472384,-0.691008,20.27375,6.06375,3.36875,0.728,-15.68,-32.232002,concentric,5,3.0,34599.0,168074.0,77970.0,166925.0,91108.0
2026-04-14 17:59:24.064254,664596,1609507057715485,4657685232,-0.915488,0.472384,-0.691008,21.5425,6.99125,5.08375,0.728,-15.68,-32.232002,concentric,5,3.0,34599.0,168074.0,77970.0,166925.0,91108.0
2026-04-14 17:59:24.098063,664607,1609507057725071,4657694433,-0.903776,0.515328,-0.523136,18.9175,7.35,6.5625,1.208,-15.240001,-32.576,concentric,5,3.0,34890.0,169062.0,78117.0,167562.0,91451.0
2026-04-14 17:59:24.100500,664608,1609507057734056,4657703287,-0.903776,0.515328,-0.523136,14.63875,6.53625,6.5625,1.208,-15.240001,-32.576,concentric,5,3.0,34890.0,169062.0,78117.0,167562.0,91451.0
2026-04-14 17:59:24.102921,664609,1609507057748711,4657718301,-0.827648,0.450912,-0.511424,10.2375,5.95,6.615,0.088,-15.136001,-30.480001,concentric,5,3.0,34890.0,169062.0,78117.0,167562.0,91451.0
2026-04-14 17:59:24.105487,664610,1609507057757817,4657727013,-0.88816,0.486048,-0.495808,9.2575,6.92125,7.07,-0.576,-14.856001,-30.424002,concentric,5,3.0,34890.0,169062.0,78117.0,167562.0,91451.0
2026-04-14 17:59:24.132978,664611,1609507057772299,4657742048,-0.88816,0.486048,-0.495808,10.14125,8.40875,7.035,-0.576,-14.856001,-30.424002,concentric,5,3.0,34890.0,169062.0,78117.0,167562.0,91451.0
2026-04-14 17:59:24.157983,664612,1609507057781215,4657750732,-0.91744,0.45872,-0.659776,10.54375,9.35375,7.28,0.024,-15.152,-32.344,concentric,5,3.0,34890.0,169062.0,78117.0,167562.0,91451.0
2026-04-14 17:59:24.159846,664613,1609507057795706,4657765665,-0.91744,0.45872,-0.659776,8.8375,9.31,8.6975,0.024,-15.152,-32.344,concentric,5,3.0,34890.0,169062.0,78117.0,167562.0,91451.0
2026-04-14 17:59:24.162721,664614,1609507057804628,4657774367,-0.935008,0.437248,-0.573888,7.35875,9.1,9.7125,-1.112,-14.920001,-31.560001,concentric,5,3.0,34890.0,169062.0,78117.0,167562.0,91451.0
2026-04-14 17:59:24.165501,664615,1609507057813562,4657783043,-0.935008,0.437248,-0.573888,5.43375,10.05375,11.03375,-1.112,-14.920001,-31.560001,concentric,5,3.0,34890.0,169062.0,78117.0,167562.0,91451.0
2026-04-14 17:59:24.198077,664626,1609507057828352,4657797999,-0.911584,0.423584,-0.671488,3.465,12.635,12.9325,-0.856,-14.576001,-31.704002,concentric,5,3.0,34219.0,169253.0,76901.0,167555.0,90215.0
2026-04-14 17:59:24.200495,664627,1609507057837404,4657806835,-0.9272,0.486048,-0.628544,2.555,14.595,13.50125,-0.856,-14.576001,-33.752003,concentric,5,3.0,34219.0,169253.0,76901.0,167555.0,90215.0
2026-04-14 17:59:24.203037,664628,1609507057851986,4657821789,-0.923296,0.486048,-0.628544,3.57,16.56375,13.32625,-0.968,-14.832001,-33.2,concentric,5,3.0,34219.0,169253.0,76901.0,167555.0,90215.0
2026-04-14 17:59:24.209051,664629,1609507057860935,4657830564,-0.882304,0.464576,-0.650016,1.4175,16.38,12.38125,-1.248,-14.736001,-31.824001,concentric,5,3.0,34219.0,169253.0,76901.0,167555.0,90215.0
2026-04-14 17:59:24.217093,664630,1609507057869882,4657839287,-0.882304,0.464576,-0.650016,-1.645,16.31875,12.4075,-1.248,-14.736001,-31.824001,concentric,5,3.0,34219.0,169253.0,76901.0,167555.0,90215.0
2026-04-14 17:59:24.233046,664631,1609507057884389,4657854194,-0.808128,0.421632,-0.569984,-1.33,17.885,13.78125,-1.536,-14.776001,-31.792002,concentric,5,3.0,34219.0,169253.0,76901.0,167555.0,90215.0
2026-04-14 17:59:24.265470,664632,1609507057893309,4657862867,-0.808128,0.421632,-0.569984,-0.74375,20.02,14.323751,-1.536,-14.776001,-31.792002,concentric,5,3.0,34219.0,169253.0,76901.0,167555.0,90215.0
2026-04-14 17:59:24.268121,664633,1609507057907820,4657877776,-0.890112,0.433344,-0.669536,2.275,23.5025,17.22875,-2.056,-15.208001,-32.696003,concentric,5,3.0,34219.0,169253.0,76901.0,167555.0,90215.0
2026-04-14 17:59:24.270537,664634,1609507057916746,4657886487,-0.890112,0.433344,-0.669536,3.675,27.65,19.1625,-2.056,-15.208001,-32.696003,concentric,5,3.0,34219.0,169253.0,76901.0,167555.0,90215.0
2026-04-14 17:59:24.302828,664645,1609507057931464,4657901824,-0.851072,0.51728,-0.597312,1.61,31.6225,21.665,-1.952,-15.128,-33.416,concentric,5,3.0,33257.0,167349.0,75471.0,166117.0,88362.0
2026-04-14 17:59:24.304975,664646,1609507057940549,4657910563,-0.925248,0.56608,-0.698816,3.47375,36.00625,24.08,-2.544,-15.112,-32.744003,concentric,5,3.0,33257.0,167349.0,75471.0,166117.0,88362.0
2026-04-14 17:59:24.307565,664647,1609507057949550,4657919314,-0.925248,0.56608,-0.698816,2.17,37.52875,22.79375,-2.544,-15.112,-32.744003,concentric,5,3.0,33257.0,167349.0,75471.0,166117.0,88362.0
2026-04-14 17:59:24.312426,664648,1609507057964077,4657934243,-0.813984,0.603168,-0.706624,-0.28875,38.85875,24.053751,-3.136,-14.888001,-32.896,concentric,5,3.0,33257.0,167349.0,75471.0,166117.0,88362.0
2026-04-14 17:59:24.322885,664649,1609507057973065,4657942925,-0.813984,0.603168,-0.706624,-0.945,39.17375,25.33125,-3.136,-14.888001,-32.896,concentric,5,3.0,33257.0,167349.0,75471.0,166117.0,88362.0
2026-04-14 17:59:24.335412,664650,1609507057987676,4657958015,-0.720288,0.558272,-0.802272,-0.09625,40.0925,25.515,-4.6,-14.672001,-32.656002,concentric,5,3.0,33257.0,167349.0,75471.0,166117.0,88362.0
2026-04-14 17:59:24.345572,664651,1609507057996660,4657966733,-0.720288,0.558272,-0.802272,-1.16375,42.6475,27.9475,-4.6,-14.672001,-32.656002,concentric,5,3.0,33257.0,167349.0,75471.0,166117.0,88362.0
2026-04-14 17:59:24.354273,664652,1609507058005709,4657975427,-0.720288,0.568032,-0.827648,-0.5425,44.19625,29.855,-4.928001,-15.040001,-32.928,concentric,5,3.0,33257.0,167349.0,75471.0,166117.0,88362.0
2026-04-14 17:59:24.369055,664653,1609507058020340,4657990352,-0.714432,0.601216,-0.815936,2.135,46.34,30.66875,-5.616,-14.608001,-34.624,concentric,5,3.0,33257.0,167349.0,75471.0,166117.0,88362.0
2026-04-14 17:59:24.396106,664664,1609507058029657,4657999119,-0.714432,0.601216,-0.815936,3.24625,48.93,32.97875,-5.616,-14.608001,-34.624,concentric,5,3.0,32801.0,166545.0,74757.0,165294.0,87626.0
2026-04-14 17:59:24.400468,664665,1609507058044148,4658014070,-0.714432,0.626592,-0.74176,1.32125,51.28375,35.595,-7.480001,-14.944,-31.400002,concentric,5,3.0,32801.0,166545.0,74757.0,165294.0,87626.0
2026-04-14 17:59:24.401645,664666,1609507058053096,4658022767,-0.714432,0.626592,-0.74176,-2.66,54.0225,38.2725,-7.480001,-14.944,-31.400002,concentric,5,3.0,32801.0,166545.0,74757.0,165294.0,87626.0
2026-04-14 17:59:24.408798,664667,1609507058062156,4658031528,-0.724192,0.5856,-0.80032,-6.3525,57.63625,41.3,-8.56,-14.976001,-31.488,concentric,5,3.0,32801.0,166545.0,74757.0,165294.0,87626.0
2026-04-14 17:59:24.431738,664668,1609507058076646,4658046583,-0.724192,0.5856,-0.80032,-10.675,60.69875,44.49375,-8.56,-14.976001,-31.488,concentric,5,3.0,32801.0,166545.0,74757.0,165294.0,87626.0
2026-04-14 17:59:24.434241,664669,1609507058085574,4658055263,-0.784704,0.636352,-0.694912,-10.535,64.02375,49.32375,-9.504001,-14.800001,-32.448,concentric,5,3.0,32801.0,166545.0,74757.0,165294.0,87626.0
2026-04-14 17:59:24.450528,664670,1609507058100066,4658070213,-0.788608,0.6832,-0.753472,-7.91875,67.1825,51.625,-10.256001,-14.792001,-31.888002,concentric,5,3.0,32801.0,166545.0,74757.0,165294.0,87626.0
2026-04-14 17:59:24.467163,664671,1609507058109042,4658078945,-0.788608,0.6832,-0.753472,-6.50125,71.39125,53.935,-10.256001,-14.792001,-31.888002,concentric,5,3.0,32801.0,166545.0,74757.0,165294.0,87626.0
2026-04-14 17:59:24.472753,664672,1609507058123493,4658093859,-0.763232,0.669536,-0.942816,-9.38,74.515,57.33,-11.424001,-14.920001,-31.432001,concentric,5,3.0,32801.0,166545.0,74757.0,165294.0,87626.0
2026-04-14 17:59:24.545245,664683,1609507058132424,4658102736,-0.763232,0.669536,-0.942816,-13.9825,76.3175,60.22625,-11.424001,-14.920001,-31.432001,concentric,5,3.0,33260.0,169619.0,75341.0,167762.0,88441.0
2026-04-14 17:59:24.547752,664684,1609507058141465,4658111461,-0.735904,0.667584,-0.737856,-18.9875,78.6625,63.3675,-13.688001,-15.192,-28.816002,concentric,5,3.0,33260.0,169619.0,75341.0,167762.0,88441.0
2026-04-14 17:59:24.550191,664685,1609507058155989,4658124356,-0.735904,0.667584,-0.737856,-22.33875,80.325,65.6775,-13.688001,-15.192,-28.816002,concentric,5,3.0,33260.0,169619.0,75341.0,167762.0,88441.0
2026-04-14 17:59:24.552763,664686,1609507058165178,4658135138,-0.72224,0.691008,-0.909632,-21.83125,82.48625,68.27625,-15.528001,-14.584001,-28.264002,concentric,5,3.0,33260.0,169619.0,75341.0,167762.0,88441.0
2026-04-14 17:59:24.555202,664687,1609507058179672,4658148031,-0.675392,0.759328,-0.724192,-22.33,84.455,70.385,-15.528001,-14.584001,-27.816002,concentric,5,3.0,33260.0,169619.0,75341.0,167762.0,88441.0
2026-04-14 17:59:24.557774,664688,1609507058189064,4658158814,-0.675392,0.759328,-0.724192,-23.835001,86.0125,71.74125,-17.352001,-14.456,-27.816002,concentric,5,3.0,33260.0,169619.0,75341.0,167762.0,88441.0
2026-04-14 17:59:24.560120,664689,1609507058198066,4658167543,-0.675392,0.759328,-0.724192,-27.74625,87.35125,73.027504,-17.352001,-14.456,-27.816002,concentric,5,3.0,33260.0,169619.0,75341.0,167762.0,88441.0
2026-04-14 17:59:24.562751,664690,1609507058212667,4658182484,-0.587552,0.718336,-0.681248,-33.075,87.40375,73.6925,-19.008001,-14.768001,-28.384,concentric,5,3.0,33260.0,169619.0,75341.0,167762.0,88441.0
2026-04-14 17:59:24.568853,664691,1609507058221717,4658191183,-0.554368,0.685152,-0.657824,-37.40625,88.865,75.67875,-19.608002,-14.808001,-27.464,concentric,5,3.0,33260.0,169619.0,75341.0,167762.0,88441.0
2026-04-14 17:59:24.600939,664702,1609507058236392,4658206177,-0.554368,0.685152,-0.657824,-35.86625,91.27125,78.56625,-19.608002,-14.808001,-27.464,concentric,5,3.0,35068.0,171375.0,77857.0,168957.0,91474.0
2026-04-14 17:59:24.601819,664703,1609507058245361,4658214927,-0.581696,0.728096,-0.901824,-34.685,92.7325,79.49375,-20.048,-14.840001,-27.04,concentric,5,3.0,35068.0,171375.0,77857.0,168957.0,91474.0
2026-04-14 17:59:24.608779,664704,1609507058259889,4658229822,-0.581696,0.772992,-0.919392,-35.6475,94.2375,81.17375,-20.048,-14.840001,-27.04,concentric,5,3.0,35068.0,171375.0,77857.0,168957.0,91474.0
2026-04-14 17:59:24.616338,664705,1609507058268804,4658238532,-0.601216,0.772992,-0.919392,-38.885,94.08875,82.8625,-22.184002,-14.696001,-26.472002,concentric,5,3.0,35068.0,171375.0,77857.0,168957.0,91474.0
2026-04-14 17:59:24.625166,664706,1609507058277760,4658247234,-0.601216,0.772992,-0.919392,-43.5225,94.01,84.44625,-22.184002,-14.696001,-26.472002,concentric,5,3.0,35068.0,171375.0,77857.0,168957.0,91474.0
2026-04-14 17:59:24.642687,664707,1609507058292255,4658262121,-0.558272,0.724192,-0.835456,-46.095,93.905,86.8175,-23.880001,-14.392001,-25.888,concentric,5,3.0,35068.0,171375.0,77857.0,168957.0,91474.0
2026-04-14 17:59:24.650220,664708,1609507058301231,4658270817,-0.511424,0.749568,-0.85888,-42.3675,94.71,89.46,-24.28,-14.384001,-23.792002,concentric,5,3.0,35068.0,171375.0,77857.0,168957.0,91474.0
2026-04-14 17:59:24.662737,664709,1609507058315724,4658285791,-0.511424,0.749568,-0.85888,-36.82,97.1075,91.0175,-24.28,-14.384001,-23.792002,concentric,5,3.0,35068.0,171375.0,77857.0,168957.0,91474.0
2026-04-14 17:59:24.672751,664710,1609507058324677,4658294515,-0.452864,0.815936,-0.847168,-36.0325,98.39375,91.1575,-25.968,-14.064001,-24.248001,concentric,5,3.0,35068.0,171375.0,77857.0,168957.0,91474.0
2026-04-14 17:59:24.702900,664721,1609507058339259,4658307699,-0.452864,0.815936,-0.847168,-38.920002,99.5925,92.365,-25.968,-14.064001,-24.248001,concentric,5,3.0,39882.0,174523.0,84646.0,171535.0,99292.0
2026-04-14 17:59:24.705381,664722,1609507058348616,4658318494,-0.314272,0.74176,-0.84912,-43.30375,99.4525,93.75625,-27.192001,-13.224001,-23.472002,concentric,5,3.0,39882.0,174523.0,84646.0,171535.0,99292.0
2026-04-14 17:59:24.707928,664723,1609507058357643,4658327259,-0.314272,0.74176,-0.84912,-46.48,99.54,96.80125,-27.192001,-13.224001,-23.472002,concentric,5,3.0,39882.0,174523.0,84646.0,171535.0,99292.0
2026-04-14 17:59:24.719963,664724,1609507058372294,4658342176,-0.3416,0.774944,-0.651968,-44.26625,99.96875,99.56625,-28.464,-12.864,-21.328001,concentric,5,3.0,39882.0,174523.0,84646.0,171535.0,99292.0
2026-04-14 17:59:24.729238,664725,1609507058381232,4658350870,-0.238144,0.802272,-0.71248,-41.58875,101.29,100.4325,-29.632002,-12.408001,-19.168001,concentric,5,3.0,39882.0,174523.0,84646.0,171535.0,99292.0
2026-04-14 17:59:24.748089,664726,1609507058395716,4658365753,-0.238144,0.802272,-0.71248,-43.1025,101.535,101.78875,-29.632002,-12.408001,-19.168001,concentric,5,3.0,39882.0,174523.0,84646.0,171535.0,99292.0
2026-04-14 17:59:24.751438,664727,1609507058404643,4658374456,-0.20496,0.804224,-0.62464,-43.9075,101.47375,103.81,-31.072002,-11.440001,-19.488,concentric,5,3.0,39882.0,174523.0,84646.0,171535.0,99292.0
2026-04-14 17:59:24.761773,664728,1609507058413588,4658383159,-0.20496,0.804224,-0.62464,-44.765,102.26125,104.8775,-31.072002,-11.440001,-19.488,concentric,5,3.0,39882.0,174523.0,84646.0,171535.0,99292.0
2026-04-14 17:59:24.800508,664739,1609507058428701,4658398338,-0.212768,0.841312,-0.704672,-44.9225,102.7075,105.6475,-33.168003,-10.240001,-17.176,concentric,5,3.0,48806.0,182013.0,95943.0,177733.0,111985.0
2026-04-14 17:59:24.803004,664740,1609507058437721,4658407169,-0.212768,0.841312,-0.704672,-45.5175,103.705,108.29,-33.168003,-10.240001,-17.176,concentric,5,3.0,48806.0,182013.0,95943.0,177733.0,111985.0
2026-04-14 17:59:24.805443,664741,1609507058452365,4658422073,-0.081984,0.827648,-0.677344,-45.9725,104.44,108.6225,-33.344,-9.360001,-15.936001,concentric,5,3.0,48806.0,182013.0,95943.0,177733.0,111985.0
2026-04-14 17:59:24.810192,664742,1609507058461312,4658430765,-0.081984,0.7808,-0.601216,-47.20625,103.66125,109.82125,-33.344,-9.360001,-17.984001,concentric,5,3.0,48806.0,182013.0,95943.0,177733.0,111985.0
2026-04-14 17:59:24.818072,664743,1609507058470327,4658439542,-0.01952,0.7808,-0.601216,-48.37,104.34375,111.78125,-34.480003,-8.584001,-16.928001,concentric,5,3.0,48806.0,182013.0,95943.0,177733.0,111985.0
2026-04-14 17:59:24.834269,664744,1609507058484839,4658454568,0.052704,0.792512,-0.521184,-48.09,104.13375,113.56625,-35.136,-7.672,-14.400001,concentric,5,3.0,48806.0,182013.0,95943.0,177733.0,111985.0
2026-04-14 17:59:24.841740,664745,1609507058493753,4658463259,0.052704,0.792512,-0.521184,-43.1375,106.8725,113.8375,-35.136,-7.672,-14.400001,concentric,5,3.0,48806.0,182013.0,95943.0,177733.0,111985.0
2026-04-14 17:59:24.867165,664746,1609507058508426,4658478188,0.08784,0.786656,-0.74176,-42.77,108.00125,111.72,-35.576,-6.4,-12.400001,concentric,5,3.0,48806.0,182013.0,95943.0,177733.0,111985.0
2026-04-14 17:59:24.891089,664747,1609507058517337,4658486917,0.08784,0.786656,-0.74176,-46.71625,107.3625,111.1075,-35.576,-6.4,-12.400001,concentric,5,3.0,48806.0,182013.0,95943.0,177733.0,111985.0
2026-04-14 17:59:24.916691,664748,1609507058526288,4658495624,0.134688,0.74176,-0.778848,-52.91125,107.9925,111.8425,-36.416,-5.520001,-11.288,concentric,5,3.0,48806.0,182013.0,95943.0,177733.0,111985.0
2026-04-14 17:59:24.951774,664759,1609507058540882,4658510636,0.134688,0.74176,-0.778848,-56.9975,105.98875,112.76125,-36.416,-5.520001,-11.288,concentric,5,3.0,68261.0,193333.0,118680.0,187561.0,138854.0
2026-04-14 17:59:24.956389,664760,1609507058549798,4658519367,0.208864,0.679296,-0.548512,-51.3975,106.58375,115.07125,-36.656002,-3.672,-10.808001,concentric,5,3.0,68261.0,193333.0,118680.0,187561.0,138854.0
2026-04-14 17:59:24.958764,664761,1609507058564309,4658534265,0.222528,0.64416,-0.62464,-39.68125,107.3625,114.77375,-37.24,-2.856,-8.808001,concentric,5,3.0,68261.0,193333.0,118680.0,187561.0,138854.0
2026-04-14 17:59:24.961284,664762,1609507058573385,4658543002,0.222528,0.64416,-0.62464,-28.53375,109.8125,112.21,-37.24,-2.856,-8.808001,concentric,5,3.0,68261.0,193333.0,118680.0,187561.0,138854.0
2026-04-14 17:59:24.964292,664763,1609507058587923,4658558033,0.249856,0.753472,-0.519232,-27.5625,107.2925,110.0575,-36.848003,-1.312,-7.528,concentric,5,3.0,68261.0,193333.0,118680.0,187561.0,138854.0
2026-04-14 17:59:24.966774,664764,1609507058597010,4658566740,0.249856,0.753472,-0.519232,-32.43625,105.875,110.53,-36.848003,-1.312,-7.528,concentric,5,3.0,68261.0,193333.0,118680.0,187561.0,138854.0
2026-04-14 17:59:24.972783,664765,1609507058605943,4658575431,0.337696,0.640256,-0.548512,-41.99125,103.915,110.3725,-37.320004,-0.312,-5.872,concentric,5,3.0,68261.0,193333.0,118680.0,187561.0,138854.0
2026-04-14 17:59:24.973172,664766,1609507058620591,4658590281,0.337696,0.640256,-0.548512,-49.595,104.3875,109.31375,-37.320004,-0.312,-5.872,concentric,5,3.0,68261.0,193333.0,118680.0,187561.0,138854.0
2026-04-14 17:59:25.001223,664777,1609507058630008,4658599419,0.359168,0.511424,-0.5856,-50.015,103.76625,109.62,-37.024002,1.416,-4.808,concentric,5,3.0,85458.0,204884.0,138129.0,197581.0,161113.0
2026-04-14 17:59:25.003773,664778,1609507058644611,4658614523,0.407968,0.552416,-0.279136,-42.105,104.7375,110.1975,-37.056004,2.736,-2.352,concentric,5,3.0,85458.0,204884.0,138129.0,197581.0,161113.0
2026-04-14 17:59:25.006791,664779,1609507058653705,4658623226,0.407968,0.552416,-0.279136,-27.65,106.855,107.73,-37.056004,2.736,-2.352,concentric,5,3.0,85458.0,204884.0,138129.0,197581.0,161113.0
2026-04-14 17:59:25.010054,664780,1609507058662684,4658631922,0.4392,0.61488,-0.284992,-15.8375,109.13,103.0225,-37.056004,2.736,-1.2,concentric,5,3.0,85458.0,204884.0,138129.0,197581.0,161113.0
2026-04-14 17:59:25.025482,664781,1609507058677182,4658646953,0.437248,0.61488,-0.284992,-11.24375,108.92,100.065,-37.920002,4.184,-1.2,concentric,5,3.0,85458.0,204884.0,138129.0,197581.0,161113.0
2026-04-14 17:59:25.034262,664782,1609507058686111,4658655665,0.374784,0.630496,-0.376736,-15.575,105.58625,98.183754,-36.752003,4.968,-1.192,concentric,5,3.0,85458.0,204884.0,138129.0,197581.0,161113.0
2026-04-14 17:59:25.049242,664783,1609507058700632,4658670862,0.374784,0.630496,-0.376736,-21.6125,103.4075,96.565,-36.752003,4.968,-1.192,concentric,5,3.0,85458.0,204884.0,138129.0,197581.0,161113.0
2026-04-14 17:59:25.058814,664784,1609507058709586,4658679537,0.421632,0.515328,-0.300608,-31.43875,98.97125,94.33375,-36.272003,6.264,0.088,concentric,5,3.0,85458.0,204884.0,138129.0,197581.0,161113.0
2026-04-14 17:59:25.070800,664785,1609507058724094,4658692460,0.54656,0.437248,-0.3416,-35.201252,94.395,97.0025,-35.928,7.56,2.728,concentric,5,3.0,85458.0,204884.0,138129.0,197581.0,161113.0
