pc_time,serial_num,sensor_ts,host_ts,ax,ay,az,gx,gy,gz,mx,my,mz,phase,rpe,weight_kg,ppg_a,ppg_b,ppg_c,ppg_d,ppg_e
2026-04-14 17:59:25.099857,664796,1609507058733570,4658703308,0.54656,0.437248,-0.3416,-31.710001,93.8,99.61,-35.928,7.56,2.728,eccentric,5,3.0,93431.0,211878.0,147164.0,203208.0,170792.0
2026-04-14 17:59:25.102465,664797,1609507058742729,4658712210,0.54656,0.437248,-0.232288,-22.6275,92.9075,97.23,-35.928,7.56,2.728,eccentric,5,3.0,93431.0,211878.0,147164.0,203208.0,170792.0
2026-04-14 17:59:25.104849,664798,1609507058757268,4658727144,0.505568,0.577792,-0.23424,-16.0825,94.92875,91.183754,-35.232002,8.752001,3.256,eccentric,5,3.0,93431.0,211878.0,147164.0,203208.0,170792.0
2026-04-14 17:59:25.115063,664799,1609507058766291,4658735839,0.530944,0.435296,-0.281088,-15.88125,93.89625,85.00625,-35.120003,10.088,3.64,eccentric,5,3.0,93431.0,211878.0,147164.0,203208.0,170792.0
2026-04-14 17:59:25.123809,664800,1609507058775222,4658744555,0.530944,0.435296,-0.281088,-17.38625,88.6725,80.96375,-35.120003,10.088,3.64,eccentric,5,3.0,93431.0,211878.0,147164.0,203208.0,170792.0
2026-04-14 17:59:25.136299,664801,1609507058789747,4658759528,0.667584,0.396256,-0.060512,-16.49375,80.17625,82.41625,-35.88,11.136001,5.2,eccentric,5,3.0,93431.0,211878.0,147164.0,203208.0,170792.0
2026-04-14 17:59:25.146227,664802,1609507058798719,4658768235,0.667584,0.396256,-0.060512,-11.935,75.6,83.86,-35.88,11.136001,5.2,eccentric,5,3.0,93431.0,211878.0,147164.0,203208.0,170792.0
2026-04-14 17:59:25.162424,664803,1609507058813376,4658783153,0.69296,0.437248,-0.138592,-4.5675,72.3625,80.28125,-33.512,11.408001,5.048,eccentric,5,3.0,93431.0,211878.0,147164.0,203208.0,170792.0
2026-04-14 17:59:25.170086,664804,1609507058822311,4658791853,0.69296,0.437248,-0.138592,-3.63125,68.67875,75.0225,-33.512,11.408001,5.048,eccentric,5,3.0,93431.0,211878.0,147164.0,203208.0,170792.0
2026-04-14 17:59:25.199836,664815,1609507058836869,4658806829,0.72224,0.474336,0.025376,-8.12875,70.07875,68.005,-32.976,12.320001,5.776001,eccentric,5,3.0,101654.0,218857.0,156856.0,208321.0,180195.0
2026-04-14 17:59:25.202727,664816,1609507058845905,4658815616,0.728096,0.38064,-0.033184,-14.245,66.94625,62.62375,-32.856003,13.656001,7.728,eccentric,5,3.0,101654.0,218857.0,156856.0,208321.0,180195.0
2026-04-14 17:59:25.205111,664817,1609507058854868,4658824329,0.728096,0.38064,-0.033184,-27.895,63.25375,58.93125,-32.856003,13.656001,7.728,eccentric,5,3.0,101654.0,218857.0,156856.0,208321.0,180195.0
2026-04-14 17:59:25.235413,664818,1609507058869590,4658839241,0.710528,0.255712,-0.089792,-25.9,57.49625,57.4875,-32.744003,14.480001,7.944,eccentric,5,3.0,101654.0,218857.0,156856.0,208321.0,180195.0
2026-04-14 17:59:25.259949,664819,1609507058878549,4658847964,0.710528,0.255712,-0.089792,-23.38875,50.505,50.9425,-32.744003,14.480001,7.944,eccentric,5,3.0,101654.0,218857.0,156856.0,208321.0,180195.0
2026-04-14 17:59:25.262610,664820,1609507058893086,4658862909,0.76128,0.296704,-0.0976,-17.2025,46.9875,44.45875,-32.56,14.624001,8.424001,eccentric,5,3.0,101654.0,218857.0,156856.0,208321.0,180195.0
2026-04-14 17:59:25.287598,664821,1609507058902073,4658871605,0.76128,0.296704,-0.0976,-10.36875,44.9225,38.29,-32.56,14.624001,8.424001,eccentric,5,3.0,101654.0,218857.0,156856.0,208321.0,180195.0
2026-04-14 17:59:25.290010,664822,1609507058916545,4658886530,0.821792,0.290848,0.138592,-7.70875,41.58875,32.3925,-32.328003,15.224001,8.816,eccentric,5,3.0,101654.0,218857.0,156856.0,208321.0,180195.0
2026-04-14 17:59:25.292472,664823,1609507058925476,4658895223,0.802272,0.28304,0.173728,-6.4225,36.9075,26.92375,-31.976002,15.464001,11.080001,eccentric,5,3.0,101654.0,218857.0,156856.0,208321.0,180195.0
2026-04-14 17:59:25.320490,664834,1609507058934809,4658904013,0.802272,0.28304,0.173728,-3.68375,29.96875,19.34625,-31.976002,15.464001,11.080001,eccentric,5,3.0,100619.0,222054.0,155451.0,210667.0,178905.0
2026-04-14 17:59:25.323078,664835,1609507058949312,4658919042,0.817888,0.279136,0.220576,-2.91375,23.30125,11.480001,-32.512,15.688001,9.992001,eccentric,5,3.0,100619.0,222054.0,155451.0,210667.0,178905.0
2026-04-14 17:59:25.325499,664836,1609507058958305,4658927785,0.817888,0.279136,0.220576,-1.0325,17.491251,7.42,-32.512,15.688001,9.992001,eccentric,5,3.0,100619.0,222054.0,155451.0,210667.0,178905.0
2026-04-14 17:59:25.327933,664837,1609507058972851,4658942805,0.728096,0.318176,-0.015616,-2.625,11.4975,3.89375,-32.584003,15.52,10.264001,eccentric,5,3.0,100619.0,222054.0,155451.0,210667.0,178905.0
2026-04-14 17:59:25.330492,664838,1609507058981939,4658951564,0.728096,0.318176,-0.015616,-8.12,5.90625,0.83125,-32.584003,15.52,10.264001,eccentric,5,3.0,100619.0,222054.0,155451.0,210667.0,178905.0
2026-04-14 17:59:25.337726,664839,1609507058990944,4658960301,0.80032,0.320128,0.150304,-11.0775,1.96,-1.02375,-31.784002,15.360001,9.320001,eccentric,5,3.0,100619.0,222054.0,155451.0,210667.0,178905.0
2026-04-14 17:59:25.352918,664840,1609507059005605,4658975186,0.81008,0.294752,0.134688,-13.53625,-2.03875,-3.98125,-31.088001,14.992001,7.448,eccentric,5,3.0,100619.0,222054.0,155451.0,210667.0,178905.0
2026-04-14 17:59:25.364126,664841,1609507059014598,4658983894,0.81008,0.294752,0.134688,-15.0675,-6.16875,-7.32375,-31.088001,14.992001,7.448,eccentric,5,3.0,100619.0,222054.0,155451.0,210667.0,178905.0
2026-04-14 17:59:25.377646,664842,1609507059029072,4658998847,0.732,0.259616,0.00976,-12.985,-10.6925,-9.065,-30.968002,14.968,8.552,eccentric,5,3.0,100619.0,222054.0,155451.0,210667.0,178905.0
2026-04-14 17:59:25.405146,664853,1609507059038044,4659007618,0.732,0.259616,0.00976,-5.73125,-14.65625,-12.6525,-30.968002,14.968,8.552,eccentric,5,3.0,101116.0,224884.0,156563.0,213621.0,180089.0
2026-04-14 17:59:25.408080,664854,1609507059047042,4659016409,0.728096,0.359168,-0.033184,-0.4025,-18.2175,-17.36,-32.280003,15.144001,9.52,eccentric,5,3.0,101116.0,224884.0,156563.0,213621.0,180089.0
2026-04-14 17:59:25.410122,664855,1609507059061572,4659031337,0.728096,0.359168,-0.033184,4.0775,-21.34125,-19.95,-32.280003,15.144001,9.52,eccentric,5,3.0,101116.0,224884.0,156563.0,213621.0,180089.0
2026-04-14 17:59:25.419302,664856,1609507059070619,4659040071,0.825696,0.343552,-0.0976,6.1075,-24.14125,-21.2275,-32.616,14.848001,7.624001,eccentric,5,3.0,101116.0,224884.0,156563.0,213621.0,180089.0
2026-04-14 17:59:25.434250,664857,1609507059085143,4659055009,0.825696,0.388448,0.015616,5.1975,-26.17125,-22.47,-32.616,14.848001,7.624001,eccentric,5,3.0,101116.0,224884.0,156563.0,213621.0,180089.0
2026-04-14 17:59:25.441277,664858,1609507059094223,4659063814,0.802272,0.388448,0.015616,5.005,-26.9675,-24.185,-31.896002,14.424001,4.896,eccentric,5,3.0,101116.0,224884.0,156563.0,213621.0,180089.0
2026-04-14 17:59:25.456683,664859,1609507059108713,4659078824,0.735904,0.421632,0.017568,0.5075,-29.286251,-26.5475,-31.976002,13.824,6.688,eccentric,5,3.0,101116.0,224884.0,156563.0,213621.0,180089.0
2026-04-14 17:59:25.468046,664860,1609507059117645,4659087518,0.735904,0.421632,0.017568,1.19875,-32.45375,-28.63875,-31.976002,13.824,6.688,eccentric,5,3.0,101116.0,224884.0,156563.0,213621.0,180089.0
2026-04-14 17:59:25.476271,664861,1609507059126551,4659096251,0.714432,0.378688,-0.005856,0.93625,-38.115,-30.1,-32.384003,13.76,6.416,eccentric,5,3.0,101116.0,224884.0,156563.0,213621.0,180089.0
2026-04-14 17:59:25.504269,664872,1609507059141178,4659111178,0.714432,0.378688,-0.005856,6.5625,-38.5,-34.0725,-32.384003,13.76,6.416,eccentric,5,3.0,101173.0,229152.0,158743.0,218203.0,182143.0
2026-04-14 17:59:25.506615,664873,1609507059150331,4659120108,0.753472,0.36112,-0.177632,7.805,-41.34375,-38.745,-34.072002,13.480001,7.816001,eccentric,5,3.0,101173.0,229152.0,158743.0,218203.0,182143.0
2026-04-14 17:59:25.513112,664874,1609507059164995,4659135025,0.753472,0.36112,-0.177632,12.8275,-44.26625,-39.235,-34.072002,13.480001,7.816001,eccentric,5,3.0,101173.0,229152.0,158743.0,218203.0,182143.0
2026-04-14 17:59:25.546611,664875,1609507059173990,4659143708,0.776896,0.470432,-0.040992,16.625,-44.35375,-41.265,-34.656002,13.416,9.904,eccentric,5,3.0,101173.0,229152.0,158743.0,218203.0,182143.0
2026-04-14 17:59:25.549105,664876,1609507059182941,4659152390,0.776896,0.470432,-0.040992,19.53875,-45.3075,-45.66625,-34.656002,13.416,9.904,eccentric,5,3.0,101173.0,229152.0,158743.0,218203.0,182143.0
2026-04-14 17:59:25.551546,664877,1609507059197433,4659167373,0.730048,0.425536,-0.167872,20.58875,-47.15375,-48.055,-34.52,12.024,5.824,eccentric,5,3.0,101173.0,229152.0,158743.0,218203.0,182143.0
2026-04-14 17:59:25.554125,664878,1609507059206342,4659176055,0.70272,0.45872,-0.193248,16.91375,-51.02125,-50.33875,-36.568,11.144,6.216,eccentric,5,3.0,101173.0,229152.0,158743.0,218203.0,182143.0
2026-04-14 17:59:25.569180,664879,1609507059221038,4659190966,0.70272,0.45872,-0.193248,12.62625,-55.4225,-51.4325,-34.952003,11.144,6.216,eccentric,5,3.0,101173.0,229152.0,158743.0,218203.0,182143.0
2026-04-14 17:59:25.623757,664880,1609507059230012,4659199649,0.648064,0.443104,-0.363072,7.4375,-60.41875,-51.7125,-34.376003,10.928,4.056,eccentric,5,3.0,101173.0,229152.0,158743.0,218203.0,182143.0
2026-04-14 17:59:25.656191,664892,1609507059244748,4659214614,0.648064,0.443104,-0.363072,8.1025,-62.50125,-55.055,-34.376003,10.928,4.056,eccentric,5,3.0,97695.0,226311.0,156310.0,216660.0,179309.0
2026-04-14 17:59:25.658564,664893,1609507059253808,4659223307,0.636352,0.493856,-0.27328,15.627501,-63.35,-57.18125,-35.736,10.296001,2.352,eccentric,5,3.0,97695.0,226311.0,156310.0,216660.0,179309.0
2026-04-14 17:59:25.661090,664894,1609507059262908,4659231991,0.636352,0.493856,-0.27328,21.13125,-61.4075,-60.357502,-35.736,10.296001,2.352,eccentric,5,3.0,97695.0,226311.0,156310.0,216660.0,179309.0
2026-04-14 17:59:25.663518,664895,1609507059277410,4659246892,0.57584,0.544608,-0.245952,18.26125,-62.02,-64.25125,-35.736,9.200001,2.16,eccentric,5,3.0,97695.0,226311.0,156310.0,216660.0,179309.0
2026-04-14 17:59:25.666658,664896,1609507059286360,4659255587,0.57584,0.482144,-0.357216,18.73375,-63.201252,-65.152504,-35.736,9.200001,2.16,eccentric,5,3.0,97695.0,226311.0,156310.0,216660.0,179309.0
2026-04-14 17:59:25.668942,664897,1609507059301056,4659270584,0.552416,0.474336,-0.357216,19.29375,-67.64625,-66.6925,-35.488003,8.544001,2.24,eccentric,5,3.0,97695.0,226311.0,156310.0,216660.0,179309.0
2026-04-14 17:59:25.671619,664898,1609507059310048,4659279276,0.589504,0.569984,-0.208864,20.9825,-71.785,-68.4075,-36.112003,7.376,0.616,eccentric,5,3.0,97695.0,226311.0,156310.0,216660.0,179309.0
2026-04-14 17:59:25.674138,664899,1609507059319013,4659287967,0.589504,0.569984,-0.208864,22.4525,-74.13,-70.20125,-36.112003,7.376,0.616,eccentric,5,3.0,97695.0,226311.0,156310.0,216660.0,179309.0
2026-04-14 17:59:25.705529,664910,1609507059333898,4659302809,0.540704,0.599264,-0.423584,19.2325,-76.37875,-71.5575,-36.328003,6.488,-1.2,eccentric,5,3.0,96233.0,217635.0,154479.0,209521.0,177520.0
2026-04-14 17:59:25.708074,664911,1609507059342923,4659311542,0.540704,0.599264,-0.423584,12.3025,-75.1275,-71.77625,-36.328003,6.488,-1.2,eccentric,5,3.0,96233.0,217635.0,154479.0,209521.0,177520.0
2026-04-14 17:59:25.712874,664912,1609507059358100,4659326521,0.530944,0.603168,-0.240096,9.0825,-74.8825,-72.765,-38.136,6.096,0.872,eccentric,5,3.0,96233.0,217635.0,154479.0,209521.0,177520.0
2026-04-14 17:59:25.716173,664913,1609507059367416,4659337320,0.462624,0.55632,-0.470432,6.5625,-77.84875,-76.0025,-38.136,4.968,-0.824,eccentric,5,3.0,96233.0,217635.0,154479.0,209521.0,177520.0
2026-04-14 17:59:25.723525,664914,1609507059376354,4659346056,0.462624,0.55632,-0.470432,8.09375,-81.34875,-77.7875,-38.536003,4.968,-0.824,eccentric,5,3.0,96233.0,217635.0,154479.0,209521.0,177520.0
2026-04-14 17:59:25.739126,664915,1609507059390982,4659360947,0.51728,0.573888,-0.286944,12.8975,-84.1575,-79.73,-37.128002,3.488,-2.864,eccentric,5,3.0,96233.0,217635.0,154479.0,209521.0,177520.0
2026-04-14 17:59:25.747952,664916,1609507059399911,4659369639,0.51728,0.573888,-0.286944,21.55125,-85.12875,-81.62,-37.128002,3.488,-2.864,eccentric,5,3.0,96233.0,217635.0,154479.0,209521.0,177520.0
2026-04-14 17:59:25.764272,664917,1609507059414554,4659384511,0.407968,0.694912,-0.5368,28.2275,-83.37875,-82.4775,-37.976,2.872,-2.976,eccentric,5,3.0,96233.0,217635.0,154479.0,209521.0,177520.0
2026-04-14 17:59:25.770504,664918,1609507059423485,4659393228,0.407968,0.694912,-0.5368,27.72875,-82.24125,-84.8575,-37.976,2.872,-2.976,eccentric,5,3.0,96233.0,217635.0,154479.0,209521.0,177520.0
2026-04-14 17:59:25.807948,664929,1609507059432417,4659401976,0.437248,0.726144,-0.271328,27.22125,-80.027504,-87.71,-36.872,1.536,-4.184,eccentric,5,3.0,89461.0,204526.0,145827.0,198610.0,168123.0
2026-04-14 17:59:25.813085,664930,1609507059446998,4659416889,0.437248,0.726144,-0.271328,26.1275,-78.0325,-88.71625,-36.872,1.536,-4.184,eccentric,5,3.0,89461.0,204526.0,145827.0,198610.0,168123.0
2026-04-14 17:59:25.813537,664931,1609507059455987,4659425614,0.384544,0.671488,-0.38064,18.0425,-83.545,-87.8325,-38.160004,1.096,-5.336,eccentric,5,3.0,89461.0,204526.0,145827.0,198610.0,168123.0
2026-04-14 17:59:25.820813,664932,1609507059470490,4659440553,0.32208,0.607072,-0.698816,13.60625,-90.8075,-83.6325,-37.88,-0.552,-7.368001,eccentric,5,3.0,89461.0,204526.0,145827.0,198610.0,168123.0
2026-04-14 17:59:25.826175,664933,1609507059479427,4659449265,0.32208,0.607072,-0.698816,19.48625,-90.15125,-83.3,-37.88,-0.552,-7.368001,eccentric,5,3.0,89461.0,204526.0,145827.0,198610.0,168123.0
2026-04-14 17:59:25.837607,664934,1609507059488394,4659457972,0.394304,0.691008,-0.548512,23.45,-91.9275,-86.0825,-37.056004,-1.448,-7.496,eccentric,5,3.0,89461.0,204526.0,145827.0,198610.0,168123.0
2026-04-14 17:59:25.851343,664935,1609507059502958,4659472894,0.394304,0.691008,-0.548512,27.772501,-89.04875,-86.12625,-37.056004,-1.448,-7.496,eccentric,5,3.0,89461.0,204526.0,145827.0,198610.0,168123.0
2026-04-14 17:59:25.861326,664936,1609507059511941,4659481583,0.290848,0.8296,-0.374784,31.22875,-83.13375,-87.902504,-37.144,-2.36,-8.928,eccentric,5,3.0,89461.0,204526.0,145827.0,198610.0,168123.0
2026-04-14 17:59:25.873921,664937,1609507059526497,4659496526,0.290848,0.8296,-0.374784,25.27875,-78.25125,-94.5,-37.144,-2.36,-8.928,eccentric,5,3.0,89461.0,204526.0,145827.0,198610.0,168123.0
2026-04-14 17:59:25.906449,664948,1609507059535998,4659505264,0.216672,0.732,-0.488,9.37125,-82.59125,-94.4125,-37.08,-3.272,-11.632001,eccentric,5,3.0,70304.0,194538.0,123247.0,190229.0,142811.0
2026-04-14 17:59:25.908607,664949,1609507059545137,4659514018,0.216672,0.732,-0.488,-5.11,-91.2975,-87.31625,-37.08,-3.272,-11.632001,eccentric,5,3.0,70304.0,194538.0,123247.0,190229.0,142811.0
2026-04-14 17:59:25.911351,664950,1609507059559689,4659529041,0.244,0.638304,-0.511424,-6.78125,-94.4125,-87.14125,-38.152,-3.76,-9.456,eccentric,5,3.0,70304.0,194538.0,123247.0,190229.0,142811.0
2026-04-14 17:59:25.916350,664951,1609507059568620,4659537772,0.1952,0.71248,-0.710528,0.65625,-94.4125,-91.74375,-38.152,-5.376,-9.024,eccentric,5,3.0,70304.0,194538.0,123247.0,190229.0,142811.0
2026-04-14 17:59:25.933780,664952,1609507059583089,4659552718,0.1952,0.71248,-0.710528,8.60125,-91.4725,-95.095,-37.824,-5.376,-9.024,eccentric,5,3.0,70304.0,194538.0,123247.0,190229.0,142811.0
2026-04-14 17:59:25.941085,664953,1609507059592037,4659561399,0.154208,0.841312,-0.655872,14.875,-85.04125,-97.4575,-35.632,-6.848001,-13.424001,eccentric,5,3.0,70304.0,194538.0,123247.0,190229.0,142811.0
2026-04-14 17:59:25.971465,664954,1609507059606678,4659576435,0.154208,0.841312,-0.655872,13.67625,-80.8325,-102.61125,-35.632,-6.848001,-13.424001,eccentric,5,3.0,70304.0,194538.0,123247.0,190229.0,142811.0
2026-04-14 17:59:25.973973,664955,1609507059615621,4659585131,0.06832,0.735904,-0.626592,6.3525,-83.53625,-105.90125,-34.664,-7.896,-14.624001,eccentric,5,3.0,70304.0,194538.0,123247.0,190229.0,142811.0
2026-04-14 17:59:25.976373,664956,1609507059624552,4659593824,0.06832,0.735904,-0.626592,1.51375,-87.43875,-104.15125,-34.664,-7.896,-14.624001,eccentric,5,3.0,70304.0,194538.0,123247.0,190229.0,142811.0
2026-04-14 17:59:26.041682,664967,1609507059639172,4659608773,-0.046848,0.681248,-0.708576,3.12375,-87.29875,-102.9175,-34.896,-8.432,-14.424001,eccentric,5,3.0,61718.0,195939.0,112372.0,190939.0,130227.0
2026-04-14 17:59:26.043769,664968,1609507059648141,4659617465,-0.046848,0.681248,-0.708576,10.12375,-86.68625,-104.125,-34.896,-8.432,-14.424001,eccentric,5,3.0,61718.0,195939.0,112372.0,190939.0,130227.0
2026-04-14 17:59:26.046198,664969,1609507059662643,4659632412,-0.033184,0.880352,-0.71248,15.14625,-85.89875,-105.63,-33.944,-9.728001,-16.024,eccentric,5,3.0,61718.0,195939.0,112372.0,190939.0,130227.0
2026-04-14 17:59:26.049231,664970,1609507059671587,4659641106,-0.015616,0.833504,-0.540704,11.80375,-87.45625,-107.19625,-33.184002,-10.968,-17.528002,eccentric,5,3.0,61718.0,195939.0,112372.0,190939.0,130227.0
2026-04-14 17:59:26.051691,664971,1609507059686306,4659656116,-0.015616,0.833504,-0.540704,5.075,-87.675,-107.24,-33.184002,-10.968,-17.528002,eccentric,5,3.0,61718.0,195939.0,112372.0,190939.0,130227.0
2026-04-14 17:59:26.054206,664972,1609507059695366,4659664808,-0.12688,0.704672,-0.716384,-6.22125,-90.72,-105.665,-31.36,-12.152,-18.36,eccentric,5,3.0,61718.0,195939.0,112372.0,190939.0,130227.0
2026-04-14 17:59:26.056328,664973,1609507059704424,4659673609,-0.12688,0.704672,-0.716384,-6.04625,-91.48125,-101.29,-31.36,-12.152,-18.36,eccentric,5,3.0,61718.0,195939.0,112372.0,190939.0,130227.0
2026-04-14 17:59:26.068101,664974,1609507059718993,4659688552,-0.138592,0.739808,-0.62464,8.70625,-87.64875,-99.65375,-30.520002,-12.920001,-19.328001,eccentric,5,3.0,61718.0,195939.0,112372.0,190939.0,130227.0
2026-04-14 17:59:26.075576,664975,1609507059727914,4659697247,-0.138592,0.739808,-0.62464,28.28875,-82.705,-101.40375,-30.520002,-12.920001,-19.328001,eccentric,5,3.0,61718.0,195939.0,112372.0,190939.0,130227.0
2026-04-14 17:59:26.111211,664986,1609507059742668,4659712277,-0.27328,0.882304,-0.794464,36.7675,-81.8825,-102.75125,-29.736002,-12.968,-19.744001,eccentric,5,3.0,47397.0,182943.0,95266.0,179737.0,110455.0
2026-04-14 17:59:26.114232,664987,1609507059751616,4659721000,-0.376736,0.892064,-0.81984,32.585,-80.91125,-100.19625,-29.840002,-13.376,-19.080002,eccentric,5,3.0,47397.0,182943.0,95266.0,179737.0,110455.0
2026-04-14 17:59:26.116733,664988,1609507059760599,4659729723,-0.376736,0.892064,-0.81984,13.895,-83.746254,-99.42625,-29.840002,-13.376,-19.080002,eccentric,5,3.0,47397.0,182943.0,95266.0,179737.0,110455.0
2026-04-14 17:59:26.124171,664989,1609507059775123,4659744673,-0.353312,0.743712,-0.77104,-1.3125,-86.91375,-97.3525,-27.096,-15.016001,-22.096,eccentric,5,3.0,47397.0,182943.0,95266.0,179737.0,110455.0
2026-04-14 17:59:26.131627,664990,1609507059784153,4659753416,-0.353312,0.743712,-0.77104,-0.5075,-85.18125,-97.5625,-27.096,-15.016001,-22.096,eccentric,5,3.0,47397.0,182943.0,95266.0,179737.0,110455.0
2026-04-14 17:59:26.148063,664991,1609507059798648,4659768320,-0.349408,0.786656,-0.554368,9.0475,-82.7575,-98.88375,-25.936,-15.472001,-22.84,eccentric,5,3.0,47397.0,182943.0,95266.0,179737.0,110455.0
2026-04-14 17:59:26.155495,664992,1609507059807558,4659776999,-0.349408,0.786656,-0.554368,21.98875,-77.39375,-97.58,-25.936,-15.472001,-22.84,eccentric,5,3.0,47397.0,182943.0,95266.0,179737.0,110455.0
2026-04-14 17:59:26.187664,664993,1609507059822085,4659791875,-0.353312,0.825696,-0.730048,25.27,-76.27375,-98.840004,-25.008001,-16.192001,-23.496,eccentric,5,3.0,47397.0,182943.0,95266.0,179737.0,110455.0
2026-04-14 17:59:26.191270,664994,1609507059831046,4659800619,-0.325984,0.765184,-0.733952,22.44375,-77.5425,-98.20125,-23.552002,-16.76,-22.208,eccentric,5,3.0,47397.0,182943.0,95266.0,179737.0,110455.0
2026-04-14 17:59:26.224242,665005,1609507059840073,4659809353,-0.325984,0.765184,-0.733952,16.52875,-81.025,-97.86875,-23.552002,-16.76,-22.208,eccentric,5,3.0,44817.0,183591.0,91670.0,179880.0,106854.0
2026-04-14 17:59:26.226348,665006,1609507059854678,4659824279,-0.384544,0.743712,-0.581696,12.20625,-83.7025,-98.09625,-22.688002,-16.664001,-24.232,eccentric,5,3.0,44817.0,183591.0,91670.0,179880.0,106854.0
2026-04-14 17:59:26.228911,665007,1609507059863683,4659833018,-0.384544,0.743712,-0.581696,16.8525,-83.3525,-98.2625,-22.688002,-16.664001,-24.232,eccentric,5,3.0,44817.0,183591.0,91670.0,179880.0,106854.0
2026-04-14 17:59:26.231816,665008,1609507059878231,4659847971,-0.482144,0.792512,-0.755424,21.8925,-81.3575,-97.4575,-21.544,-17.312,-24.744001,eccentric,5,3.0,44817.0,183591.0,91670.0,179880.0,106854.0
2026-04-14 17:59:26.235158,665009,1609507059887233,4659856828,-0.482144,0.792512,-0.755424,22.05875,-82.5475,-97.06375,-21.544,-17.312,-24.744001,eccentric,5,3.0,44817.0,183591.0,91670.0,179880.0,106854.0
2026-04-14 17:59:26.243826,665010,1609507059896330,4659865526,-0.530944,0.80032,-0.581696,15.627501,-85.5575,-96.88875,-19.832,-17.616001,-25.312,eccentric,5,3.0,44817.0,183591.0,91670.0,179880.0,106854.0
2026-04-14 17:59:26.259281,665011,1609507059910804,4659880499,-0.61488,0.71248,-0.6832,11.89125,-88.0425,-95.36625,-17.784,-18.08,-26.536001,eccentric,5,3.0,44817.0,183591.0,91670.0,179880.0,106854.0
2026-04-14 17:59:26.267170,665012,1609507059919729,4659889241,-0.61488,0.71248,-0.6832,14.3325,-88.54125,-94.15,-17.648,-18.08,-26.536001,eccentric,5,3.0,44817.0,183591.0,91670.0,179880.0,106854.0
2026-04-14 17:59:26.287952,665013,1609507059934178,4659904153,-0.66368,0.753472,-0.642208,19.06625,-86.205,-93.975,-16.568,-17.784,-26.720001,eccentric,5,3.0,44817.0,183591.0,91670.0,179880.0,106854.0
2026-04-14 17:59:26.338048,665024,1609507059943212,4659913036,-0.66368,0.753472,-0.642208,25.655,-82.52125,-92.277504,-16.568,-17.784,-26.720001,eccentric,5,3.0,38152.0,176081.0,82071.0,172876.0,96134.0
2026-04-14 17:59:26.360014,665025,1609507059957935,4659927975,-0.753472,0.696864,-0.79056,32.76,-79.2925,-89.41625,-15.192,-18.224,-28.696001,eccentric,5,3.0,38152.0,176081.0,82071.0,172876.0,96134.0
2026-04-14 17:59:26.362720,665026,1609507059966874,4659936655,-0.753472,0.696864,-0.79056,34.16,-79.135,-87.75375,-15.192,-18.224,-28.696001,eccentric,5,3.0,38152.0,176081.0,82071.0,172876.0,96134.0
2026-04-14 17:59:26.365160,665027,1609507059975879,4659945377,-0.763232,0.694912,-0.601216,30.2575,-78.91625,-84.402504,-12.84,-18.896002,-29.088001,eccentric,5,3.0,38152.0,176081.0,82071.0,172876.0,96134.0
2026-04-14 17:59:26.368065,665028,1609507059990368,4659960293,-0.763232,0.694912,-0.601216,24.73625,-80.0975,-82.11,-12.84,-18.896002,-29.088001,eccentric,5,3.0,38152.0,176081.0,82071.0,172876.0,96134.0
2026-04-14 17:59:26.370054,665029,1609507059999284,4659968976,-0.81008,0.704672,-0.677344,24.01,-78.21625,-81.13,-11.88,-18.328001,-31.320002,eccentric,5,3.0,38152.0,176081.0,82071.0,172876.0,96134.0
2026-04-14 17:59:26.373063,665030,1609507060013770,4659983853,-0.83936,0.70272,-0.685152,28.30625,-74.62,-79.17875,-10.384001,-18.488,-29.864002,eccentric,5,3.0,38152.0,176081.0,82071.0,172876.0,96134.0
2026-04-14 17:59:26.375495,665031,1609507060022788,4659992565,-0.83936,0.70272,-0.685152,33.1275,-70.16625,-76.97375,-10.384001,-18.488,-29.864002,eccentric,5,3.0,38152.0,176081.0,82071.0,172876.0,96134.0
2026-04-14 17:59:26.416645,665042,1609507060038030,4660007675,-0.788608,0.681248,-0.548512,32.94375,-68.425,-74.71625,-9.496,-17.608002,-29.464,eccentric,5,3.0,34161.0,173473.0,75846.0,170624.0,89349.0
2026-04-14 17:59:26.419159,665043,1609507060047044,4660016449,-0.788608,0.681248,-0.548512,35.51625,-65.205,-69.41375,-9.496,-17.608002,-29.464,eccentric,5,3.0,34161.0,173473.0,75846.0,170624.0,89349.0
2026-04-14 17:59:26.421343,665044,1609507060056028,4660025305,-0.815936,0.612928,-0.646112,38.24625,-60.55875,-65.5725,-8.936001,-17.208,-29.928001,eccentric,5,3.0,34161.0,173473.0,75846.0,170624.0,89349.0
2026-04-14 17:59:26.424113,665045,1609507060070502,4660040294,-0.815936,0.612928,-0.646112,34.8075,-56.23625,-63.0,-8.936001,-17.208,-29.928001,concentric,5,3.0,34161.0,173473.0,75846.0,170624.0,89349.0
2026-04-14 17:59:26.428674,665046,1609507060079477,4660049043,-0.856928,0.716384,-0.66368,33.13625,-51.345,-58.353752,-7.488,-17.152,-30.504002,concentric,5,3.0,34161.0,173473.0,75846.0,170624.0,89349.0
2026-04-14 17:59:26.436671,665047,1609507060088417,4660057761,-0.856928,0.716384,-0.66368,35.93625,-47.7575,-53.82125,-7.488,-17.152,-30.504002,concentric,5,3.0,34161.0,173473.0,75846.0,170624.0,89349.0
2026-04-14 17:59:26.450520,665048,1609507060102940,4660072683,-0.769088,0.71248,-0.587552,35.74375,-45.78,-51.87875,-6.328,-17.216002,-31.296001,concentric,5,3.0,34161.0,173473.0,75846.0,170624.0,89349.0
2026-04-14 17:59:26.463715,665049,1609507060111868,4660081365,-0.72224,0.677344,-0.626592,25.97875,-44.91375,-49.95375,-6.328,-17.216002,-31.352001,concentric,5,3.0,34161.0,173473.0,75846.0,170624.0,89349.0
2026-04-14 17:59:26.476154,665050,1609507060126377,4660096262,-0.72224,0.677344,-0.626592,18.865,-44.23125,-46.8125,-5.2,-16.632,-31.352001,concentric,5,3.0,34161.0,173473.0,75846.0,170624.0,89349.0
2026-04-14 17:59:26.482980,665051,1609507060135320,4660105020,-0.80032,0.630496,-0.745664,16.03,-42.98875,-45.54375,-5.088,-16.008001,-30.648,concentric,5,3.0,34161.0,173473.0,75846.0,170624.0,89349.0
2026-04-14 17:59:26.510016,665062,1609507060149898,4660120093,-0.80032,0.630496,-0.745664,16.87,-39.54125,-42.420002,-5.088,-16.008001,-30.648,concentric,5,3.0,34378.0,178337.0,75631.0,173619.0,89398.0
2026-04-14 17:59:26.513010,665063,1609507060158849,4660128779,-0.776896,0.651968,-0.8296,21.60375,-35.84,-38.21125,-5.24,-15.664001,-30.112001,concentric,5,3.0,34378.0,178337.0,75631.0,173619.0,89398.0
2026-04-14 17:59:26.515482,665064,1609507060167904,4660137502,-0.776896,0.651968,-0.8296,23.135,-34.2825,-35.44625,-5.24,-15.664001,-30.112001,concentric,5,3.0,34378.0,178337.0,75631.0,173619.0,89398.0
2026-04-14 17:59:26.530467,665065,1609507060182399,4660152450,-0.745664,0.655872,-0.757376,22.085001,-34.2825,-32.235,-4.496,-15.712001,-31.264002,concentric,5,3.0,34378.0,178337.0,75631.0,173619.0,89398.0
2026-04-14 17:59:26.540588,665066,1609507060191342,4660161139,-0.745664,0.655872,-0.757376,17.115,-36.33,-30.66,-4.496,-15.712001,-31.264002,concentric,5,3.0,34378.0,178337.0,75631.0,173619.0,89398.0
2026-04-14 17:59:26.551155,665067,1609507060205890,4660174262,-0.70272,0.589504,-0.671488,10.7975,-37.1,-29.42625,-2.728,-15.696001,-31.952002,concentric,5,3.0,34378.0,178337.0,75631.0,173619.0,89398.0
2026-04-14 17:59:26.562976,665068,1609507060215098,4660185017,-0.8296,0.64416,-0.784704,10.08,-34.16875,-27.23875,-1.936,-15.752001,-31.896002,concentric,5,3.0,34378.0,178337.0,75631.0,173619.0,89398.0
2026-04-14 17:59:26.578672,665069,1609507060229698,4660199992,-0.8296,0.64416,-0.784704,9.9925,-31.31625,-25.2875,-1.936,-15.752001,-31.896002,concentric,5,3.0,34378.0,178337.0,75631.0,173619.0,89398.0
2026-04-14 17:59:26.610037,665080,1609507060239289,4660208896,-0.827648,0.64416,-0.626592,6.81625,-30.79125,-24.29875,-1.872,-15.136001,-31.760002,concentric,5,3.0,33460.0,175909.0,74029.0,171295.0,87682.0
2026-04-14 17:59:26.612560,665081,1609507060248318,4660217691,-0.827648,0.64416,-0.626592,3.91125,-30.275,-21.72625,-1.872,-15.136001,-31.760002,concentric,5,3.0,33460.0,175909.0,74029.0,171295.0,87682.0
2026-04-14 17:59:26.615524,665082,1609507060262888,4660232647,-0.856928,0.548512,-0.544608,2.12625,-30.397501,-19.78375,-2.296,-15.248001,-31.808,concentric,5,3.0,33460.0,175909.0,74029.0,171295.0,87682.0
2026-04-14 17:59:26.620543,665083,1609507060271828,4660241380,-0.856928,0.548512,-0.544608,-1.81125,-29.6625,-17.50875,-2.296,-15.248001,-31.808,concentric,5,3.0,33460.0,175909.0,74029.0,171295.0,87682.0
2026-04-14 17:59:26.630525,665084,1609507060280917,4660250281,-0.874496,0.525088,-0.732,-5.0925,-28.0875,-14.385,-0.776,-15.608001,-34.024002,concentric,5,3.0,33460.0,175909.0,74029.0,171295.0,87682.0
2026-04-14 17:59:26.642660,665085,1609507060295417,4660265186,-0.825696,0.511424,-0.694912,-5.46,-26.6,-13.78125,-0.088,-15.744,-32.336002,concentric,5,3.0,33460.0,175909.0,74029.0,171295.0,87682.0
2026-04-14 17:59:26.654268,665086,1609507060304415,4660273874,-0.825696,0.511424,-0.694912,-6.545,-24.80625,-12.8625,-0.088,-15.744,-32.336002,concentric,5,3.0,33460.0,175909.0,74029.0,171295.0,87682.0
2026-04-14 17:59:26.667360,665087,1609507060318931,4660288746,-0.886208,0.542656,-0.601216,-7.9275,-23.6775,-12.145,-1.184,-15.280001,-30.632002,concentric,5,3.0,33460.0,175909.0,74029.0,171295.0,87682.0
2026-04-14 17:59:26.674832,665088,1609507060327914,4660297554,-0.886208,0.542656,-0.601216,-10.08875,-23.1525,-11.50625,-1.184,-15.280001,-30.632002,concentric,5,3.0,33460.0,175909.0,74029.0,171295.0,87682.0
2026-04-14 17:59:26.781635,665099,1609507060342563,4660312483,-0.813984,0.435296,-0.49776,-9.45875,-21.647501,-10.00125,-0.376,-15.536001,-31.608002,concentric,5,3.0,32671.0,174170.0,72817.0,170113.0,86303.0
2026-04-14 17:59:26.784144,665100,1609507060351512,4660321234,-0.813984,0.435296,-0.49776,-8.74125,-19.80125,-8.365,-0.376,-15.536001,-31.608002,concentric,5,3.0,32671.0,174170.0,72817.0,170113.0,86303.0
2026-04-14 17:59:26.786206,665101,1609507060360452,4660329945,-0.923296,0.456768,-0.56608,-10.17625,-17.6225,-7.2275,-1.456,-15.008,-30.696001,concentric,5,3.0,32671.0,174170.0,72817.0,170113.0,86303.0
2026-04-14 17:59:26.789279,665102,1609507060375115,4660344991,-0.923296,0.513376,-0.532896,-11.1125,-13.76375,-4.6725,-1.296,-15.768001,-31.448002,concentric,5,3.0,32671.0,174170.0,72817.0,170113.0,86303.0
2026-04-14 17:59:26.791772,665103,1609507060384045,4660353665,-0.923296,0.513376,-0.532896,-10.9025,-11.2,-3.7625,-1.296,-15.768001,-31.448002,concentric,5,3.0,32671.0,174170.0,72817.0,170113.0,86303.0
2026-04-14 17:59:26.793774,665104,1609507060398824,4660368591,-0.812032,0.462624,-0.488,-13.20375,-9.42375,-3.955,-0.144,-16.064001,-31.216002,concentric,5,3.0,32671.0,174170.0,72817.0,170113.0,86303.0
2026-04-14 17:59:26.796317,665105,1609507060407801,4660377258,-0.812032,0.462624,-0.488,-16.96625,-8.07625,-3.2375,-0.144,-16.064001,-31.216002,concentric,5,3.0,32671.0,174170.0,72817.0,170113.0,86303.0
2026-04-14 17:59:26.799035,665106,1609507060416881,4660385997,-0.833504,0.443104,-0.54656,-19.59125,-7.13125,-3.77125,-0.512,-16.056002,-31.432001,concentric,5,3.0,32671.0,174170.0,72817.0,170113.0,86303.0
2026-04-14 17:59:26.826415,665107,1609507060431421,4660400944,-0.833504,0.443104,-0.54656,-19.60875,-4.82125,-3.36,-0.512,-16.056002,-31.432001,concentric,5,3.0,32671.0,174170.0,72817.0,170113.0,86303.0
2026-04-14 17:59:26.864233,665118,1609507060440611,4660410073,-0.841312,0.480192,-0.47824,-17.08875,-2.6425,-3.465,-0.584,-16.272001,-30.736002,concentric,5,3.0,32638.0,174265.0,72887.0,170317.0,86324.0
2026-04-14 17:59:26.866765,665119,1609507060455354,4660425106,-0.8784,0.503616,-0.464576,-16.1525,-1.91625,-4.26125,-0.28,-16.568,-32.128002,concentric,5,3.0,32638.0,174265.0,72887.0,170317.0,86324.0
2026-04-14 17:59:26.869261,665120,1609507060464358,4660433804,-0.8784,0.503616,-0.464576,-18.59375,-2.03,-4.7775,-0.28,-16.568,-32.128002,concentric,5,3.0,32638.0,174265.0,72887.0,170317.0,86324.0
2026-04-14 17:59:26.871617,665121,1609507060473287,4660442494,-0.8784,0.503616,-0.464576,-20.22125,-1.3825,-4.4275,-0.28,-16.568,-32.128002,concentric,5,3.0,32638.0,174265.0,72887.0,170317.0,86324.0
2026-04-14 17:59:26.874249,665122,1609507060487868,4660457434,-0.856928,0.466528,-0.47824,-20.3875,-1.3125,-4.33125,0.496,-16.976002,-29.936,concentric,5,3.0,32638.0,174265.0,72887.0,170317.0,86324.0
2026-04-14 17:59:26.876275,665123,1609507060496886,4660466175,-0.856928,0.437248,-0.499712,-20.8075,-2.24,-4.40125,0.592,-17.2,-31.448002,concentric,5,3.0,32638.0,174265.0,72887.0,170317.0,86324.0
2026-04-14 17:59:26.879200,665124,1609507060511383,4660481148,-0.856928,0.437248,-0.499712,-18.27,-2.73875,-3.64,0.592,-17.2,-31.448002,concentric,5,3.0,32638.0,174265.0,72887.0,170317.0,86324.0
2026-04-14 17:59:26.881198,665125,1609507060520343,4660489853,-0.894016,0.505568,-0.456768,-14.2275,-2.03,-3.70125,0.4,-17.512001,-31.792002,concentric,5,3.0,32638.0,174265.0,72887.0,170317.0,86324.0
2026-04-14 17:59:26.884190,665126,1609507060535049,4660504875,-0.911584,0.491904,-0.587552,-10.92,-1.07625,-3.465,0.784,-17.28,-31.728,concentric,5,3.0,32638.0,174265.0,72887.0,170317.0,86324.0
2026-04-14 17:59:26.911665,665137,1609507060544159,4660513651,-0.911584,0.491904,-0.587552,-11.66375,-0.35875,-4.19125,0.784,-17.28,-31.728,concentric,5,3.0,33027.0,174617.0,73667.0,170666.0,87086.0
2026-04-14 17:59:26.914275,665138,1609507060553167,4660522395,-0.911584,0.491904,-0.587552,-14.28,1.05,-4.05125,0.784,-17.28,-31.728,concentric,5,3.0,33027.0,174617.0,73667.0,170666.0,87086.0
2026-04-14 17:59:26.916766,665139,1609507060567787,4660537498,-0.870592,0.460672,-0.3904,-16.66875,1.60125,-2.98375,0.672,-17.696001,-33.584003,concentric,5,3.0,33027.0,174617.0,73667.0,170666.0,87086.0
2026-04-14 17:59:26.924269,665140,1609507060576837,4660546212,-0.83936,0.417728,-0.525088,-15.6975,1.89875,-1.4525,-0.04,-17.928001,-31.384,concentric,5,3.0,33027.0,174617.0,73667.0,170666.0,87086.0
2026-04-14 17:59:26.942025,665141,1609507060591331,4660561249,-0.83936,0.417728,-0.525088,-11.68125,2.23125,-0.9975,-0.04,-17.928001,-31.384,concentric,5,3.0,33027.0,174617.0,73667.0,170666.0,87086.0
2026-04-14 17:59:26.951411,665142,1609507060600395,4660570064,-0.81984,0.472384,-0.435296,-8.1375,1.75,-0.60375,0.56,-17.592001,-30.632002,concentric,5,3.0,33027.0,174617.0,73667.0,170666.0,87086.0
2026-04-14 17:59:26.958088,665143,1609507060609507,4660578792,-0.81984,0.472384,-0.435296,-6.29125,1.49625,0.13125,0.56,-17.592001,-30.632002,concentric,5,3.0,33027.0,174617.0,73667.0,170666.0,87086.0
2026-04-14 17:59:26.973009,665144,1609507060623992,4660593772,-0.813984,0.484096,-0.355264,-6.5975,2.625,-0.5775,-0.664,-17.176,-30.568,concentric,5,3.0,33027.0,174617.0,73667.0,170666.0,87086.0
2026-04-14 17:59:26.980604,665145,1609507060632942,4660602524,-0.813984,0.484096,-0.355264,-8.02375,4.305,-0.30625,-0.664,-17.176,-30.568,concentric,5,3.0,33027.0,174617.0,73667.0,170666.0,87086.0
2026-04-14 17:59:27.011782,665156,1609507060647471,4660617506,-0.880352,0.435296,-0.564128,-8.925,4.9875,0.175,-0.792,-17.816,-31.616001,concentric,5,3.0,32857.0,175441.0,73294.0,171367.0,86650.0
2026-04-14 17:59:27.014359,665157,1609507060656521,4660626254,-0.88816,0.441152,-0.620736,-5.845,5.5825,1.12,-0.84,-17.584002,-26.224,concentric,5,3.0,32857.0,175441.0,73294.0,171367.0,86650.0
2026-04-14 17:59:27.018971,665158,1609507060671040,4660641175,-0.88816,0.441152,-0.620736,-0.97125,6.93875,1.925,-0.84,-17.584002,-26.224,concentric,5,3.0,32857.0,175441.0,73294.0,171367.0,86650.0
2026-04-14 17:59:27.029302,665159,1609507060679987,4660649861,-0.901824,0.495808,-0.59536,3.31625,8.365,3.43,-0.032,-17.728,-30.632002,concentric,5,3.0,32857.0,175441.0,73294.0,171367.0,86650.0
2026-04-14 17:59:27.036245,665160,1609507060689060,4660658541,-0.901824,0.495808,-0.59536,5.41625,10.0275,5.18,-0.032,-17.728,-30.632002,concentric,5,3.0,32857.0,175441.0,73294.0,171367.0,86650.0
2026-04-14 17:59:27.074100,665161,1609507060703541,4660673424,-0.847168,0.474336,-0.505568,4.99625,11.698751,6.41375,-1.632,-17.176,-29.712002,concentric,5,3.0,32857.0,175441.0,73294.0,171367.0,86650.0
2026-04-14 17:59:27.076153,665162,1609507060712467,4660682115,-0.847168,0.474336,-0.505568,6.5625,14.2975,8.35625,-1.632,-17.176,-29.712002,concentric,5,3.0,32857.0,175441.0,73294.0,171367.0,86650.0
2026-04-14 17:59:27.079175,665163,1609507060726948,4660697012,-0.890112,0.515328,-0.466528,8.925,17.6925,9.77375,-2.36,-17.032001,-30.304,concentric,5,3.0,32857.0,175441.0,73294.0,171367.0,86650.0
2026-04-14 17:59:27.105524,665164,1609507060735906,4660705693,-0.93696,0.558272,-0.689056,9.17,21.30625,12.52125,-2.36,-17.032001,-29.992,concentric,5,3.0,32857.0,175441.0,73294.0,171367.0,86650.0
2026-04-14 17:59:27.137355,665175,1609507060750500,4660720715,-0.933056,0.558272,-0.689056,11.99625,24.43875,15.225,-2.096,-17.544,-29.992,concentric,5,3.0,31768.0,173517.0,71735.0,169886.0,84748.0
2026-04-14 17:59:27.137473,665176,1609507060759445,4660729394,-0.808128,0.534848,-0.503616,11.042501,26.53875,15.785,-1.272,-17.720001,-31.568,concentric,5,3.0,31768.0,173517.0,71735.0,169886.0,84748.0
2026-04-14 17:59:27.137530,665177,1609507060768390,4660738122,-0.808128,0.534848,-0.503616,8.5925,29.05875,18.4625,-1.272,-17.720001,-31.568,concentric,5,3.0,31768.0,173517.0,71735.0,169886.0,84748.0
2026-04-14 17:59:27.139852,665178,1609507060782946,4660753128,-0.903776,0.607072,-0.753472,9.31,31.9025,21.14875,-1.912,-17.696001,-31.088001,concentric,5,3.0,31768.0,173517.0,71735.0,169886.0,84748.0
2026-04-14 17:59:27.142448,665179,1609507060791902,4660761849,-0.903776,0.607072,-0.753472,12.36375,34.95625,21.62125,-1.912,-17.696001,-31.088001,concentric,5,3.0,31768.0,173517.0,71735.0,169886.0,84748.0
2026-04-14 17:59:27.155408,665180,1609507060806606,4660776819,-0.845216,0.665632,-0.784704,12.635,36.68875,22.86375,-3.224,-16.800001,-30.808,concentric,5,3.0,31768.0,173517.0,71735.0,169886.0,84748.0
2026-04-14 17:59:27.165485,665181,1609507060815632,4660785517,-0.845216,0.665632,-0.784704,8.75875,36.9075,23.03,-3.224,-16.800001,-30.808,concentric,5,3.0,31768.0,173517.0,71735.0,169886.0,84748.0
2026-04-14 17:59:27.172894,665182,1609507060824606,4660794196,-0.821792,0.66368,-0.636352,1.4525,37.975,24.57,-4.144,-16.952002,-32.072002,concentric,5,3.0,31768.0,173517.0,71735.0,169886.0,84748.0
2026-04-14 17:59:27.187483,665183,1609507060839279,4660809085,-0.7808,0.638304,-0.610976,-4.9,40.31125,27.1075,-4.088,-17.08,-31.816002,concentric,5,3.0,31768.0,173517.0,71735.0,169886.0,84748.0
2026-04-14 17:59:27.215179,665194,1609507060848480,4660818008,-0.7808,0.638304,-0.610976,-7.21,43.81125,31.3075,-4.088,-17.08,-31.816002,concentric,5,3.0,31961.0,177777.0,71757.0,172943.0,84817.0
2026-04-14 17:59:27.219493,665195,1609507060863096,4660833015,-0.812032,0.687104,-0.772992,-4.10375,48.23,36.53125,-5.896,-17.144001,-30.736002,concentric,5,3.0,31961.0,177777.0,71757.0,172943.0,84817.0
2026-04-14 17:59:27.219972,665196,1609507060872043,4660841708,-0.812032,0.687104,-0.772992,-0.63875,52.54375,40.845,-5.896,-17.144001,-30.736002,concentric,5,3.0,31961.0,177777.0,71757.0,172943.0,84817.0
2026-04-14 17:59:27.228822,665197,1609507060881041,4660850440,-0.732,0.737856,-0.81008,-0.35875,55.947502,44.17875,-6.816001,-16.288,-29.488,concentric,5,3.0,31961.0,177777.0,71757.0,172943.0,84817.0
2026-04-14 17:59:27.242496,665198,1609507060895612,4660865378,-0.732,0.737856,-0.81008,-6.055,58.02125,46.92625,-6.816001,-16.288,-29.488,concentric,5,3.0,31961.0,177777.0,71757.0,172943.0,84817.0
2026-04-14 17:59:27.252662,665199,1609507060904553,4660874065,-0.757376,0.757376,-0.626592,-13.825,59.045002,48.615,-7.960001,-16.84,-30.272001,concentric,5,3.0,31961.0,177777.0,71757.0,172943.0,84817.0
2026-04-14 17:59:27.267725,665200,1609507060919047,4660888962,-0.689056,0.675392,-0.763232,-20.71125,59.2375,50.435,-8.280001,-17.560001,-31.896002,concentric,5,3.0,31961.0,177777.0,71757.0,172943.0,84817.0
2026-04-14 17:59:27.277728,665201,1609507060927986,4660897661,-0.689056,0.675392,-0.763232,-23.80875,60.1825,52.745,-8.280001,-17.560001,-31.896002,concentric,5,3.0,31961.0,177777.0,71757.0,172943.0,84817.0
2026-04-14 17:59:27.313750,665212,1609507060943039,4660912662,-0.724192,0.757376,-0.755424,-26.425,61.495,55.48375,-10.208,-17.304,-29.472002,concentric,5,3.0,31041.0,174135.0,70522.0,169936.0,83102.0
2026-04-14 17:59:27.316203,665213,1609507060952122,4660921477,-0.724192,0.757376,-0.755424,-28.46375,63.1925,59.0975,-10.208,-17.304,-29.472002,concentric,5,3.0,31041.0,174135.0,70522.0,169936.0,83102.0
2026-04-14 17:59:27.319522,665214,1609507060961237,4660930215,-0.700768,0.7808,-0.616832,-31.3425,65.65125,61.69625,-10.816001,-17.944,-30.168001,concentric,5,3.0,31041.0,174135.0,70522.0,169936.0,83102.0
2026-04-14 17:59:27.326691,665215,1609507060975745,4660945134,-0.700768,0.7808,-0.616832,-35.8225,66.675,63.201252,-10.816001,-17.944,-30.168001,concentric,5,3.0,31041.0,174135.0,70522.0,169936.0,83102.0
2026-04-14 17:59:27.332610,665216,1609507060984688,4660953820,-0.687104,0.75152,-0.626592,-39.48875,67.34875,65.87,-12.024,-18.272001,-27.160002,concentric,5,3.0,31041.0,174135.0,70522.0,169936.0,83102.0
2026-04-14 17:59:27.347611,665217,1609507060999201,4660968714,-0.732,0.778848,-0.856928,-40.4425,69.50125,68.08375,-14.200001,-17.976002,-25.824001,concentric,5,3.0,31041.0,174135.0,70522.0,169936.0,83102.0
2026-04-14 17:59:27.355110,665218,1609507061008239,4660977519,-0.732,0.778848,-0.856928,-41.5975,71.9075,70.00875,-14.200001,-17.976002,-25.824001,concentric,5,3.0,31041.0,174135.0,70522.0,169936.0,83102.0
2026-04-14 17:59:27.367764,665219,1609507061017227,4660986218,-0.732,0.778848,-0.626592,-42.46375,75.10125,73.80625,-14.200001,-17.976002,-25.824001,concentric,5,3.0,31041.0,174135.0,70522.0,169936.0,83102.0
2026-04-14 17:59:27.380260,665220,1609507061031745,4661001089,-0.62464,0.77104,-0.626592,-44.28375,77.76125,76.51,-15.168001,-18.504002,-28.504002,concentric,5,3.0,31041.0,174135.0,70522.0,169936.0,83102.0
2026-04-14 17:59:27.390243,665221,1609507061040693,4661009775,-0.591456,0.747616,-0.636352,-47.57375,79.6775,79.31,-16.52,-18.352001,-27.592001,concentric,5,3.0,31041.0,174135.0,70522.0,169936.0,83102.0
2026-04-14 17:59:27.470094,665232,1609507061055246,4661024736,-0.591456,0.747616,-0.636352,-48.79875,82.08375,82.0925,-16.52,-18.352001,-27.592001,concentric,5,3.0,31770.0,171744.0,71640.0,168543.0,84324.0
2026-04-14 17:59:27.495983,665233,1609507061064202,4661033559,-0.716384,0.786656,-0.866688,-50.076252,83.9825,83.92125,-18.12,-18.736,-26.584002,concentric,5,3.0,31770.0,171744.0,71640.0,168543.0,84324.0
2026-04-14 17:59:27.501075,665234,1609507061078722,4661048475,-0.628544,0.774944,-0.755424,-50.93375,85.785,87.26375,-19.696001,-18.344002,-27.232,concentric,5,3.0,31770.0,171744.0,71640.0,168543.0,84324.0
2026-04-14 17:59:27.501490,665235,1609507061087663,4661057174,-0.628544,0.774944,-0.755424,-50.155,86.5725,89.8275,-19.696001,-18.344002,-27.232,concentric,5,3.0,31770.0,171744.0,71640.0,168543.0,84324.0
2026-04-14 17:59:27.511198,665236,1609507061096538,4661065862,-0.628544,0.774944,-0.755424,-46.865,88.025,93.07375,-19.696001,-18.344002,-27.232,concentric,5,3.0,31770.0,171744.0,71640.0,168543.0,84324.0
2026-04-14 17:59:27.511294,665237,1609507061111180,4661080808,-0.5368,0.825696,-0.636352,-41.88625,91.44625,96.5825,-21.048,-18.264,-24.720001,concentric,5,3.0,31770.0,171744.0,71640.0,168543.0,84324.0
2026-04-14 17:59:27.511347,665238,1609507061120276,4661089516,-0.476288,0.847168,-0.593408,-39.94375,93.61625,98.23625,-22.872002,-18.088001,-24.04,concentric,5,3.0,31770.0,171744.0,71640.0,168543.0,84324.0
2026-04-14 17:59:27.512414,665239,1609507061134745,4661104449,-0.476288,0.847168,-0.593408,-42.857502,94.17625,100.2225,-22.872002,-18.088001,-24.04,concentric,5,3.0,31770.0,171744.0,71640.0,168543.0,84324.0
2026-04-14 17:59:27.542630,665250,1609507061144055,4661113730,-0.460672,0.831552,-0.60512,-45.21125,94.3775,101.465004,-24.44,-17.800001,-23.152,concentric,5,3.0,34188.0,172763.0,74999.0,169435.0,88364.0
2026-04-14 17:59:27.545042,665251,1609507061153014,4661122444,-0.460672,0.831552,-0.60512,-43.23375,95.26125,103.433754,-24.44,-17.800001,-23.152,concentric,5,3.0,34188.0,172763.0,74999.0,169435.0,88364.0
2026-04-14 17:59:27.547716,665252,1609507061167544,4661137526,-0.452864,0.89792,-0.661728,-40.10125,97.64125,105.09625,-26.088001,-16.792002,-21.84,concentric,5,3.0,34188.0,172763.0,74999.0,169435.0,88364.0
2026-04-14 17:59:27.550082,665253,1609507061176591,4661146302,-0.452864,0.89792,-0.661728,-40.0575,100.4325,107.555,-26.088001,-16.792002,-21.84,concentric,5,3.0,34188.0,172763.0,74999.0,169435.0,88364.0
2026-04-14 17:59:27.553076,665254,1609507061191239,4661161296,-0.392352,0.880352,-0.81984,-43.015,102.8475,110.565,-27.448002,-16.256,-20.36,concentric,5,3.0,34188.0,172763.0,74999.0,169435.0,88364.0
2026-04-14 17:59:27.555543,665255,1609507061200262,4661170050,-0.343552,0.802272,-0.823744,-45.22,101.7625,112.56,-29.592001,-15.176001,-17.768002,concentric,5,3.0,34188.0,172763.0,74999.0,169435.0,88364.0
2026-04-14 17:59:27.558061,665256,1609507061209227,4661178793,-0.343552,0.802272,-0.823744,-44.37125,101.75375,114.808754,-29.592001,-15.176001,-17.768002,concentric,5,3.0,34188.0,172763.0,74999.0,169435.0,88364.0
2026-04-14 17:59:27.574288,665257,1609507061223753,4661193699,-0.310368,0.876448,-0.83936,-37.826252,103.11,116.62,-30.888002,-14.632001,-18.432001,concentric,5,3.0,34188.0,172763.0,74999.0,169435.0,88364.0
2026-04-14 17:59:27.581809,665258,1609507061232777,4661202408,-0.310368,0.876448,-0.83936,-31.36875,105.21,117.1975,-30.888002,-14.632001,-18.432001,concentric,5,3.0,34188.0,172763.0,74999.0,169435.0,88364.0
2026-04-14 17:59:27.621275,665269,1609507061247423,4661217422,-0.177632,0.960384,-0.55632,-31.605,106.8025,117.04,-31.584002,-13.824,-17.048,concentric,5,3.0,44559.0,181449.0,89163.0,176797.0,104591.0
2026-04-14 17:59:27.623739,665270,1609507061256617,4661226155,-0.177632,0.960384,-0.55632,-35.65625,108.29875,118.055,-31.584002,-13.824,-17.048,concentric,5,3.0,44559.0,181449.0,89163.0,176797.0,104591.0
2026-04-14 17:59:27.626340,665271,1609507061271190,4661241099,-0.12688,0.870592,-0.573888,-40.95875,108.5175,119.1575,-32.648003,-12.304001,-15.544001,concentric,5,3.0,44559.0,181449.0,89163.0,176797.0,104591.0
2026-04-14 17:59:27.629206,665272,1609507061280167,4661249781,-0.132736,0.788608,-0.7808,-44.84375,108.45625,120.3825,-33.736,-11.384001,-14.984001,concentric,5,3.0,44559.0,181449.0,89163.0,176797.0,104591.0
2026-04-14 17:59:27.636739,665273,1609507061289266,4661258561,-0.132736,0.788608,-0.7808,-40.845,110.17125,122.35125,-33.736,-11.384001,-14.984001,concentric,5,3.0,44559.0,181449.0,89163.0,176797.0,104591.0
2026-04-14 17:59:27.652745,665274,1609507061303771,4661273495,-0.08784,0.874496,-0.65392,-33.57375,111.1775,123.41875,-34.464,-10.048,-13.080001,concentric,5,3.0,44559.0,181449.0,89163.0,176797.0,104591.0
2026-04-14 17:59:27.660189,665275,1609507061312724,4661282179,-0.08784,0.874496,-0.65392,-27.475,112.7525,125.7375,-34.464,-10.048,-13.080001,concentric,5,3.0,44559.0,181449.0,89163.0,176797.0,104591.0
2026-04-14 17:59:27.676362,665276,1609507061327235,4661297073,0.01952,0.854976,-0.579744,-22.91625,114.28375,127.72375,-37.024002,-8.256001,-10.52,concentric,5,3.0,44559.0,181449.0,89163.0,176797.0,104591.0
2026-04-14 17:59:27.688541,665277,1609507061336162,4661305807,0.01952,0.854976,-0.579744,-23.397501,116.9875,127.61,-37.024002,-8.256001,-10.52,concentric,5,3.0,44559.0,181449.0,89163.0,176797.0,104591.0
2026-04-14 17:59:27.716132,665288,1609507061345430,4661314848,0.02928,0.886208,-0.495808,-31.395,116.6725,125.615,-36.288002,-7.456,-10.0,concentric,5,3.0,64699.0,192973.0,112565.0,186472.0,132225.0
2026-04-14 17:59:27.718741,665289,1609507061360186,4661329829,0.142496,0.743712,-0.538752,-39.9175,113.75875,127.435,-36.288002,-5.808,-5.856,concentric,5,3.0,64699.0,192973.0,112565.0,186472.0,132225.0
2026-04-14 17:59:27.721748,665290,1609507061369132,4661338536,0.142496,0.743712,-0.538752,-43.19,112.8925,128.9575,-36.800003,-5.808,-5.856,concentric,5,3.0,64699.0,192973.0,112565.0,186472.0,132225.0
2026-04-14 17:59:27.731907,665291,1609507061383747,4661353476,0.17568,0.70272,-0.620736,-42.79625,112.72625,130.1125,-37.04,-3.912,-6.184001,concentric,5,3.0,64699.0,192973.0,112565.0,186472.0,132225.0
2026-04-14 17:59:27.742723,665292,1609507061392808,4661362196,0.17568,0.70272,-0.620736,-36.40875,114.4325,131.43375,-37.04,-3.912,-6.184001,concentric,5,3.0,64699.0,192973.0,112565.0,186472.0,132225.0
2026-04-14 17:59:27.748877,665293,1609507061401753,4661370912,0.160064,0.765184,-0.425536,-28.09625,115.5,131.1975,-37.408,-2.448,-5.04,concentric,5,3.0,64699.0,192973.0,112565.0,186472.0,132225.0
2026-04-14 17:59:27.765112,665294,1609507061416260,4661385825,0.160064,0.765184,-0.425536,-25.305,116.0775,128.11751,-37.408,-2.448,-5.04,concentric,5,3.0,64699.0,192973.0,112565.0,186472.0,132225.0
2026-04-14 17:59:27.773052,665295,1609507061425198,4661394540,0.304512,0.657824,-0.452864,-29.8725,113.995,125.5625,-37.512,-1.144,-4.448,concentric,5,3.0,64699.0,192973.0,112565.0,186472.0,132225.0
2026-04-14 17:59:27.807904,665296,1609507061439727,4661409448,0.304512,0.657824,-0.452864,-34.0025,110.985,124.88,-37.512,-1.144,-4.448,concentric,5,3.0,64699.0,192973.0,112565.0,186472.0,132225.0
2026-04-14 17:59:27.863057,665307,1609507061448876,4661418247,0.267424,0.677344,-0.454816,-33.7575,110.6,123.8125,-37.504,0.264,-3.984,concentric,5,3.0,85338.0,206734.0,136129.0,198318.0,159043.0
2026-04-14 17:59:27.865532,665308,1609507061463396,4661433190,0.271328,0.67344,-0.568032,-32.2875,113.21625,121.17875,-37.208,1.888,-1.616,concentric,5,3.0,85338.0,206734.0,136129.0,198318.0,159043.0
2026-04-14 17:59:27.867891,665309,1609507061472489,4661441920,0.271328,0.67344,-0.568032,-30.8525,114.45875,118.83375,-37.208,1.888,-1.616,concentric,5,3.0,85338.0,206734.0,136129.0,198318.0,159043.0
2026-04-14 17:59:27.870550,665310,1609507061481552,4661450618,0.325984,0.622688,-0.240096,-28.55125,113.58375,117.652504,-36.648003,3.576,-1.056,concentric,5,3.0,85338.0,206734.0,136129.0,198318.0,159043.0
2026-04-14 17:59:27.876645,665311,1609507061496046,4661465501,0.325984,0.622688,-0.240096,-24.8675,113.70625,116.43625,-36.648003,3.576,-1.056,concentric,5,3.0,85338.0,206734.0,136129.0,198318.0,159043.0
2026-04-14 17:59:27.876973,665312,1609507061505038,4661474193,0.445056,0.554368,-0.144448,-22.365,109.27875,113.8375,-36.600002,5.184,1.288,concentric,5,3.0,85338.0,206734.0,136129.0,198318.0,159043.0
2026-04-14 17:59:27.877326,665313,1609507061519568,4661489118,0.445056,0.554368,-0.144448,-21.55125,106.30375,111.97375,-36.600002,5.184,1.288,concentric,5,3.0,85338.0,206734.0,136129.0,198318.0,159043.0
2026-04-14 17:59:27.879800,665314,1609507061528537,4661497839,0.456768,0.579744,-0.26352,-23.44125,103.45125,110.11875,-35.928,6.08,2.256,concentric,5,3.0,85338.0,206734.0,136129.0,198318.0,159043.0
2026-04-14 17:59:27.885038,665315,1609507061537560,4661506623,0.456768,0.579744,-0.26352,-26.215,102.1125,106.61,-35.928,6.08,2.256,concentric,5,3.0,85338.0,206734.0,136129.0,198318.0,159043.0
2026-04-14 17:59:27.919220,665326,1609507061552093,4661522090,0.484096,0.509472,-0.218624,-30.30125,99.505,104.545,-35.592003,7.416,3.216,concentric,5,3.0,92614.0,216114.0,144658.0,206292.0,167726.0
2026-04-14 17:59:27.922413,665327,1609507061561162,4661530844,0.530944,0.466528,-0.052704,-31.1325,97.79,104.86,-35.592003,7.416,5.264,concentric,5,3.0,92614.0,216114.0,144658.0,206292.0,167726.0
2026-04-14 17:59:27.923804,665328,1609507061575667,4661545763,0.530944,0.466528,-0.052704,-28.14,96.13625,103.6875,-35.672,9.456,4.952,concentric,5,3.0,92614.0,216114.0,144658.0,206292.0,167726.0
2026-04-14 17:59:27.934911,665329,1609507061584632,4661554430,0.59536,0.388448,-0.080032,-20.85125,92.30375,97.8425,-34.904003,10.504001,6.288,concentric,5,3.0,92614.0,216114.0,144658.0,206292.0,167726.0
2026-04-14 17:59:27.946204,665330,1609507061599242,4661569405,0.59536,0.388448,-0.080032,-13.9825,87.5175,90.69375,-34.904003,10.504001,6.288,concentric,5,3.0,92614.0,216114.0,144658.0,206292.0,167726.0
