pc_time,serial_num,sensor_ts,host_ts,ax,ay,az,gx,gy,gz,mx,my,mz,phase,rpe,weight_kg,ppg_a,ppg_b,ppg_c,ppg_d,ppg_e
2026-04-14 17:59:27.958124,665331,1609507061608171,4661578099,0.657824,0.411872,0.001952,-13.02875,81.34875,86.03875,-34.120003,11.52,5.88,eccentric,5,3.0,92614.0,216114.0,144658.0,206292.0,167726.0
2026-04-14 17:59:27.968487,665332,1609507061617143,4661586792,0.657824,0.411872,0.001952,-16.77375,74.97875,84.21,-34.120003,11.52,5.88,eccentric,5,3.0,92614.0,216114.0,144658.0,206292.0,167726.0
2026-04-14 17:59:27.980651,665333,1609507061631658,4661601668,0.593408,0.41968,-0.148352,-22.37375,71.6975,81.725,-32.808002,11.992001,6.976,eccentric,5,3.0,92614.0,216114.0,144658.0,206292.0,167726.0
2026-04-14 17:59:27.992480,665334,1609507061640603,4661610417,0.593408,0.41968,-0.148352,-22.77625,68.4075,78.33,-32.808002,11.992001,6.976,eccentric,5,3.0,92614.0,216114.0,144658.0,206292.0,167726.0
2026-04-14 17:59:28.020047,665345,1609507061655335,4661625441,0.669536,0.300608,0.033184,-21.9275,65.66875,73.325,-32.296,13.160001,7.928001,eccentric,5,3.0,93604.0,218605.0,145217.0,207589.0,168102.0
2026-04-14 17:59:28.022872,665346,1609507061664271,4661634202,0.665632,0.275232,0.046848,-19.705,61.2675,68.15375,-32.696003,14.376,9.728001,eccentric,5,3.0,93604.0,218605.0,145217.0,207589.0,168102.0
2026-04-14 17:59:28.025098,665347,1609507061673472,4661643127,0.665632,0.275232,0.046848,-10.36875,53.06,63.14875,-32.696003,14.376,9.728001,eccentric,5,3.0,93604.0,218605.0,145217.0,207589.0,168102.0
2026-04-14 17:59:28.037649,665348,1609507061688003,4661658067,0.720288,0.396256,0.140544,-4.54125,46.78625,54.57375,-32.872,15.040001,10.864,eccentric,5,3.0,93604.0,218605.0,145217.0,207589.0,168102.0
2026-04-14 17:59:28.045036,665349,1609507061696918,4661666775,0.720288,0.396256,0.140544,-3.92875,39.2875,48.09,-32.872,15.040001,10.864,eccentric,5,3.0,93604.0,218605.0,145217.0,207589.0,168102.0
2026-04-14 17:59:28.059046,665350,1609507061711641,4661681764,0.732,0.431392,0.15616,-7.91875,38.9725,42.74375,-30.752,14.656001,9.064,eccentric,5,3.0,93604.0,218605.0,145217.0,207589.0,168102.0
2026-04-14 17:59:28.069710,665351,1609507061720749,4661690465,0.732,0.431392,0.15616,-15.505,39.85625,37.415,-30.752,14.656001,9.064,eccentric,5,3.0,93604.0,218605.0,145217.0,207589.0,168102.0
2026-04-14 17:59:28.103972,665352,1609507061735260,4661705390,0.739808,0.310368,0.261568,-21.5775,38.12375,34.22125,-30.400002,15.496,9.728001,eccentric,5,3.0,93604.0,218605.0,145217.0,207589.0,168102.0
2026-04-14 17:59:28.106526,665353,1609507061744271,4661714079,0.74176,0.257664,0.017568,-21.9625,31.911251,30.817501,-29.984001,15.392001,10.84,eccentric,5,3.0,93604.0,218605.0,145217.0,207589.0,168102.0
2026-04-14 17:59:28.143930,665364,1609507061753240,4661722856,0.74176,0.257664,0.017568,-16.82625,24.7975,23.33625,-29.984001,15.392001,10.84,eccentric,5,3.0,100594.0,224062.0,154161.0,212183.0,177122.0
2026-04-14 17:59:28.146408,665365,1609507061767802,4661737767,0.804224,0.288896,-0.017568,-11.375,17.24625,14.95375,-29.816002,16.008001,10.568001,eccentric,5,3.0,100594.0,224062.0,154161.0,212183.0,177122.0
2026-04-14 17:59:28.148956,665366,1609507061776845,4661746486,0.804224,0.288896,-0.017568,-7.60375,12.22375,10.94625,-29.816002,16.008001,10.568001,eccentric,5,3.0,100594.0,224062.0,154161.0,212183.0,177122.0
2026-04-14 17:59:28.173563,665367,1609507061791353,4661761509,0.792512,0.2928,0.021472,-7.35,9.30125,8.2425,-30.336002,16.144001,10.408001,eccentric,5,3.0,100594.0,224062.0,154161.0,212183.0,177122.0
2026-04-14 17:59:28.198855,665368,1609507061800396,4661770244,0.792512,0.2928,0.021472,-8.68,6.4225,5.67875,-30.336002,16.144001,10.408001,eccentric,5,3.0,100594.0,224062.0,154161.0,212183.0,177122.0
2026-04-14 17:59:28.201311,665369,1609507061809583,4661778952,0.763232,0.296704,0.103456,-8.35625,3.7975,2.61625,-30.608002,15.984001,9.672001,eccentric,5,3.0,100594.0,224062.0,154161.0,212183.0,177122.0
2026-04-14 17:59:28.209029,665370,1609507061824148,4661793820,0.794464,0.290848,0.031232,-7.0525,0.35,-0.81375,-30.944002,16.112001,10.496,eccentric,5,3.0,100594.0,224062.0,154161.0,212183.0,177122.0
2026-04-14 17:59:28.211442,665371,1609507061833155,4661802550,0.794464,0.290848,0.031232,-5.03125,-4.52375,-4.45375,-30.944002,16.112001,10.496,eccentric,5,3.0,100594.0,224062.0,154161.0,212183.0,177122.0
2026-04-14 17:59:28.239262,665382,1609507061848207,4661817602,0.80032,0.327936,0.142496,-4.62875,-9.72125,-8.49625,-30.648,16.008001,10.472,eccentric,5,3.0,105505.0,229998.0,160820.0,217463.0,183543.0
2026-04-14 17:59:28.241755,665383,1609507061857222,4661826387,0.80032,0.327936,0.142496,-3.9725,-14.1225,-10.84125,-30.648,16.008001,10.472,eccentric,5,3.0,105505.0,229998.0,160820.0,217463.0,183543.0
2026-04-14 17:59:28.244287,665384,1609507061866144,4661835081,0.794464,0.324032,0.189344,-3.03625,-16.79125,-12.38125,-31.072002,16.816,11.064,eccentric,5,3.0,105505.0,229998.0,160820.0,217463.0,183543.0
2026-04-14 17:59:28.246668,665385,1609507061880658,4661850104,0.794464,0.324032,0.189344,-0.46375,-18.7775,-14.2275,-31.072002,16.816,11.064,eccentric,5,3.0,105505.0,229998.0,160820.0,217463.0,183543.0
2026-04-14 17:59:28.249263,665386,1609507061890064,4661858853,0.718336,0.365024,0.13664,4.1125,-20.13375,-17.73625,-32.36,15.984001,10.624001,eccentric,5,3.0,105505.0,229998.0,160820.0,217463.0,183543.0
2026-04-14 17:59:28.253593,665387,1609507061905202,4661873823,0.753472,0.343552,-0.005856,7.53375,-22.33875,-21.00875,-32.608,15.52,8.832001,eccentric,5,3.0,105505.0,229998.0,160820.0,217463.0,183543.0
2026-04-14 17:59:28.264445,665388,1609507061914519,4661884609,0.753472,0.343552,-0.005856,8.96,-25.8825,-23.765,-32.608,15.52,8.832001,eccentric,5,3.0,105505.0,229998.0,160820.0,217463.0,183543.0
2026-04-14 17:59:28.271589,665389,1609507061923491,4661893323,0.77104,0.355264,-0.00976,7.6825,-31.85,-25.55,-32.608,15.52,8.392,eccentric,5,3.0,105505.0,229998.0,160820.0,217463.0,183543.0
2026-04-14 17:59:28.287978,665390,1609507061938015,4661908265,0.77104,0.355264,-0.00976,6.65,-37.89625,-25.76,-31.136002,14.744,8.392,eccentric,5,3.0,105505.0,229998.0,160820.0,217463.0,183543.0
2026-04-14 17:59:28.321345,665401,1609507061946933,4661916908,0.79056,0.359168,0.021472,6.72,-41.8425,-25.78625,-31.776001,14.672001,7.592001,eccentric,5,3.0,102096.0,229740.0,158541.0,217797.0,181374.0
2026-04-14 17:59:28.324500,665402,1609507061961895,4661931998,0.79056,0.359168,0.021472,8.12875,-44.26625,-27.72,-31.776001,14.672001,7.592001,eccentric,5,3.0,102096.0,229740.0,158541.0,217797.0,181374.0
2026-04-14 17:59:28.326302,665403,1609507061970956,4661940690,0.74176,0.417728,0.128832,13.0725,-45.64,-30.51125,-32.688,14.264001,10.168,eccentric,5,3.0,102096.0,229740.0,158541.0,217797.0,181374.0
2026-04-14 17:59:28.328804,665404,1609507061980077,4661949405,0.74176,0.417728,0.128832,15.44375,-47.6,-33.9675,-32.688,14.264001,10.168,eccentric,5,3.0,102096.0,229740.0,158541.0,217797.0,181374.0
2026-04-14 17:59:28.341787,665405,1609507061994812,4661964381,0.753472,0.40016,-0.02928,16.616251,-50.575,-37.135,-33.376003,13.56,7.232,eccentric,5,3.0,102096.0,229740.0,158541.0,217797.0,181374.0
2026-04-14 17:59:28.356350,665406,1609507062003770,4661973087,0.753472,0.433344,0.021472,16.1175,-53.50625,-40.5125,-33.376003,13.56,7.232,eccentric,5,3.0,102096.0,229740.0,158541.0,217797.0,181374.0
2026-04-14 17:59:28.366609,665407,1609507062018244,4661988002,0.753472,0.433344,0.021472,16.7125,-56.857502,-42.4725,-32.4,12.936001,4.328,eccentric,5,3.0,102096.0,229740.0,158541.0,217797.0,181374.0
2026-04-14 17:59:28.376325,665408,1609507062027172,4661996694,0.718336,0.476288,-0.003904,17.61375,-59.29,-45.675,-33.048,12.128,5.856,eccentric,5,3.0,102096.0,229740.0,158541.0,217797.0,181374.0
2026-04-14 17:59:28.382964,665409,1609507062036094,4662005405,0.718336,0.476288,-0.003904,15.89,-60.235,-49.06125,-33.048,12.128,5.856,eccentric,5,3.0,102096.0,229740.0,158541.0,217797.0,181374.0
2026-04-14 17:59:28.421352,665420,1609507062051057,4662020833,0.706624,0.464576,-0.08784,16.765,-60.26125,-51.84375,-33.800003,11.496,6.048,eccentric,5,3.0,104580.0,229110.0,163049.0,217796.0,185878.0
2026-04-14 17:59:28.424329,665421,1609507062060148,4662029562,0.706624,0.464576,-0.08784,16.3275,-60.68125,-55.6675,-33.800003,11.496,6.048,eccentric,5,3.0,104580.0,229110.0,163049.0,217796.0,185878.0
2026-04-14 17:59:28.426412,665422,1609507062074862,4662044516,0.609024,0.486048,-0.210816,15.2775,-64.277504,-59.255,-34.128002,10.728001,4.472,eccentric,5,3.0,104580.0,229110.0,163049.0,217796.0,185878.0
2026-04-14 17:59:28.431830,665423,1609507062083947,4662053215,0.609024,0.486048,-0.210816,14.4025,-67.13875,-61.845,-34.128002,10.728001,4.472,eccentric,5,3.0,104580.0,229110.0,163049.0,217796.0,185878.0
2026-04-14 17:59:28.441300,665424,1609507062093046,4662061914,0.687104,0.437248,-0.325984,12.0575,-71.39125,-62.947502,-34.72,9.904,3.28,eccentric,5,3.0,104580.0,229110.0,163049.0,217796.0,185878.0
2026-04-14 17:59:28.455312,665425,1609507062107529,4662076805,0.640256,0.52704,-0.15616,11.6375,-73.255,-62.99125,-35.224003,9.304001,2.616,eccentric,5,3.0,104580.0,229110.0,163049.0,217796.0,185878.0
2026-04-14 17:59:28.464105,665426,1609507062116420,4662085548,0.640256,0.52704,-0.15616,16.178751,-70.7875,-65.94875,-35.224003,9.304001,2.616,eccentric,5,3.0,104580.0,229110.0,163049.0,217796.0,185878.0
2026-04-14 17:59:28.477609,665427,1609507062130939,4662100521,0.667584,0.525088,-0.160064,19.04875,-70.65625,-70.5075,-35.440002,8.296001,1.896,eccentric,5,3.0,104580.0,229110.0,163049.0,217796.0,185878.0
2026-04-14 17:59:28.488767,665428,1609507062139979,4662109236,0.667584,0.525088,-0.160064,17.00125,-70.83125,-73.00125,-35.440002,8.296001,1.896,eccentric,5,3.0,104580.0,229110.0,163049.0,217796.0,185878.0
2026-04-14 17:59:28.567729,665439,1609507062148994,4662117914,0.562176,0.521184,-0.3904,11.8825,-75.25,-75.81875,-36.096,7.912,1.8,eccentric,5,3.0,105748.0,224355.0,164822.0,214074.0,187751.0
2026-04-14 17:59:28.570204,665440,1609507062163599,4662132867,0.562176,0.521184,-0.3904,11.50625,-80.2725,-77.48125,-36.096,7.912,1.8,eccentric,5,3.0,105748.0,224355.0,164822.0,214074.0,187751.0
2026-04-14 17:59:28.572676,665441,1609507062172542,4662141654,0.577792,0.528992,-0.318176,13.60625,-82.38125,-78.575,-37.408,6.72,0.184,eccentric,5,3.0,105748.0,224355.0,164822.0,214074.0,187751.0
2026-04-14 17:59:28.575284,665442,1609507062187035,4662156519,0.591456,0.55632,-0.363072,14.0525,-83.93875,-78.95125,-37.488003,5.568,-0.408,eccentric,5,3.0,105748.0,224355.0,164822.0,214074.0,187751.0
2026-04-14 17:59:28.577629,665443,1609507062195937,4662165193,0.591456,0.55632,-0.363072,16.44125,-80.28125,-80.15,-37.488003,5.568,-0.408,eccentric,5,3.0,105748.0,224355.0,164822.0,214074.0,187751.0
2026-04-14 17:59:28.580219,665444,1609507062210449,4662180185,0.54656,0.636352,-0.238144,20.20375,-77.385,-84.23625,-36.832,4.336,-1.944,eccentric,5,3.0,105748.0,224355.0,164822.0,214074.0,187751.0
2026-04-14 17:59:28.582696,665445,1609507062219375,4662188887,0.54656,0.636352,-0.238144,19.36375,-78.8725,-88.97,-36.832,4.336,-1.944,eccentric,5,3.0,105748.0,224355.0,164822.0,214074.0,187751.0
2026-04-14 17:59:28.585221,665446,1609507062228287,4662197599,0.427488,0.62464,-0.433344,17.22,-79.52,-91.30625,-37.272003,3.544,-2.528,eccentric,5,3.0,105748.0,224355.0,164822.0,214074.0,187751.0
2026-04-14 17:59:28.590204,665447,1609507062242821,4662212644,0.427488,0.62464,-0.433344,14.9275,-82.005,-89.88,-37.272003,3.544,-2.528,eccentric,5,3.0,105748.0,224355.0,164822.0,214074.0,187751.0
2026-04-14 17:59:28.629685,665458,1609507062252437,4662221994,0.534848,0.56608,-0.335744,17.38625,-83.11625,-88.9875,-37.144,2.144,-3.624,eccentric,5,3.0,101326.0,218142.0,159432.0,209409.0,182718.0
2026-04-14 17:59:28.630037,665459,1609507062267026,4662236916,0.493856,0.671488,-0.357216,15.86375,-83.7375,-92.25125,-39.232002,1.448,-3.608,eccentric,5,3.0,101326.0,218142.0,159432.0,209409.0,182718.0
2026-04-14 17:59:28.631171,665460,1609507062276200,4662245625,0.493856,0.671488,-0.357216,13.667501,-84.402504,-94.05375,-39.232002,1.448,-3.608,eccentric,5,3.0,101326.0,218142.0,159432.0,209409.0,182718.0
2026-04-14 17:59:28.639012,665461,1609507062285164,4662254369,0.493856,0.671488,-0.357216,15.81125,-80.61375,-96.7575,-39.232002,1.448,-3.608,eccentric,5,3.0,101326.0,218142.0,159432.0,209409.0,182718.0
2026-04-14 17:59:28.646365,665462,1609507062299653,4662269386,0.355264,0.716384,-0.3904,11.31375,-82.1275,-103.62625,-39.160004,0.2,-3.888,eccentric,5,3.0,101326.0,218142.0,159432.0,209409.0,182718.0
2026-04-14 17:59:28.656370,665463,1609507062308579,4662278096,0.359168,0.62464,-0.333792,11.22625,-87.64,-104.475,-38.232002,-0.864,-5.64,eccentric,5,3.0,101326.0,218142.0,159432.0,209409.0,182718.0
2026-04-14 17:59:28.672763,665464,1609507062323093,4662292990,0.359168,0.62464,-0.333792,19.5825,-82.635,-103.215004,-38.232002,-0.864,-5.64,eccentric,5,3.0,101326.0,218142.0,159432.0,209409.0,182718.0
2026-04-14 17:59:28.680246,665465,1609507062332064,4662301677,0.3416,0.65392,-0.587552,28.09625,-81.87375,-106.67125,-37.24,-2.752,-7.32,eccentric,5,3.0,101326.0,218142.0,159432.0,209409.0,182718.0
2026-04-14 17:59:28.693793,665466,1609507062346568,4662316543,0.222528,0.827648,-0.671488,37.91375,-79.24,-110.11,-37.184002,-3.44,-5.64,eccentric,5,3.0,101326.0,218142.0,159432.0,209409.0,182718.0
2026-04-14 17:59:28.743732,665477,1609507062355607,4662325290,0.222528,0.827648,-0.671488,41.7375,-73.2725,-114.94875,-37.184002,-3.44,-5.64,eccentric,5,3.0,83125.0,205551.0,137449.0,198712.0,158345.0
2026-04-14 17:59:28.753793,665478,1609507062364678,4662334105,0.222528,0.827648,-0.671488,37.93125,-72.9575,-120.68875,-37.184002,-3.44,-5.64,eccentric,5,3.0,83125.0,205551.0,137449.0,198712.0,158345.0
2026-04-14 17:59:28.756423,665479,1609507062379248,4662349077,0.0976,0.798368,-0.503616,28.18375,-72.3975,-122.98125,-37.368,-5.272,-8.912001,eccentric,5,3.0,83125.0,205551.0,137449.0,198712.0,158345.0
2026-04-14 17:59:28.758997,665480,1609507062388196,4662357781,0.140544,0.64416,-0.464576,11.9875,-77.56,-122.08,-36.84,-6.696,-10.52,eccentric,5,3.0,83125.0,205551.0,137449.0,198712.0,158345.0
2026-04-14 17:59:28.761263,665481,1609507062402704,4662372702,0.140544,0.64416,-0.464576,6.9825,-84.56,-118.27375,-36.84,-6.696,-10.52,eccentric,5,3.0,83125.0,205551.0,137449.0,198712.0,158345.0
2026-04-14 17:59:28.763955,665482,1609507062411852,4662381451,0.081984,0.732,-0.573888,16.28375,-85.75875,-118.18625,-35.848003,-8.0,-11.704,eccentric,5,3.0,83125.0,205551.0,137449.0,198712.0,158345.0
2026-04-14 17:59:28.768962,665483,1609507062420853,4662390222,0.081984,0.732,-0.573888,31.87625,-86.3975,-120.98625,-35.848003,-8.0,-11.704,eccentric,5,3.0,83125.0,205551.0,137449.0,198712.0,158345.0
2026-04-14 17:59:28.782651,665484,1609507062435397,4662405177,0.064416,0.860832,-0.445056,43.19875,-83.83375,-122.1325,-35.208,-9.096001,-13.072001,eccentric,5,3.0,83125.0,205551.0,137449.0,198712.0,158345.0
2026-04-14 17:59:28.792775,665485,1609507062444334,4662413891,0.064416,0.860832,-0.445056,38.5875,-84.1575,-123.4625,-35.208,-9.096001,-13.072001,eccentric,5,3.0,83125.0,205551.0,137449.0,198712.0,158345.0
2026-04-14 17:59:28.821185,665496,1609507062459446,4662429374,0.021472,0.718336,-0.577792,23.02125,-87.08,-121.975,-34.792,-9.968,-13.000001,eccentric,5,3.0,58627.0,190790.0,109328.0,185846.0,126320.0
2026-04-14 17:59:28.823919,665497,1609507062468572,4662438185,-0.054656,0.636352,-0.66368,13.99125,-90.97375,-118.3175,-33.216003,-11.584001,-16.808,eccentric,5,3.0,58627.0,190790.0,109328.0,185846.0,126320.0
2026-04-14 17:59:28.826324,665498,1609507062477514,4662446902,-0.054656,0.636352,-0.66368,22.225,-90.4925,-118.0025,-33.216003,-11.584001,-16.808,eccentric,5,3.0,58627.0,190790.0,109328.0,185846.0,126320.0
2026-04-14 17:59:28.840427,665499,1609507062492212,4662461810,-0.124928,0.80032,-0.81008,35.595,-89.60875,-120.91625,-32.064003,-12.72,-16.184,eccentric,5,3.0,58627.0,190790.0,109328.0,185846.0,126320.0
2026-04-14 17:59:28.848006,665500,1609507062501236,4662470530,-0.124928,0.80032,-0.81008,45.2725,-88.19125,-120.33875,-32.064003,-12.72,-16.184,eccentric,5,3.0,58627.0,190790.0,109328.0,185846.0,126320.0
2026-04-14 17:59:28.864270,665501,1609507062515812,4662485456,-0.20496,0.882304,-0.505568,41.64125,-87.5525,-120.1725,-32.232002,-13.416,-16.704,eccentric,5,3.0,58627.0,190790.0,109328.0,185846.0,126320.0
2026-04-14 17:59:28.872742,665502,1609507062524795,4662494173,-0.20496,0.882304,-0.505568,26.69625,-90.83375,-118.64125,-32.232002,-13.416,-16.704,eccentric,5,3.0,58627.0,190790.0,109328.0,185846.0,126320.0
2026-04-14 17:59:28.883085,665503,1609507062533786,4662502850,-0.279136,0.743712,-0.620736,9.730001,-97.08125,-115.57,-30.224,-14.752001,-17.744001,eccentric,5,3.0,58627.0,190790.0,109328.0,185846.0,126320.0
2026-04-14 17:59:28.911357,665504,1609507062548292,4662517784,-0.249856,0.667584,-0.558272,5.5125,-101.22875,-114.10875,-29.720001,-15.288001,-20.984001,eccentric,5,3.0,58627.0,190790.0,109328.0,185846.0,126320.0
2026-04-14 17:59:28.962441,665515,1609507062557222,4662526521,-0.249856,0.667584,-0.558272,21.875,-99.37375,-113.81125,-29.720001,-15.288001,-20.984001,eccentric,5,3.0,47877.0,183492.0,95121.0,178588.0,110438.0
2026-04-14 17:59:28.964946,665516,1609507062571728,4662541492,-0.327936,0.860832,-0.661728,42.735,-94.8325,-114.96625,-28.816002,-16.048,-20.944,eccentric,5,3.0,47877.0,183492.0,95121.0,178588.0,110438.0
2026-04-14 17:59:28.967490,665517,1609507062580673,4662550215,-0.327936,0.860832,-0.661728,57.46125,-90.9475,-113.39125,-28.816002,-16.048,-20.944,eccentric,5,3.0,47877.0,183492.0,95121.0,178588.0,110438.0
2026-04-14 17:59:28.969951,665518,1609507062595370,4662565119,-0.441152,0.929152,-0.67344,55.51875,-88.6025,-112.7875,-26.240002,-16.992,-21.304,eccentric,5,3.0,47877.0,183492.0,95121.0,178588.0,110438.0
2026-04-14 17:59:28.972427,665519,1609507062604319,4662573851,-0.441152,0.929152,-0.67344,37.8525,-92.09375,-113.575,-26.240002,-16.992,-21.304,eccentric,5,3.0,47877.0,183492.0,95121.0,178588.0,110438.0
2026-04-14 17:59:28.974881,665520,1609507062613310,4662582682,-0.402112,0.681248,-0.737856,19.495,-94.98125,-112.665,-24.800001,-17.456001,-22.848001,eccentric,5,3.0,47877.0,183492.0,95121.0,178588.0,110438.0
2026-04-14 17:59:28.977542,665521,1609507062627920,4662597668,-0.402112,0.648064,-0.74176,10.68375,-97.58875,-112.183754,-24.800001,-17.456001,-22.848001,eccentric,5,3.0,47877.0,183492.0,95121.0,178588.0,110438.0
2026-04-14 17:59:28.984962,665522,1609507062636905,4662606445,-0.402112,0.648064,-0.74176,17.75375,-96.71375,-112.20125,-23.352001,-18.12,-25.128,eccentric,5,3.0,47877.0,183492.0,95121.0,178588.0,110438.0
2026-04-14 17:59:29.025730,665533,1609507062651430,4662621412,-0.571936,0.921344,-0.964288,36.84625,-91.525,-112.86625,-21.992,-18.592001,-24.68,eccentric,5,3.0,39467.0,177474.0,83343.0,173013.0,97087.0
2026-04-14 17:59:29.027352,665534,1609507062660770,4662630216,-0.571936,0.921344,-0.964288,51.415,-86.51125,-114.3975,-21.992,-18.592001,-24.68,eccentric,5,3.0,39467.0,177474.0,83343.0,173013.0,97087.0
2026-04-14 17:59:29.029944,665535,1609507062669738,4662638951,-0.599264,0.817888,-0.798368,44.625,-84.8225,-116.26125,-19.84,-19.04,-26.072,eccentric,5,3.0,39467.0,177474.0,83343.0,173013.0,97087.0
2026-04-14 17:59:29.032889,665536,1609507062684277,4662653839,-0.599264,0.817888,-0.798368,19.76625,-88.33125,-115.71875,-19.84,-19.04,-26.072,eccentric,5,3.0,39467.0,177474.0,83343.0,173013.0,97087.0
2026-04-14 17:59:29.040388,665537,1609507062693282,4662662620,-0.661728,0.591456,-0.675392,1.33,-90.09875,-111.85125,-18.36,-19.096,-25.992,eccentric,5,3.0,39467.0,177474.0,83343.0,173013.0,97087.0
2026-04-14 17:59:29.055567,665538,1609507062707781,4662677537,-0.661728,0.591456,-0.675392,9.0825,-88.3575,-109.9175,-18.36,-19.096,-25.992,eccentric,5,3.0,39467.0,177474.0,83343.0,173013.0,97087.0
2026-04-14 17:59:29.066816,665539,1609507062716852,4662686220,-0.75152,0.630496,-0.753472,31.63125,-83.53625,-106.715004,-16.888,-19.312,-25.272001,eccentric,5,3.0,39467.0,177474.0,83343.0,173013.0,97087.0
2026-04-14 17:59:29.080606,665540,1609507062731332,4662701164,-0.753472,0.95648,-0.732,50.61,-81.0075,-101.07125,-15.616001,-19.048,-26.808,eccentric,5,3.0,39467.0,177474.0,83343.0,173013.0,97087.0
2026-04-14 17:59:29.088298,665541,1609507062740337,4662709882,-0.753472,0.95648,-0.732,52.255,-81.45375,-94.6225,-15.616001,-19.048,-26.808,eccentric,5,3.0,39467.0,177474.0,83343.0,173013.0,97087.0
2026-04-14 17:59:29.096396,665542,1609507062749266,4662718589,-0.691008,0.776896,-0.640256,37.5375,-84.65625,-93.75625,-14.360001,-19.0,-26.568,eccentric,5,3.0,39467.0,177474.0,83343.0,173013.0,97087.0
2026-04-14 17:59:29.126225,665553,1609507062763866,4662733616,-0.691008,0.776896,-0.640256,12.495,-88.996254,-93.96625,-14.360001,-19.0,-26.568,eccentric,5,3.0,37375.0,181069.0,80479.0,175890.0,94198.0
2026-04-14 17:59:29.129248,665554,1609507062773009,4662742435,-0.75152,0.583648,-0.7808,-0.90125,-87.395,-92.26875,-12.712001,-19.960001,-28.576002,eccentric,5,3.0,37375.0,181069.0,80479.0,175890.0,94198.0
2026-04-14 17:59:29.134951,665555,1609507062787630,4662757345,-0.75152,0.583648,-0.7808,6.1425,-83.22125,-93.1875,-12.712001,-19.960001,-28.576002,eccentric,5,3.0,37375.0,181069.0,80479.0,175890.0,94198.0
2026-04-14 17:59:29.145145,665556,1609507062796571,4662766038,-0.812032,0.685152,-0.84912,22.54875,-79.84375,-92.81125,-10.328,-19.488,-29.416002,eccentric,5,3.0,37375.0,181069.0,80479.0,175890.0,94198.0
2026-04-14 17:59:29.156849,665557,1609507062805607,4662774723,-0.812032,0.685152,-0.84912,35.3675,-79.7825,-89.08375,-10.328,-19.488,-29.416002,eccentric,5,3.0,37375.0,181069.0,80479.0,175890.0,94198.0
2026-04-14 17:59:29.168094,665558,1609507062820109,4662789675,-0.745664,0.733952,-0.581696,30.7825,-83.527504,-85.70625,-8.824,-19.464,-29.784002,eccentric,5,3.0,37375.0,181069.0,80479.0,175890.0,94198.0
2026-04-14 17:59:29.179761,665559,1609507062829060,4662798390,-0.745664,0.609024,-0.55632,22.14625,-83.895,-81.27875,-8.824,-19.464,-29.784002,eccentric,5,3.0,37375.0,181069.0,80479.0,175890.0,94198.0
2026-04-14 17:59:29.191318,665560,1609507062843663,4662813398,-0.79056,0.610976,-0.55632,9.19625,-82.8275,-79.12625,-8.136001,-19.104,-30.560001,eccentric,5,3.0,37375.0,181069.0,80479.0,175890.0,94198.0
2026-04-14 17:59:29.224287,665571,1609507062852612,4662822050,-0.860832,0.642208,-0.568032,4.445,-79.065,-75.18,-5.752,-19.576,-30.136002,eccentric,5,3.0,35992.0,178919.0,78193.0,173655.0,91588.0
2026-04-14 17:59:29.226300,665572,1609507062862011,4662830868,-0.860832,0.642208,-0.568032,9.91375,-74.235,-72.61625,-5.752,-19.576,-30.136002,eccentric,5,3.0,35992.0,178919.0,78193.0,173655.0,91588.0
2026-04-14 17:59:29.228749,665573,1609507062876558,4662845815,-0.872544,0.696864,-0.655872,15.89875,-70.69125,-71.28625,-4.808,-19.632002,-30.816002,eccentric,5,3.0,35992.0,178919.0,78193.0,173655.0,91588.0
2026-04-14 17:59:29.234319,665574,1609507062885567,4662854523,-0.872544,0.696864,-0.655872,14.21875,-68.03125,-68.10125,-4.808,-19.632002,-30.816002,eccentric,5,3.0,35992.0,178919.0,78193.0,173655.0,91588.0
2026-04-14 17:59:29.248082,665575,1609507062900056,4662869501,-0.972096,0.677344,-0.718336,7.9975,-66.115,-62.74625,-3.528,-18.792002,-30.416002,eccentric,5,3.0,35992.0,178919.0,78193.0,173655.0,91588.0
2026-04-14 17:59:29.290901,665576,1609507062908995,4662878189,-0.972096,0.677344,-0.718336,-1.575,-64.6625,-60.24375,-3.528,-18.792002,-30.416002,eccentric,5,3.0,35992.0,178919.0,78193.0,173655.0,91588.0
2026-04-14 17:59:29.304507,665577,1609507062923507,4662893065,-0.862784,0.573888,-0.450912,-5.29375,-59.84125,-54.57375,-2.504,-19.264002,-28.344002,eccentric,5,3.0,35992.0,178919.0,78193.0,173655.0,91588.0
2026-04-14 17:59:29.306674,665578,1609507062932480,4662901727,-0.938912,0.636352,-0.724192,-4.22625,-53.760002,-49.86625,-2.32,-19.080002,-29.944002,eccentric,5,3.0,35992.0,178919.0,78193.0,173655.0,91588.0
2026-04-14 17:59:29.308901,665579,1609507062941408,4662910423,-0.938912,0.636352,-0.724192,1.33875,-45.45625,-45.43,-2.32,-19.080002,-29.944002,eccentric,5,3.0,35992.0,178919.0,78193.0,173655.0,91588.0
2026-04-14 17:59:29.336801,665590,1609507062956453,4662925585,-0.925248,0.698816,-0.759328,4.06,-39.19125,-42.34125,-1.528,-18.616001,-29.528002,eccentric,5,3.0,35033.0,177525.0,76949.0,172735.0,90161.0
2026-04-14 17:59:29.339320,665591,1609507062965440,4662934337,-0.925248,0.698816,-0.759328,-0.6125,-37.0825,-39.82125,-1.528,-18.616001,-29.528002,eccentric,5,3.0,35033.0,177525.0,76949.0,172735.0,90161.0
2026-04-14 17:59:29.341681,665592,1609507062980083,4662949300,-0.854976,0.626592,-0.747616,-7.77875,-37.905,-37.17875,-1.096,-18.552,-29.680002,eccentric,5,3.0,35033.0,177525.0,76949.0,172735.0,90161.0
2026-04-14 17:59:29.344294,665593,1609507062989007,4662958005,-0.854976,0.626592,-0.747616,-12.7225,-39.62875,-36.155,-1.096,-18.552,-29.680002,eccentric,5,3.0,35033.0,177525.0,76949.0,172735.0,90161.0
2026-04-14 17:59:29.346853,665594,1609507062998108,4662966761,-0.825696,0.57584,-0.681248,-12.45125,-40.06625,-36.12,-0.528,-18.696001,-30.304,eccentric,5,3.0,35033.0,177525.0,76949.0,172735.0,90161.0
2026-04-14 17:59:29.386413,665595,1609507063013043,4662981693,-0.882304,0.612928,-0.698816,-9.3275,-37.87,-35.42875,0.728,-18.928001,-29.640001,eccentric,5,3.0,35033.0,177525.0,76949.0,172735.0,90161.0
2026-04-14 17:59:29.396648,665596,1609507063022245,4662992430,-0.882304,0.612928,-0.698816,-8.0675,-35.5075,-34.50125,0.728,-18.928001,-29.640001,eccentric,5,3.0,35033.0,177525.0,76949.0,172735.0,90161.0
2026-04-14 17:59:29.399180,665597,1609507063036764,4663005280,-0.796416,0.560224,-0.503616,-5.6525,-33.31125,-32.24375,-0.184,-18.064001,-28.144001,eccentric,5,3.0,35033.0,177525.0,76949.0,172735.0,90161.0
2026-04-14 17:59:29.401671,665598,1609507063046144,4663016047,-0.796416,0.560224,-0.503616,-5.32,-31.43875,-30.09125,-0.184,-18.064001,-28.144001,eccentric,5,3.0,35033.0,177525.0,76949.0,172735.0,90161.0
2026-04-14 17:59:29.428814,665609,1609507063055253,4663024775,-0.895968,0.59536,-0.5368,-9.80875,-29.91625,-26.6175,0.104,-18.664001,-29.232002,concentric,5,3.0,35375.0,177047.0,77525.0,172521.0,90689.0
2026-04-14 17:59:29.431745,665610,1609507063069962,4663039738,-0.895968,0.59536,-0.5368,-12.04,-27.85125,-22.2775,0.104,-18.664001,-29.232002,concentric,5,3.0,35375.0,177047.0,77525.0,172521.0,90689.0
2026-04-14 17:59:29.434232,665611,1609507063078958,4663048438,-0.831552,0.50752,-0.366976,-9.5725,-24.15,-19.3375,0.952,-18.52,-30.2,concentric,5,3.0,35375.0,177047.0,77525.0,172521.0,90689.0
2026-04-14 17:59:29.443893,665612,1609507063093557,4663063340,-0.895968,0.476288,-0.648064,-8.9075,-20.86875,-18.41,2.056,-19.088001,-29.336,concentric,5,3.0,35375.0,177047.0,77525.0,172521.0,90689.0
2026-04-14 17:59:29.450490,665613,1609507063102494,4663072065,-0.895968,0.476288,-0.648064,-8.00625,-17.84125,-15.33875,2.056,-19.088001,-29.336,concentric,5,3.0,35375.0,177047.0,77525.0,172521.0,90689.0
2026-04-14 17:59:29.459343,665614,1609507063111486,4663080803,-0.944768,0.50752,-0.476288,-5.27625,-14.4025,-11.7075,2.8,-18.744001,-30.536001,concentric,5,3.0,35375.0,177047.0,77525.0,172521.0,90689.0
2026-04-14 17:59:29.473865,665615,1609507063125971,4663095686,-0.944768,0.50752,-0.476288,-2.66875,-12.38125,-10.00125,2.8,-18.744001,-30.536001,concentric,5,3.0,35375.0,177047.0,77525.0,172521.0,90689.0
2026-04-14 17:59:29.482680,665616,1609507063134930,4663104421,-0.954528,0.480192,-0.550464,-1.51375,-11.655,-7.455,2.824,-18.984001,-30.432001,concentric,5,3.0,35375.0,177047.0,77525.0,172521.0,90689.0
2026-04-14 17:59:29.496622,665617,1609507063149419,4663119389,-0.954528,0.480192,-0.550464,-2.21375,-10.35125,-4.76875,2.824,-18.984001,-30.432001,concentric,5,3.0,35375.0,177047.0,77525.0,172521.0,90689.0
2026-04-14 17:59:29.525565,665628,1609507063158709,4663128195,-0.942816,0.454816,-0.5856,-1.65375,-8.79375,-2.94,2.288,-19.272001,-29.616001,concentric,5,3.0,34958.0,175261.0,76824.0,171329.0,89767.0
2026-04-14 17:59:29.527905,665629,1609507063167812,4663136934,-0.942816,0.454816,-0.5856,0.525,-6.85125,-1.7675,2.288,-19.272001,-29.616001,concentric,5,3.0,34958.0,175261.0,76824.0,171329.0,89767.0
2026-04-14 17:59:29.530476,665630,1609507063182327,4663151850,-0.95648,0.488,-0.488,1.89875,-5.6875,-0.77875,1.944,-18.896002,-29.152002,concentric,5,3.0,34958.0,175261.0,76824.0,171329.0,89767.0
2026-04-14 17:59:29.540539,665631,1609507063191274,4663160566,-0.95648,0.488,-0.450912,2.17,-5.1975,-0.44625,1.944,-18.896002,-29.152002,concentric,5,3.0,34958.0,175261.0,76824.0,171329.0,89767.0
2026-04-14 17:59:29.554306,665632,1609507063205744,4663175460,-0.958432,0.474336,-0.450912,0.4725,-4.41,0.42,2.912,-18.68,-29.704,concentric,5,3.0,34958.0,175261.0,76824.0,171329.0,89767.0
2026-04-14 17:59:29.565227,665633,1609507063214719,4663184305,-0.972096,0.423584,-0.503616,0.14,-4.01625,1.365,2.728,-18.392,-29.224,concentric,5,3.0,34958.0,175261.0,76824.0,171329.0,89767.0
2026-04-14 17:59:29.577427,665634,1609507063229373,4663199245,-0.972096,0.423584,-0.503616,0.245,-3.29,2.87875,2.728,-18.392,-29.224,concentric,5,3.0,34958.0,175261.0,76824.0,171329.0,89767.0
2026-04-14 17:59:29.586646,665635,1609507063238316,4663207935,-0.976,0.437248,-0.454816,2.02125,-2.47625,4.585,2.12,-18.84,-30.240002,concentric,5,3.0,34958.0,175261.0,76824.0,171329.0,89767.0
2026-04-14 17:59:29.596645,665636,1609507063247228,4663216654,-0.976,0.437248,-0.454816,6.9475,-0.7525,5.005,2.12,-18.84,-30.240002,concentric,5,3.0,34958.0,175261.0,76824.0,171329.0,89767.0
2026-04-14 17:59:29.677908,665647,1609507063261746,4663231981,-0.899872,0.470432,-0.318176,8.61875,0.67375,4.2175,2.288,-19.128,-30.384,concentric,5,3.0,34718.0,174352.0,76401.0,170559.0,89312.0
2026-04-14 17:59:29.680376,665648,1609507063270817,4663240757,-0.899872,0.470432,-0.318176,7.11375,1.46125,4.36625,2.288,-19.128,-30.384,concentric,5,3.0,34718.0,174352.0,76401.0,170559.0,89312.0
2026-04-14 17:59:29.682717,665649,1609507063285538,4663255735,-0.95648,0.454816,-0.445056,3.61375,2.70375,4.45375,1.656,-18.296001,-28.952002,concentric,5,3.0,34718.0,174352.0,76401.0,170559.0,89312.0
2026-04-14 17:59:29.685401,665650,1609507063294481,4663264568,-0.950624,0.415776,-0.38064,1.49625,3.78,3.94625,1.928,-18.6,-29.544,concentric,5,3.0,34718.0,174352.0,76401.0,170559.0,89312.0
2026-04-14 17:59:29.687857,665651,1609507063303463,4663273249,-0.950624,0.415776,-0.38064,1.7325,4.76,4.795,1.928,-18.6,-29.544,concentric,5,3.0,34718.0,174352.0,76401.0,170559.0,89312.0
2026-04-14 17:59:29.690481,665652,1609507063318016,4663288199,-0.962336,0.433344,-0.396256,3.19375,6.3875,7.0,1.64,-18.128,-29.528002,concentric,5,3.0,34718.0,174352.0,76401.0,170559.0,89312.0
2026-04-14 17:59:29.692551,665653,1609507063326914,4663296891,-0.962336,0.433344,-0.396256,6.0375,7.97125,7.56875,1.64,-18.128,-29.528002,concentric,5,3.0,34718.0,174352.0,76401.0,170559.0,89312.0
2026-04-14 17:59:29.695637,665654,1609507063341475,4663311831,-0.974048,0.47824,-0.528992,7.7175,9.1525,8.05875,1.392,-18.168001,-29.608002,concentric,5,3.0,34718.0,174352.0,76401.0,170559.0,89312.0
2026-04-14 17:59:29.700523,665655,1609507063350475,4663320509,-0.974048,0.47824,-0.528992,7.56,10.68375,8.7325,1.392,-18.168001,-29.608002,concentric,5,3.0,34718.0,174352.0,76401.0,170559.0,89312.0
2026-04-14 17:59:29.730547,665666,1609507063365275,4663335570,-0.91744,0.41968,-0.56608,7.63875,12.10125,8.82,1.952,-18.576,-30.840002,concentric,5,3.0,34777.0,174930.0,76482.0,171100.0,89456.0
2026-04-14 17:59:29.733065,665667,1609507063374308,4663344302,-0.942816,0.472384,-0.470432,3.91125,12.9325,8.39125,1.96,-18.896002,-30.648,concentric,5,3.0,34777.0,174930.0,76482.0,171100.0,89456.0
2026-04-14 17:59:29.735537,665668,1609507063383259,4663353009,-0.942816,0.472384,-0.470432,1.39125,15.0675,10.28125,1.96,-18.896002,-30.648,concentric,5,3.0,34777.0,174930.0,76482.0,171100.0,89456.0
2026-04-14 17:59:29.746767,665669,1609507063397817,4663367942,-0.899872,0.456768,-0.396256,1.89,16.52,11.515,1.392,-18.904001,-30.736002,concentric,5,3.0,34777.0,174930.0,76482.0,171100.0,89456.0
2026-04-14 17:59:29.753813,665670,1609507063406801,4663376684,-0.899872,0.456768,-0.396256,3.8325,16.33625,11.78625,1.392,-18.904001,-30.736002,concentric,5,3.0,34777.0,174930.0,76482.0,171100.0,89456.0
2026-04-14 17:59:29.770389,665671,1609507063421319,4663391585,-0.81984,0.450912,-0.456768,5.3375,15.82,12.53875,0.352,-17.712,-28.744001,concentric,5,3.0,34777.0,174930.0,76482.0,171100.0,89456.0
2026-04-14 17:59:29.780470,665672,1609507063430307,4663400290,-0.81984,0.450912,-0.456768,5.20625,15.23375,12.6175,0.352,-17.712,-28.744001,concentric,5,3.0,34777.0,174930.0,76482.0,171100.0,89456.0
2026-04-14 17:59:29.789273,665673,1609507063439252,4663408925,-0.847168,0.462624,-0.562176,4.9525,16.14375,13.5975,1.128,-18.704,-30.816002,concentric,5,3.0,34777.0,174930.0,76482.0,171100.0,89456.0
2026-04-14 17:59:29.801759,665674,1609507063453877,4663423837,-0.83936,0.462624,-0.421632,3.465,18.445,15.32125,0.32,-18.512001,-29.880001,concentric,5,3.0,34777.0,174930.0,76482.0,171100.0,89456.0
2026-04-14 17:59:29.828889,665685,1609507063462894,4663432594,-0.83936,0.462624,-0.421632,1.96,20.895,17.07125,0.32,-18.512001,-29.880001,concentric,5,3.0,35048.0,175658.0,76950.0,171797.0,89983.0
2026-04-14 17:59:29.831785,665686,1609507063477481,4663447692,-0.825696,0.45872,-0.515328,0.76125,24.31625,18.6375,-0.696,-18.28,-29.640001,concentric,5,3.0,35048.0,175658.0,76950.0,171797.0,89983.0
2026-04-14 17:59:29.836793,665687,1609507063486449,4663456427,-0.825696,0.45872,-0.515328,2.77375,27.116251,19.8275,-0.696,-18.28,-29.640001,concentric,5,3.0,35048.0,175658.0,76950.0,171797.0,89983.0
2026-04-14 17:59:29.847647,665688,1609507063500999,4663469450,-0.831552,0.51728,-0.620736,3.14125,29.303751,20.60625,-0.256,-18.336,-31.272001,concentric,5,3.0,35048.0,175658.0,76950.0,171797.0,89983.0
2026-04-14 17:59:29.858575,665689,1609507063510390,4663480235,-0.831552,0.51728,-0.620736,2.26625,30.35375,21.1225,-0.256,-18.336,-31.272001,concentric,5,3.0,35048.0,175658.0,76950.0,171797.0,89983.0
2026-04-14 17:59:29.868783,665690,1609507063519343,4663488915,-0.792512,0.515328,-0.597312,-0.07875,29.4525,20.37,-0.88,-18.576,-29.840002,concentric,5,3.0,35048.0,175658.0,76950.0,171797.0,89983.0
2026-04-14 17:59:29.882920,665691,1609507063533821,4663503824,-0.835456,0.515328,-0.640256,-2.94,27.44875,19.03125,-0.88,-18.576,-29.688002,concentric,5,3.0,35048.0,175658.0,76950.0,171797.0,89983.0
2026-04-14 17:59:29.889976,665692,1609507063542800,4663512536,-0.835456,0.515328,-0.640256,-3.91125,24.94625,19.005,-2.352,-18.528002,-29.688002,concentric,5,3.0,35048.0,175658.0,76950.0,171797.0,89983.0
2026-04-14 17:59:29.928971,665703,1609507063557768,4663527443,-0.85888,0.538752,-0.55632,-3.6925,24.22875,19.6175,-1.592,-18.416,-30.872002,concentric,5,3.0,35552.0,176913.0,77645.0,172755.0,90760.0
2026-04-14 17:59:29.931493,665704,1609507063566942,4663536272,-0.85888,0.538752,-0.55632,-3.255,24.0275,20.13375,-1.592,-18.416,-30.872002,concentric,5,3.0,35552.0,176913.0,77645.0,172755.0,90760.0
2026-04-14 17:59:29.936891,665705,1609507063575966,4663544987,-0.843264,0.503616,-0.6344,-2.10875,24.815,20.7025,-2.456,-18.76,-30.712002,concentric,5,3.0,35552.0,176913.0,77645.0,172755.0,90760.0
2026-04-14 17:59:29.938718,665706,1609507063590502,4663559920,-0.843264,0.503616,-0.6344,0.1575,26.99375,22.28625,-2.456,-18.76,-30.712002,concentric,5,3.0,35552.0,176913.0,77645.0,172755.0,90760.0
2026-04-14 17:59:29.947419,665707,1609507063599521,4663568662,-0.86864,0.503616,-0.687104,0.60375,30.77375,24.07125,-3.104,-18.624,-30.672,concentric,5,3.0,35552.0,176913.0,77645.0,172755.0,90760.0
2026-04-14 17:59:29.962633,665708,1609507063614021,4663583546,-0.86864,0.56608,-0.694912,-2.37125,33.20625,25.8825,-3.104,-18.624,-30.672,concentric,5,3.0,35552.0,176913.0,77645.0,172755.0,90760.0
2026-04-14 17:59:29.970124,665709,1609507063623044,4663592263,-0.929152,0.571936,-0.694912,-2.9575,36.1725,28.0175,-4.384,-18.0,-28.44,concentric,5,3.0,35552.0,176913.0,77645.0,172755.0,90760.0
2026-04-14 17:59:29.978886,665710,1609507063631987,4663600949,-0.929152,0.571936,-0.694912,-1.9775,38.31625,28.25375,-4.384,-18.0,-28.44,concentric,5,3.0,35552.0,176913.0,77645.0,172755.0,90760.0
2026-04-14 17:59:30.012732,665711,1609507063646479,4663615839,-0.815936,0.540704,-0.665632,-0.6475,40.4775,29.12875,-5.128,-18.36,-30.824001,concentric,5,3.0,35552.0,176913.0,77645.0,172755.0,90760.0
2026-04-14 17:59:30.037472,665712,1609507063655394,4663624528,-0.862784,0.587552,-0.655872,-1.7675,42.41125,30.89625,-6.56,-18.496,-30.584002,concentric,5,3.0,35552.0,176913.0,77645.0,172755.0,90760.0
2026-04-14 17:59:30.113968,665723,1609507063669920,4663639440,-0.862784,0.587552,-0.655872,-3.82375,43.67125,33.24125,-6.56,-18.496,-30.584002,concentric,5,3.0,35398.0,177830.0,77523.0,173761.0,90682.0
2026-04-14 17:59:30.116492,665724,1609507063678804,4663648123,-0.7808,0.589504,-0.470432,-3.29875,46.1475,36.04125,-7.000001,-18.064001,-30.016,concentric,5,3.0,35398.0,177830.0,77523.0,173761.0,90682.0
2026-04-14 17:59:30.118922,665725,1609507063693287,4663663089,-0.7808,0.589504,-0.470432,-2.21375,48.335,39.2875,-7.000001,-18.064001,-30.016,concentric,5,3.0,35398.0,177830.0,77523.0,173761.0,90682.0
2026-04-14 17:59:30.124588,665726,1609507063702212,4663671780,-0.784704,0.601216,-0.76128,-6.27375,50.2775,42.3325,-7.648,-18.344002,-29.600002,concentric,5,3.0,35398.0,177830.0,77523.0,173761.0,90682.0
2026-04-14 17:59:30.125008,665727,1609507063711321,4663680658,-0.784704,0.601216,-0.76128,-11.3925,52.71,45.85,-7.648,-18.344002,-29.600002,concentric,5,3.0,35398.0,177830.0,77523.0,173761.0,90682.0
2026-04-14 17:59:30.126142,665728,1609507063725819,4663695578,-0.691008,0.67344,-0.601216,-11.2875,55.41375,48.125,-9.072001,-18.568,-29.184002,concentric,5,3.0,35398.0,177830.0,77523.0,173761.0,90682.0
2026-04-14 17:59:30.133371,665729,1609507063734763,4663704273,-0.691008,0.689056,-0.81008,-8.2075,57.37375,48.55375,-9.072001,-18.568,-29.184002,concentric,5,3.0,35398.0,177830.0,77523.0,173761.0,90682.0
2026-04-14 17:59:30.145392,665730,1609507063749282,4663719216,-0.747616,0.696864,-0.81008,-10.07125,57.25125,50.5925,-9.936001,-18.208,-31.936,concentric,5,3.0,35398.0,177830.0,77523.0,173761.0,90682.0
2026-04-14 17:59:30.160150,665741,1609507063759078,4663728528,-0.622688,0.679296,-0.745664,-14.44625,55.7725,53.357502,-10.616,-18.736,-29.672,concentric,5,3.0,35006.0,178355.0,76765.0,174005.0,89828.0
2026-04-14 17:59:30.162091,665742,1609507063768102,4663737266,-0.622688,0.679296,-0.745664,-15.68,53.15625,55.6675,-10.616,-18.736,-29.672,concentric,5,3.0,35006.0,178355.0,76765.0,174005.0,89828.0
2026-04-14 17:59:30.163846,665743,1609507063782765,4663752285,-0.651968,0.782752,-0.597312,-14.971251,53.5325,58.2925,-12.120001,-18.288,-28.368002,concentric,5,3.0,35006.0,178355.0,76765.0,174005.0,89828.0
2026-04-14 17:59:30.166353,665744,1609507063791809,4663760997,-0.651968,0.782752,-0.597312,-16.44125,54.10125,60.3925,-12.120001,-18.288,-28.368002,concentric,5,3.0,35006.0,178355.0,76765.0,174005.0,89828.0
2026-04-14 17:59:30.168797,665745,1609507063806527,4663776019,-0.665632,0.823744,-0.772992,-21.93625,55.7375,61.92375,-13.480001,-17.992,-26.984001,concentric,5,3.0,35006.0,178355.0,76765.0,174005.0,89828.0
2026-04-14 17:59:30.171388,665746,1609507063815485,4663784714,-0.665632,0.80032,-0.622688,-26.60875,57.4875,63.30625,-13.480001,-17.992,-26.984001,concentric,5,3.0,35006.0,178355.0,76765.0,174005.0,89828.0
2026-04-14 17:59:30.173840,665747,1609507063824511,4663793411,-0.616832,0.80032,-0.622688,-27.81625,59.22,64.89,-15.080001,-18.136002,-27.016,concentric,5,3.0,35006.0,178355.0,76765.0,174005.0,89828.0
2026-04-14 17:59:30.186381,665748,1609507063839168,4663808354,-0.691008,0.823744,-0.794464,-27.4925,59.91125,66.57875,-15.632001,-19.04,-28.008001,concentric,5,3.0,35006.0,178355.0,76765.0,174005.0,89828.0
2026-04-14 17:59:30.195219,665749,1609507063848296,4663817074,-0.691008,0.823744,-0.794464,-26.45125,60.34875,67.97,-15.632001,-19.04,-28.008001,concentric,5,3.0,35006.0,178355.0,76765.0,174005.0,89828.0
2026-04-14 17:59:30.236293,665761,1609507063863361,4663832016,-0.587552,0.847168,-0.6344,-27.64125,62.18625,69.93,-15.808001,-18.848001,-27.536001,concentric,5,3.0,34254.0,175612.0,74594.0,170885.0,87726.0
2026-04-14 17:59:30.238878,665762,1609507063872619,4663842904,-0.587552,0.847168,-0.6344,-29.723751,64.68,72.0125,-15.808001,-18.848001,-27.536001,concentric,5,3.0,34254.0,175612.0,74594.0,170885.0,87726.0
2026-04-14 17:59:30.241424,665763,1609507063881550,4663851621,-0.601216,0.767136,-0.860832,-30.79125,68.145,74.121254,-17.904001,-18.688002,-25.880001,concentric,5,3.0,34254.0,175612.0,74594.0,170885.0,87726.0
2026-04-14 17:59:30.243740,665764,1609507063896123,4663864490,-0.569984,0.788608,-0.694912,-31.78875,71.67125,74.6025,-17.904001,-18.688002,-23.952002,concentric,5,3.0,34254.0,175612.0,74594.0,170885.0,87726.0
2026-04-14 17:59:30.252712,665765,1609507063905330,4663875344,-0.57584,0.788608,-0.694912,-29.6975,74.73375,77.9275,-19.84,-18.320002,-23.952002,concentric,5,3.0,34254.0,175612.0,74594.0,170885.0,87726.0
2026-04-14 17:59:30.266507,665766,1609507063919843,4663888216,-0.59536,0.796416,-0.687104,-30.03875,77.8225,81.2875,-20.928001,-18.656,-24.392002,concentric,5,3.0,34254.0,175612.0,74594.0,170885.0,87726.0
2026-04-14 17:59:30.277732,665767,1609507063929036,4663898989,-0.59536,0.796416,-0.687104,-30.35375,80.47375,84.8925,-20.928001,-18.656,-24.392002,concentric,5,3.0,34254.0,175612.0,74594.0,170885.0,87726.0
2026-04-14 17:59:30.287742,665768,1609507063938046,4663907679,-0.519232,0.757376,-0.726144,-32.576252,81.87375,86.98375,-22.664001,-17.896,-23.36,concentric,5,3.0,34254.0,175612.0,74594.0,170885.0,87726.0
2026-04-14 17:59:30.305264,665769,1609507063952568,4663922621,-0.519232,0.757376,-0.726144,-32.29625,83.48375,88.725,-22.664001,-17.896,-23.36,concentric,5,3.0,34254.0,175612.0,74594.0,170885.0,87726.0
2026-04-14 17:59:30.332689,665780,1609507063962081,4663931825,-0.476288,0.812032,-0.612928,-28.210001,87.605,91.0875,-23.488,-17.992,-23.696001,concentric,5,3.0,37384.0,178674.0,78459.0,173125.0,92317.0
2026-04-14 17:59:30.335199,665781,1609507063976618,4663946757,-0.523136,0.827648,-0.905728,-26.845,91.63875,91.42875,-23.488,-17.992,-21.184002,concentric,5,3.0,37384.0,178674.0,78459.0,173125.0,92317.0
2026-04-14 17:59:30.337665,665782,1609507063985553,4663955444,-0.51728,0.827648,-0.905728,-31.115,93.05625,91.455,-25.664001,-16.728,-21.184002,concentric,5,3.0,37384.0,178674.0,78459.0,173125.0,92317.0
2026-04-14 17:59:30.342503,665783,1609507063994565,4663964163,-0.51728,0.827648,-0.905728,-36.75875,94.14125,93.371254,-25.664001,-16.728,-21.184002,concentric,5,3.0,37384.0,178674.0,78459.0,173125.0,92317.0
2026-04-14 17:59:30.381539,665784,1609507064009078,4663979152,-0.470432,0.792512,-0.661728,-38.50875,95.2,95.41875,-27.048,-16.344,-20.288,concentric,5,3.0,37384.0,178674.0,78459.0,173125.0,92317.0
2026-04-14 17:59:30.384046,665785,1609507064018022,4663987850,-0.355264,0.759328,-0.80032,-40.39,94.7975,97.1425,-27.232,-16.12,-20.448002,concentric,5,3.0,37384.0,178674.0,78459.0,173125.0,92317.0
2026-04-14 17:59:30.386559,665786,1609507064032518,4664002695,-0.355264,0.759328,-0.80032,-38.47375,96.5475,100.75625,-27.232,-16.12,-20.448002,concentric,5,3.0,37384.0,178674.0,78459.0,173125.0,92317.0
2026-04-14 17:59:30.412256,665787,1609507064041608,4664011444,-0.404064,0.851072,-0.700768,-36.42625,97.92125,102.3575,-28.560001,-15.832001,-19.640001,concentric,5,3.0,37384.0,178674.0,78459.0,173125.0,92317.0
2026-04-14 17:59:30.414063,665788,1609507064050631,4664020190,-0.404064,0.851072,-0.700768,-35.91875,99.225,103.355,-28.560001,-15.832001,-19.640001,concentric,5,3.0,37384.0,178674.0,78459.0,173125.0,92317.0
2026-04-14 17:59:30.441427,665799,1609507064065175,4664035164,-0.359168,0.8784,-0.7808,-41.335,99.19875,102.50625,-30.104002,-15.056001,-18.312,concentric,5,3.0,42283.0,176950.0,83473.0,170416.0,98460.0
2026-04-14 17:59:30.443839,665800,1609507064074300,4664043889,-0.359168,0.8784,-0.7808,-47.66125,99.46125,103.95875,-30.104002,-15.056001,-18.312,concentric,5,3.0,42283.0,176950.0,83473.0,170416.0,98460.0
2026-04-14 17:59:30.446273,665801,1609507064088816,4664058819,-0.316224,0.806176,-0.808128,-49.53375,100.73,104.83375,-31.352001,-14.112,-16.944,concentric,5,3.0,42283.0,176950.0,83473.0,170416.0,98460.0
2026-04-14 17:59:30.448996,665802,1609507064097783,4664067558,-0.244,0.817888,-0.853024,-48.3525,101.73625,106.67125,-32.304,-13.208,-13.272,concentric,5,3.0,42283.0,176950.0,83473.0,170416.0,98460.0
2026-04-14 17:59:30.460240,665803,1609507064112342,4664082396,-0.244,0.817888,-0.853024,-44.5025,101.87625,110.4775,-32.304,-13.208,-13.272,concentric,5,3.0,42283.0,176950.0,83473.0,170416.0,98460.0
2026-04-14 17:59:30.470245,665804,1609507064121305,4664091104,-0.083936,0.84912,-0.651968,-38.6225,102.40125,114.6075,-34.056,-12.072001,-14.000001,concentric,5,3.0,42283.0,176950.0,83473.0,170416.0,98460.0
2026-04-14 17:59:30.477728,665805,1609507064130288,4664099793,-0.083936,0.84912,-0.651968,-36.39125,101.57,117.6875,-34.056,-12.072001,-14.000001,concentric,5,3.0,42283.0,176950.0,83473.0,170416.0,98460.0
2026-04-14 17:59:30.493996,665806,1609507064144819,4664114693,-0.011712,0.837408,-0.599264,-40.15375,98.665,121.738754,-34.712,-11.280001,-15.064001,concentric,5,3.0,42283.0,176950.0,83473.0,170416.0,98460.0
2026-04-14 17:59:30.501239,665807,1609507064153766,4664123400,-0.011712,0.837408,-0.599264,-50.54,93.98375,123.97,-34.712,-11.280001,-15.064001,concentric,5,3.0,42283.0,176950.0,83473.0,170416.0,98460.0
2026-04-14 17:59:30.534234,665818,1609507064168372,4664138413,0.037088,0.757376,-0.726144,-53.38375,93.3625,126.09625,-35.312,-9.816001,-12.000001,concentric,5,3.0,54074.0,181329.0,96302.0,174308.0,114514.0
2026-04-14 17:59:30.536820,665819,1609507064177335,4664147136,0.037088,0.757376,-0.726144,-46.6375,97.685,126.6125,-35.312,-9.816001,-12.000001,concentric,5,3.0,54074.0,181329.0,96302.0,174308.0,114514.0
2026-04-14 17:59:30.540077,665820,1609507064191889,4664162095,0.074176,0.925248,-0.552416,-38.115,103.7925,127.365,-36.584003,-7.84,-9.096001,concentric,5,3.0,54074.0,181329.0,96302.0,174308.0,114514.0
2026-04-14 17:59:30.550538,665821,1609507064200828,4664170815,0.144448,0.882304,-0.55632,-36.085,108.2375,127.19875,-36.824,-6.448,-8.256001,concentric,5,3.0,54074.0,181329.0,96302.0,174308.0,114514.0
2026-04-14 17:59:30.558075,665822,1609507064209746,4664179504,0.144448,0.882304,-0.55632,-39.69875,109.96125,126.00875,-36.824,-6.448,-8.256001,concentric,5,3.0,54074.0,181329.0,96302.0,174308.0,114514.0
2026-04-14 17:59:30.573063,665823,1609507064224242,4664194397,0.140544,0.769088,-0.437248,-49.9275,108.01875,123.6025,-37.184002,-5.752,-7.744,concentric,5,3.0,54074.0,181329.0,96302.0,174308.0,114514.0
2026-04-14 17:59:30.580567,665824,1609507064233172,4664203097,0.140544,0.769088,-0.437248,-53.2525,106.6975,121.93125,-37.184002,-5.752,-7.744,concentric,5,3.0,54074.0,181329.0,96302.0,174308.0,114514.0
2026-04-14 17:59:30.595142,665825,1609507064247656,4664217989,0.210816,0.710528,-0.64416,-47.80125,107.91375,119.44625,-37.128002,-4.232,-6.328,concentric,5,3.0,54074.0,181329.0,96302.0,174308.0,114514.0
2026-04-14 17:59:30.606299,665826,1609507064256596,4664226681,0.210816,0.710528,-0.64416,-40.670002,110.425,118.93875,-37.128002,-4.232,-6.328,concentric,5,3.0,54074.0,181329.0,96302.0,174308.0,114514.0
2026-04-14 17:59:30.636385,665837,1609507064271234,4664239828,0.158112,0.7808,-0.620736,-37.51125,113.9775,119.42875,-37.264,-2.664,-5.832,concentric,5,3.0,65423.0,189823.0,109293.0,181971.0,129744.0
2026-04-14 17:59:30.638740,665838,1609507064280767,4664250693,0.20496,0.724192,-0.460672,-38.1325,114.61625,120.435,-38.456,-0.496,-2.728,concentric,5,3.0,65423.0,189823.0,109293.0,181971.0,129744.0
2026-04-14 17:59:30.666516,665839,1609507064289839,4664259404,0.20496,0.724192,-0.460672,-36.11125,115.89375,121.975,-38.456,-0.496,-2.728,concentric,5,3.0,65423.0,189823.0,109293.0,181971.0,129744.0
