pc_time,serial_num,sensor_ts,host_ts,ax,ay,az,gx,gy,gz,mx,my,mz,phase,rpe,weight_kg,ppg_a,ppg_b,ppg_c,ppg_d,ppg_e
2026-04-09 22:15:46.362299,298301,1876340948,1876341992,-1.009184,0.335744,0.076128,15.49625,8.16375,2.73875,27.472002,-12.056001,24.576,concentric,5,5.0,34441.0,403431.0,135829.0,8623.0,-145.0
2026-04-09 22:15:46.364244,298302,1876355438,1876356894,-1.038464,0.269376,0.0,9.8875,9.38,0.2275,27.52,-12.040001,24.352001,concentric,5,5.0,34441.0,403431.0,135829.0,8623.0,-145.0
2026-04-09 22:15:46.368818,298303,1876364334,1876365600,-1.038464,0.269376,0.0,1.49625,10.5875,-1.575,27.52,-12.040001,24.352001,concentric,5,5.0,34441.0,403431.0,135829.0,8623.0,-145.0
2026-04-09 22:15:46.394615,298314,1876373332,1876374560,-1.06384,0.314272,0.00976,2.77375,11.27875,-2.9925,27.680002,-12.008,24.352001,concentric,5,5.0,33594.0,403431.0,134378.0,8040.0,-148.0
2026-04-09 22:15:46.398810,298315,1876383951,1876385501,-1.06384,0.314272,0.00976,7.30625,9.84375,-4.165,27.680002,-12.008,24.352001,concentric,5,5.0,33594.0,403431.0,134378.0,8040.0,-148.0
2026-04-09 22:15:46.400401,298316,1876392999,1876394230,-1.03456,0.310368,0.148352,12.1625,8.1375,-7.7875,26.44,-11.72,25.792002,concentric,5,5.0,33594.0,403431.0,134378.0,8040.0,-148.0
2026-04-09 22:15:46.430709,298317,1876407467,1876409202,-1.03456,0.310368,0.11712,12.6,7.665,-12.4075,26.44,-11.72,25.792002,concentric,5,5.0,33594.0,403431.0,134378.0,8040.0,-148.0
2026-04-09 22:15:46.432948,298318,1876416411,1876417924,-1.048224,0.388448,0.113216,13.34375,9.05625,-16.12625,26.920002,-11.808001,25.136002,concentric,5,5.0,33594.0,403431.0,134378.0,8040.0,-148.0
2026-04-09 22:15:46.437638,298319,1876425334,1876426645,-1.048224,0.388448,0.113216,10.9375,11.76,-21.385,26.920002,-11.808001,25.136002,concentric,5,5.0,33594.0,403431.0,134378.0,8040.0,-148.0
2026-04-09 22:15:46.439162,298320,1876439816,1876441594,-1.05408,0.277184,0.02928,6.62375,14.1925,-26.11,27.968,-11.656,23.488,concentric,5,5.0,33594.0,403431.0,134378.0,8040.0,-148.0
2026-04-09 22:15:46.469507,298321,1876448794,1876450328,-1.065792,0.296704,0.10736,5.95875,14.533751,-27.755001,27.728,-11.76,22.264002,concentric,5,5.0,33594.0,403431.0,134378.0,8040.0,-148.0
2026-04-09 22:15:46.471761,298322,1876457697,1876459036,-1.065792,0.296704,0.10736,8.417501,13.9475,-27.317501,27.728,-11.76,22.264002,concentric,5,5.0,33594.0,403431.0,134378.0,8040.0,-148.0
2026-04-09 22:15:46.498813,298332,1876472206,1876473979,-1.069696,0.294752,0.06832,10.3425,13.545,-28.07,27.432001,-11.184001,22.728,concentric,5,5.0,33433.0,403431.0,135151.0,8516.0,-133.0
2026-04-09 22:15:46.500574,298333,1876481501,1876482778,-1.069696,0.294752,0.06832,9.292501,13.51,-30.02125,27.432001,-11.184001,22.728,concentric,5,5.0,33433.0,403431.0,135151.0,8516.0,-133.0
2026-04-09 22:15:46.502111,298334,1876490474,1876491516,-1.097024,0.22448,0.00976,6.265,13.877501,-30.93125,25.36,-10.776001,23.664001,concentric,5,5.0,33433.0,403431.0,135151.0,8516.0,-133.0
2026-04-09 22:15:46.506193,298335,1876499513,1876500413,-1.097024,0.22448,0.00976,6.27375,14.35,-29.77625,25.36,-10.776001,23.664001,concentric,5,5.0,33433.0,403431.0,135151.0,8516.0,-133.0
2026-04-09 22:15:46.534735,298336,1876514649,1876515340,-1.095072,0.230336,0.124928,9.65125,14.1225,-27.1425,26.880001,-10.072001,23.256,concentric,5,5.0,33433.0,403431.0,135151.0,8516.0,-133.0
2026-04-09 22:15:46.539265,298337,1876523944,1876526091,-1.095072,0.230336,0.124928,13.5275,13.4575,-24.99875,26.880001,-10.072001,23.256,concentric,5,5.0,33433.0,403431.0,135151.0,8516.0,-133.0
2026-04-09 22:15:46.540899,298338,1876532887,1876534791,-1.069696,0.386496,0.179584,17.115,14.79625,-23.87,27.544,-10.288,22.080002,concentric,5,5.0,33433.0,403431.0,135151.0,8516.0,-133.0
2026-04-09 22:15:46.544931,298339,1876541810,1876543491,-1.069696,0.386496,0.179584,11.03375,17.5175,-24.0275,27.544,-10.288,22.080002,concentric,5,5.0,33433.0,403431.0,135151.0,8516.0,-133.0
2026-04-09 22:15:46.573506,298340,1876556306,1876558397,-1.091168,0.271328,0.056608,-4.34,19.95,-26.85375,27.392002,-9.952001,22.392,concentric,5,5.0,33433.0,403431.0,135151.0,8516.0,-133.0
2026-04-09 22:15:46.577163,298341,1876565248,1876567112,-1.091168,0.271328,0.056608,-11.2,21.58625,-28.02625,27.392002,-9.952001,22.392,concentric,5,5.0,33433.0,403431.0,135151.0,8516.0,-133.0
2026-04-09 22:15:46.606068,298351,1876574356,1876575936,-1.10288,0.244,0.050752,-10.05375,23.31,-25.8825,27.512001,-9.6,21.064001,concentric,5,5.0,32936.0,403431.0,135288.0,8746.0,-140.0
2026-04-09 22:15:46.609685,298352,1876588985,1876590907,-1.120448,0.27328,0.076128,-7.00875,24.6575,-22.89,25.464,-9.736,21.904001,concentric,5,5.0,32936.0,403431.0,135288.0,8746.0,-140.0
2026-04-09 22:15:46.610751,298353,1876597899,1876599650,-1.120448,0.27328,0.076128,-7.8925,25.48,-20.116251,25.928001,-9.736,21.904001,concentric,5,5.0,32936.0,403431.0,135288.0,8746.0,-140.0
2026-04-09 22:15:46.613362,298354,1876606862,1876608398,-1.120448,0.27328,0.076128,-10.85,24.78875,-18.725,25.928001,-9.736,21.904001,concentric,5,5.0,32936.0,403431.0,135288.0,8746.0,-140.0
2026-04-09 22:15:46.620782,298355,1876621438,1876623333,-1.124352,0.249856,-0.003904,-7.41125,22.5925,-17.24625,25.640001,-9.688001,21.088001,concentric,5,5.0,32936.0,403431.0,135288.0,8746.0,-140.0
2026-04-09 22:15:46.651053,298356,1876630454,1876632054,-1.14192,0.396256,0.035136,1.16375,20.4225,-17.045,25.560001,-9.784,20.856,concentric,5,5.0,32936.0,403431.0,135288.0,8746.0,-140.0
2026-04-09 22:15:46.654563,298357,1876639429,1876640748,-1.14192,0.396256,0.035136,9.87875,18.97875,-16.7825,25.560001,-9.784,20.856,concentric,5,5.0,32936.0,403431.0,135288.0,8746.0,-140.0
2026-04-09 22:15:46.657046,298358,1876648335,1876649416,-1.14192,0.396256,0.035136,10.84125,16.84375,-19.565,25.560001,-9.784,20.856,concentric,5,5.0,32936.0,403431.0,135288.0,8746.0,-140.0
2026-04-09 22:15:46.660800,298359,1876662870,1876664386,-1.130208,0.392352,0.060512,6.86875,15.636251,-22.82875,25.968,-9.496,21.808,concentric,5,5.0,32936.0,403431.0,135288.0,8746.0,-140.0
2026-04-09 22:15:46.690967,298360,1876671862,1876673113,-1.106784,0.368928,0.076128,4.2875,15.28625,-25.9525,24.872002,-8.832001,20.720001,concentric,5,5.0,32936.0,403431.0,135288.0,8746.0,-140.0
2026-04-09 22:15:46.722070,298371,1876680808,1876681883,-1.106784,0.368928,0.076128,2.28375,16.35375,-29.155,24.872002,-8.832001,20.720001,concentric,5,5.0,32621.0,403431.0,136922.0,9778.0,-130.0
2026-04-09 22:15:46.724548,298372,1876695291,1876696775,-1.155584,0.318176,0.025376,1.58375,18.165,-32.025,25.808,-9.04,19.536001,concentric,5,5.0,32621.0,403431.0,136922.0,9778.0,-130.0
2026-04-09 22:15:46.727002,298373,1876704302,1876705524,-1.155584,0.318176,0.025376,-1.4175,19.53875,-34.69375,25.808,-9.04,19.536001,concentric,5,5.0,32621.0,403431.0,136922.0,9778.0,-130.0
2026-04-09 22:15:46.729501,298374,1876713324,1876714302,-1.153632,0.324032,-0.035136,-1.8375,18.3225,-34.23,25.848001,-9.224,18.936,concentric,5,5.0,32621.0,403431.0,136922.0,9778.0,-130.0
2026-04-09 22:15:46.732027,298375,1876727871,1876729220,-1.153632,0.324032,-0.035136,1.51375,14.7875,-32.97,25.848001,-9.224,18.936,concentric,5,5.0,32621.0,403431.0,136922.0,9778.0,-130.0
2026-04-09 22:15:46.734528,298376,1876736827,1876737995,-1.139968,0.36112,-0.017568,4.45375,11.917501,-32.865,25.384,-8.536,16.432001,concentric,5,5.0,32621.0,403431.0,136922.0,9778.0,-130.0
2026-04-09 22:15:46.764765,298377,1876745806,1876746689,-1.139968,0.36112,-0.017568,4.75125,10.255,-33.8975,25.384,-8.536,16.432001,concentric,5,5.0,32621.0,403431.0,136922.0,9778.0,-130.0
2026-04-09 22:15:46.768737,298378,1876754711,1876755397,-1.153632,0.384544,0.06832,4.55,10.92,-34.685,24.448002,-8.84,19.44,concentric,5,5.0,32621.0,403431.0,136922.0,9778.0,-130.0
2026-04-09 22:15:46.770765,298379,1876769659,1876770294,-1.124352,0.353312,0.111264,5.74,12.97625,-35.32375,24.448002,-8.648001,18.864,concentric,5,5.0,32621.0,403431.0,136922.0,9778.0,-130.0
2026-04-09 22:15:46.795786,298389,1876779027,1876781179,-1.124352,0.353312,0.111264,1.60125,15.53125,-36.65375,24.528002,-8.648001,18.864,concentric,5,5.0,32585.0,403431.0,137955.0,10429.0,-137.0
2026-04-09 22:15:46.798337,298390,1876788003,1876789940,-1.124352,0.353312,0.111264,-3.71,17.89375,-36.6975,24.528002,-8.648001,18.864,concentric,5,5.0,32585.0,403431.0,137955.0,10429.0,-137.0
2026-04-09 22:15:46.800865,298391,1876802532,1876802866,-1.138016,0.306464,-0.083936,-6.0725,18.5325,-36.3475,22.784,-8.328,19.344002,concentric,5,5.0,32585.0,403431.0,137955.0,10429.0,-137.0
2026-04-09 22:15:46.831003,298392,1876811795,1876813634,-1.159488,0.386496,0.0,-5.83625,17.64,-35.18375,22.728,-8.272,18.168001,concentric,5,5.0,32585.0,403431.0,137955.0,10429.0,-137.0
2026-04-09 22:15:46.834564,298393,1876820808,1876822404,-1.159488,0.386496,0.0,-3.115,16.75625,-34.02,22.728,-8.272,18.168001,concentric,5,5.0,32585.0,403431.0,137955.0,10429.0,-137.0
2026-04-09 22:15:46.837930,298394,1876829703,1876831123,-1.1224,0.365024,0.060512,-2.61625,16.19625,-34.72,22.728,-6.224001,17.176,concentric,5,5.0,32585.0,403431.0,137955.0,10429.0,-137.0
2026-04-09 22:15:46.844372,298395,1876844228,1876846020,-1.1224,0.365024,0.060512,-2.3625,17.4475,-36.4875,23.488,-8.136001,17.176,concentric,5,5.0,32585.0,403431.0,137955.0,10429.0,-137.0
2026-04-09 22:15:46.873545,298396,1876853248,1876854734,-1.124352,0.320128,0.027328,-1.9775,19.31125,-37.52875,23.408,-8.648001,17.0,concentric,5,5.0,32585.0,403431.0,137955.0,10429.0,-137.0
2026-04-09 22:15:46.877056,298397,1876862187,1876863443,-1.124352,0.320128,0.027328,-2.31,21.4025,-38.96375,23.408,-8.648001,17.0,concentric,5,5.0,32585.0,403431.0,137955.0,10429.0,-137.0
2026-04-09 22:15:46.908349,298407,1876876976,1876878410,-1.143872,0.382592,-0.027328,-0.5075,22.6275,-38.91125,23.344002,-7.928001,17.224,concentric,5,5.0,32235.0,403431.0,137697.0,10427.0,-141.0
2026-04-09 22:15:46.910819,298408,1876886087,1876887093,-1.143872,0.382592,-0.027328,0.34125,22.3125,-38.08875,23.344002,-7.928001,17.224,concentric,5,5.0,32235.0,403431.0,137697.0,10427.0,-141.0
2026-04-09 22:15:46.913363,298409,1876895100,1876895840,-1.155584,0.324032,-0.046848,-0.35875,22.12,-39.2,23.264002,-7.84,17.528002,concentric,5,5.0,32235.0,403431.0,137697.0,10427.0,-141.0
2026-04-09 22:15:46.915812,298410,1876904520,1876906672,-1.155584,0.324032,-0.046848,0.72625,20.46625,-39.585,23.264002,-7.84,17.528002,concentric,5,5.0,32235.0,403431.0,137697.0,10427.0,-141.0
2026-04-09 22:15:46.918291,298411,1876919006,1876919591,-1.139968,0.3416,-0.056608,3.7975,18.64625,-38.87625,22.224,-7.24,17.0,concentric,5,5.0,32235.0,403431.0,137697.0,10427.0,-141.0
2026-04-09 22:15:46.948563,298412,1876928196,1876930331,-1.139968,0.3416,-0.056608,5.64375,16.89625,-38.98125,22.224,-7.24,17.0,concentric,5,5.0,32235.0,403431.0,137697.0,10427.0,-141.0
2026-04-09 22:15:46.952092,298413,1876937103,1876939053,-1.130208,0.327936,0.001952,5.25875,14.945,-38.73625,21.704,-7.76,16.304,concentric,5,5.0,32235.0,403431.0,137697.0,10427.0,-141.0
2026-04-09 22:15:46.971817,298414,1876951602,1876951946,-1.106784,0.318176,0.0,5.495,14.3675,-38.3775,22.184002,-6.808,16.800001,concentric,5,5.0,32235.0,403431.0,137697.0,10427.0,-141.0
2026-04-09 22:15:46.972080,298415,1876960834,1876962717,-1.106784,0.318176,0.0,3.80625,15.2425,-37.975,22.184002,-6.808,16.800001,concentric,5,5.0,32235.0,403431.0,137697.0,10427.0,-141.0
2026-04-09 22:15:46.974629,298416,1876969746,1876971422,-1.106784,0.318176,-0.095648,3.52625,16.3625,-36.33,22.184002,-6.808,16.800001,concentric,5,5.0,32235.0,403431.0,137697.0,10427.0,-141.0
2026-04-09 22:15:47.002760,298427,1876979026,1876980197,-1.110688,0.333792,-0.095648,4.76875,14.69125,-34.57125,21.408,-7.12,19.0,concentric,5,5.0,31986.0,403431.0,138020.0,10673.0,-138.0
2026-04-09 22:15:47.006158,298428,1876993553,1876995184,-1.069696,0.300608,-0.033184,6.83375,13.29125,-34.51875,20.784,-7.344,16.928001,concentric,5,5.0,31986.0,403431.0,138020.0,10673.0,-138.0
2026-04-09 22:15:47.007150,298429,1877002505,1877003899,-1.069696,0.300608,-0.033184,7.8225,13.011251,-33.5475,20.784,-7.344,16.928001,concentric,5,5.0,31986.0,403431.0,138020.0,10673.0,-138.0
2026-04-09 22:15:47.010782,298430,1877011440,1877012650,-1.085312,0.304512,-0.025376,5.9325,11.76875,-32.935,20.784,-6.952,16.560001,concentric,5,5.0,31986.0,403431.0,138020.0,10673.0,-138.0
2026-04-09 22:15:47.041070,298431,1877025917,1877027684,-1.085312,0.304512,-0.025376,4.82125,11.43625,-30.8,20.784,-6.952,16.560001,concentric,5,5.0,31986.0,403431.0,138020.0,10673.0,-138.0
2026-04-09 22:15:47.044589,298432,1877034815,1877036430,-1.06384,0.314272,-0.03904,5.24125,11.1475,-28.95375,21.256,-6.984,14.984001,concentric,5,5.0,31986.0,403431.0,138020.0,10673.0,-138.0
2026-04-09 22:15:47.047044,298433,1877043721,1877045129,-1.06384,0.314272,-0.03904,6.3175,11.97,-27.58,21.256,-6.984,14.984001,concentric,5,5.0,31986.0,403431.0,138020.0,10673.0,-138.0
2026-04-09 22:15:47.077305,298434,1877058197,1877060064,-1.052128,0.32208,0.025376,6.15125,13.50125,-27.37,20.024,-6.744,17.240002,concentric,5,5.0,31986.0,403431.0,138020.0,10673.0,-138.0
2026-04-09 22:15:47.081794,298435,1877067124,1877068817,-1.052128,0.32208,0.025376,5.32,16.16125,-26.62625,20.024,-6.744,17.240002,concentric,5,5.0,31986.0,403431.0,138020.0,10673.0,-138.0
2026-04-09 22:15:47.108321,298445,1877076120,1877077561,-1.100928,0.345504,-0.027328,1.79375,18.8475,-26.075,20.960001,-7.032001,15.160001,concentric,5,5.0,31717.0,403431.0,137399.0,10423.0,-148.0
2026-04-09 22:15:47.110808,298446,1877085088,1877086331,-1.100928,0.345504,-0.027328,3.2025,22.19875,-23.9225,20.960001,-7.032001,15.160001,concentric,5,5.0,31717.0,403431.0,137399.0,10423.0,-148.0
2026-04-09 22:15:47.113321,298447,1877099617,1877101328,-1.118496,0.277184,-0.064416,2.8525,25.62,-23.9925,20.52,-6.976,14.392001,concentric,5,5.0,31717.0,403431.0,137399.0,10423.0,-148.0
2026-04-09 22:15:47.115840,298448,1877108537,1877110086,-1.118496,0.277184,-0.064416,2.94,28.2275,-21.5075,20.52,-6.976,14.392001,concentric,5,5.0,31717.0,403431.0,137399.0,10423.0,-148.0
2026-04-09 22:15:47.118347,298449,1877117521,1877118830,-1.030656,0.28304,-0.007808,3.49125,30.33625,-19.241251,20.04,-6.920001,14.136001,concentric,5,5.0,31717.0,403431.0,137399.0,10423.0,-148.0
2026-04-09 22:15:47.148567,298450,1877132000,1877133756,-1.04432,0.324032,0.0,-5.7925,31.82375,-18.235,19.328001,-6.888001,13.76,concentric,5,5.0,31717.0,403431.0,137399.0,10423.0,-148.0
2026-04-09 22:15:47.152119,298451,1877140915,1877142458,-1.04432,0.324032,0.0,-10.29875,33.08375,-14.84875,19.328001,-6.888001,13.76,concentric,5,5.0,31717.0,403431.0,137399.0,10423.0,-148.0
2026-04-09 22:15:47.154613,298452,1877149845,1877151141,-1.04432,0.324032,0.0,-11.69,33.5825,-14.6825,19.328001,-6.888001,13.76,concentric,5,5.0,31717.0,403431.0,137399.0,10423.0,-148.0
2026-04-09 22:15:47.185792,298453,1877164340,1877166059,-1.026752,0.36112,-0.076128,-9.975,33.90625,-15.88125,19.288,-7.112001,13.664001,concentric,5,5.0,31717.0,403431.0,137399.0,10423.0,-148.0
2026-04-09 22:15:47.188003,298454,1877173238,1877174766,-1.089216,0.335744,-0.218624,-5.59125,32.73375,-17.815,18.92,-6.904,13.408001,concentric,5,5.0,31717.0,403431.0,137399.0,10423.0,-148.0
2026-04-09 22:15:47.219047,298464,1877182327,1877183467,-1.089216,0.335744,-0.218624,0.49,29.60125,-18.83,18.92,-6.904,13.408001,concentric,5,5.0,31156.0,403431.0,136407.0,10110.0,-137.0
2026-04-09 22:15:47.253290,298465,1877196817,1877198376,-1.04432,0.22448,-0.134688,4.4625,24.96375,-19.88,19.032001,-7.216001,13.712001,concentric,5,5.0,31156.0,403431.0,136407.0,10110.0,-137.0
2026-04-09 22:15:47.257656,298466,1877205736,1877207071,-1.04432,0.22448,-0.134688,1.89875,19.74875,-18.585001,19.032001,-7.216001,13.712001,concentric,5,5.0,31156.0,403431.0,136407.0,10110.0,-137.0
2026-04-09 22:15:47.259292,298467,1877214838,1877215853,-0.970144,0.265472,-0.042944,2.02125,15.75875,-13.16,18.656,-7.352,14.624001,concentric,5,5.0,31156.0,403431.0,136407.0,10110.0,-137.0
2026-04-09 22:15:47.261039,298468,1877223819,1877224569,-0.970144,0.265472,-0.042944,-5.08375,14.77875,-14.13125,18.656,-7.352,14.624001,concentric,5,5.0,31156.0,403431.0,136407.0,10110.0,-137.0
2026-04-09 22:15:47.265117,298469,1877238724,1877239470,-1.011136,0.316224,-0.072224,-10.10625,15.00625,-13.02875,18.536001,-6.912,13.240001,concentric,5,5.0,31156.0,403431.0,136407.0,10110.0,-137.0
2026-04-09 22:15:47.266839,298470,1877248069,1877250249,-1.011136,0.316224,-0.072224,-8.74125,14.98875,-12.775,18.536001,-6.912,13.240001,concentric,5,5.0,31156.0,403431.0,136407.0,10110.0,-137.0
2026-04-09 22:15:47.268475,298471,1877257024,1877258966,-0.993568,0.230336,-0.236192,-8.54,11.90875,-15.18125,17.968,-7.392,12.808001,concentric,5,5.0,31156.0,403431.0,136407.0,10110.0,-137.0
2026-04-09 22:15:47.270886,298472,1877271513,1877271847,-1.046272,0.23424,-0.236192,-5.145,7.9975,-15.855001,17.968,-7.392,13.328001,concentric,5,5.0,31156.0,403431.0,136407.0,10110.0,-137.0
2026-04-09 22:15:47.302605,298483,1877280962,1877282708,-1.046272,0.23424,-0.236192,-1.42625,3.28125,-14.41125,17.256,-7.864,13.328001,concentric,5,5.0,31355.0,403431.0,136047.0,9828.0,-130.0
2026-04-09 22:15:47.304303,298484,1877290081,1877291448,-1.046272,0.23424,-0.236192,2.1875,-2.21375,-13.76375,17.256,-7.864,13.328001,concentric,5,5.0,31355.0,403431.0,136047.0,9828.0,-130.0
2026-04-09 22:15:47.305869,298485,1877299118,1877300195,-1.030656,0.36112,-0.064416,7.98875,-5.15375,-14.39375,17.704,-7.432,14.840001,concentric,5,5.0,31355.0,403431.0,136047.0,9828.0,-130.0
2026-04-09 22:15:47.336965,298486,1877313620,1877315139,-1.011136,0.27328,-0.13664,2.52875,-4.27,-17.1675,17.096,-7.408001,14.184001,concentric,5,5.0,31355.0,403431.0,136047.0,9828.0,-130.0
2026-04-09 22:15:47.339224,298487,1877322643,1877323827,-1.011136,0.27328,-0.13664,-5.3725,-0.4025,-19.04875,17.096,-7.408001,14.184001,concentric,5,5.0,31355.0,403431.0,136047.0,9828.0,-130.0
2026-04-09 22:15:47.343849,298488,1877331549,1877332533,-1.011136,0.1952,-0.10736,-9.555,4.5675,-22.9425,17.096,-7.408001,14.184001,concentric,5,5.0,31355.0,403431.0,136047.0,9828.0,-130.0
2026-04-09 22:15:47.345539,298489,1877346020,1877347445,-1.016992,0.1952,-0.10736,-5.565,9.05625,-20.7025,17.888,-7.512001,12.912001,concentric,5,5.0,31355.0,403431.0,136047.0,9828.0,-130.0
2026-04-09 22:15:47.377756,298490,1877355020,1877356196,-0.977952,0.201056,-0.121024,5.705,11.96125,-16.2925,17.456001,-7.28,12.808001,concentric,5,5.0,31355.0,403431.0,136047.0,9828.0,-130.0
2026-04-09 22:15:47.379374,298491,1877363928,1877364886,-0.977952,0.201056,-0.121024,2.065,13.877501,-19.2325,17.456001,-7.28,12.808001,concentric,5,5.0,31355.0,403431.0,136047.0,9828.0,-130.0
2026-04-09 22:15:47.380909,298492,1877372912,1877373592,-0.954528,0.208864,-0.056608,4.80375,16.89625,-21.84,16.752,-6.288,12.384001,concentric,5,5.0,31355.0,403431.0,136047.0,9828.0,-130.0
2026-04-09 22:15:47.406279,298502,1877388032,1877388708,-0.954528,0.208864,-0.056608,4.66375,21.2975,-21.595,16.752,-6.288,12.384001,concentric,5,5.0,31718.0,403431.0,139037.0,11473.0,-145.0
2026-04-09 22:15:47.410088,298503,1877397508,1877399645,-0.94672,0.230336,-0.138592,2.73875,26.25,-20.1075,16.096,-6.584,13.968,concentric,5,5.0,31718.0,403431.0,139037.0,11473.0,-145.0
2026-04-09 22:15:47.412962,298504,1877406472,1877408427,-0.94672,0.230336,-0.138592,4.27875,28.74375,-18.96125,16.096,-6.584,13.968,concentric,5,5.0,31718.0,403431.0,139037.0,11473.0,-145.0
2026-04-09 22:15:47.418721,298505,1877415440,1877417131,-0.874496,0.128832,-0.138592,6.1425,29.09375,-20.37875,15.200001,-7.168,13.000001,concentric,5,5.0,31718.0,403431.0,139037.0,11473.0,-145.0
2026-04-09 22:15:47.449556,298506,1877429940,1877432022,-0.874496,0.128832,-0.138592,3.57875,27.58,-19.17125,15.200001,-7.168,13.000001,concentric,5,5.0,31718.0,403431.0,139037.0,11473.0,-145.0
2026-04-09 22:15:47.451778,298507,1877438862,1877440787,-0.901824,0.18544,-0.1952,2.68625,23.96625,-13.93875,16.136002,-7.264,12.320001,concentric,5,5.0,31718.0,403431.0,139037.0,11473.0,-145.0
2026-04-09 22:15:47.456292,298508,1877447793,1877449480,-0.901824,0.18544,-0.1952,3.08,19.678751,-10.675,16.136002,-7.264,12.320001,concentric,5,5.0,31718.0,403431.0,139037.0,11473.0,-145.0
2026-04-09 22:15:47.485184,298509,1877462295,1877464493,-0.825696,0.144448,-0.162016,2.38,16.63375,-11.15625,16.312,-7.28,12.264001,concentric,5,5.0,31718.0,403431.0,139037.0,11473.0,-145.0
2026-04-09 22:15:47.489991,298510,1877471202,1877473197,-0.825696,0.144448,-0.162016,5.565,15.365,-9.30125,16.312,-7.28,12.264001,concentric,5,5.0,31718.0,403431.0,139037.0,11473.0,-145.0
2026-04-09 22:15:47.513395,298520,1877480379,1877482007,-0.933056,0.121024,-0.060512,8.14625,10.92,-6.6675,16.488,-7.400001,12.744,concentric,5,5.0,31849.0,403431.0,137635.0,10576.0,-134.0
2026-04-09 22:15:47.517610,298521,1877494911,1877496943,-0.88816,0.042944,-0.275232,6.0725,5.46875,-3.35125,16.296001,-7.152,12.232,concentric,5,5.0,31849.0,403431.0,137635.0,10576.0,-134.0
2026-04-09 22:15:47.519333,298522,1877504071,1877505695,-0.88816,0.042944,-0.275232,1.18125,-2.38875,0.63875,16.296001,-7.152,12.232,concentric,5,5.0,31849.0,403431.0,137635.0,10576.0,-134.0
2026-04-09 22:15:47.520868,298523,1877513043,1877514448,-0.882304,0.158112,0.013664,1.84625,-9.10875,7.735,15.408001,-7.624001,15.088,concentric,5,5.0,31849.0,403431.0,137635.0,10576.0,-134.0
2026-04-09 22:15:47.524961,298524,1877522001,1877523169,-0.882304,0.158112,0.013664,9.292501,-11.13875,8.47875,15.408001,-7.624001,15.088,concentric,5,5.0,31849.0,403431.0,137635.0,10576.0,-134.0
2026-04-09 22:15:47.553494,298525,1877536521,1877538128,-0.90768,0.337696,0.070272,17.33375,-10.87625,4.20875,16.136002,-6.872,11.992001,concentric,5,5.0,31849.0,403431.0,137635.0,10576.0,-134.0
2026-04-09 22:15:47.558028,298526,1877545439,1877546840,-0.90768,0.337696,0.070272,13.69375,-8.39125,6.93875,16.136002,-6.872,11.992001,concentric,5,5.0,31849.0,403431.0,137635.0,10576.0,-134.0
2026-04-09 22:15:47.559563,298527,1877554361,1877555528,-0.940864,-0.035136,-0.0976,1.09375,-4.89125,5.5475,16.184,-7.520001,12.232,concentric,5,5.0,31849.0,403431.0,137635.0,10576.0,-134.0
2026-04-09 22:15:47.591687,298528,1877568923,1877570414,-0.940864,-0.035136,-0.0976,-7.48125,-5.74,3.5525,16.184,-7.520001,12.232,concentric,5,5.0,31849.0,403431.0,137635.0,10576.0,-134.0
2026-04-09 22:15:47.615858,298538,1877577889,1877579108,-0.903776,0.177632,-0.20496,-6.15125,-7.2275,11.43625,16.184,-7.8,12.256001,concentric,5,5.0,32491.0,403431.0,137398.0,10228.0,-126.0
2026-04-09 22:15:47.620124,298539,1877587834,1877589883,-0.903776,0.177632,-0.20496,-1.715,-8.4,13.755,16.184,-7.8,12.256001,concentric,5,5.0,32491.0,403431.0,137398.0,10228.0,-126.0
2026-04-09 22:15:47.621854,298540,1877596756,1877598596,-0.894016,0.154208,0.011712,-0.39375,-9.40625,7.35,16.480001,-7.696001,12.384001,concentric,5,5.0,32491.0,403431.0,137398.0,10228.0,-126.0
2026-04-09 22:15:47.623413,298541,1877611349,1877613516,-0.894016,0.154208,0.011712,0.595,-8.95125,4.27,16.480001,-7.696001,12.384001,concentric,5,5.0,32491.0,403431.0,137398.0,10228.0,-126.0
2026-04-09 22:15:47.627537,298542,1877620300,1877622230,-0.976,0.183488,-0.060512,-0.07875,-6.72,4.1825,16.312,-7.672,11.896001,concentric,5,5.0,32491.0,403431.0,137398.0,10228.0,-126.0
2026-04-09 22:15:47.631256,298543,1877629234,1877630913,-0.976,0.183488,-0.060512,0.88375,-5.565,5.565,16.312,-7.672,11.896001,concentric,5,5.0,32491.0,403431.0,137398.0,10228.0,-126.0
2026-04-09 22:15:47.662023,298544,1877643763,1877645833,-0.962336,0.12688,-0.18544,-0.6825,-6.7725,5.60875,16.352001,-8.392,12.64,concentric,5,5.0,32491.0,403431.0,137398.0,10228.0,-126.0
2026-04-09 22:15:47.666382,298545,1877652716,1877654538,-0.962336,-0.013664,-0.226432,-3.35125,-10.01,6.01125,16.352001,-8.392,12.64,concentric,5,5.0,32491.0,403431.0,137398.0,10228.0,-126.0
2026-04-09 22:15:47.668009,298546,1877661641,1877663228,-0.845216,-0.003904,-0.226432,-5.74,-12.8275,6.0375,16.408,-7.896,12.312,concentric,5,5.0,32491.0,403431.0,137398.0,10228.0,-126.0
2026-04-09 22:15:47.698311,298547,1877676180,1877678134,-1.009184,0.306464,0.021472,-1.82875,-14.27125,9.31,15.056001,-7.688,14.208001,eccentric,5,5.0,32491.0,403431.0,137398.0,10228.0,-126.0
2026-04-09 22:15:47.729229,298558,1877685178,1877686857,-1.009184,0.306464,0.021472,3.28125,-14.69125,10.9375,15.056001,-7.688,14.208001,eccentric,5,5.0,32613.0,403431.0,137979.0,10527.0,-146.0
2026-04-09 22:15:47.733864,298559,1877694100,1877695572,-0.892064,0.07808,-0.017568,7.35875,-11.515,5.145,16.872002,-7.872,11.84,eccentric,5,5.0,32613.0,403431.0,137979.0,10527.0,-146.0
2026-04-09 22:15:47.735585,298560,1877703027,1877704272,-0.892064,0.07808,-0.017568,6.02875,-4.69,0.035,16.872002,-7.872,11.84,eccentric,5,5.0,32613.0,403431.0,137979.0,10527.0,-146.0
2026-04-09 22:15:47.738015,298561,1877717508,1877719281,-0.950624,0.12688,-0.062464,3.745,1.19875,0.97125,17.168001,-8.432,12.456,eccentric,5,5.0,32613.0,403431.0,137979.0,10527.0,-146.0
2026-04-09 22:15:47.739602,298562,1877726446,1877728046,-0.950624,0.12688,-0.062464,3.465,4.17375,5.6,17.168001,-8.432,12.456,eccentric,5,5.0,32613.0,403431.0,137979.0,10527.0,-146.0
2026-04-09 22:15:47.743774,298563,1877735423,1877736739,-0.919392,0.189344,-0.230336,5.6,4.55875,9.5025,16.968,-8.776,12.104001,eccentric,5,5.0,32613.0,403431.0,137979.0,10527.0,-146.0
2026-04-09 22:15:47.750000,298564,1877749898,1877751707,-0.919392,0.189344,-0.230336,6.15125,2.835,1.925,16.968,-8.776,12.104001,eccentric,5,5.0,32613.0,403431.0,137979.0,10527.0,-146.0
2026-04-09 22:15:47.778545,298565,1877758853,1877760413,-0.95648,0.091744,-0.109312,3.1325,0.91875,-0.8925,16.848001,-8.08,12.984,eccentric,5,5.0,32613.0,403431.0,137979.0,10527.0,-146.0
2026-04-09 22:15:47.782131,298566,1877767766,1877769095,-0.95648,0.091744,-0.109312,8.855001,-0.7875,3.08875,16.848001,-8.08,12.984,eccentric,5,5.0,32613.0,403431.0,137979.0,10527.0,-146.0
2026-04-09 22:15:47.808911,298576,1877782785,1877784452,-0.9272,0.203008,-0.023424,13.0375,-0.25375,6.195,17.04,-8.360001,13.080001,eccentric,5,5.0,32266.0,403431.0,137694.0,10443.0,-154.0
2026-04-09 22:15:47.810549,298577,1877791835,1877793211,-0.9272,0.203008,-0.023424,8.715,1.89875,4.935,17.04,-8.360001,13.080001,eccentric,5,5.0,32266.0,403431.0,137694.0,10443.0,-154.0
2026-04-09 22:15:47.812243,298578,1877800796,1877801955,-0.931104,0.183488,-0.076128,7.56,4.05125,3.12375,16.112001,-8.08,13.952001,eccentric,5,5.0,32266.0,403431.0,137694.0,10443.0,-154.0
2026-04-09 22:15:47.816202,298579,1877809704,1877810678,-0.931104,0.183488,-0.076128,8.785,4.94375,2.77375,16.112001,-8.08,13.952001,eccentric,5,5.0,32266.0,403431.0,137694.0,10443.0,-154.0
2026-04-09 22:15:47.850267,298580,1877824323,1877825606,-0.999424,0.1952,-0.23424,11.24375,2.8525,3.61375,16.216002,-8.216001,13.68,eccentric,5,5.0,32266.0,403431.0,137694.0,10443.0,-154.0
2026-04-09 22:15:47.851837,298581,1877833263,1877834346,-0.999424,0.1952,-0.07808,13.195,-0.28,3.17625,16.216002,-8.216001,13.68,eccentric,5,5.0,32266.0,403431.0,137694.0,10443.0,-154.0
2026-04-09 22:15:47.853528,298582,1877842167,1877843045,-0.960384,0.154208,-0.07808,14.02625,-2.00375,2.5375,17.880001,-7.464,12.880001,eccentric,5,5.0,32266.0,403431.0,137694.0,10443.0,-154.0
2026-04-09 22:15:47.857590,298583,1877856649,1877857943,-0.960384,0.2928,0.042944,13.51875,-0.69125,4.0775,17.216002,-8.176001,13.080001,eccentric,5,5.0,32266.0,403431.0,137694.0,10443.0,-154.0
2026-04-09 22:15:47.888948,298584,1877865566,1877866650,-0.960384,0.2928,0.042944,12.50375,3.19375,5.6525,17.216002,-8.176001,13.080001,eccentric,5,5.0,32266.0,403431.0,137694.0,10443.0,-154.0
2026-04-09 22:15:47.889269,298585,1877874465,1877875314,-1.009184,0.191296,-0.1464,9.80875,6.57125,5.075,16.792002,-8.368,12.848001,eccentric,5,5.0,32266.0,403431.0,137694.0,10443.0,-154.0
2026-04-09 22:15:47.926846,298595,1877884036,1877886091,-1.009184,0.191296,-0.1464,7.70875,7.58625,1.47875,16.792002,-8.368,12.848001,eccentric,5,5.0,31625.0,403431.0,136378.0,9817.0,-152.0
2026-04-09 22:15:47.928531,298596,1877898571,1877898961,-0.96624,0.20496,-0.203008,12.3025,6.37,2.35375,17.104,-7.76,12.712001,eccentric,5,5.0,31625.0,403431.0,136378.0,9817.0,-152.0
2026-04-09 22:15:47.932619,298597,1877907895,1877909739,-0.96624,0.20496,-0.203008,15.18125,4.62875,3.7275,17.104,-7.76,12.712001,eccentric,5,5.0,31625.0,403431.0,136378.0,9817.0,-152.0
2026-04-09 22:15:47.934343,298598,1877916819,1877918467,-0.964288,0.259616,0.0,13.545,2.065,6.55375,17.08,-8.328,13.096001,eccentric,5,5.0,31625.0,403431.0,136378.0,9817.0,-152.0
2026-04-09 22:15:47.936283,298599,1877931322,1877933409,-0.964288,0.259616,0.0,12.6,2.24875,8.4875,17.08,-8.328,13.096001,eccentric,5,5.0,31625.0,403431.0,136378.0,9817.0,-152.0
2026-04-09 22:15:47.940417,298600,1877940268,1877942119,-0.958432,0.300608,-0.07808,11.06875,3.395,9.905,16.368,-8.552,15.112,eccentric,5,5.0,31625.0,403431.0,136378.0,9817.0,-152.0
2026-04-09 22:15:47.970744,298601,1877949187,1877950823,-0.958432,0.300608,-0.07808,8.82875,4.83,9.345,16.368,-8.552,15.112,eccentric,5,5.0,31625.0,403431.0,136378.0,9817.0,-152.0
2026-04-09 22:15:47.975171,298602,1877963655,1877965750,-0.962336,0.220576,-0.16592,10.71,5.0225,8.6625,16.704,-8.240001,13.880001,eccentric,5,5.0,31625.0,403431.0,136378.0,9817.0,-152.0
2026-04-09 22:15:47.976874,298603,1877972575,1877974453,-0.962336,0.220576,-0.16592,10.0625,4.52375,11.33125,16.704,-8.240001,13.880001,eccentric,5,5.0,31625.0,403431.0,136378.0,9817.0,-152.0
2026-04-09 22:15:48.008125,298614,1877981879,1877983517,-0.935008,0.269376,-0.085888,6.06375,4.85625,14.665,17.880001,-8.136001,12.784,eccentric,5,5.0,31468.0,403431.0,136675.0,10076.0,-140.0
2026-04-09 22:15:48.010523,298615,1877990950,1877992338,-0.935008,0.269376,-0.085888,1.2775,4.50625,17.928751,17.880001,-8.136001,12.784,eccentric,5,5.0,31468.0,403431.0,136675.0,10076.0,-140.0
2026-04-09 22:15:48.012149,298616,1878005560,1878007323,-0.905728,0.329888,-0.001952,-0.14,5.32,19.67,15.488001,-8.456,14.808001,eccentric,5,5.0,31468.0,403431.0,136675.0,10076.0,-140.0
2026-04-09 22:15:48.016235,298617,1878014473,1878016033,-0.933056,0.261568,-0.191296,-0.245,6.02875,18.795,15.488001,-8.456,12.080001,eccentric,5,5.0,31468.0,403431.0,136675.0,10076.0,-140.0
2026-04-09 22:15:48.045031,298618,1878023470,1878024729,-0.933056,0.261568,-0.191296,-3.99,5.29375,20.06375,17.552,-8.512,12.080001,eccentric,5,5.0,31468.0,403431.0,136675.0,10076.0,-140.0
2026-04-09 22:15:48.049344,298619,1878037913,1878039656,-0.886208,0.257664,-0.16592,-5.3025,3.07125,23.0125,17.560001,-9.096001,12.992001,eccentric,5,5.0,31468.0,403431.0,136675.0,10076.0,-140.0
2026-04-09 22:15:48.050926,298620,1878046833,1878048377,-0.886208,0.257664,-0.16592,-4.38375,0.63,22.7325,17.560001,-9.096001,12.992001,eccentric,5,5.0,31468.0,403431.0,136675.0,10076.0,-140.0
2026-04-09 22:15:48.055016,298621,1878055766,1878057085,-0.874496,0.359168,-0.01952,-7.3325,-2.68625,24.33375,16.552,-9.024,13.552001,eccentric,5,5.0,31468.0,403431.0,136675.0,10076.0,-140.0
2026-04-09 22:15:48.083610,298622,1878070269,1878072013,-0.874496,0.359168,-0.01952,-7.72625,-5.45125,27.973751,16.552,-9.024,13.552001,eccentric,5,5.0,31468.0,403431.0,136675.0,10076.0,-140.0
2026-04-09 22:15:48.087140,298623,1878079159,1878080699,-0.921344,0.353312,-0.089792,-8.91625,-6.3175,26.1975,17.392,-8.768001,13.368001,eccentric,5,5.0,31468.0,403431.0,136675.0,10076.0,-140.0
2026-04-09 22:15:48.112086,298633,1878088174,1878089419,-0.921344,0.353312,-0.089792,-9.35375,-5.92375,23.79125,17.392,-8.768001,13.368001,eccentric,5,5.0,31330.0,403431.0,136486.0,10021.0,-142.0
2026-04-09 22:15:48.114576,298634,1878097192,1878098199,-0.862784,0.294752,-0.113216,-6.76375,-4.27,25.99625,17.288,-9.400001,14.360001,eccentric,5,5.0,31330.0,403431.0,136486.0,10021.0,-142.0
2026-04-09 22:15:48.117065,298635,1878111856,1878113147,-0.862784,0.294752,-0.113216,-11.585,-3.75375,28.13125,17.288,-9.400001,14.360001,eccentric,5,5.0,31330.0,403431.0,136486.0,10021.0,-142.0
2026-04-09 22:15:48.119595,298636,1878120837,1878121891,-0.952576,0.33184,-0.130784,-15.26875,-5.73125,30.54625,18.224,-9.632001,14.696001,eccentric,5,5.0,31330.0,403431.0,136486.0,10021.0,-142.0
2026-04-09 22:15:48.149893,298637,1878129773,1878130604,-0.952576,0.33184,-0.130784,-15.88125,-10.59625,34.69375,18.224,-9.632001,14.696001,eccentric,5,5.0,31330.0,403431.0,136486.0,10021.0,-142.0
2026-04-09 22:15:48.153393,298638,1878144323,1878145481,-0.91744,0.571936,-0.201056,-11.725,-14.6125,37.52,18.6,-10.032001,13.944,eccentric,5,5.0,31330.0,403431.0,136486.0,10021.0,-142.0
2026-04-09 22:15:48.155826,298639,1878153320,1878154169,-0.91744,0.571936,-0.201056,-7.6125,-13.9825,33.95875,18.6,-10.032001,13.944,eccentric,5,5.0,31330.0,403431.0,136486.0,10021.0,-142.0
2026-04-09 22:15:48.159575,298640,1878162248,1878162930,-0.940864,0.25376,0.00976,-15.9075,-12.11,31.15,18.664001,-9.784,12.536,eccentric,5,5.0,31330.0,403431.0,136486.0,10021.0,-142.0
2026-04-09 22:15:48.189794,298641,1878171761,1878173707,-0.940864,0.25376,0.00976,-22.3825,-10.167501,34.6675,18.664001,-9.784,12.536,eccentric,5,5.0,31330.0,403431.0,136486.0,10021.0,-142.0
2026-04-09 22:15:48.218341,298651,1878186435,1878188705,-0.880352,0.41968,-0.050752,-20.88625,-7.9975,39.78625,18.744001,-10.88,14.384001,eccentric,5,5.0,31631.0,403431.0,137848.0,10737.0,-131.0
2026-04-09 22:15:48.220851,298652,1878195363,1878197369,-1.026752,0.552416,-0.13664,-27.8775,-7.7,44.0825,18.744001,-10.88,14.704,eccentric,5,5.0,31631.0,403431.0,137848.0,10737.0,-131.0
2026-04-09 22:15:48.223378,298653,1878204537,1878206137,-1.026752,0.552416,-0.13664,-25.89125,-9.8875,41.65875,19.336,-11.016001,14.704,eccentric,5,5.0,31631.0,403431.0,137848.0,10737.0,-131.0
2026-04-09 22:15:48.225919,298654,1878219150,1878221108,-0.901824,0.357216,-0.115168,-16.178751,-12.0925,43.89875,19.376001,-11.672001,14.568001,eccentric,5,5.0,31631.0,403431.0,137848.0,10737.0,-131.0
2026-04-09 22:15:48.228344,298655,1878228075,1878229833,-0.901824,0.357216,-0.115168,-18.147501,-14.2625,33.3375,19.376001,-11.672001,14.568001,eccentric,5,5.0,31631.0,403431.0,137848.0,10737.0,-131.0
2026-04-09 22:15:48.237197,298656,1878237014,1878238573,-0.872544,0.482144,-0.015616,-19.50375,-16.47625,28.735,19.400002,-11.944,14.888001,eccentric,5,5.0,31631.0,403431.0,137848.0,10737.0,-131.0
2026-04-09 22:15:48.267315,298657,1878251508,1878253514,-0.872544,0.482144,-0.015616,-13.67625,-15.54875,36.155,19.400002,-11.944,14.888001,eccentric,5,5.0,31631.0,403431.0,137848.0,10737.0,-131.0
2026-04-09 22:15:48.270922,298658,1878260442,1878262203,-0.993568,0.519232,0.03904,-16.98375,-13.4575,35.39375,19.272001,-11.76,14.888001,eccentric,5,5.0,31631.0,403431.0,137848.0,10737.0,-131.0
2026-04-09 22:15:48.277820,298659,1878269365,1878270910,-0.993568,0.519232,0.03904,-19.74875,-11.62,35.58625,19.272001,-11.76,14.888001,eccentric,5,5.0,31631.0,403431.0,137848.0,10737.0,-131.0
2026-04-09 22:15:48.279674,298660,1878278322,1878279617,-0.948672,0.480192,-0.081984,-17.5175,-6.99125,33.06625,19.904001,-11.864,14.872001,eccentric,5,5.0,31631.0,403431.0,137848.0,10737.0,-131.0
2026-04-09 22:15:48.307157,298671,1878292955,1878294619,-0.948672,0.480192,-0.081984,-16.178751,-3.73625,26.11875,19.904001,-11.864,14.872001,eccentric,5,5.0,31666.0,403431.0,137941.0,10797.0,-147.0
2026-04-09 22:15:48.311390,298672,1878302008,1878303386,-0.933056,0.425536,-0.015616,-14.88375,-1.925,28.62125,18.304,-12.496,16.68,eccentric,5,5.0,31666.0,403431.0,137941.0,10797.0,-147.0
2026-04-09 22:15:48.313066,298673,1878311013,1878312183,-0.933056,0.425536,-0.015616,-19.59125,-1.715,27.772501,18.304,-12.496,16.68,eccentric,5,5.0,31666.0,403431.0,137941.0,10797.0,-147.0
2026-04-09 22:15:48.343260,298674,1878325585,1878327119,-0.979904,0.540704,-0.017568,-20.4925,-2.31,29.3125,18.488,-13.120001,16.648,eccentric,5,5.0,31666.0,403431.0,137941.0,10797.0,-147.0
2026-04-09 22:15:48.345544,298675,1878334523,1878335846,-0.979904,0.540704,-0.017568,-20.405,-2.23125,30.82625,18.488,-13.120001,16.648,eccentric,5,5.0,31666.0,403431.0,137941.0,10797.0,-147.0
2026-04-09 22:15:48.350116,298676,1878343452,1878344567,-1.09312,0.601216,-0.066368,-20.0375,-2.135,26.7225,20.336,-13.288001,16.36,eccentric,5,5.0,31666.0,403431.0,137941.0,10797.0,-147.0
2026-04-09 22:15:48.378586,298677,1878357950,1878359474,-1.065792,0.532896,-0.070272,-11.34,-3.115,24.10625,20.288,-13.256001,16.096,eccentric,5,5.0,31666.0,403431.0,137941.0,10797.0,-147.0
2026-04-09 22:15:48.383101,298678,1878366913,1878368203,-1.065792,0.532896,-0.070272,-7.13125,-4.75125,22.65375,20.288,-13.256001,16.096,eccentric,5,5.0,31666.0,403431.0,137941.0,10797.0,-147.0
2026-04-09 22:15:48.384609,298679,1878375833,1878376920,-1.065792,0.501664,-0.035136,-11.24375,-6.8775,19.6875,20.288,-13.256001,16.096,eccentric,5,5.0,31666.0,403431.0,137941.0,10797.0,-147.0
2026-04-09 22:15:48.413912,298689,1878385303,1878385949,-1.052128,0.501664,-0.035136,-6.29125,-8.575,22.1725,20.6,-13.944,15.688001,eccentric,5,5.0,31766.0,403431.0,140387.0,12288.0,-141.0
2026-04-09 22:15:48.415629,298690,1878400164,1878400908,-1.032608,0.52704,-0.054656,-3.94625,-8.9425,24.64,20.2,-13.448001,16.880001,eccentric,5,5.0,31766.0,403431.0,140387.0,12288.0,-141.0
2026-04-09 22:15:48.417178,298691,1878409547,1878411721,-1.032608,0.52704,-0.054656,-13.0025,-8.88125,23.975,20.2,-13.448001,16.880001,eccentric,5,5.0,31766.0,403431.0,140387.0,12288.0,-141.0
2026-04-09 22:15:48.421256,298692,1878418542,1878420430,-1.075552,0.669536,-0.011712,-13.62375,-7.4025,25.29625,20.624,-12.960001,17.192001,eccentric,5,5.0,31766.0,403431.0,140387.0,12288.0,-141.0
2026-04-09 22:15:48.453261,298693,1878427508,1878429139,-1.075552,0.669536,-0.011712,-8.79375,-5.81875,19.678751,20.624,-12.960001,17.192001,eccentric,5,5.0,31766.0,403431.0,140387.0,12288.0,-141.0
2026-04-09 22:15:48.455612,298694,1878442052,1878444057,-1.0736,0.513376,-0.005856,-7.83125,-6.0375,13.93,21.656,-13.672001,16.992,eccentric,5,5.0,31766.0,403431.0,140387.0,12288.0,-141.0
2026-04-09 22:15:48.460247,298695,1878451010,1878452762,-1.0736,0.513376,-0.005856,-7.5775,-6.1075,10.7275,21.656,-13.672001,16.992,eccentric,5,5.0,31766.0,403431.0,140387.0,12288.0,-141.0
2026-04-09 22:15:48.462686,298696,1878459944,1878461438,-1.052128,0.47824,-0.037088,-8.89,-5.46,10.80625,21.704,-13.784,16.856,eccentric,5,5.0,31766.0,403431.0,140387.0,12288.0,-141.0
2026-04-09 22:15:48.492090,298697,1878474450,1878476341,-1.052128,0.47824,-0.037088,-11.4275,-5.495,13.615,21.704,-13.784,16.856,eccentric,5,5.0,31766.0,403431.0,140387.0,12288.0,-141.0
2026-04-09 22:15:48.558925,298707,1878483946,1878485056,-0.999424,0.499712,-0.056608,-17.6225,-5.48625,14.0525,22.152,-14.208001,17.712,eccentric,5,5.0,31991.0,403431.0,140899.0,12533.0,-136.0
2026-04-09 22:15:48.560655,298708,1878493021,1878493703,-0.999424,0.499712,-0.056608,-18.82125,-5.7575,13.50125,22.152,-14.208001,17.712,eccentric,5,5.0,31991.0,403431.0,140899.0,12533.0,-136.0
2026-04-09 22:15:48.562589,298709,1878502297,1878504448,-1.05408,0.577792,-0.001952,-15.4875,-7.9625,10.84125,22.320002,-14.088,17.312,eccentric,5,5.0,31991.0,403431.0,140899.0,12533.0,-136.0
2026-04-09 22:15:48.565412,298710,1878516932,1878517289,-1.003328,0.472384,-0.040992,-11.515,-10.6225,8.09375,22.584002,-14.160001,19.136002,eccentric,5,5.0,31991.0,403431.0,140899.0,12533.0,-136.0
2026-04-09 22:15:48.571435,298711,1878526165,1878528057,-1.003328,0.472384,-0.040992,-5.0925,-12.69625,4.5675,22.584002,-14.160001,19.136002,eccentric,5,5.0,31991.0,403431.0,140899.0,12533.0,-136.0
2026-04-09 22:15:48.573150,298712,1878535088,1878536731,-1.003328,0.472384,-0.040992,-7.2275,-14.86625,-0.25375,22.584002,-14.160001,19.136002,eccentric,5,5.0,31991.0,403431.0,140899.0,12533.0,-136.0
2026-04-09 22:15:48.574713,298713,1878549753,1878551713,-1.032608,0.462624,-0.027328,-6.4925,-16.00375,1.18125,22.76,-14.592001,16.432001,eccentric,5,5.0,31991.0,403431.0,140899.0,12533.0,-136.0
2026-04-09 22:15:48.578892,298714,1878558705,1878560491,-1.048224,0.505568,0.023424,-2.59875,-15.26875,1.93375,22.664001,-13.944,18.04,eccentric,5,5.0,31991.0,403431.0,140899.0,12533.0,-136.0
2026-04-09 22:15:48.580615,298715,1878567642,1878569208,-1.048224,0.505568,0.023424,-3.71875,-15.3125,0.41125,22.664001,-13.944,18.04,eccentric,5,5.0,31991.0,403431.0,140899.0,12533.0,-136.0
2026-04-09 22:15:48.582214,298716,1878576724,1878577942,-1.079456,0.57584,0.023424,-4.05125,-15.155,-1.2775,22.664001,-13.944,19.152,eccentric,5,5.0,31991.0,403431.0,140899.0,12533.0,-136.0
2026-04-09 22:15:48.613885,298727,1878591235,1878593037,-1.09312,0.57584,0.023424,-1.82875,-14.65625,-3.2725,23.12,-14.152,19.152,eccentric,5,5.0,32087.0,403431.0,141793.0,13074.0,-136.0
2026-04-09 22:15:48.615616,298728,1878600175,1878601801,-1.069696,0.404064,0.042944,-1.7675,-14.46375,-6.615,23.320002,-14.248001,19.136002,eccentric,5,5.0,32087.0,403431.0,141793.0,13074.0,-136.0
2026-04-09 22:15:48.617975,298729,1878609189,1878610542,-1.069696,0.404064,0.042944,-7.5425,-13.4225,-10.15875,23.320002,-14.248001,19.136002,eccentric,5,5.0,32087.0,403431.0,141793.0,13074.0,-136.0
2026-04-09 22:15:48.625077,298730,1878623700,1878625492,-1.097024,0.493856,0.021472,-3.3075,-12.15375,-9.625,23.992,-14.216001,18.936,eccentric,5,5.0,32087.0,403431.0,141793.0,13074.0,-136.0
2026-04-09 22:15:48.653513,298731,1878632695,1878634206,-1.097024,0.493856,0.021472,3.3775,-9.17875,-12.55625,23.992,-14.216001,18.936,eccentric,5,5.0,32087.0,403431.0,141793.0,13074.0,-136.0
2026-04-09 22:15:48.658130,298732,1878641634,1878642938,-1.091168,0.515328,0.003904,1.75875,-5.97625,-17.22,24.176,-14.272,19.408,eccentric,5,5.0,32087.0,403431.0,141793.0,13074.0,-136.0
2026-04-09 22:15:48.659607,298733,1878656103,1878657834,-1.091168,0.515328,0.003904,-3.15,-3.07125,-21.74375,24.176,-14.272,19.408,eccentric,5,5.0,32087.0,403431.0,141793.0,13074.0,-136.0
2026-04-09 22:15:48.666282,298734,1878665042,1878666535,-1.196576,0.482144,-0.00976,-6.74625,-2.33625,-25.13875,25.408,-13.752001,19.872002,eccentric,5,5.0,32087.0,403431.0,141793.0,13074.0,-136.0
2026-04-09 22:15:48.694888,298735,1878673957,1878675243,-1.196576,0.482144,-0.00976,-5.145,-2.30125,-24.185,25.408,-13.752001,19.872002,eccentric,5,5.0,32087.0,403431.0,141793.0,13074.0,-136.0
2026-04-09 22:15:48.699364,298736,1878682875,1878683978,-1.155584,0.324032,-0.02928,-11.03375,-3.10625,-23.8,24.736002,-13.72,19.944,eccentric,5,5.0,32087.0,403431.0,141793.0,13074.0,-136.0
2026-04-09 22:15:48.724384,298746,1878697390,1878698977,-1.138016,0.2928,-0.044896,-14.25375,-3.5875,-21.2625,24.736002,-13.72,21.072,eccentric,5,5.0,32934.0,403431.0,139958.0,11582.0,-135.0
2026-04-09 22:15:48.726819,298747,1878706319,1878707686,-1.138016,0.2928,-0.044896,-9.1175,-4.62875,-18.82125,25.648,-13.272,21.072,eccentric,5,5.0,32934.0,403431.0,139958.0,11582.0,-135.0
2026-04-09 22:15:48.728388,298748,1878715254,1878716384,-1.138016,0.2928,-0.044896,-0.455,-4.515,-16.38875,25.648,-13.272,21.072,eccentric,5,5.0,32934.0,403431.0,139958.0,11582.0,-135.0
2026-04-09 22:15:48.732543,298749,1878729836,1878731350,-1.147776,0.374784,0.052704,2.35375,-5.90625,-14.44625,24.888,-13.024,21.352001,eccentric,5,5.0,32934.0,403431.0,139958.0,11582.0,-135.0
2026-04-09 22:15:48.763276,298750,1878738812,1878740124,-1.114592,0.366976,0.01952,0.79625,-6.2825,-12.29375,25.072,-12.904,21.336,eccentric,5,5.0,32934.0,403431.0,139958.0,11582.0,-135.0
2026-04-09 22:15:48.765956,298751,1878747700,1878748835,-1.114592,0.366976,0.01952,-2.1175,-6.825,-11.76875,25.072,-12.904,21.336,eccentric,5,5.0,32934.0,403431.0,139958.0,11582.0,-135.0
2026-04-09 22:15:48.769059,298752,1878762217,1878763784,-1.0736,0.359168,0.044896,-0.86625,-6.71125,-10.78875,25.808,-13.432001,20.568,eccentric,5,5.0,32934.0,403431.0,139958.0,11582.0,-135.0
2026-04-09 22:15:48.770338,298753,1878771135,1878772569,-1.0736,0.359168,0.044896,2.66,-6.02875,-10.6925,25.808,-13.432001,20.568,eccentric,5,5.0,32934.0,403431.0,139958.0,11582.0,-135.0
2026-04-09 22:15:48.780071,298754,1878780100,1878781277,-1.059936,0.33184,0.076128,3.3425,-5.01375,-11.31375,25.648,-13.176001,21.864,eccentric,5,5.0,32934.0,403431.0,139958.0,11582.0,-135.0
2026-04-09 22:15:48.809332,298764,1878794684,1878796237,-1.059936,0.33184,0.076128,2.77375,-4.71625,-12.27625,25.648,-13.176001,21.864,eccentric,5,5.0,32958.0,403431.0,139742.0,11413.0,-153.0
2026-04-09 22:15:48.811815,298765,1878803618,1878804970,-1.08336,0.320128,0.03904,1.53125,-4.10375,-12.775,26.144001,-12.856001,21.264002,eccentric,5,5.0,32958.0,403431.0,139742.0,11413.0,-153.0
2026-04-09 22:15:48.813423,298766,1878812548,1878813735,-1.08336,0.320128,0.03904,1.12875,-4.03375,-12.67,26.144001,-12.856001,21.264002,eccentric,5,5.0,32958.0,403431.0,139742.0,11413.0,-153.0
2026-04-09 22:15:48.844998,298767,1878821517,1878822482,-1.067744,0.294752,0.01952,2.68625,-4.9,-12.80125,26.480001,-13.240001,21.288,eccentric,5,5.0,32958.0,403431.0,139742.0,11413.0,-153.0
2026-04-09 22:15:48.848846,298768,1878835982,1878837401,-1.067744,0.294752,0.01952,5.62625,-5.565,-12.565,26.480001,-13.240001,21.288,eccentric,5,5.0,32958.0,403431.0,139742.0,11413.0,-153.0
2026-04-09 22:15:48.851430,298769,1878844890,1878846121,-1.059936,0.314272,0.05856,7.67375,-5.2325,-10.85,27.136002,-12.616,21.400002,eccentric,5,5.0,32958.0,403431.0,139742.0,11413.0,-153.0
2026-04-09 22:15:48.853007,298770,1878853822,1878854859,-1.059936,0.314272,0.05856,8.95125,-5.18875,-9.73875,27.136002,-12.616,21.400002,eccentric,5,5.0,32958.0,403431.0,139742.0,11413.0,-153.0
2026-04-09 22:15:48.883311,298771,1878868263,1878869811,-1.061888,0.30256,0.093696,7.9625,-4.62,-9.1525,26.152,-12.728001,23.640001,eccentric,5,5.0,32958.0,403431.0,139742.0,11413.0,-153.0
2026-04-09 22:15:48.885612,298772,1878877156,1878878516,-1.061888,0.30256,0.093696,6.62375,-2.9575,-8.09375,26.152,-12.728001,23.640001,eccentric,5,5.0,32958.0,403431.0,139742.0,11413.0,-153.0
2026-04-09 22:15:48.914407,298783,1878886151,1878887267,-1.061888,0.308416,0.103456,6.11625,-0.62125,-7.32375,26.936,-12.480001,22.36,eccentric,5,5.0,33607.0,403431.0,139426.0,11044.0,-144.0
2026-04-09 22:15:48.915961,298784,1878900680,1878902259,-1.046272,0.286944,0.044896,3.71,0.63,-7.2275,26.800001,-12.68,22.112001,eccentric,5,5.0,33607.0,403431.0,139426.0,11044.0,-144.0
2026-04-09 22:15:48.920288,298785,1878909718,1878910980,-1.046272,0.286944,0.044896,0.76125,1.75875,-7.1575,26.800001,-12.68,22.112001,eccentric,5,5.0,33607.0,403431.0,139426.0,11044.0,-144.0
2026-04-09 22:15:48.923525,298786,1878918647,1878919715,-1.046272,0.28304,0.037088,-0.5775,3.325,-6.60625,26.672,-12.336,21.568,eccentric,5,5.0,33607.0,403431.0,139426.0,11044.0,-144.0
2026-04-09 22:15:48.952056,298787,1878933184,1878934648,-1.046272,0.28304,0.037088,0.735,3.26375,-5.6175,26.672,-12.336,21.568,eccentric,5,5.0,33607.0,403431.0,139426.0,11044.0,-144.0
2026-04-09 22:15:48.954277,298788,1878942105,1878943341,-1.046272,0.298656,0.050752,2.30125,2.14375,-5.38125,26.944002,-12.296001,21.504002,eccentric,5,5.0,33607.0,403431.0,139426.0,11044.0,-144.0
2026-04-09 22:15:48.958926,298789,1878951041,1878952063,-1.046272,0.298656,0.050752,2.66,1.68875,-5.04,26.944002,-12.296001,21.504002,eccentric,5,5.0,33607.0,403431.0,139426.0,11044.0,-144.0
2026-04-09 22:15:48.961328,298790,1878960037,1878960789,-1.038464,0.339648,0.066368,3.50875,1.9775,-5.06625,26.712002,-12.144001,22.496,eccentric,5,5.0,33607.0,403431.0,139426.0,11044.0,-144.0
2026-04-09 22:15:48.993292,298791,1878974954,1878975695,-1.038464,0.339648,0.066368,2.7125,2.345,-6.825,26.712002,-12.144001,22.496,eccentric,5,5.0,33607.0,403431.0,139426.0,11044.0,-144.0
2026-04-09 22:15:49.018536,298801,1878984277,1878986848,-1.0248,0.279136,0.046848,1.37375,3.22875,-8.49625,27.256,-12.080001,22.288,eccentric,5,5.0,33846.0,403431.0,138634.0,10449.0,-136.0
2026-04-09 22:15:49.022697,298802,1878993366,1878995554,-1.0248,0.279136,0.046848,0.51625,4.4975,-9.3975,27.256,-12.080001,22.288,eccentric,5,5.0,33846.0,403431.0,138634.0,10449.0,-136.0
2026-04-09 22:15:49.024429,298803,1879007908,1879008427,-1.022848,0.2928,0.0488,4.12125,4.69875,-9.1875,26.880001,-12.056001,22.12,eccentric,5,5.0,33846.0,403431.0,138634.0,10449.0,-136.0
2026-04-09 22:15:49.025960,298804,1879017326,1879019224,-1.022848,0.2928,0.0488,7.28875,4.69,-9.3625,26.880001,-12.056001,22.12,eccentric,5,5.0,33846.0,403431.0,138634.0,10449.0,-136.0
