pc_time,serial_num,sensor_ts,host_ts,ax,ay,az,gx,gy,gz,mx,my,mz,phase,rpe,weight_kg,ppg_a,ppg_b,ppg_c,ppg_d,ppg_e
2026-04-09 22:16:00.240308,300891,1890219960,1890221686,-1.05408,0.2928,0.066368,4.3925,8.39125,3.36,24.376001,-12.592001,23.920002,concentric,5,5.0,34557.0,403431.0,136938.0,9096.0,-137.0
2026-04-09 22:16:00.243752,300892,1890234426,1890236561,-1.061888,0.286944,0.07808,4.10375,8.88125,2.42375,25.952002,-12.888001,22.328001,concentric,5,5.0,34557.0,403431.0,136938.0,9096.0,-137.0
2026-04-09 22:16:00.246285,300893,1890243394,1890245250,-1.061888,0.286944,0.07808,4.01625,9.28375,0.79625,25.952002,-12.888001,22.328001,concentric,5,5.0,34557.0,403431.0,136938.0,9096.0,-137.0
2026-04-09 22:16:00.273757,300903,1890252629,1890254035,-1.052128,0.296704,0.06832,5.005,9.16125,-0.035,26.008001,-12.768001,22.504002,concentric,5,5.0,34562.0,403431.0,137899.0,9667.0,-143.0
2026-04-09 22:16:00.276256,300904,1890267286,1890268990,-1.048224,0.288896,0.072224,6.6325,9.80875,-0.69125,26.368002,-12.912001,22.256,concentric,5,5.0,34562.0,403431.0,137899.0,9667.0,-143.0
2026-04-09 22:16:00.278755,300905,1890276224,1890277699,-1.048224,0.288896,0.072224,7.8575,10.885,-2.415,26.368002,-12.912001,22.256,concentric,5,5.0,34562.0,403431.0,137899.0,9667.0,-143.0
2026-04-09 22:16:00.285093,300906,1890285138,1890286425,-1.048224,0.288896,0.0488,7.34125,11.38375,-3.745,26.368002,-12.912001,22.256,concentric,5,5.0,34562.0,403431.0,137899.0,9667.0,-143.0
2026-04-09 22:16:00.315234,300907,1890299627,1890301378,-1.05408,0.300608,0.0488,7.315,11.3925,-4.29625,26.144001,-12.792001,22.480001,concentric,5,5.0,34562.0,403431.0,137899.0,9667.0,-143.0
2026-04-09 22:16:00.318774,300908,1890308543,1890310120,-1.04432,0.300608,0.070272,8.16375,11.33125,-4.76875,25.720001,-12.512001,22.208,concentric,5,5.0,34562.0,403431.0,137899.0,9667.0,-143.0
2026-04-09 22:16:00.321224,300909,1890317449,1890318841,-1.04432,0.300608,0.070272,8.49625,11.29625,-5.57375,25.720001,-12.512001,22.208,concentric,5,5.0,34562.0,403431.0,137899.0,9667.0,-143.0
2026-04-09 22:16:00.326239,300910,1890326390,1890327539,-1.04432,0.300608,0.07808,6.7025,11.935,-6.3,26.024002,-12.376,23.304,concentric,5,5.0,34562.0,403431.0,137899.0,9667.0,-143.0
2026-04-09 22:16:00.356395,300911,1890340927,1890342481,-1.04432,0.300608,0.07808,5.52125,12.425,-6.58,26.024002,-12.376,23.304,concentric,5,5.0,34562.0,403431.0,137899.0,9667.0,-143.0
2026-04-09 22:16:00.384940,300922,1890349841,1890351283,-1.038464,0.275232,0.044896,3.87625,12.52125,-7.34125,25.480001,-12.72,21.672,concentric,5,5.0,35118.0,403431.0,138133.0,9644.0,-146.0
2026-04-09 22:16:00.387588,300923,1890358797,1890359991,-1.038464,0.275232,0.044896,5.32875,12.495,-6.09875,25.480001,-12.72,21.672,concentric,5,5.0,35118.0,403431.0,138133.0,9644.0,-146.0
2026-04-09 22:16:00.423904,300924,1890373306,1890375033,-1.030656,0.335744,0.074176,8.32125,12.0925,-5.5475,24.976002,-12.776001,21.560001,concentric,5,5.0,35118.0,403431.0,138133.0,9644.0,-146.0
2026-04-09 22:16:00.427499,300925,1890382275,1890383785,-1.030656,0.335744,0.074176,8.575,12.4425,-5.95875,24.976002,-12.776001,21.560001,concentric,5,5.0,35118.0,403431.0,138133.0,9644.0,-146.0
2026-04-09 22:16:00.429988,300926,1890391346,1890392512,-1.05408,0.335744,0.05856,6.4575,12.985,-7.13125,25.128,-12.656,21.352001,concentric,5,5.0,35118.0,403431.0,138133.0,9644.0,-146.0
2026-04-09 22:16:00.432533,300927,1890405869,1890407387,-1.05408,0.310368,0.05856,4.795,14.07,-9.31,25.128,-12.656,21.352001,concentric,5,5.0,35118.0,403431.0,138133.0,9644.0,-146.0
2026-04-09 22:16:00.434965,300928,1890414861,1890416099,-1.061888,0.310368,0.05856,4.795,14.48125,-10.64,25.936,-12.808001,20.12,concentric,5,5.0,35118.0,403431.0,138133.0,9644.0,-146.0
2026-04-09 22:16:00.437947,300929,1890423768,1890424858,-1.061888,0.310368,0.05856,6.755,14.4375,-9.948751,25.936,-12.808001,20.12,concentric,5,5.0,35118.0,403431.0,138133.0,9644.0,-146.0
2026-04-09 22:16:00.440657,300930,1890438288,1890439774,-1.057984,0.304512,0.027328,6.29125,13.4225,-9.17,25.800001,-12.624001,21.088001,concentric,5,5.0,35118.0,403431.0,138133.0,9644.0,-146.0
2026-04-09 22:16:00.470163,300931,1890447294,1890448534,-1.075552,0.366976,0.03904,6.195,12.55625,-8.645,25.384,-13.048,20.856,concentric,5,5.0,35118.0,403431.0,138133.0,9644.0,-146.0
2026-04-09 22:16:00.496198,300941,1890456476,1890457403,-1.075552,0.366976,0.03904,8.715,11.795,-9.38,25.384,-13.048,20.856,concentric,5,5.0,35533.0,403431.0,138183.0,9561.0,-135.0
2026-04-09 22:16:00.498739,300942,1890465437,1890466145,-1.075552,0.366976,0.03904,10.24625,11.03375,-10.96375,25.384,-13.048,20.856,concentric,5,5.0,35533.0,403431.0,138183.0,9561.0,-135.0
2026-04-09 22:16:00.501267,300943,1890480337,1890481203,-1.071648,0.368928,0.066368,10.4125,11.41875,-13.86,25.344002,-12.360001,21.12,concentric,5,5.0,35533.0,403431.0,138183.0,9561.0,-135.0
2026-04-09 22:16:00.503755,300944,1890489841,1890492007,-1.069696,0.378688,0.0976,9.80875,12.6175,-15.25125,23.592001,-11.976001,22.648,concentric,5,5.0,35533.0,403431.0,138183.0,9561.0,-135.0
2026-04-09 22:16:00.506235,300945,1890498784,1890500717,-1.069696,0.378688,0.0976,8.33,14.14875,-16.35375,23.592001,-11.976001,22.648,concentric,5,5.0,35533.0,403431.0,138183.0,9561.0,-135.0
2026-04-09 22:16:00.508772,300946,1890507809,1890509450,-1.0736,0.366976,0.062464,4.71625,15.61875,-18.75125,23.792002,-11.64,18.568,concentric,5,5.0,35533.0,403431.0,138183.0,9561.0,-135.0
2026-04-09 22:16:00.539027,300947,1890522335,1890524396,-1.0736,0.366976,0.062464,3.42125,16.75625,-19.565,23.792002,-11.64,18.568,concentric,5,5.0,35533.0,403431.0,138183.0,9561.0,-135.0
2026-04-09 22:16:00.542578,300948,1890531257,1890533122,-1.095072,0.374784,-0.013664,2.7125,17.01875,-20.37,24.848001,-12.064,19.496,concentric,5,5.0,35533.0,403431.0,138183.0,9561.0,-135.0
2026-04-09 22:16:00.545010,300949,1890540298,1890541811,-1.095072,0.374784,-0.013664,3.98125,15.96875,-20.78125,24.848001,-12.064,19.496,concentric,5,5.0,35533.0,403431.0,138183.0,9561.0,-135.0
2026-04-09 22:16:00.575027,300959,1890555573,1890556765,-1.114592,0.384544,-0.001952,6.335,14.95375,-21.735,24.712002,-12.272,19.784,concentric,5,5.0,35484.0,403431.0,139258.0,10240.0,-133.0
2026-04-09 22:16:00.577509,300960,1890564642,1890565529,-1.114592,0.384544,-0.001952,7.735,13.46625,-22.8375,24.712002,-12.272,19.784,concentric,5,5.0,35484.0,403431.0,139258.0,10240.0,-133.0
2026-04-09 22:16:00.582466,300961,1890573606,1890574273,-1.087264,0.382592,0.074176,8.84625,11.7775,-23.9925,25.080002,-11.656,17.232,concentric,5,5.0,35484.0,403431.0,139258.0,10240.0,-133.0
2026-04-09 22:16:00.585015,300962,1890583054,1890585063,-1.087264,0.382592,0.074176,8.6625,12.18875,-24.71875,25.080002,-11.656,17.232,concentric,5,5.0,35484.0,403431.0,139258.0,10240.0,-133.0
2026-04-09 22:16:00.619053,300963,1890597558,1890597921,-1.106784,0.388448,0.035136,7.07875,13.43125,-24.57,24.272001,-11.736001,20.296001,concentric,5,5.0,35484.0,403431.0,139258.0,10240.0,-133.0
2026-04-09 22:16:00.622597,300964,1890606770,1890608720,-1.106784,0.40016,0.005856,3.5525,14.04375,-25.17375,24.272001,-11.736001,20.296001,concentric,5,5.0,35484.0,403431.0,139258.0,10240.0,-133.0
2026-04-09 22:16:00.625069,300965,1890615746,1890617407,-1.118496,0.40016,0.005856,2.37125,13.85125,-25.22625,23.888,-11.448001,17.744001,concentric,5,5.0,35484.0,403431.0,139258.0,10240.0,-133.0
2026-04-09 22:16:00.627537,300966,1890624654,1890626142,-1.118496,0.40016,0.005856,1.785,14.5075,-25.82125,23.888,-11.448001,17.744001,concentric,5,5.0,35484.0,403431.0,139258.0,10240.0,-133.0
2026-04-09 22:16:00.657693,300967,1890639148,1890641052,-1.108736,0.398208,0.007808,3.03625,15.61875,-26.50375,23.576,-10.56,19.192001,concentric,5,5.0,35484.0,403431.0,139258.0,10240.0,-133.0
2026-04-09 22:16:00.661299,300968,1890648115,1890649751,-1.095072,0.394304,0.037088,5.5475,15.23375,-27.5625,23.976002,-10.960001,19.088001,concentric,5,5.0,35484.0,403431.0,139258.0,10240.0,-133.0
2026-04-09 22:16:00.723776,300979,1890657178,1890658550,-1.095072,0.394304,0.037088,5.57375,16.03875,-28.20125,23.976002,-10.960001,19.088001,concentric,5,5.0,34858.0,403431.0,139996.0,10864.0,-133.0
2026-04-09 22:16:00.726363,300980,1890671844,1890673480,-1.089216,0.394304,0.031232,4.3225,16.02125,-28.49875,23.856,-10.936001,18.176,concentric,5,5.0,34858.0,403431.0,139996.0,10864.0,-133.0
2026-04-09 22:16:00.728801,300981,1890680877,1890682230,-1.089216,0.394304,0.031232,2.205,16.51125,-28.6125,23.856,-10.936001,18.176,concentric,5,5.0,34858.0,403431.0,139996.0,10864.0,-133.0
2026-04-09 22:16:00.731291,300982,1890689831,1890690993,-1.075552,0.386496,-0.007808,0.86625,16.23125,-28.46375,23.712002,-10.872001,17.656,concentric,5,5.0,34858.0,403431.0,139996.0,10864.0,-133.0
2026-04-09 22:16:00.733761,300983,1890704405,1890705890,-1.075552,0.386496,-0.007808,0.93625,16.12625,-28.4725,23.712002,-10.872001,17.656,concentric,5,5.0,34858.0,403431.0,139996.0,10864.0,-133.0
2026-04-09 22:16:00.736322,300984,1890713414,1890714610,-1.110688,0.3904,-0.001952,1.53125,15.12,-28.13125,23.400002,-11.088,17.536001,concentric,5,5.0,34858.0,403431.0,139996.0,10864.0,-133.0
2026-04-09 22:16:00.738797,300985,1890722330,1890723299,-1.110688,0.3904,-0.001952,3.31625,13.23875,-26.27625,23.400002,-11.088,17.536001,concentric,5,5.0,34858.0,403431.0,139996.0,10864.0,-133.0
2026-04-09 22:16:00.745044,300986,1890731259,1890732009,-1.08336,0.347456,-0.081984,2.1,9.765,-24.745,23.616001,-10.808001,17.632,concentric,5,5.0,34858.0,403431.0,139996.0,10864.0,-133.0
2026-04-09 22:16:00.747505,300987,1890746194,1890747003,-1.08336,0.347456,-0.081984,1.56625,5.6175,-22.155,23.616001,-10.808001,17.632,concentric,5,5.0,34858.0,403431.0,139996.0,10864.0,-133.0
2026-04-09 22:16:00.776216,300997,1890756238,1890757966,-1.091168,0.421632,-0.035136,5.25875,2.73,-19.915,22.464,-10.488001,19.6,concentric,5,5.0,35370.0,403431.0,141534.0,11717.0,-130.0
2026-04-09 22:16:00.778707,300998,1890765274,1890766700,-1.091168,0.421632,-0.035136,9.9225,1.28625,-20.37,22.464,-10.488001,19.6,concentric,5,5.0,35370.0,403431.0,141534.0,11717.0,-130.0
2026-04-09 22:16:00.781278,300999,1890774309,1890775499,-1.057984,0.4392,0.072224,11.57625,1.39125,-21.14875,22.616001,-10.848001,17.664001,concentric,5,5.0,35370.0,403431.0,141534.0,11717.0,-130.0
2026-04-09 22:16:00.811564,301000,1890788904,1890790416,-1.075552,0.441152,0.06832,9.89625,4.06,-22.3825,22.936,-10.352,16.720001,concentric,5,5.0,35370.0,403431.0,141534.0,11717.0,-130.0
2026-04-09 22:16:00.815046,301001,1890797806,1890799104,-1.075552,0.441152,0.06832,6.3175,7.90125,-23.58125,22.936,-10.352,16.720001,concentric,5,5.0,35370.0,403431.0,141534.0,11717.0,-130.0
2026-04-09 22:16:00.817582,301002,1890806713,1890807799,-1.075552,0.441152,0.06832,1.26,11.47125,-25.795,22.936,-10.352,16.720001,concentric,5,5.0,35370.0,403431.0,141534.0,11717.0,-130.0
2026-04-09 22:16:00.820118,301003,1890821267,1890822761,-1.079456,0.41968,0.011712,-1.3475,14.91,-27.43125,22.096,-10.368,16.952002,concentric,5,5.0,35370.0,403431.0,141534.0,11717.0,-130.0
2026-04-09 22:16:00.854012,301004,1890830182,1890831469,-1.097024,0.406016,-0.050752,-0.65625,15.47875,-27.88625,21.184002,-9.968,17.584002,concentric,5,5.0,35370.0,403431.0,141534.0,11717.0,-130.0
2026-04-09 22:16:00.857580,301005,1890839098,1890840211,-1.097024,0.406016,-0.050752,0.16625,14.18375,-27.58875,21.184002,-9.968,17.584002,concentric,5,5.0,35370.0,403431.0,141534.0,11717.0,-130.0
2026-04-09 22:16:00.882603,301015,1890854107,1890855087,-1.075552,0.388448,-0.033184,-1.09375,13.5275,-28.7,22.352001,-10.192,16.568,concentric,5,5.0,36250.0,403431.0,141733.0,11561.0,-137.0
2026-04-09 22:16:00.885048,301016,1890863070,1890863843,-1.075552,0.388448,-0.033184,-0.2275,12.10125,-27.51875,22.352001,-10.192,16.568,concentric,5,5.0,36250.0,403431.0,141733.0,11561.0,-137.0
2026-04-09 22:16:00.887523,301017,1890872473,1890874692,-1.050176,0.417728,0.00976,1.11125,12.55625,-26.53875,20.496,-10.336,17.328001,concentric,5,5.0,36250.0,403431.0,141733.0,11561.0,-137.0
2026-04-09 22:16:00.890017,301018,1890881503,1890883507,-1.050176,0.417728,0.00976,0.3675,13.85125,-27.098751,20.496,-10.336,17.328001,concentric,5,5.0,36250.0,403431.0,141733.0,11561.0,-137.0
2026-04-09 22:16:00.895023,301019,1890896135,1890896456,-1.06384,0.421632,0.021472,-0.41125,16.28375,-28.18375,20.576,-10.080001,17.128,concentric,5,5.0,36250.0,403431.0,141733.0,11561.0,-137.0
2026-04-09 22:16:00.925783,301020,1890905349,1890907267,-1.06384,0.421632,0.021472,-0.20125,17.2025,-28.8925,20.576,-10.080001,17.128,concentric,5,5.0,36250.0,403431.0,141733.0,11561.0,-137.0
2026-04-09 22:16:00.929322,301021,1890914295,1890915953,-1.052128,0.396256,-0.060512,1.4525,17.07125,-29.00625,20.960001,-9.752001,16.896,concentric,5,5.0,36250.0,403431.0,141733.0,11561.0,-137.0
2026-04-09 22:16:00.931249,301022,1890923246,1890924642,-1.052128,0.396256,-0.060512,0.4375,17.3775,-30.47625,20.960001,-9.752001,16.896,concentric,5,5.0,36250.0,403431.0,141733.0,11561.0,-137.0
2026-04-09 22:16:00.961529,301023,1890937725,1890939544,-1.079456,0.345504,-0.052704,-0.14,15.96875,-29.925,20.936,-9.84,15.776001,concentric,5,5.0,36250.0,403431.0,141733.0,11561.0,-137.0
2026-04-09 22:16:00.965106,301024,1890946728,1890948306,-1.079456,0.345504,-0.052704,2.51125,13.02875,-27.86875,20.936,-9.84,15.776001,concentric,5,5.0,36250.0,403431.0,141733.0,11561.0,-137.0
2026-04-09 22:16:01.028892,301035,1890955700,1890957054,-1.038464,0.355264,-0.013664,4.55875,11.8825,-28.428751,21.248001,-9.64,15.824,concentric,5,5.0,35827.0,403431.0,141509.0,11558.0,-146.0
2026-04-09 22:16:01.031236,301036,1890970228,1890972045,-1.059936,0.40016,-0.003904,6.1425,11.83875,-28.81375,21.072,-9.768001,15.272,concentric,5,5.0,35827.0,403431.0,141509.0,11558.0,-146.0
2026-04-09 22:16:01.033801,301037,1890979195,1890980793,-1.059936,0.40016,-0.003904,5.74,11.87375,-28.79625,21.072,-9.768001,15.272,concentric,5,5.0,35827.0,403431.0,141509.0,11558.0,-146.0
2026-04-09 22:16:01.036331,301038,1890988167,1890989556,-1.059936,0.353312,-0.119072,3.05375,10.6925,-30.03875,21.072,-9.768001,15.272,concentric,5,5.0,35827.0,403431.0,141509.0,11558.0,-146.0
2026-04-09 22:16:01.039794,301039,1891002657,1891004481,-1.114592,0.35136,-0.119072,1.89875,7.84875,-31.1325,20.528002,-8.952001,15.256001,concentric,5,5.0,35827.0,403431.0,141509.0,11558.0,-146.0
2026-04-09 22:16:01.041273,301040,1891011633,1891013170,-1.069696,0.314272,0.040992,7.53375,4.89125,-31.77125,20.256,-9.536,14.856001,concentric,5,5.0,35827.0,403431.0,141509.0,11558.0,-146.0
2026-04-09 22:16:01.043835,301041,1891020585,1891021841,-1.069696,0.314272,0.040992,10.15,2.8875,-33.22375,20.256,-9.536,14.856001,concentric,5,5.0,35827.0,403431.0,141509.0,11558.0,-146.0
2026-04-09 22:16:01.046322,301042,1891029512,1891030567,-1.018944,0.286944,0.062464,8.9425,3.38625,-31.3775,19.864,-9.408,14.256001,concentric,5,5.0,35827.0,403431.0,141509.0,11558.0,-146.0
2026-04-09 22:16:01.048804,301043,1891044037,1891045494,-1.018944,0.286944,0.062464,2.33625,5.145,-32.095,19.864,-9.408,14.256001,concentric,5,5.0,35827.0,403431.0,141509.0,11558.0,-146.0
2026-04-09 22:16:01.052557,301044,1891052970,1891054202,-1.052128,0.339648,-0.042944,-3.64,6.85125,-31.85,19.176,-9.536,17.128,concentric,5,5.0,35827.0,403431.0,141509.0,11558.0,-146.0
2026-04-09 22:16:01.078226,301054,1891062093,1891062995,-1.052128,0.339648,-0.042944,-2.975,7.30625,-32.40125,19.176,-9.536,17.128,concentric,5,5.0,36391.0,403431.0,141011.0,11026.0,-134.0
2026-04-09 22:16:01.080056,301055,1891076637,1891077916,-0.974048,0.28304,-0.101504,0.77,5.8275,-35.3675,19.936,-8.440001,14.976001,concentric,5,5.0,36391.0,403431.0,141011.0,11026.0,-134.0
2026-04-09 22:16:01.083839,301056,1891085555,1891086659,-0.974048,0.28304,-0.101504,3.35125,3.05375,-39.27875,19.936,-8.440001,14.976001,concentric,5,5.0,36391.0,403431.0,141011.0,11026.0,-134.0
2026-04-09 22:16:01.114081,301057,1891094482,1891095362,-1.001376,0.244,-0.005856,5.45125,-0.07,-38.4125,19.704,-8.312,14.952001,concentric,5,5.0,36391.0,403431.0,141011.0,11026.0,-134.0
2026-04-09 22:16:01.117624,301058,1891108963,1891110260,-0.977952,0.30256,0.025376,10.5525,-3.0625,-34.85125,19.704,-8.312,13.536,concentric,5,5.0,36391.0,403431.0,141011.0,11026.0,-134.0
2026-04-09 22:16:01.120034,301059,1891117844,1891118966,-0.977952,0.30256,0.025376,11.935,-4.0075,-34.755,19.952002,-8.56,13.536,concentric,5,5.0,36391.0,403431.0,141011.0,11026.0,-134.0
2026-04-09 22:16:01.125142,301060,1891126759,1891127631,-0.977952,0.30256,0.025376,10.50875,-3.0975,-35.9275,19.952002,-8.56,13.536,concentric,5,5.0,36391.0,403431.0,141011.0,11026.0,-134.0
2026-04-09 22:16:01.155270,301061,1891141331,1891142550,-0.987712,0.32208,0.031232,8.33875,-0.6825,-37.695,20.160002,-8.456,15.264001,concentric,5,5.0,36391.0,403431.0,141011.0,11026.0,-134.0
2026-04-09 22:16:01.158848,301062,1891150207,1891151277,-0.977952,0.228384,-0.066368,2.9925,-0.0875,-41.51,19.456001,-8.568001,14.352,concentric,5,5.0,36391.0,403431.0,141011.0,11026.0,-134.0
2026-04-09 22:16:01.183763,301072,1891159304,1891160166,-0.977952,0.228384,-0.066368,-1.2425,-0.09625,-42.60375,19.456001,-8.568001,14.352,concentric,5,5.0,37404.0,403431.0,139600.0,9780.0,-139.0
2026-04-09 22:16:01.186331,301073,1891168372,1891168892,-0.977952,0.228384,-0.066368,-0.7875,-0.88375,-42.06125,19.456001,-8.568001,14.352,concentric,5,5.0,37404.0,403431.0,139600.0,9780.0,-139.0
2026-04-09 22:16:01.188767,301074,1891183448,1891183884,-1.038464,0.271328,-0.046848,4.54125,-1.7325,-40.53875,18.592001,-8.04,14.848001,concentric,5,5.0,37404.0,403431.0,139600.0,9780.0,-139.0
2026-04-09 22:16:01.193791,301075,1891192774,1891194664,-0.944768,0.232288,0.056608,11.165,-2.0825,-41.06375,19.0,-7.768001,15.736001,concentric,5,5.0,37404.0,403431.0,139600.0,9780.0,-139.0
2026-04-09 22:16:01.224029,301076,1891201752,1891203359,-0.944768,0.232288,0.056608,9.00375,-1.61875,-45.0975,19.0,-7.768001,15.736001,concentric,5,5.0,37404.0,403431.0,139600.0,9780.0,-139.0
2026-04-09 22:16:01.228106,301077,1891210765,1891212061,-0.979904,0.236192,0.0488,2.47625,0.175,-45.2725,19.328001,-7.712,13.76,concentric,5,5.0,37404.0,403431.0,139600.0,9780.0,-139.0
2026-04-09 22:16:01.230174,301078,1891225282,1891227008,-0.979904,0.236192,0.0488,-1.33875,3.10625,-44.35375,19.328001,-7.712,13.76,concentric,5,5.0,37404.0,403431.0,139600.0,9780.0,-139.0
2026-04-09 22:16:01.235855,301079,1891234212,1891235725,-1.0248,0.247904,-0.115168,-5.76625,3.9375,-44.17875,19.584002,-7.128,14.712001,concentric,5,5.0,37404.0,403431.0,139600.0,9780.0,-139.0
2026-04-09 22:16:01.266595,301080,1891243183,1891244455,-1.0248,0.247904,-0.115168,-4.8125,3.0275,-44.1525,19.584002,-7.128,14.712001,concentric,5,5.0,37404.0,403431.0,139600.0,9780.0,-139.0
2026-04-09 22:16:01.350038,301091,1891258233,1891259540,-1.036512,0.134688,-0.105408,-4.41,1.435,-46.83875,18.376001,-7.12,15.368001,concentric,5,5.0,37300.0,403431.0,139444.0,9804.0,-132.0
2026-04-09 22:16:01.352532,301092,1891267215,1891268332,-1.036512,0.134688,-0.105408,0.00875,0.49,-44.35375,18.376001,-7.12,15.368001,concentric,5,5.0,37300.0,403431.0,139444.0,9804.0,-132.0
2026-04-09 22:16:01.355419,301093,1891276129,1891277080,-1.026752,0.23424,0.121024,5.8975,-0.1925,-42.83125,19.240002,-6.536,14.952001,concentric,5,5.0,37300.0,403431.0,139444.0,9804.0,-132.0
2026-04-09 22:16:01.356420,301094,1891285109,1891285809,-1.026752,0.23424,0.121024,4.97875,1.07625,-42.62125,19.240002,-6.536,14.952001,concentric,5,5.0,37300.0,403431.0,139444.0,9804.0,-132.0
2026-04-09 22:16:01.360082,301095,1891300038,1891300751,-1.003328,0.119072,0.003904,-7.65625,2.5375,-43.96,18.04,-7.048,15.664001,concentric,5,5.0,37300.0,403431.0,139444.0,9804.0,-132.0
2026-04-09 22:16:01.362570,301096,1891309359,1891311585,-1.003328,0.119072,-0.206912,-18.48,2.91375,-43.32125,18.04,-7.048,15.664001,concentric,5,5.0,37300.0,403431.0,139444.0,9804.0,-132.0
2026-04-09 22:16:01.365076,301097,1891318349,1891320305,-1.0736,0.13664,-0.206912,-15.2775,0.595,-41.16,19.016,-6.768,14.896001,concentric,5,5.0,37300.0,403431.0,139444.0,9804.0,-132.0
2026-04-09 22:16:01.367599,301098,1891332862,1891333173,-1.001376,0.140544,0.013664,-4.55,-1.61,-40.71375,19.072,-6.552001,14.552001,concentric,5,5.0,37300.0,403431.0,139444.0,9804.0,-132.0
2026-04-09 22:16:01.370055,301099,1891342027,1891343942,-1.001376,0.140544,0.013664,5.6,-2.2225,-40.8975,19.072,-6.552001,14.552001,concentric,5,5.0,37300.0,403431.0,139444.0,9804.0,-132.0
2026-04-09 22:16:01.372574,301100,1891350976,1891352648,-1.042368,0.140544,0.10736,6.0025,-1.68875,-40.4425,18.536001,-5.912,14.56,concentric,5,5.0,37300.0,403431.0,139444.0,9804.0,-132.0
2026-04-09 22:16:01.400024,301110,1891360332,1891361390,-1.042368,0.140544,0.10736,-0.1225,0.34125,-37.8525,18.536001,-5.912,14.56,concentric,5,5.0,37497.0,403431.0,138772.0,9328.0,-135.0
2026-04-09 22:16:01.403134,301111,1891375042,1891376347,-1.038464,0.134688,-0.140544,-3.71875,0.8925,-33.1625,17.648,-6.104,16.584002,concentric,5,5.0,37497.0,403431.0,138772.0,9328.0,-135.0
2026-04-09 22:16:01.406020,301112,1891384007,1891385096,-1.038464,0.134688,-0.140544,-9.31,-0.00875,-35.07,17.648,-6.104,16.584002,concentric,5,5.0,37497.0,403431.0,138772.0,9328.0,-135.0
2026-04-09 22:16:01.407825,301113,1891393047,1891393841,-0.989664,0.0488,-0.134688,-8.16375,-3.6575,-37.415,17.6,-5.728,16.640001,concentric,5,5.0,37497.0,403431.0,138772.0,9328.0,-135.0
2026-04-09 22:16:01.410015,301114,1891407537,1891408745,-0.989664,0.0488,-0.134688,-1.2425,-7.04375,-36.79375,17.6,-5.728,16.640001,concentric,5,5.0,37497.0,403431.0,138772.0,9328.0,-135.0
2026-04-09 22:16:01.416294,301115,1891416443,1891417506,-1.009184,0.142496,0.105408,5.0225,-9.415,-33.285,16.872002,-5.824,16.512001,concentric,5,5.0,37497.0,403431.0,138772.0,9328.0,-135.0
2026-04-09 22:16:01.446560,301116,1891425393,1891426261,-1.009184,0.142496,0.105408,11.1125,-7.00875,-30.40625,16.872002,-5.824,16.512001,concentric,5,5.0,37497.0,403431.0,138772.0,9328.0,-135.0
2026-04-09 22:16:01.450079,301117,1891434407,1891435005,-0.972096,0.113216,0.06832,8.2425,-2.4325,-29.12875,17.144001,-5.688,14.488001,concentric,5,5.0,37497.0,403431.0,138772.0,9328.0,-135.0
2026-04-09 22:16:01.452634,301118,1891449199,1891449907,-0.972096,0.113216,0.06832,-4.45375,2.2925,-27.86,17.144001,-5.688,14.488001,concentric,5,5.0,37497.0,403431.0,138772.0,9328.0,-135.0
2026-04-09 22:16:01.478836,301128,1891459156,1891460800,-1.036512,0.11712,-0.072224,-10.28125,5.94125,-26.08375,18.824001,-5.472,14.440001,concentric,5,5.0,37661.0,403431.0,136878.0,8192.0,-147.0
2026-04-09 22:16:01.480021,301129,1891468186,1891469580,-1.036512,0.11712,-0.072224,-10.9725,4.235,-24.56125,18.824001,-5.472,14.440001,concentric,5,5.0,37661.0,403431.0,136878.0,8192.0,-147.0
2026-04-09 22:16:01.483131,301130,1891477176,1891478301,-1.001376,0.003904,-0.236192,-7.41125,-1.74125,-24.7625,17.976002,-6.04,15.768001,concentric,5,5.0,37661.0,403431.0,136878.0,8192.0,-147.0
2026-04-09 22:16:01.515237,301131,1891491756,1891493216,-0.960384,0.040992,0.046848,1.67125,-7.4025,-21.9625,17.984001,-5.824,15.504001,concentric,5,5.0,37661.0,403431.0,136878.0,8192.0,-147.0
2026-04-09 22:16:01.518777,301132,1891500785,1891501973,-0.960384,0.040992,0.046848,13.04625,-10.4825,-14.385,17.984001,-5.824,15.504001,concentric,5,5.0,37661.0,403431.0,136878.0,8192.0,-147.0
2026-04-09 22:16:01.521269,301133,1891509703,1891510677,-0.960384,0.040992,0.046848,13.1425,-9.82625,-12.41625,17.984001,-5.824,15.504001,concentric,5,5.0,37661.0,403431.0,136878.0,8192.0,-147.0
2026-04-09 22:16:01.523751,301134,1891524196,1891525547,-1.007232,0.181536,0.111264,11.13875,-6.71125,-8.35625,18.568,-5.56,14.728001,concentric,5,5.0,37661.0,403431.0,136878.0,8192.0,-147.0
2026-04-09 22:16:01.553904,301135,1891533164,1891534256,-0.948672,0.091744,-0.031232,7.525,-3.96375,-8.91625,18.984001,-5.336,15.744,concentric,5,5.0,37661.0,403431.0,136878.0,8192.0,-147.0
2026-04-09 22:16:01.557474,301136,1891542097,1891542946,-0.948672,0.091744,-0.031232,-2.63375,-1.6975,-13.65,18.984001,-5.336,15.744,concentric,5,5.0,37661.0,403431.0,136878.0,8192.0,-147.0
2026-04-09 22:16:01.622687,301147,1891556568,1891558128,-0.989664,0.017568,-0.093696,-8.33,-1.81125,-13.79875,18.624,-5.472,14.712001,concentric,5,5.0,38350.0,403430.0,133840.0,6497.0,-159.0
2026-04-09 22:16:01.625041,301148,1891565591,1891566940,-0.989664,0.017568,-0.093696,-1.575,-3.17625,-7.9275,18.624,-5.472,14.712001,concentric,5,5.0,38350.0,403430.0,133840.0,6497.0,-159.0
2026-04-09 22:16:01.627699,301149,1891574663,1891575720,-0.938912,0.052704,-0.001952,5.95,-3.66625,-2.205,17.496,-5.408001,14.72,concentric,5,5.0,38350.0,403430.0,133840.0,6497.0,-159.0
2026-04-09 22:16:01.630099,301150,1891583589,1891584449,-0.938912,0.052704,-0.001952,7.27125,-2.16125,-2.86125,17.496,-5.408001,14.72,concentric,5,5.0,38350.0,403430.0,133840.0,6497.0,-159.0
2026-04-09 22:16:01.632562,301151,1891598079,1891599342,-0.935008,0.152256,0.216672,10.78875,1.68875,-4.17375,18.272001,-4.992,14.016001,concentric,5,5.0,38350.0,403430.0,133840.0,6497.0,-159.0
2026-04-09 22:16:01.635121,301152,1891606982,1891608067,-0.935008,0.152256,0.216672,13.825,7.67375,-4.66375,18.272001,-4.992,14.016001,concentric,5,5.0,38350.0,403430.0,133840.0,6497.0,-159.0
2026-04-09 22:16:01.637918,301153,1891615879,1891616738,-0.89792,0.001952,-0.003904,9.31,12.145,-6.30875,18.088001,-5.888001,14.288001,concentric,5,5.0,38350.0,403430.0,133840.0,6497.0,-159.0
2026-04-09 22:16:01.640186,301154,1891630332,1891631616,-0.89792,0.001952,-0.003904,-3.0275,12.94125,-8.1725,18.088001,-5.888001,14.288001,concentric,5,5.0,38350.0,403430.0,133840.0,6497.0,-159.0
2026-04-09 22:16:01.643419,301155,1891639195,1891640306,-0.977952,0.064416,-0.177632,-4.375,9.24875,-2.38,18.344002,-5.968,14.448001,concentric,5,5.0,38350.0,403430.0,133840.0,6497.0,-159.0
2026-04-09 22:16:01.647734,301156,1891648150,1891649000,-0.977952,0.064416,-0.177632,7.49,4.3575,4.165,18.344002,-5.968,14.448001,concentric,5,5.0,38350.0,403430.0,133840.0,6497.0,-159.0
2026-04-09 22:16:01.701357,301166,1891662852,1891663980,-0.958432,0.050752,-0.042944,16.2925,-1.225,4.47125,18.496,-5.736,14.776001,concentric,5,5.0,38509.0,402055.0,131450.0,5435.0,-147.0
2026-04-09 22:16:01.705601,301167,1891671796,1891672698,-0.895968,0.050752,0.060512,16.59,-5.67875,4.13,18.720001,-5.496,13.320001,concentric,5,5.0,38509.0,402055.0,131450.0,5435.0,-147.0
2026-04-09 22:16:01.707300,301168,1891680696,1891681416,-0.895968,0.050752,0.060512,17.75375,-8.56625,6.36125,18.720001,-5.496,13.320001,concentric,5,5.0,38509.0,402055.0,131450.0,5435.0,-147.0
2026-04-09 22:16:01.708886,301169,1891690045,1891692203,-0.895968,0.050752,0.060512,18.19125,-9.35375,8.2775,18.720001,-5.496,13.320001,concentric,5,5.0,38509.0,402055.0,131450.0,5435.0,-147.0
2026-04-09 22:16:01.712096,301170,1891704582,1891705065,-0.921344,0.124928,0.10736,13.93875,-7.55125,8.6625,16.648,-5.824,18.304,concentric,5,5.0,38509.0,402055.0,131450.0,5435.0,-147.0
2026-04-09 22:16:01.715844,301171,1891713979,1891715870,-0.905728,0.113216,0.054656,11.62875,-4.34875,9.2225,16.888,-5.712,16.032001,concentric,5,5.0,38509.0,402055.0,131450.0,5435.0,-147.0
2026-04-09 22:16:01.746060,301172,1891722896,1891724574,-0.905728,0.113216,0.054656,9.6775,0.035,7.39375,16.888,-5.712,16.032001,concentric,5,5.0,38509.0,402055.0,131450.0,5435.0,-147.0
2026-04-09 22:16:01.750625,301173,1891737464,1891739471,-0.938912,0.054656,0.02928,11.34875,2.51125,6.43125,18.856,-6.176,14.928,concentric,5,5.0,38509.0,402055.0,131450.0,5435.0,-147.0
2026-04-09 22:16:01.752180,301174,1891746378,1891748163,-0.938912,0.054656,0.02928,14.0875,3.28125,7.25375,18.856,-6.176,14.928,concentric,5,5.0,38509.0,402055.0,131450.0,5435.0,-147.0
2026-04-09 22:16:01.758143,301175,1891755285,1891756861,-0.894016,0.130784,0.062464,17.053751,3.7275,10.05375,18.36,-5.64,14.784,concentric,5,5.0,38509.0,402055.0,131450.0,5435.0,-147.0
2026-04-09 22:16:01.784789,301185,1891770038,1891772157,-0.894016,0.130784,0.062464,16.0825,3.8675,9.9225,18.36,-5.64,14.784,concentric,5,5.0,38694.0,400441.0,129428.0,4608.0,-148.0
2026-04-09 22:16:01.786453,301186,1891778979,1891780912,-0.903776,0.121024,0.050752,13.72875,3.70125,10.22,18.048,-5.944,16.312,concentric,5,5.0,38694.0,400441.0,129428.0,4608.0,-148.0
2026-04-09 22:16:01.794324,301187,1891787924,1891789609,-0.903776,0.121024,0.050752,14.315001,3.59625,11.99625,18.048,-5.944,16.312,concentric,5,5.0,38694.0,400441.0,129428.0,4608.0,-148.0
2026-04-09 22:16:01.795954,301188,1891796885,1891798276,-0.964288,0.11712,-0.056608,14.7175,2.135,13.51,17.928001,-5.832,16.136002,concentric,5,5.0,38694.0,400441.0,129428.0,4608.0,-148.0
2026-04-09 22:16:01.826151,301189,1891811376,1891813198,-0.964288,0.11712,0.033184,17.19375,-0.70875,15.645,17.928001,-5.832,16.136002,concentric,5,5.0,38694.0,400441.0,129428.0,4608.0,-148.0
2026-04-09 22:16:01.828444,301190,1891820284,1891821904,-0.9272,0.134688,0.033184,21.5075,-3.50875,17.29875,19.208,-5.584,15.016001,concentric,5,5.0,38694.0,400441.0,129428.0,4608.0,-148.0
2026-04-09 22:16:01.833005,301191,1891829237,1891830604,-0.9272,0.134688,0.033184,23.45875,-3.78,19.59125,19.208,-5.584,15.016001,eccentric,5,5.0,38694.0,400441.0,129428.0,4608.0,-148.0
2026-04-09 22:16:01.861597,301192,1891843689,1891845504,-0.929152,0.179584,0.103456,22.77625,-2.93125,21.39375,18.976002,-5.576,15.224001,eccentric,5,5.0,38694.0,400441.0,129428.0,4608.0,-148.0
2026-04-09 22:16:01.866202,301193,1891852676,1891854201,-0.96624,0.197152,0.02928,19.92375,-0.65625,22.42625,18.688002,-5.776001,14.832001,eccentric,5,5.0,38694.0,400441.0,129428.0,4608.0,-148.0
2026-04-09 22:16:01.924718,301204,1891861844,1891862961,-0.96624,0.197152,0.02928,16.37125,1.6625,22.05875,18.688002,-5.776001,14.832001,eccentric,5,5.0,38034.0,401147.0,129709.0,4909.0,-140.0
2026-04-09 22:16:01.929696,301205,1891876454,1891877894,-0.968192,0.132736,-0.001952,14.23625,2.6425,21.525,18.480001,-6.4,16.08,eccentric,5,5.0,38034.0,401147.0,129709.0,4909.0,-140.0
2026-04-09 22:16:01.933476,301206,1891885523,1891886668,-0.968192,0.132736,-0.001952,13.39625,2.82625,21.95375,18.480001,-6.4,16.08,eccentric,5,5.0,38034.0,401147.0,129709.0,4909.0,-140.0
2026-04-09 22:16:01.936012,301207,1891894445,1891895381,-0.970144,0.183488,0.027328,14.60375,1.51375,25.3925,18.664001,-6.184001,16.112001,eccentric,5,5.0,38034.0,401147.0,129709.0,4909.0,-140.0
2026-04-09 22:16:01.938514,301208,1891903486,1891904101,-0.970144,0.183488,0.027328,19.0925,0.35,29.02375,18.664001,-6.184001,16.112001,eccentric,5,5.0,38034.0,401147.0,129709.0,4909.0,-140.0
2026-04-09 22:16:01.940473,301209,1891918254,1891918988,-1.00528,0.21472,-0.017568,21.41125,-0.1575,29.68,19.240002,-6.208,15.368001,eccentric,5,5.0,38034.0,401147.0,129709.0,4909.0,-140.0
2026-04-09 22:16:01.943361,301210,1891927583,1891929743,-1.00528,0.21472,-0.017568,19.08375,-0.84,30.1175,19.240002,-6.208,15.368001,eccentric,5,5.0,38034.0,401147.0,129709.0,4909.0,-140.0
2026-04-09 22:16:01.949309,301211,1891936571,1891938523,-0.958432,0.201056,0.007808,20.09,-1.02375,30.42375,18.528002,-6.440001,16.592001,eccentric,5,5.0,38034.0,401147.0,129709.0,4909.0,-140.0
2026-04-09 22:16:01.950925,301212,1891951125,1891951500,-0.958432,0.201056,0.007808,19.285,-1.855,28.0525,18.528002,-6.440001,16.592001,eccentric,5,5.0,38034.0,401147.0,129709.0,4909.0,-140.0
2026-04-09 22:16:02.004793,301222,1891960506,1891962852,-0.974048,0.20496,0.054656,16.275,-2.59875,28.6825,19.512001,-6.696,16.76,eccentric,5,5.0,37451.0,401940.0,130242.0,5225.0,-138.0
2026-04-09 22:16:02.007290,301223,1891969492,1891971644,-0.974048,0.20496,0.054656,11.865,-2.8175,30.30125,19.512001,-6.696,16.76,eccentric,5,5.0,37451.0,401940.0,130242.0,5225.0,-138.0
2026-04-09 22:16:02.008856,301224,1891978407,1891980358,-1.01504,0.255712,0.013664,9.37125,-1.7325,32.2175,19.712002,-7.216001,15.448001,eccentric,5,5.0,37451.0,401940.0,130242.0,5225.0,-138.0
2026-04-09 22:16:02.011278,301225,1891992959,1891993304,-1.00528,0.242048,0.023424,12.46,-0.48125,31.80625,20.216002,-7.096,15.624001,eccentric,5,5.0,37451.0,401940.0,130242.0,5225.0,-138.0
2026-04-09 22:16:02.014830,301226,1892002291,1892004127,-1.00528,0.242048,0.023424,14.0525,0.76125,30.4325,20.216002,-7.096,15.624001,eccentric,5,5.0,37451.0,401940.0,130242.0,5225.0,-138.0
2026-04-09 22:16:02.016311,301227,1892011248,1892012845,-1.00528,0.242048,0.023424,12.04,1.8725,29.89875,20.216002,-7.096,15.624001,eccentric,5,5.0,37451.0,401940.0,130242.0,5225.0,-138.0
2026-04-09 22:16:02.020476,301228,1892020252,1892021581,-1.01504,0.244,-0.037088,11.9,1.07625,31.911251,19.392,-7.576,14.944,eccentric,5,5.0,37451.0,401940.0,130242.0,5225.0,-138.0
2026-04-09 22:16:02.048996,301229,1892034767,1892036500,-1.03456,0.296704,0.044896,10.92875,-0.84875,33.32,19.528002,-7.32,16.744001,eccentric,5,5.0,37451.0,401940.0,130242.0,5225.0,-138.0
2026-04-09 22:16:02.053531,301230,1892043705,1892045194,-1.03456,0.296704,0.044896,10.15,-1.8025,35.25375,19.528002,-7.32,16.744001,eccentric,5,5.0,37451.0,401940.0,130242.0,5225.0,-138.0
2026-04-09 22:16:02.055962,301231,1892052671,1892053901,-1.03456,0.306464,0.011712,9.695,-1.5575,35.63,19.528002,-7.32,16.744001,eccentric,5,5.0,37451.0,401940.0,130242.0,5225.0,-138.0
2026-04-09 22:16:02.086540,301241,1892067247,1892068909,-1.032608,0.306464,0.011712,4.57625,-1.12,34.7375,20.024,-7.8,15.984001,eccentric,5,5.0,37036.0,403189.0,131647.0,5879.0,-146.0
2026-04-09 22:16:02.090671,301242,1892076227,1892077661,-0.974048,0.275232,-0.003904,2.31875,-0.86625,35.7,19.560001,-8.52,17.08,eccentric,5,5.0,37036.0,403189.0,131647.0,5879.0,-146.0
2026-04-09 22:16:02.092147,301243,1892085225,1892086372,-0.974048,0.275232,-0.003904,1.53125,-1.6975,34.95625,19.560001,-8.52,17.08,eccentric,5,5.0,37036.0,403189.0,131647.0,5879.0,-146.0
2026-04-09 22:16:02.124940,301244,1892099786,1892101273,-1.011136,0.32208,0.021472,1.05,-3.42125,36.28625,20.712002,-7.808001,16.616001,eccentric,5,5.0,37036.0,403189.0,131647.0,5879.0,-146.0
2026-04-09 22:16:02.126175,301245,1892108777,1892109990,-1.011136,0.32208,0.021472,3.955,-4.89125,38.3075,20.712002,-7.808001,16.616001,eccentric,5,5.0,37036.0,403189.0,131647.0,5879.0,-146.0
2026-04-09 22:16:02.128334,301246,1892117697,1892118778,-1.011136,0.333792,0.025376,3.75375,-4.52375,37.26625,20.608002,-7.976,16.456001,eccentric,5,5.0,37036.0,403189.0,131647.0,5879.0,-146.0
2026-04-09 22:16:02.134328,301247,1892132194,1892133673,-1.011136,0.333792,0.025376,-0.245,-3.78875,38.19375,20.608002,-7.976,16.456001,eccentric,5,5.0,37036.0,403189.0,131647.0,5879.0,-146.0
2026-04-09 22:16:02.162860,301248,1892141129,1892142424,-0.972096,0.335744,0.042944,-1.68875,-2.45875,37.905,20.720001,-8.592,17.336,eccentric,5,5.0,37036.0,403189.0,131647.0,5879.0,-146.0
2026-04-09 22:16:02.167347,301249,1892150073,1892151166,-0.972096,0.335744,0.042944,-2.73875,-1.89,37.19625,20.720001,-8.592,17.336,eccentric,5,5.0,37036.0,403189.0,131647.0,5879.0,-146.0
2026-04-09 22:16:02.168903,301250,1892159026,1892159873,-0.976,0.35136,0.033184,-1.30375,-1.715,37.3275,20.512001,-8.736,16.664001,eccentric,5,5.0,37036.0,403189.0,131647.0,5879.0,-146.0
2026-04-09 22:16:02.229780,301261,1892173571,1892174815,-0.989664,0.368928,0.076128,-1.18125,-0.2625,35.21875,20.512001,-9.056001,20.384,eccentric,5,5.0,36995.0,403271.0,131788.0,5941.0,-150.0
2026-04-09 22:16:02.232275,301262,1892182490,1892183541,-0.989664,0.368928,0.076128,-2.37125,0.5425,35.07,20.176,-9.056001,20.384,eccentric,5,5.0,36995.0,403271.0,131788.0,5941.0,-150.0
2026-04-09 22:16:02.233851,301263,1892191527,1892192384,-0.989664,0.368928,0.076128,-4.22625,1.575,35.72625,20.176,-9.056001,20.384,eccentric,5,5.0,36995.0,403271.0,131788.0,5941.0,-150.0
2026-04-09 22:16:02.238125,301264,1892206026,1892207290,-0.981856,0.3904,0.021472,-7.805,3.17625,34.16875,20.44,-9.592,18.104,eccentric,5,5.0,36995.0,403271.0,131788.0,5941.0,-150.0
2026-04-09 22:16:02.239859,301265,1892214922,1892216007,-0.983808,0.388448,0.044896,-9.37125,4.48,33.03125,21.136002,-9.76,17.256,eccentric,5,5.0,36995.0,403271.0,131788.0,5941.0,-150.0
2026-04-09 22:16:02.241419,301266,1892223859,1892224713,-0.983808,0.388448,0.044896,-7.35875,5.0225,33.013752,21.136002,-9.76,17.256,eccentric,5,5.0,36995.0,403271.0,131788.0,5941.0,-150.0
2026-04-09 22:16:02.245653,301267,1892238402,1892239570,-0.977952,0.441152,0.05856,-5.32875,4.89125,31.84125,20.416,-9.6,18.024,eccentric,5,5.0,36995.0,403271.0,131788.0,5941.0,-150.0
2026-04-09 22:16:02.248097,301268,1892247310,1892248317,-0.977952,0.441152,0.05856,-5.3725,5.6175,31.12375,20.416,-9.6,18.024,eccentric,5,5.0,36995.0,403271.0,131788.0,5941.0,-150.0
2026-04-09 22:16:02.276547,301269,1892256323,1892257047,-0.977952,0.462624,0.076128,-6.41375,7.53375,31.1675,20.424002,-9.52,18.896002,eccentric,5,5.0,36995.0,403271.0,131788.0,5941.0,-150.0
2026-04-09 22:16:02.303638,301279,1892265857,1892267883,-0.977952,0.462624,0.076128,-8.085,10.3075,27.48375,20.424002,-9.52,18.896002,eccentric,5,5.0,36803.0,403431.0,132970.0,6535.0,-150.0
2026-04-09 22:16:02.305152,301280,1892280374,1892280762,-1.0248,0.427488,0.060512,-13.04625,13.685,23.275,21.704,-10.416,16.84,eccentric,5,5.0,36803.0,403431.0,132970.0,6535.0,-150.0
2026-04-09 22:16:02.309414,301281,1892289716,1892291561,-1.0248,0.427488,0.060512,-13.92125,17.4125,24.9025,21.704,-10.416,16.84,eccentric,5,5.0,36803.0,403431.0,132970.0,6535.0,-150.0
2026-04-09 22:16:02.311842,301282,1892298739,1892300341,-1.007232,0.470432,0.109312,-13.7375,20.25625,23.03,21.800001,-10.904,17.432001,eccentric,5,5.0,36803.0,403431.0,132970.0,6535.0,-150.0
2026-04-09 22:16:02.315450,301283,1892313348,1892315295,-1.007232,0.470432,0.109312,-17.87625,22.37375,21.32375,21.800001,-10.904,17.432001,eccentric,5,5.0,36803.0,403431.0,132970.0,6535.0,-150.0
2026-04-09 22:16:02.331952,301284,1892322310,1892323996,-1.087264,0.5368,0.003904,-20.8775,22.09375,20.44875,21.960001,-11.096001,14.616001,eccentric,5,5.0,36803.0,403431.0,132970.0,6535.0,-150.0
2026-04-09 22:16:02.333508,301285,1892331251,1892332688,-1.087264,0.5368,0.003904,-21.2625,20.32625,15.88125,21.960001,-11.096001,14.616001,eccentric,5,5.0,36803.0,403431.0,132970.0,6535.0,-150.0
2026-04-09 22:16:02.340519,301286,1892340221,1892341465,-1.097024,0.44896,-0.054656,-21.84875,17.36875,9.625,22.312,-10.896001,17.544,eccentric,5,5.0,36803.0,403431.0,132970.0,6535.0,-150.0
2026-04-09 22:16:02.373736,301287,1892354665,1892356399,-1.067744,0.398208,0.031232,-19.81875,14.67375,8.9075,22.456001,-11.088,13.840001,eccentric,5,5.0,36803.0,403431.0,132970.0,6535.0,-150.0
2026-04-09 22:16:02.404434,301297,1892363825,1892365179,-1.067744,0.398208,0.031232,-16.616251,12.3025,8.68,22.456001,-11.088,13.840001,eccentric,5,5.0,35376.0,403431.0,132732.0,6751.0,-144.0
2026-04-09 22:16:02.406107,301298,1892372857,1892373931,-1.067744,0.398208,0.031232,-16.31875,9.7825,10.6225,22.456001,-11.088,13.840001,eccentric,5,5.0,35376.0,403431.0,132732.0,6751.0,-144.0
2026-04-09 22:16:02.407781,301299,1892387470,1892388910,-1.067744,0.443104,0.033184,-19.20625,6.7025,12.495,21.848001,-11.512,17.792002,eccentric,5,5.0,35376.0,403431.0,132732.0,6751.0,-144.0
2026-04-09 22:16:02.411883,301300,1892396514,1892397677,-1.157536,0.464576,-0.060512,-23.75625,2.31,13.30875,22.28,-10.864,18.92,eccentric,5,5.0,35376.0,403431.0,132732.0,6751.0,-144.0
2026-04-09 22:16:02.413631,301301,1892405451,1892406384,-1.157536,0.464576,-0.060512,-23.7475,-2.54625,14.35875,22.28,-10.864,18.92,eccentric,5,5.0,35376.0,403431.0,132732.0,6751.0,-144.0
2026-04-09 22:16:02.415504,301302,1892414420,1892415101,-1.098976,0.366976,-0.072224,-21.175,-8.54875,13.29125,22.28,-11.744,19.216002,eccentric,5,5.0,35376.0,403431.0,132732.0,6751.0,-144.0
2026-04-09 22:16:02.446810,301303,1892429270,1892430080,-1.098976,0.366976,-0.072224,-16.5025,-12.25,12.34625,23.032001,-11.744,19.216002,eccentric,5,5.0,35376.0,403431.0,132732.0,6751.0,-144.0
2026-04-09 22:16:02.450607,301304,1892438799,1892440851,-1.091168,0.423584,0.105408,-11.59375,-14.23625,14.90125,22.888,-11.984,18.632,eccentric,5,5.0,35376.0,403431.0,132732.0,6751.0,-144.0
2026-04-09 22:16:02.453096,301305,1892447703,1892449527,-1.091168,0.423584,0.105408,-11.69,-14.315001,16.58125,22.888,-11.984,18.632,eccentric,5,5.0,35376.0,403431.0,132732.0,6751.0,-144.0
2026-04-09 22:16:02.547373,301316,1892462224,1892464379,-1.071648,0.437248,0.0976,-17.64875,-13.877501,17.08875,22.672,-12.080001,19.792002,eccentric,5,5.0,35715.0,403431.0,133638.0,7100.0,-147.0
2026-04-09 22:16:02.548928,301317,1892471208,1892473099,-1.071648,0.437248,0.0976,-22.61875,-12.39,16.66,22.672,-12.080001,19.792002,eccentric,5,5.0,35715.0,403431.0,133638.0,7100.0,-147.0
2026-04-09 22:16:02.553163,301318,1892480119,1892481806,-1.057984,0.411872,-0.06832,-24.47375,-10.29875,14.4375,23.448002,-12.024,18.984001,eccentric,5,5.0,35715.0,403431.0,133638.0,7100.0,-147.0
2026-04-09 22:16:02.554839,301319,1892489036,1892490502,-1.057984,0.411872,-0.06832,-27.36125,-8.68875,10.63125,23.448002,-12.024,18.984001,eccentric,5,5.0,35715.0,403431.0,133638.0,7100.0,-147.0
2026-04-09 22:16:02.556335,301320,1892503598,1892505547,-1.095072,0.42944,0.062464,-25.48,-8.085,7.79625,23.320002,-12.712001,20.688002,eccentric,5,5.0,35715.0,403431.0,133638.0,7100.0,-147.0
2026-04-09 22:16:02.560600,301321,1892512515,1892514234,-1.095072,0.42944,0.062464,-18.76,-8.33875,6.39625,23.320002,-12.712001,20.688002,eccentric,5,5.0,35715.0,403431.0,133638.0,7100.0,-147.0
2026-04-09 22:16:02.562388,301322,1892521467,1892522952,-1.081408,0.417728,0.122976,-17.1325,-8.14625,3.6225,23.768002,-12.248,19.672,eccentric,5,5.0,35715.0,403431.0,133638.0,7100.0,-147.0
2026-04-09 22:16:02.563938,301323,1892535934,1892537882,-1.106784,0.365024,-0.085888,-19.11,-8.82875,1.4175,23.504002,-12.672001,20.0,eccentric,5,5.0,35715.0,403431.0,133638.0,7100.0,-147.0
2026-04-09 22:16:02.568146,301324,1892545742,1892547460,-1.106784,0.365024,-0.085888,-20.7025,-11.76,0.1925,23.504002,-12.672001,20.0,eccentric,5,5.0,35715.0,403431.0,133638.0,7100.0,-147.0
2026-04-09 22:16:02.569949,301325,1892554690,1892556257,-1.106784,0.396256,-0.017568,-21.210001,-14.70875,-1.61875,23.504002,-12.672001,20.0,eccentric,5,5.0,35715.0,403431.0,133638.0,7100.0,-147.0
2026-04-09 22:16:02.635149,301335,1892564029,1892565020,-1.118496,0.396256,-0.017568,-15.3125,-17.68375,-0.37625,24.328001,-12.384001,20.6,eccentric,5,5.0,36404.0,403431.0,135564.0,7932.0,-142.0
2026-04-09 22:16:02.637750,301336,1892578632,1892580036,-1.104832,0.36112,0.083936,-13.81625,-20.81625,-0.98875,24.240002,-12.72,21.184002,eccentric,5,5.0,36404.0,403431.0,135564.0,7932.0,-142.0
2026-04-09 22:16:02.640127,301337,1892587591,1892588790,-1.104832,0.36112,0.083936,-11.97,-22.49625,-2.35375,24.240002,-12.72,21.184002,eccentric,5,5.0,36404.0,403431.0,135564.0,7932.0,-142.0
2026-04-09 22:16:02.642599,301338,1892596477,1892597562,-1.110688,0.38064,0.064416,-6.34375,-23.3275,-4.4975,24.560001,-12.544001,21.064001,eccentric,5,5.0,36404.0,403431.0,135564.0,7932.0,-142.0
2026-04-09 22:16:02.645116,301339,1892610978,1892612451,-1.110688,0.38064,0.064416,-4.2875,-24.6925,-7.16625,24.560001,-12.544001,21.064001,eccentric,5,5.0,36404.0,403431.0,135564.0,7932.0,-142.0
2026-04-09 22:16:02.647628,301340,1892619910,1892621223,-1.106784,0.363072,0.005856,-2.8,-25.01625,-9.73875,24.592001,-12.8,21.848001,eccentric,5,5.0,36404.0,403431.0,135564.0,7932.0,-142.0
2026-04-09 22:16:02.650131,301341,1892628940,1892630039,-1.106784,0.363072,0.005856,-0.58625,-23.7825,-12.425,24.592001,-12.8,21.848001,eccentric,5,5.0,36404.0,403431.0,135564.0,7932.0,-142.0
2026-04-09 22:16:02.652610,301342,1892643539,1892645051,-1.116544,0.325984,0.128832,3.24625,-22.4525,-14.13125,25.664001,-12.744,22.496,eccentric,5,5.0,36404.0,403431.0,135564.0,7932.0,-142.0
2026-04-09 22:16:02.655116,301343,1892652470,1892653823,-1.116544,0.325984,0.128832,9.4675,-20.51875,-14.6475,25.664001,-12.744,22.496,eccentric,5,5.0,36404.0,403431.0,135564.0,7932.0,-142.0
2026-04-09 22:16:02.662674,301344,1892661400,1892662526,-1.110688,0.347456,0.124928,8.89875,-18.54125,-15.1025,23.832,-12.208,23.576,eccentric,5,5.0,36404.0,403431.0,135564.0,7932.0,-142.0
2026-04-09 22:16:02.705120,301354,1892670514,1892671376,-1.110688,0.347456,0.124928,3.61375,-16.2225,-16.26625,23.832,-12.208,23.576,eccentric,5,5.0,38022.0,403431.0,135573.0,7451.0,-142.0
2026-04-09 22:16:02.707622,301355,1892685013,1892686343,-1.118496,0.28304,0.095648,-1.54,-13.43125,-17.2025,24.880001,-11.888001,24.096,eccentric,5,5.0,38022.0,403431.0,135573.0,7451.0,-142.0
2026-04-09 22:16:02.710069,301356,1892693996,1892695100,-1.118496,0.28304,0.095648,-1.77625,-11.042501,-15.46125,24.880001,-11.888001,24.096,eccentric,5,5.0,38022.0,403431.0,135573.0,7451.0,-142.0
2026-04-09 22:16:02.712615,301357,1892702928,1892703807,-1.116544,0.226432,0.07808,-0.37625,-9.4675,-13.79875,25.496,-11.808001,21.936,eccentric,5,5.0,38022.0,403431.0,135573.0,7451.0,-142.0
2026-04-09 22:16:02.716341,301358,1892717468,1892718767,-1.11264,0.245952,0.111264,1.4525,-8.70625,-11.22625,25.176,-12.392,23.744001,eccentric,5,5.0,38022.0,403431.0,135573.0,7451.0,-142.0
2026-04-09 22:16:02.746559,301359,1892726391,1892727479,-1.11264,0.245952,0.111264,5.5125,-8.54,-7.6475,25.176,-12.392,23.744001,eccentric,5,5.0,38022.0,403431.0,135573.0,7451.0,-142.0
2026-04-09 22:16:02.750146,301360,1892735296,1892736164,-1.11264,0.230336,0.130784,7.455,-8.33875,-5.55625,25.176,-12.392,23.744001,eccentric,5,5.0,38022.0,403431.0,135573.0,7451.0,-142.0
2026-04-09 22:16:02.752648,301361,1892749738,1892751125,-1.091168,0.226432,0.130784,8.37375,-7.9625,-3.94625,25.608002,-12.376,23.024,eccentric,5,5.0,38022.0,403431.0,135573.0,7451.0,-142.0
2026-04-09 22:16:02.758758,301362,1892758667,1892759770,-1.110688,0.23424,0.144448,8.7325,-5.7225,-2.73875,24.920002,-11.888001,24.44,eccentric,5,5.0,38022.0,403431.0,135573.0,7451.0,-142.0
2026-04-09 22:16:02.787650,301373,1892768119,1892768536,-1.110688,0.23424,0.144448,11.585,-2.98375,-0.97125,24.920002,-11.888001,24.44,eccentric,5,5.0,38320.0,403431.0,136144.0,7634.0,-147.0
2026-04-09 22:16:02.827822,301374,1892777399,1892779346,-1.09312,0.23424,0.134688,11.45375,-0.35875,-0.105,25.472002,-11.768001,24.328001,eccentric,5,5.0,38320.0,403431.0,136144.0,7634.0,-147.0
2026-04-09 22:16:02.831373,301375,1892791909,1892792292,-1.09312,0.23424,0.134688,7.5425,1.91625,-0.14875,25.472002,-11.768001,24.328001,eccentric,5,5.0,38320.0,403431.0,136144.0,7634.0,-147.0
2026-04-09 22:16:02.833839,301376,1892801175,1892803050,-1.091168,0.199104,0.109312,6.3175,2.49375,-0.09625,24.728,-12.032001,25.448002,eccentric,5,5.0,38320.0,403431.0,136144.0,7634.0,-147.0
2026-04-09 22:16:02.836373,301377,1892810098,1892811766,-1.091168,0.199104,0.109312,8.91625,3.28125,1.02375,24.728,-12.032001,25.448002,eccentric,5,5.0,38320.0,403431.0,136144.0,7634.0,-147.0
2026-04-09 22:16:02.838868,301378,1892824556,1892826672,-1.079456,0.20496,0.06832,12.915,3.5,1.79375,26.000002,-12.112,23.704,eccentric,5,5.0,38320.0,403431.0,136144.0,7634.0,-147.0
2026-04-09 22:16:02.842753,301379,1892833453,1892835371,-1.079456,0.20496,0.06832,14.35875,3.77125,2.40625,26.000002,-12.112,23.704,eccentric,5,5.0,38320.0,403431.0,136144.0,7634.0,-147.0
2026-04-09 22:16:02.844376,301380,1892842468,1892844065,-1.06384,0.203008,0.109312,15.4525,4.08625,3.01875,25.288002,-12.160001,25.240002,eccentric,5,5.0,38320.0,403431.0,136144.0,7634.0,-147.0
2026-04-09 22:16:02.850086,301381,1892851526,1892852792,-1.06384,0.203008,0.109312,17.15875,4.48875,3.2025,25.288002,-12.160001,25.240002,eccentric,5,5.0,38320.0,403431.0,136144.0,7634.0,-147.0
