pc_time,serial_num,sensor_ts,host_ts,ax,ay,az,gx,gy,gz,mx,my,mz,phase,rpe,weight_kg,ppg_a,ppg_b,ppg_c,ppg_d,ppg_e
2026-04-07 18:05:05.257664,400943,2175614739,2175616208,-1.011136,0.152256,0.06832,-13.65,18.62875,-10.0975,39.568,-1.264,55.744003,concentric,6,3.0,22643.0,316261.0,282513.0,329020.0,289573.0
2026-04-07 18:05:05.259173,400944,2175623670,2175624919,-1.011136,0.152256,0.06832,-17.2375,18.8475,-10.71,39.568,-1.264,55.744003,concentric,6,3.0,22643.0,316261.0,282513.0,329020.0,289573.0
2026-04-07 18:05:05.289444,400945,2175638165,2175639857,-1.046272,0.150304,0.081984,-17.94625,18.2875,-12.15375,39.296,-1.072,56.096004,concentric,6,3.0,22643.0,316261.0,282513.0,329020.0,289573.0
2026-04-07 18:05:05.291773,400946,2175647077,2175648568,-1.040416,0.132736,0.076128,-16.065,17.40375,-13.2125,39.56,-0.456,55.768,concentric,6,3.0,22643.0,316261.0,282513.0,329020.0,289573.0
2026-04-07 18:05:05.296419,400947,2175656016,2175657284,-1.040416,0.132736,0.076128,-14.20125,15.925,-12.97625,39.56,-0.456,55.768,concentric,6,3.0,22643.0,316261.0,282513.0,329020.0,289573.0
2026-04-07 18:05:05.351915,400957,2175670553,2175672375,-1.016992,0.099552,0.070272,-12.18875,14.69125,-13.30875,39.848003,-0.856,55.640003,concentric,6,3.0,22603.0,315898.0,282198.0,328684.0,289320.0
2026-04-07 18:05:05.356373,400958,2175679523,2175681134,-1.016992,0.099552,0.070272,-10.77125,14.51625,-13.4225,39.848003,-0.856,55.640003,concentric,6,3.0,22603.0,315898.0,282198.0,328684.0,289320.0
2026-04-07 18:05:05.358059,400959,2175688541,2175689946,-1.013088,0.095648,0.0488,-9.80875,14.7,-12.845,40.120003,-0.672,55.664,concentric,6,3.0,22603.0,315898.0,282198.0,328684.0,289320.0
2026-04-07 18:05:05.359617,400960,2175697480,2175698686,-1.013088,0.095648,0.0488,-7.805,13.93875,-11.90875,40.120003,-0.672,55.664,concentric,6,3.0,22603.0,315898.0,282198.0,328684.0,289320.0
2026-04-07 18:05:05.364406,400961,2175712021,2175713613,-0.991616,0.113216,0.03904,-6.30875,13.3525,-10.3775,39.984,-0.616,55.568,concentric,6,3.0,22603.0,315898.0,282198.0,328684.0,289320.0
2026-04-07 18:05:05.366709,400962,2175720987,2175722313,-0.991616,0.113216,0.03904,-5.67,11.62,-9.31875,39.984,-0.616,55.568,concentric,6,3.0,22603.0,315898.0,282198.0,328684.0,289320.0
2026-04-07 18:05:05.369560,400963,2175729948,2175731014,-0.983808,0.124928,0.02928,-6.58,10.36875,-7.39375,40.296,-0.432,55.176003,concentric,6,3.0,22603.0,315898.0,282198.0,328684.0,289320.0
2026-04-07 18:05:05.377483,400964,2175744454,2175745937,-0.983808,0.124928,0.02928,-7.20125,10.08,-5.8625,40.296,-0.432,55.176003,concentric,6,3.0,22603.0,315898.0,282198.0,328684.0,289320.0
2026-04-07 18:05:05.406059,400965,2175753405,2175754661,-0.976,0.10736,0.007808,-9.24,9.625,-5.075,40.2,-0.28,56.048004,concentric,6,3.0,22603.0,315898.0,282198.0,328684.0,289320.0
2026-04-07 18:05:05.410581,400966,2175762321,2175763389,-0.976,0.10736,0.007808,-10.99875,9.905,-4.26125,40.2,-0.28,56.048004,concentric,6,3.0,22603.0,315898.0,282198.0,328684.0,289320.0
2026-04-07 18:05:05.434620,400976,2175776912,2175778310,-0.983808,0.11712,0.001952,-10.96375,9.72125,-4.2875,40.320004,-0.064,55.944004,concentric,6,3.0,22407.0,314173.0,280740.0,327093.0,287956.0
2026-04-07 18:05:05.438811,400977,2175785948,2175787005,-0.997472,0.128832,0.015616,-10.08875,9.87,-4.48,40.264004,0.008,54.968002,concentric,6,3.0,22407.0,314173.0,280740.0,327093.0,287956.0
2026-04-07 18:05:05.440545,400978,2175794872,2175795746,-0.997472,0.128832,0.015616,-9.54625,10.15,-5.0925,40.264004,0.008,54.968002,concentric,6,3.0,22407.0,314173.0,280740.0,327093.0,287956.0
2026-04-07 18:05:05.442340,400979,2175803770,2175804490,-0.997472,0.128832,0.015616,-9.6425,10.21125,-4.90875,40.264004,0.008,54.968002,concentric,6,3.0,22407.0,314173.0,280740.0,327093.0,287956.0
2026-04-07 18:05:05.449966,400980,2175818755,2175819469,-1.020896,0.130784,0.035136,-8.96,9.56375,-4.41,40.272003,-0.32,56.528004,concentric,6,3.0,22407.0,314173.0,280740.0,327093.0,287956.0
2026-04-07 18:05:05.478599,400981,2175828172,2175830270,-1.016992,0.119072,0.044896,-8.14625,9.0475,-3.35125,40.632004,0.24,55.136,concentric,6,3.0,22407.0,314173.0,280740.0,327093.0,287956.0
2026-04-07 18:05:05.483007,400982,2175837079,2175838940,-1.016992,0.119072,0.044896,-6.755,8.07625,-1.16375,40.632004,0.24,55.136,concentric,6,3.0,22407.0,314173.0,280740.0,327093.0,287956.0
2026-04-07 18:05:05.484552,400983,2175851634,2175853882,-0.99552,0.109312,0.074176,-3.94625,7.7175,0.5425,40.2,-0.208,55.056004,concentric,6,3.0,22407.0,314173.0,280740.0,327093.0,287956.0
2026-04-07 18:05:05.515579,400984,2175860645,2175862605,-0.99552,0.109312,0.074176,-0.805,8.11125,1.295,40.2,-0.208,55.056004,concentric,6,3.0,22407.0,314173.0,280740.0,327093.0,287956.0
2026-04-07 18:05:05.544314,400995,2175869747,2175871330,-1.013088,0.091744,0.080032,-0.06125,8.26,2.73875,40.472,0.088,55.04,concentric,6,3.0,22311.0,313420.0,280170.0,326562.0,287610.0
2026-04-07 18:05:05.545980,400996,2175878759,2175880077,-1.013088,0.091744,0.080032,-3.2025,9.4325,3.0625,40.472,0.088,55.04,concentric,6,3.0,22311.0,313420.0,280170.0,326562.0,287610.0
2026-04-07 18:05:05.550103,400997,2175893210,2175894961,-1.059936,0.085888,0.050752,-8.91625,10.99,2.70375,40.632004,0.008,55.472004,concentric,6,3.0,22311.0,313420.0,280170.0,326562.0,287610.0
2026-04-07 18:05:05.552804,400998,2175902151,2175903784,-1.059936,0.085888,0.050752,-16.3275,13.1775,1.79375,40.632004,0.008,55.472004,concentric,6,3.0,22311.0,313420.0,280170.0,326562.0,287610.0
2026-04-07 18:05:05.556853,400999,2175911091,2175912521,-1.065792,0.081984,0.044896,-23.94,15.04125,0.44625,41.24,0.032,55.120003,concentric,6,3.0,22311.0,313420.0,280170.0,326562.0,287610.0
2026-04-07 18:05:05.558246,401000,2175925637,2175927541,-1.065792,0.081984,0.050752,-29.56625,17.28125,-1.26875,41.24,0.032,55.120003,concentric,6,3.0,22311.0,313420.0,280170.0,326562.0,287610.0
2026-04-07 18:05:05.566604,401001,2175934570,2175936262,-1.079456,0.115168,0.050752,-31.94625,19.31125,-3.05375,40.808002,0.48,55.352,concentric,6,3.0,22311.0,313420.0,280170.0,326562.0,287610.0
2026-04-07 18:05:05.598164,401002,2175943520,2175944994,-1.079456,0.115168,0.050752,-34.1425,20.9825,-3.9025,40.808002,0.48,55.352,concentric,6,3.0,22311.0,313420.0,280170.0,326562.0,287610.0
2026-04-07 18:05:05.600450,401003,2175957997,2175959889,-1.075552,0.150304,0.05856,-37.1,21.16625,-3.5525,41.864002,1.456,54.328003,concentric,6,3.0,22311.0,313420.0,280170.0,326562.0,287610.0
2026-04-07 18:05:05.660577,401013,2175967296,2175968679,-1.065792,0.154208,0.021472,-39.34875,20.58,-2.765,42.36,1.192,54.328003,concentric,6,3.0,22106.0,311215.0,278183.0,324324.0,285693.0
2026-04-07 18:05:05.662193,401014,2175976289,2175977434,-1.065792,0.154208,0.021472,-41.09875,19.53875,-1.95125,42.36,1.192,54.328003,concentric,6,3.0,22106.0,311215.0,278183.0,324324.0,285693.0
2026-04-07 18:05:05.666394,401015,2175985218,2175986186,-1.065792,0.154208,0.021472,-41.71125,18.26125,-0.79625,42.36,1.192,54.328003,concentric,6,3.0,22106.0,311215.0,278183.0,324324.0,285693.0
2026-04-07 18:05:05.668132,401016,2175999674,2176001061,-1.05408,0.119072,-0.017568,-42.49,16.625,-0.1925,41.968002,1.656,54.488003,concentric,6,3.0,22106.0,311215.0,278183.0,324324.0,285693.0
2026-04-07 18:05:05.669626,401017,2176008588,2176009752,-1.056032,0.162016,-0.040992,-39.22625,15.89,0.98,41.632004,1.904,53.592003,concentric,6,3.0,22106.0,311215.0,278183.0,324324.0,285693.0
2026-04-07 18:05:05.674185,401018,2176017448,2176018455,-1.056032,0.162016,-0.040992,-37.05625,15.68875,0.84,41.632004,1.904,53.592003,concentric,6,3.0,22106.0,311215.0,278183.0,324324.0,285693.0
2026-04-07 18:05:05.678664,401019,2176032042,2176033404,-1.06384,0.193248,-0.052704,-36.5225,15.3825,0.2975,41.784,2.024,54.832,concentric,6,3.0,22106.0,311215.0,278183.0,324324.0,285693.0
2026-04-07 18:05:05.682597,401020,2176041035,2176042153,-1.06384,0.193248,-0.052704,-37.826252,14.4725,0.83125,41.784,2.024,54.832,concentric,6,3.0,22106.0,311215.0,278183.0,324324.0,285693.0
2026-04-07 18:05:05.684161,401021,2176049964,2176050878,-1.040416,0.140544,-0.01952,-38.85,13.02,2.0475,41.856003,2.264,54.496002,concentric,6,3.0,22106.0,311215.0,278183.0,324324.0,285693.0
2026-04-07 18:05:05.738073,401031,2176064447,2176066047,-1.040416,0.140544,-0.01952,-40.71375,10.61375,1.12875,41.856003,2.264,54.496002,concentric,6,3.0,22041.0,310680.0,277747.0,323840.0,285388.0
2026-04-07 18:05:05.739770,401032,2176073459,2176074743,-1.038464,0.081984,-0.066368,-39.865,8.8025,0.48125,42.672,2.56,53.320004,concentric,6,3.0,22041.0,310680.0,277747.0,323840.0,285388.0
2026-04-07 18:05:05.744000,401033,2176082371,2176083446,-1.038464,0.081984,-0.066368,-36.0675,9.5025,-2.4675,42.672,2.56,53.320004,concentric,6,3.0,22041.0,310680.0,277747.0,323840.0,285388.0
2026-04-07 18:05:05.748006,401034,2176096902,2176098397,-1.036512,0.197152,-0.031232,-31.99,8.2775,-5.3375,42.584003,2.824,53.088,concentric,6,3.0,22041.0,310680.0,277747.0,323840.0,285388.0
2026-04-07 18:05:05.749689,401035,2176105832,2176107125,-1.036512,0.197152,-0.031232,-22.21625,8.3125,-4.20875,42.584003,2.824,53.088,concentric,6,3.0,22041.0,310680.0,277747.0,323840.0,285388.0
2026-04-07 18:05:05.753841,401036,2176114784,2176115830,-1.110688,0.183488,-0.003904,-19.635,7.63,-6.1075,42.072002,3.48,55.088,concentric,6,3.0,22041.0,310680.0,277747.0,323840.0,285388.0
2026-04-07 18:05:05.755407,401037,2176123725,2176124600,-1.110688,0.183488,-0.003904,-20.04625,6.09875,-4.90875,42.072002,3.48,55.088,concentric,6,3.0,22041.0,310680.0,277747.0,323840.0,285388.0
2026-04-07 18:05:05.785696,401038,2176138179,2176139545,-1.098976,0.183488,-0.0488,-17.80625,4.05125,-5.11,42.464,3.088,52.936,concentric,6,3.0,22041.0,310680.0,277747.0,323840.0,285388.0
2026-04-07 18:05:05.788054,401039,2176147074,2176148254,-1.114592,0.226432,-0.025376,-13.0025,3.17625,-5.85375,42.464,3.088,54.600002,concentric,6,3.0,22041.0,310680.0,277747.0,323840.0,285388.0
2026-04-07 18:05:05.792586,401040,2176156008,2176156956,-1.1224,0.226432,-0.025376,-8.12,2.89625,-6.3875,42.992,3.256,54.600002,concentric,6,3.0,22041.0,310680.0,277747.0,323840.0,285388.0
2026-04-07 18:05:05.820800,401051,2176170630,2176171954,-1.104832,0.18544,0.050752,-8.0325,2.9575,-6.71125,42.04,3.224,53.992004,concentric,6,3.0,22300.0,312855.0,279506.0,325654.0,286874.0
2026-04-07 18:05:05.855940,401052,2176179577,2176180730,-1.104832,0.18544,0.050752,-9.89625,3.21125,-4.97875,42.04,3.224,53.992004,concentric,6,3.0,22300.0,312855.0,279506.0,325654.0,286874.0
2026-04-07 18:05:05.859635,401053,2176188620,2176189459,-1.120448,0.130784,0.083936,-11.3925,3.1325,-2.79125,42.04,2.952,54.128002,concentric,6,3.0,22300.0,312855.0,279506.0,325654.0,286874.0
2026-04-07 18:05:05.862757,401054,2176203139,2176204335,-1.120448,0.130784,0.083936,-10.77125,1.89,-1.68875,42.04,2.952,54.128002,concentric,6,3.0,22300.0,312855.0,279506.0,325654.0,286874.0
2026-04-07 18:05:05.864550,401055,2176212067,2176213081,-1.145824,0.122976,0.072224,-9.1525,1.18125,-0.9975,42.592003,3.4,53.128002,concentric,6,3.0,22300.0,312855.0,279506.0,325654.0,286874.0
2026-04-07 18:05:05.867110,401056,2176220996,2176221789,-1.145824,0.122976,0.072224,-6.65,0.455,-0.6125,42.592003,3.4,53.128002,concentric,6,3.0,22300.0,312855.0,279506.0,325654.0,286874.0
2026-04-07 18:05:05.869699,401057,2176229905,2176230498,-1.124352,0.183488,0.031232,-3.255,-0.51625,0.0,42.88,3.752,53.464,concentric,6,3.0,22300.0,312855.0,279506.0,325654.0,286874.0
2026-04-07 18:05:05.874665,401058,2176244703,2176245425,-1.124352,0.183488,0.031232,-0.665,-0.525,-0.28,42.88,3.752,53.464,concentric,6,3.0,22300.0,312855.0,279506.0,325654.0,286874.0
2026-04-07 18:05:05.904789,401059,2176254112,2176256180,-1.10288,0.226432,-0.00976,-1.085,-0.25375,-0.74375,42.848003,3.44,53.104004,concentric,6,3.0,22300.0,312855.0,279506.0,325654.0,286874.0
2026-04-07 18:05:05.908312,401060,2176263113,2176264870,-1.10288,0.226432,-0.00976,-5.78375,-0.42,-0.27125,42.848003,3.44,53.104004,concentric,6,3.0,22300.0,312855.0,279506.0,325654.0,286874.0
2026-04-07 18:05:05.970777,401070,2176277623,2176279798,-1.06384,0.183488,-0.046848,-12.41625,-0.245,-0.42,43.36,3.624,53.032,concentric,6,3.0,22566.0,315455.0,281819.0,328353.0,289157.0
2026-04-07 18:05:05.973312,401071,2176286565,2176288510,-1.06384,0.183488,-0.046848,-17.22875,0.2275,-0.9625,43.36,3.624,53.032,concentric,6,3.0,22566.0,315455.0,281819.0,328353.0,289157.0
2026-04-07 18:05:05.975758,401072,2176295576,2176297200,-1.067744,0.140544,-0.054656,-19.9675,0.8225,-1.88125,42.536003,3.992,54.072002,concentric,6,3.0,22566.0,315455.0,281819.0,328353.0,289157.0
2026-04-07 18:05:05.978391,401073,2176304514,2176305922,-1.067744,0.140544,-0.054656,-18.147501,1.54,-2.8875,42.536003,3.992,54.072002,concentric,6,3.0,22566.0,315455.0,281819.0,328353.0,289157.0
2026-04-07 18:05:05.980766,401074,2176319017,2176320823,-1.077504,0.128832,-0.025376,-13.0025,1.30375,-3.26375,42.36,3.44,53.512,concentric,6,3.0,22566.0,315455.0,281819.0,328353.0,289157.0
2026-04-07 18:05:05.983265,401075,2176327950,2176329556,-1.09312,0.150304,-0.00976,-7.7175,0.2625,-3.535,42.36,3.44,54.160004,concentric,6,3.0,22566.0,315455.0,281819.0,328353.0,289157.0
2026-04-07 18:05:05.985766,401076,2176336940,2176338258,-1.079456,0.150304,-0.00976,-3.85,-0.6125,-3.5,42.688004,4.168,54.160004,concentric,6,3.0,22566.0,315455.0,281819.0,328353.0,289157.0
2026-04-07 18:05:05.988363,401077,2176351476,2176353171,-1.095072,0.181536,-0.003904,-2.98375,-1.79375,-3.5,42.224003,4.176,54.608,concentric,6,3.0,22566.0,315455.0,281819.0,328353.0,289157.0
2026-04-07 18:05:05.990819,401078,2176360468,2176362009,-1.095072,0.181536,-0.003904,-3.42125,-2.73875,-4.54125,42.224003,4.176,54.608,concentric,6,3.0,22566.0,315455.0,281819.0,328353.0,289157.0
2026-04-07 18:05:06.020829,401088,2176369566,2176370778,-1.136064,0.148352,-0.007808,-4.095,-3.395,-5.2675,41.968002,3.52,54.296,concentric,6,3.0,22710.0,317126.0,283509.0,330460.0,291054.0
2026-04-07 18:05:06.023341,401089,2176384357,2176385752,-1.136064,0.148352,-0.007808,-6.7025,-4.54125,-5.1275,41.968002,3.52,54.296,concentric,6,3.0,22710.0,317126.0,283509.0,330460.0,291054.0
2026-04-07 18:05:06.027487,401090,2176393309,2176394572,-1.182912,0.099552,0.0,-8.89,-4.7775,-5.20625,41.848003,4.616,53.304,concentric,6,3.0,22710.0,317126.0,283509.0,330460.0,291054.0
2026-04-07 18:05:06.033746,401091,2176402354,2176403339,-1.182912,0.099552,0.0,-9.05625,-5.62625,-5.53,41.848003,4.616,53.304,concentric,6,3.0,22710.0,317126.0,283509.0,330460.0,291054.0
2026-04-07 18:05:06.065770,401092,2176411416,2176412049,-1.163392,0.074176,0.033184,-7.9975,-6.69375,-5.01375,41.688004,4.64,54.552002,concentric,6,3.0,22710.0,317126.0,283509.0,330460.0,291054.0
2026-04-07 18:05:06.068036,401093,2176426318,2176426943,-1.163392,0.074176,0.033184,-4.7775,-8.4875,-4.03375,41.688004,4.64,54.552002,concentric,6,3.0,22710.0,317126.0,283509.0,330460.0,291054.0
2026-04-07 18:05:06.072656,401094,2176435538,2176437685,-1.057984,0.08784,0.021472,-1.2425,-9.8175,-2.02125,43.096,4.08,54.008003,concentric,6,3.0,22710.0,317126.0,283509.0,330460.0,291054.0
2026-04-07 18:05:06.076200,401095,2176444537,2176446397,-1.057984,0.08784,0.021472,2.5025,-12.11875,-0.83125,43.096,4.08,54.008003,concentric,6,3.0,22710.0,317126.0,283509.0,330460.0,291054.0
2026-04-07 18:05:06.104799,401096,2176458998,2176461305,-1.050176,0.187392,-0.02928,8.0675,-13.440001,-1.1725,42.824,3.592,53.816,concentric,6,3.0,22710.0,317126.0,283509.0,330460.0,291054.0
2026-04-07 18:05:06.139382,401107,2176468120,2176470400,-1.050176,0.187392,-0.02928,11.22625,-12.94125,-2.065,42.824,3.592,53.816,concentric,6,3.0,22961.0,319016.0,284990.0,331923.0,292304.0
2026-04-07 18:05:06.140932,401108,2176477108,2176479225,-0.977952,0.255712,-0.031232,7.4025,-12.0225,-1.4525,42.072002,4.256,55.000004,concentric,6,3.0,22961.0,319016.0,284990.0,331923.0,292304.0
2026-04-07 18:05:06.145175,401109,2176486130,2176487947,-0.977952,0.255712,-0.031232,-4.48,-9.6775,-0.5425,42.072002,4.256,55.000004,concentric,6,3.0,22961.0,319016.0,284990.0,331923.0,292304.0
2026-04-07 18:05:06.146875,401110,2176500648,2176502895,-1.038464,0.21472,-0.044896,-17.21125,-7.245,-0.63875,42.104004,4.08,54.472004,concentric,6,3.0,22961.0,319016.0,284990.0,331923.0,292304.0
2026-04-07 18:05:06.149260,401111,2176509576,2176511607,-1.050176,0.12688,-0.040992,-26.145,-4.33125,-0.245,41.984,5.04,53.408,concentric,6,3.0,22961.0,319016.0,284990.0,331923.0,292304.0
2026-04-07 18:05:06.150813,401112,2176518580,2176520303,-1.050176,0.12688,-0.040992,-30.66,-3.4475,-0.0175,41.984,5.04,53.408,concentric,6,3.0,22961.0,319016.0,284990.0,331923.0,292304.0
2026-04-07 18:05:06.184008,401113,2176533072,2176535168,-1.013088,0.074176,-0.003904,-29.79375,-3.08875,-0.60375,42.368004,4.808,54.04,concentric,6,3.0,22961.0,319016.0,284990.0,331923.0,292304.0
2026-04-07 18:05:06.185663,401114,2176542002,2176543910,-1.013088,0.074176,-0.003904,-27.27375,-1.505,-1.4875,42.368004,4.808,54.04,concentric,6,3.0,22961.0,319016.0,284990.0,331923.0,292304.0
2026-04-07 18:05:06.187174,401115,2176550942,2176552607,-1.046272,0.06832,0.046848,-24.33375,-0.79625,-2.89625,42.000004,5.392,55.688004,concentric,6,3.0,22961.0,319016.0,284990.0,331923.0,292304.0
2026-04-07 18:05:06.243315,401116,2176565445,2176567543,-1.046272,0.06832,0.046848,-20.553751,-0.88375,-3.0975,42.000004,5.392,55.688004,concentric,6,3.0,22961.0,319016.0,284990.0,331923.0,292304.0
2026-04-07 18:05:06.270131,401126,2176574442,2176576274,-1.069696,0.081984,0.074176,-15.77625,-1.51375,-2.065,42.224003,5.024,54.192,concentric,6,3.0,22957.0,319279.0,285349.0,332421.0,292709.0
2026-04-07 18:05:06.271775,401127,2176583442,2176584980,-1.069696,0.081984,0.074176,-11.0775,-2.63375,-0.9975,42.224003,5.024,54.192,concentric,6,3.0,22957.0,319279.0,285349.0,332421.0,292709.0
2026-04-07 18:05:06.273473,401128,2176592393,2176593655,-1.026752,0.122976,0.07808,-7.84875,-4.22625,0.27125,42.128002,5.472,54.152004,concentric,6,3.0,22957.0,319279.0,285349.0,332421.0,292709.0
2026-04-07 18:05:06.277585,401129,2176606957,2176608620,-1.026752,0.122976,0.07808,-6.85125,-4.1475,0.8575,42.128002,5.472,54.152004,concentric,6,3.0,22957.0,319279.0,285349.0,332421.0,292709.0
2026-04-07 18:05:06.279375,401130,2176615880,2176617344,-1.001376,0.152256,0.105408,-10.01,-3.2025,0.8575,41.800003,5.24,54.104004,concentric,6,3.0,22957.0,319279.0,285349.0,332421.0,292709.0
2026-04-07 18:05:06.280971,401131,2176624838,2176626040,-1.001376,0.152256,0.105408,-16.9925,-2.56375,0.6825,41.800003,5.24,54.104004,concentric,6,3.0,22957.0,319279.0,285349.0,332421.0,292709.0
2026-04-07 18:05:06.285067,401132,2176639418,2176640966,-1.038464,0.154208,0.070272,-23.26625,-2.07375,0.25375,42.024002,5.064,55.032,concentric,6,3.0,22957.0,319279.0,285349.0,332421.0,292709.0
2026-04-07 18:05:06.286814,401133,2176648435,2176649728,-1.038464,0.154208,0.070272,-26.1275,-1.1725,0.035,42.024002,5.064,55.032,concentric,6,3.0,22957.0,319279.0,285349.0,332421.0,292709.0
2026-04-07 18:05:06.288766,401134,2176657462,2176658435,-1.00528,0.138592,0.025376,-25.7075,-0.525,-0.9975,41.328003,5.744,54.152004,concentric,6,3.0,22957.0,319279.0,285349.0,332421.0,292709.0
2026-04-07 18:05:06.342935,401144,2176672657,2176673560,-0.999424,0.124928,0.017568,-24.42125,0.3325,-1.715,41.616,5.328,53.800003,concentric,6,3.0,23085.0,320124.0,285937.0,332912.0,293131.0
2026-04-07 18:05:06.360238,401145,2176681797,2176682251,-0.999424,0.124928,0.017568,-22.75,1.79375,-3.115,41.616,5.328,53.800003,concentric,6,3.0,23085.0,320124.0,285937.0,332912.0,293131.0
2026-04-07 18:05:06.361885,401146,2176691141,2176693038,-1.009184,0.130784,-0.001952,-20.991251,1.96875,-3.3775,42.272003,6.4,52.528004,concentric,6,3.0,23085.0,320124.0,285937.0,332912.0,293131.0
2026-04-07 18:05:06.364241,401147,2176700110,2176701765,-1.009184,0.130784,-0.001952,-19.36375,3.8325,-3.56125,42.272003,6.4,52.528004,concentric,6,3.0,23085.0,320124.0,285937.0,332912.0,293131.0
2026-04-07 18:05:06.365891,401148,2176714648,2176716692,-1.009184,0.13664,0.06832,-19.6175,4.97,-3.15,42.280003,6.544,53.736004,concentric,6,3.0,23085.0,320124.0,285937.0,332912.0,293131.0
2026-04-07 18:05:06.370059,401149,2176723632,2176725395,-1.009184,0.13664,0.06832,-24.01875,6.51,-1.7325,42.280003,6.544,53.736004,concentric,6,3.0,23085.0,320124.0,285937.0,332912.0,293131.0
2026-04-07 18:05:06.371877,401150,2176732568,2176734063,-0.970144,0.091744,0.05856,-28.665,7.37625,-2.31875,41.896004,6.584,53.368004,concentric,6,3.0,23085.0,320124.0,285937.0,332912.0,293131.0
2026-04-07 18:05:06.373674,401151,2176741537,2176742830,-0.970144,0.091744,0.05856,-31.395,6.74625,-1.54875,41.896004,6.584,53.368004,concentric,6,3.0,23085.0,320124.0,285937.0,332912.0,293131.0
2026-04-07 18:05:06.406921,401152,2176756081,2176757828,-0.958432,0.121024,0.044896,-31.2375,6.965,0.53375,41.584003,6.36,55.224003,concentric,6,3.0,23085.0,320124.0,285937.0,332912.0,293131.0
2026-04-07 18:05:06.407942,401153,2176765009,2176766520,-0.958432,0.121024,0.044896,-29.085001,7.60375,1.42625,41.584003,6.36,55.224003,concentric,6,3.0,23085.0,320124.0,285937.0,332912.0,293131.0
2026-04-07 18:05:06.436752,401164,2176774050,2176775213,-1.013088,0.12688,0.052704,-27.1075,8.47,1.715,42.624,6.024,53.320004,eccentric,6,3.0,23603.0,324383.0,289572.0,336908.0,296484.0
2026-04-07 18:05:06.439315,401165,2176788551,2176790264,-1.013088,0.12688,0.052704,-21.09625,8.0325,3.00125,42.624,6.024,53.320004,eccentric,6,3.0,23603.0,324383.0,289572.0,336908.0,296484.0
2026-04-07 18:05:06.440882,401166,2176797512,2176799032,-1.013088,0.179584,0.042944,-8.72375,6.39625,4.83,41.736004,6.408001,52.824,eccentric,6,3.0,23603.0,324383.0,289572.0,336908.0,296484.0
2026-04-07 18:05:06.444952,401167,2176806495,2176807759,-1.013088,0.179584,0.042944,5.62625,5.66125,6.97375,41.736004,6.408001,52.824,eccentric,6,3.0,23603.0,324383.0,289572.0,336908.0,296484.0
2026-04-07 18:05:06.473500,401168,2176821023,2176822632,-0.96624,0.20496,0.00976,11.165,5.55625,7.13125,41.792004,6.264,53.976,eccentric,6,3.0,23603.0,324383.0,289572.0,336908.0,296484.0
2026-04-07 18:05:06.478011,401169,2176830027,2176831335,-0.96624,0.152256,0.011712,6.615,7.56875,4.4275,41.792004,6.264,53.976,eccentric,6,3.0,23603.0,324383.0,289572.0,336908.0,296484.0
2026-04-07 18:05:06.479469,401170,2176838951,2176840075,-1.0248,0.152256,0.011712,0.1925,10.03625,-0.07875,43.264004,6.248,52.864002,eccentric,6,3.0,23603.0,324383.0,289572.0,336908.0,296484.0
2026-04-07 18:05:06.484339,401171,2176847849,2176848765,-1.0248,0.152256,0.011712,1.5225,11.8825,-4.55875,43.264004,6.248,52.864002,eccentric,6,3.0,23603.0,324383.0,289572.0,336908.0,296484.0
2026-04-07 18:05:06.543216,401172,2176862378,2176863735,-1.048224,0.193248,0.033184,7.6125,12.73125,-8.5225,43.112003,6.248,53.432003,eccentric,6,3.0,23603.0,324383.0,289572.0,336908.0,296484.0
2026-04-07 18:05:06.570103,401182,2176871363,2176872604,-1.05408,0.21472,0.003904,13.335,13.02875,-11.54125,43.016003,6.584,53.144,eccentric,6,3.0,23910.0,327180.0,291997.0,339741.0,298848.0
2026-04-07 18:05:06.571761,401183,2176880331,2176881295,-1.05408,0.21472,0.003904,14.79625,13.195,-14.16625,43.016003,6.584,53.144,eccentric,6,3.0,23910.0,327180.0,291997.0,339741.0,298848.0
2026-04-07 18:05:06.573316,401184,2176894788,2176896209,-1.0736,0.18544,-0.00976,12.27625,12.87125,-15.785,43.392002,6.456,53.856003,eccentric,6,3.0,23910.0,327180.0,291997.0,339741.0,298848.0
2026-04-07 18:05:06.577597,401185,2176903697,2176904911,-1.0736,0.18544,-0.00976,9.45875,13.265,-16.56375,43.392002,6.456,53.856003,eccentric,6,3.0,23910.0,327180.0,291997.0,339741.0,298848.0
2026-04-07 18:05:06.579302,401186,2176912556,2176913633,-1.077504,0.121024,-0.00976,7.81375,13.9125,-17.745,43.272003,6.384,53.352,eccentric,6,3.0,23910.0,327180.0,291997.0,339741.0,298848.0
2026-04-07 18:05:06.580890,401187,2176927039,2176928517,-1.077504,0.121024,-0.00976,8.39125,14.11375,-18.3225,43.272003,6.384,53.352,eccentric,6,3.0,23910.0,327180.0,291997.0,339741.0,298848.0
2026-04-07 18:05:06.585065,401188,2176936044,2176937263,-1.104832,0.111264,-0.015616,10.91125,14.0175,-18.7075,42.592003,6.08,54.016003,eccentric,6,3.0,23910.0,327180.0,291997.0,339741.0,298848.0
2026-04-07 18:05:06.586621,401189,2176945009,2176945977,-1.104832,0.111264,-0.015616,13.658751,13.93,-18.9525,42.592003,6.08,54.016003,eccentric,6,3.0,23910.0,327180.0,291997.0,339741.0,298848.0
2026-04-07 18:05:06.590368,401190,2176959503,2176960889,-1.106784,0.128832,0.013664,17.61375,14.00875,-17.8675,42.984,5.864,53.344,eccentric,6,3.0,23910.0,327180.0,291997.0,339741.0,298848.0
2026-04-07 18:05:06.620781,401191,2176968441,2176969600,-1.106784,0.128832,0.013664,19.88,13.3,-16.37125,42.984,5.864,53.344,eccentric,6,3.0,23910.0,327180.0,291997.0,339741.0,298848.0
2026-04-07 18:05:06.647676,401201,2176977405,2176978328,-1.134112,0.13664,0.001952,22.18125,12.32875,-15.0675,43.664,5.936,53.600002,eccentric,6,3.0,24538.0,333335.0,297575.0,346438.0,304471.0
2026-04-07 18:05:06.649300,401202,2176986316,2176987022,-1.134112,0.13664,0.001952,22.91625,12.4775,-13.6325,43.664,5.936,53.600002,eccentric,6,3.0,24538.0,333335.0,297575.0,346438.0,304471.0
2026-04-07 18:05:06.651042,401203,2177001320,2177002009,-1.128256,0.158112,0.01952,22.26,11.7075,-13.7375,43.216003,5.56,53.584003,eccentric,6,3.0,24538.0,333335.0,297575.0,346438.0,304471.0
2026-04-07 18:05:06.655067,401204,2177010821,2177012790,-1.128256,0.15616,0.064416,21.385,11.655,-14.665,43.216003,5.56,53.584003,eccentric,6,3.0,24538.0,333335.0,297575.0,346438.0,304471.0
2026-04-07 18:05:06.656657,401205,2177019784,2177021551,-1.114592,0.15616,0.064416,19.60875,11.75125,-15.12,43.336002,5.8,53.920002,eccentric,6,3.0,24538.0,333335.0,297575.0,346438.0,304471.0
2026-04-07 18:05:06.686921,401206,2177034282,2177036491,-1.1224,0.111264,0.076128,17.84125,11.40125,-14.74375,43.288002,5.520001,54.512,eccentric,6,3.0,24538.0,333335.0,297575.0,346438.0,304471.0
2026-04-07 18:05:06.691338,401207,2177043196,2177045204,-1.1224,0.111264,0.076128,17.7275,10.29,-14.07,43.288002,5.520001,54.512,eccentric,6,3.0,24538.0,333335.0,297575.0,346438.0,304471.0
2026-04-07 18:05:06.693128,401208,2177052132,2177053893,-1.120448,0.103456,0.042944,20.83375,8.6275,-13.825,43.544003,5.136,54.304,eccentric,6,3.0,24538.0,333335.0,297575.0,346438.0,304471.0
2026-04-07 18:05:06.694933,401209,2177061143,2177062573,-1.120448,0.103456,0.042944,26.87125,7.62125,-12.1975,43.544003,5.136,54.304,eccentric,6,3.0,24538.0,333335.0,297575.0,346438.0,304471.0
2026-04-07 18:05:06.727170,401220,2177075820,2177077869,-1.08336,0.150304,0.023424,30.63375,6.37875,-11.375,42.928,4.608,55.712,eccentric,6,3.0,25274.0,340521.0,303981.0,354080.0,310844.0
2026-04-07 18:05:06.728488,401221,2177084744,2177086578,-1.08336,0.150304,0.023424,29.8375,6.20375,-11.2525,42.928,4.608,55.712,eccentric,6,3.0,25274.0,340521.0,303981.0,354080.0,310844.0
2026-04-07 18:05:06.732479,401222,2177093808,2177095280,-1.026752,0.169824,0.0,23.0475,7.0,-12.29375,43.592003,4.744,54.336002,eccentric,6,3.0,25274.0,340521.0,303981.0,354080.0,310844.0
2026-04-07 18:05:06.761081,401223,2177108361,2177110278,-1.026752,0.169824,0.0,12.705,7.56875,-13.50125,43.592003,4.744,54.336002,eccentric,6,3.0,25274.0,340521.0,303981.0,354080.0,310844.0
2026-04-07 18:05:06.765501,401224,2177117264,2177118952,-1.0248,0.089792,0.056608,3.0275,7.14875,-12.99375,43.896004,5.12,54.584003,eccentric,6,3.0,25274.0,340521.0,303981.0,354080.0,310844.0
2026-04-07 18:05:06.767957,401225,2177126167,2177127627,-1.0248,0.089792,0.056608,1.09375,5.17125,-11.305,43.896004,5.12,54.584003,eccentric,6,3.0,25274.0,340521.0,303981.0,354080.0,310844.0
2026-04-07 18:05:06.777436,401226,2177140645,2177142527,-1.007232,0.101504,0.003904,4.61125,3.36,-9.9225,43.056004,5.136,54.408,eccentric,6,3.0,25274.0,340521.0,303981.0,354080.0,310844.0
2026-04-07 18:05:06.783678,401227,2177149569,2177151279,-1.007232,0.101504,0.003904,12.005,2.3625,-7.9625,43.056004,5.136,54.408,eccentric,6,3.0,25274.0,340521.0,303981.0,354080.0,310844.0
2026-04-07 18:05:06.849464,401228,2177159174,2177160040,-1.028704,0.208864,-0.0488,19.20625,3.10625,-6.6325,43.464,4.296,55.792004,eccentric,6,3.0,25274.0,340521.0,303981.0,354080.0,310844.0
2026-04-07 18:05:06.853954,401229,2177168156,2177168769,-1.028704,0.208864,-0.0488,20.30875,4.41875,-6.06375,43.464,4.296,55.792004,eccentric,6,3.0,25274.0,340521.0,303981.0,354080.0,310844.0
2026-04-07 18:05:06.895854,401239,2177183047,2177183723,-1.071648,0.25376,-0.03904,16.52,6.8425,-6.475,42.944,4.44,55.280003,eccentric,6,3.0,26515.0,351646.0,313378.0,365165.0,319877.0
2026-04-07 18:05:06.900102,401240,2177192307,2177194467,-1.108736,0.26352,-0.023424,12.41625,9.073751,-6.9125,43.448,4.608,54.384003,eccentric,6,3.0,26515.0,351646.0,313378.0,365165.0,319877.0
2026-04-07 18:05:06.901742,401241,2177201253,2177203153,-1.108736,0.26352,-0.023424,10.675,10.91125,-8.09375,43.448,4.608,54.384003,eccentric,6,3.0,26515.0,351646.0,313378.0,365165.0,319877.0
2026-04-07 18:05:06.903276,401242,2177210162,2177211852,-1.108736,0.26352,-0.023424,9.66,12.01375,-9.5725,43.448,4.608,54.384003,eccentric,6,3.0,26515.0,351646.0,313378.0,365165.0,319877.0
2026-04-07 18:05:06.906011,401243,2177224652,2177226731,-1.1712,0.244,-0.011712,9.835,13.13375,-11.165,43.528004,4.288,54.08,eccentric,6,3.0,26515.0,351646.0,313378.0,365165.0,319877.0
2026-04-07 18:05:06.909298,401244,2177233651,2177235494,-1.21024,0.206912,-0.025376,11.78625,13.5975,-13.5275,43.712,4.4,53.512,eccentric,6,3.0,26515.0,351646.0,313378.0,365165.0,319877.0
2026-04-07 18:05:06.910799,401245,2177242593,2177244233,-1.21024,0.206912,-0.025376,13.9125,14.14875,-15.6975,43.712,4.4,53.512,eccentric,6,3.0,26515.0,351646.0,313378.0,365165.0,319877.0
2026-04-07 18:05:06.915093,401246,2177257139,2177259157,-1.225856,0.177632,-0.046848,16.1,14.0525,-18.3925,43.488003,4.112,56.160004,eccentric,6,3.0,26515.0,351646.0,313378.0,365165.0,319877.0
2026-04-07 18:05:06.916787,401247,2177266127,2177267878,-1.225856,0.177632,-0.046848,18.6375,13.92125,-20.58,43.488003,4.112,56.160004,eccentric,6,3.0,26515.0,351646.0,313378.0,365165.0,319877.0
2026-04-07 18:05:06.942575,401257,2177275764,2177276981,-1.253184,0.167872,-0.056608,20.71125,13.545,-21.7525,44.04,4.088,56.312004,eccentric,6,3.0,26509.0,351764.0,313601.0,365341.0,319888.0
2026-04-07 18:05:06.944301,401258,2177284818,2177285728,-1.253184,0.167872,-0.056608,23.23125,13.86875,-21.34125,44.04,4.088,56.312004,eccentric,6,3.0,26509.0,351764.0,313601.0,365341.0,319888.0
2026-04-07 18:05:06.945861,401259,2177299384,2177300680,-1.294176,0.134688,-0.021472,24.29875,14.06125,-19.6,43.824,3.904,56.88,eccentric,6,3.0,26509.0,351764.0,313601.0,365341.0,319888.0
2026-04-07 18:05:06.950333,401260,2177308334,2177309457,-1.294176,0.134688,-0.021472,23.65125,13.0025,-16.205,43.824,3.904,56.88,eccentric,6,3.0,26509.0,351764.0,313601.0,365341.0,319888.0
2026-04-07 18:05:06.956180,401261,2177317302,2177318141,-1.35664,0.099552,-0.050752,22.82,11.90875,-13.3525,43.216003,3.224,57.416004,eccentric,6,3.0,26509.0,351764.0,313601.0,365341.0,319888.0
2026-04-07 18:05:06.984817,401262,2177331853,2177333158,-1.35664,0.099552,-0.050752,23.3275,10.85875,-9.82625,43.216003,3.224,57.416004,eccentric,6,3.0,26509.0,351764.0,313601.0,365341.0,319888.0
2026-04-07 18:05:06.988423,401263,2177340816,2177341871,-1.428864,0.074176,-0.066368,26.495,10.92875,-8.61875,43.312,3.24,55.344,eccentric,6,3.0,26509.0,351764.0,313601.0,365341.0,319888.0
2026-04-07 18:05:06.991215,401264,2177349759,2177350589,-1.428864,0.074176,-0.066368,34.3875,11.655,-8.00625,43.312,3.24,55.344,eccentric,6,3.0,26509.0,351764.0,313601.0,365341.0,319888.0
2026-04-07 18:05:06.996709,401265,2177364295,2177365492,-1.432768,0.179584,-0.011712,42.6475,12.565,-7.67375,44.016003,2.328,59.160004,eccentric,6,3.0,26509.0,351764.0,313601.0,365341.0,319888.0
2026-04-07 18:05:07.056807,401276,2177373277,2177374269,-1.432768,0.218624,0.070272,42.56,13.32625,-7.28875,43.952003,2.592,56.376003,eccentric,6,3.0,26675.0,351336.0,312357.0,363277.0,317821.0
2026-04-07 18:05:07.058360,401277,2177382328,2177383058,-1.432768,0.218624,0.070272,36.39125,13.02875,-7.44625,43.952003,2.592,56.376003,eccentric,6,3.0,26675.0,351336.0,312357.0,363277.0,317821.0
2026-04-07 18:05:07.062736,401278,2177391707,2177393838,-1.432768,0.218624,0.070272,25.34875,13.18625,-5.62625,43.952003,2.592,56.376003,eccentric,6,3.0,26675.0,351336.0,312357.0,363277.0,317821.0
2026-04-07 18:05:07.066812,401279,2177406247,2177406712,-1.44448,0.21472,0.042944,14.595,12.66125,-3.47375,43.272003,2.256,59.280003,eccentric,6,3.0,26675.0,351336.0,312357.0,363277.0,317821.0
2026-04-07 18:05:07.068331,401280,2177415654,2177417534,-1.50304,0.144448,-0.042944,8.1025,12.10125,-2.93125,44.424004,2.52,55.048004,eccentric,6,3.0,26675.0,351336.0,312357.0,363277.0,317821.0
2026-04-07 18:05:07.070809,401281,2177424610,2177426285,-1.50304,0.144448,-0.042944,8.925,11.698751,-3.24625,44.424004,2.52,55.048004,eccentric,6,3.0,26675.0,351336.0,312357.0,363277.0,317821.0
2026-04-07 18:05:07.074218,401282,2177439199,2177441269,-1.510848,0.148352,-0.093696,12.1275,11.36625,-3.465,44.552002,2.984,56.904003,eccentric,6,3.0,26675.0,351336.0,312357.0,363277.0,317821.0
2026-04-07 18:05:07.080449,401283,2177448127,2177449985,-1.510848,0.148352,-0.093696,16.1875,10.92875,-4.2,44.552002,2.984,56.904003,eccentric,6,3.0,26675.0,351336.0,312357.0,363277.0,317821.0
2026-04-07 18:05:07.150735,401284,2177457068,2177458741,-1.47376,0.115168,-0.035136,18.27,10.29875,-5.03125,44.68,2.32,56.128002,eccentric,6,3.0,26675.0,351336.0,312357.0,363277.0,317821.0
2026-04-07 18:05:07.153218,401285,2177465993,2177467409,-1.47376,0.115168,-0.035136,20.8075,8.28625,-3.73625,44.68,2.32,56.128002,eccentric,6,3.0,26675.0,351336.0,312357.0,363277.0,317821.0
2026-04-07 18:05:07.182196,401295,2177480552,2177482357,-1.456192,0.070272,0.015616,23.616251,5.62625,-3.01875,43.896004,1.472,56.976,eccentric,6,3.0,26114.0,344980.0,306329.0,355743.0,311348.0
2026-04-07 18:05:07.186381,401296,2177489492,2177491085,-1.456192,0.070272,0.015616,24.92,4.24375,-1.7675,43.896004,1.472,56.976,eccentric,6,3.0,26114.0,344980.0,306329.0,355743.0,311348.0
2026-04-07 18:05:07.187984,401297,2177498423,2177499772,-1.442528,0.08784,0.007808,30.9225,2.93125,-0.88375,43.480003,1.384,58.816,eccentric,6,3.0,26114.0,344980.0,306329.0,355743.0,311348.0
2026-04-07 18:05:07.189597,401298,2177513002,2177514661,-1.442528,0.08784,0.007808,34.895,3.26375,-2.03875,43.480003,1.384,58.816,eccentric,6,3.0,26114.0,344980.0,306329.0,355743.0,311348.0
2026-04-07 18:05:07.193807,401299,2177522007,2177523350,-1.4152,0.148352,0.007808,35.49875,3.73625,-2.065,43.008003,0.992,58.88,eccentric,6,3.0,26114.0,344980.0,306329.0,355743.0,311348.0
2026-04-07 18:05:07.195553,401300,2177531152,2177532095,-1.4152,0.148352,0.007808,33.92375,4.10375,-2.1175,43.008003,0.992,58.88,eccentric,6,3.0,26114.0,344980.0,306329.0,355743.0,311348.0
2026-04-07 18:05:07.197229,401301,2177545741,2177547080,-1.387872,0.187392,-0.001952,29.42625,4.45375,-2.205,43.408,1.36,57.256004,eccentric,6,3.0,26114.0,344980.0,306329.0,355743.0,311348.0
2026-04-07 18:05:07.201312,401302,2177554785,2177555861,-1.382016,0.183488,-0.031232,22.3125,5.3375,-2.59,44.72,1.632,56.528004,eccentric,6,3.0,26114.0,344980.0,306329.0,355743.0,311348.0
2026-04-07 18:05:07.203114,401303,2177563870,2177564582,-1.382016,0.183488,-0.031232,14.323751,6.5625,-3.77125,44.72,1.632,56.528004,eccentric,6,3.0,26114.0,344980.0,306329.0,355743.0,311348.0
2026-04-07 18:05:07.232601,401313,2177573260,2177575310,-1.382016,0.152256,-0.060512,6.39625,7.02625,-3.99,44.72,1.632,56.528004,eccentric,6,3.0,26486.0,346530.0,306872.0,356318.0,312021.0
2026-04-07 18:05:07.234360,401314,2177588308,2177590383,-1.344928,0.148352,-0.060512,0.1225,6.15125,-4.78625,43.872,1.896,58.640003,eccentric,6,3.0,26486.0,346530.0,306872.0,356318.0,312021.0
2026-04-07 18:05:07.236748,401315,2177597249,2177599121,-1.333216,0.085888,-0.085888,-2.68625,5.4425,-5.075,43.800003,1.928,56.624004,eccentric,6,3.0,26486.0,346530.0,306872.0,356318.0,312021.0
2026-04-07 18:05:07.238340,401316,2177606170,2177607803,-1.333216,0.085888,-0.085888,-0.76125,4.57625,-5.64375,43.800003,1.928,56.624004,eccentric,6,3.0,26486.0,346530.0,306872.0,356318.0,312021.0
2026-04-07 18:05:07.269402,401317,2177615128,2177616584,-1.290272,0.083936,-0.103456,4.01625,2.87,-5.915,43.472004,1.208,56.392002,eccentric,6,3.0,26486.0,346530.0,306872.0,356318.0,312021.0
2026-04-07 18:05:07.271781,401318,2177629618,2177631468,-1.290272,0.083936,-0.103456,9.7125,1.39125,-5.95875,43.472004,1.208,56.392002,eccentric,6,3.0,26486.0,346530.0,306872.0,356318.0,312021.0
2026-04-07 18:05:07.276315,401319,2177638564,2177640187,-1.262944,0.105408,-0.08784,15.365,0.70875,-5.39,43.36,1.32,58.176003,eccentric,6,3.0,26486.0,346530.0,306872.0,356318.0,312021.0
2026-04-07 18:05:07.280402,401320,2177647482,2177648893,-1.262944,0.105408,-0.08784,19.76625,-0.98,-4.7075,43.36,1.32,58.176003,eccentric,6,3.0,26486.0,346530.0,306872.0,356318.0,312021.0
2026-04-07 18:05:07.310716,401321,2177661974,2177663858,-1.223904,0.132736,-0.070272,21.98875,-2.0475,-4.375,43.480003,1.672,56.520004,eccentric,6,3.0,26486.0,346530.0,306872.0,356318.0,312021.0
2026-04-07 18:05:07.314477,401322,2177670923,2177672551,-1.223904,0.132736,-0.070272,21.385,-2.72125,-3.22,43.480003,1.672,56.520004,eccentric,6,3.0,26486.0,346530.0,306872.0,356318.0,312021.0
2026-04-07 18:05:07.348864,401333,2177680037,2177681357,-1.202432,0.148352,-0.062464,18.515,-3.29,-2.59,43.584003,1.504,54.704002,eccentric,6,3.0,25987.0,342223.0,303107.0,351350.0,307461.0
2026-04-07 18:05:07.350553,401334,2177694588,2177696292,-1.173152,0.142496,-0.089792,15.46125,-4.7775,-2.485,42.832,1.504,56.960003,eccentric,6,3.0,25987.0,342223.0,303107.0,351350.0,307461.0
2026-04-07 18:05:07.352116,401335,2177703536,2177705043,-1.173152,0.142496,-0.089792,13.7725,-6.37875,-2.54625,42.832,1.504,56.960003,eccentric,6,3.0,25987.0,342223.0,303107.0,351350.0,307461.0
2026-04-07 18:05:07.356333,401336,2177712505,2177713805,-1.173152,0.142496,-0.089792,13.72875,-7.56,-2.4325,42.832,1.504,56.960003,eccentric,6,3.0,25987.0,342223.0,303107.0,351350.0,307461.0
2026-04-07 18:05:07.358779,401337,2177721599,2177722589,-1.143872,0.171776,-0.105408,14.49,-8.2775,-2.28375,43.504,2.024,57.608,eccentric,6,3.0,25987.0,342223.0,303107.0,351350.0,307461.0
2026-04-07 18:05:07.387363,401338,2177736160,2177737635,-1.098976,0.160064,-0.076128,14.63,-8.89875,-3.01875,42.480003,1.688,54.288002,eccentric,6,3.0,25987.0,342223.0,303107.0,351350.0,307461.0
2026-04-07 18:05:07.391780,401339,2177745067,2177746334,-1.098976,0.160064,-0.076128,12.87125,-10.07125,-2.66875,42.480003,1.688,54.288002,eccentric,6,3.0,25987.0,342223.0,303107.0,351350.0,307461.0
2026-04-07 18:05:07.393353,401340,2177753956,2177755040,-1.098976,0.160064,-0.054656,9.6075,-11.48875,-2.05625,42.480003,1.688,54.288002,eccentric,6,3.0,25987.0,342223.0,303107.0,351350.0,307461.0
2026-04-07 18:05:07.401299,401341,2177768742,2177770036,-1.048224,0.115168,-0.054656,6.86,-12.46,-1.5575,42.952003,1.864,55.192,eccentric,6,3.0,25987.0,342223.0,303107.0,351350.0,307461.0
2026-04-07 18:05:07.461767,401351,2177778249,2177778854,-0.993568,0.091744,-0.064416,6.405,-14.46375,-1.04125,42.624,1.776,54.592003,eccentric,6,3.0,25135.0,335352.0,297441.0,344384.0,301326.0
2026-04-07 18:05:07.463335,401352,2177787493,2177789654,-0.993568,0.091744,-0.064416,9.4675,-16.93125,-0.3325,42.624,1.776,54.592003,eccentric,6,3.0,25135.0,335352.0,297441.0,344384.0,301326.0
2026-04-07 18:05:07.467706,401353,2177796427,2177798301,-0.931104,0.13664,-0.076128,14.07,-18.8825,0.8225,41.800003,1.432,56.672,eccentric,6,3.0,25135.0,335352.0,297441.0,344384.0,301326.0
2026-04-07 18:05:07.469282,401354,2177810913,2177813210,-0.931104,0.13664,-0.076128,16.975,-20.0025,2.0825,41.800003,1.432,56.672,eccentric,6,3.0,25135.0,335352.0,297441.0,344384.0,301326.0
2026-04-07 18:05:07.470862,401355,2177819817,2177821938,-0.866688,0.144448,-0.056608,14.95375,-20.62375,3.2375,41.648003,1.384,54.88,eccentric,6,3.0,25135.0,335352.0,297441.0,344384.0,301326.0
2026-04-07 18:05:07.475081,401356,2177828771,2177830638,-0.866688,0.144448,-0.056608,8.295,-21.4375,4.1125,41.648003,1.384,54.88,eccentric,6,3.0,25135.0,335352.0,297441.0,344384.0,301326.0
2026-04-07 18:05:07.476707,401357,2177843466,2177845656,-0.851072,0.10736,-0.093696,0.84875,-21.2975,4.8825,40.928,1.208,56.760002,eccentric,6,3.0,25135.0,335352.0,297441.0,344384.0,301326.0
2026-04-07 18:05:07.508848,401358,2177852421,2177854395,-0.851072,0.10736,-0.093696,-2.05625,-21.48125,5.46,40.928,1.208,56.760002,eccentric,6,3.0,25135.0,335352.0,297441.0,344384.0,301326.0
2026-04-07 18:05:07.510623,401359,2177861348,2177863079,-0.796416,0.091744,-0.06832,-1.435,-22.46125,6.79,40.976,1.776,55.608,eccentric,6,3.0,25135.0,335352.0,297441.0,344384.0,301326.0
2026-04-07 18:05:07.536343,401369,2177875965,2177878209,-0.757376,0.074176,-0.054656,0.3325,-23.98375,8.05875,41.488003,1.696,54.160004,eccentric,6,3.0,24186.0,328071.0,291780.0,337989.0,295870.0
2026-04-07 18:05:07.538060,401370,2177884950,2177886938,-0.757376,0.074176,-0.054656,0.455,-24.6925,9.77375,41.488003,1.696,54.160004,eccentric,6,3.0,24186.0,328071.0,291780.0,337989.0,295870.0
2026-04-07 18:05:07.539619,401371,2177893880,2177895693,-0.757376,0.074176,-0.054656,-1.225,-25.26125,11.34,41.488003,1.696,54.160004,eccentric,6,3.0,24186.0,328071.0,291780.0,337989.0,295870.0
2026-04-07 18:05:07.543704,401372,2177902899,2177904416,-0.724192,0.060512,-0.046848,-1.26,-26.04,12.4775,40.920002,1.456,54.776,eccentric,6,3.0,24186.0,328071.0,291780.0,337989.0,295870.0
2026-04-07 18:05:07.572265,401373,2177917444,2177919358,-0.732,0.091744,-0.0488,0.37625,-26.18,13.55375,40.440002,1.816,55.032,eccentric,6,3.0,24186.0,328071.0,291780.0,337989.0,295870.0
2026-04-07 18:05:07.576804,401374,2177926351,2177928087,-0.732,0.091744,-0.0488,3.52625,-25.725,14.30625,40.440002,1.816,55.032,eccentric,6,3.0,24186.0,328071.0,291780.0,337989.0,295870.0
2026-04-07 18:05:07.579285,401375,2177935265,2177936794,-0.69296,0.11712,-0.021472,6.4575,-25.59375,14.14875,40.440002,1.816,55.832005,eccentric,6,3.0,24186.0,328071.0,291780.0,337989.0,295870.0
2026-04-07 18:05:07.581683,401376,2177949744,2177951684,-0.69296,0.11712,-0.021472,7.91875,-25.445,14.11375,40.056004,0.864,55.832005,eccentric,6,3.0,24186.0,328071.0,291780.0,337989.0,295870.0
2026-04-07 18:05:07.611956,401377,2177958712,2177960421,-0.667584,0.122976,0.005856,7.98875,-24.24625,13.32625,39.912003,0.8,55.832005,eccentric,6,3.0,24186.0,328071.0,291780.0,337989.0,295870.0
2026-04-07 18:05:07.614255,401378,2177967640,2177969092,-0.667584,0.122976,0.005856,9.24,-23.5025,12.8275,39.912003,0.8,55.832005,eccentric,6,3.0,24186.0,328071.0,291780.0,337989.0,295870.0
2026-04-07 18:05:07.644649,401389,2177982276,2177984112,-0.685152,0.150304,0.001952,11.22625,-22.785,11.2875,39.472,0.696,55.160004,eccentric,6,3.0,23393.0,322102.0,287027.0,332952.0,291658.0
2026-04-07 18:05:07.648842,401390,2177991246,2177992962,-0.685152,0.150304,0.001952,13.055,-21.65625,9.21375,39.472,0.696,55.160004,eccentric,6,3.0,23393.0,322102.0,287027.0,332952.0,291658.0
2026-04-07 18:05:07.650539,401391,2178000264,2178001803,-0.700768,0.206912,0.01952,16.0475,-18.55,5.6,39.928,0.2,56.344,eccentric,6,3.0,23393.0,322102.0,287027.0,332952.0,291658.0
2026-04-07 18:05:07.652093,401392,2178009299,2178010558,-0.700768,0.206912,0.01952,16.66875,-15.65375,0.84,39.928,0.2,56.344,eccentric,6,3.0,23393.0,322102.0,287027.0,332952.0,291658.0
2026-04-07 18:05:07.657522,401393,2178023901,2178025536,-0.72224,0.255712,0.040992,14.83125,-12.95,-4.78625,39.384003,0.44,56.192,eccentric,6,3.0,23393.0,322102.0,287027.0,332952.0,291658.0
2026-04-07 18:05:07.686637,401394,2178032826,2178034261,-0.72224,0.255712,0.040992,10.87625,-9.59875,-10.71,39.384003,0.44,56.192,eccentric,6,3.0,23393.0,322102.0,287027.0,332952.0,291658.0
2026-04-07 18:05:07.690494,401395,2178041770,2178042981,-0.827648,0.290848,0.033184,6.16,-4.97,-15.67125,38.992,0.568,55.496002,eccentric,6,3.0,23393.0,322102.0,287027.0,332952.0,291658.0
2026-04-07 18:05:07.691972,401396,2178056266,2178057863,-0.860832,0.275232,0.056608,0.86625,-1.04125,-21.67375,38.960003,1.408,55.408,eccentric,6,3.0,23393.0,322102.0,287027.0,332952.0,291658.0
2026-04-07 18:05:07.698751,401397,2178065172,2178066572,-0.860832,0.275232,0.056608,-4.52375,1.86375,-27.79,38.960003,1.408,55.408,eccentric,6,3.0,23393.0,322102.0,287027.0,332952.0,291658.0
2026-04-07 18:05:07.740814,401398,2178074106,2178075280,-0.860832,0.275232,0.056608,-9.54625,3.42125,-32.0775,38.960003,1.408,55.408,eccentric,6,3.0,23393.0,322102.0,287027.0,332952.0,291658.0
2026-04-07 18:05:07.766231,401408,2178088593,2178090242,-0.894016,0.18544,0.042944,-12.78375,2.73,-34.51875,39.0,1.56,55.432003,eccentric,6,3.0,23288.0,320796.0,285859.0,331703.0,290691.0
2026-04-07 18:05:07.770288,401409,2178097520,2178098931,-0.905728,0.103456,0.021472,-11.7075,2.1175,-34.08125,38.36,1.28,55.664,eccentric,6,3.0,23288.0,320796.0,285859.0,331703.0,290691.0
2026-04-07 18:05:07.776359,401410,2178106430,2178107688,-0.905728,0.103456,0.021472,-8.8375,1.53125,-31.5875,38.36,1.28,55.664,eccentric,6,3.0,23288.0,320796.0,285859.0,331703.0,290691.0
2026-04-07 18:05:07.778043,401411,2178121057,2178122691,-0.892064,0.015616,0.007808,-6.48375,0.5425,-28.0175,38.808002,1.824,55.2,eccentric,6,3.0,23288.0,320796.0,285859.0,331703.0,290691.0
2026-04-07 18:05:07.779640,401412,2178130081,2178131450,-0.892064,0.015616,0.007808,-3.59625,0.23625,-24.21125,38.808002,1.824,55.2,eccentric,6,3.0,23288.0,320796.0,285859.0,331703.0,290691.0
2026-04-07 18:05:07.783929,401413,2178139026,2178140221,-0.913536,-0.007808,-0.011712,0.0,-0.0875,-19.71375,38.704002,1.584,55.264004,eccentric,6,3.0,23288.0,320796.0,285859.0,331703.0,290691.0
2026-04-07 18:05:07.786356,401414,2178148026,2178148916,-0.913536,-0.007808,-0.011712,5.5825,0.28,-14.77875,38.704002,1.584,55.264004,eccentric,6,3.0,23288.0,320796.0,285859.0,331703.0,290691.0
2026-04-07 18:05:07.818286,401415,2178162560,2178163864,-0.880352,0.035136,0.015616,11.82125,0.6475,-10.42125,38.216003,1.344,56.336002,eccentric,6,3.0,23288.0,320796.0,285859.0,331703.0,290691.0
2026-04-07 18:05:07.820465,401416,2178171514,2178172580,-0.880352,0.035136,0.015616,17.57,0.245,-5.87125,38.216003,1.344,56.336002,eccentric,6,3.0,23288.0,320796.0,285859.0,331703.0,290691.0
2026-04-07 18:05:07.846097,401426,2178181099,2178183400,-0.85888,0.074176,0.072224,21.06125,0.3675,-1.33875,39.024002,1.616,55.280003,eccentric,6,3.0,23030.0,318631.0,284045.0,329724.0,289065.0
2026-04-07 18:05:07.850056,401427,2178190127,2178192095,-0.85888,0.074176,0.072224,27.34375,0.46375,2.42375,39.024002,1.616,55.280003,eccentric,6,3.0,23030.0,318631.0,284045.0,329724.0,289065.0
2026-04-07 18:05:07.851782,401428,2178204692,2178206997,-0.882304,0.07808,0.1464,33.71375,0.48125,5.5475,38.624,0.92,55.104004,eccentric,6,3.0,23030.0,318631.0,284045.0,329724.0,289065.0
2026-04-07 18:05:07.853350,401429,2178213699,2178215759,-0.882304,0.07808,0.1464,37.9225,0.48125,7.90125,38.624,0.92,55.104004,eccentric,6,3.0,23030.0,318631.0,284045.0,329724.0,289065.0
2026-04-07 18:05:07.857490,401430,2178222715,2178224491,-0.93696,0.091744,0.220576,42.201252,0.70875,8.42625,38.368,0.424,55.424004,eccentric,6,3.0,23030.0,318631.0,284045.0,329724.0,289065.0
2026-04-07 18:05:07.888205,401431,2178237246,2178239398,-1.001376,0.162016,0.261568,49.105,1.37375,7.07,38.528004,-0.544,55.824,eccentric,6,3.0,23030.0,318631.0,284045.0,329724.0,289065.0
2026-04-07 18:05:07.890492,401432,2178246194,2178248083,-1.001376,0.162016,0.261568,57.33875,1.46125,5.0225,38.528004,-0.544,55.824,eccentric,6,3.0,23030.0,318631.0,284045.0,329724.0,289065.0
2026-04-07 18:05:07.895136,401433,2178255112,2178256757,-1.001376,0.162016,0.261568,64.4,1.49625,1.015,38.528004,-0.544,55.824,eccentric,6,3.0,23030.0,318631.0,284045.0,329724.0,289065.0
2026-04-07 18:05:07.924159,401434,2178269764,2178271716,-1.038464,0.298656,0.277184,62.5975,0.56875,-3.5175,38.72,-0.728,59.120003,eccentric,6,3.0,23030.0,318631.0,284045.0,329724.0,289065.0
2026-04-07 18:05:07.949681,401444,2178279159,2178280517,-1.056032,0.2928,0.22448,54.32,-0.93625,-7.49,39.024002,-1.208,56.544003,eccentric,6,3.0,24269.0,328189.0,291400.0,337451.0,295467.0
2026-04-07 18:05:07.953924,401445,2178288178,2178289265,-1.056032,0.2928,0.22448,45.68375,-1.19,-11.865,39.024002,-1.208,56.544003,eccentric,6,3.0,24269.0,328189.0,291400.0,337451.0,295467.0
2026-04-07 18:05:07.955587,401446,2178297122,2178297926,-1.097024,0.083936,0.216672,38.255,0.175,-16.45875,36.976,-1.0,56.480003,eccentric,6,3.0,24269.0,328189.0,291400.0,337451.0,295467.0
2026-04-07 18:05:07.957197,401447,2178311733,2178312919,-1.097024,0.083936,0.216672,32.68125,1.5225,-22.75,38.4,-1.0,56.480003,eccentric,6,3.0,24269.0,328189.0,291400.0,337451.0,295467.0
2026-04-07 18:05:07.961410,401448,2178320713,2178321785,-1.130208,-0.044896,0.245952,29.12,2.8175,-29.435,38.008003,-1.448,56.032,eccentric,6,3.0,24269.0,328189.0,291400.0,337451.0,295467.0
2026-04-07 18:05:07.962992,401449,2178329699,2178330520,-1.130208,-0.044896,0.245952,26.285,3.47375,-35.2975,38.008003,-1.448,56.032,eccentric,6,3.0,24269.0,328189.0,291400.0,337451.0,295467.0
2026-04-07 18:05:07.993142,401450,2178344262,2178345433,-1.114592,0.02928,0.20496,24.63125,3.7275,-38.92875,38.216003,-1.504,56.416004,eccentric,6,3.0,24269.0,328189.0,291400.0,337451.0,295467.0
2026-04-07 18:05:07.995457,401451,2178353174,2178354127,-1.114592,0.02928,0.20496,24.57875,2.8175,-38.89375,38.216003,-1.504,56.416004,eccentric,6,3.0,24269.0,328189.0,291400.0,337451.0,295467.0
2026-04-07 18:05:08.000909,401452,2178362157,2178362893,-1.05408,0.150304,0.121024,22.4,2.45,-35.11375,38.320004,-1.424,56.640003,eccentric,6,3.0,24269.0,328189.0,291400.0,337451.0,295467.0
2026-04-07 18:05:08.004193,401453,2178371489,2178373654,-1.05408,0.150304,0.121024,13.86875,2.9575,-29.14625,38.320004,-1.424,56.640003,eccentric,6,3.0,24269.0,328189.0,291400.0,337451.0,295467.0
2026-04-07 18:05:08.074363,401464,2178386219,2178386611,-1.032608,0.140544,0.035136,0.02625,3.22875,-22.35625,38.104,-1.104,57.360004,eccentric,6,3.0,23925.0,325260.0,288788.0,334329.0,292664.0
2026-04-07 18:05:08.075818,401465,2178395472,2178397369,-1.032608,0.140544,0.035136,-13.335,3.85,-15.627501,38.104,-1.104,57.360004,eccentric,6,3.0,23925.0,325260.0,288788.0,334329.0,292664.0
2026-04-07 18:05:08.080055,401466,2178404410,2178406059,-1.03456,0.122976,-0.017568,-20.32625,4.7425,-9.86125,38.56,-1.04,57.536003,eccentric,6,3.0,23925.0,325260.0,288788.0,334329.0,292664.0
2026-04-07 18:05:08.081740,401467,2178418886,2178420995,-1.06384,0.15616,0.005856,-20.13375,4.9875,-5.005,38.248,-0.744,56.224003,eccentric,6,3.0,23925.0,325260.0,288788.0,334329.0,292664.0
2026-04-07 18:05:08.084397,401468,2178427834,2178429705,-1.06384,0.15616,0.005856,-13.7725,4.7075,-1.28625,38.248,-0.744,56.224003,eccentric,6,3.0,23925.0,325260.0,288788.0,334329.0,292664.0
2026-04-07 18:05:08.087249,401469,2178436856,2178438405,-1.06384,0.15616,0.005856,-3.73625,4.06,0.30625,38.248,-0.744,56.224003,eccentric,6,3.0,23925.0,325260.0,288788.0,334329.0,292664.0
2026-04-07 18:05:08.090057,401470,2178445790,2178447087,-1.061888,0.173728,0.064416,5.76625,3.07125,0.035,37.944,-1.408,57.544003,eccentric,6,3.0,23925.0,325260.0,288788.0,334329.0,292664.0
2026-04-07 18:05:08.092439,401471,2178460335,2178462084,-1.030656,0.1952,0.085888,14.84,1.82875,0.06125,38.2,-1.304,57.064003,eccentric,6,3.0,23925.0,325260.0,288788.0,334329.0,292664.0
2026-04-07 18:05:08.121051,401472,2178469298,2178470795,-1.030656,0.1952,0.085888,23.03875,1.16375,-0.49875,38.2,-1.304,57.064003,eccentric,6,3.0,23925.0,325260.0,288788.0,334329.0,292664.0
2026-04-07 18:05:08.147226,401482,2178478199,2178479450,-0.983808,0.236192,0.06832,30.161251,0.67375,-0.9625,38.032,-1.336,56.344,eccentric,6,3.0,23649.0,323604.0,287956.0,333823.0,292504.0
2026-04-07 18:05:08.151327,401483,2178493324,2178494361,-0.983808,0.236192,0.06832,33.985,1.05875,-1.51375,38.032,-1.336,56.344,eccentric,6,3.0,23649.0,323604.0,287956.0,333823.0,292504.0
2026-04-07 18:05:08.153047,401484,2178502352,2178503097,-0.983808,0.271328,0.031232,32.576252,2.38,-1.95125,38.336002,-1.64,57.016003,eccentric,6,3.0,23649.0,323604.0,287956.0,333823.0,292504.0
2026-04-07 18:05:08.154744,401485,2178511817,2178513889,-0.983808,0.271328,0.031232,28.9275,5.0925,-2.84375,38.336002,-1.64,57.016003,eccentric,6,3.0,23649.0,323604.0,287956.0,333823.0,292504.0
2026-04-07 18:05:08.158684,401486,2178520782,2178522616,-1.020896,0.232288,0.025376,23.72125,8.39125,-4.55875,38.064003,-1.648,57.896004,eccentric,6,3.0,23649.0,323604.0,287956.0,333823.0,292504.0
2026-04-07 18:05:08.190773,401487,2178535273,2178537568,-1.020896,0.232288,0.025376,19.7575,10.17625,-6.09875,38.064003,-1.648,57.896004,eccentric,6,3.0,23649.0,323604.0,287956.0,333823.0,292504.0
2026-04-07 18:05:08.193217,401488,2178544188,2178546251,-1.0248,0.18544,0.023424,18.17375,12.1275,-7.88375,38.288002,-2.768,57.936005,eccentric,6,3.0,23649.0,323604.0,287956.0,333823.0,292504.0
2026-04-07 18:05:08.200184,401489,2178553151,2178554936,-1.0248,0.18544,0.023424,17.885,12.69625,-9.93125,38.288002,-2.768,57.936005,eccentric,6,3.0,23649.0,323604.0,287956.0,333823.0,292504.0
2026-04-07 18:05:08.202492,401490,2178567618,2178569833,-1.028704,0.144448,0.025376,17.35125,13.50125,-11.6725,38.872,-2.392,57.032,eccentric,6,3.0,23649.0,323604.0,287956.0,333823.0,292504.0
2026-04-07 18:05:08.230988,401491,2178576545,2178578547,-1.028704,0.144448,0.025376,16.485,13.86,-12.425,38.872,-2.392,57.032,eccentric,6,3.0,23649.0,323604.0,287956.0,333823.0,292504.0
2026-04-07 18:05:08.258041,401501,2178585489,2178587261,-1.03456,0.138592,0.031232,14.595,13.53625,-12.425,38.592003,-2.992,55.904003,eccentric,6,3.0,23668.0,324491.0,289097.0,335480.0,294008.0
2026-04-07 18:05:08.259608,401502,2178599968,2178602146,-1.020896,0.121024,0.033184,11.6025,13.2125,-11.55875,39.384003,-2.288,57.176003,eccentric,6,3.0,23668.0,324491.0,289097.0,335480.0,294008.0
2026-04-07 18:05:08.263831,401503,2178608914,2178610898,-1.020896,0.121024,0.033184,4.7775,12.78375,-11.47125,39.384003,-2.288,57.176003,eccentric,6,3.0,23668.0,324491.0,289097.0,335480.0,294008.0
2026-04-07 18:05:08.265525,401504,2178617847,2178619623,-1.020896,0.121024,0.031232,-2.975,12.95,-10.6925,39.384003,-2.288,57.176003,eccentric,6,3.0,23668.0,324491.0,289097.0,335480.0,294008.0
2026-04-07 18:05:08.267157,401505,2178632340,2178634560,-1.048224,0.091744,0.031232,-11.05125,13.545,-10.1325,38.344,-2.768,59.08,eccentric,6,3.0,23668.0,324491.0,289097.0,335480.0,294008.0
2026-04-07 18:05:08.274959,401506,2178641274,2178643293,-1.050176,0.0976,0.031232,-18.29625,14.07875,-9.4675,38.336002,-2.192,57.416004,eccentric,6,3.0,23668.0,324491.0,289097.0,335480.0,294008.0
2026-04-07 18:05:08.303543,401507,2178650212,2178651975,-1.050176,0.0976,0.031232,-23.9575,13.475,-9.0125,38.336002,-2.192,57.416004,eccentric,6,3.0,23668.0,324491.0,289097.0,335480.0,294008.0
2026-04-07 18:05:08.311527,401508,2178659146,2178660706,-1.06384,0.132736,0.011712,-27.27375,13.50125,-8.7325,39.256,-1.752,57.064003,eccentric,6,3.0,23668.0,324491.0,289097.0,335480.0,294008.0
2026-04-07 18:05:08.348229,401509,2178673618,2178675619,-1.06384,0.132736,0.011712,-28.93625,12.8975,-7.77,39.256,-1.752,57.064003,eccentric,6,3.0,23668.0,324491.0,289097.0,335480.0,294008.0
2026-04-07 18:05:08.376794,401520,2178683199,2178684697,-1.095072,0.15616,0.005856,-29.19,12.34625,-7.315,39.104,-0.712,55.776,eccentric,6,3.0,23103.0,319669.0,285069.0,331128.0,290366.0
2026-04-07 18:05:08.378551,401521,2178692160,2178693446,-1.095072,0.15616,0.005856,-28.7875,11.865,-6.62375,39.104,-0.712,55.776,eccentric,6,3.0,23103.0,319669.0,285069.0,331128.0,290366.0
2026-04-07 18:05:08.382710,401522,2178706727,2178708327,-1.118496,0.152256,0.046848,-28.315,11.71625,-4.99625,39.368,-1.344,55.864002,eccentric,6,3.0,23103.0,319669.0,285069.0,331128.0,290366.0
2026-04-07 18:05:08.408856,401523,2178715627,2178717042,-1.118496,0.152256,0.046848,-27.32625,10.5875,-3.8325,39.368,-1.344,55.864002,eccentric,6,3.0,23103.0,319669.0,285069.0,331128.0,290366.0
2026-04-07 18:05:08.410605,401524,2178724523,2178725729,-1.116544,0.124928,0.07808,-24.01,8.93375,-3.5175,39.032,-0.848,55.496002,eccentric,6,3.0,23103.0,319669.0,285069.0,331128.0,290366.0
2026-04-07 18:05:08.412124,401525,2178733493,2178734455,-1.116544,0.124928,0.07808,-21.0175,8.23375,-3.15,39.032,-0.848,55.496002,eccentric,6,3.0,23103.0,319669.0,285069.0,331128.0,290366.0
2026-04-07 18:05:08.416362,401526,2178748038,2178749458,-1.118496,0.12688,0.091744,-16.5025,8.4525,-2.96625,39.952003,-0.464,55.504,eccentric,6,3.0,23103.0,319669.0,285069.0,331128.0,290366.0
2026-04-07 18:05:08.418133,401527,2178756952,2178758164,-1.118496,0.12688,0.091744,-12.48625,7.81375,-2.51125,39.952003,-0.464,55.504,eccentric,6,3.0,23103.0,319669.0,285069.0,331128.0,290366.0
2026-04-07 18:05:08.419616,401528,2178765860,2178766845,-1.089216,0.148352,0.050752,-10.43,9.1525,-1.89875,39.384003,-0.96,55.176003,eccentric,6,3.0,23103.0,319669.0,285069.0,331128.0,290366.0
2026-04-07 18:05:08.450182,401538,2178780803,2178781754,-1.038464,0.152256,0.056608,-10.03625,10.5175,-1.26875,39.824,-0.656,53.416004,eccentric,6,3.0,22884.0,317556.0,283215.0,329020.0,288639.0
2026-04-07 18:05:08.451856,401539,2178789744,2178790495,-1.038464,0.152256,0.056608,-11.7075,11.655,-0.525,39.824,-0.656,53.416004,eccentric,6,3.0,22884.0,317556.0,283215.0,329020.0,288639.0
2026-04-07 18:05:08.453401,401540,2178799266,2178801333,-1.00528,0.124928,0.042944,-14.323751,12.915,0.84,39.824,-0.512,55.776,eccentric,6,3.0,22884.0,317556.0,283215.0,329020.0,288639.0
2026-04-07 18:05:08.457560,401541,2178808191,2178810086,-1.00528,0.124928,0.042944,-15.5925,14.16625,2.275,39.864002,-0.512,55.776,eccentric,6,3.0,22884.0,317556.0,283215.0,329020.0,288639.0
2026-04-07 18:05:08.460059,401542,2178822709,2178825024,-0.899872,0.113216,-0.025376,-15.95125,14.9275,3.61375,40.024002,-0.824,55.840004,eccentric,6,3.0,22884.0,317556.0,283215.0,329020.0,288639.0
2026-04-07 18:05:08.464111,401543,2178831648,2178833719,-0.899872,0.113216,-0.025376,-16.397501,15.4875,4.165,40.024002,-0.824,55.840004,eccentric,6,3.0,22884.0,317556.0,283215.0,329020.0,288639.0
2026-04-07 18:05:08.494461,401544,2178840586,2178842442,-0.968192,0.062464,0.021472,-19.74875,20.6675,0.9625,40.032,-0.472,56.232002,eccentric,6,3.0,22884.0,317556.0,283215.0,329020.0,288639.0
2026-04-07 18:05:08.501381,401545,2178855091,2178857339,-0.968192,0.062464,0.021472,-28.8575,23.63375,-5.29375,40.032,-0.472,56.232002,eccentric,6,3.0,22884.0,317556.0,283215.0,329020.0,288639.0
2026-04-07 18:05:08.503030,401546,2178864007,2178866022,-1.007232,0.163968,0.044896,-22.3475,25.87375,-2.905,40.464,0.232,54.280003,eccentric,6,3.0,22884.0,317556.0,283215.0,329020.0,288639.0
2026-04-07 18:05:08.504904,401547,2178872944,2178874707,-1.007232,0.163968,0.044896,-15.8025,24.26375,-3.0975,40.464,0.232,54.280003,eccentric,6,3.0,22884.0,317556.0,283215.0,329020.0,288639.0
2026-04-07 18:05:08.533828,401557,2178887488,2178887894,-0.944768,0.148352,0.060512,-17.272501,22.855,-1.75,40.688004,0.736,54.232002,eccentric,6,3.0,22727.0,316013.0,281775.0,327403.0,287171.0
2026-04-07 18:05:08.535538,401558,2178896873,2178898714,-0.944768,0.148352,0.060512,-22.72375,23.0125,-1.28625,40.688004,0.736,54.232002,eccentric,6,3.0,22727.0,316013.0,281775.0,327403.0,287171.0
2026-04-07 18:05:08.537483,401559,2178905867,2178907459,-1.007232,0.060512,0.070272,-26.25,22.86375,-1.925,41.864002,0.896,53.384003,eccentric,6,3.0,22727.0,316013.0,281775.0,327403.0,287171.0
2026-04-07 18:05:08.568161,401560,2178914880,2178916231,-1.007232,0.060512,0.070272,-26.50375,22.9075,-2.0475,41.864002,0.896,53.384003,eccentric,6,3.0,22727.0,316013.0,281775.0,327403.0,287171.0
2026-04-07 18:05:08.572599,401561,2178929367,2178931123,-1.016992,0.083936,0.066368,-22.56625,21.49,-4.03375,40.928,0.736,54.360004,eccentric,6,3.0,22727.0,316013.0,281775.0,327403.0,287171.0
2026-04-07 18:05:08.574147,401562,2178938374,2178939899,-1.016992,0.083936,0.066368,-17.22875,20.2125,-6.3,40.928,0.736,54.360004,eccentric,6,3.0,22727.0,316013.0,281775.0,327403.0,287171.0
2026-04-07 18:05:08.581492,401563,2178947311,2178948652,-1.003328,0.101504,0.0976,-15.89875,19.53,-8.74125,41.632004,0.664,53.624004,eccentric,6,3.0,22727.0,316013.0,281775.0,327403.0,287171.0
2026-04-07 18:05:08.642397,401564,2178961810,2178963551,-1.0736,0.134688,0.119072,-17.9725,18.47125,-10.26375,41.144,0.752,54.000004,eccentric,6,3.0,22727.0,316013.0,281775.0,327403.0,287171.0
2026-04-07 18:05:08.646350,401565,2178970746,2178972255,-1.0736,0.134688,0.119072,-14.4025,16.0125,-9.47625,41.144,0.752,54.000004,eccentric,6,3.0,22727.0,316013.0,281775.0,327403.0,287171.0
2026-04-07 18:05:08.647597,401566,2178979668,2178980960,-1.0736,0.134688,0.11712,-12.2325,12.1625,-9.17875,41.144,0.752,54.000004,eccentric,6,3.0,22727.0,316013.0,281775.0,327403.0,287171.0
2026-04-07 18:05:08.674657,401577,2178994161,2178995904,-1.106784,0.130784,0.11712,-10.6575,9.073751,-7.16625,41.624,0.688,53.784004,eccentric,6,3.0,22756.0,316339.0,281982.0,327541.0,287291.0
2026-04-07 18:05:08.678877,401578,2179003092,2179004608,-1.09312,0.103456,0.105408,-8.12875,6.58875,-6.3525,41.568,0.832,53.144,eccentric,6,3.0,22756.0,316339.0,281982.0,327541.0,287291.0
2026-04-07 18:05:08.680502,401579,2179012025,2179013298,-1.09312,0.103456,0.105408,-5.74,3.94625,-5.9325,41.568,0.832,53.144,eccentric,6,3.0,22756.0,316339.0,281982.0,327541.0,287291.0
2026-04-07 18:05:08.682045,401580,2179026522,2179028221,-1.087264,0.099552,0.113216,-5.45125,1.8025,-5.3725,41.672,0.984,53.496002,eccentric,6,3.0,22756.0,316339.0,281982.0,327541.0,287291.0
2026-04-07 18:05:08.686421,401581,2179035479,2179036962,-1.087264,0.099552,0.113216,-3.9725,0.7875,-4.20875,41.672,0.984,53.496002,eccentric,6,3.0,22756.0,316339.0,281982.0,327541.0,287291.0
2026-04-07 18:05:08.688866,401582,2179044401,2179045699,-1.059936,0.130784,0.083936,-1.05875,-0.84875,-3.255,41.544003,1.32,53.160004,eccentric,6,3.0,22756.0,316339.0,281982.0,327541.0,287291.0
2026-04-07 18:05:08.692813,401583,2179053523,2179054545,-1.059936,0.130784,0.083936,1.56625,-2.73,-1.68875,41.544003,1.32,53.160004,eccentric,6,3.0,22756.0,316339.0,281982.0,327541.0,287291.0
2026-04-07 18:05:08.728160,401584,2179068080,2179069520,-1.038464,0.158112,0.062464,2.205,-3.185,-0.07,41.544003,0.872,54.096,eccentric,6,3.0,22756.0,316339.0,281982.0,327541.0,287291.0
2026-04-07 18:05:08.732655,401585,2179076991,2179078248,-1.038464,0.158112,0.062464,0.28875,-2.9225,0.55125,41.544003,0.872,54.096,eccentric,6,3.0,22756.0,316339.0,281982.0,327541.0,287291.0
2026-04-07 18:05:08.756886,401595,2179086021,2179087063,-1.0248,0.171776,0.007808,-4.26125,-2.3275,0.5775,41.488003,1.096,53.736004,eccentric,6,3.0,22641.0,315415.0,281232.0,326754.0,286570.0
2026-04-07 18:05:08.759316,401596,2179100524,2179101938,-0.99552,0.163968,-0.017568,-9.19625,-2.26625,-0.0525,41.488003,1.096,51.472004,eccentric,6,3.0,22641.0,315415.0,281232.0,326754.0,286570.0
2026-04-07 18:05:08.761726,401597,2179109499,2179110648,-0.99552,0.163968,-0.017568,-13.34375,-2.00375,-0.37625,41.352,1.056,51.472004,eccentric,6,3.0,22641.0,315415.0,281232.0,326754.0,286570.0
2026-04-07 18:05:08.764251,401598,2179118495,2179119404,-0.99552,0.163968,-0.017568,-16.1,-1.88125,-1.26,41.352,1.056,51.472004,eccentric,6,3.0,22641.0,315415.0,281232.0,326754.0,286570.0
2026-04-07 18:05:08.765877,401599,2179133057,2179134383,-1.0248,0.171776,-0.011712,-18.08625,-0.79625,-2.9575,40.992,0.944,53.128002,eccentric,6,3.0,22641.0,315415.0,281232.0,326754.0,286570.0
2026-04-07 18:05:08.776185,401600,2179142001,2179143119,-1.071648,0.162016,0.011712,-19.34625,-0.07875,-4.0425,41.160004,1.952,53.464,eccentric,6,3.0,22641.0,315415.0,281232.0,326754.0,286570.0
2026-04-07 18:05:08.782498,401601,2179151129,2179151826,-1.071648,0.162016,0.011712,-19.22375,-0.525,-4.24375,41.160004,1.952,53.464,eccentric,6,3.0,22641.0,315415.0,281232.0,326754.0,286570.0
