pc_time,serial_num,sensor_ts,host_ts,ax,ay,az,gx,gy,gz,mx,my,mz,phase,rpe,weight_kg,ppg_a,ppg_b,ppg_c,ppg_d,ppg_e
2026-04-07 17:56:29.676520,305938,1660059691,1660060534,-1.06384,0.121024,0.027328,-9.75625,6.79,-11.36625,42.384003,-0.792,55.048004,concentric,3,3.0,23308.0,330301.0,297959.0,348645.0,304268.0
2026-04-07 17:56:29.705096,305939,1660074212,1660075460,-1.065792,0.115168,0.023424,-10.15,6.3175,-10.54375,42.84,-0.68,53.864002,concentric,3,3.0,23308.0,330301.0,297959.0,348645.0,304268.0
2026-04-07 17:56:29.709561,305940,1660083150,1660084198,-1.065792,0.115168,0.023424,-10.21125,5.7575,-8.74125,42.84,-0.68,53.864002,concentric,3,3.0,23308.0,330301.0,297959.0,348645.0,304268.0
2026-04-07 17:56:29.711142,305941,1660092071,1660092872,-1.057984,0.12688,0.042944,-9.96625,5.3025,-10.08875,42.792004,-0.336,53.928,concentric,3,3.0,23308.0,330301.0,297959.0,348645.0,304268.0
2026-04-07 17:56:29.746002,305942,1660106593,1660107809,-1.057984,0.12688,0.042944,-9.275,3.96375,-10.2375,42.792004,-0.336,53.928,concentric,3,3.0,23308.0,330301.0,297959.0,348645.0,304268.0
2026-04-07 17:56:29.750515,305943,1660115450,1660116542,-1.075552,0.13664,0.0488,-9.70375,2.93125,-8.60125,43.168003,-0.456,53.984,concentric,3,3.0,23308.0,330301.0,297959.0,348645.0,304268.0
2026-04-07 17:56:29.780937,305954,1660124811,1660125408,-1.075552,0.13664,0.0488,-7.595,1.645,-8.09375,43.168003,-0.456,53.984,concentric,3,3.0,23232.0,329505.0,297252.0,347821.0,303530.0
2026-04-07 17:56:29.782338,305955,1660139589,1660140347,-1.069696,0.132736,0.060512,-5.67,0.14,-6.8075,42.512,-0.12,54.000004,concentric,3,3.0,23232.0,329505.0,297252.0,347821.0,303530.0
2026-04-07 17:56:29.785907,305956,1660149016,1660151166,-1.050176,0.103456,0.046848,-4.935,-1.05,-5.08375,44.56,-0.448,52.808002,concentric,3,3.0,23232.0,329505.0,297252.0,347821.0,303530.0
2026-04-07 17:56:29.787400,305957,1660157927,1660159856,-1.050176,0.103456,0.046848,-5.0925,-1.9075,-3.675,43.328003,-0.448,52.808002,concentric,3,3.0,23232.0,329505.0,297252.0,347821.0,303530.0
2026-04-07 17:56:29.790652,305958,1660166855,1660168593,-1.050176,0.103456,0.046848,-4.2175,-2.835,-3.465,43.328003,-0.448,52.808002,concentric,3,3.0,23232.0,329505.0,297252.0,347821.0,303530.0
2026-04-07 17:56:29.820988,305959,1660181380,1660183530,-1.026752,0.085888,0.054656,-1.30375,-3.21125,-3.0625,42.256,-0.64,57.864002,concentric,3,3.0,23232.0,329505.0,297252.0,347821.0,303530.0
2026-04-07 17:56:29.823270,305960,1660190306,1660192246,-1.026752,0.113216,0.080032,1.68,-4.41875,-2.75625,42.696003,-0.76,53.688004,concentric,3,3.0,23232.0,329505.0,297252.0,347821.0,303530.0
2026-04-07 17:56:29.827929,305961,1660199189,1660200926,-1.026752,0.113216,0.080032,3.4475,-4.865,-2.91375,42.696003,-0.76,53.688004,concentric,3,3.0,23232.0,329505.0,297252.0,347821.0,303530.0
2026-04-07 17:56:29.831959,305962,1660213667,1660215807,-0.979904,0.1464,0.037088,2.8875,-4.85625,-2.6425,42.512,-0.32,54.128002,concentric,3,3.0,23232.0,329505.0,297252.0,347821.0,303530.0
2026-04-07 17:56:29.912355,305972,1660222612,1660224511,-0.979904,0.1464,0.037088,0.18375,-4.1125,-2.24,42.512,-0.32,54.128002,concentric,3,3.0,23127.0,328641.0,296552.0,347017.0,302777.0
2026-04-07 17:56:29.914830,305973,1660231970,1660233240,-1.100928,0.181536,0.095648,-4.8125,-3.5875,-2.2225,42.576,-0.488,54.616,concentric,3,3.0,23127.0,328641.0,296552.0,347017.0,302777.0
2026-04-07 17:56:29.917330,305974,1660240995,1660242004,-1.100928,0.181536,0.095648,-10.01,-2.485,-0.7525,42.576,-0.488,54.616,concentric,3,3.0,23127.0,328641.0,296552.0,347017.0,302777.0
2026-04-07 17:56:29.919898,305975,1660255440,1660256941,-1.075552,0.144448,0.085888,-9.345,-3.47375,0.175,42.728,0.08,54.224003,concentric,3,3.0,23127.0,328641.0,296552.0,347017.0,302777.0
2026-04-07 17:56:29.922336,305976,1660264345,1660265638,-1.075552,0.144448,0.085888,-6.60625,-5.11,1.645,42.728,0.08,54.224003,concentric,3,3.0,23127.0,328641.0,296552.0,347017.0,302777.0
2026-04-07 17:56:29.924840,305977,1660273270,1660274330,-1.052128,0.1464,0.060512,-3.94625,-4.6025,1.46125,42.2,-0.24,54.456,concentric,3,3.0,23127.0,328641.0,296552.0,347017.0,302777.0
2026-04-07 17:56:29.927347,305978,1660287733,1660289249,-1.052128,0.1464,0.060512,-2.61625,-2.80875,0.6825,42.2,-0.24,54.456,concentric,3,3.0,23127.0,328641.0,296552.0,347017.0,302777.0
2026-04-07 17:56:29.929876,305979,1660296702,1660298000,-1.00528,0.167872,0.035136,-3.0975,-1.51375,-1.19875,42.536003,-0.64,55.336002,concentric,3,3.0,23127.0,328641.0,296552.0,347017.0,302777.0
2026-04-07 17:56:29.932383,305980,1660305681,1660306754,-1.00528,0.167872,0.035136,-6.25625,0.39375,-2.66,42.536003,-0.64,55.336002,concentric,3,3.0,23127.0,328641.0,296552.0,347017.0,302777.0
2026-04-07 17:56:29.936503,305981,1660320154,1660321728,-1.0736,0.17568,0.054656,-11.40125,1.56625,-5.08375,42.280003,-0.216,54.360004,concentric,3,3.0,23127.0,328641.0,296552.0,347017.0,302777.0
2026-04-07 17:56:29.961270,305991,1660329204,1660330536,-1.0736,0.17568,0.044896,-13.11625,1.8375,-6.37,42.280003,-0.216,54.360004,concentric,3,3.0,22890.0,326700.0,294966.0,345346.0,301306.0
2026-04-07 17:56:29.963592,305992,1660338191,1660339285,-1.048224,0.134688,0.044896,-13.92125,1.33875,-6.29125,41.736004,-0.44,58.032,concentric,3,3.0,22890.0,326700.0,294966.0,345346.0,301306.0
2026-04-07 17:56:29.968641,305993,1660352685,1660354285,-1.067744,0.122976,0.033184,-14.67375,2.45875,-6.65875,42.232002,0.176,55.728004,concentric,3,3.0,22890.0,326700.0,294966.0,345346.0,301306.0
2026-04-07 17:56:30.003745,305994,1660361625,1660363018,-1.067744,0.122976,0.033184,-13.72,3.00125,-7.77,42.232002,0.176,55.728004,concentric,3,3.0,22890.0,326700.0,294966.0,345346.0,301306.0
2026-04-07 17:56:30.007291,305995,1660370599,1660371699,-1.046272,0.132736,0.015616,-11.585,3.325,-7.7525,42.368004,0.328,54.552002,concentric,3,3.0,22890.0,326700.0,294966.0,345346.0,301306.0
2026-04-07 17:56:30.009799,305996,1660379519,1660380410,-1.046272,0.132736,0.015616,-9.30125,3.73625,-6.895,42.368004,0.328,54.552002,concentric,3,3.0,22890.0,326700.0,294966.0,345346.0,301306.0
2026-04-07 17:56:30.012319,305997,1660394029,1660395231,-1.038464,0.142496,0.025376,-8.39125,3.71875,-6.6675,42.488003,0.04,54.336002,concentric,3,3.0,22890.0,326700.0,294966.0,345346.0,301306.0
2026-04-07 17:56:30.018912,305998,1660402963,1660403943,-1.038464,0.142496,0.025376,-7.28875,4.06,-6.79875,42.488003,0.04,54.336002,concentric,3,3.0,22890.0,326700.0,294966.0,345346.0,301306.0
2026-04-07 17:56:30.027381,305999,1660411902,1660412648,-1.040416,0.128832,0.052704,-7.30625,3.91125,-5.6525,41.832,0.032,56.592003,concentric,3,3.0,22890.0,326700.0,294966.0,345346.0,301306.0
2026-04-07 17:56:30.089777,306010,1660427343,1660427677,-1.040416,0.128832,0.052704,-7.7175,3.57,-4.8825,41.832,0.032,56.592003,concentric,3,3.0,22865.0,326593.0,294920.0,345337.0,301350.0
2026-04-07 17:56:30.092385,306011,1660436506,1660438410,-1.05408,0.113216,0.054656,-7.30625,2.94875,-4.89125,42.936,0.24,54.208004,concentric,3,3.0,22865.0,326593.0,294920.0,345337.0,301350.0
2026-04-07 17:56:30.094867,306012,1660445436,1660447120,-1.05408,0.113216,0.054656,-6.16875,2.37125,-4.2175,42.936,0.24,54.208004,concentric,3,3.0,22865.0,326593.0,294920.0,345337.0,301350.0
2026-04-07 17:56:30.097543,306013,1660454388,1660455814,-1.06384,0.119072,0.050752,-4.515,1.79375,-3.70125,42.656002,0.384,54.264004,concentric,3,3.0,22865.0,326593.0,294920.0,345337.0,301350.0
2026-04-07 17:56:30.100072,306014,1660468909,1660470792,-1.06384,0.119072,0.050752,-2.52875,1.7675,-4.13875,42.656002,0.384,54.264004,concentric,3,3.0,22865.0,326593.0,294920.0,345337.0,301350.0
2026-04-07 17:56:30.103365,306015,1660477855,1660479523,-1.059936,0.154208,0.050752,-1.3125,1.28625,-4.73375,42.632004,0.568,54.384003,concentric,3,3.0,22865.0,326593.0,294920.0,345337.0,301350.0
2026-04-07 17:56:30.104872,306016,1660486835,1660488250,-1.059936,0.154208,0.050752,-1.575,1.39125,-5.36375,42.632004,0.568,54.384003,concentric,3,3.0,22865.0,326593.0,294920.0,345337.0,301350.0
2026-04-07 17:56:30.135841,306017,1660501350,1660503184,-1.061888,0.17568,0.0488,-3.40375,1.07625,-5.81875,42.000004,0.936,54.760002,concentric,3,3.0,22865.0,326593.0,294920.0,345337.0,301350.0
2026-04-07 17:56:30.140463,306018,1660510299,1660511890,-1.061888,0.152256,0.06832,-5.495,0.245,-6.755,42.000004,0.936,54.760002,concentric,3,3.0,22865.0,326593.0,294920.0,345337.0,301350.0
2026-04-07 17:56:30.142180,306019,1660519242,1660520598,-1.05408,0.152256,0.06832,-8.12,0.06125,-7.1925,42.296,0.808,54.112003,concentric,3,3.0,22865.0,326593.0,294920.0,345337.0,301350.0
2026-04-07 17:56:30.201654,306029,1660534050,1660535773,-1.061888,0.11712,0.070272,-9.02125,-0.035,-7.53375,42.072002,0.848,55.520004,concentric,3,3.0,22771.0,325737.0,294236.0,344629.0,300705.0
2026-04-07 17:56:30.203397,306030,1660543032,1660544563,-1.061888,0.11712,0.070272,-8.86375,-0.455,-7.7,42.072002,0.848,55.520004,concentric,3,3.0,22771.0,325737.0,294236.0,344629.0,300705.0
2026-04-07 17:56:30.204884,306031,1660552069,1660553368,-1.06384,0.124928,0.046848,-6.895,-0.88375,-8.04125,41.616,0.76,58.152004,concentric,3,3.0,22771.0,325737.0,294236.0,344629.0,300705.0
2026-04-07 17:56:30.209124,306032,1660561034,1660562079,-1.06384,0.124928,0.046848,-4.41875,-0.7875,-8.715,41.616,0.76,58.152004,concentric,3,3.0,22771.0,325737.0,294236.0,344629.0,300705.0
2026-04-07 17:56:30.210841,306033,1660575524,1660576990,-1.050176,0.152256,0.052704,-3.045,0.27125,-9.16125,42.376003,0.968,54.432003,concentric,3,3.0,22771.0,325737.0,294236.0,344629.0,300705.0
2026-04-07 17:56:30.212483,306034,1660584424,1660585730,-1.050176,0.152256,0.052704,-2.1875,1.4525,-9.66,42.376003,0.968,54.432003,concentric,3,3.0,22771.0,325737.0,294236.0,344629.0,300705.0
2026-04-07 17:56:30.216749,306035,1660593399,1660594481,-1.052128,0.144448,0.056608,-3.71,1.14625,-8.70625,42.008003,0.84,55.56,concentric,3,3.0,22771.0,325737.0,294236.0,344629.0,300705.0
2026-04-07 17:56:30.249222,306036,1660608005,1660609422,-1.052128,0.144448,0.056608,-6.58875,1.89,-8.3475,42.008003,0.84,55.56,concentric,3,3.0,22771.0,325737.0,294236.0,344629.0,300705.0
2026-04-07 17:56:30.250850,306037,1660616903,1660618112,-1.069696,0.121024,0.05856,-9.03875,2.2925,-7.35875,41.944,1.112,54.56,concentric,3,3.0,22771.0,325737.0,294236.0,344629.0,300705.0
2026-04-07 17:56:30.275205,306047,1660626417,1660626959,-1.069696,0.121024,0.05856,-10.0625,2.625,-6.8075,41.944,1.112,54.56,concentric,3,3.0,22757.0,325656.0,294145.0,344511.0,300624.0
2026-04-07 17:56:30.279171,306048,1660635978,1660637767,-1.071648,0.115168,0.046848,-8.4875,1.6975,-6.1775,41.896004,1.288,54.792004,concentric,3,3.0,22757.0,325656.0,294145.0,344511.0,300624.0
2026-04-07 17:56:30.280897,306049,1660650512,1660652708,-1.071648,0.115168,0.031232,-5.7225,1.47875,-5.03125,41.896004,1.288,54.792004,concentric,3,3.0,22757.0,325656.0,294145.0,344511.0,300624.0
2026-04-07 17:56:30.283257,306050,1660659444,1660661420,-1.06384,0.119072,0.033184,-3.29875,1.61875,-3.99,41.72,0.648,57.904003,concentric,3,3.0,22757.0,325656.0,294145.0,344511.0,300624.0
2026-04-07 17:56:30.285768,306051,1660668385,1660670161,-1.06384,0.119072,0.033184,-0.81375,1.74125,-3.99875,41.72,0.648,57.904003,concentric,3,3.0,22757.0,325656.0,294145.0,344511.0,300624.0
2026-04-07 17:56:30.315959,306052,1660683001,1660685048,-1.061888,0.132736,0.044896,0.6125,1.4,-4.1125,41.272003,1.112,56.88,concentric,3,3.0,22757.0,325656.0,294145.0,344511.0,300624.0
2026-04-07 17:56:30.318300,306053,1660691936,1660693769,-1.05408,0.113216,0.072224,0.79625,1.26,-3.3775,41.776,0.992,54.920002,concentric,3,3.0,22757.0,325656.0,294145.0,344511.0,300624.0
2026-04-07 17:56:30.322728,306054,1660700899,1660702492,-1.05408,0.113216,0.072224,0.56875,0.69125,-3.4825,41.776,0.992,54.920002,concentric,3,3.0,22757.0,325656.0,294145.0,344511.0,300624.0
2026-04-07 17:56:30.326868,306055,1660709826,1660711205,-1.05408,0.113216,0.072224,-0.21,0.945,-3.78,41.776,0.992,54.920002,concentric,3,3.0,22757.0,325656.0,294145.0,344511.0,300624.0
2026-04-07 17:56:30.382383,306066,1660724328,1660726412,-1.079456,0.095648,0.083936,-1.63625,0.7525,-3.4125,42.064003,0.952,55.064003,concentric,3,3.0,22715.0,325244.0,293795.0,344085.0,300216.0
2026-04-07 17:56:30.386685,306067,1660733297,1660735147,-1.042368,0.095648,0.089792,-2.44125,0.2275,-3.01,42.824,1.344,54.768,concentric,3,3.0,22715.0,325244.0,293795.0,344085.0,300216.0
2026-04-07 17:56:30.388336,306068,1660742234,1660743822,-1.042368,0.095648,0.089792,-2.44125,0.0175,-2.91375,42.824,1.344,54.768,concentric,3,3.0,22715.0,325244.0,293795.0,344085.0,300216.0
2026-04-07 17:56:30.389850,306069,1660756886,1660758728,-1.069696,0.093696,0.101504,-2.7475,-0.6125,-2.6775,41.464,1.472,55.808002,concentric,3,3.0,22715.0,325244.0,293795.0,344085.0,300216.0
2026-04-07 17:56:30.394178,306070,1660765847,1660767523,-1.069696,0.093696,0.101504,-2.59875,-1.02375,-2.3975,41.464,1.472,55.808002,concentric,3,3.0,22715.0,325244.0,293795.0,344085.0,300216.0
2026-04-07 17:56:30.395789,306071,1660774818,1660776212,-1.057984,0.0976,0.083936,-1.2425,-1.54875,-1.4525,41.528004,0.944,55.912003,concentric,3,3.0,22715.0,325244.0,293795.0,344085.0,300216.0
2026-04-07 17:56:30.428506,306072,1660789357,1660791122,-1.057984,0.0976,0.083936,2.73,-2.86125,-1.19,41.528004,0.944,55.912003,concentric,3,3.0,22715.0,325244.0,293795.0,344085.0,300216.0
2026-04-07 17:56:30.430739,306073,1660798286,1660799800,-1.048224,0.16592,0.109312,7.55125,-4.08625,-0.35,42.104004,0.448,55.144,concentric,3,3.0,22715.0,325244.0,293795.0,344085.0,300216.0
2026-04-07 17:56:30.436667,306074,1660807219,1660808561,-1.048224,0.16592,0.109312,11.095,-4.6375,1.19,42.104004,0.448,55.144,concentric,3,3.0,22715.0,325244.0,293795.0,344085.0,300216.0
2026-04-07 17:56:30.436950,306075,1660816126,1660817271,-1.046272,0.1464,0.081984,13.16,-5.3725,3.36,42.488003,0.72,55.56,concentric,3,3.0,22715.0,325244.0,293795.0,344085.0,300216.0
2026-04-07 17:56:30.498090,306085,1660830853,1660832288,-1.046272,0.1464,0.081984,12.7225,-6.39625,4.7425,42.488003,0.72,55.56,concentric,3,3.0,22751.0,325385.0,293833.0,344047.0,300138.0
2026-04-07 17:56:30.499660,306086,1660839915,1660841037,-1.06384,0.148352,0.060512,12.18875,-6.37875,5.915,41.84,-0.032,56.800003,concentric,3,3.0,22751.0,325385.0,293833.0,344047.0,300138.0
2026-04-07 17:56:30.501174,306087,1660848873,1660849793,-1.06384,0.148352,0.060512,13.125,-5.94125,5.88,41.84,-0.032,56.800003,concentric,3,3.0,22751.0,325385.0,293833.0,344047.0,300138.0
2026-04-07 17:56:30.503639,306088,1660863408,1660864678,-1.048224,0.187392,0.076128,13.877501,-5.9675,4.165,41.832,-0.048,55.808002,concentric,3,3.0,22751.0,325385.0,293833.0,344047.0,300138.0
2026-04-07 17:56:30.507060,306089,1660872350,1660873411,-1.050176,0.216672,0.113216,12.775,-6.13375,3.31625,41.832,0.272,54.632004,concentric,3,3.0,22751.0,325385.0,293833.0,344047.0,300138.0
2026-04-07 17:56:30.508599,306090,1660881281,1660882130,-1.050176,0.216672,0.113216,8.295,-5.6175,3.255,42.408,0.272,54.632004,concentric,3,3.0,22751.0,325385.0,293833.0,344047.0,300138.0
2026-04-07 17:56:30.512947,306091,1660890888,1660893049,-1.050176,0.216672,0.113216,3.115,-4.4625,2.80875,42.408,0.272,54.632004,concentric,3,3.0,22751.0,325385.0,293833.0,344047.0,300138.0
2026-04-07 17:56:30.541286,306092,1660905408,1660905926,-1.065792,0.177632,0.111264,-1.61,-3.29,1.54875,41.896004,0.672,57.296,concentric,3,3.0,22751.0,325385.0,293833.0,344047.0,300138.0
2026-04-07 17:56:30.545817,306093,1660914769,1660916693,-1.061888,0.124928,0.08784,-2.82625,-3.185,0.665,41.744003,-0.104,56.296,concentric,3,3.0,22751.0,325385.0,293833.0,344047.0,300138.0
2026-04-07 17:56:30.547343,306094,1660923699,1660925376,-1.061888,0.124928,0.08784,-0.35,-2.59875,-1.155,41.744003,-0.104,56.296,concentric,3,3.0,22751.0,325385.0,293833.0,344047.0,300138.0
2026-04-07 17:56:30.573257,306104,1660938379,1660940346,-1.08336,0.128832,0.103456,2.6075,-2.94,-3.2025,41.800003,0.24,56.448,concentric,3,3.0,23907.0,334599.0,301204.0,351858.0,307149.0
2026-04-07 17:56:30.575744,306105,1660947353,1660949080,-1.08336,0.128832,0.103456,3.2725,-2.21375,-4.57625,41.800003,0.24,56.448,concentric,3,3.0,23907.0,334599.0,301204.0,351858.0,307149.0
2026-04-07 17:56:30.577613,306106,1660956262,1660957791,-1.089216,0.119072,0.099552,2.1875,-1.67125,-6.22125,41.448,0.104,56.432003,concentric,3,3.0,23907.0,334599.0,301204.0,351858.0,307149.0
2026-04-07 17:56:30.610884,306107,1660970780,1660972721,-1.089216,0.119072,0.099552,0.945,-1.93375,-7.69125,41.448,0.104,56.432003,concentric,3,3.0,23907.0,334599.0,301204.0,351858.0,307149.0
2026-04-07 17:56:30.615382,306108,1660979694,1660981400,-1.09312,0.140544,0.081984,-0.77,-1.54,-6.9125,41.52,0.496,56.128002,concentric,3,3.0,23907.0,334599.0,301204.0,351858.0,307149.0
2026-04-07 17:56:30.617085,306109,1660988619,1660990128,-1.09312,0.140544,0.081984,-2.30125,-0.8925,-7.1225,41.52,0.496,56.128002,concentric,3,3.0,23907.0,334599.0,301204.0,351858.0,307149.0
2026-04-07 17:56:30.619545,306110,1660997536,1660998831,-1.081408,0.148352,0.083936,-3.85,-0.83125,-7.7,41.800003,0.112,56.480003,concentric,3,3.0,23907.0,334599.0,301204.0,351858.0,307149.0
2026-04-07 17:56:30.649738,306111,1661012013,1661013752,-1.081408,0.148352,0.083936,-5.565,-1.25125,-6.01125,41.800003,0.112,56.480003,concentric,3,3.0,23907.0,334599.0,301204.0,351858.0,307149.0
2026-04-07 17:56:30.652013,306112,1661020930,1661022446,-1.09312,0.160064,0.089792,-7.77,-1.56625,-4.38375,41.216003,0.328,57.128002,concentric,3,3.0,23907.0,334599.0,301204.0,351858.0,307149.0
2026-04-07 17:56:30.680926,306123,1661029957,1661031215,-1.09312,0.160064,0.089792,-9.17,-1.79375,-3.12375,41.216003,0.328,57.128002,concentric,3,3.0,23768.0,333415.0,300227.0,350637.0,305986.0
2026-04-07 17:56:30.682377,306124,1661044425,1661046180,-1.050176,0.1464,0.105408,-11.62875,-1.9075,-1.19,41.992,0.36,56.376003,concentric,3,3.0,23768.0,333415.0,300227.0,350637.0,305986.0
2026-04-07 17:56:30.686631,306125,1661053426,1661054960,-1.067744,0.115168,0.085888,-14.51625,-2.555,0.48125,41.2,0.168,55.896004,concentric,3,3.0,23768.0,333415.0,300227.0,350637.0,305986.0
2026-04-07 17:56:30.689064,306126,1661062385,1661063656,-1.067744,0.115168,0.085888,-14.945,-2.63375,1.0675,41.2,0.168,55.896004,concentric,3,3.0,23768.0,333415.0,300227.0,350637.0,305986.0
2026-04-07 17:56:30.693153,306127,1661076903,1661078647,-1.071648,0.128832,0.10736,-12.0575,-3.00125,1.96875,41.480003,0.512,57.616,concentric,3,3.0,23768.0,333415.0,300227.0,350637.0,305986.0
2026-04-07 17:56:30.723412,306128,1661085834,1661087396,-1.071648,0.128832,0.10736,-7.62125,-4.095,1.70625,41.480003,0.512,57.616,concentric,3,3.0,23768.0,333415.0,300227.0,350637.0,305986.0
2026-04-07 17:56:30.725739,306129,1661094732,1661096078,-1.10288,0.142496,0.132736,-3.12375,-4.52375,0.83125,41.136,0.416,56.944004,concentric,3,3.0,23768.0,333415.0,300227.0,350637.0,305986.0
2026-04-07 17:56:30.730239,306130,1661109238,1661110960,-1.10288,0.142496,0.132736,-0.6825,-5.7225,0.4725,41.136,0.416,56.944004,concentric,3,3.0,23768.0,333415.0,300227.0,350637.0,305986.0
2026-04-07 17:56:30.734429,306131,1661118201,1661119746,-1.118496,0.167872,0.150304,0.69125,-6.615,-0.30625,41.728,0.568,56.928,concentric,3,3.0,23768.0,333415.0,300227.0,350637.0,305986.0
2026-04-07 17:56:30.814519,306141,1661127114,1661128552,-1.118496,0.167872,0.150304,0.53375,-7.21875,-1.085,41.728,0.568,56.928,concentric,3,3.0,23010.0,327422.0,295452.0,345678.0,301532.0
2026-04-07 17:56:30.816215,306142,1661136087,1661137266,-1.087264,0.160064,0.15616,-1.14625,-7.63875,-1.2775,41.104,0.576,56.824,concentric,3,3.0,23010.0,327422.0,295452.0,345678.0,301532.0
2026-04-07 17:56:30.820467,306143,1661150563,1661152178,-1.087264,0.160064,0.15616,-2.49375,-7.7175,-1.70625,41.104,0.576,56.824,concentric,3,3.0,23010.0,327422.0,295452.0,345678.0,301532.0
2026-04-07 17:56:30.822202,306144,1661159445,1661160854,-1.067744,0.154208,0.128832,-2.80875,-8.05,-2.03,41.568,0.088,56.752003,concentric,3,3.0,23010.0,327422.0,295452.0,345678.0,301532.0
2026-04-07 17:56:30.823664,306145,1661168384,1661169530,-1.067744,0.154208,0.128832,-3.33375,-8.225,-1.5225,41.568,0.088,56.752003,concentric,3,3.0,23010.0,327422.0,295452.0,345678.0,301532.0
2026-04-07 17:56:30.827883,306146,1661182862,1661184525,-1.007232,0.160064,0.121024,-2.275,-7.6125,-1.72375,41.032,0.312,56.624004,concentric,3,3.0,23010.0,327422.0,295452.0,345678.0,301532.0
2026-04-07 17:56:30.829572,306147,1661191782,1661193229,-1.007232,0.160064,0.121024,-0.49875,-7.51625,-2.1175,41.032,0.312,56.624004,concentric,3,3.0,23010.0,327422.0,295452.0,345678.0,301532.0
2026-04-07 17:56:30.831110,306148,1661200770,1661201968,-1.001376,0.163968,0.12688,1.18125,-7.7875,-3.24625,40.640003,0.584,57.000004,concentric,3,3.0,23010.0,327422.0,295452.0,345678.0,301532.0
2026-04-07 17:56:30.836109,306149,1661215335,1661216910,-0.997472,0.177632,0.138592,3.36,-7.84,-4.43625,41.056004,0.64,57.440002,concentric,3,3.0,23010.0,327422.0,295452.0,345678.0,301532.0
2026-04-07 17:56:30.841791,306150,1661224288,1661225652,-0.997472,0.177632,0.138592,4.375,-7.9625,-5.3025,41.056004,0.64,57.440002,concentric,3,3.0,23010.0,327422.0,295452.0,345678.0,301532.0
2026-04-07 17:56:30.874197,306160,1661233351,1661234476,-0.997472,0.177632,0.121024,3.955,-7.83125,-6.4225,41.056004,0.64,57.440002,concentric,3,3.0,23143.0,328877.0,296784.0,347293.0,303058.0
2026-04-07 17:56:30.875825,306161,1661242319,1661243237,-1.016992,0.154208,0.121024,2.3625,-7.0,-7.7525,39.536003,-0.144,60.000004,concentric,3,3.0,23143.0,328877.0,296784.0,347293.0,303058.0
2026-04-07 17:56:30.877402,306162,1661256906,1661258104,-1.011136,0.134688,0.109312,1.04125,-6.3875,-8.5575,40.288002,0.432,57.376003,concentric,3,3.0,23143.0,328877.0,296784.0,347293.0,303058.0
2026-04-07 17:56:30.882732,306163,1661265827,1661266818,-1.011136,0.134688,0.109312,0.3675,-5.71375,-9.1,40.288002,0.432,57.376003,concentric,3,3.0,23143.0,328877.0,296784.0,347293.0,303058.0
2026-04-07 17:56:30.911262,306164,1661274756,1661275521,-1.001376,0.132736,0.105408,-0.13125,-5.1975,-9.485,40.592003,0.632,57.192,concentric,3,3.0,23143.0,328877.0,296784.0,347293.0,303058.0
2026-04-07 17:56:30.916704,306165,1661289744,1661290404,-1.001376,0.132736,0.105408,0.23625,-3.9725,-9.485,40.592003,0.632,57.192,concentric,3,3.0,23143.0,328877.0,296784.0,347293.0,303058.0
2026-04-07 17:56:30.918242,306166,1661298997,1661301200,-1.00528,0.150304,0.132736,0.9975,-3.185,-8.645,40.384003,0.264,57.56,concentric,3,3.0,23143.0,328877.0,296784.0,347293.0,303058.0
2026-04-07 17:56:30.925326,306167,1661307917,1661309888,-1.00528,0.150304,0.132736,1.67125,-2.9925,-7.70875,40.384003,0.264,57.56,concentric,3,3.0,23143.0,328877.0,296784.0,347293.0,303058.0
2026-04-07 17:56:30.953770,306168,1661316862,1661318633,-1.01504,0.173728,0.1464,-0.16625,-3.045,-7.02625,40.320004,1.2,57.520004,concentric,3,3.0,23143.0,328877.0,296784.0,347293.0,303058.0
2026-04-07 17:56:30.985878,306179,1661331481,1661331850,-1.01504,0.173728,0.1464,-3.47375,-3.57875,-6.3875,40.320004,1.2,57.520004,concentric,3,3.0,23735.0,333801.0,300896.0,351899.0,307216.0
2026-04-07 17:56:30.987425,306180,1661340831,1661342658,-1.018944,0.173728,0.142496,-7.49,-3.6575,-5.48625,39.784,0.8,57.920002,concentric,3,3.0,23735.0,333801.0,300896.0,351899.0,307216.0
2026-04-07 17:56:30.991577,306181,1661349940,1661351413,-1.018944,0.173728,0.142496,-11.13,-3.43875,-4.9525,39.784,0.8,57.920002,concentric,3,3.0,23735.0,333801.0,300896.0,351899.0,307216.0
2026-04-07 17:56:30.993359,306182,1661364461,1661366352,-1.020896,0.0976,0.091744,-13.7375,-2.52,-4.725,39.72,0.4,59.032,concentric,3,3.0,23735.0,333801.0,300896.0,351899.0,307216.0
2026-04-07 17:56:30.995023,306183,1661373563,1661375074,-1.020896,0.0976,0.091744,-15.02375,-1.40875,-5.34625,39.72,0.4,59.032,concentric,3,3.0,23735.0,333801.0,300896.0,351899.0,307216.0
2026-04-07 17:56:31.000274,306184,1661382572,1661383786,-1.040416,0.081984,0.074176,-13.67625,0.14875,-6.83375,40.008003,0.456,58.368004,concentric,3,3.0,23735.0,333801.0,300896.0,351899.0,307216.0
2026-04-07 17:56:31.031645,306185,1661391586,1661392537,-1.040416,0.081984,0.074176,-7.6825,1.61875,-9.86125,40.008003,0.456,58.368004,concentric,3,3.0,23735.0,333801.0,300896.0,351899.0,307216.0
2026-04-07 17:56:31.033353,306186,1661406086,1661407427,-1.065792,0.12688,0.095648,-1.12,1.91625,-10.17625,39.792004,0.976,58.352,concentric,3,3.0,23735.0,333801.0,300896.0,351899.0,307216.0
2026-04-07 17:56:31.034970,306187,1661414973,1661416127,-1.038464,0.16592,0.111264,4.99625,1.33875,-9.59875,39.888,0.88,58.464005,concentric,3,3.0,23735.0,333801.0,300896.0,351899.0,307216.0
2026-04-07 17:56:31.041481,306188,1661423898,1661424817,-1.038464,0.16592,0.111264,7.88375,1.1025,-8.6975,39.888,0.88,58.464005,concentric,3,3.0,23735.0,333801.0,300896.0,351899.0,307216.0
2026-04-07 17:56:31.100835,306198,1661438740,1661439751,-1.056032,0.18544,0.122976,10.167501,1.3825,-7.805,40.048,0.6,58.256004,concentric,3,3.0,24114.0,336966.0,303442.0,354639.0,309551.0
2026-04-07 17:56:31.106572,306199,1661447734,1661448472,-1.056032,0.18544,0.122976,8.4875,2.2225,-8.4875,40.048,0.6,58.256004,concentric,3,3.0,24114.0,336966.0,303442.0,354639.0,309551.0
2026-04-07 17:56:31.109073,306200,1661457066,1661459225,-1.052128,0.134688,0.122976,2.24,4.235,-8.75875,40.488003,0.816,57.864002,concentric,3,3.0,24114.0,336966.0,303442.0,354639.0,309551.0
2026-04-07 17:56:31.109128,306201,1661466054,1661467908,-1.052128,0.134688,0.122976,-2.765,5.06625,-9.44125,40.488003,0.816,57.864002,concentric,3,3.0,24114.0,336966.0,303442.0,354639.0,309551.0
2026-04-07 17:56:31.112896,306202,1661480580,1661482808,-1.069696,0.111264,0.119072,-2.66,5.92375,-10.6925,40.08,1.512,57.960003,concentric,3,3.0,24114.0,336966.0,303442.0,354639.0,309551.0
2026-04-07 17:56:31.114668,306203,1661489502,1661491531,-1.069696,0.111264,0.119072,-0.245,6.41375,-11.57625,40.08,1.512,57.960003,concentric,3,3.0,24114.0,336966.0,303442.0,354639.0,309551.0
2026-04-07 17:56:31.116151,306204,1661498547,1661500269,-1.081408,0.128832,0.130784,2.82625,6.755,-11.80375,39.592003,-0.152,60.24,concentric,3,3.0,24114.0,336966.0,303442.0,354639.0,309551.0
2026-04-07 17:56:31.151636,306205,1661513044,1661515164,-1.081408,0.128832,0.130784,6.20375,7.3675,-12.3375,39.592003,-0.152,60.24,concentric,3,3.0,24114.0,336966.0,303442.0,354639.0,309551.0
2026-04-07 17:56:31.158095,306206,1661521959,1661523850,-1.081408,0.152256,0.138592,7.91,7.2275,-11.83875,40.08,1.024,58.520004,concentric,3,3.0,24114.0,336966.0,303442.0,354639.0,309551.0
2026-04-07 17:56:31.182070,306216,1661531445,1661533045,-1.081408,0.152256,0.138592,8.925,7.0525,-10.745,40.08,1.024,58.520004,concentric,3,3.0,23846.0,334991.0,301975.0,353061.0,308080.0
2026-04-07 17:56:31.183756,306217,1661545984,1661547979,-1.0736,0.148352,0.13664,9.10875,6.51875,-10.71,40.24,0.544,57.584003,concentric,3,3.0,23846.0,334991.0,301975.0,353061.0,308080.0
2026-04-07 17:56:31.187849,306218,1661555036,1661556721,-1.0736,0.134688,0.152256,8.25125,6.81625,-10.73625,40.24,0.544,59.632004,concentric,3,3.0,23846.0,334991.0,301975.0,353061.0,308080.0
2026-04-07 17:56:31.189626,306219,1661564050,1661565454,-1.061888,0.134688,0.152256,6.8425,7.63875,-10.68375,39.0,0.312,59.824,concentric,3,3.0,23846.0,334991.0,301975.0,353061.0,308080.0
2026-04-07 17:56:31.191092,306220,1661573084,1661574216,-1.061888,0.134688,0.152256,4.97,8.25125,-10.185,39.0,0.312,59.824,concentric,3,3.0,23846.0,334991.0,301975.0,353061.0,308080.0
2026-04-07 17:56:31.221416,306221,1661587582,1661589182,-1.059936,0.138592,0.152256,3.73625,8.49625,-9.33625,40.064003,0.816,57.08,concentric,3,3.0,23846.0,334991.0,301975.0,353061.0,308080.0
2026-04-07 17:56:31.225848,306222,1661596517,1661597940,-1.052128,0.128832,0.152256,2.8525,8.79375,-9.5725,40.632004,0.944,59.736004,concentric,3,3.0,23846.0,334991.0,301975.0,353061.0,308080.0
2026-04-07 17:56:31.227370,306223,1661605443,1661606642,-1.052128,0.128832,0.152256,2.1875,9.0125,-9.44125,40.632004,0.944,59.736004,concentric,3,3.0,23846.0,334991.0,301975.0,353061.0,308080.0
2026-04-07 17:56:31.258502,306224,1661620026,1661621606,-1.048224,0.113216,0.144448,2.03875,9.03,-9.28375,41.168003,1.392,58.096004,concentric,3,3.0,23846.0,334991.0,301975.0,353061.0,308080.0
2026-04-07 17:56:31.260761,306225,1661629037,1661630322,-1.048224,0.113216,0.144448,2.93125,8.04125,-8.0675,41.168003,1.392,58.096004,concentric,3,3.0,23846.0,334991.0,301975.0,353061.0,308080.0
2026-04-07 17:56:31.322446,306236,1661638064,1661639030,-1.03456,0.111264,0.15616,4.12125,7.55125,-7.42875,39.888,0.728,58.032,concentric,3,3.0,23563.0,332801.0,300204.0,351154.0,306422.0
2026-04-07 17:56:31.325780,306237,1661652662,1661653966,-1.03456,0.111264,0.15616,5.17125,6.9475,-7.02625,39.888,0.728,58.032,concentric,3,3.0,23563.0,332801.0,300204.0,351154.0,306422.0
2026-04-07 17:56:31.327378,306238,1661661688,1661662690,-1.05408,0.119072,0.140544,5.71375,6.27375,-6.93875,40.224003,0.704,59.416004,concentric,3,3.0,23563.0,332801.0,300204.0,351154.0,306422.0
2026-04-07 17:56:31.331566,306239,1661670690,1661671393,-1.05408,0.119072,0.140544,6.99125,5.66125,-6.22125,40.224003,0.704,59.416004,concentric,3,3.0,23563.0,332801.0,300204.0,351154.0,306422.0
2026-04-07 17:56:31.333290,306240,1661680023,1661682184,-1.03456,0.13664,0.132736,8.015,4.7075,-5.8975,40.368,0.968,58.160004,concentric,3,3.0,23563.0,332801.0,300204.0,351154.0,306422.0
2026-04-07 17:56:31.335089,306241,1661694518,1661695022,-1.03456,0.13664,0.132736,8.54,3.78875,-6.58875,40.368,0.968,58.160004,concentric,3,3.0,23563.0,332801.0,300204.0,351154.0,306422.0
2026-04-07 17:56:31.339120,306242,1661703998,1661705841,-1.046272,0.13664,0.130784,9.02125,3.00125,-7.98,39.944,-0.448,59.632004,concentric,3,3.0,23563.0,332801.0,300204.0,351154.0,306422.0
2026-04-07 17:56:31.340910,306243,1661712984,1661714582,-1.046272,0.13664,0.130784,8.9075,2.30125,-7.98,39.944,-0.448,59.632004,concentric,3,3.0,23563.0,332801.0,300204.0,351154.0,306422.0
2026-04-07 17:56:31.342473,306244,1661721942,1661723290,-1.011136,0.128832,0.1464,8.81125,1.72375,-7.67375,40.032,0.232,59.816,concentric,3,3.0,23563.0,332801.0,300204.0,351154.0,306422.0
2026-04-07 17:56:31.405617,306254,1661736663,1661738324,-1.007232,0.119072,0.162016,8.14625,1.505,-7.21875,40.288002,-0.032,58.776,concentric,3,3.0,23426.0,331781.0,299397.0,350424.0,305817.0
2026-04-07 17:56:31.414072,306255,1661745757,1661747079,-1.007232,0.119072,0.162016,7.07875,1.4175,-7.32375,40.288002,-0.032,58.776,concentric,3,3.0,23426.0,331781.0,299397.0,350424.0,305817.0
2026-04-07 17:56:31.415819,306256,1661754662,1661755827,-1.007232,0.119072,0.162016,5.32,1.23375,-8.198751,40.288002,-0.032,58.776,concentric,3,3.0,23426.0,331781.0,299397.0,350424.0,305817.0
2026-04-07 17:56:31.417388,306257,1661769145,1661770732,-1.011136,0.11712,0.152256,5.5125,1.2775,-8.435,40.704002,0.528,57.632004,concentric,3,3.0,23426.0,331781.0,299397.0,350424.0,305817.0
2026-04-07 17:56:31.424592,306258,1661778151,1661779412,-1.013088,0.11712,0.130784,4.96125,1.785,-8.91625,40.744003,0.728,58.960003,concentric,3,3.0,23426.0,331781.0,299397.0,350424.0,305817.0
2026-04-07 17:56:31.426087,306259,1661787081,1661788206,-1.013088,0.11712,0.130784,3.815,2.28375,-8.855001,40.744003,0.728,58.960003,concentric,3,3.0,23426.0,331781.0,299397.0,350424.0,305817.0
2026-04-07 17:56:31.430309,306260,1661801782,1661803185,-1.016992,0.12688,0.124928,5.4775,2.8875,-11.3925,39.552002,0.0,60.648003,concentric,3,3.0,23426.0,331781.0,299397.0,350424.0,305817.0
2026-04-07 17:56:31.431899,306261,1661810762,1661811918,-1.016992,0.12688,0.124928,7.60375,3.14125,-11.48875,39.552002,0.0,60.648003,concentric,3,3.0,23426.0,331781.0,299397.0,350424.0,305817.0
2026-04-07 17:56:31.438040,306262,1661819723,1661820647,-0.99552,0.171776,0.142496,9.58125,3.49125,-11.41,40.584003,-0.28,59.064003,concentric,3,3.0,23426.0,331781.0,299397.0,350424.0,305817.0
2026-04-07 17:56:31.466370,306263,1661828664,1661829359,-0.99552,0.171776,0.142496,9.70375,3.5175,-11.55875,40.584003,-0.28,59.064003,concentric,3,3.0,23426.0,331781.0,299397.0,350424.0,305817.0
2026-04-07 17:56:31.502034,306273,1661843583,1661844317,-1.026752,0.167872,0.15616,8.37375,3.50875,-11.917501,40.176003,-0.296,58.552002,concentric,3,3.0,23458.0,332105.0,299758.0,350914.0,306288.0
2026-04-07 17:56:31.503534,306274,1661853060,1661855077,-1.026752,0.167872,0.15616,6.1425,3.64875,-11.6375,40.176003,-0.296,58.552002,concentric,3,3.0,23458.0,332105.0,299758.0,350914.0,306288.0
2026-04-07 17:56:31.508167,306275,1661862040,1661863854,-1.050176,0.162016,0.150304,5.8625,3.115,-10.05375,40.856003,-0.624,58.816,concentric,3,3.0,23458.0,332105.0,299758.0,350914.0,306288.0
2026-04-07 17:56:31.509596,306276,1661871052,1661872557,-1.050176,0.162016,0.150304,8.435,3.3075,-10.08,40.856003,-0.624,58.816,concentric,3,3.0,23458.0,332105.0,299758.0,350914.0,306288.0
2026-04-07 17:56:31.511183,306277,1661885650,1661887577,-1.030656,0.148352,0.1464,10.24625,3.745,-10.71,40.144,-0.072,58.88,concentric,3,3.0,23458.0,332105.0,299758.0,350914.0,306288.0
2026-04-07 17:56:31.515425,306278,1661894581,1661896284,-1.030656,0.148352,0.1464,9.42375,4.27875,-11.585,40.144,-0.072,58.88,concentric,3,3.0,23458.0,332105.0,299758.0,350914.0,306288.0
2026-04-07 17:56:31.522165,306279,1661903517,1661904984,-1.036512,0.169824,0.148352,6.50125,5.635,-11.305,40.4,0.408,59.216003,concentric,3,3.0,23458.0,332105.0,299758.0,350914.0,306288.0
2026-04-07 17:56:31.549996,306280,1661918010,1661919887,-1.032608,0.150304,0.160064,3.33375,6.3175,-12.10125,40.928,0.568,59.680004,concentric,3,3.0,23458.0,332105.0,299758.0,350914.0,306288.0
2026-04-07 17:56:31.554872,306281,1661926927,1661928673,-1.032608,0.150304,0.160064,0.14875,7.3675,-12.60875,40.928,0.568,59.680004,concentric,3,3.0,23458.0,332105.0,299758.0,350914.0,306288.0
2026-04-07 17:56:31.582048,306292,1661936314,1661937424,-1.032608,0.150304,0.128832,-1.93375,8.00625,-12.29375,40.928,0.568,59.680004,concentric,3,3.0,24034.0,336557.0,303236.0,354448.0,309320.0
2026-04-07 17:56:31.583549,306293,1661950830,1661952412,-1.056032,0.119072,0.138592,-2.80875,7.7175,-12.76625,40.696003,0.048,59.752003,concentric,3,3.0,24034.0,336557.0,303236.0,354448.0,309320.0
2026-04-07 17:56:31.587878,306294,1661959760,1661961142,-1.056032,0.111264,0.11712,-2.6075,7.93625,-12.66125,40.576,-0.032,59.960003,concentric,3,3.0,24034.0,336557.0,303236.0,354448.0,309320.0
2026-04-07 17:56:31.589417,306295,1661968755,1661969869,-1.056032,0.111264,0.11712,-1.26,8.198751,-13.23875,40.576,-0.032,59.960003,concentric,3,3.0,24034.0,336557.0,303236.0,354448.0,309320.0
2026-04-07 17:56:31.595337,306296,1661977679,1661978598,-1.057984,0.109312,0.095648,0.32375,7.4025,-13.86875,40.016003,-0.28,61.464005,concentric,3,3.0,24034.0,336557.0,303236.0,354448.0,309320.0
2026-04-07 17:56:31.623799,306297,1661992156,1661993495,-1.057984,0.109312,0.095648,2.54625,7.34125,-14.533751,40.016003,-0.28,61.464005,concentric,3,3.0,24034.0,336557.0,303236.0,354448.0,309320.0
2026-04-07 17:56:31.628302,306298,1662001070,1662002175,-1.05408,0.115168,0.095648,4.57625,7.4025,-14.2975,41.016003,-0.328,59.008003,concentric,3,3.0,24034.0,336557.0,303236.0,354448.0,309320.0
2026-04-07 17:56:31.629843,306299,1662009986,1662010893,-1.05408,0.115168,0.095648,6.48375,7.1225,-14.28,41.016003,-0.328,59.008003,concentric,3,3.0,24034.0,336557.0,303236.0,354448.0,309320.0
2026-04-07 17:56:31.697504,306300,1662024477,1662025828,-1.06384,0.11712,0.101504,6.58875,6.97375,-13.69375,39.728,-0.16,59.168003,concentric,3,3.0,24034.0,336557.0,303236.0,354448.0,309320.0
2026-04-07 17:56:31.729663,306310,1662033418,1662034556,-1.06384,0.11712,0.101504,5.53875,6.51,-13.64125,39.728,-0.16,59.168003,concentric,3,3.0,23607.0,333538.0,300929.0,352156.0,307341.0
2026-04-07 17:56:31.731111,306311,1662042472,1662043366,-1.059936,0.124928,0.130784,6.23,6.78125,-13.3525,40.960003,-0.104,58.888004,concentric,3,3.0,23607.0,333538.0,300929.0,352156.0,307341.0
2026-04-07 17:56:31.733568,306312,1662056937,1662058282,-1.059936,0.124928,0.138592,7.76125,5.45125,-12.1975,40.960003,-0.104,58.888004,concentric,3,3.0,23607.0,333538.0,300929.0,352156.0,307341.0
2026-04-07 17:56:31.737869,306313,1662065863,1662066959,-1.046272,0.130784,0.138592,11.36625,4.06,-11.34,40.816,0.608,59.08,concentric,3,3.0,23607.0,333538.0,300929.0,352156.0,307341.0
2026-04-07 17:56:31.739669,306314,1662074811,1662075633,-1.046272,0.130784,0.138592,13.97375,3.6575,-10.49125,40.816,0.608,59.08,concentric,3,3.0,23607.0,333538.0,300929.0,352156.0,307341.0
2026-04-07 17:56:31.741153,306315,1662089258,1662090510,-1.061888,0.124928,0.134688,14.1925,4.445,-10.115,40.816,-0.336,59.232002,concentric,3,3.0,23607.0,333538.0,300929.0,352156.0,307341.0
2026-04-07 17:56:31.745432,306316,1662098243,1662099313,-1.075552,0.11712,0.113216,13.4925,5.005,-10.5525,40.448,-0.152,61.928,concentric,3,3.0,23607.0,333538.0,300929.0,352156.0,307341.0
2026-04-07 17:56:31.747141,306317,1662107182,1662108007,-1.075552,0.11712,0.113216,12.39,5.52125,-11.095,40.448,-0.152,61.928,concentric,3,3.0,23607.0,333538.0,300929.0,352156.0,307341.0
2026-04-07 17:56:31.748608,306318,1662116126,1662116745,-1.075552,0.11712,0.113216,12.73125,5.94125,-12.0225,40.448,-0.152,61.928,concentric,3,3.0,23607.0,333538.0,300929.0,352156.0,307341.0
2026-04-07 17:56:31.752903,306319,1662130945,1662131668,-1.05408,0.142496,0.121024,14.323751,6.11625,-11.96125,40.128002,-0.736,60.416004,concentric,3,3.0,23607.0,333538.0,300929.0,352156.0,307341.0
2026-04-07 17:56:31.780447,306329,1662140431,1662142542,-1.05408,0.13664,0.12688,13.8075,6.11625,-10.7975,40.2,-0.688,60.176003,concentric,3,3.0,23301.0,330968.0,298859.0,349942.0,305310.0
2026-04-07 17:56:31.782184,306330,1662149378,1662151304,-1.05408,0.13664,0.12688,10.59625,6.23,-10.15,40.2,-0.688,60.176003,concentric,3,3.0,23301.0,330968.0,298859.0,349942.0,305310.0
2026-04-07 17:56:31.783665,306331,1662163869,1662164183,-1.042368,0.10736,0.124928,5.71375,6.51875,-9.275,40.032,-0.88,60.360004,concentric,3,3.0,23301.0,330968.0,298859.0,349942.0,305310.0
2026-04-07 17:56:31.791517,306332,1662173138,1662174990,-1.042368,0.10736,0.124928,0.72625,6.7025,-8.19,40.032,-0.88,60.360004,concentric,3,3.0,23301.0,330968.0,298859.0,349942.0,305310.0
2026-04-07 17:56:31.820018,306333,1662182193,1662183720,-1.052128,0.095648,0.103456,-2.31,7.42875,-7.6825,40.84,-0.496,59.88,concentric,3,3.0,23301.0,330968.0,298859.0,349942.0,305310.0
2026-04-07 17:56:31.824628,306334,1662191138,1662192428,-1.052128,0.095648,0.103456,-4.445,7.63875,-6.81625,40.84,-0.496,59.88,concentric,3,3.0,23301.0,330968.0,298859.0,349942.0,305310.0
2026-04-07 17:56:31.826043,306335,1662205605,1662207337,-1.05408,0.11712,0.103456,-6.6675,8.645,-6.3875,41.368004,-0.416,58.768,concentric,3,3.0,23301.0,330968.0,298859.0,349942.0,305310.0
2026-04-07 17:56:31.832720,306336,1662214583,1662216100,-1.05408,0.11712,0.103456,-8.7675,10.29,-5.64375,41.368004,-0.416,58.768,concentric,3,3.0,23301.0,330968.0,298859.0,349942.0,305310.0
2026-04-07 17:56:31.861482,306337,1662223524,1662224817,-1.050176,0.134688,0.132736,-11.22625,12.6,-5.1625,41.136,-0.264,59.432003,concentric,3,3.0,23301.0,330968.0,298859.0,349942.0,305310.0
2026-04-07 17:56:31.890820,306348,1662238144,1662239788,-1.03456,0.122976,0.15616,-14.07875,13.4925,-4.99625,41.136,-0.264,57.840004,concentric,3,3.0,23545.0,332585.0,300018.0,350950.0,306193.0
2026-04-07 17:56:31.892264,306349,1662247162,1662248516,-1.046272,0.122976,0.15616,-18.34875,14.07875,-5.29375,41.320004,-0.192,57.840004,concentric,3,3.0,23545.0,332585.0,300018.0,350950.0,306193.0
2026-04-07 17:56:31.896695,306350,1662256088,1662257232,-1.046272,0.122976,0.15616,-22.715,14.105001,-5.53,41.320004,-0.192,57.840004,concentric,3,3.0,23545.0,332585.0,300018.0,350950.0,306193.0
2026-04-07 17:56:31.898310,306351,1662265055,1662265971,-1.069696,0.101504,0.140544,-23.8875,14.0,-5.59125,40.976,-0.136,59.800003,concentric,3,3.0,23545.0,332585.0,300018.0,350950.0,306193.0
2026-04-07 17:56:31.899857,306352,1662280179,1662280932,-1.0736,0.105408,0.122976,-20.895,14.16625,-5.76625,40.992,-0.08,62.224003,concentric,3,3.0,23545.0,332585.0,300018.0,350950.0,306193.0
2026-04-07 17:56:31.910227,306353,1662289548,1662291709,-1.0736,0.105408,0.122976,-15.8375,13.76375,-5.62625,40.992,-0.08,62.224003,concentric,3,3.0,23545.0,332585.0,300018.0,350950.0,306193.0
2026-04-07 17:56:31.916511,306354,1662298452,1662300409,-1.0736,0.119072,0.10736,-12.8625,13.16,-5.59125,40.992,-0.08,58.584003,concentric,3,3.0,23545.0,332585.0,300018.0,350950.0,306193.0
2026-04-07 17:56:31.945094,306355,1662312950,1662313266,-1.0736,0.119072,0.10736,-13.51875,13.8425,-5.215,41.784,0.624,58.584003,concentric,3,3.0,23545.0,332585.0,300018.0,350950.0,306193.0
2026-04-07 17:56:31.949559,306356,1662322137,1662324012,-1.071648,0.101504,0.091744,-16.1875,13.877501,-4.55875,42.312,0.488,58.352,concentric,3,3.0,23545.0,332585.0,300018.0,350950.0,306193.0
2026-04-07 17:56:31.951066,306357,1662331062,1662332754,-1.071648,0.101504,0.091744,-19.1275,14.0525,-3.395,42.312,0.488,58.352,concentric,3,3.0,23545.0,332585.0,300018.0,350950.0,306193.0
2026-04-07 17:56:32.015358,306367,1662340130,1662341536,-1.097024,0.070272,0.089792,-22.645,13.71125,-3.7275,42.064003,0.64,58.744003,concentric,3,3.0,22855.0,326798.0,295269.0,345829.0,301653.0
2026-04-07 17:56:32.017194,306368,1662354700,1662356454,-1.097024,0.070272,0.089792,-25.025,13.16,-2.75625,42.064003,0.64,58.744003,concentric,3,3.0,22855.0,326798.0,295269.0,345829.0,301653.0
2026-04-07 17:56:32.018707,306369,1662363623,1662365149,-1.11264,0.056608,0.091744,-24.61375,12.3375,-1.68875,42.416,1.408,57.704002,concentric,3,3.0,22855.0,326798.0,295269.0,345829.0,301653.0
2026-04-07 17:56:32.022881,306370,1662372577,1662373841,-1.11264,0.056608,0.091744,-20.8425,11.19125,-0.91,42.416,1.408,57.704002,concentric,3,3.0,22855.0,326798.0,295269.0,345829.0,301653.0
2026-04-07 17:56:32.024565,306371,1662387093,1662388780,-1.106784,0.064416,0.089792,-15.74125,10.9025,0.9275,42.088,0.624,57.928,concentric,3,3.0,22855.0,326798.0,295269.0,345829.0,301653.0
2026-04-07 17:56:32.026166,306372,1662396084,1662397493,-1.106784,0.064416,0.089792,-10.85875,11.1475,1.68,42.088,0.624,57.928,concentric,3,3.0,22855.0,326798.0,295269.0,345829.0,301653.0
2026-04-07 17:56:32.030344,306373,1662405101,1662406261,-1.075552,0.091744,0.113216,-8.645,11.2875,2.7825,42.4,1.216,57.872,concentric,3,3.0,22855.0,326798.0,295269.0,345829.0,301653.0
2026-04-07 17:56:32.032749,306374,1662414209,1662414994,-1.075552,0.091744,0.113216,-9.1525,11.865,3.71875,42.4,1.216,57.872,concentric,3,3.0,22855.0,326798.0,295269.0,345829.0,301653.0
2026-04-07 17:56:32.061351,306375,1662429195,1662429990,-1.085312,0.085888,0.122976,-10.15,11.47125,4.1825,42.272003,1.248,57.776,concentric,3,3.0,22855.0,326798.0,295269.0,345829.0,301653.0
2026-04-07 17:56:32.089080,306385,1662438745,1662440897,-1.085312,0.085888,0.10736,-11.480001,10.5525,4.4275,42.272003,1.248,57.776,concentric,3,3.0,22531.0,324022.0,292968.0,343274.0,299442.0
2026-04-07 17:56:32.091595,306386,1662447710,1662449610,-1.089216,0.099552,0.10736,-12.3025,9.59,4.85625,42.104004,1.144,57.488003,concentric,3,3.0,22531.0,324022.0,292968.0,343274.0,299442.0
2026-04-07 17:56:32.094271,306387,1662462312,1662464572,-1.097024,0.119072,0.091744,-10.85,9.68625,5.32875,42.184002,0.688,58.856003,concentric,3,3.0,22531.0,324022.0,292968.0,343274.0,299442.0
2026-04-07 17:56:32.098373,306388,1662471327,1662473320,-1.097024,0.119072,0.091744,-9.948751,9.5025,5.50375,42.184002,0.688,58.856003,concentric,3,3.0,22531.0,324022.0,292968.0,343274.0,299442.0
2026-04-07 17:56:32.099847,306389,1662480250,1662482097,-1.079456,0.11712,0.099552,-9.4325,10.03625,5.25,42.664,1.392,58.984,concentric,3,3.0,22531.0,324022.0,292968.0,343274.0,299442.0
2026-04-07 17:56:32.107828,306390,1662489284,1662490879,-1.079456,0.11712,0.099552,-10.22875,9.94,4.2525,42.664,1.392,58.984,concentric,3,3.0,22531.0,324022.0,292968.0,343274.0,299442.0
2026-04-07 17:56:32.136383,306391,1662503797,1662505786,-1.0736,0.11712,0.115168,-11.85625,10.10625,3.82375,42.424004,1.464,58.360004,concentric,3,3.0,22531.0,324022.0,292968.0,343274.0,299442.0
2026-04-07 17:56:32.139887,306392,1662512775,1662514572,-1.0736,0.11712,0.115168,-13.58875,10.47375,1.96875,42.424004,1.464,58.360004,concentric,3,3.0,22531.0,324022.0,292968.0,343274.0,299442.0
2026-04-07 17:56:32.142403,306393,1662521727,1662523268,-1.104832,0.0976,0.132736,-16.87875,10.7975,0.18375,43.024002,0.792,57.112003,concentric,3,3.0,22531.0,324022.0,292968.0,343274.0,299442.0
2026-04-07 17:56:32.199554,306404,1662536263,1662538460,-1.104832,0.0976,0.132736,-17.5875,10.71875,-0.35875,43.024002,0.792,57.112003,concentric,3,3.0,22560.0,324190.0,293074.0,343466.0,299714.0
2026-04-07 17:56:32.201112,306405,1662545308,1662547182,-1.091168,0.105408,0.119072,-16.555,9.40625,0.27125,43.264004,1.48,57.216003,concentric,3,3.0,22560.0,324190.0,293074.0,343466.0,299714.0
2026-04-07 17:56:32.205386,306406,1662554246,1662555908,-1.091168,0.105408,0.119072,-13.37,8.75875,-0.39375,43.264004,1.48,57.216003,concentric,3,3.0,22560.0,324190.0,293074.0,343466.0,299714.0
2026-04-07 17:56:32.207074,306407,1662568863,1662570855,-1.089216,0.109312,0.095648,-11.68125,8.46125,-1.4525,43.176003,1.784,56.800003,concentric,3,3.0,22560.0,324190.0,293074.0,343466.0,299714.0
2026-04-07 17:56:32.208759,306408,1662577937,1662579610,-1.089216,0.109312,0.095648,-10.96375,8.96,-2.61625,43.176003,1.784,56.800003,concentric,3,3.0,22560.0,324190.0,293074.0,343466.0,299714.0
2026-04-07 17:56:32.212913,306409,1662586995,1662588402,-1.061888,0.10736,0.083936,-10.85875,8.33875,-2.6425,43.216003,1.216,58.136,concentric,3,3.0,22560.0,324190.0,293074.0,343466.0,299714.0
2026-04-07 17:56:32.214373,306410,1662595910,1662597124,-1.061888,0.10736,0.083936,-10.745,7.5425,-3.96375,43.216003,1.216,58.136,concentric,3,3.0,22560.0,324190.0,293074.0,343466.0,299714.0
2026-04-07 17:56:32.243760,306411,1662610445,1662612021,-1.075552,0.0976,0.08784,-10.3775,7.175,-5.495,43.008003,1.096,58.808002,concentric,3,3.0,22560.0,324190.0,293074.0,343466.0,299714.0
2026-04-07 17:56:32.248254,306412,1662619366,1662620718,-1.075552,0.0976,0.080032,-10.115,6.34375,-5.18875,43.008003,1.096,58.808002,concentric,3,3.0,22560.0,324190.0,293074.0,343466.0,299714.0
2026-04-07 17:56:32.249955,306413,1662628260,1662629433,-1.069696,0.0976,0.080032,-8.82875,4.69875,-5.27625,43.328003,1.384,57.432003,concentric,3,3.0,22560.0,324190.0,293074.0,343466.0,299714.0
2026-04-07 17:56:32.314071,306423,1662642840,1662644400,-1.069696,0.099552,0.054656,-7.805,3.745,-4.7775,43.928,1.976,56.584003,concentric,3,3.0,22384.0,322802.0,291954.0,342212.0,298674.0
2026-04-07 17:56:32.315860,306424,1662651817,1662653132,-1.069696,0.099552,0.054656,-6.18625,3.57,-5.0225,43.928,1.976,56.584003,concentric,3,3.0,22384.0,322802.0,291954.0,342212.0,298674.0
2026-04-07 17:56:32.317353,306425,1662660762,1662661825,-1.057984,0.095648,0.052704,-4.7075,3.35125,-5.075,43.280003,2.168,56.696003,concentric,3,3.0,22384.0,322802.0,291954.0,342212.0,298674.0
2026-04-07 17:56:32.321578,306426,1662675325,1662676714,-1.057984,0.095648,0.052704,-3.3425,3.26375,-5.45125,43.280003,2.168,56.696003,concentric,3,3.0,22384.0,322802.0,291954.0,342212.0,298674.0
2026-04-07 17:56:32.323304,306427,1662684306,1662685434,-1.069696,0.0976,0.066368,-1.47875,4.48,-5.10125,43.392002,1.76,56.744003,concentric,3,3.0,22384.0,322802.0,291954.0,342212.0,298674.0
2026-04-07 17:56:32.325736,306428,1662693239,1662694187,-1.069696,0.0976,0.066368,-0.0525,4.19125,-6.11625,43.392002,1.76,56.744003,concentric,3,3.0,22384.0,322802.0,291954.0,342212.0,298674.0
2026-04-07 17:56:32.328118,306429,1662702262,1662702922,-1.079456,0.0976,0.0976,0.55125,4.29625,-6.5275,43.848003,1.944,56.288002,concentric,3,3.0,22384.0,322802.0,291954.0,342212.0,298674.0
2026-04-07 17:56:32.335275,306430,1662717260,1662717906,-1.079456,0.0976,0.0976,0.6825,4.935,-7.25375,43.848003,1.944,56.288002,concentric,3,3.0,22384.0,322802.0,291954.0,342212.0,298674.0
2026-04-07 17:56:32.363860,306431,1662726783,1662728730,-1.08336,0.08784,0.085888,1.225,5.22375,-7.84,43.752003,1.768,58.368004,concentric,3,3.0,22384.0,322802.0,291954.0,342212.0,298674.0
2026-04-07 17:56:32.390900,306441,1662735693,1662737423,-1.08336,0.08784,0.085888,2.9575,4.7425,-7.77875,43.752003,1.768,58.368004,concentric,3,3.0,22853.0,326547.0,295047.0,345615.0,301831.0
2026-04-07 17:56:32.392453,306442,1662744595,1662746148,-1.067744,0.074176,0.095648,4.87375,5.32,-6.86875,43.312,1.48,57.064003,concentric,3,3.0,22853.0,326547.0,295047.0,345615.0,301831.0
2026-04-07 17:56:32.396760,306443,1662759185,1662761138,-1.067744,0.074176,0.095648,7.49875,5.4425,-6.0025,43.312,1.48,57.064003,concentric,3,3.0,22853.0,326547.0,295047.0,345615.0,301831.0
2026-04-07 17:56:32.398319,306444,1662768148,1662769886,-1.081408,0.080032,0.081984,8.68875,5.48625,-5.88,43.320004,1.6,56.512,concentric,3,3.0,22853.0,326547.0,295047.0,345615.0,301831.0
2026-04-07 17:56:32.399896,306445,1662777082,1662778599,-1.081408,0.080032,0.081984,9.65125,4.69875,-5.57375,43.320004,1.6,56.512,concentric,3,3.0,22853.0,326547.0,295047.0,345615.0,301831.0
2026-04-07 17:56:32.430931,306446,1662791644,1662793533,-1.061888,0.115168,0.085888,9.56375,4.96125,-5.705,43.288002,1.84,58.160004,concentric,3,3.0,22853.0,326547.0,295047.0,345615.0,301831.0
2026-04-07 17:56:32.436218,306447,1662800567,1662802238,-1.061888,0.144448,0.064416,8.93375,5.04,-6.825,43.288002,1.84,58.160004,concentric,3,3.0,22853.0,326547.0,295047.0,345615.0,301831.0
2026-04-07 17:56:32.437427,306448,1662809473,1662810919,-1.0736,0.144448,0.064416,3.91125,5.495,-6.50125,43.536003,2.072,56.984,concentric,3,3.0,22853.0,326547.0,295047.0,345615.0,301831.0
2026-04-07 17:56:32.442760,306449,1662824028,1662825818,-1.085312,0.103456,0.023424,-2.35375,5.36375,-6.4225,43.904003,1.64,56.712,concentric,3,3.0,22853.0,326547.0,295047.0,345615.0,301831.0
2026-04-07 17:56:32.471244,306450,1662833024,1662834552,-1.085312,0.103456,0.023424,-7.07,5.4075,-7.07875,43.904003,1.64,56.712,concentric,3,3.0,22853.0,326547.0,295047.0,345615.0,301831.0
2026-04-07 17:56:32.500928,306461,1662842093,1662843331,-1.075552,0.08784,0.02928,-7.2975,5.18,-7.79625,43.312,2.048,56.536003,concentric,3,3.0,23182.0,329091.0,297176.0,347825.0,303788.0
2026-04-07 17:56:32.503271,306462,1662851022,1662852083,-1.075552,0.08784,0.02928,-5.95875,4.61125,-7.62125,43.312,2.048,56.536003,concentric,3,3.0,23182.0,329091.0,297176.0,347825.0,303788.0
2026-04-07 17:56:32.504798,306463,1662865472,1662866946,-1.075552,0.083936,0.040992,-1.86375,4.71625,-8.015,43.776,1.768,57.184002,concentric,3,3.0,23182.0,329091.0,297176.0,347825.0,303788.0
2026-04-07 17:56:32.509136,306464,1662874433,1662875710,-1.075552,0.083936,0.040992,1.4525,4.2,-8.2425,43.776,1.768,57.184002,concentric,3,3.0,23182.0,329091.0,297176.0,347825.0,303788.0
2026-04-07 17:56:32.511942,306465,1662883447,1662884454,-1.057984,0.10736,0.074176,4.025,4.865,-7.48125,43.312,1.408,59.304005,concentric,3,3.0,23182.0,329091.0,297176.0,347825.0,303788.0
2026-04-07 17:56:32.517833,306466,1662897924,1662899349,-1.057984,0.10736,0.074176,3.96375,5.18,-6.71125,43.312,1.408,59.304005,concentric,3,3.0,23182.0,329091.0,297176.0,347825.0,303788.0
2026-04-07 17:56:32.588514,306467,1662906845,1662908034,-1.077504,0.109312,0.091744,2.7475,5.6,-6.7725,43.192,1.448,57.976,concentric,3,3.0,23182.0,329091.0,297176.0,347825.0,303788.0
2026-04-07 17:56:32.590975,306468,1662915761,1662916786,-1.077504,0.109312,0.091744,2.17875,6.5975,-7.2975,43.192,1.448,57.976,concentric,3,3.0,23182.0,329091.0,297176.0,347825.0,303788.0
2026-04-07 17:56:32.604228,306469,1662930206,1662931685,-1.087264,0.113216,0.08784,1.91625,7.32375,-6.965,44.696003,2.264,56.168003,concentric,3,3.0,23182.0,329091.0,297176.0,347825.0,303788.0
2026-04-07 17:56:32.629167,306479,1662939348,1662940702,-1.087264,0.113216,0.08784,1.56625,8.6975,-8.37375,44.696003,2.264,56.168003,concentric,3,3.0,23463.0,331440.0,299132.0,350021.0,305697.0
2026-04-07 17:56:32.630875,306480,1662948331,1662949441,-1.089216,0.154208,0.072224,-0.39375,10.4475,-7.875,44.616,1.912,57.168003,concentric,3,3.0,23463.0,331440.0,299132.0,350021.0,305697.0
2026-04-07 17:56:32.632366,306481,1662962784,1662964337,-1.087264,0.148352,0.046848,-2.17875,12.15375,-8.0675,43.984,2.0,56.352,concentric,3,3.0,23463.0,331440.0,299132.0,350021.0,305697.0
2026-04-07 17:56:32.636604,306482,1662971715,1662973033,-1.087264,0.148352,0.046848,-4.5675,12.3375,-9.835,43.984,2.0,56.352,concentric,3,3.0,23463.0,331440.0,299132.0,350021.0,305697.0
2026-04-07 17:56:32.638366,306483,1662980654,1662981737,-1.087264,0.148352,0.046848,-7.5075,12.8625,-9.765,43.984,2.0,56.352,concentric,3,3.0,23463.0,331440.0,299132.0,350021.0,305697.0
2026-04-07 17:56:32.640760,306484,1662989564,1662990469,-1.10288,0.121024,0.056608,-9.10875,13.36125,-11.042501,44.456,1.688,57.504,concentric,3,3.0,23463.0,331440.0,299132.0,350021.0,305697.0
2026-04-07 17:56:32.642286,306485,1663004088,1663005361,-1.128256,0.08784,0.066368,-8.785,13.440001,-12.7225,43.88,2.04,57.688004,concentric,3,3.0,23463.0,331440.0,299132.0,350021.0,305697.0
2026-04-07 17:56:32.646589,306486,1663013026,1663014119,-1.128256,0.08784,0.066368,-7.4025,12.94125,-12.5475,43.88,2.04,57.688004,concentric,3,3.0,23463.0,331440.0,299132.0,350021.0,305697.0
2026-04-07 17:56:32.649044,306487,1663022045,1663022848,-1.15168,0.0976,0.085888,-4.0075,13.2825,-12.48625,43.88,2.32,56.192,concentric,3,3.0,23463.0,331440.0,299132.0,350021.0,305697.0
2026-04-07 17:56:32.653579,306488,1663036548,1663037734,-1.15168,0.0976,0.085888,-1.68875,13.04625,-12.08375,44.024002,2.32,56.192,concentric,3,3.0,23463.0,331440.0,299132.0,350021.0,305697.0
2026-04-07 17:56:32.681138,306498,1663045615,1663046493,-1.182912,0.10736,0.064416,0.49875,11.85625,-12.48625,43.600002,2.248,56.408,concentric,3,3.0,23604.0,333229.0,300611.0,351658.0,306799.0
2026-04-07 17:56:32.685441,306499,1663054553,1663055215,-1.182912,0.10736,0.064416,3.57875,11.05125,-12.8275,43.600002,2.248,56.408,concentric,3,3.0,23604.0,333229.0,300611.0,351658.0,306799.0
2026-04-07 17:56:32.687776,306500,1663069416,1663070217,-1.194624,0.103456,0.062464,6.5275,11.69,-12.60875,43.68,2.048,55.256004,concentric,3,3.0,23604.0,333229.0,300611.0,351658.0,306799.0
2026-04-07 17:56:32.716256,306501,1663078807,1663080996,-1.194624,0.103456,0.062464,6.74625,11.92625,-12.74875,43.68,2.048,55.256004,concentric,3,3.0,23604.0,333229.0,300611.0,351658.0,306799.0
2026-04-07 17:56:32.720797,306502,1663087741,1663089674,-1.218048,0.070272,0.080032,3.8675,11.99625,-12.792501,44.960003,2.472,55.576004,concentric,3,3.0,23604.0,333229.0,300611.0,351658.0,306799.0
2026-04-07 17:56:32.722716,306503,1663096666,1663098366,-1.218048,0.070272,0.080032,-0.035,12.03125,-12.94125,44.960003,2.472,55.576004,concentric,3,3.0,23604.0,333229.0,300611.0,351658.0,306799.0
2026-04-07 17:56:32.728950,306504,1663111156,1663113335,-1.266848,0.0488,0.06832,-1.11125,11.515,-12.55625,44.792004,1.696,55.480003,concentric,3,3.0,23604.0,333229.0,300611.0,351658.0,306799.0
2026-04-07 17:56:32.757560,306505,1663120109,1663122037,-1.266848,0.0488,0.06832,0.77,10.35125,-10.73625,44.792004,1.696,55.480003,concentric,3,3.0,23604.0,333229.0,300611.0,351658.0,306799.0
2026-04-07 17:56:32.762117,306506,1663129025,1663130752,-1.282464,0.021472,0.040992,3.675,9.0825,-8.53125,44.640003,2.528,57.328003,concentric,3,3.0,23604.0,333229.0,300611.0,351658.0,306799.0
2026-04-07 17:56:32.790654,306517,1663143637,1663143963,-1.3176,-0.015616,-0.033184,6.7725,8.53125,-6.57125,44.960003,2.44,58.024002,eccentric,3,3.0,22888.0,327072.0,295303.0,345625.0,301122.0
2026-04-07 17:56:32.792090,306518,1663152934,1663154787,-1.3176,-0.015616,-0.033184,10.4825,8.4525,-4.3925,44.960003,2.44,58.024002,eccentric,3,3.0,22888.0,327072.0,295303.0,345625.0,301122.0
2026-04-07 17:56:32.793683,306519,1663161899,1663163698,-1.3176,-0.015616,-0.033184,15.3125,7.665,-3.21125,44.960003,2.44,58.024002,eccentric,3,3.0,22888.0,327072.0,295303.0,345625.0,301122.0
2026-04-07 17:56:32.804168,306520,1663170850,1663172425,-1.352736,0.081984,-0.00976,20.2825,5.6,-3.5175,43.728,1.912,57.496002,eccentric,3,3.0,22888.0,327072.0,295303.0,345625.0,301122.0
2026-04-07 17:56:32.805757,306521,1663185471,1663187355,-1.382016,0.210816,0.081984,22.11125,2.8,-5.4075,44.072002,1.952,57.304,eccentric,3,3.0,22888.0,327072.0,295303.0,345625.0,301122.0
2026-04-07 17:56:32.812786,306522,1663194382,1663196058,-1.382016,0.210816,0.081984,16.8875,1.12875,-5.97625,44.072002,1.952,57.304,eccentric,3,3.0,22888.0,327072.0,295303.0,345625.0,301122.0
2026-04-07 17:56:32.843475,306523,1663203410,1663204760,-1.362496,0.154208,0.154208,7.3325,0.04375,-5.25875,44.296,2.608,56.800003,eccentric,3,3.0,22888.0,327072.0,295303.0,345625.0,301122.0
2026-04-07 17:56:32.847937,306524,1663217947,1663219682,-1.362496,0.154208,0.154208,-3.08875,-0.98,-3.6925,44.296,2.608,56.800003,eccentric,3,3.0,22888.0,327072.0,295303.0,345625.0,301122.0
2026-04-07 17:56:32.849563,306525,1663226907,1663228397,-1.34688,0.062464,0.189344,-9.5725,-1.0325,-2.54625,44.368004,2.656,55.984,eccentric,3,3.0,22888.0,327072.0,295303.0,345625.0,301122.0
2026-04-07 17:56:32.851154,306526,1663235826,1663237103,-1.34688,0.062464,0.189344,-8.6625,-1.4525,-3.0625,44.368004,2.656,55.984,eccentric,3,3.0,22888.0,327072.0,295303.0,345625.0,301122.0
2026-04-07 17:56:32.910770,306536,1663250445,1663252122,-1.37616,0.105408,0.163968,-1.74125,-2.65125,-3.68375,44.632004,2.504,57.320004,eccentric,3,3.0,22591.0,323985.0,292280.0,341857.0,297664.0
2026-04-07 17:56:32.913272,306537,1663259372,1663260806,-1.37616,0.105408,0.163968,7.13125,-4.2875,-3.2375,44.632004,2.504,57.320004,eccentric,3,3.0,22591.0,323985.0,292280.0,341857.0,297664.0
2026-04-07 17:56:32.915348,306538,1663268428,1663269551,-1.360544,0.206912,0.119072,12.1975,-4.97875,-5.48625,44.128002,1.904,56.464005,eccentric,3,3.0,22591.0,323985.0,292280.0,341857.0,297664.0
2026-04-07 17:56:32.919191,306539,1663277398,1663278231,-1.360544,0.206912,0.119072,10.36875,-4.47125,-7.525,44.128002,1.904,56.464005,eccentric,3,3.0,22591.0,323985.0,292280.0,341857.0,297664.0
2026-04-07 17:56:32.920818,306540,1663291971,1663293167,-1.354688,0.210816,0.12688,5.635,-3.40375,-9.2575,43.960003,2.448,57.488003,eccentric,3,3.0,22591.0,323985.0,292280.0,341857.0,297664.0
2026-04-07 17:56:32.922472,306541,1663300929,1663301880,-1.354688,0.210816,0.12688,2.24875,-3.14125,-11.08625,43.960003,2.448,57.488003,eccentric,3,3.0,22591.0,323985.0,292280.0,341857.0,297664.0
2026-04-07 17:56:32.925811,306542,1663309852,1663310610,-1.32736,0.183488,0.111264,0.0,-3.4825,-12.06625,43.56,2.664,57.320004,eccentric,3,3.0,22591.0,323985.0,292280.0,341857.0,297664.0
2026-04-07 17:56:32.959152,306543,1663324913,1663325591,-1.30784,0.130784,0.07808,-3.17625,-4.73375,-12.3375,43.512,2.888,55.736004,eccentric,3,3.0,22591.0,323985.0,292280.0,341857.0,297664.0
2026-04-07 17:56:32.960900,306544,1663334211,1663336365,-1.30784,0.130784,0.07808,-4.935,-5.95,-12.20625,43.512,2.888,55.736004,eccentric,3,3.0,22591.0,323985.0,292280.0,341857.0,297664.0
2026-04-07 17:56:32.986665,306554,1663343608,1663345144,-1.10288,0.216672,0.072224,-4.27875,-7.63875,-11.61125,43.512,2.616,53.776,eccentric,3,3.0,22346.0,321998.0,290723.0,340330.0,296671.0
2026-04-07 17:56:32.988314,306555,1663352590,1663353901,-1.10288,0.216672,0.072224,5.10125,-9.730001,-9.695,43.368004,2.616,53.776,eccentric,3,3.0,22346.0,321998.0,290723.0,340330.0,296671.0
2026-04-07 17:56:32.989877,306556,1663367162,1663369007,-1.264896,0.474336,0.080032,34.58,-16.26625,-3.3075,42.496002,2.536,57.760002,eccentric,3,3.0,22346.0,321998.0,290723.0,340330.0,296671.0
2026-04-07 17:56:32.993977,306557,1663376179,1663377722,-1.264896,0.474336,0.080032,40.11,-21.866251,2.17875,42.496002,2.536,57.760002,eccentric,3,3.0,22346.0,321998.0,290723.0,340330.0,296671.0
2026-04-07 17:56:33.022597,306558,1663385241,1663386465,-1.393728,0.08784,-0.003904,14.30625,-20.09,2.24,43.144,2.816,58.160004,eccentric,3,3.0,22346.0,321998.0,290723.0,340330.0,296671.0
2026-04-07 17:56:33.027052,306559,1663399704,1663401399,-1.393728,0.08784,-0.003904,-3.89375,-18.26125,-2.695,43.144,2.816,58.160004,eccentric,3,3.0,22346.0,321998.0,290723.0,340330.0,296671.0
2026-04-07 17:56:33.029457,306560,1663408652,1663410133,-1.253184,0.011712,0.083936,2.5375,-16.93125,-7.875,42.816,2.512,56.704002,eccentric,3,3.0,22346.0,321998.0,290723.0,340330.0,296671.0
2026-04-07 17:56:33.036490,306561,1663417600,1663418869,-1.253184,0.011712,0.083936,19.27625,-16.52875,-8.37375,42.816,2.512,56.704002,eccentric,3,3.0,22346.0,321998.0,290723.0,340330.0,296671.0
2026-04-07 17:56:33.065062,306562,1663426507,1663427607,-1.231712,0.0488,0.091744,32.585,-16.415,-7.175,42.568,2.448,57.328003,eccentric,3,3.0,22346.0,321998.0,290723.0,340330.0,296671.0
2026-04-07 17:56:33.098256,306572,1663441171,1663442552,-1.231712,0.0488,0.091744,37.5725,-16.19625,-7.27125,42.568,2.448,57.328003,eccentric,3,3.0,23549.0,331113.0,297852.0,347799.0,303625.0
2026-04-07 17:56:33.100745,306573,1663450214,1663451325,-1.192672,0.037088,0.113216,35.55125,-15.75,-5.0925,41.776,2.392,56.680004,eccentric,3,3.0,23549.0,331113.0,297852.0,347799.0,303625.0
2026-04-07 17:56:33.102395,306574,1663459115,1663460133,-1.192672,0.037088,0.113216,33.1625,-15.05,-1.77625,41.776,2.392,56.680004,eccentric,3,3.0,23549.0,331113.0,297852.0,347799.0,303625.0
2026-04-07 17:56:33.106605,306575,1663473606,1663475072,-1.167296,0.07808,0.113216,30.415,-15.785,0.56,41.920002,1.896,57.360004,eccentric,3,3.0,23549.0,331113.0,297852.0,347799.0,303625.0
2026-04-07 17:56:33.108340,306576,1663482548,1663483765,-1.167296,0.07808,0.113216,28.25375,-15.68875,2.5725,41.920002,1.896,57.360004,eccentric,3,3.0,23549.0,331113.0,297852.0,347799.0,303625.0
2026-04-07 17:56:33.109925,306577,1663491528,1663492472,-1.15168,0.111264,0.10736,25.27875,-14.18375,5.52125,41.248,1.728,57.072002,eccentric,3,3.0,23549.0,331113.0,297852.0,347799.0,303625.0
2026-04-07 17:56:33.141092,306578,1663506028,1663507448,-1.130208,0.122976,0.064416,22.505,-13.55375,6.825,41.328003,1.976,57.232002,eccentric,3,3.0,23549.0,331113.0,297852.0,347799.0,303625.0
2026-04-07 17:56:33.145453,306579,1663514975,1663516156,-1.130208,0.122976,0.064416,20.195,-12.32875,6.32625,41.328003,1.976,57.232002,eccentric,3,3.0,23549.0,331113.0,297852.0,347799.0,303625.0
2026-04-07 17:56:33.147071,306580,1663523888,1663524871,-1.130208,0.154208,0.074176,18.3225,-11.515,6.02875,41.328003,1.976,57.232002,eccentric,3,3.0,23549.0,331113.0,297852.0,347799.0,303625.0
2026-04-07 17:56:33.148636,306581,1663532806,1663533660,-1.098976,0.154208,0.074176,15.2775,-11.41,5.43375,41.208,2.08,57.632004,eccentric,3,3.0,23549.0,331113.0,297852.0,347799.0,303625.0
2026-04-07 17:56:33.232046,306592,1663547379,1663548697,-1.050176,0.089792,0.070272,14.39375,-11.13,4.97,40.824,1.36,58.272003,eccentric,3,3.0,23309.0,328580.0,295342.0,344541.0,300379.0
2026-04-07 17:56:33.233323,306593,1663556309,1663557402,-1.050176,0.089792,0.070272,13.58875,-10.52625,3.8675,40.824,1.36,58.272003,eccentric,3,3.0,23309.0,328580.0,295342.0,344541.0,300379.0
2026-04-07 17:56:33.235354,306594,1663565220,1663566082,-1.09312,0.07808,0.03904,12.22375,-10.12375,2.87,40.104,1.648,56.392002,eccentric,3,3.0,23309.0,328580.0,295342.0,344541.0,300379.0
2026-04-07 17:56:33.239142,306595,1663579685,1663580980,-1.09312,0.07808,0.03904,12.6175,-9.87875,1.9425,40.104,1.648,56.392002,eccentric,3,3.0,23309.0,328580.0,295342.0,344541.0,300379.0
2026-04-07 17:56:33.240791,306596,1663588618,1663589732,-1.059936,0.07808,0.023424,14.51625,-9.87,1.12,40.120003,1.176,58.432003,eccentric,3,3.0,23309.0,328580.0,295342.0,344541.0,300379.0
2026-04-07 17:56:33.242434,306597,1663597531,1663598502,-1.059936,0.07808,0.023424,18.0425,-10.22,1.2425,40.120003,1.176,58.432003,eccentric,3,3.0,23309.0,328580.0,295342.0,344541.0,300379.0
2026-04-07 17:56:33.246603,306598,1663612065,1663613442,-1.05408,0.11712,0.015616,22.58375,-10.36,1.63625,40.512,1.88,57.200005,eccentric,3,3.0,23309.0,328580.0,295342.0,344541.0,300379.0
2026-04-07 17:56:33.248323,306599,1663621013,1663622136,-1.05408,0.11712,0.015616,26.3725,-10.43875,2.555,40.512,1.88,57.200005,eccentric,3,3.0,23309.0,328580.0,295342.0,344541.0,300379.0
2026-04-07 17:56:33.249901,306600,1663629955,1663630839,-1.020896,0.1464,0.042944,26.678751,-10.22,3.6575,39.960003,1.888,57.304,eccentric,3,3.0,23309.0,328580.0,295342.0,344541.0,300379.0
2026-04-07 17:56:33.305368,306610,1663645079,1663646209,-1.020896,0.11712,0.06832,23.1525,-9.37125,3.91125,39.536003,1.112,61.232002,eccentric,3,3.0,22861.0,324848.0,292255.0,341082.0,297066.0
2026-04-07 17:56:33.307089,306611,1663654111,1663654914,-1.020896,0.11712,0.06832,20.20375,-8.785,5.32,39.536003,1.112,61.232002,eccentric,3,3.0,22861.0,324848.0,292255.0,341082.0,297066.0
2026-04-07 17:56:33.308646,306612,1663663033,1663663603,-1.020896,0.11712,0.06832,19.85375,-7.84875,5.74,39.536003,1.112,61.232002,eccentric,3,3.0,22861.0,324848.0,292255.0,341082.0,297066.0
2026-04-07 17:56:33.312852,306613,1663672207,1663674390,-0.997472,0.099552,0.06832,21.7875,-7.76125,6.125,39.56,0.616,57.544003,eccentric,3,3.0,22861.0,324848.0,292255.0,341082.0,297066.0
2026-04-07 17:56:33.314659,306614,1663686766,1663687234,-0.976,0.111264,0.064416,24.07125,-7.455,6.1425,39.528004,0.632,59.016003,eccentric,3,3.0,22861.0,324848.0,292255.0,341082.0,297066.0
2026-04-07 17:56:33.316987,306615,1663696110,1663698062,-0.976,0.111264,0.064416,25.64625,-6.23,3.745,39.528004,0.632,59.016003,eccentric,3,3.0,22861.0,324848.0,292255.0,341082.0,297066.0
2026-04-07 17:56:33.322831,306616,1663705037,1663706811,-0.958432,0.128832,0.06832,25.12125,-4.94375,3.66625,39.528004,-0.184,59.384003,eccentric,3,3.0,22861.0,324848.0,292255.0,341082.0,297066.0
2026-04-07 17:56:33.354752,306617,1663713974,1663715521,-0.958432,0.128832,0.06832,24.43875,-3.45625,3.01,38.744003,-0.184,59.384003,eccentric,3,3.0,22861.0,324848.0,292255.0,341082.0,297066.0
2026-04-07 17:56:33.356977,306618,1663728441,1663730439,-0.919392,0.124928,0.062464,24.21125,-2.03,2.66,39.064003,0.408,57.256004,eccentric,3,3.0,22861.0,324848.0,292255.0,341082.0,297066.0
2026-04-07 17:56:33.361691,306619,1663737354,1663739133,-0.919392,0.124928,0.062464,24.66625,-1.35625,2.98375,39.064003,0.408,57.256004,eccentric,3,3.0,22861.0,324848.0,292255.0,341082.0,297066.0
2026-04-07 17:56:33.386677,306629,1663746420,1663747855,-0.864736,0.121024,0.046848,26.83625,-1.05875,0.88375,38.960003,-0.136,57.264004,eccentric,3,3.0,22923.0,325284.0,292533.0,341347.0,297135.0
2026-04-07 17:56:33.388315,306630,1663760988,1663762846,-0.864736,0.121024,0.046848,28.56,-0.76125,-0.035,38.960003,-0.136,57.264004,eccentric,3,3.0,22923.0,325284.0,292533.0,341347.0,297135.0
2026-04-07 17:56:33.390691,306631,1663769939,1663771579,-0.792512,0.154208,0.07808,29.5925,0.60375,-1.58375,38.936,-0.336,56.944004,eccentric,3,3.0,22923.0,325284.0,292533.0,341347.0,297135.0
2026-04-07 17:56:33.396753,306632,1663778915,1663780342,-0.792512,0.154208,0.07808,25.85625,2.8525,-3.21125,38.936,-0.336,56.944004,eccentric,3,3.0,22923.0,325284.0,292533.0,341347.0,297135.0
2026-04-07 17:56:33.425078,306633,1663793386,1663795253,-0.798368,0.17568,0.080032,15.14625,5.95875,-3.94625,39.192,-0.016,57.112003,eccentric,3,3.0,22923.0,325284.0,292533.0,341347.0,297135.0
2026-04-07 17:56:33.429589,306634,1663802312,1663803963,-0.798368,0.17568,0.080032,1.74125,10.2725,-5.15375,39.192,-0.016,57.112003,eccentric,3,3.0,22923.0,325284.0,292533.0,341347.0,297135.0
2026-04-07 17:56:33.431073,306635,1663811239,1663812667,-0.817888,0.134688,0.066368,-8.21625,13.335,-4.97875,39.432003,0.056,56.840004,eccentric,3,3.0,22923.0,325284.0,292533.0,341347.0,297135.0
2026-04-07 17:56:33.489853,306636,1663825763,1663827593,-0.845216,0.046848,0.062464,-13.09875,15.2775,-4.80375,39.440002,0.712,59.048004,eccentric,3,3.0,22923.0,325284.0,292533.0,341347.0,297135.0
2026-04-07 17:56:33.492015,306637,1663834679,1663836255,-0.845216,0.046848,0.062464,-13.72,17.22,-6.4925,39.440002,0.712,59.048004,eccentric,3,3.0,22923.0,325284.0,292533.0,341347.0,297135.0
2026-04-07 17:56:33.520811,306648,1663844157,1663845047,-0.845216,0.046848,0.062464,-9.345,17.4475,-7.72625,39.440002,0.712,59.048004,eccentric,3,3.0,23061.0,326645.0,293765.0,342839.0,298517.0
2026-04-07 17:56:33.522374,306649,1663853141,1663853789,-0.843264,-0.003904,0.037088,0.245,15.61875,-8.18125,39.656002,0.6,55.016003,eccentric,3,3.0,23061.0,326645.0,293765.0,342839.0,298517.0
2026-04-07 17:56:33.526546,306650,1663867927,1663868695,-0.81984,0.085888,0.017568,14.84,11.935,-10.815,39.440002,0.224,55.912003,eccentric,3,3.0,23061.0,326645.0,293765.0,342839.0,298517.0
2026-04-07 17:56:33.528294,306651,1663876827,1663877437,-0.81984,0.085888,0.017568,28.00875,8.785,-12.9675,39.440002,0.224,55.912003,eccentric,3,3.0,23061.0,326645.0,293765.0,342839.0,298517.0
2026-04-07 17:56:33.530847,306652,1663886049,1663888226,-0.833504,0.169824,0.003904,35.23625,6.58875,-15.2775,39.192,0.024,55.648003,eccentric,3,3.0,23061.0,326645.0,293765.0,342839.0,298517.0
2026-04-07 17:56:33.532332,306653,1663895015,1663896938,-0.833504,0.169824,0.003904,34.755,5.36375,-17.5,39.192,0.024,55.648003,eccentric,3,3.0,23061.0,326645.0,293765.0,342839.0,298517.0
2026-04-07 17:56:33.536763,306654,1663909656,1663911875,-0.825696,0.1464,0.017568,29.39125,5.285,-17.01875,38.736,-0.288,57.128002,eccentric,3,3.0,23061.0,326645.0,293765.0,342839.0,298517.0
2026-04-07 17:56:33.539127,306655,1663918663,1663920606,-0.825696,0.1464,0.017568,21.93625,6.16,-15.91625,38.736,-0.288,57.128002,eccentric,3,3.0,23061.0,326645.0,293765.0,342839.0,298517.0
2026-04-07 17:56:33.545268,306656,1663927615,1663929328,-0.83936,0.109312,0.050752,13.67625,7.6825,-14.84,39.024002,0.048,56.888004,eccentric,3,3.0,23061.0,326645.0,293765.0,342839.0,298517.0
2026-04-07 17:56:33.617433,306666,1663942696,1663944970,-0.83936,0.109312,0.050752,6.965,9.33625,-14.35,39.024002,0.048,56.888004,eccentric,3,3.0,23004.0,326195.0,293355.0,342292.0,297895.0
2026-04-07 17:56:33.618719,306667,1663951787,1663953680,-0.806176,0.052704,0.091744,3.045,10.0275,-13.37,39.208,-0.248,57.304,eccentric,3,3.0,23004.0,326195.0,293355.0,342292.0,297895.0
2026-04-07 17:56:33.623161,306668,1663960742,1663962406,-0.806176,0.052704,0.091744,0.77,10.386251,-11.68125,39.208,-0.248,57.304,eccentric,3,3.0,23004.0,326195.0,293355.0,342292.0,297895.0
2026-04-07 17:56:33.632133,306669,1663969639,1663971099,-0.772992,-0.103456,0.121024,2.4675,9.5725,-8.68,39.064003,-0.136,57.616,eccentric,3,3.0,23004.0,326195.0,293355.0,342292.0,297895.0
2026-04-07 17:56:33.633406,306670,1663984333,1663986028,-0.772992,-0.103456,0.121024,6.72875,9.065,-5.5125,39.064003,-0.136,57.616,eccentric,3,3.0,23004.0,326195.0,293355.0,342292.0,297895.0
2026-04-07 17:56:33.634933,306671,1663993322,1663994713,-0.827648,-0.07808,0.083936,16.59,9.0475,-5.4425,38.448,-0.216,58.88,eccentric,3,3.0,23004.0,326195.0,293355.0,342292.0,297895.0
2026-04-07 17:56:33.639123,306672,1664002358,1664003429,-0.827648,-0.07808,0.083936,27.88625,8.47,-7.65625,38.448,-0.216,58.88,eccentric,3,3.0,23004.0,326195.0,293355.0,342292.0,297895.0
2026-04-07 17:56:33.640906,306673,1664016888,1664018329,-0.821792,0.109312,0.064416,37.31,8.12875,-10.89375,39.296,-0.888,56.128002,eccentric,3,3.0,23004.0,326195.0,293355.0,342292.0,297895.0
2026-04-07 17:56:33.642390,306674,1664025892,1664027027,-0.821792,0.109312,0.0976,40.57375,8.54875,-14.42,39.296,-0.888,56.128002,eccentric,3,3.0,23004.0,326195.0,293355.0,342292.0,297895.0
2026-04-07 17:56:33.673443,306675,1664034842,1664035837,-0.815936,0.286944,0.0976,38.99,9.26625,-15.4525,39.08,-1.072,57.016003,eccentric,3,3.0,23004.0,326195.0,293355.0,342292.0,297895.0
2026-04-07 17:56:33.709112,306685,1664049465,1664051084,-0.831552,0.259616,0.134688,31.00125,10.22875,-14.665,39.816,-0.576,56.056004,eccentric,3,3.0,22775.0,324339.0,291758.0,340388.0,295871.0
2026-04-07 17:56:33.710766,306686,1664058445,1664059787,-0.831552,0.259616,0.134688,19.53875,12.06625,-13.195,39.816,-0.576,56.056004,eccentric,3,3.0,22775.0,324339.0,291758.0,340388.0,295871.0
2026-04-07 17:56:33.712669,306687,1664067374,1664068495,-0.870592,0.121024,0.154208,7.4725,14.4375,-11.515,40.160004,-0.968,55.696003,eccentric,3,3.0,22775.0,324339.0,291758.0,340388.0,295871.0
2026-04-07 17:56:33.716487,306688,1664076300,1664077186,-0.870592,0.121024,0.154208,-1.33,16.89625,-12.46,40.160004,-0.968,55.696003,eccentric,3,3.0,22775.0,324339.0,291758.0,340388.0,295871.0
2026-04-07 17:56:33.722902,306689,1664090863,1664092162,-0.929152,0.074176,0.203008,-4.8475,19.15375,-15.14625,39.616,-0.544,56.792004,eccentric,3,3.0,22775.0,324339.0,291758.0,340388.0,295871.0
2026-04-07 17:56:33.724668,306690,1664099790,1664100878,-0.929152,0.074176,0.203008,-3.2375,20.125,-18.1825,39.616,-0.544,56.792004,eccentric,3,3.0,22775.0,324339.0,291758.0,340388.0,295871.0
2026-04-07 17:56:33.726169,306691,1664108743,1664109748,-0.976,0.12688,0.232288,-0.84,21.06125,-18.54125,40.032,0.04,57.200005,eccentric,3,3.0,22775.0,324339.0,291758.0,340388.0,295871.0
2026-04-07 17:56:33.795974,306692,1664123248,1664124688,-0.976,0.12688,0.232288,0.385,21.07,-18.55,40.032,0.04,57.200005,eccentric,3,3.0,22775.0,324339.0,291758.0,340388.0,295871.0
2026-04-07 17:56:33.798222,306693,1664132151,1664133377,-0.977952,0.122976,0.1952,-0.44625,20.93875,-18.54125,40.152,-0.696,55.72,eccentric,3,3.0,22775.0,324339.0,291758.0,340388.0,295871.0
2026-04-07 17:56:33.803047,306694,1664141081,1664142114,-0.977952,0.122976,0.1952,-3.4825,21.56875,-16.23125,40.152,-0.696,55.72,eccentric,3,3.0,22775.0,324339.0,291758.0,340388.0,295871.0
2026-04-07 17:56:33.880476,306705,1664155698,1664157040,-1.032608,0.122976,0.138592,-4.97875,20.9475,-15.505,40.496002,-0.496,54.992004,eccentric,3,3.0,23283.0,328629.0,295279.0,344466.0,299830.0
2026-04-07 17:56:33.882059,306706,1664164601,1664165742,-1.032608,0.122976,0.138592,-4.4275,21.20125,-14.84875,40.496002,-0.496,54.992004,eccentric,3,3.0,23283.0,328629.0,295279.0,344466.0,299830.0
2026-04-07 17:56:33.883665,306707,1664173588,1664174452,-1.040416,0.138592,0.113216,-2.19625,21.30625,-14.0525,40.832,-0.048,54.808002,eccentric,3,3.0,23283.0,328629.0,295279.0,344466.0,299830.0
2026-04-07 17:56:33.886097,306708,1664188228,1664189366,-1.0736,0.152256,0.189344,2.17875,20.41375,-12.573751,40.68,-1.024,53.600002,eccentric,3,3.0,23283.0,328629.0,295279.0,344466.0,299830.0
2026-04-07 17:56:33.888643,306709,1664197172,1664198081,-1.0736,0.152256,0.189344,9.1525,18.29625,-10.815,40.68,-1.024,53.600002,eccentric,3,3.0,23283.0,328629.0,295279.0,344466.0,299830.0
2026-04-07 17:56:33.891071,306710,1664206299,1664206819,-1.0736,0.152256,0.189344,18.64625,14.735,-7.14875,40.68,-1.024,53.600002,eccentric,3,3.0,23283.0,328629.0,295279.0,344466.0,299830.0
2026-04-07 17:56:33.893588,306711,1664215759,1664217591,-1.100928,0.158112,0.27328,28.16625,9.695,-4.19125,41.288002,-0.416,52.920002,eccentric,3,3.0,23283.0,328629.0,295279.0,344466.0,299830.0
2026-04-07 17:56:33.896077,306712,1664230304,1664232525,-1.098976,0.154208,0.28304,36.37375,5.10125,-2.31,41.296,-1.0,54.992004,eccentric,3,3.0,23283.0,328629.0,295279.0,344466.0,299830.0
2026-04-07 17:56:33.898591,306713,1664239224,1664241226,-1.098976,0.154208,0.28304,42.86625,1.2775,-1.085,41.296,-1.0,54.992004,eccentric,3,3.0,23283.0,328629.0,295279.0,344466.0,299830.0
2026-04-07 17:56:33.939977,306723,1664248729,1664249940,-1.100928,0.171776,0.22448,48.326252,-1.58375,-0.70875,41.128002,-1.576,55.176003,eccentric,3,3.0,24004.0,334491.0,300357.0,350396.0,305600.0
2026-04-07 17:56:33.942410,306724,1664257712,1664258700,-1.100928,0.171776,0.22448,53.15625,-3.85,-1.47,41.128002,-1.576,55.176003,eccentric,3,3.0,24004.0,334491.0,300357.0,350396.0,305600.0
2026-04-07 17:56:33.948568,306725,1664272233,1664273636,-1.061888,0.201056,0.163968,53.0425,-5.8975,-2.7825,40.208,-1.952,57.408,eccentric,3,3.0,24004.0,334491.0,300357.0,350396.0,305600.0
2026-04-07 17:56:33.951609,306726,1664281246,1664282384,-1.061888,0.201056,0.163968,47.74875,-6.90375,-3.745,40.208,-1.952,57.408,eccentric,3,3.0,24004.0,334491.0,300357.0,350396.0,305600.0
2026-04-07 17:56:33.953894,306727,1664290382,1664291141,-1.065792,0.11712,0.091744,38.395,-6.65875,-4.83875,39.920002,-2.096,57.112003,eccentric,3,3.0,24004.0,334491.0,300357.0,350396.0,305600.0
2026-04-07 17:56:33.956541,306728,1664305320,1664306032,-1.065792,0.11712,0.091744,28.1225,-6.34375,-5.62625,39.920002,-2.096,57.112003,eccentric,3,3.0,24004.0,334491.0,300357.0,350396.0,305600.0
2026-04-07 17:56:33.958590,306729,1664314694,1664316936,-1.081408,0.037088,0.044896,18.48875,-5.39,-8.0325,39.640003,-2.496,57.872,eccentric,3,3.0,24004.0,334491.0,300357.0,350396.0,305600.0
2026-04-07 17:56:33.961116,306730,1664323691,1664325641,-1.081408,0.037088,0.044896,12.92375,-5.0575,-10.4125,39.640003,-2.496,57.872,eccentric,3,3.0,24004.0,334491.0,300357.0,350396.0,305600.0
2026-04-07 17:56:33.963580,306731,1664332651,1664334335,-1.06384,0.031232,0.007808,12.36375,-4.17375,-12.38125,40.448,-2.128,55.896004,eccentric,3,3.0,24004.0,334491.0,300357.0,350396.0,305600.0
2026-04-07 17:56:33.998527,306741,1664347882,1664349363,-1.06384,0.031232,0.001952,13.51875,-4.22625,-13.02,40.448,-2.672,58.008003,eccentric,3,3.0,23964.0,334527.0,300586.0,350780.0,306006.0
2026-04-07 17:56:34.004823,306742,1664356976,1664358109,-1.048224,0.0976,0.001952,13.51,-3.6575,-11.40125,40.256,-2.672,58.008003,eccentric,3,3.0,23964.0,334527.0,300586.0,350780.0,306006.0
2026-04-07 17:56:34.007297,306743,1664365991,1664366825,-1.048224,0.0976,0.001952,11.87375,-2.23125,-10.823751,40.256,-2.672,58.008003,eccentric,3,3.0,23964.0,334527.0,300586.0,350780.0,306006.0
2026-04-07 17:56:34.009797,306744,1664375033,1664375543,-1.040416,0.130784,0.007808,8.295,-1.09375,-8.07625,40.584003,-2.152,55.000004,eccentric,3,3.0,23964.0,334527.0,300586.0,350780.0,306006.0
2026-04-07 17:56:34.012285,306745,1664390218,1664390588,-1.032608,0.150304,0.031232,3.94625,0.09625,-5.92375,40.248,-2.032,56.928,eccentric,3,3.0,23964.0,334527.0,300586.0,350780.0,306006.0
2026-04-07 17:56:34.016287,306746,1664399477,1664401365,-1.032608,0.150304,0.031232,1.1725,1.11125,-4.5675,40.248,-2.032,56.928,eccentric,3,3.0,23964.0,334527.0,300586.0,350780.0,306006.0
2026-04-07 17:56:34.046306,306747,1664408392,1664410100,-1.026752,0.17568,0.060512,-1.04125,2.03,-4.15625,40.088,-2.464,53.584003,eccentric,3,3.0,23964.0,334527.0,300586.0,350780.0,306006.0
2026-04-07 17:56:34.049897,306748,1664417303,1664418808,-1.026752,0.17568,0.060512,-2.79125,2.9225,-3.61375,40.088,-2.464,53.584003,eccentric,3,3.0,23964.0,334527.0,300586.0,350780.0,306006.0
2026-04-07 17:56:34.052367,306749,1664431808,1664433665,-1.028704,0.18544,0.080032,-3.59625,3.63125,-3.15,40.552002,-2.224,55.864002,eccentric,3,3.0,23964.0,334527.0,300586.0,350780.0,306006.0
2026-04-07 17:56:34.057348,306750,1664440782,1664442363,-1.028704,0.18544,0.080032,-2.73,4.57625,-4.48875,40.552002,-2.224,55.864002,eccentric,3,3.0,23964.0,334527.0,300586.0,350780.0,306006.0
2026-04-07 17:56:34.124896,306761,1664450070,1664451126,-1.03456,0.203008,0.076128,-2.8525,5.705,-4.795,39.912003,-2.352,59.008003,eccentric,3,3.0,24026.0,335145.0,301237.0,351609.0,306711.0
2026-04-07 17:56:34.129088,306762,1664464602,1664465970,-1.03456,0.203008,0.076128,-2.30125,6.9125,-5.92375,39.912003,-2.352,59.008003,eccentric,3,3.0,24026.0,335145.0,301237.0,351609.0,306711.0
2026-04-07 17:56:34.130801,306763,1664473626,1664474631,-1.03456,0.201056,0.06832,-1.54875,8.05875,-8.2775,40.68,-1.88,55.864002,eccentric,3,3.0,24026.0,335145.0,301237.0,351609.0,306711.0
2026-04-07 17:56:34.133223,306764,1664482553,1664483326,-1.03456,0.201056,0.06832,0.14875,8.14625,-8.46125,40.68,-1.88,55.864002,eccentric,3,3.0,24026.0,335145.0,301237.0,351609.0,306711.0
2026-04-07 17:56:34.134901,306765,1664497096,1664498289,-1.048224,0.189344,0.052704,1.68,8.89875,-9.82625,40.024002,-2.144,57.008003,eccentric,3,3.0,24026.0,335145.0,301237.0,351609.0,306711.0
2026-04-07 17:56:34.139095,306766,1664506133,1664506968,-1.048224,0.189344,0.052704,2.87875,10.24625,-11.34,40.024002,-2.144,57.008003,eccentric,3,3.0,24026.0,335145.0,301237.0,351609.0,306711.0
2026-04-07 17:56:34.141532,306767,1664517339,1664517892,-1.06384,0.158112,0.03904,4.38375,10.745,-12.22375,40.24,-2.464,57.864002,eccentric,3,3.0,24026.0,335145.0,301237.0,351609.0,306711.0
2026-04-07 17:56:34.145207,306768,1664526894,1664528713,-1.06384,0.158112,0.03904,5.3025,11.06,-12.50375,40.24,-2.464,57.864002,eccentric,3,3.0,24026.0,335145.0,301237.0,351609.0,306711.0
2026-04-07 17:56:34.173845,306769,1664535834,1664537419,-1.065792,0.1464,0.037088,6.72,11.34875,-12.50375,39.792004,-1.768,57.56,eccentric,3,3.0,24026.0,335145.0,301237.0,351609.0,306711.0
2026-04-07 17:56:34.208373,306779,1664550581,1664552446,-1.065792,0.134688,0.03904,7.3675,11.4275,-11.45375,40.808002,-1.632,53.904003,eccentric,3,3.0,23983.0,335149.0,301423.0,351917.0,307002.0
2026-04-07 17:56:34.208664,306780,1664559655,1664561170,-1.065792,0.134688,0.03904,7.98,11.19125,-10.29875,40.808002,-1.632,53.904003,eccentric,3,3.0,23983.0,335149.0,301423.0,351917.0,307002.0
2026-04-07 17:56:34.212908,306781,1664568578,1664569860,-1.065792,0.121024,0.044896,9.0125,11.305,-9.3275,40.808002,-1.632,57.600002,eccentric,3,3.0,23983.0,335149.0,301423.0,351917.0,307002.0
2026-04-07 17:56:34.214925,306782,1664577480,1664578572,-1.067744,0.121024,0.044896,7.665,11.33125,-7.315,40.216003,-2.248,57.600002,eccentric,3,3.0,23983.0,335149.0,301423.0,351917.0,307002.0
2026-04-07 17:56:34.217262,306783,1664592007,1664593547,-1.0736,0.113216,0.042944,7.9275,11.15625,-5.88875,41.024002,-2.304,55.456,eccentric,3,3.0,23983.0,335149.0,301423.0,351917.0,307002.0
2026-04-07 17:56:34.220664,306784,1664600940,1664602325,-1.0736,0.113216,0.042944,8.33875,11.20875,-4.41875,41.024002,-2.304,55.456,eccentric,3,3.0,23983.0,335149.0,301423.0,351917.0,307002.0
2026-04-07 17:56:34.249707,306785,1664609859,1664611022,-1.056032,0.121024,0.066368,9.40625,11.1825,-3.325,41.312,-2.032,54.704002,eccentric,3,3.0,23983.0,335149.0,301423.0,351917.0,307002.0
2026-04-07 17:56:34.254057,306786,1664624363,1664625937,-1.056032,0.121024,0.066368,10.57875,11.19125,-2.7125,41.312,-2.032,54.704002,eccentric,3,3.0,23983.0,335149.0,301423.0,351917.0,307002.0
2026-04-07 17:56:34.256029,306787,1664633291,1664634681,-1.061888,0.140544,0.095648,10.17625,11.025,-2.6075,41.312,-2.544,55.088,eccentric,3,3.0,23983.0,335149.0,301423.0,351917.0,307002.0
2026-04-07 17:56:34.258332,306788,1664642199,1664643384,-1.061888,0.140544,0.095648,8.28625,10.56125,-2.1875,41.312,-2.544,55.088,eccentric,3,3.0,23983.0,335149.0,301423.0,351917.0,307002.0
2026-04-07 17:56:34.286600,306798,1664656784,1664658381,-1.069696,0.124928,0.115168,5.18,9.73875,-1.81125,41.096,-2.544,56.416004,eccentric,3,3.0,23881.0,334357.0,300860.0,351384.0,306553.0
2026-04-07 17:56:34.288299,306799,1664665696,1664667118,-1.069696,0.124928,0.115168,2.09125,9.12625,-1.8025,41.096,-2.544,56.416004,eccentric,3,3.0,23881.0,334357.0,300860.0,351384.0,306553.0
2026-04-07 17:56:34.289898,306800,1664674670,1664675858,-1.067744,0.093696,0.138592,-0.76125,8.95125,-1.9075,41.472,-2.528,56.232002,eccentric,3,3.0,23881.0,334357.0,300860.0,351384.0,306553.0
2026-04-07 17:56:34.320917,306801,1664683637,1664684580,-1.067744,0.093696,0.138592,-2.3625,7.79625,-2.30125,41.472,-2.528,56.232002,eccentric,3,3.0,23881.0,334357.0,300860.0,351384.0,306553.0
2026-04-07 17:56:34.325353,306802,1664698108,1664699478,-1.077504,0.10736,0.142496,-3.26375,6.265,-2.24875,41.248,-2.056,55.008003,eccentric,3,3.0,23881.0,334357.0,300860.0,351384.0,306553.0
2026-04-07 17:56:34.326923,306803,1664706993,1664708172,-1.077504,0.10736,0.142496,-3.33375,5.64375,-3.255,41.248,-2.056,55.008003,eccentric,3,3.0,23881.0,334357.0,300860.0,351384.0,306553.0
2026-04-07 17:56:34.332718,306804,1664715999,1664716929,-1.06384,0.134688,0.121024,-4.2,4.8475,-3.01875,41.760002,-2.432,54.896004,eccentric,3,3.0,23881.0,334357.0,300860.0,351384.0,306553.0
2026-04-07 17:56:34.388521,306805,1664730465,1664731869,-1.067744,0.148352,0.119072,-7.44625,4.3925,-2.555,41.688004,-2.6,55.416004,eccentric,3,3.0,23881.0,334357.0,300860.0,351384.0,306553.0
2026-04-07 17:56:34.390815,306806,1664739350,1664740575,-1.067744,0.148352,0.119072,-9.24,3.78875,-2.89625,41.688004,-2.6,55.416004,eccentric,3,3.0,23881.0,334357.0,300860.0,351384.0,306553.0
2026-04-07 17:56:34.418752,306817,1664748340,1664749232,-1.067744,0.148352,0.119072,-11.3925,3.0275,-3.1325,41.688004,-2.6,55.416004,eccentric,3,3.0,23653.0,332456.0,299280.0,349646.0,304944.0
2026-04-07 17:56:34.422953,306818,1664762880,1664764168,-1.05408,0.144448,0.095648,-13.09,2.3975,-2.38875,41.344,-2.176,55.352,eccentric,3,3.0,23653.0,332456.0,299280.0,349646.0,304944.0
2026-04-07 17:56:34.424567,306819,1664771804,1664772887,-1.048224,0.1464,0.081984,-12.6175,2.0475,-3.185,41.176003,-2.352,55.000004,eccentric,3,3.0,23653.0,332456.0,299280.0,349646.0,304944.0
2026-04-07 17:56:34.426111,306820,1664780732,1664781573,-1.048224,0.1464,0.081984,-11.9525,1.86375,-2.31875,41.176003,-2.352,55.000004,eccentric,3,3.0,23653.0,332456.0,299280.0,349646.0,304944.0
2026-04-07 17:56:34.430315,306821,1664795277,1664796602,-1.028704,0.167872,0.083936,-9.7825,2.205,-2.79125,40.672,-2.368,56.464005,eccentric,3,3.0,23653.0,332456.0,299280.0,349646.0,304944.0
2026-04-07 17:56:34.432057,306822,1664804217,1664805355,-1.028704,0.167872,0.083936,-9.275,2.975,-2.86125,40.672,-2.368,56.464005,eccentric,3,3.0,23653.0,332456.0,299280.0,349646.0,304944.0
2026-04-07 17:56:34.433900,306823,1664813299,1664814115,-1.036512,0.148352,0.056608,-10.05375,3.24625,-3.255,41.152,-2.392,56.712,eccentric,3,3.0,23653.0,332456.0,299280.0,349646.0,304944.0
2026-04-07 17:56:34.439015,306824,1664822249,1664822887,-1.036512,0.148352,0.056608,-10.07125,3.84125,-3.15,41.152,-2.392,56.712,eccentric,3,3.0,23653.0,332456.0,299280.0,349646.0,304944.0
2026-04-07 17:56:34.467451,306825,1664837053,1664837797,-1.03456,0.13664,0.050752,-9.8525,3.3775,-3.43875,41.760002,-2.232,54.760002,eccentric,3,3.0,23653.0,332456.0,299280.0,349646.0,304944.0
2026-04-07 17:56:34.510351,306835,1664846380,1664848947,-1.03456,0.13664,0.050752,-8.37375,3.42125,-4.305,41.760002,-2.232,54.760002,eccentric,3,3.0,23596.0,332093.0,299002.0,349319.0,304656.0
2026-04-07 17:56:34.512029,306836,1664855414,1664857691,-1.036512,0.132736,0.03904,-6.23,3.395,-5.355,41.640003,-1.08,54.672,eccentric,3,3.0,23596.0,332093.0,299002.0,349319.0,304656.0
2026-04-07 17:56:34.514279,306837,1664869919,1664870544,-1.036512,0.121024,0.021472,-5.215,4.0425,-6.32625,41.640003,-1.08,54.672,eccentric,3,3.0,23596.0,332093.0,299002.0,349319.0,304656.0
2026-04-07 17:56:34.517853,306838,1664879128,1664881276,-1.040416,0.121024,0.021472,-5.17125,4.78625,-6.88625,41.336002,-1.776,54.936,eccentric,3,3.0,23596.0,332093.0,299002.0,349319.0,304656.0
2026-04-07 17:56:34.519628,306839,1664888121,1664890054,-1.040416,0.121024,0.021472,-4.76,5.67,-6.90375,41.336002,-1.776,54.936,eccentric,3,3.0,23596.0,332093.0,299002.0,349319.0,304656.0
2026-04-07 17:56:34.521423,306840,1664897103,1664898764,-1.04432,0.130784,0.015616,-3.43875,6.37875,-8.8725,40.864002,-2.2,55.512,eccentric,3,3.0,23596.0,332093.0,299002.0,349319.0,304656.0
2026-04-07 17:56:34.552221,306841,1664911608,1664913670,-1.048224,0.134688,0.031232,-2.7825,7.20125,-9.12625,41.168003,-1.344,56.224003,eccentric,3,3.0,23596.0,332093.0,299002.0,349319.0,304656.0
2026-04-07 17:56:34.556648,306842,1664920558,1664922395,-1.048224,0.134688,0.031232,-2.695,7.525,-8.6625,41.168003,-1.344,56.224003,eccentric,3,3.0,23596.0,332093.0,299002.0,349319.0,304656.0
2026-04-07 17:56:34.558352,306843,1664929479,1664931112,-1.048224,0.134688,0.031232,-3.45625,6.46625,-8.75,41.168003,-1.344,56.224003,eccentric,3,3.0,23596.0,332093.0,299002.0,349319.0,304656.0
2026-04-07 17:56:34.559929,306844,1664943966,1664946009,-1.026752,0.134688,0.046848,-4.0425,6.50125,-7.84,41.480003,-1.664,54.904003,eccentric,3,3.0,23596.0,332093.0,299002.0,349319.0,304656.0
2026-04-07 17:56:34.587904,306854,1664952999,1664954736,-1.085312,0.134688,0.050752,-7.6475,6.545,-7.76125,41.528004,-1.648,55.72,eccentric,3,3.0,23498.0,331242.0,298277.0,348512.0,303888.0
2026-04-07 17:56:34.589591,306855,1664962108,1664963537,-1.085312,0.134688,0.050752,-9.52,7.07875,-7.525,41.528004,-1.648,55.72,eccentric,3,3.0,23498.0,331242.0,298277.0,348512.0,303888.0
2026-04-07 17:56:34.591413,306856,1664971051,1664972255,-1.071648,0.111264,0.042944,-10.03625,6.13375,-6.29125,40.856003,-1.096,53.832,eccentric,3,3.0,23498.0,331242.0,298277.0,348512.0,303888.0
2026-04-07 17:56:34.622244,306857,1664985558,1664987151,-1.071648,0.111264,0.042944,-10.1325,5.6525,-5.495,40.856003,-1.096,53.832,eccentric,3,3.0,23498.0,331242.0,298277.0,348512.0,303888.0
2026-04-07 17:56:34.626605,306858,1664994467,1664995843,-1.056032,0.111264,0.040992,-9.4675,5.985,-5.90625,41.68,-0.88,54.624004,eccentric,3,3.0,23498.0,331242.0,298277.0,348512.0,303888.0
2026-04-07 17:56:34.628239,306859,1665003392,1665004533,-1.056032,0.111264,0.040992,-8.6975,5.6525,-6.475,41.68,-0.88,54.624004,eccentric,3,3.0,23498.0,331242.0,298277.0,348512.0,303888.0
2026-04-07 17:56:34.635317,306860,1665017913,1665019553,-1.056032,0.130784,0.0488,-8.47,5.075,-5.95875,41.208,-1.4,54.184002,eccentric,3,3.0,23498.0,331242.0,298277.0,348512.0,303888.0
2026-04-07 17:56:34.688563,306861,1665026859,1665028253,-1.056032,0.130784,0.0488,-8.54,4.655,-5.24125,41.208,-1.4,54.184002,eccentric,3,3.0,23498.0,331242.0,298277.0,348512.0,303888.0
2026-04-07 17:56:34.690791,306862,1665035822,1665036950,-1.067744,0.124928,0.037088,-9.625,4.83,-4.445,41.84,-1.056,54.608,eccentric,3,3.0,23498.0,331242.0,298277.0,348512.0,303888.0
2026-04-07 17:56:34.718637,306873,1665050878,1665052214,-1.067744,0.124928,0.033184,-10.43,4.92625,-3.85,41.84,-1.056,54.608,eccentric,3,3.0,23416.0,330630.0,297797.0,347982.0,303406.0
2026-04-07 17:56:34.725379,306874,1665059873,1665060906,-1.05408,0.121024,0.033184,-9.8875,5.24125,-3.3075,41.480003,-0.52,54.168003,eccentric,3,3.0,23416.0,330630.0,297797.0,347982.0,303406.0
2026-04-07 17:56:34.727060,306875,1665068835,1665069610,-1.05408,0.121024,0.033184,-10.21125,4.41,-3.5875,41.480003,-0.52,54.168003,eccentric,3,3.0,23416.0,330630.0,297797.0,347982.0,303406.0
2026-04-07 17:56:34.728626,306876,1665078231,1665080383,-1.057984,0.132736,0.044896,-10.49125,4.59375,-3.815,41.712,-0.632,54.624004,eccentric,3,3.0,23416.0,330630.0,297797.0,347982.0,303406.0
2026-04-07 17:56:34.733101,306877,1665092774,1665093234,-1.050176,0.122976,0.044896,-10.7625,4.94375,-3.885,41.800003,-0.36,54.512,eccentric,3,3.0,23416.0,330630.0,297797.0,347982.0,303406.0
2026-04-07 17:56:34.739281,306878,1665102255,1665104001,-1.050176,0.122976,0.044896,-10.33375,4.34,-3.61375,41.800003,-0.36,54.512,eccentric,3,3.0,23416.0,330630.0,297797.0,347982.0,303406.0
2026-04-07 17:56:34.742078,306879,1665111222,1665112774,-1.052128,0.115168,0.040992,-9.68625,3.9375,-2.86125,41.800003,-0.464,55.456,eccentric,3,3.0,23416.0,330630.0,297797.0,347982.0,303406.0
2026-04-07 17:56:34.747729,306880,1665120216,1665121456,-1.052128,0.115168,0.040992,-8.67125,3.82375,-3.15,41.416,-0.464,55.456,eccentric,3,3.0,23416.0,330630.0,297797.0,347982.0,303406.0
2026-04-07 17:56:34.752736,306881,1665134684,1665136372,-1.052128,0.121024,0.046848,-7.7875,3.00125,-3.45625,41.328003,-0.544,55.752003,eccentric,3,3.0,23416.0,330630.0,297797.0,347982.0,303406.0
2026-04-07 17:56:34.781246,306882,1665143615,1665145066,-1.052128,0.121024,0.046848,-7.20125,2.52,-3.0625,41.328003,-0.544,55.752003,eccentric,3,3.0,23416.0,330630.0,297797.0,347982.0,303406.0
2026-04-07 17:56:34.808268,306892,1665153204,1665153973,-1.059936,0.128832,0.040992,-7.28875,2.8,-2.91375,41.88,-0.36,55.392002,eccentric,3,3.0,23331.0,329969.0,297270.0,347419.0,302901.0
2026-04-07 17:56:34.809844,306893,1665168105,1665168878,-1.059936,0.128832,0.040992,-7.21875,2.26625,-2.6775,41.88,-0.36,55.392002,eccentric,3,3.0,23331.0,329969.0,297270.0,347419.0,302901.0
2026-04-07 17:56:34.814077,306894,1665177024,1665177597,-1.067744,0.122976,0.040992,-6.76375,1.8725,-2.38,41.672,-0.376,54.728004,eccentric,3,3.0,23331.0,329969.0,297270.0,347419.0,302901.0
2026-04-07 17:56:34.815792,306895,1665186279,1665188371,-1.067744,0.122976,0.040992,-6.86,1.12,-2.28375,41.672,-0.376,54.728004,eccentric,3,3.0,23331.0,329969.0,297270.0,347419.0,302901.0
2026-04-07 17:56:34.818496,306896,1665195229,1665197090,-1.056032,0.124928,0.044896,-6.2125,0.4375,-2.09125,41.488003,-0.808,55.496002,eccentric,3,3.0,23331.0,329969.0,297270.0,347419.0,302901.0
2026-04-07 17:56:34.848463,306897,1665209745,1665212001,-1.056032,0.124928,0.044896,-5.25,-0.30625,-2.1525,41.488003,-0.808,55.496002,eccentric,3,3.0,23331.0,329969.0,297270.0,347419.0,302901.0
2026-04-07 17:56:34.850734,306898,1665218726,1665220704,-1.059936,0.11712,0.042944,-5.2325,-0.42,-2.1525,41.888,0.088,54.256004,eccentric,3,3.0,23331.0,329969.0,297270.0,347419.0,302901.0
2026-04-07 17:56:34.855340,306899,1665227659,1665229377,-1.059936,0.11712,0.042944,-4.9525,-0.67375,-1.74125,41.888,0.088,54.256004,eccentric,3,3.0,23331.0,329969.0,297270.0,347419.0,302901.0
2026-04-07 17:56:34.859476,306900,1665242166,1665244328,-1.06384,0.10736,0.044896,-5.41625,-0.7175,-1.51375,41.84,-0.288,54.384003,eccentric,3,3.0,23331.0,329969.0,297270.0,347419.0,302901.0
2026-04-07 17:56:34.916726,306910,1665251153,1665253423,-1.06384,0.10736,0.060512,-5.74875,-0.81375,-1.23375,41.84,-0.288,54.384003,eccentric,3,3.0,23207.0,329018.0,296487.0,346618.0,302223.0
2026-04-07 17:56:34.918350,306911,1665260145,1665262201,-1.061888,0.111264,0.056608,-5.62625,-0.90125,-1.91625,41.624,-0.176,55.624004,eccentric,3,3.0,23207.0,329018.0,296487.0,346618.0,302223.0
2026-04-07 17:56:34.919937,306912,1665274744,1665275064,-1.05408,0.128832,0.05856,-4.33125,-0.5075,-2.51125,41.72,0.112,54.336002,eccentric,3,3.0,23207.0,329018.0,296487.0,346618.0,302223.0
2026-04-07 17:56:34.924095,306913,1665284033,1665285870,-1.05408,0.128832,0.05856,-4.27,-0.8925,-2.59875,41.72,0.112,54.336002,eccentric,3,3.0,23207.0,329018.0,296487.0,346618.0,302223.0
2026-04-07 17:56:34.925782,306914,1665293023,1665294584,-1.036512,0.124928,0.066368,-4.41875,0.0,-2.65125,41.392002,0.448,53.368004,eccentric,3,3.0,23207.0,329018.0,296487.0,346618.0,302223.0
2026-04-07 17:56:34.927383,306915,1665301972,1665303299,-1.036512,0.124928,0.066368,-4.7425,-0.18375,-2.8175,41.392002,0.448,53.368004,eccentric,3,3.0,23207.0,329018.0,296487.0,346618.0,302223.0
2026-04-07 17:56:34.935279,306916,1665316479,1665318261,-1.04432,0.113216,0.05856,-5.5125,0.16625,-2.49375,42.032,-0.152,54.592003,eccentric,3,3.0,23207.0,329018.0,296487.0,346618.0,302223.0
2026-04-07 17:56:34.988508,306917,1665325488,1665326975,-1.04432,0.113216,0.05856,-5.94125,0.41125,-2.555,42.032,-0.152,54.592003,eccentric,3,3.0,23207.0,329018.0,296487.0,346618.0,302223.0
2026-04-07 17:56:34.990758,306918,1665334405,1665335665,-1.03456,0.10736,0.05856,-5.39,0.98875,-2.23125,41.712,0.056,54.616,eccentric,3,3.0,23207.0,329018.0,296487.0,346618.0,302223.0
2026-04-07 17:56:34.996169,306919,1665348922,1665350622,-1.03456,0.10736,0.05856,-4.59375,1.1725,-2.59,41.712,0.056,54.616,eccentric,3,3.0,23207.0,329018.0,296487.0,346618.0,302223.0
