pc_time,serial_num,sensor_ts,host_ts,ax,ay,az,gx,gy,gz,mx,my,mz,phase,rpe,weight_kg,ppg_a,ppg_b,ppg_c,ppg_d,ppg_e
2026-04-14 17:15:12.569036,166165,1609504406279938,2006249631,1.001376,-0.251808,-0.36112,-11.59375,31.4475,-4.655,-20.160002,-9.048,-14.472001,eccentric,3,3.0,46136.0,196387.0,102951.0,198036.0,115575.0
2026-04-14 17:15:12.571524,166166,1609504406294510,2006264606,1.071648,-0.189344,-0.154208,-7.25375,31.7975,-4.375,-19.136002,-8.928,-14.792001,eccentric,3,3.0,46136.0,196387.0,102951.0,198036.0,115575.0
2026-04-14 17:15:12.577329,166167,1609504406303532,2006273294,1.071648,-0.189344,-0.154208,-0.7,33.1625,-6.43125,-19.136002,-8.928,-14.792001,eccentric,3,3.0,46136.0,196387.0,102951.0,198036.0,115575.0
2026-04-14 17:15:12.603327,166168,1609504406318018,2006288170,1.001376,-0.111264,-0.36112,4.38375,36.076252,-9.12625,-19.560001,-8.480001,-14.544001,eccentric,3,3.0,46136.0,196387.0,102951.0,198036.0,115575.0
2026-04-14 17:15:12.626830,166169,1609504406326974,2006296838,1.001376,-0.111264,-0.36112,3.70125,40.04875,-11.64625,-19.560001,-8.480001,-14.544001,eccentric,3,3.0,46136.0,196387.0,102951.0,198036.0,115575.0
2026-04-14 17:15:12.631791,166170,1609504406335899,2006305525,1.046272,-0.17568,-0.472384,0.0,43.00625,-14.34125,-20.0,-8.656,-13.768001,eccentric,3,3.0,46136.0,196387.0,102951.0,198036.0,115575.0
2026-04-14 17:15:12.634190,166171,1609504406350385,2006320414,1.046272,-0.17568,-0.472384,-5.90625,44.00375,-15.75875,-20.0,-8.656,-13.768001,eccentric,3,3.0,46136.0,196387.0,102951.0,198036.0,115575.0
2026-04-14 17:15:12.636605,166172,1609504406359266,2006329098,1.175104,-0.304512,-0.144448,-10.64875,46.99625,-16.82625,-20.12,-8.016001,-13.456,eccentric,3,3.0,46136.0,196387.0,102951.0,198036.0,115575.0
2026-04-14 17:15:12.638957,166173,1609504406373736,2006344012,1.116544,-0.269376,-0.327936,-3.29875,52.255,-17.19375,-20.816002,-7.984,-12.744,eccentric,3,3.0,46136.0,196387.0,102951.0,198036.0,115575.0
2026-04-14 17:15:12.671770,166184,1609504406382793,2006352768,1.116544,-0.269376,-0.327936,7.525,54.55625,-21.04375,-20.816002,-7.984,-12.744,eccentric,3,3.0,49943.0,206291.0,109412.0,207799.0,122172.0
2026-04-14 17:15:12.674107,166185,1609504406391988,2006361429,1.116544,-0.269376,-0.327936,10.255,57.09375,-21.98875,-20.816002,-7.984,-12.744,eccentric,3,3.0,49943.0,206291.0,109412.0,207799.0,122172.0
2026-04-14 17:15:12.679208,166186,1609504406406461,2006376349,1.22,-0.20496,-0.25376,5.99375,58.8875,-18.27875,-21.296001,-7.76,-11.240001,eccentric,3,3.0,49943.0,206291.0,109412.0,207799.0,122172.0
2026-04-14 17:15:12.679525,166187,1609504406415394,2006385095,1.266848,-0.359168,-0.238144,0.30625,58.905,-15.3825,-21.320002,-7.56,-12.552001,eccentric,3,3.0,49943.0,206291.0,109412.0,207799.0,122172.0
2026-04-14 17:15:12.694178,166188,1609504406429909,2006399990,1.266848,-0.359168,-0.238144,1.02375,58.87,-15.07625,-21.320002,-7.56,-12.552001,eccentric,3,3.0,49943.0,206291.0,109412.0,207799.0,122172.0
2026-04-14 17:15:12.728040,166189,1609504406438827,2006408729,1.225856,-0.345504,-0.2928,9.52,59.745,-17.928751,-20.472,-7.776001,-12.504001,eccentric,3,3.0,49943.0,206291.0,109412.0,207799.0,122172.0
2026-04-14 17:15:12.729984,166190,1609504406453313,2006423590,1.196576,-0.300608,-0.25376,18.3925,60.06875,-23.2575,-22.144001,-7.608,-12.040001,eccentric,3,3.0,49943.0,206291.0,109412.0,207799.0,122172.0
2026-04-14 17:15:12.733033,166191,1609504406462238,2006432256,1.196576,-0.300608,-0.25376,23.765,57.2775,-25.235,-22.144001,-7.608,-12.040001,eccentric,3,3.0,49943.0,206291.0,109412.0,207799.0,122172.0
2026-04-14 17:15:12.735904,166192,1609504406471202,2006440970,1.196576,-0.300608,-0.25376,22.72375,52.955,-22.3125,-22.144001,-7.608,-12.040001,eccentric,3,3.0,49943.0,206291.0,109412.0,207799.0,122172.0
2026-04-14 17:15:12.770509,166203,1609504406486330,2006456300,1.128256,-0.269376,-0.413824,17.75375,48.95625,-22.07625,-22.336,-7.296001,-11.904,eccentric,3,3.0,54411.0,227856.0,116870.0,227821.0,129307.0
2026-04-14 17:15:12.771637,166204,1609504406495240,2006464983,1.214144,-0.28304,-0.173728,14.7,42.67375,-22.68,-22.36,-7.792,-11.480001,eccentric,3,3.0,54411.0,227856.0,116870.0,227821.0,129307.0
2026-04-14 17:15:12.774113,166205,1609504406509743,2006479929,1.214144,-0.28304,-0.173728,13.8075,38.57,-18.48875,-22.36,-7.792,-11.480001,eccentric,3,3.0,54411.0,227856.0,116870.0,227821.0,129307.0
2026-04-14 17:15:12.785392,166206,1609504406518684,2006488624,1.145824,-0.244,-0.197152,14.56,34.37875,-19.53875,-21.624,-7.544,-11.584001,eccentric,3,3.0,54411.0,227856.0,116870.0,227821.0,129307.0
2026-04-14 17:15:12.790445,166207,1609504406527587,2006497365,1.145824,-0.244,-0.197152,16.205,30.161251,-18.41,-21.624,-7.544,-11.584001,eccentric,3,3.0,54411.0,227856.0,116870.0,227821.0,129307.0
2026-04-14 17:15:12.807132,166208,1609504406542116,2006512270,1.098976,-0.18544,-0.091744,20.22125,25.9525,-16.52,-21.04,-8.096001,-11.68,eccentric,3,3.0,54411.0,227856.0,116870.0,227821.0,129307.0
2026-04-14 17:15:12.814169,166209,1609504406551022,2006520967,1.098976,-0.18544,-0.091744,21.30625,21.7525,-18.147501,-21.04,-8.096001,-11.68,eccentric,3,3.0,54411.0,227856.0,116870.0,227821.0,129307.0
2026-04-14 17:15:12.830588,166210,1609504406565530,2006535868,1.01504,-0.1952,-0.327936,21.4375,17.8675,-22.741251,-21.232,-7.568,-11.352,eccentric,3,3.0,54411.0,227856.0,116870.0,227821.0,129307.0
2026-04-14 17:15:12.838405,166211,1609504406574467,2006544575,0.979904,-0.173728,-0.275232,18.40125,13.475,-20.4925,-21.728,-7.936,-10.312,eccentric,3,3.0,54411.0,227856.0,116870.0,227821.0,129307.0
2026-04-14 17:15:12.865289,166222,1609504406589011,2006557491,0.979904,-0.173728,-0.275232,16.66,11.0775,-17.1325,-21.728,-7.936,-10.312,eccentric,3,3.0,67817.0,268398.0,137864.0,263156.0,149933.0
2026-04-14 17:15:12.869898,166223,1609504406598375,2006568285,0.913536,-0.171776,-0.236192,16.77375,7.98875,-16.26625,-21.792002,-8.048,-11.256001,eccentric,3,3.0,67817.0,268398.0,137864.0,263156.0,149933.0
2026-04-14 17:15:12.870126,166224,1609504406607315,2006577012,0.913536,-0.171776,-0.236192,20.48375,5.81,-13.51,-21.792002,-8.048,-11.256001,eccentric,3,3.0,67817.0,268398.0,137864.0,263156.0,149933.0
2026-04-14 17:15:12.885465,166225,1609504406621768,2006591881,0.983808,-0.060512,0.027328,21.11375,2.77375,-13.667501,-21.52,-7.704001,-11.416,eccentric,3,3.0,67817.0,268398.0,137864.0,263156.0,149933.0
2026-04-14 17:15:12.894153,166226,1609504406630707,2006600558,0.983808,-0.060512,0.027328,16.66875,0.86625,-10.92875,-21.52,-7.704001,-11.416,eccentric,3,3.0,67817.0,268398.0,137864.0,263156.0,149933.0
2026-04-14 17:15:12.907860,166227,1609504406645178,2006615454,0.96624,-0.07808,0.02928,9.3275,0.1225,-10.1325,-20.784,-8.04,-11.664001,eccentric,3,3.0,67817.0,268398.0,137864.0,263156.0,149933.0
2026-04-14 17:15:12.919471,166228,1609504406654128,2006624236,0.919392,-0.132736,-0.179584,2.98375,-1.3475,-10.14125,-20.784,-8.04,-13.64,eccentric,3,3.0,67817.0,268398.0,137864.0,263156.0,149933.0
2026-04-14 17:15:12.930882,166229,1609504406668589,2006637054,0.909632,-0.132736,-0.179584,0.77,-3.0975,-6.9125,-21.232,-7.952,-13.64,eccentric,3,3.0,67817.0,268398.0,137864.0,263156.0,149933.0
2026-04-14 17:15:13.013413,166240,1609504406677901,2006647832,0.915488,-0.05856,0.06832,2.59875,-5.04,-6.51875,-22.2,-7.84,-11.168,eccentric,3,3.0,70926.0,273536.0,142799.0,267736.0,154757.0
2026-04-14 17:15:13.015800,166241,1609504406687438,2006656546,0.915488,-0.05856,0.06832,4.69,-6.9475,-6.3525,-22.2,-7.84,-11.168,eccentric,3,3.0,70926.0,273536.0,142799.0,267736.0,154757.0
2026-04-14 17:15:13.018014,166242,1609504406701931,2006671505,0.91744,-0.064416,0.066368,2.2575,-8.07625,-4.97875,-21.68,-7.888001,-11.288,eccentric,3,3.0,70926.0,273536.0,142799.0,267736.0,154757.0
2026-04-14 17:15:13.020692,166243,1609504406710856,2006680286,0.91744,-0.064416,0.066368,-0.67375,-8.6275,-3.3075,-21.68,-7.888001,-11.288,eccentric,3,3.0,70926.0,273536.0,142799.0,267736.0,154757.0
2026-04-14 17:15:13.023395,166244,1609504406725363,2006695145,0.938912,-0.08784,0.017568,-2.47625,-9.77375,-2.03875,-21.624,-8.240001,-11.336,eccentric,3,3.0,70926.0,273536.0,142799.0,267736.0,154757.0
2026-04-14 17:15:13.025403,166245,1609504406734290,2006703809,0.938912,-0.08784,-0.191296,-4.08625,-10.6925,-1.47,-21.624,-8.240001,-11.336,eccentric,3,3.0,70926.0,273536.0,142799.0,267736.0,154757.0
2026-04-14 17:15:13.028407,166246,1609504406743245,2006712651,0.913536,-0.101504,-0.191296,-8.3125,-11.83,-1.21625,-21.608002,-7.976,-13.56,eccentric,3,3.0,70926.0,273536.0,142799.0,267736.0,154757.0
2026-04-14 17:15:13.030915,166247,1609504406757889,2006727593,1.009184,-0.191296,-0.177632,-12.95875,-13.27375,1.295,-21.304,-7.904,-11.376,eccentric,3,3.0,70926.0,273536.0,142799.0,267736.0,154757.0
2026-04-14 17:15:13.033452,166248,1609504406766857,2006736340,1.009184,-0.191296,-0.177632,-13.125,-14.25375,4.1475,-21.304,-7.904,-11.376,eccentric,3,3.0,70926.0,273536.0,142799.0,267736.0,154757.0
2026-04-14 17:15:13.067049,166259,1609504406781950,2006751680,0.999424,-0.162016,-0.081984,-10.08,-14.4725,6.72,-21.032001,-8.312,-12.688001,eccentric,3,3.0,76264.0,275646.0,150468.0,268980.0,162832.0
2026-04-14 17:15:13.069516,166260,1609504406791021,2006760413,0.999424,-0.162016,-0.081984,-7.2625,-14.385,8.18125,-21.032001,-8.312,-12.688001,eccentric,3,3.0,76264.0,275646.0,150468.0,268980.0,162832.0
2026-04-14 17:15:13.071889,166261,1609504406799984,2006769151,1.075552,-0.17568,-0.203008,-2.8175,-15.365,10.7975,-21.544,-7.872,-12.008,eccentric,3,3.0,76264.0,275646.0,150468.0,268980.0,162832.0
2026-04-14 17:15:13.082974,166262,1609504406814499,2006784032,1.075552,-0.17568,-0.203008,-0.525,-16.54625,12.9675,-21.544,-7.872,-12.008,eccentric,3,3.0,76264.0,275646.0,150468.0,268980.0,162832.0
2026-04-14 17:15:13.085976,166263,1609504406823418,2006792701,1.126304,-0.154208,-0.095648,-2.03875,-17.675,14.63,-21.672,-7.960001,-11.488001,eccentric,3,3.0,76264.0,275646.0,150468.0,268980.0,162832.0
2026-04-14 17:15:13.100829,166264,1609504406837850,2006807618,1.046272,-0.25376,-0.320128,-3.66625,-19.005,16.5025,-20.616001,-8.120001,-13.208,eccentric,3,3.0,76264.0,275646.0,150468.0,268980.0,162832.0
2026-04-14 17:15:13.110816,166265,1609504406846756,2006816293,1.046272,-0.25376,-0.320128,-2.87,-19.74875,18.0775,-20.616001,-8.120001,-13.208,eccentric,3,3.0,76264.0,275646.0,150468.0,268980.0,162832.0
2026-04-14 17:15:13.125937,166266,1609504406861306,2006831188,1.079456,-0.193248,-0.031232,0.90125,-21.0,20.116251,-20.640001,-8.312,-13.128,eccentric,3,3.0,76264.0,275646.0,150468.0,268980.0,162832.0
2026-04-14 17:15:13.133454,166267,1609504406870205,2006839814,1.079456,-0.193248,-0.031232,7.7175,-23.30125,26.78375,-20.640001,-8.312,-13.128,eccentric,3,3.0,76264.0,275646.0,150468.0,268980.0,162832.0
2026-04-14 17:15:13.167828,166278,1609504406879104,2006848445,1.089216,-0.247904,-0.044896,14.30625,-24.50875,29.7675,-20.376001,-7.776001,-13.544001,eccentric,3,3.0,69929.0,251287.0,141818.0,248804.0,153599.0
2026-04-14 17:15:13.170393,166279,1609504406894072,2006863401,1.089216,-0.247904,-0.044896,16.835001,-26.74,25.366251,-20.376001,-7.776001,-13.544001,eccentric,3,3.0,69929.0,251287.0,141818.0,248804.0,153599.0
2026-04-14 17:15:13.173288,166280,1609504406903041,2006872186,1.071648,-0.177632,-0.316224,14.2275,-29.82875,34.982502,-20.808,-7.64,-13.728001,eccentric,3,3.0,69929.0,251287.0,141818.0,248804.0,153599.0
2026-04-14 17:15:13.182006,166281,1609504406917563,2006887193,1.032608,-0.25376,-0.349408,11.025,-29.942501,39.655,-20.712002,-7.544,-10.848001,eccentric,3,3.0,69929.0,251287.0,141818.0,248804.0,153599.0
2026-04-14 17:15:13.189611,166282,1609504406926513,2006895992,1.032608,-0.25376,-0.349408,4.55,-32.865,31.0975,-20.712002,-7.544,-10.848001,eccentric,3,3.0,69929.0,251287.0,141818.0,248804.0,153599.0
2026-04-14 17:15:13.198407,166283,1609504406935468,2006904679,1.032608,-0.25376,-0.208864,-1.9775,-35.3325,33.0575,-20.712002,-7.544,-10.848001,eccentric,3,3.0,69929.0,251287.0,141818.0,248804.0,153599.0
2026-04-14 17:15:13.213437,166284,1609504406949928,2006919543,1.087264,-0.267424,-0.216672,-7.20125,-36.2425,32.82125,-21.376001,-7.632,-12.912001,eccentric,3,3.0,69929.0,251287.0,141818.0,248804.0,153599.0
2026-04-14 17:15:13.224624,166285,1609504406958844,2006928210,1.116544,-0.363072,-0.269376,-9.8175,-35.86625,27.116251,-21.384,-7.496,-13.208,eccentric,3,3.0,69929.0,251287.0,141818.0,248804.0,153599.0
2026-04-14 17:15:13.240192,166286,1609504406973373,2006943188,1.116544,-0.363072,-0.269376,-8.9425,-37.28375,30.1875,-21.384,-7.496,-13.208,eccentric,3,3.0,69929.0,251287.0,141818.0,248804.0,153599.0
2026-04-14 17:15:13.266898,166297,1609504406982381,2006951955,1.042368,-0.277184,-0.353312,-8.02375,-37.1175,36.04125,-20.624,-7.432,-14.608001,eccentric,3,3.0,54379.0,209394.0,117289.0,211891.0,128731.0
2026-04-14 17:15:13.269250,166298,1609504406996953,2006966889,1.052128,-0.314272,-0.366976,-8.54875,-36.46125,37.555,-20.688002,-7.768001,-15.048,eccentric,3,3.0,54379.0,209394.0,117289.0,211891.0,128731.0
2026-04-14 17:15:13.271722,166299,1609504407005960,2006975591,1.052128,-0.314272,-0.366976,-12.04875,-36.23375,34.0725,-20.688002,-7.768001,-15.048,eccentric,3,3.0,54379.0,209394.0,117289.0,211891.0,128731.0
2026-04-14 17:15:13.279673,166300,1609504407015005,2006984295,1.052128,-0.314272,-0.366976,-16.54625,-35.77875,34.5625,-20.688002,-7.768001,-15.048,eccentric,3,3.0,54379.0,209394.0,117289.0,211891.0,128731.0
2026-04-14 17:15:13.293380,166301,1609504407029459,2006999216,1.026752,-0.296704,-0.427488,-21.28,-34.57125,31.4475,-20.44,-8.0,-13.896001,eccentric,3,3.0,54379.0,209394.0,117289.0,211891.0,128731.0
2026-04-14 17:15:13.300442,166302,1609504407038359,2007007910,1.077504,-0.355264,-0.167872,-23.72125,-33.31125,29.1375,-22.112001,-7.344,-11.664001,eccentric,3,3.0,54379.0,209394.0,117289.0,211891.0,128731.0
2026-04-14 17:15:13.336705,166303,1609504407052806,2007022781,1.077504,-0.355264,-0.167872,-19.74875,-32.01625,30.56375,-22.112001,-7.344,-11.664001,eccentric,3,3.0,54379.0,209394.0,117289.0,211891.0,128731.0
2026-04-14 17:15:13.367003,166304,1609504407061700,2007031446,1.03456,-0.277184,-0.169824,-12.95,-30.73,30.161251,-20.696001,-8.04,-14.824,eccentric,3,3.0,54379.0,209394.0,117289.0,211891.0,128731.0
2026-04-14 17:15:13.386555,166305,1609504407076219,2007046310,1.03456,-0.277184,-0.169824,-6.62375,-28.91875,29.1025,-20.696001,-8.04,-14.824,eccentric,3,3.0,54379.0,209394.0,117289.0,211891.0,128731.0
2026-04-14 17:15:13.419491,166316,1609504407085309,2007055031,1.001376,-0.271328,-0.208864,-4.2875,-27.79,26.81,-20.28,-8.256001,-13.840001,eccentric,3,3.0,45723.0,189367.0,101876.0,192391.0,112814.0
2026-04-14 17:15:13.421896,166317,1609504407094247,2007063694,1.001376,-0.271328,-0.208864,-4.27875,-26.0575,24.185,-20.28,-8.256001,-13.840001,eccentric,3,3.0,45723.0,189367.0,101876.0,192391.0,112814.0
2026-04-14 17:15:13.424256,166318,1609504407108668,2007078551,0.93696,-0.236192,-0.327936,-9.72125,-23.8525,19.71375,-20.072,-8.288,-14.864,eccentric,3,3.0,45723.0,189367.0,101876.0,192391.0,112814.0
2026-04-14 17:15:13.427198,166319,1609504407117587,2007087303,0.90768,-0.269376,-0.343552,-13.3525,-21.48125,18.33125,-20.2,-8.216001,-15.264001,eccentric,3,3.0,45723.0,189367.0,101876.0,192391.0,112814.0
2026-04-14 17:15:13.429717,166320,1609504407132083,2007102214,0.90768,-0.269376,-0.343552,-15.3125,-19.6,17.8325,-20.2,-8.216001,-15.264001,eccentric,3,3.0,45723.0,189367.0,101876.0,192391.0,112814.0
2026-04-14 17:15:13.434477,166321,1609504407141005,2007110901,1.007232,-0.349408,-0.259616,-16.03,-19.0575,15.65375,-20.832,-8.816,-14.208001,eccentric,3,3.0,45723.0,189367.0,101876.0,192391.0,112814.0
2026-04-14 17:15:13.436583,166322,1609504407155495,2007125803,1.007232,-0.349408,-0.259616,-14.6825,-18.0075,14.6475,-20.832,-8.816,-14.208001,eccentric,3,3.0,45723.0,189367.0,101876.0,192391.0,112814.0
2026-04-14 17:15:13.442231,166323,1609504407164464,2007134473,0.987712,-0.363072,-0.212768,-15.68,-16.86125,10.85875,-20.616001,-8.856,-13.952001,eccentric,3,3.0,45723.0,189367.0,101876.0,192391.0,112814.0
2026-04-14 17:15:13.443331,166324,1609504407173502,2007143254,0.987712,-0.363072,-0.212768,-14.665,-13.658751,9.86125,-20.616001,-8.856,-13.952001,eccentric,3,3.0,45723.0,189367.0,101876.0,192391.0,112814.0
2026-04-14 17:15:13.469390,166335,1609504407188141,2007158245,0.886208,-0.284992,-0.271328,-12.52125,-11.3925,10.63125,-21.240002,-8.888001,-14.248001,eccentric,3,3.0,43607.0,185547.0,97703.0,188501.0,108395.0
2026-04-14 17:15:13.471861,166336,1609504407197108,2007166960,0.886208,-0.284992,-0.271328,-13.448751,-8.645,10.35125,-21.240002,-8.888001,-14.248001,eccentric,3,3.0,43607.0,185547.0,97703.0,188501.0,108395.0
2026-04-14 17:15:13.478218,166337,1609504407211628,2007181927,0.894016,-0.271328,-0.46848,-17.885,-5.1625,8.44375,-21.104,-8.872001,-14.56,eccentric,3,3.0,43607.0,185547.0,97703.0,188501.0,108395.0
2026-04-14 17:15:13.484637,166338,1609504407220537,2007190635,0.870592,-0.286944,-0.304512,-26.241251,-1.93375,5.18,-20.864,-9.72,-13.632001,eccentric,3,3.0,43607.0,185547.0,97703.0,188501.0,108395.0
2026-04-14 17:15:13.496761,166339,1609504407235012,2007203468,0.870592,-0.286944,-0.304512,-33.15375,-0.805,1.18125,-20.864,-9.72,-13.632001,eccentric,3,3.0,43607.0,185547.0,97703.0,188501.0,108395.0
2026-04-14 17:15:13.508449,166340,1609504407244268,2007214198,0.843264,-0.384544,-0.407968,-28.62125,-0.6475,-1.49625,-20.376001,-10.480001,-14.704,eccentric,3,3.0,43607.0,185547.0,97703.0,188501.0,108395.0
2026-04-14 17:15:13.517125,166341,1609504407253186,2007222875,0.843264,-0.384544,-0.407968,-21.25375,-1.47,-4.94375,-20.376001,-10.480001,-14.704,eccentric,3,3.0,43607.0,185547.0,97703.0,188501.0,108395.0
2026-04-14 17:15:13.531832,166342,1609504407267703,2007237744,0.837408,-0.269376,-0.269376,-13.93875,1.1725,-8.1375,-20.184,-10.712001,-14.456,eccentric,3,3.0,43607.0,185547.0,97703.0,188501.0,108395.0
2026-04-14 17:15:13.539088,166343,1609504407276681,2007246439,0.837408,-0.269376,-0.269376,-7.06125,7.35,-12.39875,-20.184,-10.712001,-14.456,eccentric,3,3.0,43607.0,185547.0,97703.0,188501.0,108395.0
2026-04-14 17:15:13.584563,166354,1609504407291247,2007261396,0.821792,-0.306464,-0.203008,-2.5025,12.11875,-16.44125,-19.904001,-11.120001,-14.824,concentric,3,3.0,44461.0,188465.0,99025.0,191403.0,109660.0
2026-04-14 17:15:13.586783,166355,1609504407300145,2007270146,0.74176,-0.288896,-0.290848,0.3325,13.9125,-17.928751,-20.088001,-11.568001,-14.424001,concentric,3,3.0,44461.0,188465.0,99025.0,191403.0,109660.0
2026-04-14 17:15:13.589668,166356,1609504407309080,2007278881,0.74176,-0.288896,-0.290848,1.70625,12.59125,-18.1825,-20.088001,-11.568001,-14.424001,concentric,3,3.0,44461.0,188465.0,99025.0,191403.0,109660.0
2026-04-14 17:15:13.592029,166357,1609504407323650,2007293812,0.864736,-0.308416,-0.281088,-0.69125,13.57125,-19.18875,-20.776001,-11.656,-13.048,concentric,3,3.0,44461.0,188465.0,99025.0,191403.0,109660.0
2026-04-14 17:15:13.597118,166358,1609504407332718,2007302489,0.864736,-0.308416,-0.281088,-3.6575,17.03625,-20.1075,-20.776001,-11.656,-13.048,concentric,3,3.0,44461.0,188465.0,99025.0,191403.0,109660.0
2026-04-14 17:15:13.610948,166359,1609504407347212,2007317419,0.823744,-0.31232,-0.17568,-5.4775,20.83375,-20.965,-20.152,-12.360001,-14.264001,concentric,3,3.0,44461.0,188465.0,99025.0,191403.0,109660.0
2026-04-14 17:15:13.622688,166360,1609504407356135,2007326105,0.823744,-0.31232,-0.17568,-2.42375,24.14125,-21.90125,-20.152,-12.360001,-14.264001,concentric,3,3.0,44461.0,188465.0,99025.0,191403.0,109660.0
2026-04-14 17:15:13.633927,166361,1609504407370651,2007340988,0.720288,-0.206912,-0.271328,0.665,24.36875,-24.115,-20.240002,-12.472,-14.256001,concentric,3,3.0,44461.0,188465.0,99025.0,191403.0,109660.0
2026-04-14 17:15:13.645572,166362,1609504407379579,2007349646,0.7808,-0.242048,-0.306464,-4.165,23.07375,-26.1625,-19.968,-13.280001,-13.808001,concentric,3,3.0,44461.0,188465.0,99025.0,191403.0,109660.0
2026-04-14 17:15:13.673063,166373,1609504407388566,2007358421,0.7808,-0.242048,-0.306464,-16.82625,20.265,-26.88875,-19.968,-13.280001,-13.808001,concentric,3,3.0,50610.0,211594.0,109472.0,214094.0,120452.0
2026-04-14 17:15:13.675636,166374,1609504407403157,2007373434,0.817888,-0.35136,-0.128832,-14.42875,22.56625,-27.9475,-20.744001,-13.016001,-11.552001,concentric,3,3.0,50610.0,211594.0,109472.0,214094.0,120452.0
2026-04-14 17:15:13.678126,166375,1609504407412077,2007382115,0.817888,-0.35136,-0.128832,-4.19125,25.38375,-37.3975,-20.744001,-13.016001,-11.552001,concentric,3,3.0,50610.0,211594.0,109472.0,214094.0,120452.0
2026-04-14 17:15:13.704196,166376,1609504407426556,2007394972,0.708576,-0.187392,-0.249856,8.26,27.85125,-44.86125,-21.448002,-13.296001,-11.952001,concentric,3,3.0,50610.0,211594.0,109472.0,214094.0,120452.0
2026-04-14 17:15:13.706885,166377,1609504407435830,2007405733,0.708576,-0.187392,-0.249856,15.9075,28.49875,-37.21375,-21.448002,-13.296001,-11.952001,concentric,3,3.0,50610.0,211594.0,109472.0,214094.0,120452.0
2026-04-14 17:15:13.709367,166378,1609504407444745,2007414404,0.776896,-0.119072,-0.353312,15.00625,27.15125,-36.04125,-19.928001,-13.992001,-13.704,concentric,3,3.0,50610.0,211594.0,109472.0,214094.0,120452.0
2026-04-14 17:15:13.734236,166379,1609504407459216,2007429321,0.776896,-0.277184,-0.081984,7.0525,25.73375,-36.33,-19.928001,-13.992001,-13.704,concentric,3,3.0,50610.0,211594.0,109472.0,214094.0,120452.0
2026-04-14 17:15:13.756915,166380,1609504407468111,2007438006,0.91744,-0.277184,-0.081984,-2.58125,24.605,-51.205,-19.408,-14.552001,-13.296001,concentric,3,3.0,50610.0,211594.0,109472.0,214094.0,120452.0
2026-04-14 17:15:13.784337,166391,1609504407482581,2007452915,0.77104,-0.333792,-0.08784,-3.28125,22.505,-52.2725,-19.328001,-14.856001,-13.480001,concentric,3,3.0,58265.0,249362.0,122446.0,248059.0,133710.0
2026-04-14 17:15:13.786757,166392,1609504407491903,2007461660,0.77104,-0.333792,-0.08784,6.99125,25.52375,-43.8375,-19.328001,-14.856001,-13.480001,concentric,3,3.0,58265.0,249362.0,122446.0,248059.0,133710.0
2026-04-14 17:15:13.789313,166393,1609504407506482,2007476599,0.737856,-0.154208,-0.447008,17.2375,25.48,-37.765,-19.2,-15.000001,-12.952001,concentric,3,3.0,58265.0,249362.0,122446.0,248059.0,133710.0
2026-04-14 17:15:13.791924,166394,1609504407515419,2007485288,0.737856,-0.154208,-0.447008,20.41375,23.31875,-32.48875,-19.2,-15.000001,-12.952001,concentric,3,3.0,58265.0,249362.0,122446.0,248059.0,133710.0
2026-04-14 17:15:13.794359,166395,1609504407524386,2007494024,0.901824,-0.081984,-0.271328,9.82625,21.48125,-32.43625,-20.056002,-15.368001,-11.912001,concentric,3,3.0,58265.0,249362.0,122446.0,248059.0,133710.0
2026-04-14 17:15:13.805865,166396,1609504407538886,2007508967,0.901824,-0.081984,-0.271328,-2.70375,23.40625,-40.0225,-20.056002,-15.368001,-11.912001,concentric,3,3.0,58265.0,249362.0,122446.0,248059.0,133710.0
2026-04-14 17:15:13.813416,166397,1609504407547858,2007517668,0.948672,-0.259616,0.15616,-6.65875,26.36375,-47.22375,-19.568,-16.04,-13.608001,concentric,3,3.0,58265.0,249362.0,122446.0,248059.0,133710.0
2026-04-14 17:15:13.826771,166398,1609504407562374,2007532548,0.804224,-0.296704,-0.265472,6.67625,31.94625,-42.4025,-18.768002,-16.568,-13.112,concentric,3,3.0,58265.0,249362.0,122446.0,248059.0,133710.0
2026-04-14 17:15:13.836715,166399,1609504407571302,2007541221,0.804224,-0.296704,-0.265472,18.50625,34.6675,-44.87875,-18.768002,-16.568,-13.112,concentric,3,3.0,58265.0,249362.0,122446.0,248059.0,133710.0
2026-04-14 17:15:13.869015,166410,1609504407585891,2007556246,0.796416,-0.070272,-0.169824,23.87875,33.075,-38.43875,-19.328001,-16.432001,-11.032001,concentric,3,3.0,62504.0,282822.0,128799.0,274501.0,139571.0
2026-04-14 17:15:13.871603,166411,1609504407594906,2007564991,0.796416,-0.070272,-0.169824,24.325,31.036251,-31.710001,-19.328001,-16.432001,-11.032001,concentric,3,3.0,62504.0,282822.0,128799.0,274501.0,139571.0
2026-04-14 17:15:13.874033,166412,1609504407603921,2007573771,0.806176,-0.05856,-0.329888,17.42125,28.875,-32.1825,-20.080002,-16.552,-11.096001,concentric,3,3.0,62504.0,282822.0,128799.0,274501.0,139571.0
2026-04-14 17:15:13.882092,166413,1609504407618452,2007588679,0.806176,-0.05856,-0.329888,7.35,28.9625,-33.17125,-20.080002,-16.552,-11.096001,concentric,3,3.0,62504.0,282822.0,128799.0,274501.0,139571.0
2026-04-14 17:15:13.890784,166414,1609504407627434,2007597397,0.739808,-0.074176,0.081984,0.91875,30.02125,-30.84375,-19.240002,-17.096,-12.112,concentric,3,3.0,62504.0,282822.0,128799.0,274501.0,139571.0
2026-04-14 17:15:13.905404,166415,1609504407641908,2007610286,0.747616,-0.12688,-0.099552,-2.2575,32.41875,-29.303751,-18.264,-17.504002,-12.944,concentric,3,3.0,62504.0,282822.0,128799.0,274501.0,139571.0
2026-04-14 17:15:13.917085,166416,1609504407651096,2007621031,0.747616,-0.12688,-0.099552,-1.3475,32.1825,-30.93125,-18.264,-17.504002,-12.944,concentric,3,3.0,62504.0,282822.0,128799.0,274501.0,139571.0
2026-04-14 17:15:13.924231,166417,1609504407659993,2007629689,0.747616,-0.12688,-0.099552,2.61625,29.00625,-29.44375,-18.264,-17.504002,-12.944,concentric,3,3.0,62504.0,282822.0,128799.0,274501.0,139571.0
2026-04-14 17:15:13.939558,166418,1609504407674487,2007644657,0.794464,-0.066368,-0.199104,3.21125,25.57625,-25.89125,-18.952002,-17.384,-12.096001,concentric,3,3.0,62504.0,282822.0,128799.0,274501.0,139571.0
2026-04-14 17:15:13.972009,166429,1609504407683414,2007653320,0.825696,-0.052704,0.0,3.01875,24.22875,-22.68,-18.08,-18.024,-12.632001,concentric,3,3.0,66064.0,300058.0,133417.0,285654.0,144478.0
2026-04-14 17:15:13.974649,166430,1609504407698351,2007668231,0.825696,-0.052704,0.0,-2.3975,26.7575,-26.01375,-18.08,-18.024,-12.632001,concentric,3,3.0,66064.0,300058.0,133417.0,285654.0,144478.0
2026-04-14 17:15:13.977160,166431,1609504407707286,2007676923,0.821792,-0.076128,-0.111264,-1.785,29.75,-27.78125,-18.800001,-18.296001,-11.224001,concentric,3,3.0,66064.0,300058.0,133417.0,285654.0,144478.0
2026-04-14 17:15:14.008286,166432,1609504407721779,2007691830,0.6832,-0.08784,-0.173728,7.595,33.11,-35.2975,-18.544,-18.136002,-12.216001,concentric,3,3.0,66064.0,300058.0,133417.0,285654.0,144478.0
2026-04-14 17:15:14.010733,166433,1609504407730736,2007700494,0.6832,-0.08784,-0.173728,10.3775,31.1675,-36.951252,-18.544,-18.136002,-12.216001,concentric,3,3.0,66064.0,300058.0,133417.0,285654.0,144478.0
2026-04-14 17:15:14.013277,166434,1609504407739644,2007709159,0.6832,-0.08784,-0.173728,11.6025,27.20375,-30.5725,-18.544,-18.136002,-12.216001,concentric,3,3.0,66064.0,300058.0,133417.0,285654.0,144478.0
2026-04-14 17:15:14.018257,166435,1609504407754120,2007724063,0.757376,-0.152256,-0.169824,5.46,24.36,-27.685,-18.696001,-18.048,-9.752001,concentric,3,3.0,66064.0,300058.0,133417.0,285654.0,144478.0
2026-04-14 17:15:14.026807,166436,1609504407763054,2007732734,0.763232,-0.056608,0.007808,-1.7675,23.73875,-20.6325,-18.552,-18.68,-12.048,concentric,3,3.0,66064.0,300058.0,133417.0,285654.0,144478.0
2026-04-14 17:15:14.043243,166437,1609504407777525,2007747584,0.763232,-0.056608,0.007808,-6.545,24.5175,-15.75875,-18.552,-18.68,-12.048,concentric,3,3.0,66064.0,300058.0,133417.0,285654.0,144478.0
2026-04-14 17:15:14.120486,166448,1609504407786841,2007756375,0.75152,-0.132736,-0.081984,-8.82875,24.84125,-15.715,-17.752,-18.912,-10.736,concentric,3,3.0,71687.0,305333.0,141687.0,288805.0,153473.0
2026-04-14 17:15:14.123247,166449,1609504407795924,2007765106,0.75152,-0.132736,-0.081984,-6.51,23.8525,-14.23625,-17.752,-18.912,-10.736,concentric,3,3.0,71687.0,305333.0,141687.0,288805.0,153473.0
2026-04-14 17:15:14.125903,166450,1609504407810489,2007780141,0.747616,-0.0488,-0.03904,-2.5725,21.210001,-13.39625,-19.248001,-18.888,-9.352,concentric,3,3.0,71687.0,305333.0,141687.0,288805.0,153473.0
2026-04-14 17:15:14.128444,166451,1609504407819486,2007788848,0.747616,-0.0488,-0.03904,-0.55125,18.0075,-12.565,-19.248001,-18.888,-9.352,concentric,3,3.0,71687.0,305333.0,141687.0,288805.0,153473.0
2026-04-14 17:15:14.130933,166452,1609504407834013,2007803742,0.730048,-0.132736,-0.158112,-9.1875,15.82875,-11.8825,-19.36,-18.824001,-10.144,concentric,3,3.0,71687.0,305333.0,141687.0,288805.0,153473.0
2026-04-14 17:15:14.133378,166453,1609504407842894,2007812403,0.792512,-0.08784,0.007808,-14.9975,14.315001,-9.54625,-19.032001,-19.064001,-12.712001,concentric,3,3.0,71687.0,305333.0,141687.0,288805.0,153473.0
2026-04-14 17:15:14.136019,166454,1609504407857530,2007827327,0.792512,-0.08784,0.007808,-10.92,12.17125,-8.35625,-19.032001,-19.064001,-12.712001,concentric,3,3.0,71687.0,305333.0,141687.0,288805.0,153473.0
2026-04-14 17:15:14.140917,166455,1609504407866474,2007836010,0.757376,-0.1464,-0.220576,-8.02375,9.17,-7.9975,-18.808,-19.384,-10.168,concentric,3,3.0,71687.0,305333.0,141687.0,288805.0,153473.0
2026-04-14 17:15:14.143342,166456,1609504407875423,2007844745,0.757376,-0.1464,-0.220576,-8.30375,4.3575,-5.41625,-18.808,-19.384,-10.168,concentric,3,3.0,71687.0,305333.0,141687.0,288805.0,153473.0
2026-04-14 17:15:14.172175,166467,1609504407890074,2007859931,0.796416,-0.089792,-0.081984,-8.1025,-0.91875,-3.1675,-18.648,-19.136002,-10.408001,concentric,3,3.0,72686.0,308335.0,143171.0,291338.0,154924.0
2026-04-14 17:15:14.176890,166468,1609504407899191,2007868687,0.796416,-0.089792,-0.081984,-9.93125,-2.86125,0.8225,-18.648,-19.136002,-10.408001,concentric,3,3.0,72686.0,308335.0,143171.0,291338.0,154924.0
2026-04-14 17:15:14.177838,166469,1609504407913661,2007883563,0.933056,-0.023424,0.050752,-14.41125,-0.9975,0.56,-18.696001,-19.080002,-10.144,concentric,3,3.0,72686.0,308335.0,143171.0,291338.0,154924.0
2026-04-14 17:15:14.186246,166470,1609504407922581,2007892270,0.979904,-0.128832,-0.005856,-22.49625,4.165,-0.30625,-18.696001,-19.384,-11.392,concentric,3,3.0,72686.0,308335.0,143171.0,291338.0,154924.0
2026-04-14 17:15:14.195769,166471,1609504407931470,2007900979,0.979904,-0.128832,-0.005856,-24.053751,7.13125,-1.6275,-18.544,-19.384,-11.392,concentric,3,3.0,72686.0,308335.0,143171.0,291338.0,154924.0
2026-04-14 17:15:14.209336,166472,1609504407946030,2007915891,0.999424,-0.025376,-0.076128,-13.3175,4.655,-2.91375,-17.744001,-19.536001,-11.088,concentric,3,3.0,72686.0,308335.0,143171.0,291338.0,154924.0
2026-04-14 17:15:14.219446,166473,1609504407955008,2007924579,0.999424,-0.025376,-0.076128,-5.32,0.84,-4.64625,-17.744001,-19.536001,-11.088,concentric,3,3.0,72686.0,308335.0,143171.0,291338.0,154924.0
2026-04-14 17:15:14.235973,166474,1609504407969559,2007939492,0.894016,-0.12688,-0.203008,-6.895,-3.6925,-3.61375,-18.720001,-19.6,-10.376,concentric,3,3.0,72686.0,308335.0,143171.0,291338.0,154924.0
2026-04-14 17:15:14.241909,166475,1609504407978499,2007948183,0.894016,-0.12688,-0.203008,-11.40125,-5.97625,-0.41125,-18.720001,-19.6,-10.376,concentric,3,3.0,72686.0,308335.0,143171.0,291338.0,154924.0
2026-04-14 17:15:14.272886,166486,1609504407993085,2007963144,0.903776,-0.027328,-0.093696,-11.515,-5.38125,2.8,-18.016,-19.248001,-9.736,concentric,3,3.0,74170.0,309510.0,145374.0,292107.0,157374.0
2026-04-14 17:15:14.275961,166487,1609504408002029,2007971943,0.903776,-0.027328,-0.093696,-11.8125,-2.40625,4.725,-18.016,-19.248001,-9.736,concentric,3,3.0,74170.0,309510.0,145374.0,292107.0,157374.0
2026-04-14 17:15:14.277734,166488,1609504408010969,2007980649,0.841312,-0.060512,-0.18544,-14.98875,1.68,3.4125,-17.928001,-19.480001,-10.784,concentric,3,3.0,74170.0,309510.0,145374.0,292107.0,157374.0
2026-04-14 17:15:14.289611,166489,1609504408025488,2007995550,0.903776,-0.021472,0.052704,-14.35,2.94875,1.49625,-18.072,-19.608002,-10.664001,concentric,3,3.0,74170.0,309510.0,145374.0,292107.0,157374.0
2026-04-14 17:15:14.298259,166490,1609504408034434,2008004233,0.903776,-0.021472,0.052704,-8.0675,1.365,-0.67375,-18.072,-19.608002,-10.664001,concentric,3,3.0,74170.0,309510.0,145374.0,292107.0,157374.0
2026-04-14 17:15:14.313370,166491,1609504408048934,2008019144,0.925248,-0.091744,-0.160064,-6.13375,-0.48125,-2.0125,-18.112001,-19.552,-10.496,concentric,3,3.0,74170.0,309510.0,145374.0,292107.0,157374.0
2026-04-14 17:15:14.321848,166492,1609504408057849,2008027832,0.925248,-0.091744,-0.160064,-9.17,-1.81125,-2.07375,-18.112001,-19.552,-10.496,concentric,3,3.0,74170.0,309510.0,145374.0,292107.0,157374.0
2026-04-14 17:15:14.338451,166493,1609504408072356,2008042686,0.876448,-0.044896,-0.052704,-9.9575,-2.84375,-1.2775,-18.216002,-19.76,-10.536,concentric,3,3.0,74170.0,309510.0,145374.0,292107.0,157374.0
2026-04-14 17:15:14.344672,166494,1609504408081269,2008051384,0.876448,-0.044896,-0.052704,-8.42625,-3.9025,-0.74375,-18.216002,-19.76,-10.536,concentric,3,3.0,74170.0,309510.0,145374.0,292107.0,157374.0
2026-04-14 17:15:14.372766,166505,1609504408090356,2008060186,0.880352,-0.05856,0.02928,-7.6825,-4.585,0.2275,-18.352001,-19.656,-9.248,concentric,3,3.0,75033.0,309452.0,146736.0,292146.0,158665.0
2026-04-14 17:15:14.375786,166506,1609504408105013,2008075190,0.933056,-0.091744,-0.210816,-6.51875,-5.25,1.07625,-18.544,-19.488,-9.952001,concentric,3,3.0,75033.0,309452.0,146736.0,292146.0,158665.0
2026-04-14 17:15:14.378268,166507,1609504408114014,2008083850,0.933056,-0.091744,-0.210816,-4.82125,-5.95,0.9625,-18.544,-19.488,-9.952001,concentric,3,3.0,75033.0,309452.0,146736.0,292146.0,158665.0
2026-04-14 17:15:14.391999,166508,1609504408128526,2008098733,0.942816,-0.072224,-0.121024,-4.095,-5.69625,1.51375,-18.088001,-19.824001,-10.856001,concentric,3,3.0,75033.0,309452.0,146736.0,292146.0,158665.0
2026-04-14 17:15:14.401992,166509,1609504408137494,2008107393,0.942816,-0.072224,-0.121024,-5.0925,-4.10375,2.31875,-18.088001,-19.824001,-10.856001,concentric,3,3.0,75033.0,309452.0,146736.0,292146.0,158665.0
2026-04-14 17:15:14.445914,166510,1609504408151993,2008122275,0.9272,-0.056608,0.007808,-6.55375,-1.89,0.84,-18.0,-19.496,-10.928,concentric,3,3.0,75033.0,309452.0,146736.0,292146.0,158665.0
2026-04-14 17:15:14.448402,166511,1609504408160899,2008130961,0.9272,-0.056608,0.007808,-5.10125,-0.2625,-0.27125,-18.0,-19.496,-10.928,concentric,3,3.0,75033.0,309452.0,146736.0,292146.0,158665.0
2026-04-14 17:15:14.450916,166512,1609504408169863,2008139634,0.895968,-0.072224,-0.105408,-0.98875,0.1225,-1.54,-18.856,-19.320002,-8.704,concentric,3,3.0,75033.0,309452.0,146736.0,292146.0,158665.0
2026-04-14 17:15:14.475848,166513,1609504408184339,2008154506,0.95648,-0.052704,0.044896,1.6625,-1.53125,-2.00375,-18.856,-19.320002,-9.576,concentric,3,3.0,75033.0,309452.0,146736.0,292146.0,158665.0
2026-04-14 17:15:14.502983,166524,1609504408193275,2008163245,0.95648,-0.052704,0.044896,2.835,-2.72125,-1.8375,-19.528002,-19.320002,-9.576,concentric,3,3.0,73662.0,309468.0,144928.0,292372.0,156812.0
2026-04-14 17:15:14.505483,166525,1609504408207743,2008176086,0.94672,-0.074176,0.044896,2.00375,-3.98125,-1.44375,-19.488,-18.936,-9.808001,concentric,3,3.0,73662.0,309468.0,144928.0,292372.0,156812.0
2026-04-14 17:15:14.508070,166526,1609504408216933,2008186813,0.94672,-0.074176,0.044896,-0.2975,-4.0075,-0.4025,-19.488,-18.936,-9.808001,concentric,3,3.0,73662.0,309468.0,144928.0,292372.0,156812.0
2026-04-14 17:15:14.510910,166527,1609504408225909,2008195599,0.925248,-0.07808,-0.101504,0.69125,-3.22,-0.14875,-19.560001,-19.36,-9.624001,concentric,3,3.0,73662.0,309468.0,144928.0,292372.0,156812.0
2026-04-14 17:15:14.513409,166528,1609504408240407,2008210510,0.925248,-0.07808,-0.101504,3.4125,-3.3075,-1.6625,-19.560001,-19.36,-9.624001,concentric,3,3.0,73662.0,309468.0,144928.0,292372.0,156812.0
2026-04-14 17:15:14.515411,166529,1609504408249369,2008219247,0.872544,-0.093696,-0.121024,4.64625,-4.61125,-2.58125,-19.192001,-19.408,-9.672001,concentric,3,3.0,73662.0,309468.0,144928.0,292372.0,156812.0
2026-04-14 17:15:14.528424,166530,1609504408263905,2008234126,0.872544,-0.093696,-0.121024,6.39625,-6.09875,-2.835,-19.192001,-19.408,-9.672001,concentric,3,3.0,73662.0,309468.0,144928.0,292372.0,156812.0
2026-04-14 17:15:14.538428,166531,1609504408272854,2008242804,0.954528,-0.066368,-0.001952,8.61,-7.93625,-2.2225,-17.960001,-19.304,-11.52,concentric,3,3.0,73662.0,309468.0,144928.0,292372.0,156812.0
2026-04-14 17:15:14.574599,166542,1609504408287759,2008258221,0.933056,-0.07808,-0.02928,6.4575,-9.1175,-0.945,-18.28,-19.112001,-10.104,concentric,3,3.0,72542.0,308654.0,143367.0,291853.0,155235.0
2026-04-14 17:15:14.576992,166543,1609504408296806,2008266954,0.933056,-0.07808,-0.02928,3.82375,-8.39125,0.42,-18.28,-19.112001,-10.104,concentric,3,3.0,72542.0,308654.0,143367.0,291853.0,155235.0
2026-04-14 17:15:14.579487,166544,1609504408305768,2008275676,0.88816,-0.06832,0.00976,2.8,-7.21,0.84,-19.080002,-19.184,-9.096001,concentric,3,3.0,72542.0,308654.0,143367.0,291853.0,155235.0
2026-04-14 17:15:14.585899,166545,1609504408320332,2008290572,0.88816,-0.06832,0.00976,3.2375,-7.25375,-0.35875,-19.080002,-19.184,-9.096001,concentric,3,3.0,72542.0,308654.0,143367.0,291853.0,155235.0
2026-04-14 17:15:14.594585,166546,1609504408329332,2008299244,0.940864,-0.103456,-0.150304,5.285,-7.88375,0.035,-17.952002,-19.312,-11.624001,concentric,3,3.0,72542.0,308654.0,143367.0,291853.0,155235.0
2026-04-14 17:15:14.607172,166547,1609504408343835,2008314135,0.940864,-0.103456,-0.150304,7.4375,-8.7675,-0.07875,-17.952002,-19.312,-11.624001,concentric,3,3.0,72542.0,308654.0,143367.0,291853.0,155235.0
2026-04-14 17:15:14.617156,166548,1609504408352750,2008322827,0.899872,-0.06832,-0.02928,7.42,-9.555,1.19,-18.272001,-19.328001,-11.872001,concentric,3,3.0,72542.0,308654.0,143367.0,291853.0,155235.0
2026-04-14 17:15:14.653664,166549,1609504408361680,2008331510,0.899872,-0.06832,-0.02928,4.9,-9.1175,2.3275,-18.272001,-19.328001,-11.872001,concentric,3,3.0,72542.0,308654.0,143367.0,291853.0,155235.0
2026-04-14 17:15:14.656016,166550,1609504408376170,2008346368,0.94672,-0.05856,0.046848,3.49125,-8.04125,3.00125,-18.336,-18.968,-10.56,concentric,3,3.0,72542.0,308654.0,143367.0,291853.0,155235.0
2026-04-14 17:15:14.656105,166551,1609504408385090,2008355023,0.94672,-0.074176,0.02928,4.5325,-7.2975,2.5725,-18.336,-18.968,-10.56,concentric,3,3.0,72542.0,308654.0,143367.0,291853.0,155235.0
2026-04-14 17:15:14.685878,166562,1609504408399696,2008370078,0.938912,-0.066368,0.02928,5.13625,-6.58,2.19625,-18.032001,-19.096,-11.608001,concentric,3,3.0,72425.0,309488.0,143159.0,292562.0,154991.0
2026-04-14 17:15:14.688379,166563,1609504408408711,2008378850,0.862784,-0.070272,-0.210816,4.87375,-6.99125,1.23375,-17.960001,-19.264002,-11.920001,concentric,3,3.0,72425.0,309488.0,143159.0,292562.0,154991.0
2026-04-14 17:15:14.690902,166564,1609504408423255,2008391700,0.862784,-0.070272,-0.210816,5.1975,-7.7,0.7525,-17.960001,-19.264002,-11.920001,concentric,3,3.0,72425.0,309488.0,143159.0,292562.0,154991.0
2026-04-14 17:15:14.697130,166565,1609504408432503,2008402486,0.909632,-0.093696,-0.193248,4.62875,-8.72375,0.58625,-18.128,-19.008001,-11.888001,concentric,3,3.0,72425.0,309488.0,143159.0,292562.0,154991.0
2026-04-14 17:15:14.705831,166566,1609504408441426,2008411197,0.909632,-0.093696,-0.193248,2.80875,-8.2425,0.14,-18.128,-19.008001,-11.888001,concentric,3,3.0,72425.0,309488.0,143159.0,292562.0,154991.0
2026-04-14 17:15:14.720525,166567,1609504408455906,2008426095,0.894016,-0.095648,-0.1952,1.26,-7.4025,0.41125,-17.904001,-19.104,-11.68,concentric,3,3.0,72425.0,309488.0,143159.0,292562.0,154991.0
2026-04-14 17:15:14.728415,166568,1609504408464829,2008434768,0.894016,-0.095648,-0.1952,1.30375,-7.07875,0.04375,-17.904001,-19.104,-11.68,concentric,3,3.0,72425.0,309488.0,143159.0,292562.0,154991.0
2026-04-14 17:15:14.742992,166569,1609504408479285,2008449616,0.845216,-0.042944,-0.003904,1.68,-7.8925,-0.35875,-18.024,-18.792002,-8.808001,concentric,3,3.0,72425.0,309488.0,143159.0,292562.0,154991.0
2026-04-14 17:15:14.778421,166580,1609504408488215,2008458257,0.901824,-0.103456,-0.06832,2.6075,-9.6775,0.07875,-18.736,-18.424002,-11.160001,concentric,3,3.0,71245.0,307840.0,141632.0,291487.0,153461.0
2026-04-14 17:15:14.780465,166581,1609504408497539,2008467000,0.901824,-0.103456,-0.06832,2.45875,-11.2875,0.0875,-18.736,-18.424002,-11.160001,concentric,3,3.0,71245.0,307840.0,141632.0,291487.0,153461.0
2026-04-14 17:15:14.805905,166582,1609504408512147,2008481963,0.86864,-0.10736,-0.052704,1.5225,-13.3175,1.155,-18.744001,-18.6,-11.056001,concentric,3,3.0,71245.0,307840.0,141632.0,291487.0,153461.0
2026-04-14 17:15:14.833086,166583,1609504408521202,2008490663,0.86864,-0.10736,-0.052704,2.35375,-14.69125,2.45,-18.744001,-18.6,-11.056001,concentric,3,3.0,71245.0,307840.0,141632.0,291487.0,153461.0
2026-04-14 17:15:14.833604,166584,1609504408535731,2008505550,0.75152,-0.044896,-0.005856,3.325,-16.2575,2.59875,-19.032001,-18.424002,-11.232,concentric,3,3.0,71245.0,307840.0,141632.0,291487.0,153461.0
2026-04-14 17:15:14.835441,166585,1609504408544650,2008514233,0.75152,-0.044896,-0.005856,3.10625,-17.36,2.905,-19.032001,-18.424002,-11.232,concentric,3,3.0,71245.0,307840.0,141632.0,291487.0,153461.0
2026-04-14 17:15:14.837966,166586,1609504408559125,2008529133,0.700768,-0.042944,-0.042944,3.57,-19.7925,4.655,-18.728,-18.344002,-9.64,concentric,3,3.0,71245.0,307840.0,141632.0,291487.0,153461.0
2026-04-14 17:15:14.843892,166587,1609504408568106,2008537795,0.778848,-0.148352,-0.12688,3.115,-22.6975,5.88875,-19.328001,-18.320002,-11.488001,concentric,3,3.0,71245.0,307840.0,141632.0,291487.0,153461.0
2026-04-14 17:15:14.844791,166588,1609504408577061,2008546492,0.778848,-0.148352,-0.12688,1.81125,-24.3075,8.1375,-19.328001,-18.320002,-11.488001,concentric,3,3.0,71245.0,307840.0,141632.0,291487.0,153461.0
2026-04-14 17:15:14.880951,166599,1609504408592089,2008561814,0.808128,-0.189344,-0.089792,1.4525,-25.54125,13.055,-19.784,-18.072,-11.096001,concentric,3,3.0,66682.0,293453.0,135477.0,280776.0,146945.0
2026-04-14 17:15:14.883436,166600,1609504408601206,2008570595,0.808128,-0.189344,-0.089792,0.86625,-25.71625,15.75875,-19.784,-18.072,-11.096001,concentric,3,3.0,66682.0,293453.0,135477.0,280776.0,146945.0
2026-04-14 17:15:14.885951,166601,1609504408615707,2008585537,0.77104,-0.154208,-0.074176,5.985,-25.92625,18.13,-19.608002,-17.832,-12.296001,concentric,3,3.0,66682.0,293453.0,135477.0,280776.0,146945.0
2026-04-14 17:15:14.890935,166602,1609504408624686,2008594236,0.77104,-0.154208,-0.074176,12.3375,-27.16,20.055,-19.608002,-17.832,-12.296001,concentric,3,3.0,66682.0,293453.0,135477.0,280776.0,146945.0
2026-04-14 17:15:14.895930,166603,1609504408633634,2008602964,0.732,-0.124928,-0.249856,14.35,-29.155,20.86,-19.368,-17.648,-13.368001,concentric,3,3.0,66682.0,293453.0,135477.0,280776.0,146945.0
2026-04-14 17:15:14.911715,166604,1609504408648092,2008617886,0.747616,-0.089792,-0.0976,9.65125,-31.491251,22.28625,-18.6,-17.752,-14.144001,concentric,3,3.0,66682.0,293453.0,135477.0,280776.0,146945.0
2026-04-14 17:15:14.922123,166605,1609504408657016,2008626573,0.747616,-0.089792,-0.0976,2.205,-33.0925,25.2525,-18.6,-17.752,-14.144001,concentric,3,3.0,66682.0,293453.0,135477.0,280776.0,146945.0
2026-04-14 17:15:14.935874,166606,1609504408671557,2008641456,0.69296,-0.093696,-0.070272,-7.23625,-33.71375,26.85375,-18.800001,-17.184,-12.6,concentric,3,3.0,66682.0,293453.0,135477.0,280776.0,146945.0
2026-04-14 17:15:14.945786,166607,1609504408680501,2008650182,0.69296,-0.093696,-0.070272,-14.0875,-33.6175,25.15625,-18.800001,-17.184,-12.6,concentric,3,3.0,66682.0,293453.0,135477.0,280776.0,146945.0
2026-04-14 17:15:14.979682,166618,1609504408695113,2008665122,0.5856,-0.121024,-0.1952,-13.3,-32.2525,24.395,-18.416,-17.344002,-13.304001,concentric,3,3.0,58762.0,258575.0,123709.0,253301.0,134541.0
2026-04-14 17:15:14.982179,166619,1609504408704090,2008673845,0.5856,-0.121024,-0.1952,-9.0825,-32.865,24.38625,-18.416,-17.344002,-13.304001,concentric,3,3.0,58762.0,258575.0,123709.0,253301.0,134541.0
2026-04-14 17:15:14.984677,166620,1609504408712966,2008682519,0.55632,-0.042944,-0.03904,-7.83125,-36.96875,24.4475,-19.192001,-16.472,-12.824,concentric,3,3.0,58762.0,258575.0,123709.0,253301.0,134541.0
2026-04-14 17:15:14.998247,166621,1609504408727516,2008697392,0.821792,-0.265472,-0.476288,-11.095,-38.91125,26.6,-19.192001,-16.472,-14.872001,concentric,3,3.0,58762.0,258575.0,123709.0,253301.0,134541.0
2026-04-14 17:15:14.999072,166622,1609504408736439,2008706072,0.813984,-0.265472,-0.476288,-23.8525,-42.665,28.0175,-19.632002,-16.560001,-14.824,concentric,3,3.0,58762.0,258575.0,123709.0,253301.0,134541.0
2026-04-14 17:15:15.015547,166623,1609504408750940,2008720958,0.730048,-0.177632,-0.177632,-45.01,-43.68875,28.34125,-18.248001,-16.624,-13.224001,concentric,3,3.0,58762.0,258575.0,123709.0,253301.0,134541.0
2026-04-14 17:15:15.024360,166624,1609504408759889,2008729691,0.730048,-0.177632,-0.177632,-50.3125,-38.94625,29.54875,-18.248001,-16.624,-13.224001,concentric,3,3.0,58762.0,258575.0,123709.0,253301.0,134541.0
2026-04-14 17:15:15.039499,166625,1609504408774379,2008744605,0.542656,-0.232288,-0.310368,-34.0375,-34.23,28.70875,-20.224,-15.648001,-11.608001,concentric,3,3.0,58762.0,258575.0,123709.0,253301.0,134541.0
2026-04-14 17:15:15.046604,166626,1609504408783308,2008753347,0.542656,-0.232288,-0.310368,-18.62,-32.5675,22.2075,-20.224,-15.648001,-11.608001,concentric,3,3.0,58762.0,258575.0,123709.0,253301.0,134541.0
2026-04-14 17:15:15.081660,166637,1609504408792467,2008762111,0.544608,-0.130784,-0.183488,-10.43,-38.955,25.9875,-18.76,-15.872001,-14.008,concentric,3,3.0,50154.0,217011.0,108806.0,217357.0,118318.0
2026-04-14 17:15:15.084104,166638,1609504408807013,2008777019,0.544608,-0.130784,-0.183488,-9.63375,-38.96375,30.87875,-18.76,-15.872001,-14.008,concentric,3,3.0,50154.0,217011.0,108806.0,217357.0,118318.0
2026-04-14 17:15:15.089789,166639,1609504408815941,2008785729,0.802272,-0.277184,-0.267424,-18.27875,-43.93375,22.70625,-20.272001,-15.216001,-14.376,concentric,3,3.0,50154.0,217011.0,108806.0,217357.0,118318.0
2026-04-14 17:15:15.095346,166640,1609504408830432,2008800647,0.77104,-0.189344,-0.113216,-28.192501,-44.0825,29.02375,-19.472,-14.968,-13.344001,concentric,3,3.0,50154.0,217011.0,108806.0,217357.0,118318.0
2026-04-14 17:15:15.102834,166641,1609504408839369,2008809357,0.77104,-0.189344,-0.113216,-25.62875,-35.79625,22.1025,-19.472,-14.968,-13.344001,concentric,3,3.0,50154.0,217011.0,108806.0,217357.0,118318.0
2026-04-14 17:15:15.116871,166642,1609504408853889,2008822239,0.72224,-0.304512,-0.240096,-23.345,-35.25375,8.91625,-18.448,-15.192,-13.728001,concentric,3,3.0,50154.0,217011.0,108806.0,217357.0,118318.0
2026-04-14 17:15:15.129754,166643,1609504408863045,2008832977,0.72224,-0.304512,-0.240096,-17.01,-32.75125,24.605,-18.448,-15.192,-13.728001,concentric,3,3.0,50154.0,217011.0,108806.0,217357.0,118318.0
2026-04-14 17:15:15.134266,166644,1609504408871997,2008841737,0.694912,-0.076128,-0.288896,-14.11375,-31.15875,29.715,-18.888,-14.496,-14.464001,concentric,3,3.0,50154.0,217011.0,108806.0,217357.0,118318.0
2026-04-14 17:15:15.175560,166645,1609504408886470,2008856682,0.694912,-0.076128,-0.288896,-16.45,-35.07,24.6925,-18.888,-14.496,-14.464001,concentric,3,3.0,50154.0,217011.0,108806.0,217357.0,118318.0
2026-04-14 17:15:15.250875,166656,1609504408895570,2008865512,0.798368,-0.177632,-0.187392,-22.47,-37.40625,28.44625,-19.576,-14.096001,-15.064001,concentric,3,3.0,43842.0,192334.0,97323.0,194073.0,107566.0
2026-04-14 17:15:15.252952,166657,1609504408910046,2008878382,0.83936,-0.257664,-0.376736,-28.6125,-33.18875,25.73375,-19.376001,-13.464001,-13.168,concentric,3,3.0,43842.0,192334.0,97323.0,194073.0,107566.0
2026-04-14 17:15:15.255903,166658,1609504408919178,2008889159,0.83936,-0.257664,-0.376736,-24.99875,-30.84375,16.51125,-19.376001,-13.464001,-13.168,concentric,3,3.0,43842.0,192334.0,97323.0,194073.0,107566.0
2026-04-14 17:15:15.258411,166659,1609504408928077,2008897839,0.83936,-0.257664,-0.376736,-14.83125,-23.70375,14.7,-19.376001,-13.464001,-13.168,concentric,3,3.0,43842.0,192334.0,97323.0,194073.0,107566.0
2026-04-14 17:15:15.260908,166660,1609504408942540,2008912726,0.716384,-0.26352,-0.386496,0.25375,-19.45125,14.67375,-19.416,-13.040001,-12.016001,concentric,3,3.0,43842.0,192334.0,97323.0,194073.0,107566.0
2026-04-14 17:15:15.290943,166661,1609504408951465,2008921391,0.739808,-0.02928,-0.47824,10.71875,-19.565,13.02875,-19.656,-12.544001,-13.136001,concentric,3,3.0,43842.0,192334.0,97323.0,194073.0,107566.0
2026-04-14 17:15:15.293485,166662,1609504408965971,2008936239,0.739808,-0.02928,-0.47824,8.88125,-22.303751,12.11,-19.656,-12.544001,-13.136001,concentric,3,3.0,43842.0,192334.0,97323.0,194073.0,107566.0
2026-04-14 17:15:15.295568,166663,1609504408974936,2008944973,0.979904,-0.134688,-0.320128,-2.37125,-22.51375,11.10375,-20.248001,-11.992001,-13.120001,concentric,3,3.0,43842.0,192334.0,97323.0,194073.0,107566.0
2026-04-14 17:15:15.298476,166664,1609504408989485,2008957883,0.983808,-0.26352,-0.325984,-10.64875,-19.80125,7.2625,-20.248001,-11.408001,-14.888001,concentric,3,3.0,43842.0,192334.0,97323.0,194073.0,107566.0
2026-04-14 17:15:15.325424,166675,1609504408998772,2008968753,0.983808,-0.26352,-0.325984,-16.51125,-16.14375,0.51625,-20.640001,-11.408001,-14.888001,concentric,3,3.0,41720.0,187546.0,93278.0,189267.0,103720.0
2026-04-14 17:15:15.327815,166676,1609504409007769,2008977449,0.983808,-0.26352,-0.325984,-14.752501,-12.27625,-3.8325,-20.640001,-11.408001,-14.888001,concentric,3,3.0,41720.0,187546.0,93278.0,189267.0,103720.0
2026-04-14 17:15:15.330320,166677,1609504409022232,2008992348,0.80032,-0.35136,-0.476288,0.805,-7.595,-0.83125,-19.376001,-11.504001,-13.704,concentric,3,3.0,41720.0,187546.0,93278.0,189267.0,103720.0
2026-04-14 17:15:15.333382,166678,1609504409031144,2009001040,0.899872,-0.121024,-0.523136,15.295,-6.8075,-1.33,-19.408,-11.496,-14.976001,concentric,3,3.0,41720.0,187546.0,93278.0,189267.0,103720.0
2026-04-14 17:15:15.335994,166679,1609504409045663,2009015930,0.899872,-0.121024,-0.523136,19.66125,-4.82125,-0.1575,-19.408,-11.496,-14.976001,concentric,3,3.0,41720.0,187546.0,93278.0,189267.0,103720.0
2026-04-14 17:15:15.338364,166680,1609504409054740,2009024691,0.976,-0.132736,-0.493856,14.5075,-4.48875,5.7925,-19.672,-10.968,-14.456,concentric,3,3.0,41720.0,187546.0,93278.0,189267.0,103720.0
2026-04-14 17:15:15.340291,166681,1609504409063700,2009033447,0.976,-0.132736,-0.493856,6.97375,1.2425,7.84875,-19.672,-10.968,-14.456,concentric,3,3.0,41720.0,187546.0,93278.0,189267.0,103720.0
2026-04-14 17:15:15.343276,166682,1609504409078203,2009048418,0.970144,-0.244,-0.425536,2.45875,4.5325,-3.5875,-19.944,-10.312,-14.936001,concentric,3,3.0,41720.0,187546.0,93278.0,189267.0,103720.0
2026-04-14 17:15:15.352771,166683,1609504409087135,2009057126,0.970144,-0.244,-0.425536,1.46125,9.31875,-5.52125,-19.944,-10.312,-14.936001,concentric,3,3.0,41720.0,187546.0,93278.0,189267.0,103720.0
