pc_time,serial_num,sensor_ts,host_ts,ax,ay,az,gx,gy,gz,mx,my,mz,phase,rpe,weight_kg,ppg_a,ppg_b,ppg_c,ppg_d,ppg_e
2026-04-14 17:15:09.968652,165676,1609504403702091,2003672258,1.188768,-0.226432,-0.472384,-9.44125,43.9075,-26.04875,-21.744001,-7.552001,-15.264001,eccentric,3,3.0,36965.0,174082.0,87610.0,177459.0,98477.0
2026-04-14 17:15:09.975331,165677,1609504403711099,2003680955,1.188768,-0.226432,-0.472384,-7.04375,42.8925,-42.67375,-21.744001,-7.552001,-15.264001,eccentric,3,3.0,36965.0,174082.0,87610.0,177459.0,98477.0
2026-04-14 17:15:09.989045,165678,1609504403725576,2003695857,1.272704,-0.365024,-0.345504,-10.28125,39.8475,-44.91375,-21.224,-7.480001,-13.904,eccentric,3,3.0,36965.0,174082.0,87610.0,177459.0,98477.0
2026-04-14 17:15:10.001995,165679,1609504403734526,2003704621,1.272704,-0.365024,-0.345504,-13.3525,39.795002,-39.17375,-21.224,-7.480001,-13.904,eccentric,3,3.0,36965.0,174082.0,87610.0,177459.0,98477.0
2026-04-14 17:15:10.029286,165680,1609504403743476,2003713313,1.212192,-0.386496,-0.363072,-5.59125,36.89,-43.6275,-21.408,-7.192,-12.032001,eccentric,3,3.0,36965.0,174082.0,87610.0,177459.0,98477.0
2026-04-14 17:15:10.038584,165681,1609504403757954,2003728170,1.270752,-0.398208,-0.265472,4.03375,34.685,-45.701252,-22.776001,-6.696,-12.016001,eccentric,3,3.0,36965.0,174082.0,87610.0,177459.0,98477.0
2026-04-14 17:15:10.087889,165692,1609504403766982,2003737143,1.270752,-0.398208,-0.265472,10.50875,32.69875,-42.84875,-22.776001,-6.696,-12.016001,eccentric,3,3.0,46712.0,199220.0,104323.0,202752.0,116648.0
2026-04-14 17:15:10.090299,165693,1609504403781488,2003750080,1.19072,-0.320128,-0.407968,11.76875,27.67625,-41.58,-22.768002,-6.656,-12.464001,eccentric,3,3.0,46712.0,199220.0,104323.0,202752.0,116648.0
2026-04-14 17:15:10.092810,165694,1609504403790859,2003760822,1.19072,-0.320128,-0.407968,7.62125,25.48,-40.90625,-22.768002,-6.656,-12.464001,eccentric,3,3.0,46712.0,199220.0,104323.0,202752.0,116648.0
2026-04-14 17:15:10.095552,165695,1609504403799754,2003769498,1.165344,-0.337696,-0.382592,4.935,24.00125,-37.40625,-22.952002,-6.808,-12.704,eccentric,3,3.0,46712.0,199220.0,104323.0,202752.0,116648.0
2026-04-14 17:15:10.098071,165696,1609504403814384,2003784405,1.165344,-0.337696,-0.382592,3.56125,20.74625,-30.8,-22.952002,-6.808,-12.704,eccentric,3,3.0,46712.0,199220.0,104323.0,202752.0,116648.0
2026-04-14 17:15:10.100456,165697,1609504403823312,2003793101,1.145824,-0.382592,-0.31232,7.5075,18.2875,-24.745,-22.2,-7.08,-12.184001,eccentric,3,3.0,46712.0,199220.0,104323.0,202752.0,116648.0
2026-04-14 17:15:10.103072,165698,1609504403837870,2003807985,1.09312,-0.318176,-0.284992,15.67125,16.555,-25.33125,-21.312,-7.296001,-12.392,eccentric,3,3.0,46712.0,199220.0,104323.0,202752.0,116648.0
2026-04-14 17:15:10.110541,165699,1609504403846788,2003816666,1.09312,-0.318176,-0.284992,24.85,15.61,-28.5425,-21.312,-7.296001,-12.392,eccentric,3,3.0,46712.0,199220.0,104323.0,202752.0,116648.0
2026-04-14 17:15:10.176783,165710,1609504403861255,2003831454,1.05408,-0.140544,-0.150304,27.9825,13.58875,-29.225,-21.304,-7.336,-13.76,eccentric,3,3.0,51477.0,215485.0,112424.0,218381.0,124951.0
2026-04-14 17:15:10.179260,165711,1609504403870176,2003840177,1.05408,-0.140544,-0.150304,15.35625,10.823751,-29.8725,-21.304,-7.336,-13.76,eccentric,3,3.0,51477.0,215485.0,112424.0,218381.0,124951.0
2026-04-14 17:15:10.181831,165712,1609504403879156,2003848902,1.143872,-0.25376,-0.099552,3.12375,7.4375,-26.005,-22.136002,-7.304,-13.448001,eccentric,3,3.0,51477.0,215485.0,112424.0,218381.0,124951.0
2026-04-14 17:15:10.184169,165713,1609504403893659,2003863763,1.143872,-0.25376,-0.099552,-3.63125,5.25,-21.595,-22.136002,-7.304,-13.448001,eccentric,3,3.0,51477.0,215485.0,112424.0,218381.0,124951.0
2026-04-14 17:15:10.186715,165714,1609504403902585,2003872463,1.081408,-0.228384,0.001952,-0.2275,3.815,-19.46875,-21.136002,-7.488,-13.312,eccentric,3,3.0,51477.0,215485.0,112424.0,218381.0,124951.0
2026-04-14 17:15:10.189256,165715,1609504403917074,2003887344,1.036512,-0.181536,-0.171776,5.78375,2.87875,-18.41875,-21.152,-7.536,-14.224001,eccentric,3,3.0,51477.0,215485.0,112424.0,218381.0,124951.0
2026-04-14 17:15:10.191808,165716,1609504403926029,2003896064,1.036512,-0.181536,-0.171776,5.425,1.5925,-16.37125,-21.152,-7.536,-14.224001,eccentric,3,3.0,51477.0,215485.0,112424.0,218381.0,124951.0
2026-04-14 17:15:10.202938,165717,1609504403940508,2003908914,0.948672,-0.148352,-0.267424,0.1575,-0.245,-13.5275,-20.976002,-7.816001,-13.544001,eccentric,3,3.0,51477.0,215485.0,112424.0,218381.0,124951.0
2026-04-14 17:15:10.214343,165718,1609504403949766,2003919676,0.948672,-0.148352,-0.267424,-5.39,-1.23375,-10.75375,-20.976002,-7.816001,-13.544001,eccentric,3,3.0,51477.0,215485.0,112424.0,218381.0,124951.0
2026-04-14 17:15:10.221864,165719,1609504403958682,2003928360,1.030656,-0.148352,-0.031232,-8.04125,-3.7625,-10.01875,-21.04,-7.952,-12.704,eccentric,3,3.0,51477.0,215485.0,112424.0,218381.0,124951.0
2026-04-14 17:15:10.252750,165730,1609504403973258,2003943276,1.030656,-0.148352,-0.031232,-6.0025,-4.83875,-6.2825,-21.04,-7.952,-12.704,eccentric,3,3.0,57479.0,237848.0,121792.0,237590.0,134038.0
2026-04-14 17:15:10.255756,165731,1609504403982266,2003951987,0.890112,-0.081984,-0.167872,-8.35625,-5.6175,-5.83625,-22.648,-6.960001,-12.528001,eccentric,3,3.0,57479.0,237848.0,121792.0,237590.0,134038.0
2026-04-14 17:15:10.261637,165732,1609504403996757,2003966898,0.890112,-0.181536,-0.15616,-14.06125,-6.72875,-6.57125,-22.648,-6.960001,-12.528001,eccentric,3,3.0,57479.0,237848.0,121792.0,237590.0,134038.0
2026-04-14 17:15:10.269434,165733,1609504404005741,2003975594,0.876448,-0.181536,-0.15616,-15.98625,-6.44,-3.36,-21.656,-7.256001,-12.280001,eccentric,3,3.0,57479.0,237848.0,121792.0,237590.0,134038.0
2026-04-14 17:15:10.278041,165734,1609504404014832,2003984276,0.876448,-0.181536,-0.15616,-13.3875,-7.51625,0.16625,-21.656,-7.256001,-12.280001,eccentric,3,3.0,57479.0,237848.0,121792.0,237590.0,134038.0
2026-04-14 17:15:10.294644,165735,1609504404029305,2003999137,0.993568,-0.189344,-0.17568,-9.555,-8.505,1.225,-20.736,-7.512001,-13.792001,eccentric,3,3.0,57479.0,237848.0,121792.0,237590.0,134038.0
2026-04-14 17:15:10.300895,165736,1609504404038261,2004007838,0.905728,-0.099552,-0.121024,-9.275,-8.96875,1.8375,-20.872002,-7.520001,-12.296001,eccentric,3,3.0,57479.0,237848.0,121792.0,237590.0,134038.0
2026-04-14 17:15:10.315866,165737,1609504404052736,2004022737,0.905728,-0.099552,-0.121024,-13.06375,-8.53125,1.95125,-20.872002,-7.520001,-12.296001,eccentric,3,3.0,57479.0,237848.0,121792.0,237590.0,134038.0
2026-04-14 17:15:10.327444,165738,1609504404061646,2004031430,0.94672,-0.193248,-0.242048,-17.78875,-8.77625,3.185,-20.888,-8.304001,-13.56,eccentric,3,3.0,57479.0,237848.0,121792.0,237590.0,134038.0
2026-04-14 17:15:10.354202,165749,1609504404076244,2004046369,0.94672,-0.193248,-0.242048,-20.18625,-9.2575,4.64625,-20.888,-8.304001,-13.56,eccentric,3,3.0,60677.0,240362.0,126916.0,240030.0,139271.0
2026-04-14 17:15:10.356573,165750,1609504404085363,2004055068,1.067744,-0.216672,-0.111264,-22.61,-10.5175,5.39,-22.024,-7.808001,-12.536,eccentric,3,3.0,60677.0,240362.0,126916.0,240030.0,139271.0
2026-04-14 17:15:10.361985,165751,1609504404094462,2004063864,1.067744,-0.216672,-0.111264,-24.395,-13.16875,7.035,-22.024,-7.808001,-12.536,eccentric,3,3.0,60677.0,240362.0,126916.0,240030.0,139271.0
2026-04-14 17:15:10.371712,165752,1609504404108991,2004078821,1.095072,-0.244,-0.054656,-23.9225,-15.68875,10.31625,-21.704,-7.84,-12.368001,eccentric,3,3.0,60677.0,240362.0,126916.0,240030.0,139271.0
2026-04-14 17:15:10.398382,165753,1609504404117915,2004087511,1.0248,-0.236192,-0.325984,-22.015,-17.255,11.96125,-21.704,-8.152,-12.576,eccentric,3,3.0,60677.0,240362.0,126916.0,240030.0,139271.0
2026-04-14 17:15:10.401122,165754,1609504404132365,2004102399,1.0248,-0.236192,-0.325984,-20.055,-18.8125,13.72,-20.992,-8.152,-12.576,eccentric,3,3.0,60677.0,240362.0,126916.0,240030.0,139271.0
2026-04-14 17:15:10.427961,165755,1609504404141267,2004111057,0.968192,-0.251808,-0.247904,-19.69625,-19.97625,16.03875,-21.080002,-8.344001,-13.584001,eccentric,3,3.0,60677.0,240362.0,126916.0,240030.0,139271.0
2026-04-14 17:15:10.452937,165756,1609504404155740,2004125894,0.968192,-0.251808,-0.247904,-17.535,-20.9825,18.05125,-21.080002,-8.344001,-13.584001,eccentric,3,3.0,60677.0,240362.0,126916.0,240030.0,139271.0
2026-04-14 17:15:10.485959,165767,1609504404164702,2004135084,1.001376,-0.25376,-0.298656,-13.93,-21.8225,19.88,-20.752,-8.024,-14.920001,eccentric,3,3.0,63078.0,239232.0,130869.0,238570.0,143350.0
2026-04-14 17:15:10.488396,165768,1609504404173739,2004143806,1.001376,-0.25376,-0.298656,-11.75125,-22.58375,21.84,-20.752,-8.024,-14.920001,eccentric,3,3.0,63078.0,239232.0,130869.0,238570.0,143350.0
2026-04-14 17:15:10.490396,165769,1609504404188213,2004156641,1.08336,-0.294752,-0.244,-9.1875,-22.47,24.710001,-21.072,-7.848001,-13.944,eccentric,3,3.0,63078.0,239232.0,130869.0,238570.0,143350.0
2026-04-14 17:15:10.493405,165770,1609504404197435,2004167351,1.08336,-0.294752,-0.244,-2.47625,-23.84375,25.45375,-21.072,-7.848001,-13.944,eccentric,3,3.0,63078.0,239232.0,130869.0,238570.0,143350.0
2026-04-14 17:15:10.495908,165771,1609504404211989,2004182329,0.981856,-0.244,-0.193248,3.36875,-25.7775,24.5875,-20.640001,-7.952,-13.76,eccentric,3,3.0,63078.0,239232.0,130869.0,238570.0,143350.0
2026-04-14 17:15:10.497828,165772,1609504404220976,2004191064,0.960384,-0.210816,-0.23424,6.09,-26.775,25.90875,-20.952002,-8.224,-13.312,eccentric,3,3.0,63078.0,239232.0,130869.0,238570.0,143350.0
2026-04-14 17:15:10.500241,165773,1609504404229929,2004199733,0.960384,-0.210816,-0.23424,3.2375,-27.41375,28.18375,-20.952002,-8.224,-13.312,eccentric,3,3.0,63078.0,239232.0,130869.0,238570.0,143350.0
2026-04-14 17:15:10.507804,165774,1609504404244459,2004214725,1.097024,-0.271328,-0.124928,-5.55625,-28.32375,27.16,-21.528002,-7.76,-13.160001,eccentric,3,3.0,63078.0,239232.0,130869.0,238570.0,143350.0
2026-04-14 17:15:10.520302,165775,1609504404253404,2004223416,1.097024,-0.271328,-0.124928,-14.02625,-28.76125,29.26875,-21.528002,-7.76,-13.160001,eccentric,3,3.0,63078.0,239232.0,130869.0,238570.0,143350.0
2026-04-14 17:15:10.554189,165786,1609504404268496,2004238292,1.003328,-0.318176,-0.210816,-14.525,-28.39375,28.77875,-21.44,-7.488,-14.536,eccentric,3,3.0,52593.0,209188.0,114423.0,212623.0,126285.0
2026-04-14 17:15:10.557086,165787,1609504404277493,2004247108,1.003328,-0.318176,-0.210816,-9.0825,-28.18375,27.1425,-21.44,-7.488,-14.536,eccentric,3,3.0,52593.0,209188.0,114423.0,212623.0,126285.0
2026-04-14 17:15:10.559567,165788,1609504404286465,2004255811,0.942816,-0.238144,-0.314272,-3.535,-27.15125,27.02875,-20.736,-7.848001,-13.128,eccentric,3,3.0,52593.0,209188.0,114423.0,212623.0,126285.0
2026-04-14 17:15:10.565834,165789,1609504404300990,2004270738,1.069696,-0.208864,-0.15616,-2.68625,-28.35875,26.705,-20.544,-8.144,-15.008,eccentric,3,3.0,52593.0,209188.0,114423.0,212623.0,126285.0
2026-04-14 17:15:10.573400,165790,1609504404309901,2004279404,1.069696,-0.208864,-0.15616,-9.28375,-29.60125,24.77125,-20.544,-8.144,-15.008,eccentric,3,3.0,52593.0,209188.0,114423.0,212623.0,126285.0
2026-04-14 17:15:10.586701,165791,1609504404324375,2004294329,1.069696,-0.324032,-0.271328,-16.54625,-31.01875,22.04125,-20.592001,-7.72,-13.728001,eccentric,3,3.0,52593.0,209188.0,114423.0,212623.0,126285.0
2026-04-14 17:15:10.596607,165792,1609504404333315,2004303010,1.069696,-0.324032,-0.271328,-23.65125,-32.025,17.5525,-20.592001,-7.72,-13.728001,eccentric,3,3.0,52593.0,209188.0,114423.0,212623.0,126285.0
2026-04-14 17:15:10.612471,165793,1609504404347815,2004317899,1.059936,-0.32208,-0.376736,-26.94125,-31.4475,13.335,-20.856,-7.744,-14.52,eccentric,3,3.0,52593.0,209188.0,114423.0,212623.0,126285.0
2026-04-14 17:15:10.620367,165794,1609504404356846,2004326661,1.059936,-0.32208,-0.376736,-25.92625,-30.415,13.64125,-20.856,-7.744,-14.52,eccentric,3,3.0,52593.0,209188.0,114423.0,212623.0,126285.0
2026-04-14 17:15:10.652948,165805,1609504404365791,2004335447,0.98576,-0.343552,-0.275232,-19.5825,-28.62125,17.57,-20.792002,-8.696,-14.784,eccentric,3,3.0,47162.0,195540.0,104715.0,198969.0,115972.0
2026-04-14 17:15:10.655550,165806,1609504404380392,2004350467,0.954528,-0.304512,-0.357216,-14.02625,-26.95875,15.25125,-21.208,-8.52,-12.872001,eccentric,3,3.0,47162.0,195540.0,104715.0,198969.0,115972.0
2026-04-14 17:15:10.658083,165807,1609504404389287,2004359145,0.954528,-0.304512,-0.357216,-7.56,-28.44625,13.78125,-21.208,-8.52,-12.872001,eccentric,3,3.0,47162.0,195540.0,104715.0,198969.0,115972.0
2026-04-14 17:15:10.668423,165808,1609504404403790,2004374036,1.018944,-0.300608,-0.482144,-2.9575,-29.4175,14.096251,-20.744001,-8.704,-14.184001,eccentric,3,3.0,47162.0,195540.0,104715.0,198969.0,115972.0
2026-04-14 17:15:10.677381,165809,1609504404412730,2004382713,1.018944,-0.300608,-0.482144,-0.60375,-29.00625,10.823751,-20.744001,-8.704,-14.184001,eccentric,3,3.0,47162.0,195540.0,104715.0,198969.0,115972.0
2026-04-14 17:15:10.690935,165810,1609504404427300,2004397633,1.032608,-0.244,-0.230336,-3.57,-25.20875,5.03125,-19.960001,-8.808001,-11.936001,eccentric,3,3.0,47162.0,195540.0,104715.0,198969.0,115972.0
2026-04-14 17:15:10.700926,165811,1609504404436255,2004406313,1.032608,-0.244,-0.230336,-6.76375,-22.12,0.91,-19.960001,-8.808001,-11.936001,eccentric,3,3.0,47162.0,195540.0,104715.0,198969.0,115972.0
2026-04-14 17:15:10.709651,165812,1609504404445240,2004414989,0.880352,-0.265472,-0.31232,-10.3425,-21.4025,-0.48125,-20.720001,-9.080001,-14.400001,eccentric,3,3.0,47162.0,195540.0,104715.0,198969.0,115972.0
2026-04-14 17:15:10.724491,165813,1609504404459714,2004429861,0.880352,-0.31232,-0.15616,-11.68125,-22.05875,-2.19625,-20.720001,-9.080001,-14.400001,eccentric,3,3.0,47162.0,195540.0,104715.0,198969.0,115972.0
2026-04-14 17:15:10.832675,165824,1609504404469182,2004438834,0.989664,-0.298656,-0.15616,-6.4575,-22.365,-3.17625,-20.232,-9.96,-16.088001,concentric,3,3.0,45543.0,191269.0,101840.0,194988.0,113253.0
2026-04-14 17:15:10.834727,165825,1609504404483718,2004453750,0.987712,-0.279136,-0.35136,-2.80875,-20.965,-4.9175,-20.080002,-9.72,-14.224001,concentric,3,3.0,45543.0,191269.0,101840.0,194988.0,113253.0
2026-04-14 17:15:10.836631,165826,1609504404492607,2004462409,0.987712,-0.279136,-0.35136,-1.32125,-17.94625,-5.90625,-20.080002,-9.72,-14.224001,concentric,3,3.0,45543.0,191269.0,101840.0,194988.0,113253.0
2026-04-14 17:15:10.839641,165827,1609504404501506,2004471064,0.960384,-0.261568,-0.277184,-4.31375,-14.175,-7.77875,-20.312,-9.984,-13.960001,concentric,3,3.0,45543.0,191269.0,101840.0,194988.0,113253.0
2026-04-14 17:15:10.841943,165828,1609504404515995,2004485968,0.960384,-0.261568,-0.277184,-7.9625,-9.93125,-8.995,-20.312,-9.984,-13.960001,concentric,3,3.0,45543.0,191269.0,101840.0,194988.0,113253.0
2026-04-14 17:15:10.844634,165829,1609504404524914,2004494664,0.909632,-0.290848,-0.2928,-11.261251,-8.26,-11.0075,-19.944,-10.192,-13.440001,concentric,3,3.0,45543.0,191269.0,101840.0,194988.0,113253.0
2026-04-14 17:15:10.847167,165830,1609504404539388,2004509528,0.909632,-0.290848,-0.2928,-11.9875,-7.88375,-11.7425,-19.944,-10.192,-13.440001,concentric,3,3.0,45543.0,191269.0,101840.0,194988.0,113253.0
2026-04-14 17:15:10.849629,165831,1609504404548298,2004518212,0.85888,-0.277184,-0.349408,-9.93125,-6.1075,-10.91125,-20.504002,-10.512,-12.776001,concentric,3,3.0,45543.0,191269.0,101840.0,194988.0,113253.0
2026-04-14 17:15:10.852225,165832,1609504404562819,2004533203,0.866688,-0.203008,-0.212768,-2.1875,-1.79375,-11.55,-20.624,-10.912001,-14.320001,concentric,3,3.0,45543.0,191269.0,101840.0,194988.0,113253.0
2026-04-14 17:15:10.879647,165843,1609504404571820,2004541882,0.866688,-0.203008,-0.212768,2.54625,2.79125,-14.4725,-20.624,-10.912001,-14.320001,concentric,3,3.0,46971.0,196309.0,104205.0,199920.0,115888.0
2026-04-14 17:15:10.890289,165844,1609504404580826,2004550594,0.833504,-0.216672,-0.423584,3.00125,5.8625,-16.98375,-20.624,-10.912001,-14.464001,concentric,3,3.0,46971.0,196309.0,104205.0,199920.0,115888.0
2026-04-14 17:15:10.890861,165845,1609504404595312,2004565484,0.833504,-0.216672,-0.423584,-1.225,7.84,-17.91125,-19.880001,-11.832001,-14.464001,concentric,3,3.0,46971.0,196309.0,104205.0,199920.0,115888.0
2026-04-14 17:15:10.891715,165846,1609504404604391,2004574187,0.794464,-0.261568,-0.261568,-7.455,7.665,-19.6875,-20.016,-12.072001,-14.536,concentric,3,3.0,46971.0,196309.0,104205.0,199920.0,115888.0
2026-04-14 17:15:10.894146,165847,1609504404618934,2004589169,0.794464,-0.261568,-0.261568,-5.64375,8.25125,-19.01375,-20.016,-12.072001,-14.536,concentric,3,3.0,46971.0,196309.0,104205.0,199920.0,115888.0
2026-04-14 17:15:10.898018,165848,1609504404627868,2004597868,0.782752,-0.279136,-0.197152,2.8175,10.00125,-18.5325,-19.528002,-12.064,-13.784,concentric,3,3.0,46971.0,196309.0,104205.0,199920.0,115888.0
2026-04-14 17:15:10.904024,165849,1609504404642358,2004610807,0.8296,-0.154208,-0.228384,13.76375,13.41375,-18.89125,-19.568,-12.704,-15.728001,concentric,3,3.0,46971.0,196309.0,104205.0,199920.0,115888.0
2026-04-14 17:15:10.915305,165850,1609504404651626,2004621542,0.8296,-0.154208,-0.228384,18.05125,16.2925,-21.46375,-19.568,-12.704,-15.728001,concentric,3,3.0,46971.0,196309.0,104205.0,199920.0,115888.0
2026-04-14 17:15:10.922922,165851,1609504404660554,2004630296,0.8296,-0.154208,-0.228384,9.19625,16.835001,-22.60125,-19.568,-12.704,-15.728001,concentric,3,3.0,46971.0,196309.0,104205.0,199920.0,115888.0
2026-04-14 17:15:10.953025,165862,1609504404675110,2004645295,0.765184,-0.210816,-0.13664,-2.52,18.15625,-22.68875,-19.464,-13.256001,-15.52,concentric,3,3.0,52117.0,219489.0,112607.0,221587.0,124192.0
2026-04-14 17:15:10.955243,165863,1609504404684082,2004653991,0.788608,-0.286944,-0.167872,-6.4225,20.53625,-24.815,-19.568,-13.400001,-14.208001,concentric,3,3.0,52117.0,219489.0,112607.0,221587.0,124192.0
2026-04-14 17:15:10.963287,165864,1609504404698699,2004668875,0.788608,-0.286944,-0.167872,-4.24375,23.7825,-30.485,-19.568,-13.400001,-14.208001,concentric,3,3.0,52117.0,219489.0,112607.0,221587.0,124192.0
2026-04-14 17:15:10.975542,165865,1609504404707647,2004677618,0.743712,-0.099552,-0.130784,3.57,26.67,-31.07125,-18.592001,-14.488001,-14.528001,concentric,3,3.0,52117.0,219489.0,112607.0,221587.0,124192.0
2026-04-14 17:15:10.979313,165866,1609504404716578,2004686311,0.743712,-0.099552,-0.130784,6.8775,29.11125,-29.40875,-18.592001,-14.488001,-14.528001,concentric,3,3.0,52117.0,219489.0,112607.0,221587.0,124192.0
2026-04-14 17:15:10.997759,165867,1609504404731055,2004701192,0.796416,-0.181536,-0.261568,5.27625,28.7875,-39.83,-19.096,-14.208001,-13.864,concentric,3,3.0,52117.0,219489.0,112607.0,221587.0,124192.0
2026-04-14 17:15:11.005446,165868,1609504404739967,2004709877,0.796416,-0.181536,-0.261568,-1.995,28.4375,-48.55375,-19.096,-14.208001,-13.864,concentric,3,3.0,52117.0,219489.0,112607.0,221587.0,124192.0
2026-04-14 17:15:11.019160,165869,1609504404754438,2004724763,0.856928,-0.249856,-0.093696,-3.85875,24.8675,-45.1325,-19.096,-14.856001,-15.544001,concentric,3,3.0,52117.0,219489.0,112607.0,221587.0,124192.0
2026-04-14 17:15:11.026768,165870,1609504404763378,2004733495,0.687104,-0.210816,-0.308416,1.26,26.31125,-37.3275,-18.664001,-15.440001,-14.832001,concentric,3,3.0,52117.0,219489.0,112607.0,221587.0,124192.0
2026-04-14 17:15:11.055478,165881,1609504404777998,2004746678,0.687104,-0.210816,-0.308416,4.55,27.78125,-37.98375,-18.664001,-15.440001,-14.832001,concentric,3,3.0,58402.0,254344.0,123025.0,251901.0,134319.0
2026-04-14 17:15:11.060571,165882,1609504404787333,2004757468,0.85888,-0.23424,-0.247904,2.2925,29.9775,-37.28375,-19.216002,-15.840001,-13.856001,concentric,3,3.0,58402.0,254344.0,123025.0,251901.0,134319.0
2026-04-14 17:15:11.063097,165883,1609504404796283,2004766147,0.85888,-0.23424,-0.247904,-3.82375,32.3925,-38.00125,-19.216002,-15.840001,-13.856001,concentric,3,3.0,58402.0,254344.0,123025.0,251901.0,134319.0
2026-04-14 17:15:11.071830,165884,1609504404810784,2004779152,0.80032,-0.1952,-0.03904,-0.945,36.645,-36.61,-19.184,-16.12,-13.192,concentric,3,3.0,58402.0,254344.0,123025.0,251901.0,134319.0
2026-04-14 17:15:11.083136,165885,1609504404819965,2004789895,0.80032,-0.1952,-0.03904,1.0675,37.765,-41.335,-19.184,-16.12,-13.192,concentric,3,3.0,58402.0,254344.0,123025.0,251901.0,134319.0
2026-04-14 17:15:11.098930,165886,1609504404834413,2004802766,0.675392,-0.103456,-0.25376,0.25375,37.0125,-39.576252,-18.192001,-16.68,-13.984,concentric,3,3.0,58402.0,254344.0,123025.0,251901.0,134319.0
2026-04-14 17:15:11.138032,165887,1609504404843567,2004813491,0.81984,-0.150304,-0.220576,-5.775,35.55125,-36.015,-18.984001,-16.544,-14.168,concentric,3,3.0,58402.0,254344.0,123025.0,251901.0,134319.0
2026-04-14 17:15:11.160892,165888,1609504404852468,2004822198,0.81984,-0.150304,-0.220576,-16.3275,33.97625,-34.1775,-18.984001,-16.544,-14.168,concentric,3,3.0,58402.0,254344.0,123025.0,251901.0,134319.0
2026-04-14 17:15:11.190099,165899,1609504404866912,2004837039,0.691008,-0.011712,-0.0488,-22.32125,33.8275,-32.5325,-18.064001,-17.44,-13.528001,concentric,3,3.0,60487.0,278311.0,125875.0,270384.0,136256.0
2026-04-14 17:15:11.190494,165900,1609504404875808,2004845742,0.691008,-0.011712,-0.0488,-12.075,35.77875,-34.25625,-18.064001,-17.44,-13.528001,concentric,3,3.0,60487.0,278311.0,125875.0,270384.0,136256.0
2026-04-14 17:15:11.192864,165901,1609504404890412,2004860669,0.767136,-0.115168,-0.160064,-7.51625,37.26625,-43.33875,-17.976002,-17.872002,-13.104001,concentric,3,3.0,60487.0,278311.0,125875.0,270384.0,136256.0
2026-04-14 17:15:11.197215,165902,1609504404899372,2004869331,0.767136,-0.115168,-0.160064,-13.475,38.29,-45.38625,-17.976002,-17.872002,-13.104001,concentric,3,3.0,60487.0,278311.0,125875.0,270384.0,136256.0
2026-04-14 17:15:11.198966,165903,1609504404913882,2004884227,0.79056,-0.203008,-0.284992,-20.9125,36.82,-37.96625,-18.128,-18.288,-13.160001,concentric,3,3.0,60487.0,278311.0,125875.0,270384.0,136256.0
2026-04-14 17:15:11.200443,165904,1609504404922899,2004892901,0.71248,-0.050752,0.054656,-27.4225,35.7525,-32.9175,-18.128,-18.288,-16.352001,concentric,3,3.0,60487.0,278311.0,125875.0,270384.0,136256.0
2026-04-14 17:15:11.202734,165905,1609504404931821,2004901591,0.704672,-0.050752,0.054656,-20.20375,35.56875,-28.23625,-17.576,-18.576,-16.352001,concentric,3,3.0,60487.0,278311.0,125875.0,270384.0,136256.0
2026-04-14 17:15:11.213247,165906,1609504404946349,2004916537,0.66368,-0.054656,-0.111264,-9.1525,36.75875,-32.13,-17.560001,-18.848001,-12.472,concentric,3,3.0,60487.0,278311.0,125875.0,270384.0,136256.0
2026-04-14 17:15:11.219391,165907,1609504404955324,2004925281,0.66368,-0.054656,-0.111264,-3.71875,36.12875,-35.62125,-17.560001,-18.848001,-12.472,concentric,3,3.0,60487.0,278311.0,125875.0,270384.0,136256.0
2026-04-14 17:15:11.255468,165918,1609504404970092,2004940189,0.550464,-0.06832,-0.269376,-2.03875,34.08125,-31.98125,-18.344002,-18.640001,-11.56,concentric,3,3.0,65799.0,293798.0,133682.0,280540.0,144461.0
2026-04-14 17:15:11.258056,165919,1609504404979188,2004949035,0.550464,-0.06832,-0.269376,-4.27,29.286251,-25.4625,-18.344002,-18.640001,-11.56,concentric,3,3.0,65799.0,293798.0,133682.0,280540.0,144461.0
2026-04-14 17:15:11.260931,165920,1609504404988201,2004957754,0.646112,-0.05856,-0.111264,-7.51625,25.17375,-20.01125,-17.528002,-19.096,-11.960001,concentric,3,3.0,65799.0,293798.0,133682.0,280540.0,144461.0
2026-04-14 17:15:11.267163,165921,1609504405002820,2004972669,0.646112,-0.05856,-0.111264,-8.95125,22.42625,-15.75,-17.528002,-19.096,-11.960001,concentric,3,3.0,65799.0,293798.0,133682.0,280540.0,144461.0
2026-04-14 17:15:11.278238,165922,1609504405011747,2004981389,0.669536,-0.044896,0.070272,-9.30125,23.82625,-14.533751,-17.552,-18.936,-12.832001,concentric,3,3.0,65799.0,293798.0,133682.0,280540.0,144461.0
2026-04-14 17:15:11.290892,165923,1609504405026224,2004996288,0.655872,-0.03904,-0.169824,-9.66,26.67,-14.28875,-18.08,-19.240002,-11.048,concentric,3,3.0,65799.0,293798.0,133682.0,280540.0,144461.0
2026-04-14 17:15:11.298438,165924,1609504405035157,2005004977,0.655872,-0.03904,-0.169824,-5.59125,27.58875,-16.3625,-18.08,-19.240002,-11.048,concentric,3,3.0,65799.0,293798.0,133682.0,280540.0,144461.0
2026-04-14 17:15:11.315850,165925,1609504405049619,2005019866,0.710528,-0.054656,-0.333792,-2.31,25.445,-18.305,-18.04,-19.464,-12.048,concentric,3,3.0,65799.0,293798.0,133682.0,280540.0,144461.0
2026-04-14 17:15:11.322954,165926,1609504405058557,2005028572,0.710528,-0.054656,-0.333792,0.41125,17.64875,-14.21875,-18.04,-19.464,-12.048,concentric,3,3.0,65799.0,293798.0,133682.0,280540.0,144461.0
2026-04-14 17:15:11.333423,165927,1609504405067549,2005037272,0.778848,-0.119072,-0.335744,-1.4875,10.05375,-10.78,-17.6,-19.432001,-11.64,concentric,3,3.0,65799.0,293798.0,133682.0,280540.0,144461.0
2026-04-14 17:15:11.360907,165938,1609504405082078,2005052256,0.778848,-0.119072,-0.335744,-12.7225,6.34375,-7.035,-17.6,-19.432001,-11.64,concentric,3,3.0,67844.0,299292.0,136451.0,284519.0,147738.0
2026-04-14 17:15:11.363404,165939,1609504405091041,2005061040,0.88816,-0.138592,-0.066368,-16.56375,7.105,-1.77625,-18.28,-19.344002,-9.744,concentric,3,3.0,67844.0,299292.0,136451.0,284519.0,147738.0
2026-04-14 17:15:11.372351,165940,1609504405105604,2005075949,0.903776,-0.072224,-0.080032,-3.75375,8.7325,-1.51375,-18.416,-19.304,-11.432,concentric,3,3.0,67844.0,299292.0,136451.0,284519.0,147738.0
2026-04-14 17:15:11.382554,165941,1609504405114509,2005084617,0.903776,-0.072224,-0.080032,4.59375,10.29875,-5.32875,-18.416,-19.304,-11.432,concentric,3,3.0,67844.0,299292.0,136451.0,284519.0,147738.0
2026-04-14 17:15:11.391970,165942,1609504405129012,2005097474,0.91744,-0.095648,-0.122976,3.78875,11.20875,-5.95875,-18.256,-19.608002,-11.712001,concentric,3,3.0,67844.0,299292.0,136451.0,284519.0,147738.0
2026-04-14 17:15:11.402837,165943,1609504405138335,2005108249,0.91744,-0.095648,-0.122976,7.8575,8.67125,-3.6225,-18.256,-19.608002,-11.712001,concentric,3,3.0,67844.0,299292.0,136451.0,284519.0,147738.0
2026-04-14 17:15:11.410797,165944,1609504405147258,2005116922,0.890112,-0.06832,0.023424,6.92125,5.1275,-2.10875,-17.76,-19.552,-11.480001,concentric,3,3.0,67844.0,299292.0,136451.0,284519.0,147738.0
2026-04-14 17:15:11.448377,165945,1609504405161744,2005131818,0.890112,-0.06832,0.023424,-3.465,3.815,2.4675,-17.76,-19.552,-11.480001,concentric,3,3.0,67844.0,299292.0,136451.0,284519.0,147738.0
2026-04-14 17:15:11.498236,165956,1609504405171167,2005140796,0.806176,-0.056608,-0.158112,-8.4525,3.07125,4.48875,-17.888,-19.904001,-11.584001,concentric,3,3.0,69975.0,303740.0,139660.0,287967.0,151261.0
2026-04-14 17:15:11.523332,165957,1609504405185727,2005155737,0.915488,-0.062464,-0.12688,-3.19375,0.49,4.76,-18.544,-19.128,-8.688001,concentric,3,3.0,69975.0,303740.0,139660.0,287967.0,151261.0
2026-04-14 17:15:11.525354,165958,1609504405194663,2005164439,0.915488,-0.062464,-0.12688,0.49,-2.10875,4.83,-18.544,-19.128,-8.688001,concentric,3,3.0,69975.0,303740.0,139660.0,287967.0,151261.0
2026-04-14 17:15:11.530892,165959,1609504405203589,2005173128,0.915488,-0.062464,-0.12688,0.455,-3.5,2.9225,-18.544,-19.128,-8.688001,concentric,3,3.0,69975.0,303740.0,139660.0,287967.0,151261.0
2026-04-14 17:15:11.533418,165960,1609504405218094,2005188026,0.960384,-0.070272,0.111264,-1.96875,-3.12375,1.93375,-18.576,-19.448002,-8.336,concentric,3,3.0,69975.0,303740.0,139660.0,287967.0,151261.0
2026-04-14 17:15:11.535507,165961,1609504405227010,2005196673,0.899872,-0.025376,-0.169824,-2.73,1.91625,1.68,-18.240002,-19.256,-11.608001,concentric,3,3.0,69975.0,303740.0,139660.0,287967.0,151261.0
2026-04-14 17:15:11.538393,165962,1609504405241490,2005211566,0.899872,-0.025376,-0.169824,-4.305,8.09375,-3.87625,-18.240002,-19.256,-11.608001,concentric,3,3.0,69975.0,303740.0,139660.0,287967.0,151261.0
2026-04-14 17:15:11.540863,165963,1609504405250542,2005220259,0.899872,-0.07808,-0.080032,-5.17125,10.92875,-6.0375,-17.36,-19.552,-11.440001,concentric,3,3.0,69975.0,303740.0,139660.0,287967.0,151261.0
2026-04-14 17:15:11.543395,165964,1609504405265013,2005235204,0.899872,-0.072224,0.005856,2.24875,9.4675,-6.97375,-17.36,-19.552,-11.440001,concentric,3,3.0,69975.0,303740.0,139660.0,287967.0,151261.0
2026-04-14 17:15:11.570354,165975,1609504405274416,2005243983,0.99552,-0.072224,0.005856,7.175,5.8275,-6.72875,-17.480001,-19.720001,-10.656,concentric,3,3.0,71685.0,305172.0,142261.0,289047.0,153981.0
2026-04-14 17:15:11.572827,165976,1609504405283414,2005252727,0.99552,-0.072224,0.005856,3.92,3.29875,-4.19125,-17.480001,-19.720001,-10.656,concentric,3,3.0,71685.0,305172.0,142261.0,289047.0,153981.0
2026-04-14 17:15:11.575396,165977,1609504405298043,2005267685,0.952576,-0.083936,0.070272,-4.62875,2.135,-0.77,-17.496,-19.648,-11.296001,concentric,3,3.0,71685.0,305172.0,142261.0,289047.0,153981.0
2026-04-14 17:15:11.578268,165978,1609504405306998,2005276431,0.864736,0.00976,0.015616,-8.12,1.63625,1.44375,-17.552,-19.2,-10.400001,concentric,3,3.0,71685.0,305172.0,142261.0,289047.0,153981.0
2026-04-14 17:15:11.585830,165979,1609504405321500,2005291388,0.864736,0.00976,0.015616,-6.5625,1.855,1.44375,-17.552,-19.2,-10.400001,concentric,3,3.0,71685.0,305172.0,142261.0,289047.0,153981.0
2026-04-14 17:15:11.593354,165980,1609504405330569,2005300137,0.9272,-0.093696,-0.01952,-4.76875,1.72375,-0.7,-17.872002,-19.312,-11.488001,concentric,3,3.0,71685.0,305172.0,142261.0,289047.0,153981.0
2026-04-14 17:15:11.602915,165981,1609504405339511,2005308851,0.9272,-0.093696,-0.01952,-4.62,0.70875,-2.3625,-17.872002,-19.312,-11.488001,concentric,3,3.0,71685.0,305172.0,142261.0,289047.0,153981.0
2026-04-14 17:15:11.618963,165982,1609504405353984,2005323745,0.876448,-0.076128,-0.20496,-3.045,-0.97125,-2.9925,-17.216002,-19.376001,-11.248,concentric,3,3.0,71685.0,305172.0,142261.0,289047.0,153981.0
2026-04-14 17:15:11.627622,165983,1609504405362883,2005332408,0.876448,-0.076128,-0.20496,-0.62125,-3.1325,-2.695,-17.216002,-19.376001,-11.248,concentric,3,3.0,71685.0,305172.0,142261.0,289047.0,153981.0
2026-04-14 17:15:11.662200,165995,1609504405377464,2005347358,0.880352,-0.06832,-0.154208,-3.5525,-3.5175,-1.77625,-17.536001,-19.36,-11.536,concentric,3,3.0,69967.0,302696.0,139890.0,287269.0,151505.0
2026-04-14 17:15:11.664050,165996,1609504405386445,2005356297,0.923296,-0.10736,-0.173728,-8.505,-2.3275,0.20125,-18.400002,-19.296001,-10.512,concentric,3,3.0,69967.0,302696.0,139890.0,287269.0,151505.0
2026-04-14 17:15:11.666658,165997,1609504405400981,2005371235,0.923296,-0.10736,-0.173728,-9.835,-1.5925,0.665,-18.400002,-19.296001,-10.512,concentric,3,3.0,69967.0,302696.0,139890.0,287269.0,151505.0
2026-04-14 17:15:11.674119,165998,1609504405409915,2005379921,0.884256,-0.066368,-0.128832,-6.8775,-1.54875,0.98,-18.616001,-19.216002,-10.384001,concentric,3,3.0,69967.0,302696.0,139890.0,287269.0,151505.0
2026-04-14 17:15:11.684491,165999,1609504405418857,2005388668,0.884256,-0.066368,-0.128832,-5.01375,-1.95125,1.5225,-18.616001,-19.216002,-10.384001,concentric,3,3.0,69967.0,302696.0,139890.0,287269.0,151505.0
2026-04-14 17:15:11.698292,166000,1609504405433351,2005403521,0.948672,-0.062464,0.005856,-3.9725,-3.31625,2.5375,-17.720001,-19.36,-11.712001,concentric,3,3.0,69967.0,302696.0,139890.0,287269.0,151505.0
2026-04-14 17:15:11.705854,166001,1609504405442261,2005412274,0.948672,-0.062464,0.005856,-4.55875,-4.47125,2.75625,-17.720001,-19.36,-11.712001,concentric,3,3.0,69967.0,302696.0,139890.0,287269.0,151505.0
2026-04-14 17:15:11.718395,166002,1609504405456728,2005425152,0.903776,-0.081984,-0.179584,-5.6,-5.15375,4.17375,-17.800001,-19.248001,-11.096001,concentric,3,3.0,69967.0,302696.0,139890.0,287269.0,151505.0
2026-04-14 17:15:11.729647,166003,1609504405465950,2005435905,0.903776,-0.081984,-0.11712,-5.67,-5.705,3.68375,-17.800001,-19.248001,-11.096001,concentric,3,3.0,69967.0,302696.0,139890.0,287269.0,151505.0
2026-04-14 17:15:11.757720,166014,1609504405475312,2005444658,0.90768,-0.070272,-0.113216,-4.33125,-5.4425,3.5175,-17.672,-19.304,-10.928,concentric,3,3.0,69924.0,302480.0,139913.0,287262.0,151587.0
2026-04-14 17:15:11.760737,166015,1609504405489832,2005459579,0.960384,-0.083936,0.00976,-3.12375,-5.3725,3.45625,-18.896002,-18.808,-9.6,concentric,3,3.0,69924.0,302480.0,139913.0,287262.0,151587.0
2026-04-14 17:15:11.763222,166016,1609504405498771,2005468345,0.960384,-0.083936,0.00976,-3.6925,-5.50375,3.05375,-18.896002,-18.808,-9.6,concentric,3,3.0,69924.0,302480.0,139913.0,287262.0,151587.0
2026-04-14 17:15:11.779657,166017,1609504405513264,2005483258,0.915488,-0.050752,0.042944,-2.66875,-5.74875,2.7825,-19.448002,-18.68,-9.288,concentric,3,3.0,69924.0,302480.0,139913.0,287262.0,151587.0
2026-04-14 17:15:11.785960,166018,1609504405522183,2005491958,0.915488,-0.050752,0.042944,-0.91875,-7.00875,2.35375,-19.448002,-18.68,-9.288,concentric,3,3.0,69924.0,302480.0,139913.0,287262.0,151587.0
2026-04-14 17:15:11.802220,166019,1609504405536720,2005506847,0.86864,-0.095648,-0.15616,-1.00625,-7.83125,2.3625,-18.376001,-19.320002,-11.352,concentric,3,3.0,69924.0,302480.0,139913.0,287262.0,151587.0
2026-04-14 17:15:11.809611,166020,1609504405545654,2005515514,0.86864,-0.095648,-0.15616,-1.00625,-8.75,2.8875,-18.376001,-19.320002,-11.352,concentric,3,3.0,69924.0,302480.0,139913.0,287262.0,151587.0
2026-04-14 17:15:11.819508,166021,1609504405554588,2005524179,0.851072,-0.044896,0.027328,0.6825,-9.975,2.75625,-18.04,-19.104,-11.272,concentric,3,3.0,69924.0,302480.0,139913.0,287262.0,151587.0
2026-04-14 17:15:11.832601,166022,1609504405569157,2005539111,0.808128,-0.074176,-0.105408,1.04125,-11.4625,3.07125,-17.728,-19.112001,-11.984,concentric,3,3.0,69924.0,302480.0,139913.0,287262.0,151587.0
2026-04-14 17:15:11.904603,166033,1609504405578178,2005547826,0.808128,-0.074176,-0.105408,0.91875,-13.9125,4.305,-17.728,-19.112001,-11.984,concentric,3,3.0,70006.0,302845.0,140068.0,287815.0,151751.0
2026-04-14 17:15:11.907134,166034,1609504405592720,2005562763,0.841312,-0.121024,-0.052704,-0.49875,-16.415,3.66625,-18.064001,-18.896002,-10.528001,concentric,3,3.0,70006.0,302845.0,140068.0,287815.0,151751.0
2026-04-14 17:15:11.909642,166035,1609504405601666,2005571481,0.841312,-0.121024,-0.052704,-0.65625,-18.20875,4.8125,-18.064001,-18.896002,-10.528001,concentric,3,3.0,70006.0,302845.0,140068.0,287815.0,151751.0
2026-04-14 17:15:11.912155,166036,1609504405616140,2005586366,0.774944,-0.081984,-0.017568,1.30375,-19.4075,5.24125,-18.544,-18.728,-10.968,concentric,3,3.0,70006.0,302845.0,140068.0,287815.0,151751.0
2026-04-14 17:15:11.914233,166037,1609504405625101,2005595036,0.774944,-0.081984,-0.017568,3.59625,-20.685,4.935,-18.544,-18.728,-10.968,concentric,3,3.0,70006.0,302845.0,140068.0,287815.0,151751.0
2026-04-14 17:15:11.916736,166038,1609504405634024,2005603728,0.698816,-0.122976,-0.218624,3.94625,-21.44625,6.93,-18.784,-18.496,-11.320001,concentric,3,3.0,70006.0,302845.0,140068.0,287815.0,151751.0
2026-04-14 17:15:11.919538,166039,1609504405648487,2005618627,0.708576,-0.083936,-0.06832,4.27875,-21.79625,7.9975,-18.424002,-18.432001,-10.968,concentric,3,3.0,70006.0,302845.0,140068.0,287815.0,151751.0
2026-04-14 17:15:11.922179,166040,1609504405657441,2005627358,0.708576,-0.083936,-0.06832,6.72,-23.98375,9.1175,-18.424002,-18.432001,-10.968,concentric,3,3.0,70006.0,302845.0,140068.0,287815.0,151751.0
2026-04-14 17:15:11.960485,166051,1609504405672029,2005642212,0.6832,-0.085888,-0.134688,8.33875,-26.0925,10.465,-17.808,-18.248001,-11.504001,concentric,3,3.0,68029.0,295471.0,137599.0,282919.0,149236.0
2026-04-14 17:15:11.963021,166052,1609504405681088,2005650919,0.6832,-0.085888,-0.134688,9.12625,-28.46375,11.2,-17.808,-18.248001,-11.504001,concentric,3,3.0,68029.0,295471.0,137599.0,282919.0,149236.0
2026-04-14 17:15:11.965455,166053,1609504405690126,2005659699,0.710528,-0.144448,-0.072224,4.69,-31.57,11.82125,-18.168001,-18.088001,-12.752001,concentric,3,3.0,68029.0,295471.0,137599.0,282919.0,149236.0
2026-04-14 17:15:11.968065,166054,1609504405704625,2005674611,0.710528,-0.144448,-0.072224,-3.2025,-35.11375,13.53625,-18.168001,-18.088001,-12.752001,concentric,3,3.0,68029.0,295471.0,137599.0,282919.0,149236.0
2026-04-14 17:15:11.978064,166055,1609504405713556,2005683300,0.735904,-0.132736,-0.025376,-3.955,-38.3425,18.375,-17.992,-17.632,-12.792001,concentric,3,3.0,68029.0,295471.0,137599.0,282919.0,149236.0
2026-04-14 17:15:11.991902,166056,1609504405728011,2005698205,0.735904,-0.099552,-0.10736,3.325,-38.8675,19.06625,-17.992,-17.632,-12.792001,concentric,3,3.0,68029.0,295471.0,137599.0,282919.0,149236.0
2026-04-14 17:15:12.001882,166057,1609504405736901,2005706885,0.675392,-0.099552,-0.10736,9.0475,-39.59375,17.36875,-18.072,-17.608002,-12.304001,concentric,3,3.0,68029.0,295471.0,137599.0,282919.0,149236.0
2026-04-14 17:15:12.013096,166058,1609504405751409,2005719770,0.75152,-0.072224,-0.003904,10.85875,-39.48875,21.00875,-17.656,-17.296001,-13.688001,concentric,3,3.0,68029.0,295471.0,137599.0,282919.0,149236.0
2026-04-14 17:15:12.024176,166059,1609504405760642,2005730504,0.75152,-0.072224,-0.003904,13.685,-39.80375,25.1125,-17.656,-17.296001,-13.688001,concentric,3,3.0,68029.0,295471.0,137599.0,282919.0,149236.0
2026-04-14 17:15:12.040511,166060,1609504405769608,2005739232,0.720288,-0.042944,-0.267424,14.28875,-41.982502,24.66625,-18.744001,-16.736,-13.056001,concentric,3,3.0,68029.0,295471.0,137599.0,282919.0,149236.0
2026-04-14 17:15:12.093099,166071,1609504405784226,2005752648,0.720288,-0.042944,-0.267424,10.6925,-43.86375,19.95,-18.744001,-16.736,-13.056001,concentric,3,3.0,60827.0,260645.0,127553.0,256179.0,139041.0
2026-04-14 17:15:12.095602,166072,1609504405793535,2005763471,0.700768,-0.101504,-0.269376,0.51625,-45.89375,16.51125,-18.256,-16.312,-13.088,concentric,3,3.0,60827.0,260645.0,127553.0,256179.0,139041.0
2026-04-14 17:15:12.098042,166073,1609504405808009,2005778338,0.700768,-0.101504,-0.269376,-9.00375,-47.3025,19.18,-18.256,-16.312,-13.088,concentric,3,3.0,60827.0,260645.0,127553.0,256179.0,139041.0
2026-04-14 17:15:12.100601,166074,1609504405816903,2005787033,0.66368,-0.099552,-0.201056,-18.76875,-46.935,22.02375,-18.568,-16.336,-14.616001,concentric,3,3.0,60827.0,260645.0,127553.0,256179.0,139041.0
2026-04-14 17:15:12.102960,166075,1609504405825786,2005795695,0.66368,-0.099552,-0.201056,-20.965,-47.22375,21.84,-18.568,-16.336,-14.616001,concentric,3,3.0,60827.0,260645.0,127553.0,256179.0,139041.0
2026-04-14 17:15:12.108099,166076,1609504405840407,2005810589,0.788608,-0.183488,-0.288896,-19.34625,-46.165,17.35125,-18.576,-15.920001,-13.080001,concentric,3,3.0,60827.0,260645.0,127553.0,256179.0,139041.0
2026-04-14 17:15:12.117053,166077,1609504405849340,2005819258,0.80032,-0.167872,-0.103456,-18.55,-43.96875,11.9525,-18.744001,-15.592001,-13.240001,concentric,3,3.0,60827.0,260645.0,127553.0,256179.0,139041.0
2026-04-14 17:15:12.128101,166078,1609504405863985,2005834185,0.80032,-0.167872,-0.103456,-15.96875,-41.5975,6.9825,-18.744001,-15.592001,-13.240001,concentric,3,3.0,60827.0,260645.0,127553.0,256179.0,139041.0
2026-04-14 17:15:12.164241,166089,1609504405872940,2005842840,0.704672,-0.140544,-0.386496,-13.72875,-44.1,9.8175,-18.008001,-15.488001,-13.352,concentric,3,3.0,59948.0,229816.0,126639.0,229781.0,139161.0
2026-04-14 17:15:12.166910,166090,1609504405887426,2005857758,0.704672,-0.140544,-0.386496,-10.50875,-41.06375,17.185,-18.008001,-15.488001,-13.352,concentric,3,3.0,59948.0,229816.0,126639.0,229781.0,139161.0
2026-04-14 17:15:12.169552,166091,1609504405896438,2005866485,0.776896,-0.169824,-0.376736,-12.99375,-47.0575,22.3825,-18.168001,-15.296001,-14.6,concentric,3,3.0,59948.0,229816.0,126639.0,229781.0,139161.0
2026-04-14 17:15:12.172173,166092,1609504405905375,2005875181,0.776896,-0.169824,-0.376736,-17.64,-40.6875,31.96375,-18.168001,-15.296001,-14.6,concentric,3,3.0,59948.0,229816.0,126639.0,229781.0,139161.0
2026-04-14 17:15:12.183398,166093,1609504405919860,2005890169,0.895968,-0.122976,-0.208864,-16.9575,-42.6825,25.0775,-17.528002,-14.920001,-15.104001,concentric,3,3.0,59948.0,229816.0,126639.0,229781.0,139161.0
2026-04-14 17:15:12.191756,166094,1609504405928773,2005898866,0.895968,-0.122976,-0.208864,-18.45375,-33.2675,15.74125,-17.528002,-14.920001,-15.104001,concentric,3,3.0,59948.0,229816.0,126639.0,229781.0,139161.0
2026-04-14 17:15:12.205918,166095,1609504405943251,2005911685,0.911584,-0.357216,-0.245952,-6.60625,-34.055,14.8575,-17.704,-15.000001,-14.56,concentric,3,3.0,59948.0,229816.0,126639.0,229781.0,139161.0
2026-04-14 17:15:12.244492,166096,1609504405952614,2005922396,0.794464,-0.247904,-0.310368,6.15125,-19.80125,16.03875,-19.048,-14.632001,-14.200001,concentric,3,3.0,59948.0,229816.0,126639.0,229781.0,139161.0
2026-04-14 17:15:12.247116,166097,1609504405967096,2005937285,0.794464,-0.247904,-0.310368,8.015,-24.59625,5.95875,-19.048,-14.632001,-14.200001,concentric,3,3.0,59948.0,229816.0,126639.0,229781.0,139161.0
2026-04-14 17:15:12.289365,166108,1609504405976098,2005946033,0.767136,-0.160064,-0.554368,1.365,-25.8475,11.64625,-18.224,-13.960001,-14.240001,concentric,3,3.0,50985.0,200524.0,111392.0,202813.0,123833.0
2026-04-14 17:15:12.291876,166109,1609504405985082,2005954720,0.767136,-0.160064,-0.554368,-10.745,-30.2575,19.90625,-18.224,-13.960001,-14.240001,concentric,3,3.0,50985.0,200524.0,111392.0,202813.0,123833.0
2026-04-14 17:15:12.294344,166110,1609504405999552,2005969622,0.911584,-0.226432,-0.177632,-22.58375,-32.06,20.475,-18.832,-13.968,-14.440001,concentric,3,3.0,50985.0,200524.0,111392.0,202813.0,123833.0
2026-04-14 17:15:12.296914,166111,1609504406008465,2005978308,0.911584,-0.226432,-0.177632,-24.80625,-25.38375,17.21125,-18.832,-13.968,-14.440001,concentric,3,3.0,50985.0,200524.0,111392.0,202813.0,123833.0
2026-04-14 17:15:12.303203,166112,1609504406023070,2005993265,0.870592,-0.261568,-0.21472,-22.6625,-14.2275,8.26875,-18.808,-13.344001,-14.528001,concentric,3,3.0,50985.0,200524.0,111392.0,202813.0,123833.0
2026-04-14 17:15:12.303468,166113,1609504406032037,2006001942,0.79056,-0.163968,-0.294752,-13.30875,-9.275,4.54125,-18.76,-12.712001,-14.496,concentric,3,3.0,50985.0,200524.0,111392.0,202813.0,123833.0
2026-04-14 17:15:12.303999,166114,1609504406041011,2006010708,0.79056,-0.163968,-0.294752,-2.73875,-7.27125,6.055,-18.76,-12.712001,-14.496,concentric,3,3.0,50985.0,200524.0,111392.0,202813.0,123833.0
2026-04-14 17:15:12.319252,166115,1609504406055486,2006025581,0.825696,-0.099552,-0.275232,9.79125,-12.355001,7.77,-17.896,-12.624001,-14.6,concentric,3,3.0,50985.0,200524.0,111392.0,202813.0,123833.0
2026-04-14 17:15:12.327780,166116,1609504406064395,2006034357,0.825696,-0.099552,-0.275232,17.36,-15.225,9.49375,-17.896,-12.624001,-14.6,concentric,3,3.0,50985.0,200524.0,111392.0,202813.0,123833.0
2026-04-14 17:15:12.368115,166127,1609504406078998,2006049350,0.802272,-0.144448,-0.318176,2.42375,-17.00125,1.715,-18.328001,-12.368001,-14.648001,concentric,3,3.0,47497.0,193393.0,105262.0,195232.0,118014.0
2026-04-14 17:15:12.370546,166128,1609504406088017,2006058104,0.802272,-0.144448,-0.318176,-8.49625,-15.67125,-1.58375,-18.328001,-12.368001,-14.648001,concentric,3,3.0,47497.0,193393.0,105262.0,195232.0,118014.0
2026-04-14 17:15:12.373075,166129,1609504406102549,2006071001,0.812032,-0.267424,-0.366976,-4.9175,-11.27,-2.49375,-18.032001,-12.280001,-15.528001,concentric,3,3.0,47497.0,193393.0,105262.0,195232.0,118014.0
2026-04-14 17:15:12.375613,166130,1609504406111907,2006081786,0.778848,-0.163968,-0.23424,3.75375,-5.71375,-4.4975,-17.704,-11.776001,-14.984001,concentric,3,3.0,47497.0,193393.0,105262.0,195232.0,118014.0
2026-04-14 17:15:12.385627,166131,1609504406120867,2006090489,0.778848,-0.163968,-0.23424,11.2175,1.09375,-4.22625,-17.704,-11.776001,-14.984001,concentric,3,3.0,47497.0,193393.0,105262.0,195232.0,118014.0
2026-04-14 17:15:12.397987,166132,1609504406135369,2006105388,0.796416,-0.122976,-0.333792,15.00625,1.93375,-2.68625,-17.592001,-11.408001,-15.632001,concentric,3,3.0,47497.0,193393.0,105262.0,195232.0,118014.0
2026-04-14 17:15:12.407997,166133,1609504406144306,2006114073,0.796416,-0.122976,-0.333792,10.21125,-0.60375,-0.65625,-17.592001,-11.408001,-15.632001,concentric,3,3.0,47497.0,193393.0,105262.0,195232.0,118014.0
2026-04-14 17:15:12.424239,166134,1609504406158775,2006128996,0.895968,-0.203008,-0.365024,3.4825,-0.0525,4.76875,-17.632,-10.792001,-14.480001,concentric,3,3.0,47497.0,193393.0,105262.0,195232.0,118014.0
2026-04-14 17:15:12.431797,166135,1609504406167660,2006137653,0.895968,-0.203008,-0.365024,1.1725,4.27,6.60625,-17.632,-10.792001,-14.480001,concentric,3,3.0,47497.0,193393.0,105262.0,195232.0,118014.0
2026-04-14 17:15:12.464274,166146,1609504406182288,2006150671,0.792512,-0.13664,-0.345504,-0.06125,9.8175,4.68125,-18.552,-10.256001,-14.800001,concentric,3,3.0,52695.0,203169.0,113587.0,204263.0,126779.0
2026-04-14 17:15:12.466914,166147,1609504406191639,2006161502,0.864736,-0.17568,-0.357216,-2.79125,14.04375,3.36,-19.096,-10.040001,-14.328001,concentric,3,3.0,52695.0,203169.0,113587.0,204263.0,126779.0
2026-04-14 17:15:12.469427,166148,1609504406200577,2006170234,0.864736,-0.17568,-0.357216,-6.16,16.37125,5.24125,-19.096,-10.040001,-14.328001,concentric,3,3.0,52695.0,203169.0,113587.0,204263.0,126779.0
2026-04-14 17:15:12.480519,166149,1609504406215073,2006185131,0.882304,-0.091744,-0.279136,-8.68,16.03,10.21125,-18.288,-10.048,-15.656001,concentric,3,3.0,52695.0,203169.0,113587.0,204263.0,126779.0
2026-04-14 17:15:12.490079,166150,1609504406223985,2006193831,0.882304,-0.091744,-0.279136,-10.395,15.96,13.16875,-18.288,-10.048,-15.656001,concentric,3,3.0,52695.0,203169.0,113587.0,204263.0,126779.0
2026-04-14 17:15:12.502795,166151,1609504406238476,2006208705,0.989664,-0.11712,-0.187392,-9.16125,19.565,12.67875,-19.712002,-9.336,-13.936001,concentric,3,3.0,52695.0,203169.0,113587.0,204263.0,126779.0
2026-04-14 17:15:12.510764,166152,1609504406247372,2006217375,0.989664,-0.11712,-0.187392,-10.325,24.9025,7.3675,-19.712002,-9.336,-13.936001,concentric,3,3.0,52695.0,203169.0,113587.0,204263.0,126779.0
2026-04-14 17:15:12.520494,166153,1609504406256286,2006226044,0.876448,-0.111264,-0.44896,-11.9525,30.59,1.5925,-18.856,-9.464001,-15.288001,concentric,3,3.0,52695.0,203169.0,113587.0,204263.0,126779.0
2026-04-14 17:15:12.536820,166154,1609504406270748,2006240919,0.876448,-0.111264,-0.44896,-11.36625,33.08375,-1.61875,-18.856,-9.464001,-15.288001,concentric,3,3.0,52695.0,203169.0,113587.0,204263.0,126779.0
