pc_time,serial_num,sensor_ts,host_ts,ax,ay,az,gx,gy,gz,mx,my,mz,phase,rpe,weight_kg,ppg_a,ppg_b,ppg_c,ppg_d,ppg_e,ppg_f,ppg_g,ppg_h,ppg_i,ppg_j
2026-05-06 16:04:39.997649,573352,1609505743418321,3343330084,-1.0736,-0.040992,0.046848,-4.43625,-4.24375,-5.32,38.424004,-41.4,-49.968002,concentric,5,5.0,17143.0,22881.0,65405.0,77750.0,15970.0,29924.0,27269.0,44789.0,11623.0,8455.0
2026-05-06 16:04:39.999833,573353,1609505743427454,3343338911,-1.056032,-0.11712,0.003904,-5.915,-4.06,-5.69625,38.528004,-41.928,-48.888,concentric,5,5.0,17143.0,22881.0,65405.0,77750.0,15970.0,29924.0,27269.0,44789.0,11623.0,8455.0
2026-05-06 16:04:40.003711,573354,1609505743436640,3343347683,-1.056032,-0.11712,0.003904,-1.1025,-3.4475,-5.39875,38.528004,-41.928,-48.888,concentric,5,5.0,17143.0,22881.0,65405.0,77750.0,15970.0,29924.0,27269.0,44789.0,11623.0,8455.0
2026-05-06 16:04:40.004898,573355,1609505743451630,3343362609,-1.114592,-0.066368,-0.031232,9.68625,-2.9225,-5.04875,38.264,-43.608,-48.872,concentric,5,5.0,17143.0,22881.0,65405.0,77750.0,15970.0,29924.0,27269.0,44789.0,11623.0,8455.0
2026-05-06 16:04:40.007472,573356,1609505743461038,3343373503,-1.114592,0.02928,-0.054656,16.24875,-2.96625,-5.1275,38.264,-43.608,-48.872,concentric,5,5.0,17143.0,22881.0,65405.0,77750.0,15970.0,29924.0,27269.0,44789.0,11623.0,8455.0
2026-05-06 16:04:40.010860,573357,1609505743475547,3343386370,-1.100928,0.02928,-0.054656,16.37125,-2.61625,-4.6025,38.472,-43.160004,-47.352,concentric,5,5.0,17143.0,22881.0,65405.0,77750.0,15970.0,29924.0,27269.0,44789.0,11623.0,8455.0
2026-05-06 16:04:40.018765,573358,1609505743484970,3343397138,-1.059936,0.013664,-0.027328,13.1775,-2.59875,-4.41,38.352,-41.248,-50.4,concentric,5,5.0,17143.0,22881.0,65405.0,77750.0,15970.0,29924.0,27269.0,44789.0,11623.0,8455.0
2026-05-06 16:04:40.027506,573359,1609505743494040,3343406102,-1.059936,0.013664,-0.027328,5.34625,-3.01,-5.80125,38.352,-41.248,-50.4,concentric,5,5.0,17143.0,22881.0,65405.0,77750.0,15970.0,29924.0,27269.0,44789.0,11623.0,8455.0
2026-05-06 16:04:40.041194,573360,1609505743508547,3343421111,-1.067744,-0.001952,-0.044896,-3.29,-2.47625,-7.4725,38.600002,-39.800003,-51.224003,concentric,5,5.0,17143.0,22881.0,65405.0,77750.0,15970.0,29924.0,27269.0,44789.0,11623.0,8455.0
2026-05-06 16:04:40.102487,573371,1609505743517452,3343429768,-1.067744,-0.001952,-0.044896,-3.12375,-1.47875,-8.44375,38.600002,-39.800003,-51.224003,concentric,5,5.0,17101.0,22829.0,65354.0,77563.0,15946.0,29891.0,27233.0,44666.0,11620.0,8434.0
2026-05-06 16:04:40.106210,573372,1609505743532070,3343444770,-1.089216,-0.023424,-0.083936,0.7525,-0.55125,-9.16125,38.768,-40.016003,-51.016003,concentric,5,5.0,17101.0,22829.0,65354.0,77563.0,15946.0,29891.0,27233.0,44666.0,11620.0,8434.0
2026-05-06 16:04:40.107262,573373,1609505743541037,3343453473,-1.089216,-0.023424,-0.083936,1.0325,-0.245,-9.23125,38.768,-40.016003,-51.016003,concentric,5,5.0,17101.0,22829.0,65354.0,77563.0,15946.0,29891.0,27233.0,44666.0,11620.0,8434.0
2026-05-06 16:04:40.110794,573374,1609505743549958,3343462208,-1.048224,0.0,-0.023424,0.04375,-0.1225,-8.3125,38.896004,-39.272003,-51.856003,concentric,5,5.0,17101.0,22829.0,65354.0,77563.0,15946.0,29891.0,27233.0,44666.0,11620.0,8434.0
2026-05-06 16:04:40.112484,573375,1609505743564499,3343477134,-1.040416,0.00976,-0.015616,-1.51375,-0.14875,-8.49625,39.024002,-39.408,-51.344,concentric,5,5.0,17101.0,22829.0,65354.0,77563.0,15946.0,29891.0,27233.0,44666.0,11620.0,8434.0
2026-05-06 16:04:40.115024,573376,1609505743573502,3343485893,-1.040416,0.00976,-0.015616,-2.21375,0.51625,-8.39125,39.024002,-39.408,-51.344,concentric,5,5.0,17101.0,22829.0,65354.0,77563.0,15946.0,29891.0,27233.0,44666.0,11620.0,8434.0
2026-05-06 16:04:40.121215,573377,1609505743588103,3343500853,-1.077504,0.001952,-0.070272,-3.96375,1.54,-9.0475,38.976,-39.4,-51.248,concentric,5,5.0,17101.0,22829.0,65354.0,77563.0,15946.0,29891.0,27233.0,44666.0,11620.0,8434.0
2026-05-06 16:04:40.130066,573378,1609505743597013,3343509663,-1.077504,0.001952,-0.070272,-3.70125,1.89,-9.03875,38.976,-39.4,-51.248,concentric,5,5.0,17101.0,22829.0,65354.0,77563.0,15946.0,29891.0,27233.0,44666.0,11620.0,8434.0
2026-05-06 16:04:40.143884,573379,1609505743611510,3343522521,-1.097024,0.021472,-0.081984,-0.9625,2.1875,-7.595,39.264004,-40.032,-51.168003,concentric,5,5.0,17101.0,22829.0,65354.0,77563.0,15946.0,29891.0,27233.0,44666.0,11620.0,8434.0
2026-05-06 16:04:40.175218,573390,1609505743621088,3343533394,-1.097024,0.021472,-0.081984,1.00625,2.205,-7.0,39.264004,-40.032,-51.168003,concentric,5,5.0,17080.0,22808.0,65415.0,77641.0,15940.0,29879.0,27244.0,44696.0,11620.0,8427.0
2026-05-06 16:04:40.177655,573391,1609505743630130,3343542162,-1.100928,0.013664,-0.07808,4.78625,1.9775,-6.74625,38.992,-41.504,-51.392002,concentric,5,5.0,17080.0,22808.0,65415.0,77641.0,15940.0,29879.0,27244.0,44696.0,11620.0,8427.0
2026-05-06 16:04:40.180237,573392,1609505743644682,3343557168,-1.069696,-0.01952,-0.027328,7.32375,2.45,-5.52125,39.488003,-39.712,-51.960003,concentric,5,5.0,17080.0,22808.0,65415.0,77641.0,15940.0,29879.0,27244.0,44696.0,11620.0,8427.0
2026-05-06 16:04:40.186223,573393,1609505743653627,3343565869,-1.069696,-0.01952,-0.027328,6.55375,2.96625,-4.2,39.488003,-39.712,-51.960003,concentric,5,5.0,17080.0,22808.0,65415.0,77641.0,15940.0,29879.0,27244.0,44696.0,11620.0,8427.0
2026-05-06 16:04:40.202556,573394,1609505743668161,3343580916,-1.059936,-0.017568,0.013664,7.93625,3.43875,-3.22875,39.232002,-41.504,-50.920002,concentric,5,5.0,17080.0,22808.0,65415.0,77641.0,15940.0,29879.0,27244.0,44696.0,11620.0,8427.0
2026-05-06 16:04:40.210207,573395,1609505743677086,3343589616,-1.059936,-0.017568,0.013664,10.05375,3.85875,-1.96,39.232002,-41.504,-50.920002,concentric,5,5.0,17080.0,22808.0,65415.0,77641.0,15940.0,29879.0,27244.0,44696.0,11620.0,8427.0
2026-05-06 16:04:40.222586,573396,1609505743686141,3343598396,-1.048224,0.02928,-0.005856,11.795,4.69,-1.05,39.224003,-39.896004,-52.128002,concentric,5,5.0,17080.0,22808.0,65415.0,77641.0,15940.0,29879.0,27244.0,44696.0,11620.0,8427.0
2026-05-06 16:04:40.250333,573397,1609505743700642,3343613323,-1.048224,0.02928,-0.005856,14.07,4.7075,-0.44625,39.224003,-39.896004,-52.128002,concentric,5,5.0,17080.0,22808.0,65415.0,77641.0,15940.0,29879.0,27244.0,44696.0,11620.0,8427.0
2026-05-06 16:04:40.275288,573398,1609505743709601,3343622040,-1.020896,0.056608,-0.033184,14.6475,5.2325,-0.93625,39.288002,-39.624,-52.448,concentric,5,5.0,17080.0,22808.0,65415.0,77641.0,15940.0,29879.0,27244.0,44696.0,11620.0,8427.0
2026-05-06 16:04:40.318842,573409,1609505743724331,3343637037,-1.087264,-0.005856,-0.080032,14.34125,5.90625,-3.325,39.312,-39.992,-54.336002,concentric,5,5.0,17057.0,22841.0,65393.0,77523.0,15922.0,29905.0,27250.0,44602.0,11615.0,8449.0
2026-05-06 16:04:40.326252,573410,1609505743733336,3343645727,-1.087264,-0.005856,-0.080032,13.08125,5.915,-6.195,39.312,-39.992,-54.336002,concentric,5,5.0,17057.0,22841.0,65393.0,77523.0,15922.0,29905.0,27250.0,44602.0,11615.0,8449.0
2026-05-06 16:04:40.328662,573411,1609505743742266,3343654465,-1.087264,-0.005856,-0.080032,9.40625,5.6175,-8.645,39.312,-39.992,-54.336002,concentric,5,5.0,17057.0,22841.0,65393.0,77523.0,15922.0,29905.0,27250.0,44602.0,11615.0,8449.0
2026-05-06 16:04:40.331101,573412,1609505743756953,3343669522,-1.036512,-0.031232,-0.025376,4.38375,5.94125,-8.0675,39.456,-39.776,-52.952003,concentric,5,5.0,17057.0,22841.0,65393.0,77523.0,15922.0,29905.0,27250.0,44602.0,11615.0,8449.0
2026-05-06 16:04:40.333690,573413,1609505743766011,3343678233,-0.991616,0.027328,-0.01952,3.5,5.74875,-5.50375,39.600002,-39.696003,-52.520004,concentric,5,5.0,17057.0,22841.0,65393.0,77523.0,15922.0,29905.0,27250.0,44602.0,11615.0,8449.0
2026-05-06 16:04:40.336236,573414,1609505743780578,3343693324,-0.991616,0.027328,-0.01952,3.5525,7.16625,-4.165,39.600002,-39.696003,-52.520004,concentric,5,5.0,17057.0,22841.0,65393.0,77523.0,15922.0,29905.0,27250.0,44602.0,11615.0,8449.0
2026-05-06 16:04:40.338888,573415,1609505743789494,3343702064,-1.079456,0.0,-0.072224,-0.98,8.40875,-6.69375,39.792004,-39.616,-53.016003,concentric,5,5.0,17057.0,22841.0,65393.0,77523.0,15922.0,29905.0,27250.0,44602.0,11615.0,8449.0
2026-05-06 16:04:40.341380,573416,1609505743803991,3343714973,-1.091168,-0.085888,-0.085888,-4.69,8.86375,-10.03625,39.792004,-39.296,-50.840004,concentric,5,5.0,17057.0,22841.0,65393.0,77523.0,15922.0,29905.0,27250.0,44602.0,11615.0,8449.0
2026-05-06 16:04:40.347597,573417,1609505743813419,3343725833,-1.091168,-0.085888,-0.085888,-8.42625,8.44375,-9.6425,39.768,-39.296,-50.840004,concentric,5,5.0,17057.0,22841.0,65393.0,77523.0,15922.0,29905.0,27250.0,44602.0,11615.0,8449.0
2026-05-06 16:04:40.377949,573428,1609505743822580,3343734658,-1.091168,-0.085888,-0.085888,-10.42125,8.155,-6.34375,39.768,-39.296,-50.840004,concentric,5,5.0,17133.0,22895.0,65438.0,77535.0,16003.0,29958.0,27239.0,44597.0,11670.0,8463.0
2026-05-06 16:04:40.378419,573429,1609505743837209,3343749721,-1.032608,-0.064416,-0.02928,-8.09375,7.7,-3.1675,39.816,-41.68,-49.856003,concentric,5,5.0,17133.0,22895.0,65438.0,77535.0,16003.0,29958.0,27239.0,44597.0,11670.0,8463.0
2026-05-06 16:04:40.382969,573430,1609505743846161,3343758574,-1.056032,-0.005856,-0.044896,-3.115,7.84,-1.925,39.920002,-39.576,-52.56,concentric,5,5.0,17133.0,22895.0,65438.0,77535.0,16003.0,29958.0,27239.0,44597.0,11670.0,8463.0
2026-05-06 16:04:40.395126,573431,1609505743860813,3343773517,-1.056032,-0.005856,-0.044896,0.2275,8.93375,-3.7275,39.920002,-39.576,-52.56,concentric,5,5.0,17133.0,22895.0,65438.0,77535.0,16003.0,29958.0,27239.0,44597.0,11670.0,8463.0
2026-05-06 16:04:40.403778,573432,1609505743869763,3343782205,-1.065792,0.040992,-0.013664,0.39375,8.8725,-5.9675,39.960003,-39.552002,-53.008003,concentric,5,5.0,17133.0,22895.0,65438.0,77535.0,16003.0,29958.0,27239.0,44597.0,11670.0,8463.0
2026-05-06 16:04:40.411371,573433,1609505743878682,3343790945,-1.065792,0.040992,-0.013664,-1.39125,8.417501,-5.08375,39.960003,-39.552002,-53.008003,concentric,5,5.0,17133.0,22895.0,65438.0,77535.0,16003.0,29958.0,27239.0,44597.0,11670.0,8463.0
2026-05-06 16:04:40.425215,573434,1609505743893169,3343805908,-1.007232,0.042944,-0.013664,-5.90625,8.35625,-4.99625,40.160004,-40.416,-53.264004,concentric,5,5.0,17133.0,22895.0,65438.0,77535.0,16003.0,29958.0,27239.0,44597.0,11670.0,8463.0
2026-05-06 16:04:40.438909,573435,1609505743902213,3343814639,-1.007232,0.042944,-0.013664,-12.0925,8.5575,-6.72,40.160004,-40.416,-53.264004,concentric,5,5.0,17133.0,22895.0,65438.0,77535.0,16003.0,29958.0,27239.0,44597.0,11670.0,8463.0
2026-05-06 16:04:40.447667,573436,1609505743916751,3343827544,-0.99552,-0.015616,-0.0488,-15.505,8.89,-10.745,40.528004,-39.632004,-53.72,concentric,5,5.0,17133.0,22895.0,65438.0,77535.0,16003.0,29958.0,27239.0,44597.0,11670.0,8463.0
2026-05-06 16:04:40.478206,573447,1609505743926201,3343838379,-1.00528,-0.046848,-0.050752,-15.61875,8.5925,-13.1775,40.576,-39.784,-50.72,concentric,5,5.0,17228.0,23014.0,65559.0,77572.0,16068.0,30128.0,27315.0,44600.0,11733.0,8538.0
2026-05-06 16:04:40.478794,573448,1609505743935326,3343847283,-1.00528,-0.046848,-0.050752,-14.79625,8.37375,-13.5625,40.576,-39.784,-50.72,concentric,5,5.0,17228.0,23014.0,65559.0,77572.0,16068.0,30128.0,27315.0,44600.0,11733.0,8538.0
2026-05-06 16:04:40.480953,573449,1609505743949865,3343862254,-1.00528,0.00976,-0.011712,-13.055,8.35625,-13.0025,40.456,-42.08,-50.888004,concentric,5,5.0,17228.0,23014.0,65559.0,77572.0,16068.0,30128.0,27315.0,44600.0,11733.0,8538.0
2026-05-06 16:04:40.495141,573450,1609505743958824,3343870970,-1.00528,0.00976,-0.011712,-7.58625,8.855001,-14.69125,40.456,-42.08,-50.888004,concentric,5,5.0,17228.0,23014.0,65559.0,77572.0,16068.0,30128.0,27315.0,44600.0,11733.0,8538.0
2026-05-06 16:04:40.508826,573451,1609505743973359,3343885872,-1.040416,0.046848,-0.056608,-5.25,9.065,-16.35375,41.168003,-38.800003,-53.24,concentric,5,5.0,17228.0,23014.0,65559.0,77572.0,16068.0,30128.0,27315.0,44600.0,11733.0,8538.0
2026-05-06 16:04:40.514986,573452,1609505743982354,3343894650,-1.040416,0.046848,-0.056608,-7.51625,8.715,-16.485,41.168003,-38.800003,-53.24,concentric,5,5.0,17228.0,23014.0,65559.0,77572.0,16068.0,30128.0,27315.0,44600.0,11733.0,8538.0
2026-05-06 16:04:40.523903,573453,1609505743991290,3343903454,-1.001376,-0.013664,-0.115168,-10.33375,7.4375,-15.86375,41.512,-40.584003,-51.648003,concentric,5,5.0,17228.0,23014.0,65559.0,77572.0,16068.0,30128.0,27315.0,44600.0,11733.0,8538.0
2026-05-06 16:04:40.540258,573454,1609505744005884,3343918354,-1.018944,-0.056608,-0.080032,-14.56,7.1225,-16.2575,41.776,-38.632,-54.072002,concentric,5,5.0,17228.0,23014.0,65559.0,77572.0,16068.0,30128.0,27315.0,44600.0,11733.0,8538.0
2026-05-06 16:04:40.550081,573455,1609505744014979,3343927061,-1.018944,-0.056608,-0.080032,-19.57375,6.71125,-18.24375,41.776,-38.632,-54.072002,concentric,5,5.0,17228.0,23014.0,65559.0,77572.0,16068.0,30128.0,27315.0,44600.0,11733.0,8538.0
2026-05-06 16:04:40.579372,573466,1609505744029513,3343942084,-1.03456,0.005856,0.023424,-21.93625,6.64125,-18.57625,42.280003,-39.616,-51.480003,concentric,5,5.0,17295.0,23146.0,65694.0,77622.0,16135.0,30233.0,27392.0,44585.0,11763.0,8598.0
2026-05-06 16:04:40.581394,573467,1609505744038456,3343950879,-1.03456,0.005856,0.023424,-22.95125,6.69375,-16.40625,42.280003,-39.616,-51.480003,concentric,5,5.0,17295.0,23146.0,65694.0,77622.0,16135.0,30233.0,27392.0,44585.0,11763.0,8598.0
2026-05-06 16:04:40.583680,573468,1609505744053007,3343963786,-1.052128,-0.064416,-0.089792,-24.29875,7.07875,-13.658751,42.192,-39.4,-51.312004,concentric,5,5.0,17295.0,23146.0,65694.0,77622.0,16135.0,30233.0,27392.0,44585.0,11763.0,8598.0
2026-05-06 16:04:40.623710,573469,1609505744062271,3343974724,-1.052128,-0.064416,-0.089792,-26.20625,7.1225,-12.90625,42.192,-39.4,-51.312004,concentric,5,5.0,17295.0,23146.0,65694.0,77622.0,16135.0,30233.0,27392.0,44585.0,11763.0,8598.0
2026-05-06 16:04:40.647627,573470,1609505744071210,3343983448,-1.05408,-0.152256,-0.095648,-27.615,7.28875,-11.62,42.800003,-38.144,-52.160004,concentric,5,5.0,17295.0,23146.0,65694.0,77622.0,16135.0,30233.0,27392.0,44585.0,11763.0,8598.0
2026-05-06 16:04:40.650284,573471,1609505744085718,3343998413,-1.05408,-0.140544,-0.062464,-21.866251,6.86875,-8.70625,42.800003,-38.144,-54.208004,concentric,5,5.0,17295.0,23146.0,65694.0,77622.0,16135.0,30233.0,27392.0,44585.0,11763.0,8598.0
2026-05-06 16:04:40.652826,573472,1609505744094617,3344007113,-1.003328,-0.140544,-0.062464,-11.96125,6.55375,-4.38375,42.376003,-38.176003,-53.608,concentric,5,5.0,17295.0,23146.0,65694.0,77622.0,16135.0,30233.0,27392.0,44585.0,11763.0,8598.0
2026-05-06 16:04:40.655125,573473,1609505744109078,3344019972,-0.976,0.00976,-0.044896,-1.2775,5.57375,0.1225,42.632004,-38.752003,-52.320004,concentric,5,5.0,17295.0,23146.0,65694.0,77622.0,16135.0,30233.0,27392.0,44585.0,11763.0,8598.0
2026-05-06 16:04:40.657389,573474,1609505744118435,3344030836,-0.976,0.00976,-0.044896,4.73375,4.6375,1.2075,42.632004,-38.752003,-52.320004,concentric,5,5.0,17295.0,23146.0,65694.0,77622.0,16135.0,30233.0,27392.0,44585.0,11763.0,8598.0
2026-05-06 16:04:40.684972,573485,1609505744127658,3344039642,-1.030656,0.011712,-0.099552,5.45125,4.0775,-1.61875,42.736004,-42.128002,-49.552002,concentric,5,5.0,17381.0,23233.0,65781.0,77663.0,16196.0,30340.0,27440.0,44595.0,11830.0,8658.0
2026-05-06 16:04:40.687330,573486,1609505744142407,3344054664,-1.030656,0.011712,-0.099552,5.1625,4.45375,-4.9,42.736004,-42.128002,-49.552002,concentric,5,5.0,17381.0,23233.0,65781.0,77663.0,16196.0,30340.0,27440.0,44595.0,11830.0,8658.0
2026-05-06 16:04:40.690128,573487,1609505744151460,3344063400,-1.040416,-0.035136,-0.052704,-2.45875,4.2525,-7.1225,43.096,-41.752003,-49.872,concentric,5,5.0,17381.0,23233.0,65781.0,77663.0,16196.0,30340.0,27440.0,44595.0,11830.0,8658.0
2026-05-06 16:04:40.698756,573488,1609505744166098,3344078315,-1.040416,-0.035136,-0.064416,-7.90125,3.605,-5.8275,43.096,-41.752003,-49.872,concentric,5,5.0,17381.0,23233.0,65781.0,77663.0,16196.0,30340.0,27440.0,44595.0,11830.0,8658.0
2026-05-06 16:04:40.728801,573489,1609505744175171,3344087038,-0.94672,-0.060512,-0.064416,-7.4375,2.84375,-3.66625,42.896004,-39.592003,-51.504,concentric,5,5.0,17381.0,23233.0,65781.0,77663.0,16196.0,30340.0,27440.0,44595.0,11830.0,8658.0
2026-05-06 16:04:40.731390,573490,1609505744184223,3344095825,-0.94672,-0.060512,-0.064416,-7.09625,3.1675,-4.22625,42.896004,-39.592003,-51.504,concentric,5,5.0,17381.0,23233.0,65781.0,77663.0,16196.0,30340.0,27440.0,44595.0,11830.0,8658.0
2026-05-06 16:04:40.733924,573491,1609505744198735,3344110731,-1.0248,-0.07808,-0.124928,-5.22375,4.1825,-7.0525,43.248,-38.296,-50.952003,concentric,5,5.0,17381.0,23233.0,65781.0,77663.0,16196.0,30340.0,27440.0,44595.0,11830.0,8658.0
2026-05-06 16:04:40.740238,573492,1609505744207694,3344119499,-1.067744,-0.005856,-0.062464,-0.0525,4.94375,-10.66625,43.352,-39.856003,-49.4,concentric,5,5.0,17381.0,23233.0,65781.0,77663.0,16196.0,30340.0,27440.0,44595.0,11830.0,8658.0
2026-05-06 16:04:40.784140,573503,1609505744222233,3344134498,-1.067744,-0.005856,-0.062464,9.12625,4.1125,-11.17375,43.352,-39.856003,-49.4,concentric,5,5.0,17485.0,23299.0,65946.0,77565.0,16253.0,30382.0,27507.0,44556.0,11851.0,8672.0
2026-05-06 16:04:40.785012,573504,1609505744231832,3344143319,-0.981856,0.064416,0.02928,19.985,4.06875,-7.98,44.016003,-38.312,-52.384003,concentric,5,5.0,17485.0,23299.0,65946.0,77565.0,16253.0,30382.0,27507.0,44556.0,11851.0,8672.0
2026-05-06 16:04:40.785094,573505,1609505744240877,3344152178,-0.981856,0.064416,0.02928,18.2175,4.515,-7.49,44.016003,-38.312,-52.384003,concentric,5,5.0,17485.0,23299.0,65946.0,77565.0,16253.0,30382.0,27507.0,44556.0,11851.0,8672.0
2026-05-06 16:04:40.786162,573506,1609505744255390,3344167118,-0.98576,0.033184,-0.027328,7.4025,6.08125,-11.45375,44.232002,-39.568,-51.424004,concentric,5,5.0,17485.0,23299.0,65946.0,77565.0,16253.0,30382.0,27507.0,44556.0,11851.0,8672.0
2026-05-06 16:04:40.800119,573507,1609505744264367,3344175936,-0.98576,0.033184,-0.027328,-2.2925,7.25375,-17.36875,44.232002,-39.568,-51.424004,concentric,5,5.0,17485.0,23299.0,65946.0,77565.0,16253.0,30382.0,27507.0,44556.0,11851.0,8672.0
2026-05-06 16:04:40.813763,573508,1609505744278907,3344190870,-1.030656,-0.089792,-0.12688,-8.81125,7.32375,-20.95625,44.792004,-37.928,-51.992,concentric,5,5.0,17485.0,23299.0,65946.0,77565.0,16253.0,30382.0,27507.0,44556.0,11851.0,8672.0
2026-05-06 16:04:40.820079,573509,1609505744287882,3344199678,-1.050176,-0.154208,-0.183488,-10.3425,6.72875,-19.0575,44.896004,-37.800003,-54.280003,concentric,5,5.0,17485.0,23299.0,65946.0,77565.0,16253.0,30382.0,27507.0,44556.0,11851.0,8672.0
2026-05-06 16:04:40.837254,573510,1609505744302383,3344214589,-1.050176,-0.154208,-0.183488,-10.31625,4.445,-15.8025,44.896004,-37.800003,-54.280003,concentric,5,5.0,17485.0,23299.0,65946.0,77565.0,16253.0,30382.0,27507.0,44556.0,11851.0,8672.0
2026-05-06 16:04:40.843557,573511,1609505744311327,3344223328,-1.018944,-0.150304,-0.074176,-9.073751,2.1525,-14.79625,44.944,-37.480003,-52.184002,concentric,5,5.0,17485.0,23299.0,65946.0,77565.0,16253.0,30382.0,27507.0,44556.0,11851.0,8672.0
2026-05-06 16:04:40.852370,573512,1609505744320268,3344232058,-1.018944,-0.150304,-0.074176,-4.025,0.7875,-14.84875,44.944,-37.480003,-52.184002,concentric,5,5.0,17485.0,23299.0,65946.0,77565.0,16253.0,30382.0,27507.0,44556.0,11851.0,8672.0
2026-05-06 16:04:40.881543,573523,1609505744335168,3344247238,-0.997472,-0.052704,-0.001952,3.84125,-0.86625,-12.18,45.504,-37.616,-52.304,concentric,5,5.0,17543.0,23324.0,65971.0,77137.0,16296.0,30339.0,27497.0,44321.0,11902.0,8667.0
2026-05-06 16:04:40.883694,573524,1609505744344169,3344256103,-0.997472,-0.052704,-0.001952,11.2875,-2.205,-6.8775,45.504,-37.616,-52.304,concentric,5,5.0,17543.0,23324.0,65971.0,77137.0,16296.0,30339.0,27497.0,44321.0,11902.0,8667.0
2026-05-06 16:04:40.891260,573525,1609505744358797,3344271040,-1.0248,0.003904,-0.089792,5.25875,-1.74125,-3.7625,45.552002,-38.088,-50.584003,concentric,5,5.0,17543.0,23324.0,65971.0,77137.0,16296.0,30339.0,27497.0,44321.0,11902.0,8667.0
2026-05-06 16:04:40.900084,573526,1609505744367828,3344279792,-1.056032,-0.119072,-0.189344,-11.47125,-0.9975,-3.61375,45.552002,-38.088,-52.632004,concentric,5,5.0,17543.0,23324.0,65971.0,77137.0,16296.0,30339.0,27497.0,44321.0,11902.0,8667.0
2026-05-06 16:04:40.908791,573527,1609505744376895,3344288533,-1.057984,-0.119072,-0.189344,-21.58625,-0.39375,-6.09875,45.928,-39.160004,-51.344,concentric,5,5.0,17543.0,23324.0,65971.0,77137.0,16296.0,30339.0,27497.0,44321.0,11902.0,8667.0
2026-05-06 16:04:40.922327,573528,1609505744391399,3344303525,-1.003328,-0.212768,-0.06832,-23.135,-1.89,-8.04125,46.160004,-37.512,-51.320004,concentric,5,5.0,17543.0,23324.0,65971.0,77137.0,16296.0,30339.0,27497.0,44321.0,11902.0,8667.0
2026-05-06 16:04:40.933806,573529,1609505744400347,3344312240,-1.003328,-0.212768,-0.06832,-15.3825,-3.5175,-5.59125,46.160004,-37.512,-51.320004,concentric,5,5.0,17543.0,23324.0,65971.0,77137.0,16296.0,30339.0,27497.0,44321.0,11902.0,8667.0
2026-05-06 16:04:40.947777,573530,1609505744414826,3344327270,-0.983808,-0.113216,-0.00976,-0.9625,-4.45375,-0.595,46.112003,-37.712,-51.784004,concentric,5,5.0,17543.0,23324.0,65971.0,77137.0,16296.0,30339.0,27497.0,44321.0,11902.0,8667.0
2026-05-06 16:04:41.042636,573541,1609505744424248,3344335942,-0.983808,-0.113216,-0.00976,15.68875,-4.97875,2.835,46.112003,-37.712,-51.784004,concentric,5,5.0,17637.0,23368.0,65951.0,76714.0,16386.0,30401.0,27515.0,44121.0,11982.0,8709.0
2026-05-06 16:04:41.045287,573542,1609505744433358,3344344710,-1.0736,-0.027328,-0.191296,20.0725,-4.10375,3.7975,46.392002,-38.088,-51.288002,concentric,5,5.0,17637.0,23368.0,65951.0,76714.0,16386.0,30401.0,27515.0,44121.0,11982.0,8709.0
2026-05-06 16:04:41.047689,573543,1609505744447911,3344359659,-1.0736,-0.027328,-0.191296,11.7775,-2.6425,0.56,46.392002,-38.088,-51.288002,concentric,5,5.0,17637.0,23368.0,65951.0,76714.0,16386.0,30401.0,27515.0,44121.0,11982.0,8709.0
2026-05-06 16:04:41.050265,573544,1609505744456868,3344368398,-1.147776,-0.031232,-0.171776,1.4525,-3.31625,-4.87375,46.608,-37.568,-53.488003,concentric,5,5.0,17637.0,23368.0,65951.0,76714.0,16386.0,30401.0,27515.0,44121.0,11982.0,8709.0
2026-05-06 16:04:41.052774,573545,1609505744471346,3344383303,-1.097024,-0.091744,-0.037088,-0.00875,-5.74,-7.27125,46.672,-37.776,-50.896004,concentric,5,5.0,17637.0,23368.0,65951.0,76714.0,16386.0,30401.0,27515.0,44121.0,11982.0,8709.0
2026-05-06 16:04:41.056896,573546,1609505744480311,3344392066,-1.097024,-0.091744,-0.037088,2.835,-8.155,-4.78625,46.672,-37.776,-50.896004,concentric,5,5.0,17637.0,23368.0,65951.0,76714.0,16386.0,30401.0,27515.0,44121.0,11982.0,8709.0
2026-05-06 16:04:41.057306,573547,1609505744494794,3344406957,-1.11264,-0.11712,-0.095648,0.9625,-7.72625,-1.21625,46.736004,-37.72,-50.936,concentric,5,5.0,17637.0,23368.0,65951.0,76714.0,16386.0,30401.0,27515.0,44121.0,11982.0,8709.0
2026-05-06 16:04:41.059944,573548,1609505744503757,3344415721,-1.11264,-0.11712,-0.095648,-3.31625,-5.22375,-3.38625,46.736004,-37.72,-50.936,concentric,5,5.0,17637.0,23368.0,65951.0,76714.0,16386.0,30401.0,27515.0,44121.0,11982.0,8709.0
2026-05-06 16:04:41.063539,573549,1609505744512766,3344424502,-1.233664,-0.103456,-0.162016,-2.40625,-3.5,-8.33,47.656002,-38.176003,-50.408,concentric,5,5.0,17637.0,23368.0,65951.0,76714.0,16386.0,30401.0,27515.0,44121.0,11982.0,8709.0
2026-05-06 16:04:41.090057,573560,1609505744527814,3344439882,-1.233664,-0.103456,-0.162016,5.03125,-2.45,-8.75875,47.656002,-38.176003,-50.408,concentric,5,5.0,17885.0,23371.0,66158.0,76815.0,16649.0,30429.0,27535.0,44305.0,12150.0,8681.0
2026-05-06 16:04:41.092432,573561,1609505744536857,3344448735,-1.167296,-0.089792,-0.111264,9.0825,-3.47375,-6.3525,47.72,-40.248,-49.336002,concentric,5,5.0,17885.0,23371.0,66158.0,76815.0,16649.0,30429.0,27535.0,44305.0,12150.0,8681.0
2026-05-06 16:04:41.095108,573562,1609505744551445,3344463780,-1.128256,-0.089792,-0.10736,8.61875,-4.87375,-3.9025,48.152,-39.832,-49.096,concentric,5,5.0,17885.0,23371.0,66158.0,76815.0,16649.0,30429.0,27535.0,44305.0,12150.0,8681.0
2026-05-06 16:04:41.097497,573563,1609505744560463,3344472522,-1.128256,-0.089792,-0.10736,9.98375,-5.18875,-4.865,48.152,-39.832,-49.096,concentric,5,5.0,17885.0,23371.0,66158.0,76815.0,16649.0,30429.0,27535.0,44305.0,12150.0,8681.0
2026-05-06 16:04:41.101114,573564,1609505744569391,3344481248,-1.143872,-0.05856,-0.064416,9.09125,-5.01375,-7.49875,48.152,-39.832,-51.144,concentric,5,5.0,17885.0,23371.0,66158.0,76815.0,16649.0,30429.0,27535.0,44305.0,12150.0,8681.0
2026-05-06 16:04:41.138806,573565,1609505744583912,3344496174,-1.149728,-0.05856,-0.064416,4.9,-4.69875,-7.14,47.912003,-38.08,-50.36,concentric,5,5.0,17885.0,23371.0,66158.0,76815.0,16649.0,30429.0,27535.0,44305.0,12150.0,8681.0
2026-05-06 16:04:41.141387,573566,1609505744592827,3344504887,-1.14192,-0.101504,-0.080032,-1.67125,-3.115,-4.71625,48.472004,-38.816,-49.768,concentric,5,5.0,17885.0,23371.0,66158.0,76815.0,16649.0,30429.0,27535.0,44305.0,12150.0,8681.0
2026-05-06 16:04:41.143910,573567,1609505744607375,3344519809,-1.14192,-0.101504,-0.080032,-7.27125,-2.7825,-4.52375,48.472004,-38.816,-49.768,concentric,5,5.0,17885.0,23371.0,66158.0,76815.0,16649.0,30429.0,27535.0,44305.0,12150.0,8681.0
2026-05-06 16:04:41.150253,573568,1609505744616356,3344528546,-1.163392,-0.181536,-0.101504,-13.04625,-3.0625,-8.19,48.192,-38.576,-49.288002,concentric,5,5.0,17885.0,23371.0,66158.0,76815.0,16649.0,30429.0,27535.0,44305.0,12150.0,8681.0
2026-05-06 16:04:41.181266,573579,1609505744625470,3344537269,-1.163392,-0.181536,-0.101504,-11.6025,-4.1475,-9.0825,48.192,-38.576,-49.288002,concentric,5,5.0,18079.0,23207.0,66147.0,76536.0,16845.0,30220.0,27487.0,44212.0,12283.0,8596.0
2026-05-06 16:04:41.183756,573580,1609505744640143,3344552286,-1.147776,-0.158112,-0.074176,-2.2225,-4.2175,-5.775,48.576004,-39.272003,-49.648003,concentric,5,5.0,18079.0,23207.0,66147.0,76536.0,16845.0,30220.0,27487.0,44212.0,12283.0,8596.0
2026-05-06 16:04:41.185994,573581,1609505744649081,3344561063,-1.147776,-0.158112,-0.074176,4.75125,-4.06,-2.0475,48.576004,-39.272003,-49.648003,concentric,5,5.0,18079.0,23207.0,66147.0,76536.0,16845.0,30220.0,27487.0,44212.0,12283.0,8596.0
2026-05-06 16:04:41.195073,573582,1609505744663645,3344576035,-1.1224,-0.052704,-0.001952,6.1075,-3.8675,0.88375,48.376003,-42.192,-48.848003,concentric,5,5.0,18079.0,23207.0,66147.0,76536.0,16845.0,30220.0,27487.0,44212.0,12283.0,8596.0
2026-05-06 16:04:41.203816,573583,1609505744672739,3344584764,-1.1224,-0.027328,-0.035136,2.3275,-2.6075,1.7675,48.920002,-38.624,-49.152,concentric,5,5.0,18079.0,23207.0,66147.0,76536.0,16845.0,30220.0,27487.0,44212.0,12283.0,8596.0
2026-05-06 16:04:41.237552,573584,1609505744687251,3344599736,-1.1224,-0.027328,-0.035136,-1.8375,-1.015,-0.60375,48.920002,-38.624,-49.152,concentric,5,5.0,18079.0,23207.0,66147.0,76536.0,16845.0,30220.0,27487.0,44212.0,12283.0,8596.0
2026-05-06 16:04:41.240319,573585,1609505744696209,3344608426,-1.149728,-0.072224,-0.099552,-5.25,-0.3325,-4.13875,49.312004,-38.608,-48.952003,concentric,5,5.0,18079.0,23207.0,66147.0,76536.0,16845.0,30220.0,27487.0,44212.0,12283.0,8596.0
2026-05-06 16:04:41.246423,573586,1609505744705143,3344617239,-1.149728,-0.072224,-0.099552,-7.67375,0.27125,-6.72875,49.312004,-38.608,-48.952003,concentric,5,5.0,18079.0,23207.0,66147.0,76536.0,16845.0,30220.0,27487.0,44212.0,12283.0,8596.0
2026-05-06 16:04:41.252776,573587,1609505744719668,3344632185,-1.177056,-0.089792,-0.163968,-7.42,-0.02625,-7.63875,49.440002,-38.392002,-48.984,concentric,5,5.0,18079.0,23207.0,66147.0,76536.0,16845.0,30220.0,27487.0,44212.0,12283.0,8596.0
2026-05-06 16:04:41.286171,573599,1609505744729284,3344641000,-1.177056,-0.089792,-0.163968,-8.3475,-1.11125,-7.6825,49.440002,-38.392002,-48.984,concentric,5,5.0,17908.0,23141.0,66163.0,76049.0,16682.0,30154.0,27490.0,43886.0,12169.0,8578.0
2026-05-06 16:04:41.288764,573600,1609505744738474,3344649950,-1.15168,-0.035136,-0.089792,-9.59,-2.45875,-6.83375,49.408,-38.824,-50.728,concentric,5,5.0,17908.0,23141.0,66163.0,76049.0,16682.0,30154.0,27490.0,43886.0,12169.0,8578.0
2026-05-06 16:04:41.291243,573601,1609505744753038,3344664958,-1.179008,-0.089792,-0.15616,-14.07875,-3.0975,-7.4025,49.648003,-41.000004,-46.992,concentric,5,5.0,17908.0,23141.0,66163.0,76049.0,16682.0,30154.0,27490.0,43886.0,12169.0,8578.0
2026-05-06 16:04:41.293781,573602,1609505744762002,3344673694,-1.179008,-0.089792,-0.15616,-16.59,-4.55,-8.89875,49.648003,-41.000004,-46.992,concentric,5,5.0,17908.0,23141.0,66163.0,76049.0,16682.0,30154.0,27490.0,43886.0,12169.0,8578.0
2026-05-06 16:04:41.310204,573603,1609505744776497,3344688690,-1.24928,-0.203008,-0.085888,-19.53875,-4.515,-10.36875,49.976,-39.36,-46.432003,concentric,5,5.0,17908.0,23141.0,66163.0,76049.0,16682.0,30154.0,27490.0,43886.0,12169.0,8578.0
2026-05-06 16:04:41.319078,573604,1609505744785421,3344697429,-1.24928,-0.203008,-0.085888,-18.68125,-4.6025,-9.8525,49.976,-39.36,-46.432003,concentric,5,5.0,17908.0,23141.0,66163.0,76049.0,16682.0,30154.0,27490.0,43886.0,12169.0,8578.0
2026-05-06 16:04:41.356249,573605,1609505744799927,3344712330,-1.2688,-0.193248,-0.103456,-12.845,-3.78875,-6.3175,49.72,-39.592003,-46.680004,eccentric,5,5.0,17908.0,23141.0,66163.0,76049.0,16682.0,30154.0,27490.0,43886.0,12169.0,8578.0
2026-05-06 16:04:41.381341,573606,1609505744808842,3344721069,-1.2688,-0.193248,-0.103456,-4.17375,-4.165,-1.1375,49.72,-39.592003,-46.680004,eccentric,5,5.0,17908.0,23141.0,66163.0,76049.0,16682.0,30154.0,27490.0,43886.0,12169.0,8578.0
2026-05-06 16:04:41.406359,573607,1609505744817772,3344729766,-1.231712,-0.095648,-0.11712,5.95,-4.4625,3.3775,49.976,-42.648003,-44.784,eccentric,5,5.0,17908.0,23141.0,66163.0,76049.0,16682.0,30154.0,27490.0,43886.0,12169.0,8578.0
2026-05-06 16:04:41.442430,573618,1609505744832421,3344744797,-1.235616,-0.052704,-0.105408,10.5,-4.48,4.24375,49.344,-41.472,-45.448,eccentric,5,5.0,17961.0,23052.0,66006.0,76006.0,16756.0,30041.0,27340.0,43854.0,12222.0,8522.0
2026-05-06 16:04:41.447343,573619,1609505744841337,3344753502,-1.235616,-0.052704,-0.105408,5.99375,-4.0425,3.9025,49.344,-41.472,-45.448,eccentric,5,5.0,17961.0,23052.0,66006.0,76006.0,16756.0,30041.0,27340.0,43854.0,12222.0,8522.0
2026-05-06 16:04:41.449891,573620,1609505744855841,3344768408,-1.262944,-0.05856,-0.099552,-1.89,-2.45875,2.6075,49.600002,-40.992,-45.912003,eccentric,5,5.0,17961.0,23052.0,66006.0,76006.0,16756.0,30041.0,27340.0,43854.0,12222.0,8522.0
2026-05-06 16:04:41.452603,573621,1609505744864730,3344777156,-1.262944,-0.05856,-0.099552,-8.44375,-1.9075,-0.07,49.600002,-40.992,-45.912003,eccentric,5,5.0,17961.0,23052.0,66006.0,76006.0,16756.0,30041.0,27340.0,43854.0,12222.0,8522.0
2026-05-06 16:04:41.455062,573622,1609505744879230,3344790055,-1.251232,-0.080032,-0.13664,-7.49,-1.60125,-1.23375,49.600002,-40.968002,-45.160004,eccentric,5,5.0,17961.0,23052.0,66006.0,76006.0,16756.0,30041.0,27340.0,43854.0,12222.0,8522.0
2026-05-06 16:04:41.457526,573623,1609505744888651,3344800906,-1.251232,-0.080032,-0.13664,-4.1825,-1.47,-2.16125,49.600002,-40.968002,-45.160004,eccentric,5,5.0,17961.0,23052.0,66006.0,76006.0,16756.0,30041.0,27340.0,43854.0,12222.0,8522.0
2026-05-06 16:04:41.460111,573624,1609505744897624,3344809636,-1.251232,-0.150304,-0.128832,-7.79625,-1.33,-3.115,49.56,-42.592003,-44.192,eccentric,5,5.0,17961.0,23052.0,66006.0,76006.0,16756.0,30041.0,27340.0,43854.0,12222.0,8522.0
2026-05-06 16:04:41.462520,573625,1609505744912392,3344824573,-1.282464,-0.154208,-0.052704,-12.11,-1.3825,-3.6575,49.744003,-40.600002,-46.904003,eccentric,5,5.0,17961.0,23052.0,66006.0,76006.0,16756.0,30041.0,27340.0,43854.0,12222.0,8522.0
2026-05-06 16:04:41.465081,573626,1609505744921407,3344833288,-1.282464,-0.154208,-0.052704,-15.75,-1.04125,-3.57875,49.744003,-40.600002,-46.904003,eccentric,5,5.0,17961.0,23052.0,66006.0,76006.0,16756.0,30041.0,27340.0,43854.0,12222.0,8522.0
2026-05-06 16:04:41.492484,573637,1609505744936349,3344848500,-1.290272,-0.111264,-0.144448,-14.91,-0.53375,-1.3475,49.320004,-39.296,-46.728,eccentric,5,5.0,17950.0,23018.0,65871.0,76006.0,16769.0,29970.0,27257.0,43824.0,12234.0,8488.0
2026-05-06 16:04:41.494960,573638,1609505744945332,3344857252,-1.290272,-0.111264,-0.144448,-6.86875,0.16625,1.75,49.320004,-39.296,-46.728,eccentric,5,5.0,17950.0,23018.0,65871.0,76006.0,16769.0,29970.0,27257.0,43824.0,12234.0,8488.0
2026-05-06 16:04:41.497660,573639,1609505744954295,3344866049,-1.2688,-0.08784,-0.148352,-6.335,-0.175,2.14375,49.392002,-38.728,-46.144,eccentric,5,5.0,17950.0,23018.0,65871.0,76006.0,16769.0,29970.0,27257.0,43824.0,12234.0,8488.0
2026-05-06 16:04:41.501333,573640,1609505744968927,3344881070,-1.2688,-0.08784,-0.148352,-7.14,-0.28875,2.26625,49.392002,-38.728,-46.144,eccentric,5,5.0,17950.0,23018.0,65871.0,76006.0,16769.0,29970.0,27257.0,43824.0,12234.0,8488.0
2026-05-06 16:04:41.510047,573641,1609505744977886,3344889859,-1.241472,-0.105408,-0.093696,-10.75375,-0.2275,2.03875,49.416004,-39.176003,-46.648003,eccentric,5,5.0,17950.0,23018.0,65871.0,76006.0,16769.0,29970.0,27257.0,43824.0,12234.0,8488.0
2026-05-06 16:04:41.544922,573642,1609505744992347,3344904860,-1.241472,-0.105408,-0.109312,-15.3125,0.06125,1.19,49.416004,-39.176003,-46.648003,eccentric,5,5.0,17950.0,23018.0,65871.0,76006.0,16769.0,29970.0,27257.0,43824.0,12234.0,8488.0
2026-05-06 16:04:41.547703,573643,1609505745001306,3344913580,-1.274656,-0.0976,-0.109312,-15.96875,0.735,0.42875,49.08,-42.456,-43.416,eccentric,5,5.0,17950.0,23018.0,65871.0,76006.0,16769.0,29970.0,27257.0,43824.0,12234.0,8488.0
2026-05-06 16:04:41.548582,573644,1609505745010228,3344922411,-1.274656,-0.0976,-0.109312,-14.41125,1.225,-0.6825,49.08,-42.456,-43.416,eccentric,5,5.0,17950.0,23018.0,65871.0,76006.0,16769.0,29970.0,27257.0,43824.0,12234.0,8488.0
2026-05-06 16:04:41.558748,573645,1609505745024790,3344937341,-1.292224,-0.074176,-0.119072,-9.205,0.49875,-1.645,49.056004,-40.704002,-45.664,eccentric,5,5.0,17950.0,23018.0,65871.0,76006.0,16769.0,29970.0,27257.0,43824.0,12234.0,8488.0
2026-05-06 16:04:41.586275,573656,1609505745033908,3344946243,-1.231712,-0.083936,-0.085888,-9.58125,-0.8925,-1.63625,49.048004,-41.096,-44.752003,eccentric,5,5.0,17774.0,22974.0,65843.0,75875.0,16605.0,29939.0,27226.0,43730.0,12117.0,8460.0
2026-05-06 16:04:41.588925,573657,1609505745048623,3344961222,-1.231712,-0.083936,-0.085888,-10.00125,-1.47,-1.085,49.048004,-41.096,-44.752003,eccentric,5,5.0,17774.0,22974.0,65843.0,75875.0,16605.0,29939.0,27226.0,43730.0,12117.0,8460.0
2026-05-06 16:04:41.591492,573658,1609505745057754,3344969967,-1.216096,-0.13664,-0.0976,-10.6925,-0.7875,-0.84875,48.976,-42.232002,-43.696003,eccentric,5,5.0,17774.0,22974.0,65843.0,75875.0,16605.0,29939.0,27226.0,43730.0,12117.0,8460.0
2026-05-06 16:04:41.605277,573659,1609505745072284,3344984986,-1.216096,-0.13664,-0.0976,-14.4725,0.14875,-1.32125,48.976,-42.232002,-43.696003,eccentric,5,5.0,17774.0,22974.0,65843.0,75875.0,16605.0,29939.0,27226.0,43730.0,12117.0,8460.0
2026-05-06 16:04:41.613927,573660,1609505745081196,3344993686,-1.274656,-0.122976,-0.128832,-13.72875,1.47,-1.365,48.808002,-40.08,-45.952003,eccentric,5,5.0,17774.0,22974.0,65843.0,75875.0,16605.0,29939.0,27226.0,43730.0,12117.0,8460.0
2026-05-06 16:04:41.622703,573661,1609505745090132,3345002430,-1.274656,-0.122976,-0.128832,-11.36625,1.2775,-1.4525,48.808002,-40.08,-45.952003,eccentric,5,5.0,17774.0,22974.0,65843.0,75875.0,16605.0,29939.0,27226.0,43730.0,12117.0,8460.0
2026-05-06 16:04:41.637963,573662,1609505745104638,3345017334,-1.264896,-0.070272,-0.144448,-5.845,0.455,-0.28,48.592003,-40.24,-45.960003,eccentric,5,5.0,17774.0,22974.0,65843.0,75875.0,16605.0,29939.0,27226.0,43730.0,12117.0,8460.0
2026-05-06 16:04:41.645039,573663,1609505745113572,3345026048,-1.216096,-0.07808,-0.08784,-2.28375,-0.67375,1.46125,48.592003,-40.24,-47.688004,eccentric,5,5.0,17774.0,22974.0,65843.0,75875.0,16605.0,29939.0,27226.0,43730.0,12117.0,8460.0
2026-05-06 16:04:41.686302,573674,1609505745128431,3345041227,-1.216096,-0.07808,-0.08784,-4.47125,-1.1375,2.09125,47.944004,-40.168003,-47.688004,eccentric,5,5.0,17709.0,22940.0,65721.0,75775.0,16541.0,29886.0,27227.0,43692.0,12081.0,8435.0
2026-05-06 16:04:41.688897,573675,1609505745137547,3345049984,-1.243424,-0.130784,-0.081984,-9.511251,-0.56875,0.8225,48.032,-40.688004,-46.784,eccentric,5,5.0,17709.0,22940.0,65721.0,75775.0,16541.0,29886.0,27227.0,43692.0,12081.0,8435.0
2026-05-06 16:04:41.691363,573676,1609505745146596,3345058787,-1.243424,-0.130784,-0.081984,-13.67625,0.035,0.06125,48.032,-40.688004,-46.784,eccentric,5,5.0,17709.0,22940.0,65721.0,75775.0,16541.0,29886.0,27227.0,43692.0,12081.0,8435.0
2026-05-06 16:04:41.693884,573677,1609505745161174,3345073744,-1.235616,-0.11712,-0.095648,-11.261251,-0.76125,2.21375,48.128002,-38.456,-47.08,eccentric,5,5.0,17709.0,22940.0,65721.0,75775.0,16541.0,29886.0,27227.0,43692.0,12081.0,8435.0
2026-05-06 16:04:41.718952,573678,1609505745170161,3345082537,-1.235616,-0.11712,-0.095648,-6.69375,-0.98875,5.18,48.128002,-38.456,-47.08,eccentric,5,5.0,17709.0,22940.0,65721.0,75775.0,16541.0,29886.0,27227.0,43692.0,12081.0,8435.0
2026-05-06 16:04:41.743778,573679,1609505745184684,3345095448,-1.186816,-0.037088,-0.101504,-6.57125,-1.19,6.88625,47.960003,-41.2,-45.424004,eccentric,5,5.0,17709.0,22940.0,65721.0,75775.0,16541.0,29886.0,27227.0,43692.0,12081.0,8435.0
2026-05-06 16:04:41.750132,573680,1609505745193867,3345106316,-1.186816,-0.050752,-0.167872,-5.0925,-0.20125,5.60875,47.960003,-41.2,-45.424004,eccentric,5,5.0,17709.0,22940.0,65721.0,75775.0,16541.0,29886.0,27227.0,43692.0,12081.0,8435.0
2026-05-06 16:04:41.752573,573681,1609505745202909,3345115053,-1.257088,-0.050752,-0.167872,-9.1525,-0.41125,1.2775,46.88,-39.496002,-48.04,eccentric,5,5.0,17709.0,22940.0,65721.0,75775.0,16541.0,29886.0,27227.0,43692.0,12081.0,8435.0
2026-05-06 16:04:41.755081,573682,1609505745217671,3345130059,-1.192672,-0.091744,-0.095648,-10.45625,-0.37625,-0.49,47.384003,-38.392002,-47.168003,eccentric,5,5.0,17709.0,22940.0,65721.0,75775.0,16541.0,29886.0,27227.0,43692.0,12081.0,8435.0
2026-05-06 16:04:41.758756,573683,1609505745226694,3345138790,-1.192672,-0.091744,-0.095648,-10.15,-0.46375,2.24875,47.384003,-38.392002,-47.168003,eccentric,5,5.0,17709.0,22940.0,65721.0,75775.0,16541.0,29886.0,27227.0,43692.0,12081.0,8435.0
2026-05-06 16:04:41.788666,573694,1609505745241258,3345153879,-1.184864,-0.105408,-0.12688,-9.2575,-0.69125,5.64375,46.904003,-40.2,-45.952003,eccentric,5,5.0,17641.0,23008.0,65825.0,75728.0,16491.0,29955.0,27271.0,43625.0,12056.0,8481.0
2026-05-06 16:04:41.791186,573695,1609505745250334,3345162670,-1.184864,-0.105408,-0.12688,-5.1625,-1.58375,5.95,46.904003,-40.2,-45.952003,eccentric,5,5.0,17641.0,23008.0,65825.0,75728.0,16491.0,29955.0,27271.0,43625.0,12056.0,8481.0
2026-05-06 16:04:41.793727,573696,1609505745259316,3345171401,-1.175104,-0.115168,-0.119072,-4.935,-1.96875,4.05125,46.264004,-40.392002,-45.048,eccentric,5,5.0,17641.0,23008.0,65825.0,75728.0,16491.0,29955.0,27271.0,43625.0,12056.0,8481.0
2026-05-06 16:04:41.807638,573697,1609505745273929,3345186504,-1.175104,-0.115168,-0.119072,-3.28125,-2.1525,4.78625,46.264004,-40.392002,-45.048,eccentric,5,5.0,17641.0,23008.0,65825.0,75728.0,16491.0,29955.0,27271.0,43625.0,12056.0,8481.0
2026-05-06 16:04:41.820017,573698,1609505745282873,3345195253,-1.130208,-0.050752,-0.052704,-0.48125,-2.8525,7.455,46.304,-40.248,-46.424004,eccentric,5,5.0,17641.0,23008.0,65825.0,75728.0,16491.0,29955.0,27271.0,43625.0,12056.0,8481.0
2026-05-06 16:04:41.831274,573699,1609505745297475,3345208231,-1.149728,-0.00976,-0.064416,-3.5875,-2.7125,8.4525,45.928,-39.008003,-46.664,eccentric,5,5.0,17641.0,23008.0,65825.0,75728.0,16491.0,29955.0,27271.0,43625.0,12056.0,8481.0
2026-05-06 16:04:41.843744,573700,1609505745306871,3345219079,-1.149728,-0.00976,-0.064416,-9.68625,-1.54,6.11625,45.928,-39.008003,-46.664,eccentric,5,5.0,17641.0,23008.0,65825.0,75728.0,16491.0,29955.0,27271.0,43625.0,12056.0,8481.0
2026-05-06 16:04:41.850158,573701,1609505745317266,3345229905,-1.169248,-0.042944,-0.121024,-13.5275,-1.32125,3.12375,45.472004,-38.344,-47.592003,eccentric,5,5.0,17641.0,23008.0,65825.0,75728.0,16491.0,29955.0,27271.0,43625.0,12056.0,8481.0
2026-05-06 16:04:41.886339,573712,1609505745332323,3345244917,-1.169248,-0.042944,-0.121024,-12.03125,-1.61875,2.4675,45.472004,-38.344,-47.592003,eccentric,5,5.0,17570.0,23054.0,65948.0,75775.0,16429.0,30047.0,27384.0,43622.0,11985.0,8521.0
2026-05-06 16:04:41.888915,573713,1609505745341391,3345253725,-1.06384,-0.080032,-0.056608,-10.2025,-2.6075,4.64625,45.416,-40.272003,-46.504,eccentric,5,5.0,17570.0,23054.0,65948.0,75775.0,16429.0,30047.0,27384.0,43622.0,11985.0,8521.0
2026-05-06 16:04:41.891385,573714,1609505745350364,3345262451,-1.06384,-0.080032,-0.056608,-7.98875,-1.75875,6.3175,45.416,-40.272003,-46.504,eccentric,5,5.0,17570.0,23054.0,65948.0,75775.0,16429.0,30047.0,27384.0,43622.0,11985.0,8521.0
2026-05-06 16:04:41.897653,573715,1609505745364886,3345277395,-1.08336,-0.115168,-0.076128,-8.4525,-0.77,5.74875,45.088,-38.584003,-47.904003,eccentric,5,5.0,17570.0,23054.0,65948.0,75775.0,16429.0,30047.0,27384.0,43622.0,11985.0,8521.0
2026-05-06 16:04:41.906403,573716,1609505745373818,3345286081,-1.08336,-0.115168,-0.076128,-12.04875,0.4375,4.515,45.088,-38.584003,-47.904003,eccentric,5,5.0,17570.0,23054.0,65948.0,75775.0,16429.0,30047.0,27384.0,43622.0,11985.0,8521.0
2026-05-06 16:04:41.924462,573717,1609505745388478,3345301080,-1.106784,-0.040992,-0.081984,-12.04,0.49875,4.935,44.592003,-39.904003,-49.208004,eccentric,5,5.0,17570.0,23054.0,65948.0,75775.0,16429.0,30047.0,27384.0,43622.0,11985.0,8521.0
2026-05-06 16:04:41.933615,573718,1609505745397427,3345309789,-1.057984,-0.00976,-0.115168,-7.2625,0.6475,6.20375,44.288002,-40.344,-46.864002,eccentric,5,5.0,17570.0,23054.0,65948.0,75775.0,16429.0,30047.0,27384.0,43622.0,11985.0,8521.0
2026-05-06 16:04:41.942454,573719,1609505745411937,3345322699,-1.057984,-0.00976,-0.115168,-4.1125,0.49,6.615,44.288002,-40.344,-46.864002,eccentric,5,5.0,17570.0,23054.0,65948.0,75775.0,16429.0,30047.0,27384.0,43622.0,11985.0,8521.0
2026-05-06 16:04:41.956232,573720,1609505745421140,3345333468,-1.01504,-0.060512,-0.10736,-5.0575,0.48125,5.90625,44.016003,-38.656002,-47.896004,eccentric,5,5.0,17570.0,23054.0,65948.0,75775.0,16429.0,30047.0,27384.0,43622.0,11985.0,8521.0
2026-05-06 16:04:42.016167,573731,1609505745430246,3345342240,-1.01504,-0.060512,-0.10736,-6.97375,0.65625,4.83875,44.016003,-38.656002,-47.896004,eccentric,5,5.0,17672.0,23311.0,66159.0,75962.0,16545.0,30331.0,27497.0,43695.0,12066.0,8612.0
2026-05-06 16:04:42.018763,573732,1609505745445022,3345357197,-0.99552,-0.08784,-0.089792,-9.38,0.91875,4.41,43.320004,-41.88,-45.416,eccentric,5,5.0,17672.0,23311.0,66159.0,75962.0,16545.0,30331.0,27497.0,43695.0,12066.0,8612.0
2026-05-06 16:04:42.021241,573733,1609505745454046,3345365947,-0.99552,-0.08784,-0.089792,-10.33375,1.04125,5.355,43.320004,-41.88,-45.416,eccentric,5,5.0,17672.0,23311.0,66159.0,75962.0,16545.0,30331.0,27497.0,43695.0,12066.0,8612.0
2026-05-06 16:04:42.023751,573734,1609505745468579,3345380861,-0.98576,-0.0488,-0.109312,-10.325,1.56625,7.1225,43.272003,-38.696003,-50.752003,eccentric,5,5.0,17672.0,23311.0,66159.0,75962.0,16545.0,30331.0,27497.0,43695.0,12066.0,8612.0
2026-05-06 16:04:42.026265,573735,1609505745477523,3345389589,-1.00528,-0.050752,-0.06832,-9.54625,1.18125,7.16625,43.096,-38.584003,-49.440002,eccentric,5,5.0,17672.0,23311.0,66159.0,75962.0,16545.0,30331.0,27497.0,43695.0,12066.0,8612.0
2026-05-06 16:04:42.028747,573736,1609505745486439,3345398278,-1.00528,-0.050752,-0.06832,-5.95,1.575,5.01375,43.096,-38.584003,-49.440002,eccentric,5,5.0,17672.0,23311.0,66159.0,75962.0,16545.0,30331.0,27497.0,43695.0,12066.0,8612.0
2026-05-06 16:04:42.035156,573737,1609505745500963,3345413256,-0.991616,-0.040992,-0.06832,-2.91375,1.3825,4.2525,42.992,-38.272003,-48.424004,eccentric,5,5.0,17672.0,23311.0,66159.0,75962.0,16545.0,30331.0,27497.0,43695.0,12066.0,8612.0
2026-05-06 16:04:42.041255,573738,1609505745509890,3345422022,-0.991616,-0.040992,-0.06832,0.0175,0.09625,5.8975,42.992,-38.272003,-48.424004,eccentric,5,5.0,17672.0,23311.0,66159.0,75962.0,16545.0,30331.0,27497.0,43695.0,12066.0,8612.0
2026-05-06 16:04:42.080110,573739,1609505745524490,3345437151,-0.952576,-0.013664,-0.021472,-0.8925,0.14875,7.4375,42.376003,-39.304,-47.56,eccentric,5,5.0,17672.0,23311.0,66159.0,75962.0,16545.0,30331.0,27497.0,43695.0,12066.0,8612.0
2026-05-06 16:04:42.167630,573750,1609505745534178,3345445942,-0.952576,-0.013664,-0.021472,-5.57375,1.00625,6.7375,42.376003,-39.304,-47.56,eccentric,5,5.0,17726.0,23420.0,66320.0,76180.0,16577.0,30514.0,27635.0,43871.0,12094.0,8712.0
2026-05-06 16:04:42.172727,573751,1609505745543247,3345454777,-0.989664,-0.0488,-0.15616,-11.61125,1.91625,4.305,42.536003,-38.792004,-48.616,eccentric,5,5.0,17726.0,23420.0,66320.0,76180.0,16577.0,30514.0,27635.0,43871.0,12094.0,8712.0
2026-05-06 16:04:42.175267,573752,1609505745557757,3345469706,-1.003328,-0.095648,-0.122976,-13.440001,2.26625,1.995,42.488003,-38.624,-49.488003,eccentric,5,5.0,17726.0,23420.0,66320.0,76180.0,16577.0,30514.0,27635.0,43871.0,12094.0,8712.0
2026-05-06 16:04:42.177646,573753,1609505745566714,3345478432,-1.003328,-0.095648,-0.122976,-11.2875,1.75,2.065,42.488003,-38.624,-49.488003,eccentric,5,5.0,17726.0,23420.0,66320.0,76180.0,16577.0,30514.0,27635.0,43871.0,12094.0,8712.0
2026-05-06 16:04:42.180226,573754,1609505745581205,3345493384,-0.964288,-0.076128,-0.025376,-6.4925,0.0175,3.71,41.848003,-38.576,-49.04,eccentric,5,5.0,17726.0,23420.0,66320.0,76180.0,16577.0,30514.0,27635.0,43871.0,12094.0,8712.0
2026-05-06 16:04:42.182671,573755,1609505745590104,3345502099,-0.964288,-0.076128,-0.025376,2.35375,-1.02375,5.64375,41.848003,-38.576,-49.04,eccentric,5,5.0,17726.0,23420.0,66320.0,76180.0,16577.0,30514.0,27635.0,43871.0,12094.0,8712.0
2026-05-06 16:04:42.185225,573756,1609505745599064,3345510797,-0.960384,-0.001952,-0.007808,8.00625,-0.77875,6.8775,41.760002,-38.856003,-49.512,eccentric,5,5.0,17726.0,23420.0,66320.0,76180.0,16577.0,30514.0,27635.0,43871.0,12094.0,8712.0
2026-05-06 16:04:42.190238,573757,1609505745613585,3345525748,-0.960384,-0.001952,-0.007808,8.86375,-0.37625,6.22125,41.760002,-38.856003,-49.512,eccentric,5,5.0,17726.0,23420.0,66320.0,76180.0,16577.0,30514.0,27635.0,43871.0,12094.0,8712.0
2026-05-06 16:04:42.195280,573758,1609505745622566,3345534483,-0.997472,0.023424,-0.052704,7.76125,0.06125,4.62,41.592003,-39.056004,-49.440002,eccentric,5,5.0,17726.0,23420.0,66320.0,76180.0,16577.0,30514.0,27635.0,43871.0,12094.0,8712.0
2026-05-06 16:04:42.220127,573769,1609505745637322,3345549497,-0.997472,-0.007808,-0.101504,3.00125,0.70875,2.24,41.592003,-39.056004,-49.440002,eccentric,5,5.0,17596.0,23301.0,66354.0,76396.0,16485.0,30445.0,27639.0,43997.0,12008.0,8663.0
2026-05-06 16:04:42.222626,573770,1609505745646314,3345558230,-1.028704,-0.007808,-0.101504,-2.975,0.525,1.3125,41.168003,-39.424004,-47.744003,eccentric,5,5.0,17596.0,23301.0,66354.0,76396.0,16485.0,30445.0,27639.0,43997.0,12008.0,8663.0
2026-05-06 16:04:42.225212,573771,1609505745660855,3345573314,-0.987712,-0.05856,-0.056608,-3.75375,-0.2975,1.46125,41.112003,-39.104,-49.392002,eccentric,5,5.0,17596.0,23301.0,66354.0,76396.0,16485.0,30445.0,27639.0,43997.0,12008.0,8663.0
2026-05-06 16:04:42.227573,573772,1609505745669883,3345582073,-0.987712,-0.05856,-0.056608,-2.87875,-1.575,1.155,41.112003,-39.104,-49.392002,eccentric,5,5.0,17596.0,23301.0,66354.0,76396.0,16485.0,30445.0,27639.0,43997.0,12008.0,8663.0
2026-05-06 16:04:42.230195,573773,1609505745678925,3345590847,-0.983808,-0.050752,-0.042944,2.77375,-2.14375,0.6125,41.160004,-38.568,-49.112003,eccentric,5,5.0,17596.0,23301.0,66354.0,76396.0,16485.0,30445.0,27639.0,43997.0,12008.0,8663.0
2026-05-06 16:04:42.232591,573774,1609505745693515,3345605846,-0.983808,-0.050752,-0.042944,8.5925,-1.82,1.0675,41.160004,-38.568,-49.112003,eccentric,5,5.0,17596.0,23301.0,66354.0,76396.0,16485.0,30445.0,27639.0,43997.0,12008.0,8663.0
2026-05-06 16:04:42.235232,573775,1609505745702463,3345614540,-1.01504,0.017568,-0.040992,9.415,-1.28625,2.2225,40.624,-41.36,-48.392002,eccentric,5,5.0,17596.0,23301.0,66354.0,76396.0,16485.0,30445.0,27639.0,43997.0,12008.0,8663.0
2026-05-06 16:04:42.268907,573776,1609505745717033,3345629509,-1.01504,0.017568,-0.040992,5.59125,-0.77,2.12625,40.624,-41.36,-48.392002,eccentric,5,5.0,17596.0,23301.0,66354.0,76396.0,16485.0,30445.0,27639.0,43997.0,12008.0,8663.0
2026-05-06 16:04:42.271419,573777,1609505745725947,3345638252,-1.01504,-0.01952,-0.046848,3.05375,-1.295,1.225,40.496002,-38.936,-51.296,eccentric,5,5.0,17596.0,23301.0,66354.0,76396.0,16485.0,30445.0,27639.0,43997.0,12008.0,8663.0
2026-05-06 16:04:42.303750,573788,1609505745735540,3345647172,-1.01504,-0.01952,-0.046848,-3.31625,-1.0675,0.95375,40.496002,-38.936,-51.296,eccentric,5,5.0,17415.0,23092.0,66306.0,76535.0,16352.0,30264.0,27649.0,44083.0,11914.0,8591.0
2026-05-06 16:04:42.305179,573789,1609505745750178,3345662229,-1.018944,-0.052704,0.0,-5.6525,-2.37125,2.3625,40.592003,-39.328003,-50.008003,eccentric,5,5.0,17415.0,23092.0,66306.0,76535.0,16352.0,30264.0,27649.0,44083.0,11914.0,8591.0
2026-05-06 16:04:42.307101,573790,1609505745759171,3345670946,-1.001376,-0.037088,0.005856,-1.7675,-4.03375,3.4475,40.352,-39.088,-47.528004,eccentric,5,5.0,17415.0,23092.0,66306.0,76535.0,16352.0,30264.0,27649.0,44083.0,11914.0,8591.0
2026-05-06 16:04:42.308506,573791,1609505745773728,3345685892,-1.001376,-0.037088,0.005856,2.19625,-4.9175,5.38125,40.352,-39.088,-47.528004,eccentric,5,5.0,17415.0,23092.0,66306.0,76535.0,16352.0,30264.0,27649.0,44083.0,11914.0,8591.0
2026-05-06 16:04:42.314767,573792,1609505745782784,3345694708,-1.020896,0.011712,-0.017568,4.76875,-4.7425,9.4675,40.288002,-39.336002,-50.432003,eccentric,5,5.0,17415.0,23092.0,66306.0,76535.0,16352.0,30264.0,27649.0,44083.0,11914.0,8591.0
2026-05-06 16:04:42.323605,573793,1609505745791683,3345703417,-1.020896,0.011712,-0.017568,3.5175,-5.46875,11.7425,40.288002,-39.336002,-50.432003,eccentric,5,5.0,17415.0,23092.0,66306.0,76535.0,16352.0,30264.0,27649.0,44083.0,11914.0,8591.0
2026-05-06 16:04:42.337590,573794,1609505745806156,3345718338,-1.057984,-0.011712,-0.089792,-0.735,-5.92375,12.60875,39.736,-39.472,-49.984,eccentric,5,5.0,17415.0,23092.0,66306.0,76535.0,16352.0,30264.0,27649.0,44083.0,11914.0,8591.0
2026-05-06 16:04:42.351282,573795,1609505745815111,3345727181,-1.057984,-0.011712,-0.089792,-6.405,-6.97375,14.11375,39.736,-39.472,-49.984,eccentric,5,5.0,17415.0,23092.0,66306.0,76535.0,16352.0,30264.0,27649.0,44083.0,11914.0,8591.0
2026-05-06 16:04:42.365311,573796,1609505745829805,3345742090,-1.052128,-0.013664,-0.042944,-8.54875,-7.84875,16.1875,39.408,-40.208,-49.792004,eccentric,5,5.0,17415.0,23092.0,66306.0,76535.0,16352.0,30264.0,27649.0,44083.0,11914.0,8591.0
2026-05-06 16:04:42.392288,573807,1609505745838884,3345750902,-1.036512,0.007808,-0.06832,-4.71625,-9.31,16.94875,39.408,-40.208,-50.008003,eccentric,5,5.0,17328.0,23071.0,66382.0,76874.0,16283.0,30262.0,27668.0,44253.0,11853.0,8599.0
2026-05-06 16:04:42.397495,573808,1609505745853484,3345765889,-1.032608,0.007808,-0.06832,0.945,-10.21125,15.30375,39.384003,-39.984,-50.008003,eccentric,5,5.0,17328.0,23071.0,66382.0,76874.0,16283.0,30262.0,27668.0,44253.0,11853.0,8599.0
2026-05-06 16:04:42.400098,573809,1609505745862484,3345774556,-1.009184,0.089792,-0.017568,8.21625,-10.61375,13.6325,38.936,-42.160004,-48.896004,eccentric,5,5.0,17328.0,23071.0,66382.0,76874.0,16283.0,30262.0,27668.0,44253.0,11853.0,8599.0
2026-05-06 16:04:42.402573,573810,1609505745871431,3345783264,-1.009184,0.089792,-0.017568,14.245,-10.68375,12.48625,38.936,-42.160004,-48.896004,eccentric,5,5.0,17328.0,23071.0,66382.0,76874.0,16283.0,30262.0,27668.0,44253.0,11853.0,8599.0
2026-05-06 16:04:42.441373,573811,1609505745885894,3345798234,-1.04432,0.103456,-0.076128,13.36125,-11.10375,9.89625,38.232002,-42.312,-49.032,eccentric,5,5.0,17328.0,23071.0,66382.0,76874.0,16283.0,30262.0,27668.0,44253.0,11853.0,8599.0
2026-05-06 16:04:42.466365,573812,1609505745894803,3345806935,-1.04432,0.103456,-0.076128,8.86375,-11.375,7.5075,38.232002,-42.312,-49.032,eccentric,5,5.0,17328.0,23071.0,66382.0,76874.0,16283.0,30262.0,27668.0,44253.0,11853.0,8599.0
2026-05-06 16:04:42.491204,573813,1609505745909406,3345821837,-1.00528,0.054656,0.015616,4.03375,-11.865,5.76625,38.344,-40.472,-50.176003,eccentric,5,5.0,17328.0,23071.0,66382.0,76874.0,16283.0,30262.0,27668.0,44253.0,11853.0,8599.0
2026-05-06 16:04:42.502589,573814,1609505745918372,3345830555,-1.00528,0.054656,0.015616,0.2975,-11.3925,4.2,38.344,-40.472,-50.176003,eccentric,5,5.0,17328.0,23071.0,66382.0,76874.0,16283.0,30262.0,27668.0,44253.0,11853.0,8599.0
2026-05-06 16:04:42.530211,573825,1609505745933268,3345846035,-0.979904,0.054656,-0.025376,2.16125,-11.34875,3.15875,38.008003,-40.464,-52.248,eccentric,5,5.0,17240.0,23136.0,66410.0,77701.0,16203.0,30332.0,27726.0,44637.0,11794.0,8630.0
2026-05-06 16:04:42.532593,573826,1609505745942425,3345854778,-0.987712,0.11712,0.011712,5.92375,-10.43875,2.3625,38.008003,-41.072002,-49.632004,eccentric,5,5.0,17240.0,23136.0,66410.0,77701.0,16203.0,30332.0,27726.0,44637.0,11794.0,8630.0
2026-05-06 16:04:42.535085,573827,1609505745951393,3345863604,-0.987712,0.11712,0.011712,6.08125,-9.625,-0.35875,38.008003,-41.072002,-49.632004,eccentric,5,5.0,17240.0,23136.0,66410.0,77701.0,16203.0,30332.0,27726.0,44637.0,11794.0,8630.0
2026-05-06 16:04:42.537716,573828,1609505745965869,3345878543,-1.001376,0.066368,-0.03904,4.80375,-8.8375,-4.235,38.128002,-40.592003,-50.320004,eccentric,5,5.0,17240.0,23136.0,66410.0,77701.0,16203.0,30332.0,27726.0,44637.0,11794.0,8630.0
2026-05-06 16:04:42.540275,573829,1609505745974764,3345887366,-1.001376,0.066368,-0.03904,3.54375,-9.75625,-6.20375,38.128002,-40.592003,-50.320004,eccentric,5,5.0,17240.0,23136.0,66410.0,77701.0,16203.0,30332.0,27726.0,44637.0,11794.0,8630.0
2026-05-06 16:04:42.542624,573830,1609505745989406,3345900313,-1.003328,0.005856,-0.03904,3.7625,-8.44375,-5.355,38.024002,-40.864002,-49.952003,eccentric,5,5.0,17240.0,23136.0,66410.0,77701.0,16203.0,30332.0,27726.0,44637.0,11794.0,8630.0
2026-05-06 16:04:42.545268,573831,1609505745998810,3345911108,-1.003328,0.005856,-0.03904,8.2425,-8.58375,-5.46,38.024002,-40.864002,-49.952003,eccentric,5,5.0,17240.0,23136.0,66410.0,77701.0,16203.0,30332.0,27726.0,44637.0,11794.0,8630.0
2026-05-06 16:04:42.547717,573832,1609505746007761,3345919853,-0.979904,0.033184,0.021472,15.18125,-8.295,-5.39875,38.08,-40.208,-49.456,eccentric,5,5.0,17240.0,23136.0,66410.0,77701.0,16203.0,30332.0,27726.0,44637.0,11794.0,8630.0
2026-05-06 16:04:42.556388,573833,1609505746022305,3345934834,-1.040416,0.103456,-0.00976,24.73625,-7.70875,-5.5825,37.832,-40.512,-49.776,eccentric,5,5.0,17240.0,23136.0,66410.0,77701.0,16203.0,30332.0,27726.0,44637.0,11794.0,8630.0
2026-05-06 16:04:42.565252,573834,1609505746031246,3345943564,-1.040416,0.103456,-0.00976,26.6175,-8.49625,-4.54125,37.832,-40.512,-49.776,eccentric,5,5.0,17240.0,23136.0,66410.0,77701.0,16203.0,30332.0,27726.0,44637.0,11794.0,8630.0
2026-05-06 16:04:42.592474,573845,1609505746045817,3345958638,-1.048224,0.08784,-0.042944,18.10375,-8.68875,0.13125,37.72,-42.496002,-49.576004,eccentric,5,5.0,17224.0,23108.0,66477.0,78457.0,16244.0,30373.0,27739.0,45078.0,11814.0,8628.0
2026-05-06 16:04:42.595079,573846,1609505746054846,3345967348,-1.048224,0.08784,-0.042944,8.1725,-7.95375,2.77375,37.72,-42.496002,-49.576004,eccentric,5,5.0,17224.0,23108.0,66477.0,78457.0,16244.0,30373.0,27739.0,45078.0,11814.0,8628.0
2026-05-06 16:04:42.600101,573847,1609505746063843,3345976075,-1.075552,-0.005856,-0.03904,2.905,-6.65,0.77,37.696003,-42.864002,-49.488003,eccentric,5,5.0,17224.0,23108.0,66477.0,78457.0,16244.0,30373.0,27739.0,45078.0,11814.0,8628.0
2026-05-06 16:04:42.613739,573848,1609505746078551,3345991059,-1.075552,-0.005856,-0.03904,4.48875,-6.06375,-1.33,37.696003,-42.864002,-49.488003,eccentric,5,5.0,17224.0,23108.0,66477.0,78457.0,16244.0,30373.0,27739.0,45078.0,11814.0,8628.0
2026-05-06 16:04:42.645302,573849,1609505746087569,3345999779,-1.100928,0.0,-0.050752,10.6925,-5.99375,-1.28625,37.664,-40.84,-50.344,eccentric,5,5.0,17224.0,23108.0,66477.0,78457.0,16244.0,30373.0,27739.0,45078.0,11814.0,8628.0
2026-05-06 16:04:42.647696,573850,1609505746102070,3346014687,-1.071648,0.050752,-0.05856,20.37,-6.18625,-0.81375,37.624,-41.104,-50.912003,eccentric,5,5.0,17224.0,23108.0,66477.0,78457.0,16244.0,30373.0,27739.0,45078.0,11814.0,8628.0
2026-05-06 16:04:42.650287,573851,1609505746110997,3346023379,-1.071648,0.050752,-0.05856,28.49,-7.37625,-0.02625,37.624,-41.104,-50.912003,eccentric,5,5.0,17224.0,23108.0,66477.0,78457.0,16244.0,30373.0,27739.0,45078.0,11814.0,8628.0
2026-05-06 16:04:42.652726,573852,1609505746120004,3346032140,-1.071648,0.050752,-0.05856,31.14125,-7.56,2.345,37.624,-41.104,-50.912003,eccentric,5,5.0,17224.0,23108.0,66477.0,78457.0,16244.0,30373.0,27739.0,45078.0,11814.0,8628.0
2026-05-06 16:04:42.691216,573863,1609505746134523,3346047259,-1.042368,0.066368,0.011712,25.3575,-6.895,2.205,37.504,-44.336002,-49.928,eccentric,5,5.0,17213.0,22969.0,66512.0,78274.0,16272.0,30297.0,27739.0,45010.0,11840.0,8615.0
2026-05-06 16:04:42.693781,573864,1609505746143550,3346056090,-1.069696,0.025376,-0.01952,20.9475,-5.27625,-0.56875,37.696003,-41.904003,-51.352,eccentric,5,5.0,17213.0,22969.0,66512.0,78274.0,16272.0,30297.0,27739.0,45010.0,11840.0,8615.0
2026-05-06 16:04:42.696284,573865,1609505746158163,3346068971,-1.069696,0.025376,-0.01952,18.235,-4.31375,-2.51125,37.696003,-41.904003,-51.352,eccentric,5,5.0,17213.0,22969.0,66512.0,78274.0,16272.0,30297.0,27739.0,45010.0,11840.0,8615.0
2026-05-06 16:04:42.698833,573866,1609505746167427,3346079832,-1.03456,0.037088,-0.001952,15.68,-3.01,-2.26625,37.440002,-41.144,-51.472004,eccentric,5,5.0,17213.0,22969.0,66512.0,78274.0,16272.0,30297.0,27739.0,45010.0,11840.0,8615.0
2026-05-06 16:04:42.712496,573867,1609505746181952,3346092841,-1.081408,0.03904,-0.03904,15.61,-1.6625,-3.0275,37.704002,-41.72,-50.152004,eccentric,5,5.0,17213.0,22969.0,66512.0,78274.0,16272.0,30297.0,27739.0,45010.0,11840.0,8615.0
2026-05-06 16:04:42.726393,573868,1609505746191278,3346103659,-1.081408,0.03904,-0.03904,17.01875,-1.82875,-5.45125,37.704002,-41.72,-50.152004,eccentric,5,5.0,17213.0,22969.0,66512.0,78274.0,16272.0,30297.0,27739.0,45010.0,11840.0,8615.0
2026-05-06 16:04:42.732653,573869,1609505746200363,3346112391,-1.081408,0.03904,-0.03904,18.147501,-1.925,-7.04375,37.704002,-41.72,-50.152004,eccentric,5,5.0,17213.0,22969.0,66512.0,78274.0,16272.0,30297.0,27739.0,45010.0,11840.0,8615.0
