pc_time,serial_num,sensor_ts,host_ts,ax,ay,az,gx,gy,gz,mx,my,mz,phase,rpe,weight_kg,ppg_a,ppg_b,ppg_c,ppg_d,ppg_e,ppg_f,ppg_g,ppg_h,ppg_i,ppg_j
2026-05-06 15:51:08.321456,420616,1609504931818635,2531730928,0.88816,-0.054656,0.181536,-4.69875,2.1175,-4.34875,-40.624,-18.392,-80.152,concentric,4,5.0,34784.0,44147.0,72587.0,99448.0,30927.0,52027.0,30154.0,55358.0,20253.0,17947.0
2026-05-06 15:51:08.327403,420617,1609504931827549,2531739678,0.872544,-0.044896,0.203008,-5.50375,2.45875,-3.395,-40.744003,-18.352001,-82.824005,concentric,4,5.0,34784.0,44147.0,72587.0,99448.0,30927.0,52027.0,30154.0,55358.0,20253.0,17947.0
2026-05-06 15:51:08.361322,420618,1609504931842032,2531754592,0.894016,-0.064416,0.191296,-8.68,2.44125,-1.58375,-40.688004,-18.152,-80.536,concentric,4,5.0,34784.0,44147.0,72587.0,99448.0,30927.0,52027.0,30154.0,55358.0,20253.0,17947.0
2026-05-06 15:51:08.389067,420629,1609504931851514,2531763508,0.894016,-0.064416,0.191296,-9.485,1.72375,-0.9275,-40.688004,-18.152,-80.536,concentric,4,5.0,35492.0,44660.0,73028.0,99896.0,31549.0,52509.0,30401.0,55640.0,20535.0,18116.0
2026-05-06 15:51:08.395064,420630,1609504931866043,2531778471,0.870592,-0.0488,0.22448,-7.84,1.54,-1.47875,-40.856003,-18.224,-80.07201,concentric,4,5.0,35492.0,44660.0,73028.0,99896.0,31549.0,52509.0,30401.0,55640.0,20535.0,18116.0
2026-05-06 15:51:08.397583,420631,1609504931874984,2531787258,0.870592,-0.0488,0.22448,-5.145,1.47,-1.47875,-40.856003,-18.224,-80.07201,concentric,4,5.0,35492.0,44660.0,73028.0,99896.0,31549.0,52509.0,30401.0,55640.0,20535.0,18116.0
2026-05-06 15:51:08.399969,420632,1609504931884184,2531796075,0.847168,-0.0488,0.17568,-2.42375,1.21625,-0.8575,-41.208,-20.088001,-79.200005,concentric,4,5.0,35492.0,44660.0,73028.0,99896.0,31549.0,52509.0,30401.0,55640.0,20535.0,18116.0
2026-05-06 15:51:08.402316,420633,1609504931898720,2531811027,0.847168,-0.0488,0.17568,-3.6575,1.7325,0.2625,-41.208,-20.088001,-79.200005,concentric,4,5.0,35492.0,44660.0,73028.0,99896.0,31549.0,52509.0,30401.0,55640.0,20535.0,18116.0
2026-05-06 15:51:08.408802,420634,1609504931907665,2531819751,0.831552,-0.080032,0.173728,-6.58875,2.0475,1.33,-40.936,-19.904001,-79.344,concentric,4,5.0,35492.0,44660.0,73028.0,99896.0,31549.0,52509.0,30401.0,55640.0,20535.0,18116.0
2026-05-06 15:51:08.443921,420635,1609504931922367,2531834709,0.813984,-0.095648,0.160064,-8.47875,1.51375,2.07375,-40.904003,-18.224,-79.0,concentric,4,5.0,35492.0,44660.0,73028.0,99896.0,31549.0,52509.0,30401.0,55640.0,20535.0,18116.0
2026-05-06 15:51:08.468987,420636,1609504931931489,2531843509,0.813984,-0.095648,0.160064,-8.295,0.8225,3.6925,-40.904003,-18.224,-79.0,concentric,4,5.0,35492.0,44660.0,73028.0,99896.0,31549.0,52509.0,30401.0,55640.0,20535.0,18116.0
2026-05-06 15:51:08.493970,420637,1609504931940425,2531852212,0.813984,-0.095648,0.201056,-7.93625,0.02625,4.87375,-40.904003,-18.224,-79.0,concentric,4,5.0,35492.0,44660.0,73028.0,99896.0,31549.0,52509.0,30401.0,55640.0,20535.0,18116.0
2026-05-06 15:51:08.535140,420648,1609504931955136,2531867834,0.802272,-0.089792,0.201056,-7.91,-0.9975,7.20125,-40.968002,-17.888,-80.032005,concentric,4,5.0,36191.0,45513.0,73709.0,100720.0,32119.0,53343.0,30707.0,56069.0,20823.0,18473.0
2026-05-06 15:51:08.537655,420649,1609504931964147,2531876527,0.7808,-0.074176,0.222528,-9.948751,-1.5225,9.135,-40.952003,-17.84,-79.736,concentric,4,5.0,36191.0,45513.0,73709.0,100720.0,32119.0,53343.0,30707.0,56069.0,20823.0,18473.0
2026-05-06 15:51:08.565182,420650,1609504931978652,2531889412,0.7808,-0.074176,0.222528,-13.5275,-1.42625,10.63125,-40.952003,-17.84,-79.736,concentric,4,5.0,36191.0,45513.0,73709.0,100720.0,32119.0,53343.0,30707.0,56069.0,20823.0,18473.0
2026-05-06 15:51:08.567691,420651,1609504931987826,2531900243,0.765184,-0.105408,0.191296,-16.23125,-1.91625,12.495,-41.120003,-17.832,-81.448006,concentric,4,5.0,36191.0,45513.0,73709.0,100720.0,32119.0,53343.0,30707.0,56069.0,20823.0,18473.0
2026-05-06 15:51:08.570244,420652,1609504931996770,2531908963,0.765184,-0.105408,0.191296,-16.8,-3.395,14.2625,-41.120003,-17.832,-81.448006,concentric,4,5.0,36191.0,45513.0,73709.0,100720.0,32119.0,53343.0,30707.0,56069.0,20823.0,18473.0
2026-05-06 15:51:08.576466,420653,1609504932011270,2531923972,0.74176,-0.140544,0.1952,-15.72375,-5.285,17.1675,-40.968002,-18.024,-79.472,concentric,4,5.0,36191.0,45513.0,73709.0,100720.0,32119.0,53343.0,30707.0,56069.0,20823.0,18473.0
2026-05-06 15:51:08.579023,420654,1609504932020224,2531932692,0.74176,-0.140544,0.1952,-14.28875,-7.77,20.615,-40.968002,-18.024,-79.472,concentric,4,5.0,36191.0,45513.0,73709.0,100720.0,32119.0,53343.0,30707.0,56069.0,20823.0,18473.0
2026-05-06 15:51:08.581595,420655,1609504932034940,2531947605,0.776896,-0.128832,0.177632,-13.4925,-9.7475,23.94875,-41.192,-18.488,-80.496,concentric,4,5.0,36191.0,45513.0,73709.0,100720.0,32119.0,53343.0,30707.0,56069.0,20823.0,18473.0
2026-05-06 15:51:08.584038,420656,1609504932044109,2531956397,0.732,-0.044896,0.191296,-16.14375,-11.22625,26.775,-41.160004,-18.688002,-79.312004,concentric,4,5.0,36191.0,45513.0,73709.0,100720.0,32119.0,53343.0,30707.0,56069.0,20823.0,18473.0
2026-05-06 15:51:08.615111,420667,1609504932058778,2531971604,0.732,-0.044896,0.191296,-17.5175,-12.5825,27.76375,-41.160004,-18.688002,-79.312004,concentric,4,5.0,36263.0,45783.0,73885.0,100485.0,32107.0,53506.0,30752.0,55888.0,20723.0,18485.0
2026-05-06 15:51:08.617609,420668,1609504932067717,2531980309,0.753472,-0.076128,0.203008,-18.75125,-13.93875,27.1425,-41.056004,-16.232,-80.408005,concentric,4,5.0,36263.0,45783.0,73885.0,100485.0,32107.0,53506.0,30752.0,55888.0,20723.0,18485.0
2026-05-06 15:51:08.620088,420669,1609504932076635,2531989073,0.753472,-0.076128,0.203008,-18.095,-16.07375,26.32,-41.056004,-16.232,-80.408005,concentric,4,5.0,36263.0,45783.0,73885.0,100485.0,32107.0,53506.0,30752.0,55888.0,20723.0,18485.0
2026-05-06 15:51:08.622604,420670,1609504932091141,2532002132,0.796416,-0.177632,0.158112,-15.09375,-17.29,27.125,-41.04,-16.176,-80.592,concentric,4,5.0,36263.0,45783.0,73885.0,100485.0,32107.0,53506.0,30752.0,55888.0,20723.0,18485.0
2026-05-06 15:51:08.625135,420671,1609504932100731,2532012908,0.796416,-0.177632,0.158112,-14.79625,-17.63125,29.723751,-41.04,-16.176,-80.592,concentric,4,5.0,36263.0,45783.0,73885.0,100485.0,32107.0,53506.0,30752.0,55888.0,20723.0,18485.0
2026-05-06 15:51:08.627507,420672,1609504932115421,2532028020,0.784704,-0.177632,0.230336,-17.255,-17.64,33.22375,-41.248,-15.352001,-81.312004,concentric,4,5.0,36263.0,45783.0,73885.0,100485.0,32107.0,53506.0,30752.0,55888.0,20723.0,18485.0
2026-05-06 15:51:08.630157,420673,1609504932124456,2532036770,0.749568,-0.140544,0.193248,-19.32875,-17.56125,37.905,-41.320004,-15.432001,-81.176,concentric,4,5.0,36263.0,45783.0,73885.0,100485.0,32107.0,53506.0,30752.0,55888.0,20723.0,18485.0
2026-05-06 15:51:08.632653,420674,1609504932133527,2532045547,0.749568,-0.140544,0.193248,-23.19625,-17.395,40.7925,-41.320004,-15.432001,-81.176,concentric,4,5.0,36263.0,45783.0,73885.0,100485.0,32107.0,53506.0,30752.0,55888.0,20723.0,18485.0
2026-05-06 15:51:08.702463,420685,1609504932148040,2532060434,0.81984,-0.163968,0.163968,-22.4875,-18.5675,42.595,-41.072002,-14.744,-81.496,concentric,4,5.0,36208.0,45954.0,74128.0,100033.0,32006.0,53631.0,30853.0,55557.0,20657.0,18514.0
2026-05-06 15:51:08.705117,420686,1609504932157087,2532069454,0.81984,-0.163968,0.163968,-21.13125,-19.50375,41.34375,-41.072002,-14.744,-81.496,concentric,4,5.0,36208.0,45954.0,74128.0,100033.0,32006.0,53631.0,30853.0,55557.0,20657.0,18514.0
2026-05-06 15:51:08.707605,420687,1609504932171545,2532082314,0.823744,-0.181536,0.122976,-18.4275,-19.62625,40.48625,-41.408,-14.120001,-81.568,concentric,4,5.0,36208.0,45954.0,74128.0,100033.0,32006.0,53631.0,30853.0,55557.0,20657.0,18514.0
2026-05-06 15:51:08.710219,420688,1609504932180733,2532093104,0.823744,-0.181536,0.122976,-16.52875,-19.1975,41.107502,-41.408,-14.120001,-81.568,concentric,4,5.0,36208.0,45954.0,74128.0,100033.0,32006.0,53631.0,30853.0,55557.0,20657.0,18514.0
2026-05-06 15:51:08.712663,420689,1609504932189750,2532101956,0.757376,-0.171776,0.187392,-19.985,-18.2875,40.3375,-41.304,-14.64,-80.624,concentric,4,5.0,36208.0,45954.0,74128.0,100033.0,32006.0,53631.0,30853.0,55557.0,20657.0,18514.0
2026-05-06 15:51:08.715151,420690,1609504932204288,2532116949,0.75152,-0.17568,0.216672,-22.77625,-17.22,39.725,-41.24,-14.576001,-80.712006,concentric,4,5.0,36208.0,45954.0,74128.0,100033.0,32006.0,53631.0,30853.0,55557.0,20657.0,18514.0
2026-05-06 15:51:08.717648,420691,1609504932213264,2532125739,0.75152,-0.17568,0.216672,-23.23125,-16.7125,40.232502,-41.24,-14.576001,-80.712006,concentric,4,5.0,36208.0,45954.0,74128.0,100033.0,32006.0,53631.0,30853.0,55557.0,20657.0,18514.0
2026-05-06 15:51:08.726314,420692,1609504932227788,2532138631,0.739808,-0.23424,0.109312,-22.9775,-16.59,39.48875,-41.528004,-14.352,-80.96001,concentric,4,5.0,36208.0,45954.0,74128.0,100033.0,32006.0,53631.0,30853.0,55557.0,20657.0,18514.0
2026-05-06 15:51:08.740290,420693,1609504932237098,2532149406,0.739808,-0.23424,0.109312,-21.09625,-16.1525,39.54125,-41.528004,-14.352,-80.96001,concentric,4,5.0,36208.0,45954.0,74128.0,100033.0,32006.0,53631.0,30853.0,55557.0,20657.0,18514.0
2026-05-06 15:51:08.746572,420694,1609504932246005,2532158163,0.792512,-0.257664,0.0976,-20.6325,-15.39125,40.232502,-41.208,-11.912001,-82.504005,concentric,4,5.0,36208.0,45954.0,74128.0,100033.0,32006.0,53631.0,30853.0,55557.0,20657.0,18514.0
2026-05-06 15:51:08.776570,420705,1609504932260591,2532171457,0.792512,-0.257664,0.0976,-25.66375,-13.886251,38.7625,-41.208,-11.912001,-82.504005,concentric,4,5.0,36333.0,46131.0,74435.0,99863.0,32112.0,53817.0,31023.0,55462.0,20737.0,18572.0
2026-05-06 15:51:08.779020,420706,1609504932270133,2532182298,0.769088,-0.163968,0.089792,-26.34625,-12.25,37.30125,-41.416,-11.528001,-82.704,concentric,4,5.0,36333.0,46131.0,74435.0,99863.0,32112.0,53817.0,31023.0,55462.0,20737.0,18572.0
2026-05-06 15:51:08.810144,420707,1609504932284770,2532197240,0.71248,-0.203008,0.093696,-20.48375,-11.75125,35.4025,-41.168003,-11.024,-82.928,concentric,4,5.0,36333.0,46131.0,74435.0,99863.0,32112.0,53817.0,31023.0,55462.0,20737.0,18572.0
2026-05-06 15:51:08.834824,420708,1609504932293856,2532206072,0.71248,-0.203008,0.093696,-14.533751,-11.52375,31.5875,-41.168003,-11.024,-82.928,concentric,4,5.0,36333.0,46131.0,74435.0,99863.0,32112.0,53817.0,31023.0,55462.0,20737.0,18572.0
2026-05-06 15:51:08.842606,420709,1609504932302965,2532214801,0.71248,-0.203008,0.093696,-10.386251,-11.8125,30.87875,-41.168003,-11.024,-82.928,concentric,4,5.0,36333.0,46131.0,74435.0,99863.0,32112.0,53817.0,31023.0,55462.0,20737.0,18572.0
2026-05-06 15:51:08.845079,420710,1609504932317454,2532229698,0.747616,-0.275232,0.046848,-6.825,-11.75125,33.4425,-41.352,-10.336,-84.728004,concentric,4,5.0,36333.0,46131.0,74435.0,99863.0,32112.0,53817.0,31023.0,55462.0,20737.0,18572.0
2026-05-06 15:51:08.847487,420711,1609504932326370,2532238421,0.765184,-0.314272,0.0488,-11.27,-10.9725,33.74,-41.432003,-10.416,-83.22401,concentric,4,5.0,36333.0,46131.0,74435.0,99863.0,32112.0,53817.0,31023.0,55462.0,20737.0,18572.0
2026-05-06 15:51:08.853757,420712,1609504932340841,2532253370,0.765184,-0.314272,0.0488,-22.89,-8.75,30.7125,-41.432003,-10.416,-83.22401,concentric,4,5.0,36333.0,46131.0,74435.0,99863.0,32112.0,53817.0,31023.0,55462.0,20737.0,18572.0
2026-05-06 15:51:08.886959,420723,1609504932349766,2532262064,0.767136,-0.218624,0.140544,-27.8075,-6.755,30.44125,-41.752003,-11.256001,-82.288,concentric,4,5.0,36534.0,45956.0,74580.0,99697.0,32302.0,53696.0,31100.0,55372.0,20814.0,18520.0
2026-05-06 15:51:08.891510,420724,1609504932364480,2532277156,0.739808,-0.20496,0.033184,-19.495,-6.23875,31.45625,-41.760002,-10.688001,-83.336006,concentric,4,5.0,36534.0,45956.0,74580.0,99697.0,32302.0,53696.0,31100.0,55372.0,20814.0,18520.0
2026-05-06 15:51:08.893937,420725,1609504932373609,2532285922,0.739808,-0.20496,0.033184,-7.8925,-7.4725,30.616251,-41.760002,-10.688001,-83.336006,concentric,4,5.0,36534.0,45956.0,74580.0,99697.0,32302.0,53696.0,31100.0,55372.0,20814.0,18520.0
2026-05-06 15:51:08.896396,420726,1609504932382579,2532294679,0.739808,-0.20496,0.033184,-0.63,-10.61375,28.91875,-41.760002,-10.688001,-83.336006,concentric,4,5.0,36534.0,45956.0,74580.0,99697.0,32302.0,53696.0,31100.0,55372.0,20814.0,18520.0
2026-05-06 15:51:08.898867,420727,1609504932397103,2532309675,0.75152,-0.26352,0.013664,5.3375,-14.25375,27.62375,-41.616,-10.096001,-83.216,concentric,4,5.0,36534.0,45956.0,74580.0,99697.0,32302.0,53696.0,31100.0,55372.0,20814.0,18520.0
2026-05-06 15:51:08.905123,420728,1609504932406085,2532318503,0.83936,-0.33184,0.007808,12.08375,-17.07125,28.385,-41.536003,-9.392,-83.496,concentric,4,5.0,36534.0,45956.0,74580.0,99697.0,32302.0,53696.0,31100.0,55372.0,20814.0,18520.0
2026-05-06 15:51:08.918883,420729,1609504932420616,2532331381,0.83936,-0.33184,0.007808,9.73875,-17.03625,27.27375,-41.536003,-9.392,-83.496,concentric,4,5.0,36534.0,45956.0,74580.0,99697.0,32302.0,53696.0,31100.0,55372.0,20814.0,18520.0
2026-05-06 15:51:08.932771,420730,1609504932429824,2532342159,0.79056,-0.288896,0.076128,-1.785,-14.035,23.765,-41.480003,-7.288001,-84.448006,concentric,4,5.0,36534.0,45956.0,74580.0,99697.0,32302.0,53696.0,31100.0,55372.0,20814.0,18520.0
2026-05-06 15:51:08.938997,420731,1609504932438749,2532350933,0.79056,-0.288896,0.076128,-7.5425,-12.06625,23.397501,-41.480003,-7.288001,-84.448006,concentric,4,5.0,36534.0,45956.0,74580.0,99697.0,32302.0,53696.0,31100.0,55372.0,20814.0,18520.0
2026-05-06 15:51:08.977377,420742,1609504932453778,2532366381,0.841312,-0.181536,0.062464,-3.50875,-12.22375,25.05125,-41.336002,-8.360001,-84.352005,concentric,4,5.0,37062.0,46333.0,75169.0,99612.0,32704.0,54032.0,31380.0,55281.0,20974.0,18620.0
2026-05-06 15:51:08.979941,420743,1609504932462867,2532375176,0.841312,-0.181536,0.062464,7.42875,-12.83625,23.5725,-41.336002,-8.360001,-84.352005,concentric,4,5.0,37062.0,46333.0,75169.0,99612.0,32704.0,54032.0,31380.0,55281.0,20974.0,18620.0
2026-05-06 15:51:08.984615,420744,1609504932477422,2532390152,0.812032,-0.267424,0.066368,9.59,-11.9525,18.935,-41.384003,-6.544,-85.024,concentric,4,5.0,37062.0,46333.0,75169.0,99612.0,32704.0,54032.0,31380.0,55281.0,20974.0,18620.0
2026-05-06 15:51:08.986221,420745,1609504932486391,2532398898,0.853024,-0.337696,0.08784,11.935,-11.1125,19.31125,-41.184002,-5.168,-85.536,concentric,4,5.0,37062.0,46333.0,75169.0,99612.0,32704.0,54032.0,31380.0,55281.0,20974.0,18620.0
2026-05-06 15:51:08.994943,420746,1609504932495310,2532407596,0.853024,-0.337696,0.08784,14.175,-10.465,22.0675,-41.184002,-5.168,-85.536,concentric,4,5.0,37062.0,46333.0,75169.0,99612.0,32704.0,54032.0,31380.0,55281.0,20974.0,18620.0
2026-05-06 15:51:09.011186,420747,1609504932509989,2532422632,0.874496,-0.314272,0.099552,10.78875,-8.25125,22.82875,-41.496002,-4.28,-85.48,concentric,4,5.0,37062.0,46333.0,75169.0,99612.0,32704.0,54032.0,31380.0,55281.0,20974.0,18620.0
2026-05-06 15:51:09.020122,420748,1609504932518893,2532431355,0.874496,-0.314272,0.099552,6.55375,-5.53875,21.06125,-41.496002,-4.28,-85.48,concentric,4,5.0,37062.0,46333.0,75169.0,99612.0,32704.0,54032.0,31380.0,55281.0,20974.0,18620.0
2026-05-06 15:51:09.034016,420749,1609504932533480,2532444332,0.880352,-0.226432,0.148352,2.135,-3.31625,17.78875,-41.68,-5.544,-84.44,concentric,4,5.0,37062.0,46333.0,75169.0,99612.0,32704.0,54032.0,31380.0,55281.0,20974.0,18620.0
2026-05-06 15:51:09.047810,420750,1609504932542799,2532455101,0.880352,-0.226432,0.148352,4.59375,-1.53125,15.74125,-41.68,-5.544,-84.44,concentric,4,5.0,37062.0,46333.0,75169.0,99612.0,32704.0,54032.0,31380.0,55281.0,20974.0,18620.0
2026-05-06 15:51:09.074931,420761,1609504932552251,2532463845,0.895968,-0.306464,0.189344,7.455,0.49875,14.5775,-41.552002,-3.552,-85.888,concentric,4,5.0,37471.0,46987.0,75720.0,100020.0,33034.0,54598.0,31641.0,55444.0,21147.0,18797.0
2026-05-06 15:51:09.077474,420762,1609504932566768,2532478906,0.903776,-0.368928,0.142496,10.08875,2.555,13.93875,-41.640003,-4.848,-84.880005,concentric,4,5.0,37471.0,46987.0,75720.0,100020.0,33034.0,54598.0,31641.0,55444.0,21147.0,18797.0
2026-05-06 15:51:09.079853,420763,1609504932575697,2532487620,0.903776,-0.368928,0.142496,15.26,4.4975,14.6125,-41.640003,-4.848,-84.880005,concentric,4,5.0,37471.0,46987.0,75720.0,100020.0,33034.0,54598.0,31641.0,55444.0,21147.0,18797.0
2026-05-06 15:51:09.088949,420764,1609504932590374,2532502754,0.960384,-0.337696,0.142496,23.54625,4.97,15.408751,-42.152,-4.616,-83.032005,concentric,4,5.0,37471.0,46987.0,75720.0,100020.0,33034.0,54598.0,31641.0,55444.0,21147.0,18797.0
2026-05-06 15:51:09.102784,420765,1609504932599319,2532511435,0.960384,-0.337696,0.142496,28.0875,5.635,11.935,-42.152,-4.616,-83.032005,concentric,4,5.0,37471.0,46987.0,75720.0,100020.0,33034.0,54598.0,31641.0,55444.0,21147.0,18797.0
2026-05-06 15:51:09.109087,420766,1609504932608256,2532520144,0.999424,-0.32208,0.193248,27.16875,6.8775,6.615,-42.256,-1.352,-85.256004,concentric,4,5.0,37471.0,46987.0,75720.0,100020.0,33034.0,54598.0,31641.0,55444.0,21147.0,18797.0
2026-05-06 15:51:09.122507,420767,1609504932622784,2532535078,0.999424,-0.32208,0.193248,21.665,9.23125,2.9575,-42.256,-1.352,-85.256004,concentric,4,5.0,37471.0,46987.0,75720.0,100020.0,33034.0,54598.0,31641.0,55444.0,21147.0,18797.0
2026-05-06 15:51:09.131267,420768,1609504932631840,2532543813,0.94672,-0.378688,0.343552,11.76875,12.52125,3.6925,-41.912003,-1.448,-85.12,concentric,4,5.0,37471.0,46987.0,75720.0,100020.0,33034.0,54598.0,31641.0,55444.0,21147.0,18797.0
2026-05-06 15:51:09.171152,420769,1609504932646362,2532558737,0.962336,-0.472384,0.271328,4.13,15.91625,7.4375,-41.912003,-0.824,-83.448006,concentric,4,5.0,37471.0,46987.0,75720.0,100020.0,33034.0,54598.0,31641.0,55444.0,21147.0,18797.0
2026-05-06 15:51:09.290073,420781,1609504932656014,2532567690,0.962336,-0.472384,0.271328,0.245,19.3025,9.7825,-42.616,-0.824,-83.448006,concentric,4,5.0,37725.0,47276.0,75909.0,99816.0,33233.0,54769.0,31700.0,55298.0,21225.0,18839.0
2026-05-06 15:51:09.292552,420782,1609504932665190,2532576659,0.962336,-0.472384,0.271328,-3.64,20.8425,7.42,-42.616,-0.824,-83.448006,concentric,4,5.0,37725.0,47276.0,75909.0,99816.0,33233.0,54769.0,31700.0,55298.0,21225.0,18839.0
2026-05-06 15:51:09.294915,420783,1609504932679689,2532591634,1.026752,-0.466528,0.238144,-7.56875,22.155,3.68375,-42.712,-1.112,-83.872,concentric,4,5.0,37725.0,47276.0,75909.0,99816.0,33233.0,54769.0,31700.0,55298.0,21225.0,18839.0
2026-05-06 15:51:09.302585,420784,1609504932688650,2532600347,1.0736,-0.44896,0.199104,-2.17875,22.25125,4.305,-43.304,-0.608,-84.672005,concentric,4,5.0,37725.0,47276.0,75909.0,99816.0,33233.0,54769.0,31700.0,55298.0,21225.0,18839.0
2026-05-06 15:51:09.305102,420785,1609504932703088,2532615282,1.0736,-0.44896,0.199104,7.09625,21.53375,3.92,-43.304,-0.608,-84.672005,concentric,4,5.0,37725.0,47276.0,75909.0,99816.0,33233.0,54769.0,31700.0,55298.0,21225.0,18839.0
2026-05-06 15:51:09.307643,420786,1609504932712023,2532623980,1.032608,-0.443104,0.275232,13.58875,21.74375,2.33625,-43.72,-0.72,-84.00001,concentric,4,5.0,37725.0,47276.0,75909.0,99816.0,33233.0,54769.0,31700.0,55298.0,21225.0,18839.0
2026-05-06 15:51:09.310212,420787,1609504932726523,2532638933,1.032608,-0.45872,0.30256,15.23375,21.30625,2.0125,-43.72,-0.72,-84.00001,concentric,4,5.0,37725.0,47276.0,75909.0,99816.0,33233.0,54769.0,31700.0,55298.0,21225.0,18839.0
2026-05-06 15:51:09.315031,420788,1609504932735449,2532647642,0.979904,-0.464576,0.30256,12.76625,20.475,1.4175,-43.256,0.312,-84.336006,concentric,4,5.0,37725.0,47276.0,75909.0,99816.0,33233.0,54769.0,31700.0,55298.0,21225.0,18839.0
2026-05-06 15:51:09.319972,420789,1609504932744399,2532656353,0.979904,-0.464576,0.30256,6.64125,18.4975,1.61,-43.256,0.312,-84.336006,concentric,4,5.0,37725.0,47276.0,75909.0,99816.0,33233.0,54769.0,31700.0,55298.0,21225.0,18839.0
2026-05-06 15:51:09.349957,420800,1609504932758994,2532671306,1.016992,-0.505568,0.249856,0.67375,17.08,3.36,-43.696003,0.768,-83.552,concentric,4,5.0,37601.0,47468.0,75765.0,99625.0,33064.0,54848.0,31574.0,55174.0,21172.0,18892.0
2026-05-06 15:51:09.352440,420801,1609504932767940,2532680072,0.991616,-0.486048,0.177632,-1.9775,15.65375,4.2175,-43.968002,0.36,-83.12,concentric,4,5.0,37601.0,47468.0,75765.0,99625.0,33064.0,54848.0,31574.0,55174.0,21172.0,18892.0
2026-05-06 15:51:09.354862,420802,1609504932782589,2532695101,0.991616,-0.486048,0.177632,-0.7175,14.58625,4.725,-43.968002,0.36,-83.12,concentric,4,5.0,37601.0,47468.0,75765.0,99625.0,33064.0,54848.0,31574.0,55174.0,21172.0,18892.0
2026-05-06 15:51:09.360028,420803,1609504932791535,2532703869,0.940864,-0.499712,0.240096,4.20875,14.5075,5.31125,-44.320004,0.24,-83.104004,concentric,4,5.0,37601.0,47468.0,75765.0,99625.0,33064.0,54848.0,31574.0,55174.0,21172.0,18892.0
2026-05-06 15:51:09.362565,420804,1609504932800644,2532712665,0.940864,-0.499712,0.240096,4.22625,14.55125,4.24375,-44.320004,0.24,-83.104004,concentric,4,5.0,37601.0,47468.0,75765.0,99625.0,33064.0,54848.0,31574.0,55174.0,21172.0,18892.0
2026-05-06 15:51:09.365088,420805,1609504932815444,2532727676,0.86864,-0.464576,0.222528,5.46,14.315001,5.41625,-44.656002,1.256,-83.048004,concentric,4,5.0,37601.0,47468.0,75765.0,99625.0,33064.0,54848.0,31574.0,55174.0,21172.0,18892.0
2026-05-06 15:51:09.367572,420806,1609504932824435,2532736472,0.86864,-0.464576,0.222528,4.61125,13.0025,6.79875,-44.656002,1.256,-83.048004,concentric,4,5.0,37601.0,47468.0,75765.0,99625.0,33064.0,54848.0,31574.0,55174.0,21172.0,18892.0
2026-05-06 15:51:09.370089,420807,1609504932838998,2532751482,0.882304,-0.447008,0.187392,2.47625,12.20625,7.385,-44.640003,1.536,-82.4,concentric,4,5.0,37601.0,47468.0,75765.0,99625.0,33064.0,54848.0,31574.0,55174.0,21172.0,18892.0
2026-05-06 15:51:09.372619,420808,1609504932847947,2532760220,0.909632,-0.486048,0.187392,1.015,10.54375,6.57125,-46.688004,0.096,-81.616005,concentric,4,5.0,37601.0,47468.0,75765.0,99625.0,33064.0,54848.0,31574.0,55174.0,21172.0,18892.0
2026-05-06 15:51:09.404010,420819,1609504932857501,2532768988,0.909632,-0.486048,0.187392,-1.49625,9.79125,4.4975,-45.280003,0.096,-81.616005,concentric,4,5.0,37648.0,47655.0,75724.0,99622.0,33144.0,55014.0,31580.0,55143.0,21261.0,19005.0
2026-05-06 15:51:09.409037,420820,1609504932872216,2532783936,0.874496,-0.486048,0.167872,-4.1475,8.645,2.4675,-45.2,-0.24,-81.856,concentric,4,5.0,37648.0,47655.0,75724.0,99622.0,33144.0,55014.0,31580.0,55143.0,21261.0,19005.0
2026-05-06 15:51:09.411422,420821,1609504932881264,2532792778,0.874496,-0.486048,0.167872,-5.7925,7.42,0.945,-45.2,-0.24,-81.856,concentric,4,5.0,37648.0,47655.0,75724.0,99622.0,33144.0,55014.0,31580.0,55143.0,21261.0,19005.0
2026-05-06 15:51:09.413707,420822,1609504932895792,2532807853,0.876448,-0.42944,0.162016,-4.50625,5.17125,1.0325,-44.872,1.624,-82.616005,concentric,4,5.0,37648.0,47655.0,75724.0,99622.0,33144.0,55014.0,31580.0,55143.0,21261.0,19005.0
2026-05-06 15:51:09.418794,420823,1609504932904865,2532816591,0.876448,-0.42944,0.162016,-4.9,2.4675,0.60375,-44.872,1.624,-82.616005,concentric,4,5.0,37648.0,47655.0,75724.0,99622.0,33144.0,55014.0,31580.0,55143.0,21261.0,19005.0
2026-05-06 15:51:09.421292,420824,1609504932913817,2532825329,0.872544,-0.454816,0.148352,-7.595,0.0875,-1.63625,-45.04,1.472,-82.936005,concentric,4,5.0,37648.0,47655.0,75724.0,99622.0,33144.0,55014.0,31580.0,55143.0,21261.0,19005.0
2026-05-06 15:51:09.427460,420825,1609504932928336,2532840309,0.86864,-0.511424,0.150304,-12.32875,-2.1,-4.4275,-45.04,1.472,-83.04,concentric,4,5.0,37648.0,47655.0,75724.0,99622.0,33144.0,55014.0,31580.0,55143.0,21261.0,19005.0
2026-05-06 15:51:09.436521,420826,1609504932937267,2532849065,0.86864,-0.511424,0.150304,-15.2775,-4.445,-5.85375,-45.144,1.464,-83.04,concentric,4,5.0,37648.0,47655.0,75724.0,99622.0,33144.0,55014.0,31580.0,55143.0,21261.0,19005.0
2026-05-06 15:51:09.470121,420827,1609504932951691,2532863975,0.903776,-0.499712,0.16592,-12.9325,-6.86,-6.265,-45.216003,1.336,-83.01601,concentric,4,5.0,37648.0,47655.0,75724.0,99622.0,33144.0,55014.0,31580.0,55143.0,21261.0,19005.0
2026-05-06 15:51:09.505204,420838,1609504932960708,2532872916,0.903776,-0.499712,0.16592,-8.07625,-7.79625,-6.16,-45.216003,1.336,-83.01601,concentric,4,5.0,37433.0,47527.0,75580.0,99428.0,33056.0,54913.0,31498.0,55036.0,21227.0,18970.0
2026-05-06 15:51:09.507725,420839,1609504932975277,2532887899,0.860832,-0.452864,0.103456,-4.305,-8.93375,-4.83,-44.984,1.712,-83.744,concentric,4,5.0,37433.0,47527.0,75580.0,99428.0,33056.0,54913.0,31498.0,55036.0,21227.0,18970.0
2026-05-06 15:51:09.510313,420840,1609504932984212,2532896619,0.860832,-0.452864,0.103456,-4.29625,-9.91375,-3.96375,-44.984,1.712,-83.744,concentric,4,5.0,37433.0,47527.0,75580.0,99428.0,33056.0,54913.0,31498.0,55036.0,21227.0,18970.0
2026-05-06 15:51:09.512502,420841,1609504932993228,2532905355,0.854976,-0.470432,0.144448,-7.0,-10.5525,-4.12125,-44.832,-0.592,-82.4,concentric,4,5.0,37433.0,47527.0,75580.0,99428.0,33056.0,54913.0,31498.0,55036.0,21227.0,18970.0
2026-05-06 15:51:09.515237,420842,1609504933007751,2532920301,0.854976,-0.470432,0.144448,-9.8,-10.815,-5.24125,-44.832,-0.592,-82.4,concentric,4,5.0,37433.0,47527.0,75580.0,99428.0,33056.0,54913.0,31498.0,55036.0,21227.0,18970.0
2026-05-06 15:51:09.520219,420843,1609504933016719,2532929145,0.86864,-0.495808,0.130784,-9.00375,-10.50875,-5.18,-44.856003,-0.192,-81.864006,concentric,4,5.0,37433.0,47527.0,75580.0,99428.0,33056.0,54913.0,31498.0,55036.0,21227.0,18970.0
2026-05-06 15:51:09.569964,420844,1609504933031246,2532942017,0.841312,-0.42944,0.158112,-7.41125,-10.8675,-5.8975,-45.008003,0.384,-83.536,concentric,4,5.0,37433.0,47527.0,75580.0,99428.0,33056.0,54913.0,31498.0,55036.0,21227.0,18970.0
2026-05-06 15:51:09.583856,420845,1609504933040432,2532952935,0.841312,-0.42944,0.158112,-4.08625,-10.255,-5.53,-45.008003,0.384,-83.536,concentric,4,5.0,37433.0,47527.0,75580.0,99428.0,33056.0,54913.0,31498.0,55036.0,21227.0,18970.0
2026-05-06 15:51:09.613735,420856,1609504933055163,2532967961,0.821792,-0.42944,0.122976,-0.30625,-10.36875,-4.03375,-44.496002,1.664,-83.928,concentric,4,5.0,37208.0,47431.0,75429.0,99279.0,32884.0,54793.0,31425.0,54901.0,21142.0,18925.0
2026-05-06 15:51:09.616596,420857,1609504933064243,2532976789,0.821792,-0.42944,0.122976,-1.2775,-10.77125,-4.52375,-44.496002,1.664,-83.928,concentric,4,5.0,37208.0,47431.0,75429.0,99279.0,32884.0,54793.0,31425.0,54901.0,21142.0,18925.0
2026-05-06 15:51:09.618995,420858,1609504933073295,2532985517,0.81984,-0.441152,0.154208,-2.75625,-10.78875,-5.69625,-44.688004,1.504,-84.096,concentric,4,5.0,37208.0,47431.0,75429.0,99279.0,32884.0,54793.0,31425.0,54901.0,21142.0,18925.0
2026-05-06 15:51:09.621600,420859,1609504933087761,2533000425,0.81984,-0.441152,0.154208,-3.4475,-10.29875,-5.25875,-44.688004,1.504,-84.096,concentric,4,5.0,37208.0,47431.0,75429.0,99279.0,32884.0,54793.0,31425.0,54901.0,21142.0,18925.0
2026-05-06 15:51:09.624062,420860,1609504933096671,2533009342,0.804224,-0.425536,0.138592,-2.28375,-9.292501,-5.6175,-44.736004,1.6,-83.672005,concentric,4,5.0,37208.0,47431.0,75429.0,99279.0,32884.0,54793.0,31425.0,54901.0,21142.0,18925.0
2026-05-06 15:51:09.630176,420861,1609504933111278,2533022347,0.817888,-0.421632,0.103456,-1.88125,-8.60125,-6.57125,-44.824,-1.968,-82.312004,concentric,4,5.0,37208.0,47431.0,75429.0,99279.0,32884.0,54793.0,31425.0,54901.0,21142.0,18925.0
2026-05-06 15:51:09.632784,420862,1609504933120905,2533033161,0.817888,-0.421632,0.103456,-0.90125,-7.315,-6.27375,-44.824,-1.968,-82.312004,concentric,4,5.0,37208.0,47431.0,75429.0,99279.0,32884.0,54793.0,31425.0,54901.0,21142.0,18925.0
2026-05-06 15:51:09.635300,420863,1609504933129958,2533041927,0.817888,-0.404064,0.15616,-0.23625,-6.11625,-6.4225,-44.824,-1.968,-82.16801,concentric,4,5.0,37208.0,47431.0,75429.0,99279.0,32884.0,54793.0,31425.0,54901.0,21142.0,18925.0
2026-05-06 15:51:09.648893,420864,1609504933144539,2533056960,0.817888,-0.404064,0.15616,0.2625,-5.3025,-6.95625,-44.688004,-0.184,-82.16801,concentric,4,5.0,37208.0,47431.0,75429.0,99279.0,32884.0,54793.0,31425.0,54901.0,21142.0,18925.0
2026-05-06 15:51:09.657432,420865,1609504933153500,2533065677,0.813984,-0.3904,0.173728,0.56,-4.305,-7.4375,-44.688004,1.048,-84.00001,concentric,4,5.0,37208.0,47431.0,75429.0,99279.0,32884.0,54793.0,31425.0,54901.0,21142.0,18925.0
2026-05-06 15:51:09.687721,420876,1609504933168124,2533080731,0.813984,-0.3904,0.173728,1.33,-3.21125,-7.86625,-44.688004,1.048,-84.00001,concentric,4,5.0,37020.0,47368.0,75387.0,99105.0,32781.0,54741.0,31426.0,54826.0,21085.0,18905.0
2026-05-06 15:51:09.690210,420877,1609504933177090,2533089437,0.815936,-0.388448,0.187392,1.3475,-2.40625,-8.39125,-44.864002,-0.008,-83.608,concentric,4,5.0,37020.0,47368.0,75387.0,99105.0,32781.0,54741.0,31426.0,54826.0,21085.0,18905.0
2026-05-06 15:51:09.692697,420878,1609504933186096,2533098209,0.815936,-0.388448,0.187392,0.35875,-1.785,-8.82,-44.864002,-0.008,-83.608,concentric,4,5.0,37020.0,47368.0,75387.0,99105.0,32781.0,54741.0,31426.0,54826.0,21085.0,18905.0
2026-05-06 15:51:09.701383,420879,1609504933200635,2533113228,0.81984,-0.378688,0.163968,-0.5775,-1.855,-9.28375,-44.616,-0.712,-83.16801,eccentric,4,5.0,37020.0,47368.0,75387.0,99105.0,32781.0,54741.0,31426.0,54826.0,21085.0,18905.0
2026-05-06 15:51:09.710235,420880,1609504933209619,2533122002,0.81984,-0.378688,0.163968,-1.015,-1.30375,-9.7475,-44.616,-0.712,-83.16801,eccentric,4,5.0,37020.0,47368.0,75387.0,99105.0,32781.0,54741.0,31426.0,54826.0,21085.0,18905.0
2026-05-06 15:51:09.723594,420881,1609504933224157,2533134911,0.843264,-0.384544,0.128832,-1.5575,-1.23375,-10.01875,-44.536003,1.056,-87.47201,eccentric,4,5.0,37020.0,47368.0,75387.0,99105.0,32781.0,54741.0,31426.0,54826.0,21085.0,18905.0
2026-05-06 15:51:09.732638,420882,1609504933233488,2533145711,0.862784,-0.427488,0.111264,-0.1925,-1.3475,-9.77375,-44.392002,1.2,-84.32001,eccentric,4,5.0,37020.0,47368.0,75387.0,99105.0,32781.0,54741.0,31426.0,54826.0,21085.0,18905.0
2026-05-06 15:51:09.741435,420883,1609504933242549,2533154447,0.862784,-0.427488,0.111264,1.3475,-1.19875,-8.5575,-44.392002,1.2,-84.32001,eccentric,4,5.0,37020.0,47368.0,75387.0,99105.0,32781.0,54741.0,31426.0,54826.0,21085.0,18905.0
2026-05-06 15:51:09.780124,420894,1609504933257466,2533169493,0.86864,-0.423584,0.144448,-0.00875,-0.65625,-7.5425,-44.728,1.04,-84.44,eccentric,4,5.0,36810.0,47159.0,75276.0,99055.0,32672.0,54562.0,31380.0,54838.0,21041.0,18842.0
2026-05-06 15:51:09.785111,420895,1609504933266480,2533178331,0.86864,-0.423584,0.144448,-0.0525,-0.39375,-6.5625,-44.728,1.04,-84.44,eccentric,4,5.0,36810.0,47159.0,75276.0,99055.0,32672.0,54562.0,31380.0,54838.0,21041.0,18842.0
2026-05-06 15:51:09.787640,420896,1609504933280970,2533193327,0.905728,-0.396256,0.183488,2.17875,-0.83125,-5.04875,-44.552002,-2.984,-82.01601,eccentric,4,5.0,36810.0,47159.0,75276.0,99055.0,32672.0,54562.0,31380.0,54838.0,21041.0,18842.0
2026-05-06 15:51:09.790175,420897,1609504933289908,2533202100,0.905728,-0.396256,0.183488,1.19875,-1.79375,-4.935,-44.552002,-2.984,-82.01601,eccentric,4,5.0,36810.0,47159.0,75276.0,99055.0,32672.0,54562.0,31380.0,54838.0,21041.0,18842.0
2026-05-06 15:51:09.798979,420898,1609504933298959,2533210865,0.905728,-0.425536,0.181536,-0.7875,-2.51125,-5.20625,-44.472004,-0.688,-82.352005,eccentric,4,5.0,36810.0,47159.0,75276.0,99055.0,32672.0,54562.0,31380.0,54838.0,21041.0,18842.0
2026-05-06 15:51:09.812757,420899,1609504933313461,2533225792,0.94672,-0.470432,0.148352,-2.1525,-3.045,-4.06875,-44.096,1.16,-84.79201,eccentric,4,5.0,36810.0,47159.0,75276.0,99055.0,32672.0,54562.0,31380.0,54838.0,21041.0,18842.0
2026-05-06 15:51:09.849078,420900,1609504933322381,2533234530,0.94672,-0.470432,0.148352,-3.26375,-3.99,-3.57,-44.096,1.16,-84.79201,eccentric,4,5.0,36810.0,47159.0,75276.0,99055.0,32672.0,54562.0,31380.0,54838.0,21041.0,18842.0
2026-05-06 15:51:09.850339,420901,1609504933336885,2533249557,0.96624,-0.474336,0.140544,-3.2025,-5.59125,-2.7475,-44.552002,0.872,-84.184006,eccentric,4,5.0,36810.0,47159.0,75276.0,99055.0,32672.0,54562.0,31380.0,54838.0,21041.0,18842.0
2026-05-06 15:51:09.852771,420902,1609504933345836,2533258250,0.96624,-0.474336,0.140544,-2.4325,-6.5975,-1.05875,-44.552002,0.872,-84.184006,eccentric,4,5.0,36810.0,47159.0,75276.0,99055.0,32672.0,54562.0,31380.0,54838.0,21041.0,18842.0
2026-05-06 15:51:09.880151,420913,1609504933360678,2533273510,0.942816,-0.464576,0.16592,-3.4475,-8.14625,-0.55125,-44.296,0.704,-84.54401,eccentric,4,5.0,36675.0,46759.0,74921.0,98562.0,32549.0,54166.0,31152.0,54511.0,20960.0,18687.0
2026-05-06 15:51:09.882575,420914,1609504933369742,2533282289,0.942816,-0.464576,0.16592,-5.25875,-10.68375,0.56875,-44.296,0.704,-84.54401,eccentric,4,5.0,36675.0,46759.0,74921.0,98562.0,32549.0,54166.0,31152.0,54511.0,20960.0,18687.0
2026-05-06 15:51:09.885207,420915,1609504933378738,2533291076,0.96624,-0.462624,0.089792,-8.2775,-12.215,0.41125,-44.08,-0.712,-82.90401,eccentric,4,5.0,36675.0,46759.0,74921.0,98562.0,32549.0,54166.0,31152.0,54511.0,20960.0,18687.0
2026-05-06 15:51:09.912726,420916,1609504933393484,2533306025,1.056032,-0.5368,0.140544,-11.76875,-14.16625,-1.28625,-43.896004,0.776,-85.75201,eccentric,4,5.0,36675.0,46759.0,74921.0,98562.0,32549.0,54166.0,31152.0,54511.0,20960.0,18687.0
2026-05-06 15:51:09.939554,420917,1609504933402397,2533314738,1.056032,-0.5368,0.140544,-14.5775,-16.0475,0.1925,-43.896004,0.776,-85.75201,eccentric,4,5.0,36675.0,46759.0,74921.0,98562.0,32549.0,54166.0,31152.0,54511.0,20960.0,18687.0
2026-05-06 15:51:09.962576,420918,1609504933416970,2533329671,1.085312,-0.550464,0.142496,-15.855001,-18.22625,3.5875,-43.88,0.656,-85.496,eccentric,4,5.0,36675.0,46759.0,74921.0,98562.0,32549.0,54166.0,31152.0,54511.0,20960.0,18687.0
2026-05-06 15:51:09.967636,420919,1609504933425886,2533338392,1.085312,-0.550464,0.142496,-18.26125,-19.31125,4.41875,-43.88,0.656,-85.496,eccentric,4,5.0,36675.0,46759.0,74921.0,98562.0,32549.0,54166.0,31152.0,54511.0,20960.0,18687.0
2026-05-06 15:51:09.973911,420920,1609504933434875,2533347128,1.108736,-0.562176,0.138592,-16.7475,-21.56,3.5875,-43.184002,0.216,-86.008,eccentric,4,5.0,36675.0,46759.0,74921.0,98562.0,32549.0,54166.0,31152.0,54511.0,20960.0,18687.0
2026-05-06 15:51:09.976455,420921,1609504933449399,2533362036,1.108736,-0.562176,0.138592,-12.31125,-23.65125,7.93625,-43.184002,0.216,-86.008,eccentric,4,5.0,36675.0,46759.0,74921.0,98562.0,32549.0,54166.0,31152.0,54511.0,20960.0,18687.0
2026-05-06 15:51:10.003753,420932,1609504933458792,2533370818,1.04432,-0.519232,0.119072,-13.41375,-24.21125,8.1725,-43.04,0.592,-86.11201,eccentric,4,5.0,36631.0,46385.0,74843.0,98543.0,32504.0,53917.0,31104.0,54553.0,20921.0,18591.0
2026-05-06 15:51:10.006301,420933,1609504933473382,2533385792,1.056032,-0.552416,0.0976,-9.93125,-26.08375,8.0325,-43.048,0.68,-87.768005,eccentric,4,5.0,36631.0,46385.0,74843.0,98543.0,32504.0,53917.0,31104.0,54553.0,20921.0,18591.0
2026-05-06 15:51:10.008468,420934,1609504933482307,2533394562,1.056032,-0.552416,0.0976,-9.66,-26.53875,9.4675,-43.048,0.68,-87.768005,eccentric,4,5.0,36631.0,46385.0,74843.0,98543.0,32504.0,53917.0,31104.0,54553.0,20921.0,18591.0
2026-05-06 15:51:10.011222,420935,1609504933491331,2533403296,1.056032,-0.552416,0.0976,-12.04875,-24.54375,7.595,-43.048,0.68,-87.768005,eccentric,4,5.0,36631.0,46385.0,74843.0,98543.0,32504.0,53917.0,31104.0,54553.0,20921.0,18591.0
2026-05-06 15:51:10.013865,420936,1609504933506002,2533418187,1.061888,-0.480192,0.140544,-14.23625,-22.8025,7.49,-42.280003,-1.592,-84.312004,eccentric,4,5.0,36631.0,46385.0,74843.0,98543.0,32504.0,53917.0,31104.0,54553.0,20921.0,18591.0
2026-05-06 15:51:10.016473,420937,1609504933515094,2533426957,1.028704,-0.44896,0.072224,-14.5075,-21.58625,10.9375,-42.096,-1.624,-85.608,eccentric,4,5.0,36631.0,46385.0,74843.0,98543.0,32504.0,53917.0,31104.0,54553.0,20921.0,18591.0
2026-05-06 15:51:10.032118,420938,1609504933529618,2533441949,1.028704,-0.44896,0.072224,-17.75375,-19.73125,9.84375,-42.096,-1.624,-85.608,eccentric,4,5.0,36631.0,46385.0,74843.0,98543.0,32504.0,53917.0,31104.0,54553.0,20921.0,18591.0
2026-05-06 15:51:10.037587,420939,1609504933538596,2533450684,0.991616,-0.501664,0.099552,-20.5975,-17.053751,5.53875,-41.368004,-0.496,-86.864006,eccentric,4,5.0,36631.0,46385.0,74843.0,98543.0,32504.0,53917.0,31104.0,54553.0,20921.0,18591.0
2026-05-06 15:51:10.053862,420940,1609504933553104,2533465690,0.964288,-0.460672,0.150304,-21.34125,-16.23125,3.99875,-41.368004,-0.496,-86.75201,eccentric,4,5.0,36631.0,46385.0,74843.0,98543.0,32504.0,53917.0,31104.0,54553.0,20921.0,18591.0
2026-05-06 15:51:10.092779,420951,1609504933562229,2533474557,0.964288,-0.460672,0.150304,-21.48125,-15.785,4.41875,-41.592003,-0.16,-86.75201,eccentric,4,5.0,36455.0,46192.0,74787.0,98443.0,32370.0,53866.0,31120.0,54567.0,20857.0,18557.0
2026-05-06 15:51:10.095231,420952,1609504933571213,2533483375,0.964288,-0.460672,0.150304,-18.94375,-15.04125,5.355,-41.592003,-0.16,-86.75201,eccentric,4,5.0,36455.0,46192.0,74787.0,98443.0,32370.0,53866.0,31120.0,54567.0,20857.0,18557.0
2026-05-06 15:51:10.097632,420953,1609504933585888,2533498475,1.00528,-0.396256,0.103456,-10.605001,-14.9625,4.585,-41.304,-3.52,-85.20801,eccentric,4,5.0,36455.0,46192.0,74787.0,98443.0,32370.0,53866.0,31120.0,54567.0,20857.0,18557.0
2026-05-06 15:51:10.100264,420954,1609504933594996,2533507202,0.940864,-0.382592,0.062464,-4.76,-15.295,1.46125,-41.024002,-4.712,-85.456,eccentric,4,5.0,36455.0,46192.0,74787.0,98443.0,32370.0,53866.0,31120.0,54567.0,20857.0,18557.0
2026-05-06 15:51:10.109034,420955,1609504933609505,2533522215,0.940864,-0.382592,0.062464,-5.95875,-14.56,-2.4675,-41.024002,-4.712,-85.456,eccentric,4,5.0,36455.0,46192.0,74787.0,98443.0,32370.0,53866.0,31120.0,54567.0,20857.0,18557.0
2026-05-06 15:51:10.120117,420956,1609504933618448,2533530934,0.9272,-0.40992,0.124928,-9.75625,-14.25375,-6.7375,-40.320004,-1.696,-87.136,eccentric,4,5.0,36455.0,46192.0,74787.0,98443.0,32370.0,53866.0,31120.0,54567.0,20857.0,18557.0
2026-05-06 15:51:10.129803,420957,1609504933627358,2533539641,0.9272,-0.40992,0.124928,-16.4675,-13.11625,-9.485,-40.320004,-1.696,-87.136,eccentric,4,5.0,36455.0,46192.0,74787.0,98443.0,32370.0,53866.0,31120.0,54567.0,20857.0,18557.0
2026-05-06 15:51:10.142321,420958,1609504933642001,2533554552,0.892064,-0.38064,0.109312,-18.20875,-11.92625,-9.3975,-40.368,-2.152,-87.408005,eccentric,4,5.0,36455.0,46192.0,74787.0,98443.0,32370.0,53866.0,31120.0,54567.0,20857.0,18557.0
2026-05-06 15:51:10.151419,420959,1609504933650941,2533563300,0.892064,-0.38064,0.109312,-16.45875,-10.8325,-9.5725,-40.368,-2.152,-87.408005,eccentric,4,5.0,36455.0,46192.0,74787.0,98443.0,32370.0,53866.0,31120.0,54567.0,20857.0,18557.0
2026-05-06 15:51:10.185292,420970,1609504933665492,2533576275,0.894016,-0.37088,0.101504,-13.92125,-9.9225,-11.725,-40.600002,-2.552,-86.328,eccentric,4,5.0,36233.0,46250.0,74813.0,98229.0,32261.0,53937.0,31155.0,54438.0,20820.0,18589.0
2026-05-06 15:51:10.187770,420971,1609504933674865,2533587094,0.882304,-0.384544,0.037088,-13.72,-8.60125,-15.846251,-40.056004,-3.008,-87.47201,eccentric,4,5.0,36233.0,46250.0,74813.0,98229.0,32261.0,53937.0,31155.0,54438.0,20820.0,18589.0
2026-05-06 15:51:10.190265,420972,1609504933683923,2533595957,0.882304,-0.384544,0.037088,-10.89375,-7.875,-20.02875,-40.056004,-3.008,-87.47201,eccentric,4,5.0,36233.0,46250.0,74813.0,98229.0,32261.0,53937.0,31155.0,54438.0,20820.0,18589.0
2026-05-06 15:51:10.200265,420973,1609504933698413,2533610950,0.83936,-0.374784,0.072224,-12.0925,-7.665,-22.960001,-40.032,-4.168,-87.54401,eccentric,4,5.0,36233.0,46250.0,74813.0,98229.0,32261.0,53937.0,31155.0,54438.0,20820.0,18589.0
2026-05-06 15:51:10.206609,420974,1609504933707330,2533619688,0.83936,-0.374784,0.072224,-13.658751,-6.06375,-23.275,-40.032,-4.168,-87.54401,eccentric,4,5.0,36233.0,46250.0,74813.0,98229.0,32261.0,53937.0,31155.0,54438.0,20820.0,18589.0
2026-05-06 15:51:10.240114,420975,1609504933721938,2533634612,0.843264,-0.402112,0.0488,-18.57625,-5.6,-27.02,-40.0,-6.224001,-86.304,eccentric,4,5.0,36233.0,46250.0,74813.0,98229.0,32261.0,53937.0,31155.0,54438.0,20820.0,18589.0
2026-05-06 15:51:10.242608,420976,1609504933730870,2533643304,0.843264,-0.402112,0.0488,-20.3,-4.1475,-29.4525,-40.0,-6.224001,-86.304,eccentric,4,5.0,36233.0,46250.0,74813.0,98229.0,32261.0,53937.0,31155.0,54438.0,20820.0,18589.0
2026-05-06 15:51:10.245131,420977,1609504933745362,2533656148,0.872544,-0.298656,-0.011712,-16.625,-1.81125,-31.12375,-39.592003,-5.344,-86.90401,eccentric,4,5.0,36233.0,46250.0,74813.0,98229.0,32261.0,53937.0,31155.0,54438.0,20820.0,18589.0
2026-05-06 15:51:10.253925,420978,1609504933754633,2533666953,0.88816,-0.298656,0.074176,-8.0325,1.1025,-33.48625,-39.592003,-5.344,-88.448006,eccentric,4,5.0,36233.0,46250.0,74813.0,98229.0,32261.0,53937.0,31155.0,54438.0,20820.0,18589.0
2026-05-06 15:51:10.336320,420989,1609504933763707,2533675769,0.88816,-0.298656,0.074176,-6.37,3.26375,-41.7725,-40.016003,-6.128,-88.448006,eccentric,4,5.0,36024.0,46313.0,74850.0,98096.0,32172.0,54035.0,31195.0,54351.0,20763.0,18622.0
2026-05-06 15:51:10.338885,420990,1609504933778252,2533690758,0.808128,-0.3416,0.089792,-8.42625,5.075,-46.55875,-39.664,-6.856,-86.856,eccentric,4,5.0,36024.0,46313.0,74850.0,98096.0,32172.0,54035.0,31195.0,54351.0,20763.0,18622.0
2026-05-06 15:51:10.341453,420991,1609504933787164,2533699477,0.808128,-0.3416,0.089792,-12.6875,6.58,-44.485,-39.664,-6.856,-86.856,eccentric,4,5.0,36024.0,46313.0,74850.0,98096.0,32172.0,54035.0,31195.0,54351.0,20763.0,18622.0
2026-05-06 15:51:10.343920,420992,1609504933801744,2533714409,0.796416,-0.36112,0.052704,-12.6525,7.34125,-41.9125,-39.472,-7.64,-86.47201,eccentric,4,5.0,36024.0,46313.0,74850.0,98096.0,32172.0,54035.0,31195.0,54351.0,20763.0,18622.0
2026-05-06 15:51:10.346489,420993,1609504933810690,2533723145,0.796416,-0.36112,0.052704,-11.31375,8.19,-43.2775,-39.472,-7.64,-86.47201,eccentric,4,5.0,36024.0,46313.0,74850.0,98096.0,32172.0,54035.0,31195.0,54351.0,20763.0,18622.0
2026-05-06 15:51:10.348925,420994,1609504933819676,2533731892,0.876448,-0.406016,0.0,-6.04625,8.4875,-48.125,-39.640003,-8.664001,-86.296005,eccentric,4,5.0,36024.0,46313.0,74850.0,98096.0,32172.0,54035.0,31195.0,54351.0,20763.0,18622.0
2026-05-06 15:51:10.351450,420995,1609504933834304,2533746882,0.876448,-0.406016,0.0,-3.0275,10.92,-55.37,-39.640003,-8.664001,-86.296005,eccentric,4,5.0,36024.0,46313.0,74850.0,98096.0,32172.0,54035.0,31195.0,54351.0,20763.0,18622.0
2026-05-06 15:51:10.354017,420996,1609504933843385,2533755593,0.899872,-0.31232,0.01952,2.05625,14.28875,-59.43,-39.760002,-11.384001,-84.744,eccentric,4,5.0,36024.0,46313.0,74850.0,98096.0,32172.0,54035.0,31195.0,54351.0,20763.0,18622.0
2026-05-06 15:51:10.385022,421007,1609504933857950,2533770688,0.84912,-0.199104,0.134688,16.87875,17.535,-55.02875,-40.0,-12.088,-85.4,eccentric,4,5.0,35627.0,46110.0,74679.0,98023.0,31939.0,53967.0,31168.0,54316.0,20679.0,18602.0
2026-05-06 15:51:10.387678,421008,1609504933866991,2533779436,0.84912,-0.199104,0.134688,16.98375,21.63,-56.34125,-40.0,-12.088,-85.4,eccentric,4,5.0,35627.0,46110.0,74679.0,98023.0,31939.0,53967.0,31168.0,54316.0,20679.0,18602.0
2026-05-06 15:51:10.392693,421009,1609504933881559,2533792539,0.70272,-0.245952,0.042944,11.042501,26.39875,-61.34625,-40.0,-13.120001,-84.136,eccentric,4,5.0,35627.0,46110.0,74679.0,98023.0,31939.0,53967.0,31168.0,54316.0,20679.0,18602.0
2026-05-06 15:51:10.395192,421010,1609504933891035,2533803346,0.70272,-0.245952,0.042944,6.39625,28.00875,-65.66875,-40.0,-13.120001,-84.136,eccentric,4,5.0,35627.0,46110.0,74679.0,98023.0,31939.0,53967.0,31168.0,54316.0,20679.0,18602.0
2026-05-06 15:51:10.401464,421011,1609504933900035,2533812036,0.769088,-0.33184,0.021472,5.6175,28.9275,-66.255,-40.344,-14.088,-82.69601,eccentric,4,5.0,35627.0,46110.0,74679.0,98023.0,31939.0,53967.0,31168.0,54316.0,20679.0,18602.0
2026-05-06 15:51:10.415057,421012,1609504933914575,2533826961,0.769088,-0.33184,0.021472,5.1975,31.325,-67.83,-40.344,-14.088,-82.69601,eccentric,4,5.0,35627.0,46110.0,74679.0,98023.0,31939.0,53967.0,31168.0,54316.0,20679.0,18602.0
2026-05-06 15:51:10.423697,421013,1609504933923495,2533835659,0.782752,-0.212768,0.052704,13.64125,34.65,-68.27625,-40.432003,-14.320001,-82.768005,eccentric,4,5.0,35627.0,46110.0,74679.0,98023.0,31939.0,53967.0,31168.0,54316.0,20679.0,18602.0
2026-05-06 15:51:10.457645,421014,1609504933938030,2533850563,0.6832,-0.076128,0.089792,26.78375,36.89875,-68.76625,-40.104,-13.832001,-83.728004,eccentric,4,5.0,35627.0,46110.0,74679.0,98023.0,31939.0,53967.0,31168.0,54316.0,20679.0,18602.0
2026-05-06 15:51:10.487755,421015,1609504933946954,2533859239,0.6832,-0.076128,0.089792,35.21,36.68,-72.8525,-40.104,-13.832001,-83.728004,eccentric,4,5.0,35627.0,46110.0,74679.0,98023.0,31939.0,53967.0,31168.0,54316.0,20679.0,18602.0
2026-05-06 15:51:10.490282,421016,1609504933955912,2533867945,0.6832,-0.169824,0.066368,40.25,36.46125,-75.9675,-40.104,-13.832001,-83.728004,eccentric,4,5.0,35627.0,46110.0,74679.0,98023.0,31939.0,53967.0,31168.0,54316.0,20679.0,18602.0
2026-05-06 15:51:10.517624,421027,1609504933970515,2533883076,0.661728,-0.169824,0.066368,33.92375,36.70625,-78.63625,-40.368,-14.472001,-83.16,eccentric,4,5.0,35285.0,45509.0,74166.0,97683.0,31603.0,53489.0,30960.0,54149.0,20572.0,18497.0
2026-05-06 15:51:10.520189,421028,1609504933979478,2533891762,0.710528,-0.251808,0.023424,21.97125,38.2375,-73.7625,-40.096,-15.120001,-82.240005,eccentric,4,5.0,35285.0,45509.0,74166.0,97683.0,31603.0,53489.0,30960.0,54149.0,20572.0,18497.0
2026-05-06 15:51:10.522553,421029,1609504933993972,2533906712,0.710528,-0.251808,0.023424,12.90625,40.46,-68.915,-40.096,-15.120001,-82.240005,eccentric,4,5.0,35285.0,45509.0,74166.0,97683.0,31603.0,53489.0,30960.0,54149.0,20572.0,18497.0
2026-05-06 15:51:10.525191,421030,1609504934002970,2533915523,0.61488,-0.056608,0.144448,1.33875,43.076252,-73.87625,-40.112003,-17.76,-80.768005,eccentric,4,5.0,35285.0,45509.0,74166.0,97683.0,31603.0,53489.0,30960.0,54149.0,20572.0,18497.0
2026-05-06 15:51:10.527624,421031,1609504934012162,2533924349,0.61488,-0.056608,0.144448,11.3575,41.95625,-71.23375,-40.112003,-17.76,-80.768005,eccentric,4,5.0,35285.0,45509.0,74166.0,97683.0,31603.0,53489.0,30960.0,54149.0,20572.0,18497.0
2026-05-06 15:51:10.530241,421032,1609504934026866,2533939358,0.540704,0.017568,0.085888,27.62375,37.87,-65.6075,-40.56,-18.928001,-80.496,eccentric,4,5.0,35285.0,45509.0,74166.0,97683.0,31603.0,53489.0,30960.0,54149.0,20572.0,18497.0
2026-05-06 15:51:10.536603,421033,1609504934035936,2533948072,0.540704,0.017568,0.085888,32.38375,32.01625,-66.78,-40.56,-18.928001,-80.496,eccentric,4,5.0,35285.0,45509.0,74166.0,97683.0,31603.0,53489.0,30960.0,54149.0,20572.0,18497.0
2026-05-06 15:51:10.550271,421034,1609504934050472,2533963100,0.61488,-0.193248,0.07808,26.46875,27.3875,-64.9425,-40.056004,-17.880001,-82.192,eccentric,4,5.0,35285.0,45509.0,74166.0,97683.0,31603.0,53489.0,30960.0,54149.0,20572.0,18497.0
2026-05-06 15:51:10.592528,421045,1609504934059368,2533971829,0.67344,-0.212768,0.01952,15.79375,25.41875,-53.978752,-40.392002,-18.048,-81.008,eccentric,4,5.0,35181.0,44791.0,73588.0,97932.0,31482.0,52828.0,30649.0,54240.0,20552.0,18274.0
2026-05-06 15:51:10.598803,421046,1609504934074003,2533984856,0.67344,-0.212768,0.01952,10.5175,25.31375,-42.875,-40.392002,-18.048,-81.008,eccentric,4,5.0,35181.0,44791.0,73588.0,97932.0,31482.0,52828.0,30649.0,54240.0,20552.0,18274.0
2026-05-06 15:51:10.599960,421047,1609504934083359,2533995697,0.601216,-0.033184,0.072224,6.46625,24.85875,-39.76875,-40.280003,-21.616001,-78.096,eccentric,4,5.0,35181.0,44791.0,73588.0,97932.0,31482.0,52828.0,30649.0,54240.0,20552.0,18274.0
2026-05-06 15:51:10.602553,421048,1609504934092463,2534004458,0.601216,-0.033184,0.072224,7.65625,22.82875,-35.7875,-40.280003,-21.616001,-78.096,eccentric,4,5.0,35181.0,44791.0,73588.0,97932.0,31482.0,52828.0,30649.0,54240.0,20552.0,18274.0
2026-05-06 15:51:10.608894,421049,1609504934107097,2534019468,0.612928,0.02928,0.119072,15.12,18.08625,-29.16375,-40.4,-19.256,-80.552,eccentric,4,5.0,35181.0,44791.0,73588.0,97932.0,31482.0,52828.0,30649.0,54240.0,20552.0,18274.0
2026-05-06 15:51:10.615104,421050,1609504934116036,2534028230,0.612928,0.02928,0.119072,15.7325,13.51875,-26.41625,-40.4,-19.256,-80.552,eccentric,4,5.0,35181.0,44791.0,73588.0,97932.0,31482.0,52828.0,30649.0,54240.0,20552.0,18274.0
2026-05-06 15:51:10.646579,421051,1609504934130556,2534043174,0.794464,-0.163968,0.181536,9.5025,10.12375,-22.4175,-40.168003,-20.536001,-78.864006,eccentric,4,5.0,35181.0,44791.0,73588.0,97932.0,31482.0,52828.0,30649.0,54240.0,20552.0,18274.0
2026-05-06 15:51:10.671608,421052,1609504934139471,2534051856,0.743712,-0.080032,0.169824,-3.75375,9.66,-17.535,-40.696003,-18.976002,-80.688,eccentric,4,5.0,35181.0,44791.0,73588.0,97932.0,31482.0,52828.0,30649.0,54240.0,20552.0,18274.0
2026-05-06 15:51:10.687664,421053,1609504934148395,2534060762,0.743712,-0.080032,0.169824,-8.6275,9.26625,-12.50375,-40.696003,-18.976002,-80.688,eccentric,4,5.0,35181.0,44791.0,73588.0,97932.0,31482.0,52828.0,30649.0,54240.0,20552.0,18274.0
2026-05-06 15:51:10.715180,421064,1609504934162940,2534073735,0.80032,-0.015616,0.183488,-2.30125,6.65,-11.34875,-40.296,-19.072,-80.44,eccentric,4,5.0,34313.0,43611.0,72706.0,99068.0,30687.0,51777.0,30253.0,54913.0,20155.0,17858.0
2026-05-06 15:51:10.717630,421065,1609504934172331,2534084581,0.80032,-0.015616,0.183488,3.89375,4.165,-13.195,-40.296,-19.072,-80.44,eccentric,4,5.0,34313.0,43611.0,72706.0,99068.0,30687.0,51777.0,30253.0,54913.0,20155.0,17858.0
2026-05-06 15:51:10.720167,421066,1609504934186943,2534099563,0.851072,-0.015616,0.206912,8.47875,3.29,-12.6175,-40.312,-19.336,-80.79201,eccentric,4,5.0,34313.0,43611.0,72706.0,99068.0,30687.0,51777.0,30253.0,54913.0,20155.0,17858.0
2026-05-06 15:51:10.722684,421067,1609504934196055,2534108299,0.851072,-0.015616,0.206912,7.14875,3.14125,-10.64,-40.312,-19.336,-80.79201,eccentric,4,5.0,34313.0,43611.0,72706.0,99068.0,30687.0,51777.0,30253.0,54913.0,20155.0,17858.0
2026-05-06 15:51:10.725178,421068,1609504934205037,2534117034,0.833504,-0.142496,0.191296,-4.5675,3.98125,-8.505,-40.528004,-20.944,-78.096,eccentric,4,5.0,34313.0,43611.0,72706.0,99068.0,30687.0,51777.0,30253.0,54913.0,20155.0,17858.0
2026-05-06 15:51:10.727511,421069,1609504934219607,2534131978,0.894016,-0.11712,0.177632,-16.397501,4.31375,-5.7225,-40.648003,-20.704,-78.824005,eccentric,4,5.0,34313.0,43611.0,72706.0,99068.0,30687.0,51777.0,30253.0,54913.0,20155.0,17858.0
2026-05-06 15:51:10.730172,421070,1609504934228587,2534140846,0.894016,-0.11712,0.177632,-15.190001,3.71,-2.8175,-40.648003,-20.704,-78.824005,eccentric,4,5.0,34313.0,43611.0,72706.0,99068.0,30687.0,51777.0,30253.0,54913.0,20155.0,17858.0
2026-05-06 15:51:10.754032,421071,1609504934243090,2534155742,0.864736,-0.031232,0.167872,-0.84875,1.42625,-3.29875,-40.384003,-21.112001,-77.968,eccentric,4,5.0,34313.0,43611.0,72706.0,99068.0,30687.0,51777.0,30253.0,54913.0,20155.0,17858.0
2026-05-06 15:51:10.760293,421072,1609504934252005,2534164622,0.864736,-0.031232,0.167872,13.23875,-0.70875,-3.64,-40.384003,-21.112001,-77.968,eccentric,4,5.0,34313.0,43611.0,72706.0,99068.0,30687.0,51777.0,30253.0,54913.0,20155.0,17858.0
2026-05-06 15:51:10.787609,421083,1609504934266631,2534177604,0.847168,-0.06832,0.23424,17.29,-1.435,-2.0125,-39.888,-19.184,-80.536,eccentric,4,5.0,33942.0,43115.0,72527.0,99072.0,30337.0,51323.0,30137.0,54942.0,19959.0,17668.0
2026-05-06 15:51:10.790098,421084,1609504934276188,2534188457,0.847168,-0.06832,0.23424,8.42625,-1.5225,-0.70875,-39.888,-19.184,-80.536,eccentric,4,5.0,33942.0,43115.0,72527.0,99072.0,30337.0,51323.0,30137.0,54942.0,19959.0,17668.0
2026-05-06 15:51:10.795162,421085,1609504934285218,2534197196,0.919392,-0.083936,0.228384,-0.98875,-1.54,0.56,-40.320004,-22.568,-79.128006,eccentric,4,5.0,33942.0,43115.0,72527.0,99072.0,30337.0,51323.0,30137.0,54942.0,19959.0,17668.0
2026-05-06 15:51:10.801447,421086,1609504934299727,2534212136,0.88816,-0.017568,0.218624,-0.8925,-0.60375,1.19,-39.896004,-21.000002,-79.608,eccentric,4,5.0,33942.0,43115.0,72527.0,99072.0,30337.0,51323.0,30137.0,54942.0,19959.0,17668.0
2026-05-06 15:51:10.810151,421087,1609504934308643,2534220960,0.88816,-0.017568,0.218624,4.865,0.07,-1.2425,-39.896004,-21.000002,-79.608,eccentric,4,5.0,33942.0,43115.0,72527.0,99072.0,30337.0,51323.0,30137.0,54942.0,19959.0,17668.0
2026-05-06 15:51:10.824016,421088,1609504934323135,2534235853,0.825696,-0.066368,0.189344,11.0075,-0.35,-3.115,-40.312,-20.712002,-79.352005,eccentric,4,5.0,33942.0,43115.0,72527.0,99072.0,30337.0,51323.0,30137.0,54942.0,19959.0,17668.0
2026-05-06 15:51:10.832775,421089,1609504934332085,2534244740,0.825696,-0.066368,0.189344,10.68375,-1.1025,-1.33875,-40.312,-20.712002,-79.352005,eccentric,4,5.0,33942.0,43115.0,72527.0,99072.0,30337.0,51323.0,30137.0,54942.0,19959.0,17668.0
2026-05-06 15:51:10.841340,421090,1609504934341024,2534253539,0.892064,-0.046848,0.238144,8.04125,-2.10875,3.26375,-40.160004,-18.928001,-80.54401,eccentric,4,5.0,33942.0,43115.0,72527.0,99072.0,30337.0,51323.0,30137.0,54942.0,19959.0,17668.0
2026-05-06 15:51:10.858938,421091,1609504934355748,2534268426,0.892064,-0.046848,0.238144,5.29375,-2.2575,5.32,-40.160004,-18.928001,-80.54401,eccentric,4,5.0,33942.0,43115.0,72527.0,99072.0,30337.0,51323.0,30137.0,54942.0,19959.0,17668.0
2026-05-06 15:51:10.886367,421102,1609504934364911,2534277172,0.841312,0.0,0.203008,3.22875,-1.2425,4.69875,-40.272003,-19.312,-80.352005,eccentric,4,5.0,34036.0,43220.0,72563.0,98949.0,30395.0,51365.0,30169.0,54912.0,19983.0,17705.0
2026-05-06 15:51:10.888844,421103,1609504934379602,2534292187,0.853024,-0.046848,0.228384,3.7625,-0.63,3.08875,-40.312,-20.576,-81.272,eccentric,4,5.0,34036.0,43220.0,72563.0,98949.0,30395.0,51365.0,30169.0,54912.0,19983.0,17705.0
2026-05-06 15:51:10.891385,421104,1609504934388516,2534301062,0.853024,-0.046848,0.228384,1.6625,-0.4375,0.07875,-40.312,-20.576,-81.272,eccentric,4,5.0,34036.0,43220.0,72563.0,98949.0,30395.0,51365.0,30169.0,54912.0,19983.0,17705.0
2026-05-06 15:51:10.901516,421105,1609504934397544,2534309819,0.853024,-0.046848,0.228384,3.2375,-0.525,0.595,-40.312,-20.576,-81.272,eccentric,4,5.0,34036.0,43220.0,72563.0,98949.0,30395.0,51365.0,30169.0,54912.0,19983.0,17705.0
2026-05-06 15:51:10.915200,421106,1609504934412038,2534324809,0.85888,-0.046848,0.206912,5.01375,-1.58375,2.40625,-39.968002,-20.44,-80.504005,eccentric,4,5.0,34036.0,43220.0,72563.0,98949.0,30395.0,51365.0,30169.0,54912.0,19983.0,17705.0
2026-05-06 15:51:10.924009,421107,1609504934420964,2534333503,0.90768,-0.056608,0.218624,4.66375,-2.52875,3.49125,-40.320004,-18.608002,-81.07201,eccentric,4,5.0,34036.0,43220.0,72563.0,98949.0,30395.0,51365.0,30169.0,54912.0,19983.0,17705.0
2026-05-06 15:51:10.937739,421108,1609504934435503,2534346420,0.90768,-0.056608,0.218624,2.68625,-1.89875,3.31625,-40.320004,-18.608002,-81.07201,eccentric,4,5.0,34036.0,43220.0,72563.0,98949.0,30395.0,51365.0,30169.0,54912.0,19983.0,17705.0
2026-05-06 15:51:10.945473,421109,1609504934444903,2534357278,0.8784,-0.025376,0.228384,-1.91625,-0.2975,1.225,-40.312,-18.544,-80.368004,eccentric,4,5.0,34036.0,43220.0,72563.0,98949.0,30395.0,51365.0,30169.0,54912.0,19983.0,17705.0
2026-05-06 15:51:10.955258,421110,1609504934453810,2534365980,0.8784,-0.025376,0.228384,-2.59,0.5075,-0.20125,-40.312,-18.544,-80.368004,eccentric,4,5.0,34036.0,43220.0,72563.0,98949.0,30395.0,51365.0,30169.0,54912.0,19983.0,17705.0
2026-05-06 15:51:10.986078,421121,1609504934468670,2534380986,0.886208,-0.054656,0.242048,-0.98875,-0.1575,-2.5025,-39.952003,-18.176,-80.68,eccentric,4,5.0,34086.0,43281.0,72652.0,98920.0,30473.0,51438.0,30256.0,54970.0,20037.0,17725.0
2026-05-06 15:51:10.988579,421122,1609504934477624,2534389738,0.886208,-0.054656,0.242048,0.91875,-0.7875,-2.30125,-39.952003,-18.176,-80.68,eccentric,4,5.0,34086.0,43281.0,72652.0,98920.0,30473.0,51438.0,30256.0,54970.0,20037.0,17725.0
2026-05-06 15:51:11.013862,421123,1609504934492169,2534402950,0.890112,-0.031232,0.226432,3.50875,-0.7,-1.67125,-40.0,-20.272001,-77.69601,eccentric,4,5.0,34086.0,43281.0,72652.0,98920.0,30473.0,51438.0,30256.0,54970.0,20037.0,17725.0
