pc_time,serial_num,sensor_ts,host_ts,ax,ay,az,gx,gy,gz,mx,my,mz,phase,rpe,weight_kg,ppg_a,ppg_b,ppg_c,ppg_d,ppg_e,ppg_f,ppg_g,ppg_h,ppg_i,ppg_j
2026-05-06 15:51:13.689951,421613,1609504937085595,2536998155,0.913536,0.003904,0.11712,7.67375,-4.6025,6.20375,-39.592003,-19.344002,-80.880005,concentric,4,5.0,38082.0,47657.0,74918.0,102235.0,33769.0,55233.0,31225.0,56655.0,21661.0,19172.0
2026-05-06 15:51:13.692486,421614,1609504937094525,2537006889,0.913536,0.003904,0.11712,6.93,-3.8675,8.225,-39.592003,-19.344002,-80.880005,concentric,4,5.0,38082.0,47657.0,74918.0,102235.0,33769.0,55233.0,31225.0,56655.0,21661.0,19172.0
2026-05-06 15:51:13.695033,421615,1609504937103565,2537015585,0.866688,0.07808,0.171776,1.3475,-1.5225,6.15125,-39.568,-19.432001,-81.024,concentric,4,5.0,38082.0,47657.0,74918.0,102235.0,33769.0,55233.0,31225.0,56655.0,21661.0,19172.0
2026-05-06 15:51:13.697570,421616,1609504937118048,2537030669,0.866688,0.07808,0.171776,-5.01375,0.0,3.57875,-39.568,-19.432001,-81.024,concentric,4,5.0,38082.0,47657.0,74918.0,102235.0,33769.0,55233.0,31225.0,56655.0,21661.0,19172.0
2026-05-06 15:51:13.700073,421617,1609504937126944,2537039379,0.882304,-0.052704,0.21472,-9.975,-0.21875,0.14,-39.896004,-19.616001,-81.208,concentric,4,5.0,38082.0,47657.0,74918.0,102235.0,33769.0,55233.0,31225.0,56655.0,21661.0,19172.0
2026-05-06 15:51:13.702616,421618,1609504937141578,2537054280,0.921344,-0.130784,0.181536,-12.1275,-0.32375,-0.91875,-40.048,-19.496,-80.384,concentric,4,5.0,38082.0,47657.0,74918.0,102235.0,33769.0,55233.0,31225.0,56655.0,21661.0,19172.0
2026-05-06 15:51:13.705112,421619,1609504937150581,2537063043,0.921344,-0.130784,0.181536,-8.67125,-0.21875,1.365,-40.048,-19.496,-80.384,concentric,4,5.0,38082.0,47657.0,74918.0,102235.0,33769.0,55233.0,31225.0,56655.0,21661.0,19172.0
2026-05-06 15:51:13.707601,421620,1609504937165224,2537076018,0.884256,0.015616,0.169824,-2.65125,-1.39125,4.69,-39.512,-20.912,-79.69601,concentric,4,5.0,38082.0,47657.0,74918.0,102235.0,33769.0,55233.0,31225.0,56655.0,21661.0,19172.0
2026-05-06 15:51:13.713804,421621,1609504937174507,2537086836,0.884256,0.015616,0.169824,-0.69125,-1.3475,6.1775,-39.512,-20.912,-79.69601,concentric,4,5.0,38082.0,47657.0,74918.0,102235.0,33769.0,55233.0,31225.0,56655.0,21661.0,19172.0
2026-05-06 15:51:13.743906,421633,1609504937183589,2537095583,0.884256,0.089792,0.210816,-2.87,0.175,5.845,-40.024002,-18.768002,-81.128006,concentric,4,5.0,37870.0,47645.0,74621.0,102267.0,33647.0,55131.0,31073.0,56652.0,21612.0,19138.0
2026-05-06 15:51:13.746433,421634,1609504937198230,2537110606,0.884256,0.089792,0.210816,-6.8075,0.72625,3.45625,-40.024002,-18.768002,-81.128006,concentric,4,5.0,37870.0,47645.0,74621.0,102267.0,33647.0,55131.0,31073.0,56652.0,21612.0,19138.0
2026-05-06 15:51:13.748878,421635,1609504937207158,2537119322,0.853024,-0.023424,0.171776,-9.6425,0.9625,0.95375,-39.624,-20.592001,-80.344,concentric,4,5.0,37870.0,47645.0,74621.0,102267.0,33647.0,55131.0,31073.0,56652.0,21612.0,19138.0
2026-05-06 15:51:13.751468,421636,1609504937221688,2537134334,0.894016,-0.072224,0.218624,-9.38875,0.53375,0.2975,-39.728,-18.752,-79.36,concentric,4,5.0,37870.0,47645.0,74621.0,102267.0,33647.0,55131.0,31073.0,56652.0,21612.0,19138.0
2026-05-06 15:51:13.754214,421637,1609504937230809,2537143070,0.894016,-0.072224,0.218624,-6.9825,-0.5425,1.47,-39.728,-18.752,-79.36,concentric,4,5.0,37870.0,47645.0,74621.0,102267.0,33647.0,55131.0,31073.0,56652.0,21612.0,19138.0
2026-05-06 15:51:13.756530,421638,1609504937240006,2537151866,0.894016,-0.072224,0.218624,-5.13625,-1.12875,3.7275,-39.728,-18.752,-79.36,concentric,4,5.0,37870.0,47645.0,74621.0,102267.0,33647.0,55131.0,31073.0,56652.0,21612.0,19138.0
2026-05-06 15:51:13.758953,421639,1609504937254542,2537166829,0.860832,-0.05856,0.17568,-5.1275,-0.70875,4.725,-40.440002,-19.0,-82.52801,concentric,4,5.0,37870.0,47645.0,74621.0,102267.0,33647.0,55131.0,31073.0,56652.0,21612.0,19138.0
2026-05-06 15:51:13.765210,421640,1609504937263545,2537175577,0.835456,-0.035136,0.203008,-7.07875,-1.05,5.46,-40.064003,-18.904001,-80.69601,concentric,4,5.0,37870.0,47645.0,74621.0,102267.0,33647.0,55131.0,31073.0,56652.0,21612.0,19138.0
2026-05-06 15:51:13.803743,421651,1609504937278123,2537190758,0.835456,-0.035136,0.203008,-7.48125,-1.32125,6.1775,-40.064003,-18.904001,-80.69601,concentric,4,5.0,37435.0,47250.0,74280.0,101653.0,33319.0,54807.0,30894.0,56380.0,21428.0,18978.0
2026-05-06 15:51:13.806347,421652,1609504937287061,2537199488,0.837408,-0.054656,0.17568,-5.87125,-2.24,7.0175,-39.928,-18.736,-80.928,concentric,4,5.0,37435.0,47250.0,74280.0,101653.0,33319.0,54807.0,30894.0,56380.0,21428.0,18978.0
2026-05-06 15:51:13.808767,421653,1609504937296053,2537208297,0.837408,-0.054656,0.17568,-4.48875,-3.71875,7.035,-39.928,-18.736,-80.928,concentric,4,5.0,37435.0,47250.0,74280.0,101653.0,33319.0,54807.0,30894.0,56380.0,21428.0,18978.0
2026-05-06 15:51:13.811363,421654,1609504937310600,2537223355,0.860832,-0.089792,0.17568,-3.63125,-4.38375,7.14875,-40.112003,-18.872002,-79.992004,concentric,4,5.0,37435.0,47250.0,74280.0,101653.0,33319.0,54807.0,30894.0,56380.0,21428.0,18978.0
2026-05-06 15:51:13.820316,421655,1609504937319557,2537232104,0.860832,-0.089792,0.17568,-5.85375,-3.115,7.69125,-40.112003,-18.872002,-79.992004,concentric,4,5.0,37435.0,47250.0,74280.0,101653.0,33319.0,54807.0,30894.0,56380.0,21428.0,18978.0
2026-05-06 15:51:13.833939,421656,1609504937334088,2537244951,0.837408,-0.085888,0.1952,-9.7475,-2.12625,8.07625,-39.928,-20.28,-78.336006,concentric,4,5.0,37435.0,47250.0,74280.0,101653.0,33319.0,54807.0,30894.0,56380.0,21428.0,18978.0
2026-05-06 15:51:13.842674,421657,1609504937343449,2537255690,0.802272,-0.06832,0.1952,-12.4075,-1.67125,8.44375,-40.008003,-20.056002,-78.872,concentric,4,5.0,37435.0,47250.0,74280.0,101653.0,33319.0,54807.0,30894.0,56380.0,21428.0,18978.0
2026-05-06 15:51:13.851525,421658,1609504937352447,2537264417,0.802272,-0.06832,0.1952,-12.8625,-2.695,9.02125,-40.008003,-20.056002,-78.872,concentric,4,5.0,37435.0,47250.0,74280.0,101653.0,33319.0,54807.0,30894.0,56380.0,21428.0,18978.0
2026-05-06 15:51:13.887256,421659,1609504937366935,2537279369,0.872544,-0.07808,0.160064,-10.33375,-3.89375,10.35125,-40.224003,-18.216002,-81.128006,concentric,4,5.0,37435.0,47250.0,74280.0,101653.0,33319.0,54807.0,30894.0,56380.0,21428.0,18978.0
2026-05-06 15:51:13.889135,421660,1609504937375865,2537288088,0.872544,-0.07808,0.160064,-4.34,-4.9,12.48625,-40.224003,-18.216002,-81.128006,concentric,4,5.0,37435.0,47250.0,74280.0,101653.0,33319.0,54807.0,30894.0,56380.0,21428.0,18978.0
2026-05-06 15:51:13.915110,421671,1609504937390444,2537303211,0.866688,-0.081984,0.197152,-1.77625,-5.67875,13.23875,-40.144,-18.784,-80.824005,concentric,4,5.0,37132.0,46993.0,74270.0,101396.0,33072.0,54664.0,30926.0,56307.0,21270.0,18913.0
2026-05-06 15:51:13.917652,421672,1609504937399422,2537312026,0.866688,-0.081984,0.197152,-5.075,-4.41875,12.46,-40.144,-18.784,-80.824005,concentric,4,5.0,37132.0,46993.0,74270.0,101396.0,33072.0,54664.0,30926.0,56307.0,21270.0,18913.0
2026-05-06 15:51:13.920148,421673,1609504937413977,2537324902,0.825696,-0.081984,0.18544,-9.9575,-4.61125,11.9875,-40.160004,-17.616001,-80.69601,concentric,4,5.0,37132.0,46993.0,74270.0,101396.0,33072.0,54664.0,30926.0,56307.0,21270.0,18913.0
2026-05-06 15:51:13.926345,421674,1609504937423367,2537335800,0.798368,-0.083936,0.18544,-13.72875,-5.15375,12.32,-40.432003,-17.84,-79.840004,concentric,4,5.0,37132.0,46993.0,74270.0,101396.0,33072.0,54664.0,30926.0,56307.0,21270.0,18913.0
2026-05-06 15:51:13.962778,421675,1609504937432294,2537344521,0.798368,-0.083936,0.18544,-15.91625,-5.53,13.39625,-40.432003,-17.84,-79.840004,concentric,4,5.0,37132.0,46993.0,74270.0,101396.0,33072.0,54664.0,30926.0,56307.0,21270.0,18913.0
2026-05-06 15:51:13.987621,421676,1609504937446821,2537359458,0.806176,-0.115168,0.171776,-14.9275,-7.0,15.295,-40.152,-17.552,-81.504005,concentric,4,5.0,37132.0,46993.0,74270.0,101396.0,33072.0,54664.0,30926.0,56307.0,21270.0,18913.0
2026-05-06 15:51:13.993936,421677,1609504937455737,2537368168,0.806176,-0.115168,0.171776,-13.448751,-9.03,17.92,-40.152,-17.552,-81.504005,concentric,4,5.0,37132.0,46993.0,74270.0,101396.0,33072.0,54664.0,30926.0,56307.0,21270.0,18913.0
2026-05-06 15:51:13.996429,421678,1609504937470340,2537381182,0.827648,-0.105408,0.152256,-12.71375,-10.57,20.72,-40.248,-17.248001,-81.552,concentric,4,5.0,37132.0,46993.0,74270.0,101396.0,33072.0,54664.0,30926.0,56307.0,21270.0,18913.0
2026-05-06 15:51:14.023718,421689,1609504937479639,2537391955,0.827648,-0.105408,0.152256,-13.4575,-10.54375,22.4525,-40.248,-17.248001,-81.552,concentric,4,5.0,37000.0,46940.0,74292.0,101147.0,32967.0,54682.0,30978.0,56222.0,21182.0,18920.0
2026-05-06 15:51:14.028972,421690,1609504937488623,2537400699,0.776896,-0.0976,0.162016,-15.70625,-10.57875,22.4175,-40.064003,-16.968,-81.600006,concentric,4,5.0,37000.0,46940.0,74292.0,101147.0,32967.0,54682.0,30978.0,56222.0,21182.0,18920.0
2026-05-06 15:51:14.031554,421691,1609504937503170,2537415673,0.687104,-0.124928,0.121024,-16.485,-11.3925,23.178751,-40.488003,-18.024,-81.672005,concentric,4,5.0,37000.0,46940.0,74292.0,101147.0,32967.0,54682.0,30978.0,56222.0,21182.0,18920.0
2026-05-06 15:51:14.034017,421692,1609504937512318,2537424522,0.687104,-0.124928,0.121024,-15.715,-12.425,25.9875,-40.488003,-18.024,-81.672005,concentric,4,5.0,37000.0,46940.0,74292.0,101147.0,32967.0,54682.0,30978.0,56222.0,21182.0,18920.0
2026-05-06 15:51:14.036472,421693,1609504937526882,2537439596,0.708576,-0.181536,0.111264,-15.0675,-14.6125,31.35125,-40.312,-17.6,-81.888,concentric,4,5.0,37000.0,46940.0,74292.0,101147.0,32967.0,54682.0,30978.0,56222.0,21182.0,18920.0
2026-05-06 15:51:14.038959,421694,1609504937535802,2537448315,0.708576,-0.181536,0.111264,-16.9925,-15.74125,37.87875,-40.312,-17.6,-81.888,concentric,4,5.0,37000.0,46940.0,74292.0,101147.0,32967.0,54682.0,30978.0,56222.0,21182.0,18920.0
2026-05-06 15:51:14.047733,421695,1609504937544873,2537457009,0.698816,-0.142496,0.103456,-23.1,-17.40375,41.29125,-40.352,-15.648001,-81.896,concentric,4,5.0,37000.0,46940.0,74292.0,101147.0,32967.0,54682.0,30978.0,56222.0,21182.0,18920.0
2026-05-06 15:51:14.059024,421696,1609504937559497,2537471945,0.698816,-0.142496,0.103456,-29.855,-17.9025,43.09375,-40.352,-15.648001,-81.896,concentric,4,5.0,37000.0,46940.0,74292.0,101147.0,32967.0,54682.0,30978.0,56222.0,21182.0,18920.0
2026-05-06 15:51:14.071262,421697,1609504937568590,2537480678,0.667584,-0.119072,0.0976,-29.05,-18.3225,45.71875,-39.912003,-15.280001,-82.22401,concentric,4,5.0,37000.0,46940.0,74292.0,101147.0,32967.0,54682.0,30978.0,56222.0,21182.0,18920.0
2026-05-06 15:51:14.108656,421708,1609504937583674,2537495663,0.667584,-0.17568,0.142496,-27.8425,-19.25875,45.482502,-40.04,-14.936001,-82.37601,concentric,4,5.0,36901.0,46974.0,74459.0,100722.0,32895.0,54753.0,31033.0,55962.0,21146.0,18960.0
2026-05-06 15:51:14.111224,421709,1609504937592650,2537504440,0.665632,-0.17568,0.142496,-29.015,-20.545,47.11,-40.04,-14.936001,-82.37601,concentric,4,5.0,36901.0,46974.0,74459.0,100722.0,32895.0,54753.0,31033.0,55962.0,21146.0,18960.0
2026-05-06 15:51:14.113646,421710,1609504937601749,2537513163,0.665632,-0.17568,0.142496,-29.51375,-21.58625,51.1175,-40.04,-14.936001,-82.37601,concentric,4,5.0,36901.0,46974.0,74459.0,100722.0,32895.0,54753.0,31033.0,55962.0,21146.0,18960.0
2026-05-06 15:51:14.116247,421711,1609504937616261,2537528136,0.677344,-0.220576,0.115168,-31.96375,-21.95375,54.670002,-40.288002,-14.272,-83.47201,concentric,4,5.0,36901.0,46974.0,74459.0,100722.0,32895.0,54753.0,31033.0,55962.0,21146.0,18960.0
2026-05-06 15:51:14.125224,421712,1609504937625254,2537536817,0.671488,-0.21472,0.1464,-34.85125,-22.2075,57.47,-40.248,-13.528001,-80.600006,concentric,4,5.0,36901.0,46974.0,74459.0,100722.0,32895.0,54753.0,31033.0,55962.0,21146.0,18960.0
2026-05-06 15:51:14.141572,421713,1609504937639786,2537551819,0.671488,-0.21472,0.1464,-37.09125,-21.866251,56.28,-40.248,-13.528001,-80.600006,concentric,4,5.0,36901.0,46974.0,74459.0,100722.0,32895.0,54753.0,31033.0,55962.0,21146.0,18960.0
2026-05-06 15:51:14.147606,421714,1609504937648693,2537560518,0.655872,-0.152256,0.152256,-35.21875,-21.3325,57.12875,-39.776,-14.592001,-81.824005,concentric,4,5.0,36901.0,46974.0,74459.0,100722.0,32895.0,54753.0,31033.0,55962.0,21146.0,18960.0
2026-05-06 15:51:14.184110,421715,1609504937663178,2537575588,0.655872,-0.152256,0.152256,-32.78625,-21.70875,58.45,-39.776,-14.592001,-81.824005,concentric,4,5.0,36901.0,46974.0,74459.0,100722.0,32895.0,54753.0,31033.0,55962.0,21146.0,18960.0
2026-05-06 15:51:14.186561,421716,1609504937672107,2537584287,0.708576,-0.226432,0.0,-29.98625,-21.6125,58.8875,-40.440002,-13.920001,-83.664,concentric,4,5.0,36901.0,46974.0,74459.0,100722.0,32895.0,54753.0,31033.0,55962.0,21146.0,18960.0
2026-05-06 15:51:14.211357,421727,1609504937681090,2537593164,0.708576,-0.226432,0.0,-30.905,-21.0875,57.925,-40.440002,-13.920001,-83.664,concentric,4,5.0,36780.0,46728.0,74464.0,100455.0,32780.0,54591.0,31039.0,55826.0,21110.0,18893.0
2026-05-06 15:51:14.213956,421728,1609504937695680,2537608119,0.772992,-0.20496,0.050752,-36.82,-18.5325,54.845,-39.768,-11.744,-83.744,concentric,4,5.0,36780.0,46728.0,74464.0,100455.0,32780.0,54591.0,31039.0,55826.0,21110.0,18893.0
2026-05-06 15:51:14.216497,421729,1609504937704637,2537616891,0.72224,-0.267424,0.128832,-36.72375,-14.60375,52.56125,-40.592003,-13.128,-82.976006,concentric,4,5.0,36780.0,46728.0,74464.0,100455.0,32780.0,54591.0,31039.0,55826.0,21110.0,18893.0
2026-05-06 15:51:14.225237,421730,1609504937719139,2537629956,0.72224,-0.267424,0.128832,-43.6275,-12.145,44.94,-40.592003,-13.128,-82.976006,concentric,4,5.0,36780.0,46728.0,74464.0,100455.0,32780.0,54591.0,31039.0,55826.0,21110.0,18893.0
2026-05-06 15:51:14.227642,421731,1609504937728429,2537640796,0.661728,-0.286944,0.167872,-48.36125,-11.45375,40.83625,-40.816,-13.328001,-81.864006,concentric,4,5.0,36780.0,46728.0,74464.0,100455.0,32780.0,54591.0,31039.0,55826.0,21110.0,18893.0
2026-05-06 15:51:14.238870,421732,1609504937737528,2537649525,0.661728,-0.286944,0.167872,-38.84125,-12.15375,45.7275,-40.816,-13.328001,-81.864006,concentric,4,5.0,36780.0,46728.0,74464.0,100455.0,32780.0,54591.0,31039.0,55826.0,21110.0,18893.0
2026-05-06 15:51:14.252647,421733,1609504937752144,2537664598,0.718336,-0.279136,0.070272,-29.4175,-12.845,52.263752,-40.52,-10.144,-84.16801,concentric,4,5.0,36780.0,46728.0,74464.0,100455.0,32780.0,54591.0,31039.0,55826.0,21110.0,18893.0
2026-05-06 15:51:14.263849,421734,1609504937761105,2537673349,0.718336,-0.279136,0.070272,-23.205,-12.3025,56.56,-40.52,-10.144,-84.16801,concentric,4,5.0,36780.0,46728.0,74464.0,100455.0,32780.0,54591.0,31039.0,55826.0,21110.0,18893.0
2026-05-06 15:51:14.281868,421735,1609504937775652,2537688302,0.776896,-0.247904,-0.05856,-18.366251,-11.2,56.62125,-40.368,-9.112,-84.47201,concentric,4,5.0,36780.0,46728.0,74464.0,100455.0,32780.0,54591.0,31039.0,55826.0,21110.0,18893.0
2026-05-06 15:51:14.393680,421746,1609504937785104,2537697045,0.776896,-0.21472,-0.037088,-21.76125,-9.485,49.638752,-40.368,-8.776,-85.248,concentric,4,5.0,36745.0,46619.0,74452.0,100104.0,32731.0,54430.0,30993.0,55572.0,21070.0,18836.0
2026-05-06 15:51:14.396478,421747,1609504937794258,2537705898,0.749568,-0.21472,-0.037088,-28.8225,-8.65375,38.9375,-40.800003,-8.776,-85.248,concentric,4,5.0,36745.0,46619.0,74452.0,100104.0,32731.0,54430.0,30993.0,55572.0,21070.0,18836.0
2026-05-06 15:51:14.398966,421748,1609504937808871,2537720852,0.737856,-0.255712,0.06832,-23.625,-8.365,34.81625,-40.976,-10.008,-83.456,concentric,4,5.0,36745.0,46619.0,74452.0,100104.0,32731.0,54430.0,30993.0,55572.0,21070.0,18836.0
2026-05-06 15:51:14.401543,421749,1609504937817822,2537729596,0.737856,-0.255712,0.06832,-20.79,-8.636251,31.29,-40.976,-10.008,-83.456,concentric,4,5.0,36745.0,46619.0,74452.0,100104.0,32731.0,54430.0,30993.0,55572.0,21070.0,18836.0
2026-05-06 15:51:14.403991,421750,1609504937832327,2537744526,0.675392,-0.347456,0.105408,-24.272501,-6.88625,27.72875,-40.816,-7.888001,-85.176,concentric,4,5.0,36745.0,46619.0,74452.0,100104.0,32731.0,54430.0,30993.0,55572.0,21070.0,18836.0
2026-05-06 15:51:14.406568,421751,1609504937841409,2537753248,0.675392,-0.347456,0.105408,-20.615,-6.92125,29.70625,-40.816,-7.888001,-85.176,concentric,4,5.0,36745.0,46619.0,74452.0,100104.0,32731.0,54430.0,30993.0,55572.0,21070.0,18836.0
2026-05-06 15:51:14.409072,421752,1609504937855907,2537768265,0.767136,-0.2928,0.060512,-17.87625,-7.175,30.87,-41.048,-6.648,-85.392006,concentric,4,5.0,36745.0,46619.0,74452.0,100104.0,32731.0,54430.0,30993.0,55572.0,21070.0,18836.0
2026-05-06 15:51:14.411447,421753,1609504937864817,2537776956,0.767136,-0.2928,-0.033184,-7.595,-8.12875,29.89875,-41.048,-6.648,-85.392006,concentric,4,5.0,36745.0,46619.0,74452.0,100104.0,32731.0,54430.0,30993.0,55572.0,21070.0,18836.0
2026-05-06 15:51:14.413992,421754,1609504937873722,2537785646,0.831552,-0.148352,-0.037088,9.21375,-10.6925,22.89875,-41.048,-6.536,-86.01601,concentric,4,5.0,36745.0,46619.0,74452.0,100104.0,32731.0,54430.0,30993.0,55572.0,21070.0,18836.0
2026-05-06 15:51:14.446396,421765,1609504937888319,2537800720,0.798368,-0.173728,0.06832,10.14125,-12.95,10.12375,-41.128002,-6.376,-85.888,concentric,4,5.0,36203.0,46572.0,73843.0,100467.0,32344.0,54324.0,30702.0,55612.0,20958.0,18833.0
2026-05-06 15:51:14.448754,421766,1609504937897217,2537809409,0.798368,-0.173728,0.06832,6.4575,-13.13375,1.8375,-41.128002,-6.376,-85.888,concentric,4,5.0,36203.0,46572.0,73843.0,100467.0,32344.0,54324.0,30702.0,55612.0,20958.0,18833.0
2026-05-06 15:51:14.457574,421767,1609504937911944,2537824379,0.845216,-0.407968,0.119072,4.8475,-11.06875,0.97125,-41.408,-5.656,-85.68,concentric,4,5.0,36203.0,46572.0,73843.0,100467.0,32344.0,54324.0,30702.0,55612.0,20958.0,18833.0
2026-05-06 15:51:14.459947,421768,1609504937920894,2537833107,0.845216,-0.407968,0.119072,3.7625,-9.1,1.225,-41.408,-5.656,-85.68,concentric,4,5.0,36203.0,46572.0,73843.0,100467.0,32344.0,54324.0,30702.0,55612.0,20958.0,18833.0
2026-05-06 15:51:14.463500,421769,1609504937929902,2537842036,0.905728,-0.472384,0.05856,-13.29125,-5.6,-3.43,-41.600002,-5.928001,-86.28001,concentric,4,5.0,36203.0,46572.0,73843.0,100467.0,32344.0,54324.0,30702.0,55612.0,20958.0,18833.0
2026-05-06 15:51:14.464958,421770,1609504937944529,2537856994,0.905728,-0.472384,0.05856,-17.928751,-1.785,-0.51625,-41.600002,-5.928001,-86.28001,concentric,4,5.0,36203.0,46572.0,73843.0,100467.0,32344.0,54324.0,30702.0,55612.0,20958.0,18833.0
2026-05-06 15:51:14.471384,421771,1609504937953404,2537865721,1.097024,-0.300608,-0.0488,-2.54625,0.06125,2.96625,-41.376003,-4.904,-88.656006,concentric,4,5.0,36203.0,46572.0,73843.0,100467.0,32344.0,54324.0,30702.0,55612.0,20958.0,18833.0
2026-05-06 15:51:14.473632,421772,1609504937968035,2537880754,1.046272,-0.2928,0.134688,5.005,0.93625,-3.36,-41.920002,-6.416,-85.128006,concentric,4,5.0,36203.0,46572.0,73843.0,100467.0,32344.0,54324.0,30702.0,55612.0,20958.0,18833.0
2026-05-06 15:51:14.476377,421773,1609504937977067,2537889533,1.046272,-0.2928,0.134688,5.9325,0.20125,-9.9225,-41.920002,-6.416,-85.128006,concentric,4,5.0,36203.0,46572.0,73843.0,100467.0,32344.0,54324.0,30702.0,55612.0,20958.0,18833.0
2026-05-06 15:51:14.507633,421784,1609504937991640,2537902460,1.179008,-0.534848,-0.001952,4.2875,-1.79375,-13.48375,-42.256,-6.84,-85.768005,concentric,4,5.0,34193.0,44167.0,72620.0,98222.0,30811.0,52219.0,30152.0,54548.0,20187.0,17954.0
2026-05-06 15:51:14.510182,421785,1609504938001165,2537913317,1.179008,-0.534848,-0.001952,4.795,-2.73875,-15.9425,-42.256,-6.84,-85.768005,concentric,4,5.0,34193.0,44167.0,72620.0,98222.0,30811.0,52219.0,30152.0,54548.0,20187.0,17954.0
2026-05-06 15:51:14.512754,421786,1609504938010177,2537922102,1.177056,-0.550464,0.12688,-1.53125,-0.805,-21.88375,-42.528004,-6.272,-85.744,concentric,4,5.0,34193.0,44167.0,72620.0,98222.0,30811.0,52219.0,30152.0,54548.0,20187.0,17954.0
2026-05-06 15:51:14.526161,421787,1609504938024713,2537937037,1.177056,-0.550464,0.12688,-4.68125,3.01875,-22.18125,-42.528004,-6.272,-85.744,concentric,4,5.0,34193.0,44167.0,72620.0,98222.0,30811.0,52219.0,30152.0,54548.0,20187.0,17954.0
2026-05-06 15:51:14.534886,421788,1609504938033627,2537945760,1.149728,-0.476288,0.091744,1.6625,6.1775,-19.32875,-42.648003,-4.312,-87.096,concentric,4,5.0,34193.0,44167.0,72620.0,98222.0,30811.0,52219.0,30152.0,54548.0,20187.0,17954.0
2026-05-06 15:51:14.551100,421789,1609504938048122,2537960754,1.206336,-0.493856,0.033184,6.32625,9.073751,-20.44875,-42.656002,-5.480001,-85.920006,concentric,4,5.0,34193.0,44167.0,72620.0,98222.0,30811.0,52219.0,30152.0,54548.0,20187.0,17954.0
2026-05-06 15:51:14.557702,421790,1609504938057046,2537969457,1.206336,-0.493856,0.033184,9.1,10.745,-19.495,-42.656002,-5.480001,-85.920006,concentric,4,5.0,34193.0,44167.0,72620.0,98222.0,30811.0,52219.0,30152.0,54548.0,20187.0,17954.0
2026-05-06 15:51:14.566443,421791,1609504938065980,2537978208,1.206336,-0.493856,0.033184,12.50375,11.585,-18.33125,-42.656002,-5.480001,-85.920006,concentric,4,5.0,34193.0,44167.0,72620.0,98222.0,30811.0,52219.0,30152.0,54548.0,20187.0,17954.0
2026-05-06 15:51:14.580246,421792,1609504938080507,2537993175,1.284416,-0.650016,-0.023424,16.9225,11.69,-19.7225,-43.248,-4.6,-85.68,concentric,4,5.0,34193.0,44167.0,72620.0,98222.0,30811.0,52219.0,30152.0,54548.0,20187.0,17954.0
2026-05-06 15:51:14.607560,421803,1609504938089618,2538002013,1.182912,-0.59536,0.167872,8.23375,13.48375,-23.33625,-43.472004,-4.68,-86.456,concentric,4,5.0,33110.0,42423.0,72240.0,96117.0,29750.0,50743.0,29985.0,53520.0,19611.0,17353.0
2026-05-06 15:51:14.609948,421804,1609504938104213,2538014985,1.182912,-0.59536,0.167872,6.30875,16.765,-22.015,-43.472004,-4.68,-86.456,concentric,4,5.0,33110.0,42423.0,72240.0,96117.0,29750.0,50743.0,29985.0,53520.0,19611.0,17353.0
2026-05-06 15:51:14.613663,421805,1609504938113506,2538025808,1.15168,-0.56608,0.121024,11.917501,18.6725,-19.62625,-43.584003,-5.032,-86.504005,concentric,4,5.0,33110.0,42423.0,72240.0,96117.0,29750.0,50743.0,29985.0,53520.0,19611.0,17353.0
2026-05-06 15:51:14.622658,421806,1609504938122454,2538034547,1.15168,-0.56608,0.121024,14.06125,19.78375,-19.18875,-43.584003,-5.032,-86.504005,concentric,4,5.0,33110.0,42423.0,72240.0,96117.0,29750.0,50743.0,29985.0,53520.0,19611.0,17353.0
2026-05-06 15:51:14.636588,421807,1609504938136952,2538049495,1.16144,-0.540704,0.06832,15.58375,20.67625,-17.29875,-44.144,-5.032,-85.272,concentric,4,5.0,33110.0,42423.0,72240.0,96117.0,29750.0,50743.0,29985.0,53520.0,19611.0,17353.0
2026-05-06 15:51:14.650099,421808,1609504938145961,2538058229,1.16144,-0.540704,0.06832,14.6825,20.36125,-14.79625,-44.144,-5.032,-85.272,concentric,4,5.0,33110.0,42423.0,72240.0,96117.0,29750.0,50743.0,29985.0,53520.0,19611.0,17353.0
2026-05-06 15:51:14.663742,421809,1609504938160478,2538073115,1.097024,-0.532896,0.083936,14.105001,19.39,-13.04625,-44.336002,-6.056,-84.32001,concentric,4,5.0,33110.0,42423.0,72240.0,96117.0,29750.0,50743.0,29985.0,53520.0,19611.0,17353.0
2026-05-06 15:51:14.688894,421810,1609504938169454,2538081826,1.016992,-0.51728,0.080032,12.29375,18.7775,-11.90875,-44.208004,-4.312,-85.32001,concentric,4,5.0,33110.0,42423.0,72240.0,96117.0,29750.0,50743.0,29985.0,53520.0,19611.0,17353.0
2026-05-06 15:51:14.714005,421811,1609504938183952,2538094721,1.016992,-0.51728,0.080032,11.2525,17.57875,-9.2225,-44.208004,-4.312,-85.32001,concentric,4,5.0,33110.0,42423.0,72240.0,96117.0,29750.0,50743.0,29985.0,53520.0,19611.0,17353.0
2026-05-06 15:51:14.755279,421822,1609504938193286,2538105560,0.962336,-0.472384,0.105408,10.89375,16.3625,-7.77,-44.504,-4.304,-84.936005,concentric,4,5.0,33235.0,42157.0,72159.0,95478.0,29724.0,50492.0,29923.0,53150.0,19635.0,17311.0
2026-05-06 15:51:14.757691,421823,1609504938202299,2538114334,0.962336,-0.472384,0.105408,13.335,14.5075,-7.0175,-44.504,-4.304,-84.936005,concentric,4,5.0,33235.0,42157.0,72159.0,95478.0,29724.0,50492.0,29923.0,53150.0,19635.0,17311.0
2026-05-06 15:51:14.759917,421824,1609504938216787,2538129270,0.921344,-0.42944,0.044896,17.9025,12.9675,-5.53,-44.832,-4.008,-84.928,concentric,4,5.0,33235.0,42157.0,72159.0,95478.0,29724.0,50492.0,29923.0,53150.0,19635.0,17311.0
2026-05-06 15:51:14.762377,421825,1609504938225707,2538137954,0.921344,-0.42944,0.044896,23.835001,11.52375,-4.62,-44.832,-4.008,-84.928,concentric,4,5.0,33235.0,42157.0,72159.0,95478.0,29724.0,50492.0,29923.0,53150.0,19635.0,17311.0
2026-05-06 15:51:14.765187,421826,1609504938240226,2538152881,0.894016,-0.386496,0.054656,25.40125,9.61625,-5.95,-44.88,-3.888,-84.984,concentric,4,5.0,33235.0,42157.0,72159.0,95478.0,29724.0,50492.0,29923.0,53150.0,19635.0,17311.0
2026-05-06 15:51:14.767670,421827,1609504938249159,2538161687,0.81008,-0.327936,0.044896,19.215,7.90125,-8.2075,-44.896004,-7.32,-81.864006,concentric,4,5.0,33235.0,42157.0,72159.0,95478.0,29724.0,50492.0,29923.0,53150.0,19635.0,17311.0
2026-05-06 15:51:14.770203,421828,1609504938258176,2538170472,0.81008,-0.327936,0.044896,10.42125,5.9675,-9.275,-44.896004,-7.32,-81.864006,concentric,4,5.0,33235.0,42157.0,72159.0,95478.0,29724.0,50492.0,29923.0,53150.0,19635.0,17311.0
2026-05-06 15:51:14.777557,421829,1609504938272716,2538185467,0.812032,-0.320128,0.10736,3.03625,4.3225,-10.85875,-44.808002,-5.704001,-83.520004,concentric,4,5.0,33235.0,42157.0,72159.0,95478.0,29724.0,50492.0,29923.0,53150.0,19635.0,17311.0
2026-05-06 15:51:14.783988,421830,1609504938281762,2538194222,0.812032,-0.320128,0.10736,-0.49,2.89625,-12.845,-44.808002,-5.704001,-83.520004,concentric,4,5.0,33235.0,42157.0,72159.0,95478.0,29724.0,50492.0,29923.0,53150.0,19635.0,17311.0
2026-05-06 15:51:14.811413,421841,1609504938296479,2538207259,0.8296,-0.347456,0.083936,2.0125,0.2975,-13.95625,-44.744003,-4.6,-84.104004,concentric,4,5.0,33645.0,42685.0,72562.0,95551.0,30025.0,50845.0,30072.0,53161.0,19762.0,17424.0
2026-05-06 15:51:14.813931,421842,1609504938305757,2538218065,0.8296,-0.347456,0.083936,9.84375,-2.05625,-14.595,-44.744003,-4.6,-84.104004,concentric,4,5.0,33645.0,42685.0,72562.0,95551.0,30025.0,50845.0,30072.0,53161.0,19762.0,17424.0
2026-05-06 15:51:14.822795,421843,1609504938320340,2538232985,0.81984,-0.368928,0.064416,16.40625,-3.955,-16.00375,-45.144,-5.4,-83.608,concentric,4,5.0,33645.0,42685.0,72562.0,95551.0,30025.0,50845.0,30072.0,53161.0,19762.0,17424.0
2026-05-06 15:51:14.831089,421844,1609504938329272,2538241751,0.83936,-0.30256,0.115168,19.39875,-5.53,-15.05875,-44.504,-4.144,-84.504005,concentric,4,5.0,33645.0,42685.0,72562.0,95551.0,30025.0,50845.0,30072.0,53161.0,19762.0,17424.0
2026-05-06 15:51:14.838504,421845,1609504938338391,2538250524,0.83936,-0.30256,0.115168,19.66125,-6.195,-13.09,-44.504,-4.144,-84.504005,concentric,4,5.0,33645.0,42685.0,72562.0,95551.0,30025.0,50845.0,30072.0,53161.0,19762.0,17424.0
2026-05-06 15:51:14.871587,421846,1609504938353055,2538265459,0.8296,-0.265472,0.130784,16.87875,-5.69625,-13.11625,-44.632004,-4.072,-85.064,concentric,4,5.0,33645.0,42685.0,72562.0,95551.0,30025.0,50845.0,30072.0,53161.0,19762.0,17424.0
2026-05-06 15:51:14.874029,421847,1609504938361996,2538274156,0.8296,-0.265472,0.130784,10.57875,-4.8125,-14.385,-44.632004,-4.072,-85.064,concentric,4,5.0,33645.0,42685.0,72562.0,95551.0,30025.0,50845.0,30072.0,53161.0,19762.0,17424.0
2026-05-06 15:51:14.877586,421848,1609504938376474,2538289030,0.860832,-0.320128,0.0976,5.95,-4.13,-14.385,-44.792004,-4.184,-84.784004,concentric,4,5.0,33645.0,42685.0,72562.0,95551.0,30025.0,50845.0,30072.0,53161.0,19762.0,17424.0
2026-05-06 15:51:14.910028,421859,1609504938385408,2538297729,0.860832,-0.320128,0.0976,4.5675,-2.94,-15.16375,-44.792004,-4.184,-84.784004,concentric,4,5.0,34157.0,43138.0,72819.0,95930.0,30356.0,51199.0,30212.0,53339.0,19903.0,17541.0
2026-05-06 15:51:14.912489,421860,1609504938394415,2538306476,0.86864,-0.35136,0.12688,5.5825,-1.60125,-16.6775,-44.672,-6.376,-83.624,concentric,4,5.0,34157.0,43138.0,72819.0,95930.0,30356.0,51199.0,30212.0,53339.0,19903.0,17541.0
2026-05-06 15:51:14.915210,421861,1609504938409009,2538321495,0.86864,-0.35136,0.13664,8.8025,-0.41125,-16.1875,-44.672,-6.376,-83.624,concentric,4,5.0,34157.0,43138.0,72819.0,95930.0,30356.0,51199.0,30212.0,53339.0,19903.0,17541.0
2026-05-06 15:51:14.917694,421862,1609504938417940,2538330230,0.847168,-0.304512,0.13664,13.18625,0.63875,-15.37375,-44.656002,-5.04,-84.984,concentric,4,5.0,34157.0,43138.0,72819.0,95930.0,30356.0,51199.0,30212.0,53339.0,19903.0,17541.0
2026-05-06 15:51:14.965108,421863,1609504938432474,2538345143,0.864736,-0.269376,0.138592,13.4575,1.6275,-14.34125,-45.04,-4.6,-84.520004,concentric,4,5.0,34157.0,43138.0,72819.0,95930.0,30356.0,51199.0,30212.0,53339.0,19903.0,17541.0
2026-05-06 15:51:14.967664,421864,1609504938441475,2538353847,0.864736,-0.269376,0.138592,11.8475,3.29875,-14.25375,-45.04,-4.6,-84.520004,concentric,4,5.0,34157.0,43138.0,72819.0,95930.0,30356.0,51199.0,30212.0,53339.0,19903.0,17541.0
2026-05-06 15:51:14.970167,421865,1609504938455968,2538366765,0.870592,-0.2928,0.12688,9.24875,4.2875,-13.95625,-44.728,-4.52,-84.840004,concentric,4,5.0,34157.0,43138.0,72819.0,95930.0,30356.0,51199.0,30212.0,53339.0,19903.0,17541.0
2026-05-06 15:51:14.972719,421866,1609504938465198,2538377543,0.870592,-0.2928,0.12688,7.28,4.54125,-13.78125,-44.728,-4.52,-84.840004,concentric,4,5.0,34157.0,43138.0,72819.0,95930.0,30356.0,51199.0,30212.0,53339.0,19903.0,17541.0
2026-05-06 15:51:14.975208,421867,1609504938474100,2538386253,0.876448,-0.288896,0.062464,10.5175,4.59375,-13.30875,-44.728,-4.808,-84.44,concentric,4,5.0,34157.0,43138.0,72819.0,95930.0,30356.0,51199.0,30212.0,53339.0,19903.0,17541.0
2026-05-06 15:51:15.017692,421878,1609504938489227,2538401257,0.876448,-0.288896,0.062464,14.6125,3.75375,-12.53,-44.728,-4.808,-84.44,concentric,4,5.0,34691.0,43707.0,73069.0,96346.0,30720.0,51572.0,30246.0,53466.0,20054.0,17673.0
2026-05-06 15:51:15.018245,421879,1609504938498335,2538410066,0.8784,-0.275232,0.085888,15.505,3.66625,-11.94375,-44.736004,-4.888,-81.952,concentric,4,5.0,34691.0,43707.0,73069.0,96346.0,30720.0,51572.0,30246.0,53466.0,20054.0,17673.0
2026-05-06 15:51:15.020089,421880,1609504938507308,2538418826,0.8784,-0.275232,0.085888,13.76375,3.47375,-11.29625,-44.736004,-4.888,-81.952,concentric,4,5.0,34691.0,43707.0,73069.0,96346.0,30720.0,51572.0,30246.0,53466.0,20054.0,17673.0
2026-05-06 15:51:15.022526,421881,1609504938521997,2538433796,0.899872,-0.255712,0.142496,10.94625,3.08,-11.40125,-44.968002,-6.248,-83.448006,concentric,4,5.0,34691.0,43707.0,73069.0,96346.0,30720.0,51572.0,30246.0,53466.0,20054.0,17673.0
2026-05-06 15:51:15.031961,421882,1609504938531010,2538442694,0.905728,-0.25376,0.130784,6.2125,2.94875,-12.27625,-44.928,-6.616,-83.28001,concentric,4,5.0,34691.0,43707.0,73069.0,96346.0,30720.0,51572.0,30246.0,53466.0,20054.0,17673.0
2026-05-06 15:51:15.056325,421883,1609504938545505,2538457645,0.905728,-0.25376,0.130784,3.89375,2.93125,-11.64625,-44.928,-6.616,-83.28001,concentric,4,5.0,34691.0,43707.0,73069.0,96346.0,30720.0,51572.0,30246.0,53466.0,20054.0,17673.0
2026-05-06 15:51:15.081509,421884,1609504938554395,2538466359,0.921344,-0.300608,0.128832,4.82125,2.485,-10.9375,-45.032,-4.96,-84.136,concentric,4,5.0,34691.0,43707.0,73069.0,96346.0,30720.0,51572.0,30246.0,53466.0,20054.0,17673.0
2026-05-06 15:51:15.100260,421885,1609504938568873,2538481292,0.921344,-0.300608,0.128832,6.41375,2.44125,-10.7975,-45.032,-4.96,-84.136,concentric,4,5.0,34691.0,43707.0,73069.0,96346.0,30720.0,51572.0,30246.0,53466.0,20054.0,17673.0
2026-05-06 15:51:15.102706,421886,1609504938577800,2538490056,0.911584,-0.290848,0.16592,8.42625,2.09125,-9.1875,-44.608,-4.648,-84.48,concentric,4,5.0,34691.0,43707.0,73069.0,96346.0,30720.0,51572.0,30246.0,53466.0,20054.0,17673.0
2026-05-06 15:51:15.130058,421897,1609504938586743,2538498737,0.911584,-0.290848,0.16592,9.730001,1.33,-7.11375,-44.608,-4.648,-84.48,concentric,4,5.0,35107.0,44164.0,73330.0,96887.0,31019.0,51984.0,30403.0,53766.0,20220.0,17846.0
2026-05-06 15:51:15.132569,421898,1609504938601373,2538513775,0.899872,-0.238144,0.119072,9.6775,1.1725,-5.94125,-44.984,-4.696,-84.4,concentric,4,5.0,35107.0,44164.0,73330.0,96887.0,31019.0,51984.0,30403.0,53766.0,20220.0,17846.0
2026-05-06 15:51:15.135161,421899,1609504938610318,2538522527,0.899872,-0.238144,0.119072,7.5425,1.77625,-4.19125,-44.984,-4.696,-84.4,concentric,4,5.0,35107.0,44164.0,73330.0,96887.0,31019.0,51984.0,30403.0,53766.0,20220.0,17846.0
2026-05-06 15:51:15.137670,421900,1609504938624859,2538537490,0.919392,-0.242048,0.128832,4.13875,2.38875,-3.40375,-45.36,-6.208,-83.176,concentric,4,5.0,35107.0,44164.0,73330.0,96887.0,31019.0,51984.0,30403.0,53766.0,20220.0,17846.0
2026-05-06 15:51:15.140206,421901,1609504938633862,2538546223,0.944768,-0.284992,0.138592,1.25125,2.77375,-3.045,-44.904003,-5.976,-83.200005,concentric,4,5.0,35107.0,44164.0,73330.0,96887.0,31019.0,51984.0,30403.0,53766.0,20220.0,17846.0
2026-05-06 15:51:15.148986,421902,1609504938648615,2538561237,0.944768,-0.284992,0.138592,1.82875,2.54625,-2.12625,-44.904003,-5.976,-83.200005,concentric,4,5.0,35107.0,44164.0,73330.0,96887.0,31019.0,51984.0,30403.0,53766.0,20220.0,17846.0
2026-05-06 15:51:15.157657,421903,1609504938657677,2538569967,0.942816,-0.30256,0.111264,3.36,1.60125,-1.40875,-45.008003,-6.264,-84.024,concentric,4,5.0,35107.0,44164.0,73330.0,96887.0,31019.0,51984.0,30403.0,53766.0,20220.0,17846.0
2026-05-06 15:51:15.166540,421904,1609504938666682,2538578702,0.942816,-0.30256,0.111264,3.38625,0.175,-0.81375,-45.008003,-6.264,-84.024,concentric,4,5.0,35107.0,44164.0,73330.0,96887.0,31019.0,51984.0,30403.0,53766.0,20220.0,17846.0
2026-05-06 15:51:15.180251,421905,1609504938681189,2538593654,0.94672,-0.281088,0.160064,1.95125,-0.7875,1.4875,-44.768,-4.464,-84.248,concentric,4,5.0,35107.0,44164.0,73330.0,96887.0,31019.0,51984.0,30403.0,53766.0,20220.0,17846.0
2026-05-06 15:51:15.217761,421916,1609504938690680,2538602452,0.94672,-0.281088,0.160064,-2.59875,-1.51375,3.68375,-44.768,-4.464,-84.248,concentric,4,5.0,35319.0,44439.0,73445.0,97226.0,31203.0,52234.0,30448.0,53933.0,20310.0,17944.0
2026-05-06 15:51:15.220546,421917,1609504938705272,2538617379,0.999424,-0.249856,0.11712,-6.3,-2.555,5.46875,-44.960003,-4.984,-84.576004,concentric,4,5.0,35319.0,44439.0,73445.0,97226.0,31203.0,52234.0,30448.0,53933.0,20310.0,17944.0
2026-05-06 15:51:15.222381,421918,1609504938714207,2538626160,1.15168,-0.33184,0.076128,-5.67875,-4.06875,6.11625,-44.536003,-4.36,-84.712006,concentric,4,5.0,35319.0,44439.0,73445.0,97226.0,31203.0,52234.0,30448.0,53933.0,20310.0,17944.0
2026-05-06 15:51:15.224913,421919,1609504938723330,2538635028,1.15168,-0.33184,0.076128,1.4525,-5.39,7.2625,-44.536003,-4.36,-84.712006,concentric,4,5.0,35319.0,44439.0,73445.0,97226.0,31203.0,52234.0,30448.0,53933.0,20310.0,17944.0
2026-05-06 15:51:15.240519,421920,1609504938737821,2538649992,1.165344,-0.450912,0.226432,3.2025,-5.95,9.77375,-44.744003,-4.008,-84.344,eccentric,4,5.0,35319.0,44439.0,73445.0,97226.0,31203.0,52234.0,30448.0,53933.0,20310.0,17944.0
2026-05-06 15:51:15.247514,421921,1609504938746795,2538658725,1.165344,-0.450912,0.226432,-0.44625,-4.795,15.2775,-44.744003,-4.008,-84.344,eccentric,4,5.0,35319.0,44439.0,73445.0,97226.0,31203.0,52234.0,30448.0,53933.0,20310.0,17944.0
2026-05-06 15:51:15.261443,421922,1609504938761335,2538673694,1.126304,-0.411872,0.238144,-8.61875,-4.54125,24.045,-44.312,-4.24,-84.368004,eccentric,4,5.0,35319.0,44439.0,73445.0,97226.0,31203.0,52234.0,30448.0,53933.0,20310.0,17944.0
2026-05-06 15:51:15.272734,421923,1609504938770324,2538682421,1.126304,-0.411872,0.238144,-17.9025,-4.55,27.2475,-44.312,-4.24,-84.368004,eccentric,4,5.0,35319.0,44439.0,73445.0,97226.0,31203.0,52234.0,30448.0,53933.0,20310.0,17944.0
2026-05-06 15:51:15.278903,421924,1609504938779246,2538691145,1.163392,-0.324032,0.169824,-21.5075,-7.18375,26.53,-44.168003,-4.28,-84.424,eccentric,4,5.0,35319.0,44439.0,73445.0,97226.0,31203.0,52234.0,30448.0,53933.0,20310.0,17944.0
2026-05-06 15:51:15.324949,421935,1609504938793907,2538706236,1.264896,-0.46848,0.124928,-20.20375,-9.44125,27.973751,-44.152,-4.024,-84.05601,eccentric,4,5.0,35332.0,44353.0,73417.0,97472.0,31216.0,52133.0,30425.0,54099.0,20309.0,17895.0
2026-05-06 15:51:15.327419,421936,1609504938802935,2538714990,1.264896,-0.46848,0.124928,-17.47375,-10.71,24.3425,-44.152,-4.024,-84.05601,eccentric,4,5.0,35332.0,44353.0,73417.0,97472.0,31216.0,52133.0,30425.0,54099.0,20309.0,17895.0
2026-05-06 15:51:15.329821,421937,1609504938817516,2538729911,1.1712,-0.523136,0.251808,-17.12375,-10.605001,24.52625,-44.064003,-5.16,-83.928,eccentric,4,5.0,35332.0,44353.0,73417.0,97472.0,31216.0,52133.0,30425.0,54099.0,20309.0,17895.0
2026-05-06 15:51:15.332214,421938,1609504938826465,2538738711,1.1712,-0.523136,0.251808,-18.64625,-10.7625,28.56,-44.064003,-5.16,-83.928,eccentric,4,5.0,35332.0,44353.0,73417.0,97472.0,31216.0,52133.0,30425.0,54099.0,20309.0,17895.0
2026-05-06 15:51:15.341437,421939,1609504938841062,2538753637,1.157536,-0.452864,0.222528,-20.08125,-12.8975,28.035,-43.440002,-4.848,-83.576004,eccentric,4,5.0,35332.0,44353.0,73417.0,97472.0,31216.0,52133.0,30425.0,54099.0,20309.0,17895.0
2026-05-06 15:51:15.351598,421940,1609504938850050,2538762352,1.157536,-0.452864,0.222528,-19.29375,-15.46125,27.405,-43.440002,-4.848,-83.576004,eccentric,4,5.0,35332.0,44353.0,73417.0,97472.0,31216.0,52133.0,30425.0,54099.0,20309.0,17895.0
2026-05-06 15:51:15.360268,421941,1609504938859066,2538771063,1.20048,-0.456768,0.13664,-20.195,-16.05625,27.09,-43.072002,-3.112,-85.47201,eccentric,4,5.0,35332.0,44353.0,73417.0,97472.0,31216.0,52133.0,30425.0,54099.0,20309.0,17895.0
2026-05-06 15:51:15.395499,421942,1609504938873724,2538786024,1.09312,-0.443104,0.140544,-19.775,-14.21875,25.01625,-42.608,-3.456,-86.368004,eccentric,4,5.0,35332.0,44353.0,73417.0,97472.0,31216.0,52133.0,30425.0,54099.0,20309.0,17895.0
2026-05-06 15:51:15.396347,421943,1609504938882724,2538794769,1.09312,-0.443104,0.140544,-20.15125,-11.261251,20.34375,-42.608,-3.456,-86.368004,eccentric,4,5.0,35332.0,44353.0,73417.0,97472.0,31216.0,52133.0,30425.0,54099.0,20309.0,17895.0
2026-05-06 15:51:15.488536,421954,1609504938897228,2538809802,1.089216,-0.431392,0.072224,-15.82875,-9.68625,16.6425,-42.36,-3.816,-85.08,eccentric,4,5.0,35082.0,44156.0,73405.0,97152.0,31114.0,51981.0,30447.0,53959.0,20245.0,17833.0
2026-05-06 15:51:15.488807,421955,1609504938906168,2538818503,1.089216,-0.431392,0.072224,-11.47125,-8.82,14.81375,-42.36,-3.816,-85.08,eccentric,4,5.0,35082.0,44156.0,73405.0,97152.0,31114.0,51981.0,30447.0,53959.0,20245.0,17833.0
2026-05-06 15:51:15.495454,421956,1609504938915127,2538827357,1.095072,-0.386496,0.085888,-10.85,-7.32375,10.78,-42.208,-3.752,-84.768005,eccentric,4,5.0,35082.0,44156.0,73405.0,97152.0,31114.0,51981.0,30447.0,53959.0,20245.0,17833.0
2026-05-06 15:51:15.495575,421957,1609504938929618,2538842278,1.095072,-0.386496,0.085888,-10.14125,-5.005,8.02375,-42.208,-3.752,-84.768005,eccentric,4,5.0,35082.0,44156.0,73405.0,97152.0,31114.0,51981.0,30447.0,53959.0,20245.0,17833.0
2026-05-06 15:51:15.499912,421958,1609504938938530,2538851161,0.979904,-0.337696,0.16592,-14.35875,-2.4675,0.58625,-41.856003,-4.304,-85.296005,eccentric,4,5.0,35082.0,44156.0,73405.0,97152.0,31114.0,51981.0,30447.0,53959.0,20245.0,17833.0
2026-05-06 15:51:15.502516,421959,1609504938953060,2538864022,0.979904,-0.337696,0.150304,-17.710001,-1.00625,-5.8975,-41.856003,-4.304,-85.296005,eccentric,4,5.0,35082.0,44156.0,73405.0,97152.0,31114.0,51981.0,30447.0,53959.0,20245.0,17833.0
2026-05-06 15:51:15.505025,421960,1609504938962466,2538874786,0.979904,-0.298656,0.152256,-18.13,-0.3675,-10.386251,-41.752003,-4.472,-85.232,eccentric,4,5.0,35082.0,44156.0,73405.0,97152.0,31114.0,51981.0,30447.0,53959.0,20245.0,17833.0
2026-05-06 15:51:15.507674,421961,1609504938976967,2538889722,0.950624,-0.300608,0.093696,-8.8025,-0.1575,-14.1225,-41.784,-5.064,-85.024,eccentric,4,5.0,35082.0,44156.0,73405.0,97152.0,31114.0,51981.0,30447.0,53959.0,20245.0,17833.0
2026-05-06 15:51:15.512627,421962,1609504938985947,2538898523,0.950624,-0.300608,0.093696,1.11125,-0.245,-18.1125,-41.784,-5.064,-85.024,eccentric,4,5.0,35082.0,44156.0,73405.0,97152.0,31114.0,51981.0,30447.0,53959.0,20245.0,17833.0
2026-05-06 15:51:15.540286,421973,1609504938995159,2538907461,0.892064,-0.343552,0.023424,7.875,-0.28,-23.54625,-41.584003,-7.832,-85.504005,eccentric,4,5.0,35058.0,44318.0,73394.0,97022.0,31162.0,52150.0,30467.0,53927.0,20288.0,17916.0
2026-05-06 15:51:15.542809,421974,1609504939009724,2538922420,0.892064,-0.343552,0.023424,8.9075,1.19,-29.32125,-41.584003,-7.832,-85.504005,eccentric,4,5.0,35058.0,44318.0,73394.0,97022.0,31162.0,52150.0,30467.0,53927.0,20288.0,17916.0
2026-05-06 15:51:15.545190,421975,1609504939018732,2538931318,0.909632,-0.286944,0.216672,2.09125,4.34,-34.95625,-41.912003,-6.832,-84.664,eccentric,4,5.0,35058.0,44318.0,73394.0,97022.0,31162.0,52150.0,30467.0,53927.0,20288.0,17916.0
2026-05-06 15:51:15.547750,421976,1609504939033304,2538944259,0.909632,-0.286944,0.216672,-7.6475,8.2775,-38.22,-41.912003,-6.832,-84.664,eccentric,4,5.0,35058.0,44318.0,73394.0,97022.0,31162.0,52150.0,30467.0,53927.0,20288.0,17916.0
2026-05-06 15:51:15.550245,421977,1609504939042770,2538955084,0.864736,-0.128832,0.072224,-0.60375,12.76625,-38.54375,-41.448,-7.016,-83.944,eccentric,4,5.0,35058.0,44318.0,73394.0,97022.0,31162.0,52150.0,30467.0,53927.0,20288.0,17916.0
2026-05-06 15:51:15.552833,421978,1609504939051741,2538963815,0.864736,-0.128832,0.072224,14.323751,13.90375,-42.48125,-41.448,-7.016,-83.944,eccentric,4,5.0,35058.0,44318.0,73394.0,97022.0,31162.0,52150.0,30467.0,53927.0,20288.0,17916.0
2026-05-06 15:51:15.595475,421979,1609504939066277,2538978717,0.815936,-0.228384,0.070272,22.0675,12.85375,-52.61375,-41.376003,-7.936,-83.944,eccentric,4,5.0,35058.0,44318.0,73394.0,97022.0,31162.0,52150.0,30467.0,53927.0,20288.0,17916.0
2026-05-06 15:51:15.607607,421980,1609504939075197,2538987629,0.77104,-0.310368,0.02928,22.00625,13.36125,-60.9175,-41.328003,-9.096001,-85.28001,eccentric,4,5.0,35058.0,44318.0,73394.0,97022.0,31162.0,52150.0,30467.0,53927.0,20288.0,17916.0
2026-05-06 15:51:15.612440,421981,1609504939089706,2539000484,0.77104,-0.310368,0.02928,21.42,14.14,-61.888752,-41.328003,-9.096001,-85.28001,eccentric,4,5.0,35058.0,44318.0,73394.0,97022.0,31162.0,52150.0,30467.0,53927.0,20288.0,17916.0
2026-05-06 15:51:15.645179,421992,1609504939098891,2539011422,0.786656,-0.179584,0.095648,17.99,17.08,-62.69375,-41.296,-10.0,-83.36,eccentric,4,5.0,35246.0,44631.0,73291.0,96520.0,31295.0,52397.0,30417.0,53594.0,20370.0,18030.0
2026-05-06 15:51:15.647613,421993,1609504939107829,2539020229,0.786656,-0.179584,0.095648,16.8,21.55125,-61.76625,-41.296,-10.0,-83.36,eccentric,4,5.0,35246.0,44631.0,73291.0,96520.0,31295.0,52397.0,30417.0,53594.0,20370.0,18030.0
2026-05-06 15:51:15.650206,421994,1609504939122360,2539033116,0.579744,0.011712,0.154208,17.57,23.616251,-62.1425,-41.424004,-10.904,-82.600006,eccentric,4,5.0,35246.0,44631.0,73291.0,96520.0,31295.0,52397.0,30417.0,53594.0,20370.0,18030.0
2026-05-06 15:51:15.652755,421995,1609504939131758,2539043931,0.579744,0.011712,0.154208,23.31,22.37375,-69.125,-41.424004,-10.904,-82.600006,eccentric,4,5.0,35246.0,44631.0,73291.0,96520.0,31295.0,52397.0,30417.0,53594.0,20370.0,18030.0
2026-05-06 15:51:15.655257,421996,1609504939146289,2539058897,0.689056,-0.255712,0.070272,26.11875,19.46875,-80.80625,-41.664,-13.216001,-81.32001,eccentric,4,5.0,35246.0,44631.0,73291.0,96520.0,31295.0,52397.0,30417.0,53594.0,20370.0,18030.0
2026-05-06 15:51:15.661569,421997,1609504939155255,2539067708,0.788608,-0.382592,0.148352,16.12625,20.5975,-87.98125,-41.664,-14.552001,-81.4,eccentric,4,5.0,35246.0,44631.0,73291.0,96520.0,31295.0,52397.0,30417.0,53594.0,20370.0,18030.0
2026-05-06 15:51:15.663997,421998,1609504939164304,2539076469,0.788608,-0.382592,0.148352,9.0125,25.803751,-84.42,-41.304,-14.552001,-81.4,eccentric,4,5.0,35246.0,44631.0,73291.0,96520.0,31295.0,52397.0,30417.0,53594.0,20370.0,18030.0
2026-05-06 15:51:15.697622,421999,1609504939178801,2539091483,0.568032,0.040992,0.275232,9.5725,31.43,-81.62,-40.920002,-14.176001,-81.896,eccentric,4,5.0,35246.0,44631.0,73291.0,96520.0,31295.0,52397.0,30417.0,53594.0,20370.0,18030.0
2026-05-06 15:51:15.700129,422000,1609504939187713,2539100218,0.568032,0.040992,0.275232,24.57875,34.65875,-76.99125,-40.920002,-14.176001,-81.896,eccentric,4,5.0,35246.0,44631.0,73291.0,96520.0,31295.0,52397.0,30417.0,53594.0,20370.0,18030.0
2026-05-06 15:51:15.734031,422011,1609504939202344,2539113147,0.470432,0.052704,0.144448,41.3175,32.305,-76.055,-40.72,-15.048,-81.12,eccentric,4,5.0,34969.0,44476.0,72923.0,97341.0,31125.0,52276.0,30259.0,54031.0,20340.0,18014.0
2026-05-06 15:51:15.736605,422012,1609504939211816,2539123966,0.470432,0.052704,0.144448,38.6225,28.63875,-86.16125,-40.72,-15.048,-81.12,eccentric,4,5.0,34969.0,44476.0,72923.0,97341.0,31125.0,52276.0,30259.0,54031.0,20340.0,18014.0
2026-05-06 15:51:15.739021,422013,1609504939220880,2539132628,0.708576,-0.365024,0.095648,30.6425,26.635,-90.0375,-41.608,-19.232,-78.84801,eccentric,4,5.0,34969.0,44476.0,72923.0,97341.0,31125.0,52276.0,30259.0,54031.0,20340.0,18014.0
2026-05-06 15:51:15.741588,422014,1609504939235401,2539147553,0.708576,-0.177632,0.230336,23.616251,29.54,-81.7425,-41.608,-19.232,-78.84801,eccentric,4,5.0,34969.0,44476.0,72923.0,97341.0,31125.0,52276.0,30259.0,54031.0,20340.0,18014.0
2026-05-06 15:51:15.744070,422015,1609504939244340,2539156267,0.620736,-0.183488,0.230336,18.69875,36.19875,-73.40375,-41.096,-17.168001,-78.416,eccentric,4,5.0,34969.0,44476.0,72923.0,97341.0,31125.0,52276.0,30259.0,54031.0,20340.0,18014.0
2026-05-06 15:51:15.797601,422016,1609504939258960,2539171196,0.306464,0.247904,0.193248,14.30625,40.3025,-73.56125,-40.696003,-18.312,-80.04,eccentric,4,5.0,34969.0,44476.0,72923.0,97341.0,31125.0,52276.0,30259.0,54031.0,20340.0,18014.0
2026-05-06 15:51:15.813963,422017,1609504939267906,2539179923,0.306464,0.247904,0.193248,23.47625,35.7175,-74.20875,-40.696003,-18.312,-80.04,eccentric,4,5.0,34969.0,44476.0,72923.0,97341.0,31125.0,52276.0,30259.0,54031.0,20340.0,18014.0
2026-05-06 15:51:15.816352,422018,1609504939282387,2539194858,0.501664,-0.070272,0.130784,29.39125,28.5075,-74.8475,-40.4,-18.856,-79.69601,eccentric,4,5.0,34969.0,44476.0,72923.0,97341.0,31125.0,52276.0,30259.0,54031.0,20340.0,18014.0
2026-05-06 15:51:15.849001,422030,1609504939291324,2539203627,0.501664,-0.070272,0.130784,24.38625,22.5925,-69.32625,-40.4,-18.856,-79.69601,eccentric,4,5.0,35563.0,44752.0,73096.0,97805.0,31621.0,52605.0,30360.0,54308.0,20655.0,18211.0
2026-05-06 15:51:15.851603,422031,1609504939300775,2539212396,0.724192,-0.347456,0.109312,16.8525,21.98,-54.5125,-40.184002,-19.824001,-79.232,eccentric,4,5.0,35563.0,44752.0,73096.0,97805.0,31621.0,52605.0,30360.0,54308.0,20655.0,18211.0
2026-05-06 15:51:15.854064,422032,1609504939315286,2539227270,0.724192,-0.347456,0.109312,8.925,23.19625,-44.79125,-40.184002,-19.824001,-79.232,eccentric,4,5.0,35563.0,44752.0,73096.0,97805.0,31621.0,52605.0,30360.0,54308.0,20655.0,18211.0
2026-05-06 15:51:15.856609,422033,1609504939324503,2539236010,0.50752,-0.005856,0.144448,3.6575,24.85875,-43.61875,-40.448,-19.84,-79.144005,eccentric,4,5.0,35563.0,44752.0,73096.0,97805.0,31621.0,52605.0,30360.0,54308.0,20655.0,18211.0
2026-05-06 15:51:15.862713,422034,1609504939339025,2539250972,0.587552,0.046848,0.111264,6.69375,19.425,-38.885,-40.632004,-20.152,-79.464005,eccentric,4,5.0,35563.0,44752.0,73096.0,97805.0,31621.0,52605.0,30360.0,54308.0,20655.0,18211.0
2026-05-06 15:51:15.866936,422035,1609504939347983,2539259663,0.587552,0.046848,0.111264,6.09875,13.32625,-32.2,-40.632004,-20.152,-79.464005,eccentric,4,5.0,35563.0,44752.0,73096.0,97805.0,31621.0,52605.0,30360.0,54308.0,20655.0,18211.0
2026-05-06 15:51:15.867557,422036,1609504939356989,2539268382,0.757376,-0.119072,0.199104,-1.61875,9.135,-24.99,-40.664,-21.672,-77.872,eccentric,4,5.0,35563.0,44752.0,73096.0,97805.0,31621.0,52605.0,30360.0,54308.0,20655.0,18211.0
2026-05-06 15:51:15.873003,422037,1609504939371481,2539283316,0.757376,-0.119072,0.199104,-4.095,7.34125,-18.3225,-40.664,-21.672,-77.872,eccentric,4,5.0,35563.0,44752.0,73096.0,97805.0,31621.0,52605.0,30360.0,54308.0,20655.0,18211.0
2026-05-06 15:51:15.880043,422038,1609504939380409,2539292062,0.675392,-0.080032,0.251808,-6.3875,7.4375,-17.928751,-40.392002,-20.320002,-78.952,eccentric,4,5.0,35563.0,44752.0,73096.0,97805.0,31621.0,52605.0,30360.0,54308.0,20655.0,18211.0
2026-05-06 15:51:15.918574,422049,1609504939395578,2539307042,0.675392,-0.080032,0.251808,-1.855,6.4225,-17.21125,-40.392002,-20.320002,-78.952,eccentric,4,5.0,35542.0,44617.0,72997.0,98673.0,31495.0,52434.0,30329.0,54740.0,20559.0,18127.0
2026-05-06 15:51:15.921155,422050,1609504939404801,2539315839,0.735904,-0.035136,0.189344,9.65125,1.65375,-13.86875,-40.744003,-21.984001,-79.872,eccentric,4,5.0,35542.0,44617.0,72997.0,98673.0,31495.0,52434.0,30329.0,54740.0,20559.0,18127.0
2026-05-06 15:51:15.923559,422051,1609504939414148,2539326715,0.735904,-0.035136,0.189344,18.48875,-2.275,-8.5925,-40.744003,-21.984001,-79.872,eccentric,4,5.0,35542.0,44617.0,72997.0,98673.0,31495.0,52434.0,30329.0,54740.0,20559.0,18127.0
2026-05-06 15:51:15.927361,422052,1609504939428682,2539339601,0.815936,-0.040992,0.21472,13.93,-2.87875,-0.97125,-40.84,-23.552002,-77.032005,eccentric,4,5.0,35542.0,44617.0,72997.0,98673.0,31495.0,52434.0,30329.0,54740.0,20559.0,18127.0
2026-05-06 15:51:15.937424,422053,1609504939438081,2539350425,0.821792,-0.06832,0.261568,-3.15,-0.9625,2.8875,-40.736,-20.52,-81.512,eccentric,4,5.0,35542.0,44617.0,72997.0,98673.0,31495.0,52434.0,30329.0,54740.0,20559.0,18127.0
2026-05-06 15:51:15.951467,422054,1609504939452572,2539363345,0.821792,-0.06832,0.261568,-17.89375,-0.28,3.955,-40.736,-20.52,-81.512,eccentric,4,5.0,35542.0,44617.0,72997.0,98673.0,31495.0,52434.0,30329.0,54740.0,20559.0,18127.0
2026-05-06 15:51:15.966736,422055,1609504939461898,2539374146,0.84912,-0.00976,0.222528,-12.3725,-1.8375,6.44,-40.464,-20.080002,-79.43201,eccentric,4,5.0,35542.0,44617.0,72997.0,98673.0,31495.0,52434.0,30329.0,54740.0,20559.0,18127.0
2026-05-06 15:51:15.971427,422056,1609504939470811,2539382843,0.84912,-0.00976,0.222528,1.98625,-5.18875,6.6675,-40.464,-20.080002,-79.43201,eccentric,4,5.0,35542.0,44617.0,72997.0,98673.0,31495.0,52434.0,30329.0,54740.0,20559.0,18127.0
2026-05-06 15:51:15.995083,422057,1609504939485457,2539397775,0.899872,-0.031232,0.290848,10.5875,-7.09625,7.07,-40.904003,-19.552,-79.05601,eccentric,4,5.0,35542.0,44617.0,72997.0,98673.0,31495.0,52434.0,30329.0,54740.0,20559.0,18127.0
2026-05-06 15:51:16.025299,422068,1609504939494490,2539406562,0.899872,-0.031232,0.290848,9.24875,-7.27125,9.9575,-40.904003,-19.552,-79.05601,eccentric,4,5.0,35553.0,44743.0,73158.0,99186.0,31477.0,52521.0,30402.0,54982.0,20519.0,18133.0
2026-05-06 15:51:16.027644,422069,1609504939509188,2539421626,0.843264,-0.02928,0.26352,1.1025,-6.11625,12.573751,-40.600002,-19.784,-79.52801,eccentric,4,5.0,35553.0,44743.0,73158.0,99186.0,31477.0,52521.0,30402.0,54982.0,20519.0,18133.0
2026-05-06 15:51:16.030224,422070,1609504939518194,2539430419,0.853024,-0.050752,0.201056,-9.45,-4.3925,15.75875,-41.016003,-20.832,-77.80801,eccentric,4,5.0,35553.0,44743.0,73158.0,99186.0,31477.0,52521.0,30402.0,54982.0,20519.0,18133.0
2026-05-06 15:51:16.032767,422071,1609504939527152,2539439116,0.853024,-0.050752,0.201056,-14.55125,-4.50625,17.26375,-41.016003,-20.832,-77.80801,eccentric,4,5.0,35553.0,44743.0,73158.0,99186.0,31477.0,52521.0,30402.0,54982.0,20519.0,18133.0
2026-05-06 15:51:16.042765,422072,1609504939541726,2539454061,0.892064,-0.005856,0.220576,-9.87875,-6.18625,15.5925,-40.616,-21.656,-77.656006,eccentric,4,5.0,35553.0,44743.0,73158.0,99186.0,31477.0,52521.0,30402.0,54982.0,20519.0,18133.0
2026-05-06 15:51:16.051588,422073,1609504939550630,2539462777,0.892064,-0.005856,0.220576,2.0125,-7.245,13.79875,-40.616,-21.656,-77.656006,eccentric,4,5.0,35553.0,44743.0,73158.0,99186.0,31477.0,52521.0,30402.0,54982.0,20519.0,18133.0
2026-05-06 15:51:16.068630,422074,1609504939565317,2539477691,0.884256,0.054656,0.189344,11.235,-7.7875,11.47125,-40.784,-18.712002,-79.008,eccentric,4,5.0,35553.0,44743.0,73158.0,99186.0,31477.0,52521.0,30402.0,54982.0,20519.0,18133.0
2026-05-06 15:51:16.076298,422075,1609504939574275,2539486427,0.884256,0.054656,0.189344,10.10625,-8.2425,7.04375,-40.784,-18.712002,-79.008,eccentric,4,5.0,35553.0,44743.0,73158.0,99186.0,31477.0,52521.0,30402.0,54982.0,20519.0,18133.0
2026-05-06 15:51:16.082462,422076,1609504939583247,2539495158,0.851072,-0.007808,0.271328,4.06,-7.42,4.4625,-40.368,-18.960001,-79.888,eccentric,4,5.0,35553.0,44743.0,73158.0,99186.0,31477.0,52521.0,30402.0,54982.0,20519.0,18133.0
2026-05-06 15:51:16.116553,422087,1609504939598070,2539510192,0.851072,-0.007808,0.286944,-1.82875,-6.67625,4.62,-40.368,-18.960001,-79.888,eccentric,4,5.0,35694.0,44949.0,73294.0,99273.0,31605.0,52698.0,30480.0,55122.0,20593.0,18194.0
2026-05-06 15:51:16.119008,422088,1609504939607297,2539519008,0.903776,-0.07808,0.286944,-4.20875,-6.58,4.9875,-40.784,-19.272001,-79.624,eccentric,4,5.0,35694.0,44949.0,73294.0,99273.0,31605.0,52698.0,30480.0,55122.0,20593.0,18194.0
2026-05-06 15:51:16.121538,422089,1609504939621817,2539534015,0.880352,0.017568,0.23424,-3.24625,-6.1425,4.7075,-40.824,-18.272001,-79.128006,eccentric,4,5.0,35694.0,44949.0,73294.0,99273.0,31605.0,52698.0,30480.0,55122.0,20593.0,18194.0
2026-05-06 15:51:16.132591,422090,1609504939630815,2539542775,0.880352,0.017568,0.23424,4.5675,-5.2675,3.395,-40.824,-18.272001,-79.128006,eccentric,4,5.0,35694.0,44949.0,73294.0,99273.0,31605.0,52698.0,30480.0,55122.0,20593.0,18194.0
2026-05-06 15:51:16.162418,422091,1609504939639827,2539551489,0.884256,0.037088,0.21472,9.5375,-5.285,1.155,-40.52,-18.304,-80.768005,eccentric,4,5.0,35694.0,44949.0,73294.0,99273.0,31605.0,52698.0,30480.0,55122.0,20593.0,18194.0
2026-05-06 15:51:16.185169,422092,1609504939654280,2539566436,0.884256,0.037088,0.21472,8.98625,-5.775,-0.13125,-40.52,-18.304,-80.768005,eccentric,4,5.0,35694.0,44949.0,73294.0,99273.0,31605.0,52698.0,30480.0,55122.0,20593.0,18194.0
2026-05-06 15:51:16.206577,422093,1609504939663276,2539575162,0.874496,-0.001952,0.247904,4.89125,-6.2825,0.35,-40.4,-18.608002,-80.08,eccentric,4,5.0,35694.0,44949.0,73294.0,99273.0,31605.0,52698.0,30480.0,55122.0,20593.0,18194.0
2026-05-06 15:51:16.209011,422094,1609504939677817,2539590186,0.874496,-0.001952,0.247904,-1.68,-6.0725,1.9775,-40.4,-18.608002,-80.08,eccentric,4,5.0,35694.0,44949.0,73294.0,99273.0,31605.0,52698.0,30480.0,55122.0,20593.0,18194.0
2026-05-06 15:51:16.211415,422095,1609504939686720,2539598943,0.845216,-0.011712,0.230336,-7.42,-5.6,3.43875,-40.616,-18.344002,-79.088005,eccentric,4,5.0,35694.0,44949.0,73294.0,99273.0,31605.0,52698.0,30480.0,55122.0,20593.0,18194.0
