pc_time,serial_num,sensor_ts,host_ts,ax,ay,az,gx,gy,gz,mx,my,mz,phase,rpe,weight_kg,ppg_a,ppg_b,ppg_c,ppg_d,ppg_e,ppg_f,ppg_g,ppg_h,ppg_i,ppg_j
2026-05-06 15:51:05.757499,420137,1609504929234750,2529146638,0.884256,-0.0488,0.191296,-4.34875,-8.4875,5.985,-41.672,-19.256,-78.296005,concentric,4,5.0,34513.0,43926.0,72484.0,99306.0,30753.0,51847.0,30136.0,55238.0,20228.0,17906.0
2026-05-06 15:51:05.760024,420138,1609504929249382,2529161661,0.85888,-0.070272,0.210816,-0.14,-8.417501,4.40125,-41.776,-20.872002,-77.248,concentric,4,5.0,34513.0,43926.0,72484.0,99306.0,30753.0,51847.0,30136.0,55238.0,20228.0,17906.0
2026-05-06 15:51:05.762430,420139,1609504929258341,2529170414,0.85888,-0.070272,0.210816,0.2975,-8.30375,4.54125,-41.776,-20.872002,-77.248,concentric,4,5.0,34513.0,43926.0,72484.0,99306.0,30753.0,51847.0,30136.0,55238.0,20228.0,17906.0
2026-05-06 15:51:05.776282,420140,1609504929272935,2529185344,0.837408,-0.070272,0.228384,-1.365,-8.44375,5.8975,-41.320004,-18.856,-78.96001,concentric,4,5.0,34513.0,43926.0,72484.0,99306.0,30753.0,51847.0,30136.0,55238.0,20228.0,17906.0
2026-05-06 15:51:05.782414,420141,1609504929281902,2529194046,0.835456,-0.02928,0.1952,-3.59625,-8.61875,6.965,-41.640003,-18.896002,-78.736,concentric,4,5.0,34513.0,43926.0,72484.0,99306.0,30753.0,51847.0,30136.0,55238.0,20228.0,17906.0
2026-05-06 15:51:05.791692,420142,1609504929290827,2529202772,0.835456,-0.02928,0.1952,-4.375,-8.8025,7.60375,-41.640003,-18.896002,-78.736,concentric,4,5.0,34513.0,43926.0,72484.0,99306.0,30753.0,51847.0,30136.0,55238.0,20228.0,17906.0
2026-05-06 15:51:05.804920,420143,1609504929305348,2529217740,0.845216,-0.02928,0.183488,-3.3425,-9.19625,8.65375,-41.512,-18.408,-79.01601,concentric,4,5.0,34513.0,43926.0,72484.0,99306.0,30753.0,51847.0,30136.0,55238.0,20228.0,17906.0
2026-05-06 15:51:05.813625,420144,1609504929314301,2529226439,0.845216,-0.02928,0.183488,-2.9925,-9.37125,8.4875,-41.512,-18.408,-79.01601,concentric,4,5.0,34513.0,43926.0,72484.0,99306.0,30753.0,51847.0,30136.0,55238.0,20228.0,17906.0
2026-05-06 15:51:05.827465,420145,1609504929328907,2529241298,0.85888,-0.095648,0.247904,-3.87625,-9.24,8.1375,-41.464,-18.480001,-78.608,concentric,4,5.0,34513.0,43926.0,72484.0,99306.0,30753.0,51847.0,30136.0,55238.0,20228.0,17906.0
2026-05-06 15:51:05.915280,420156,1609504929338075,2529250262,0.85888,-0.095648,0.247904,-7.595,-8.56625,9.24875,-41.464,-18.480001,-78.608,concentric,4,5.0,34507.0,43984.0,72566.0,99371.0,30807.0,51945.0,30191.0,55340.0,20231.0,17949.0
2026-05-06 15:51:05.917755,420157,1609504929347044,2529259019,0.806176,-0.093696,0.210816,-9.63375,-8.37375,10.87625,-41.488003,-18.464,-78.824005,concentric,4,5.0,34507.0,43984.0,72566.0,99371.0,30807.0,51945.0,30191.0,55340.0,20231.0,17949.0
2026-05-06 15:51:05.920249,420158,1609504929361656,2529274002,0.827648,-0.040992,0.179584,-8.58375,-9.23125,13.448751,-41.456,-17.960001,-79.624,concentric,4,5.0,34507.0,43984.0,72566.0,99371.0,30807.0,51945.0,30191.0,55340.0,20231.0,17949.0
2026-05-06 15:51:05.922784,420159,1609504929370718,2529282726,0.827648,-0.040992,0.179584,-5.90625,-10.14125,15.155,-41.456,-17.960001,-79.624,concentric,4,5.0,34507.0,43984.0,72566.0,99371.0,30807.0,51945.0,30191.0,55340.0,20231.0,17949.0
2026-05-06 15:51:05.927637,420160,1609504929385209,2529297627,0.845216,-0.044896,0.222528,-2.79125,-11.042501,16.3625,-41.36,-17.44,-79.096,concentric,4,5.0,34507.0,43984.0,72566.0,99371.0,30807.0,51945.0,30191.0,55340.0,20231.0,17949.0
2026-05-06 15:51:05.930278,420161,1609504929394154,2529306374,0.845216,-0.044896,0.222528,-3.2025,-11.3575,16.1175,-41.36,-17.44,-79.096,concentric,4,5.0,34507.0,43984.0,72566.0,99371.0,30807.0,51945.0,30191.0,55340.0,20231.0,17949.0
2026-05-06 15:51:05.932755,420162,1609504929408658,2529321292,0.831552,-0.099552,0.228384,-5.145,-10.823751,15.58375,-41.696003,-18.704,-78.16801,concentric,4,5.0,34507.0,43984.0,72566.0,99371.0,30807.0,51945.0,30191.0,55340.0,20231.0,17949.0
2026-05-06 15:51:05.935284,420163,1609504929417576,2529329991,0.831552,-0.099552,0.228384,-8.0675,-11.05125,16.77375,-41.696003,-18.704,-78.16801,concentric,4,5.0,34507.0,43984.0,72566.0,99371.0,30807.0,51945.0,30191.0,55340.0,20231.0,17949.0
2026-05-06 15:51:05.937775,420164,1609504929426676,2529338769,0.815936,-0.13664,0.230336,-11.025,-10.745,19.25875,-41.272003,-19.176,-78.512,concentric,4,5.0,34507.0,43984.0,72566.0,99371.0,30807.0,51945.0,30191.0,55340.0,20231.0,17949.0
2026-05-06 15:51:05.969243,420175,1609504929441392,2529353791,0.815936,-0.13664,0.199104,-13.60625,-10.91125,21.84875,-41.272003,-19.176,-78.512,concentric,4,5.0,34368.0,43935.0,72502.0,98881.0,30598.0,51858.0,30102.0,55029.0,20079.0,17855.0
2026-05-06 15:51:05.970880,420176,1609504929450451,2529362570,0.774944,-0.142496,0.201056,-15.44375,-11.92625,23.415,-41.224003,-17.392,-78.048004,concentric,4,5.0,34368.0,43935.0,72502.0,98881.0,30598.0,51858.0,30102.0,55029.0,20079.0,17855.0
2026-05-06 15:51:05.972398,420177,1609504929464961,2529377506,0.76128,-0.124928,0.15616,-14.91,-13.7025,25.61125,-41.280003,-16.76,-79.968,concentric,4,5.0,34368.0,43935.0,72502.0,98881.0,30598.0,51858.0,30102.0,55029.0,20079.0,17855.0
2026-05-06 15:51:05.974867,420178,1609504929474062,2529386214,0.76128,-0.124928,0.15616,-12.5475,-15.190001,28.46375,-41.280003,-16.76,-79.968,concentric,4,5.0,34368.0,43935.0,72502.0,98881.0,30598.0,51858.0,30102.0,55029.0,20079.0,17855.0
2026-05-06 15:51:06.005135,420179,1609504929483129,2529395012,0.75152,-0.101504,0.154208,-9.7825,-16.94875,30.91375,-41.496002,-16.536001,-80.26401,concentric,4,5.0,34368.0,43935.0,72502.0,98881.0,30598.0,51858.0,30102.0,55029.0,20079.0,17855.0
2026-05-06 15:51:06.007730,420180,1609504929497600,2529409910,0.75152,-0.101504,0.154208,-8.6625,-17.8675,32.15625,-41.496002,-16.536001,-80.26401,concentric,4,5.0,34368.0,43935.0,72502.0,98881.0,30598.0,51858.0,30102.0,55029.0,20079.0,17855.0
2026-05-06 15:51:06.010247,420181,1609504929506504,2529418676,0.732,-0.160064,0.162016,-11.69,-18.795,32.865,-41.52,-16.072,-80.04,concentric,4,5.0,34368.0,43935.0,72502.0,98881.0,30598.0,51858.0,30102.0,55029.0,20079.0,17855.0
2026-05-06 15:51:06.024034,420182,1609504929521049,2529433606,0.732,-0.160064,0.162016,-18.20875,-19.15375,33.845,-41.52,-16.072,-80.04,concentric,4,5.0,34368.0,43935.0,72502.0,98881.0,30598.0,51858.0,30102.0,55029.0,20079.0,17855.0
2026-05-06 15:51:06.030316,420183,1609504929530164,2529442373,0.724192,-0.21472,0.144448,-20.30875,-19.6525,36.98625,-41.672,-15.168001,-78.448006,concentric,4,5.0,34368.0,43935.0,72502.0,98881.0,30598.0,51858.0,30102.0,55029.0,20079.0,17855.0
2026-05-06 15:51:06.061000,420194,1609504929544903,2529457643,0.724192,-0.230336,0.171776,-21.4025,-20.44,39.92625,-41.288002,-14.928,-80.880005,concentric,4,5.0,34425.0,44122.0,72735.0,98458.0,30604.0,52031.0,30217.0,54811.0,20040.0,17899.0
2026-05-06 15:51:06.062813,420195,1609504929553915,2529466431,0.724192,-0.230336,0.171776,-23.12625,-21.07,42.60375,-41.288002,-14.928,-80.880005,concentric,4,5.0,34425.0,44122.0,72735.0,98458.0,30604.0,52031.0,30217.0,54811.0,20040.0,17899.0
2026-05-06 15:51:06.065071,420196,1609504929562893,2529475189,0.728096,-0.179584,0.119072,-21.35,-21.97125,45.85875,-41.288002,-14.928,-81.152,concentric,4,5.0,34425.0,44122.0,72735.0,98458.0,30604.0,52031.0,30217.0,54811.0,20040.0,17899.0
2026-05-06 15:51:06.081534,420197,1609504929577384,2529490152,0.728096,-0.179584,0.119072,-15.98625,-22.785,48.0025,-41.648003,-15.184001,-81.152,concentric,4,5.0,34425.0,44122.0,72735.0,98458.0,30604.0,52031.0,30217.0,54811.0,20040.0,17899.0
2026-05-06 15:51:06.087721,420198,1609504929586286,2529498850,0.720288,-0.15616,0.085888,-14.27125,-23.17,48.97375,-41.392002,-13.480001,-81.384,concentric,4,5.0,34425.0,44122.0,72735.0,98458.0,30604.0,52031.0,30217.0,54811.0,20040.0,17899.0
2026-05-06 15:51:06.103779,420199,1609504929600968,2529511727,0.720288,-0.15616,0.085888,-15.56625,-22.4525,48.895,-41.392002,-13.480001,-81.384,concentric,4,5.0,34425.0,44122.0,72735.0,98458.0,30604.0,52031.0,30217.0,54811.0,20040.0,17899.0
2026-05-06 15:51:06.110183,420200,1609504929610281,2529522530,0.759328,-0.275232,0.109312,-20.43125,-21.70875,46.6725,-41.024002,-12.920001,-80.728004,concentric,4,5.0,34425.0,44122.0,72735.0,98458.0,30604.0,52031.0,30217.0,54811.0,20040.0,17899.0
2026-05-06 15:51:06.118990,420201,1609504929619290,2529531264,0.759328,-0.275232,0.109312,-29.1725,-20.6675,44.3625,-41.024002,-12.920001,-80.728004,concentric,4,5.0,34425.0,44122.0,72735.0,98458.0,30604.0,52031.0,30217.0,54811.0,20040.0,17899.0
2026-05-06 15:51:06.163941,420212,1609504929633828,2529546137,0.710528,-0.269376,0.193248,-33.90625,-19.6525,45.3775,-41.272003,-12.456,-81.744,concentric,4,5.0,34404.0,44204.0,73005.0,98343.0,30610.0,52158.0,30334.0,54759.0,20053.0,17933.0
2026-05-06 15:51:06.167462,420213,1609504929642804,2529554868,0.710528,-0.269376,0.099552,-31.4475,-20.20375,47.24125,-41.272003,-12.456,-81.744,concentric,4,5.0,34404.0,44204.0,73005.0,98343.0,30610.0,52158.0,30334.0,54759.0,20053.0,17933.0
2026-05-06 15:51:06.172676,420214,1609504929657298,2529569898,0.74176,-0.267424,0.10736,-22.05875,-21.525,50.4875,-41.984,-14.768001,-81.672005,concentric,4,5.0,34404.0,44204.0,73005.0,98343.0,30610.0,52158.0,30334.0,54759.0,20053.0,17933.0
2026-05-06 15:51:06.175140,420215,1609504929666459,2529578710,0.755424,-0.271328,0.10736,-16.5375,-21.44625,52.28125,-41.2,-10.752001,-82.73601,concentric,4,5.0,34404.0,44204.0,73005.0,98343.0,30610.0,52158.0,30334.0,54759.0,20053.0,17933.0
2026-05-06 15:51:06.177448,420216,1609504929675407,2529587426,0.755424,-0.271328,0.10736,-14.91875,-19.74875,50.435,-41.2,-10.752001,-82.73601,concentric,4,5.0,34404.0,44204.0,73005.0,98343.0,30610.0,52158.0,30334.0,54759.0,20053.0,17933.0
2026-05-06 15:51:06.191493,420217,1609504929689939,2529602407,0.755424,-0.251808,0.033184,-14.07,-18.095,49.28,-41.784,-12.224001,-81.624,concentric,4,5.0,34404.0,44204.0,73005.0,98343.0,30610.0,52158.0,30334.0,54759.0,20053.0,17933.0
2026-05-06 15:51:06.197743,420218,1609504929698917,2529611241,0.755424,-0.251808,0.033184,-14.980001,-16.54625,47.4425,-41.784,-12.224001,-81.624,concentric,4,5.0,34404.0,44204.0,73005.0,98343.0,30610.0,52158.0,30334.0,54759.0,20053.0,17933.0
2026-05-06 15:51:06.235030,420219,1609504929713436,2529626170,0.735904,-0.2928,0.148352,-21.97125,-14.8925,42.28,-41.744003,-9.704,-83.568,concentric,4,5.0,34404.0,44204.0,73005.0,98343.0,30610.0,52158.0,30334.0,54759.0,20053.0,17933.0
2026-05-06 15:51:06.260206,420220,1609504929722341,2529634872,0.735904,-0.2928,0.148352,-29.723751,-14.105001,39.48875,-41.744003,-9.704,-83.568,concentric,4,5.0,34404.0,44204.0,73005.0,98343.0,30610.0,52158.0,30334.0,54759.0,20053.0,17933.0
2026-05-06 15:51:06.332572,420231,1609504929737336,2529649854,0.737856,-0.267424,0.121024,-21.53375,-14.04375,42.5075,-41.456,-8.888001,-84.128006,concentric,4,5.0,34785.0,44510.0,73461.0,98256.0,30904.0,52410.0,30556.0,54675.0,20163.0,18023.0
2026-05-06 15:51:06.337138,420232,1609504929746297,2529658692,0.730048,-0.261568,0.05856,-10.9725,-14.8575,42.51625,-41.648003,-9.76,-83.04,concentric,4,5.0,34785.0,44510.0,73461.0,98256.0,30904.0,52410.0,30556.0,54675.0,20163.0,18023.0
2026-05-06 15:51:06.337307,420233,1609504929755230,2529667401,0.730048,-0.261568,0.05856,-2.86125,-15.56625,41.57125,-41.648003,-9.76,-83.04,concentric,4,5.0,34785.0,44510.0,73461.0,98256.0,30904.0,52410.0,30556.0,54675.0,20163.0,18023.0
2026-05-06 15:51:06.340080,420234,1609504929769899,2529682355,0.749568,-0.314272,0.037088,4.55,-16.12625,41.27375,-41.344,-7.008,-83.984,concentric,4,5.0,34785.0,44510.0,73461.0,98256.0,30904.0,52410.0,30556.0,54675.0,20163.0,18023.0
2026-05-06 15:51:06.342632,420235,1609504929778887,2529691069,0.749568,-0.314272,0.037088,0.6125,-15.4525,35.735,-41.344,-7.008,-83.984,concentric,4,5.0,34785.0,44510.0,73461.0,98256.0,30904.0,52410.0,30556.0,54675.0,20163.0,18023.0
2026-05-06 15:51:06.345005,420236,1609504929793388,2529706016,0.80032,-0.366976,0.013664,-4.20875,-12.9325,32.865,-41.160004,-6.752,-84.20801,concentric,4,5.0,34785.0,44510.0,73461.0,98256.0,30904.0,52410.0,30556.0,54675.0,20163.0,18023.0
2026-05-06 15:51:06.347644,420237,1609504929802309,2529714821,0.80032,-0.366976,0.013664,-7.0,-9.7825,31.31625,-41.160004,-6.752,-84.20801,concentric,4,5.0,34785.0,44510.0,73461.0,98256.0,30904.0,52410.0,30556.0,54675.0,20163.0,18023.0
2026-05-06 15:51:06.353879,420238,1609504929811295,2529723553,0.76128,-0.27328,0.189344,-15.417501,-6.79875,26.36375,-41.368004,-5.896,-85.616005,concentric,4,5.0,34785.0,44510.0,73461.0,98256.0,30904.0,52410.0,30556.0,54675.0,20163.0,18023.0
2026-05-06 15:51:06.356518,420239,1609504929825899,2529738675,0.732,-0.269376,0.005856,-9.91375,-7.14875,27.1425,-41.688004,-5.56,-84.44,concentric,4,5.0,34785.0,44510.0,73461.0,98256.0,30904.0,52410.0,30556.0,54675.0,20163.0,18023.0
2026-05-06 15:51:06.388740,420250,1609504929834962,2529747408,0.732,-0.269376,0.005856,-1.7325,-8.61,25.13875,-41.688004,-5.56,-84.44,concentric,4,5.0,35098.0,44779.0,73901.0,98176.0,31159.0,52633.0,30742.0,54556.0,20298.0,18097.0
2026-05-06 15:51:06.391278,420251,1609504929849743,2529762343,0.854976,-0.325984,0.011712,9.05625,-11.59375,20.15125,-41.344,-5.096,-85.024,concentric,4,5.0,35098.0,44779.0,73901.0,98176.0,31159.0,52633.0,30742.0,54556.0,20298.0,18097.0
2026-05-06 15:51:06.393716,420252,1609504929858753,2529771119,0.854976,-0.325984,0.011712,18.3925,-13.55375,20.36125,-41.344,-5.096,-85.024,concentric,4,5.0,35098.0,44779.0,73901.0,98176.0,31159.0,52633.0,30742.0,54556.0,20298.0,18097.0
2026-05-06 15:51:06.396360,420253,1609504929873353,2529786095,0.85888,-0.406016,0.042944,23.12625,-13.5625,22.225,-41.832,-5.76,-84.104004,concentric,4,5.0,35098.0,44779.0,73901.0,98176.0,31159.0,52633.0,30742.0,54556.0,20298.0,18097.0
2026-05-06 15:51:06.398718,420254,1609504929882285,2529794953,0.85888,-0.406016,0.042944,13.11625,-9.87875,18.2,-41.832,-5.76,-84.104004,concentric,4,5.0,35098.0,44779.0,73901.0,98176.0,31159.0,52633.0,30742.0,54556.0,20298.0,18097.0
2026-05-06 15:51:06.401490,420255,1609504929891380,2529803684,0.860832,-0.339648,0.148352,-1.505,-5.915,15.04125,-41.408,-3.576,-84.992004,concentric,4,5.0,35098.0,44779.0,73901.0,98176.0,31159.0,52633.0,30742.0,54556.0,20298.0,18097.0
2026-05-06 15:51:06.405192,420256,1609504929906054,2529818742,0.841312,-0.308416,0.171776,-7.245,-4.34,14.875,-41.656002,-5.44,-83.944,concentric,4,5.0,35098.0,44779.0,73901.0,98176.0,31159.0,52633.0,30742.0,54556.0,20298.0,18097.0
2026-05-06 15:51:06.419017,420257,1609504929915044,2529827558,0.841312,-0.308416,0.171776,-5.71375,-4.66375,12.4425,-41.656002,-5.44,-83.944,concentric,4,5.0,35098.0,44779.0,73901.0,98176.0,31159.0,52633.0,30742.0,54556.0,20298.0,18097.0
2026-05-06 15:51:06.432507,420258,1609504929929785,2529842496,0.892064,-0.4392,0.17568,-2.03875,-7.81375,7.8225,-41.704002,-2.76,-85.776,concentric,4,5.0,35098.0,44779.0,73901.0,98176.0,31159.0,52633.0,30742.0,54556.0,20298.0,18097.0
2026-05-06 15:51:06.461337,420269,1609504929938838,2529849625,0.892064,-0.4392,0.17568,11.8475,-10.3425,9.2575,-41.704002,-2.76,-85.776,concentric,4,5.0,35169.0,44940.0,74117.0,98290.0,31228.0,52787.0,30885.0,54584.0,20352.0,18202.0
2026-05-06 15:51:06.463990,420270,1609504929948220,2529860498,0.862784,-0.445056,0.07808,20.72875,-11.165,12.66125,-41.416,-1.92,-86.12,concentric,4,5.0,35169.0,44940.0,74117.0,98290.0,31228.0,52787.0,30885.0,54584.0,20352.0,18202.0
2026-05-06 15:51:06.466531,420271,1609504929962822,2529875528,0.862784,-0.445056,0.07808,26.80125,-11.13875,16.19625,-41.416,-1.92,-86.12,concentric,4,5.0,35169.0,44940.0,74117.0,98290.0,31228.0,52787.0,30885.0,54584.0,20352.0,18202.0
2026-05-06 15:51:06.472719,420272,1609504929971788,2529884248,0.977952,-0.388448,0.122976,25.22625,-8.8725,15.54,-41.320004,-1.36,-86.088005,concentric,4,5.0,35169.0,44940.0,74117.0,98290.0,31228.0,52787.0,30885.0,54584.0,20352.0,18202.0
2026-05-06 15:51:06.485327,420273,1609504929986285,2529897160,0.942816,-0.261568,0.18544,15.627501,-4.7775,10.325,-41.512,-0.768,-86.416,concentric,4,5.0,35169.0,44940.0,74117.0,98290.0,31228.0,52787.0,30885.0,54584.0,20352.0,18202.0
2026-05-06 15:51:06.498986,420274,1609504929995700,2529907947,0.942816,-0.261568,0.18544,12.39,-1.26875,8.785,-41.512,-0.768,-86.416,concentric,4,5.0,35169.0,44940.0,74117.0,98290.0,31228.0,52787.0,30885.0,54584.0,20352.0,18202.0
2026-05-06 15:51:06.505256,420275,1609504930004670,2529916705,0.942816,-0.261568,0.18544,15.636251,0.30625,3.75375,-41.512,-0.768,-86.416,concentric,4,5.0,35169.0,44940.0,74117.0,98290.0,31228.0,52787.0,30885.0,54584.0,20352.0,18202.0
2026-05-06 15:51:06.542419,420276,1609504930019153,2529931617,0.96624,-0.421632,0.162016,17.0625,-0.77875,-0.11375,-41.528004,-0.648,-85.560005,concentric,4,5.0,35169.0,44940.0,74117.0,98290.0,31228.0,52787.0,30885.0,54584.0,20352.0,18202.0
2026-05-06 15:51:06.544910,420277,1609504930028213,2529940352,0.989664,-0.552416,0.181536,17.491251,0.14875,1.6625,-41.848003,-0.264,-88.352005,concentric,4,5.0,35169.0,44940.0,74117.0,98290.0,31228.0,52787.0,30885.0,54584.0,20352.0,18202.0
2026-05-06 15:51:06.575253,420288,1609504930042954,2529955330,0.989664,-0.552416,0.181536,14.8575,2.905,2.8525,-41.848003,-0.264,-88.352005,concentric,4,5.0,35167.0,44817.0,74173.0,97504.0,31187.0,52596.0,30885.0,54074.0,20316.0,18067.0
2026-05-06 15:51:06.577620,420289,1609504930051917,2529964078,0.979904,-0.5368,0.245952,10.22,6.02,1.72375,-42.024002,0.152,-86.12,concentric,4,5.0,35167.0,44817.0,74173.0,97504.0,31187.0,52596.0,30885.0,54074.0,20316.0,18067.0
2026-05-06 15:51:06.580045,420290,1609504930060896,2529972815,0.979904,-0.5368,0.245952,9.7475,8.26,2.07375,-42.024002,0.152,-86.12,concentric,4,5.0,35167.0,44817.0,74173.0,97504.0,31187.0,52596.0,30885.0,54074.0,20316.0,18067.0
2026-05-06 15:51:06.604944,420291,1609504930075420,2529987877,0.968192,-0.470432,0.20496,9.1,9.03,4.9525,-42.016003,-1.184,-85.04,concentric,4,5.0,35167.0,44817.0,74173.0,97504.0,31187.0,52596.0,30885.0,54074.0,20316.0,18067.0
2026-05-06 15:51:06.631586,420292,1609504930084387,2529996637,0.968192,-0.470432,0.20496,8.74125,8.9425,6.25625,-42.016003,-1.184,-85.04,concentric,4,5.0,35167.0,44817.0,74173.0,97504.0,31187.0,52596.0,30885.0,54074.0,20316.0,18067.0
2026-05-06 15:51:06.670153,420293,1609504930098969,2530011558,0.970144,-0.486048,0.15616,4.20875,10.2375,3.80625,-42.176003,0.76,-86.32001,concentric,4,5.0,35167.0,44817.0,74173.0,97504.0,31187.0,52596.0,30885.0,54074.0,20316.0,18067.0
2026-05-06 15:51:06.672625,420294,1609504930107866,2530020279,0.958432,-0.57584,0.140544,1.855,11.9,1.1025,-42.664,1.328,-85.80801,concentric,4,5.0,35167.0,44817.0,74173.0,97504.0,31187.0,52596.0,30885.0,54074.0,20316.0,18067.0
2026-05-06 15:51:06.675198,420295,1609504930122375,2530033230,0.958432,-0.57584,0.140544,-0.77,13.48375,-0.65625,-42.664,1.328,-85.80801,concentric,4,5.0,35167.0,44817.0,74173.0,97504.0,31187.0,52596.0,30885.0,54074.0,20316.0,18067.0
2026-05-06 15:51:06.680065,420296,1609504930131808,2530044044,1.018944,-0.569984,0.203008,-6.16875,15.855001,-2.52875,-42.936,1.144,-85.672005,concentric,4,5.0,35167.0,44817.0,74173.0,97504.0,31187.0,52596.0,30885.0,54074.0,20316.0,18067.0
2026-05-06 15:51:06.713942,420307,1609504930141557,2530052978,1.018944,-0.569984,0.203008,-8.3125,18.59375,-2.1875,-42.936,1.144,-85.672005,concentric,4,5.0,34896.0,44381.0,73768.0,97086.0,30948.0,52117.0,30685.0,53898.0,20243.0,17936.0
2026-05-06 15:51:06.716535,420308,1609504930156127,2530067931,0.983808,-0.528992,0.23424,-5.32,19.78375,0.0875,-43.192,1.432,-85.504005,concentric,4,5.0,34896.0,44381.0,73768.0,97086.0,30948.0,52117.0,30685.0,53898.0,20243.0,17936.0
2026-05-06 15:51:06.718988,420309,1609504930165074,2530076653,0.983808,-0.528992,0.23424,0.4375,18.66375,-2.24875,-43.192,1.432,-85.504005,concentric,4,5.0,34896.0,44381.0,73768.0,97086.0,30948.0,52117.0,30685.0,53898.0,20243.0,17936.0
2026-05-06 15:51:06.721566,420310,1609504930174031,2530085359,1.007232,-0.511424,0.212768,4.15625,15.715,-4.9525,-43.256,1.48,-87.176,concentric,4,5.0,34896.0,44381.0,73768.0,97086.0,30948.0,52117.0,30685.0,53898.0,20243.0,17936.0
2026-05-06 15:51:06.723975,420311,1609504930188669,2530100298,0.981856,-0.46848,0.179584,8.02375,12.9675,-4.10375,-43.280003,1.376,-85.48801,concentric,4,5.0,34896.0,44381.0,73768.0,97086.0,30948.0,52117.0,30685.0,53898.0,20243.0,17936.0
2026-05-06 15:51:06.726528,420312,1609504930197626,2530109159,0.981856,-0.46848,0.179584,9.89625,12.01375,-3.10625,-43.280003,1.376,-85.48801,concentric,4,5.0,34896.0,44381.0,73768.0,97086.0,30948.0,52117.0,30685.0,53898.0,20243.0,17936.0
2026-05-06 15:51:06.730934,420313,1609504930212166,2530124203,0.923296,-0.51728,0.163968,7.70875,11.47125,-4.62875,-43.792004,0.248,-83.4,concentric,4,5.0,34896.0,44381.0,73768.0,97086.0,30948.0,52117.0,30685.0,53898.0,20243.0,17936.0
2026-05-06 15:51:06.731592,420314,1609504930221133,2530132925,0.923296,-0.51728,0.163968,-1.26875,10.92875,-6.125,-43.792004,0.248,-83.4,concentric,4,5.0,34896.0,44381.0,73768.0,97086.0,30948.0,52117.0,30685.0,53898.0,20243.0,17936.0
2026-05-06 15:51:06.735015,420315,1609504930235648,2530147847,0.938912,-0.484096,0.163968,-10.535,10.57,-6.055,-43.952003,-0.032,-83.48,concentric,4,5.0,34896.0,44381.0,73768.0,97086.0,30948.0,52117.0,30685.0,53898.0,20243.0,17936.0
2026-05-06 15:51:06.765028,420326,1609504930244709,2530156673,0.938912,-0.484096,0.163968,-11.13875,10.0275,-3.045,-43.952003,-0.032,-83.48,concentric,4,5.0,34632.0,44124.0,73549.0,96816.0,30758.0,51899.0,30567.0,53798.0,20137.0,17859.0
2026-05-06 15:51:06.769898,420327,1609504930253918,2530165665,0.91744,-0.486048,0.095648,-7.5075,8.68,-1.51375,-44.168003,-0.28,-82.984,concentric,4,5.0,34632.0,44124.0,73549.0,96816.0,30758.0,51899.0,30567.0,53798.0,20137.0,17859.0
2026-05-06 15:51:06.772422,420328,1609504930268517,2530180787,0.8784,-0.488,0.089792,-5.5475,7.0175,-1.96,-43.896004,0.128,-83.288,concentric,4,5.0,34632.0,44124.0,73549.0,96816.0,30758.0,51899.0,30567.0,53798.0,20137.0,17859.0
2026-05-06 15:51:06.776317,420329,1609504930277460,2530189507,0.8784,-0.488,0.089792,-5.88875,5.32875,-2.21375,-43.896004,0.128,-83.288,concentric,4,5.0,34632.0,44124.0,73549.0,96816.0,30758.0,51899.0,30567.0,53798.0,20137.0,17859.0
2026-05-06 15:51:06.800195,420330,1609504930291974,2530204468,0.854976,-0.44896,0.158112,-8.8025,3.36875,-2.555,-44.024002,1.536,-83.328,concentric,4,5.0,34632.0,44124.0,73549.0,96816.0,30758.0,51899.0,30567.0,53798.0,20137.0,17859.0
2026-05-06 15:51:06.802709,420331,1609504930300965,2530213189,0.854976,-0.44896,0.158112,-11.1475,1.2775,-3.21125,-44.024002,1.536,-83.328,concentric,4,5.0,34632.0,44124.0,73549.0,96816.0,30758.0,51899.0,30567.0,53798.0,20137.0,17859.0
2026-05-06 15:51:06.814353,420332,1609504930309905,2530221907,0.864736,-0.42944,0.06832,-13.8075,-0.32375,-5.55625,-44.504,-2.072,-82.79201,concentric,4,5.0,34632.0,44124.0,73549.0,96816.0,30758.0,51899.0,30567.0,53798.0,20137.0,17859.0
2026-05-06 15:51:06.825017,420333,1609504930324434,2530236841,0.864736,-0.42944,0.06832,-14.86625,-2.415,-8.05,-44.504,-2.072,-82.79201,concentric,4,5.0,34632.0,44124.0,73549.0,96816.0,30758.0,51899.0,30567.0,53798.0,20137.0,17859.0
2026-05-06 15:51:06.833853,420334,1609504930333336,2530245558,0.909632,-0.47824,0.076128,-13.265,-5.04875,-6.16875,-44.08,0.536,-84.72,concentric,4,5.0,34632.0,44124.0,73549.0,96816.0,30758.0,51899.0,30567.0,53798.0,20137.0,17859.0
2026-05-06 15:51:06.862578,420345,1609504930348259,2530260686,0.909632,-0.47824,0.046848,-13.18625,-6.41375,-4.7075,-44.08,0.536,-84.72,concentric,4,5.0,34941.0,44182.0,73641.0,97042.0,30932.0,52046.0,30636.0,53908.0,20248.0,17925.0
2026-05-06 15:51:06.865179,420346,1609504930357332,2530269450,0.86864,-0.493856,0.046848,-14.90125,-7.86625,-8.56625,-44.248,-2.296,-84.688,concentric,4,5.0,34941.0,44182.0,73641.0,97042.0,30932.0,52046.0,30636.0,53908.0,20248.0,17925.0
2026-05-06 15:51:06.867667,420347,1609504930366457,2530278186,0.86864,-0.493856,0.046848,-11.41,-10.4125,-8.82,-44.248,-2.296,-84.688,concentric,4,5.0,34941.0,44182.0,73641.0,97042.0,30932.0,52046.0,30636.0,53908.0,20248.0,17925.0
2026-05-06 15:51:06.881572,420348,1609504930381009,2530293141,0.864736,-0.42944,0.060512,-11.698751,-11.935,-8.25125,-44.384003,-1.072,-83.816,concentric,4,5.0,34941.0,44182.0,73641.0,97042.0,30932.0,52046.0,30636.0,53908.0,20248.0,17925.0
2026-05-06 15:51:06.890308,420349,1609504930389988,2530301902,0.837408,-0.452864,0.052704,-10.955,-12.6875,-11.2,-44.448,-0.848,-83.728004,concentric,4,5.0,34941.0,44182.0,73641.0,97042.0,30932.0,52046.0,30636.0,53908.0,20248.0,17925.0
2026-05-06 15:51:06.906649,420350,1609504930404494,2530316831,0.837408,-0.452864,0.052704,-14.25375,-12.6,-11.2,-44.448,-0.848,-83.728004,concentric,4,5.0,34941.0,44182.0,73641.0,97042.0,30932.0,52046.0,30636.0,53908.0,20248.0,17925.0
2026-05-06 15:51:06.914622,420351,1609504930413414,2530325617,0.8296,-0.443104,0.01952,-15.42625,-12.67,-10.885,-43.856003,-0.304,-85.4,concentric,4,5.0,34941.0,44182.0,73641.0,97042.0,30932.0,52046.0,30636.0,53908.0,20248.0,17925.0
2026-05-06 15:51:06.932633,420352,1609504930427914,2530340523,0.8296,-0.443104,0.01952,-18.29625,-12.31125,-12.92375,-43.856003,-0.304,-85.4,concentric,4,5.0,34941.0,44182.0,73641.0,97042.0,30932.0,52046.0,30636.0,53908.0,20248.0,17925.0
2026-05-06 15:51:06.941448,420353,1609504930436812,2530349240,0.837408,-0.452864,0.040992,-14.14875,-11.8475,-13.0025,-43.808002,0.344,-87.128006,concentric,4,5.0,34941.0,44182.0,73641.0,97042.0,30932.0,52046.0,30636.0,53908.0,20248.0,17925.0
2026-05-06 15:51:07.027509,420364,1609504930445847,2530357955,0.837408,-0.452864,0.040992,-9.2575,-11.99625,-12.81,-43.808002,0.344,-87.128006,concentric,4,5.0,35264.0,44614.0,73890.0,97462.0,31208.0,52414.0,30749.0,54096.0,20337.0,18054.0
2026-05-06 15:51:07.030122,420365,1609504930460430,2530372940,0.831552,-0.445056,0.05856,-5.06625,-11.725,-13.125,-43.848003,-1.816,-83.896,concentric,4,5.0,35264.0,44614.0,73890.0,97462.0,31208.0,52414.0,30749.0,54096.0,20337.0,18054.0
2026-05-06 15:51:07.032608,420366,1609504930469511,2530381638,0.831552,-0.398208,0.091744,-0.5775,-10.465,-10.63125,-43.848003,-1.816,-83.896,concentric,4,5.0,35264.0,44614.0,73890.0,97462.0,31208.0,52414.0,30749.0,54096.0,20337.0,18054.0
2026-05-06 15:51:07.035095,420367,1609504930484006,2530396642,0.843264,-0.394304,0.091744,0.69125,-9.17875,-8.70625,-43.56,-0.24,-84.576004,concentric,4,5.0,35264.0,44614.0,73890.0,97462.0,31208.0,52414.0,30749.0,54096.0,20337.0,18054.0
2026-05-06 15:51:07.037599,420368,1609504930492958,2530405338,0.837408,-0.365024,0.060512,-4.82125,-7.1575,-9.21375,-43.664,-0.448,-86.00001,concentric,4,5.0,35264.0,44614.0,73890.0,97462.0,31208.0,52414.0,30749.0,54096.0,20337.0,18054.0
2026-05-06 15:51:07.040186,420369,1609504930501961,2530414053,0.837408,-0.365024,0.060512,-8.88125,-5.8275,-11.08625,-43.664,-0.448,-86.00001,concentric,4,5.0,35264.0,44614.0,73890.0,97462.0,31208.0,52414.0,30749.0,54096.0,20337.0,18054.0
2026-05-06 15:51:07.042499,420370,1609504930516455,2530429024,0.85888,-0.407968,0.05856,-11.06,-4.97875,-11.24375,-43.68,-0.376,-85.656006,eccentric,4,5.0,35264.0,44614.0,73890.0,97462.0,31208.0,52414.0,30749.0,54096.0,20337.0,18054.0
2026-05-06 15:51:07.044912,420371,1609504930525464,2530437825,0.85888,-0.407968,0.05856,-11.6725,-3.59625,-13.58875,-43.68,-0.376,-85.656006,eccentric,4,5.0,35264.0,44614.0,73890.0,97462.0,31208.0,52414.0,30749.0,54096.0,20337.0,18054.0
2026-05-06 15:51:07.077467,420383,1609504930540589,2530453323,0.892064,-0.466528,0.081984,-9.511251,-3.33375,-12.27625,-43.568,-1.0,-85.560005,eccentric,4,5.0,35433.0,45030.0,74052.0,97687.0,31330.0,52768.0,30831.0,54158.0,20424.0,18226.0
2026-05-06 15:51:07.080127,420384,1609504930549676,2530462162,0.892064,-0.466528,0.081984,-7.67375,-2.415,-9.065,-43.568,-1.0,-85.560005,eccentric,4,5.0,35433.0,45030.0,74052.0,97687.0,31330.0,52768.0,30831.0,54158.0,20424.0,18226.0
2026-05-06 15:51:07.082706,420385,1609504930558649,2530470961,0.882304,-0.435296,0.091744,-5.845,-1.19,-7.25375,-43.832,-2.64,-84.632,eccentric,4,5.0,35433.0,45030.0,74052.0,97687.0,31330.0,52768.0,30831.0,54158.0,20424.0,18226.0
2026-05-06 15:51:07.085266,420386,1609504930573246,2530485934,0.882304,-0.406016,0.076128,-4.4625,-0.32375,-6.69375,-43.616,-2.784,-84.832,eccentric,4,5.0,35433.0,45030.0,74052.0,97687.0,31330.0,52768.0,30831.0,54158.0,20424.0,18226.0
2026-05-06 15:51:07.087717,420387,1609504930582308,2530494711,0.882304,-0.406016,0.076128,-2.73875,0.55125,-5.4425,-43.616,-2.784,-84.832,eccentric,4,5.0,35433.0,45030.0,74052.0,97687.0,31330.0,52768.0,30831.0,54158.0,20424.0,18226.0
2026-05-06 15:51:07.103440,420388,1609504930597000,2530509676,0.901824,-0.447008,0.111264,-3.50875,1.72375,-5.0575,-43.600002,-3.032,-84.52801,eccentric,4,5.0,35433.0,45030.0,74052.0,97687.0,31330.0,52768.0,30831.0,54158.0,20424.0,18226.0
2026-05-06 15:51:07.107538,420389,1609504930605931,2530518483,0.901824,-0.447008,0.111264,-3.1325,1.785,-5.13625,-43.600002,-3.032,-84.52801,eccentric,4,5.0,35433.0,45030.0,74052.0,97687.0,31330.0,52768.0,30831.0,54158.0,20424.0,18226.0
2026-05-06 15:51:07.121539,420390,1609504930620435,2530531332,0.894016,-0.460672,0.08784,-2.84375,1.6975,-4.305,-43.648003,-1.24,-85.624,eccentric,4,5.0,35433.0,45030.0,74052.0,97687.0,31330.0,52768.0,30831.0,54158.0,20424.0,18226.0
2026-05-06 15:51:07.129980,420391,1609504930629790,2530542110,0.894016,-0.460672,0.08784,-2.17,2.1,-1.98625,-43.648003,-1.24,-85.624,eccentric,4,5.0,35433.0,45030.0,74052.0,97687.0,31330.0,52768.0,30831.0,54158.0,20424.0,18226.0
2026-05-06 15:51:07.138737,420392,1609504930638691,2530550872,0.913536,-0.47824,0.08784,0.48125,2.33625,-0.84,-43.632004,-1.552,-84.728004,eccentric,4,5.0,35433.0,45030.0,74052.0,97687.0,31330.0,52768.0,30831.0,54158.0,20424.0,18226.0
2026-05-06 15:51:07.167774,420403,1609504930653369,2530566125,0.909632,-0.4392,0.115168,0.7875,2.59,-1.40875,-43.656002,-1.088,-85.672005,eccentric,4,5.0,35472.0,45054.0,74031.0,97682.0,31346.0,52735.0,30791.0,54124.0,20444.0,18197.0
2026-05-06 15:51:07.170261,420404,1609504930662538,2530574817,0.909632,-0.4392,0.115168,-2.6075,3.85,-0.07,-43.656002,-1.088,-85.672005,eccentric,4,5.0,35472.0,45054.0,74031.0,97682.0,31346.0,52735.0,30791.0,54124.0,20444.0,18197.0
2026-05-06 15:51:07.176569,420405,1609504930677054,2530589824,0.903776,-0.421632,0.093696,0.93625,3.9725,0.1925,-43.824,-4.792,-83.520004,eccentric,4,5.0,35472.0,45054.0,74031.0,97682.0,31346.0,52735.0,30791.0,54124.0,20444.0,18197.0
2026-05-06 15:51:07.190327,420406,1609504930686006,2530598597,0.903776,-0.421632,0.093696,-1.25125,4.4275,0.02625,-43.824,-4.792,-83.520004,eccentric,4,5.0,35472.0,45054.0,74031.0,97682.0,31346.0,52735.0,30791.0,54124.0,20444.0,18197.0
2026-05-06 15:51:07.196439,420407,1609504930694929,2530607269,0.876448,-0.452864,0.07808,-5.915,5.06625,-0.4025,-43.728,-1.416,-85.248,eccentric,4,5.0,35472.0,45054.0,74031.0,97682.0,31346.0,52735.0,30791.0,54124.0,20444.0,18197.0
2026-05-06 15:51:07.215217,420408,1609504930709483,2530620339,0.876448,-0.452864,0.07808,-10.15,4.55,-0.945,-43.728,-1.416,-85.248,eccentric,4,5.0,35472.0,45054.0,74031.0,97682.0,31346.0,52735.0,30791.0,54124.0,20444.0,18197.0
2026-05-06 15:51:07.221522,420409,1609504930718773,2530631147,0.89792,-0.47824,0.115168,-11.94375,4.06875,-0.14875,-43.576,-1.24,-87.064,eccentric,4,5.0,35472.0,45054.0,74031.0,97682.0,31346.0,52735.0,30791.0,54124.0,20444.0,18197.0
2026-05-06 15:51:07.235315,420410,1609504930733349,2530644103,0.950624,-0.476288,0.109312,-12.24125,3.56125,-0.1575,-43.56,-3.04,-85.58401,eccentric,4,5.0,35472.0,45054.0,74031.0,97682.0,31346.0,52735.0,30791.0,54124.0,20444.0,18197.0
2026-05-06 15:51:07.299854,420421,1609504930742770,2530654977,0.950624,-0.476288,0.109312,-6.99125,2.6075,0.1575,-43.56,-3.04,-85.58401,eccentric,4,5.0,35514.0,44972.0,73845.0,97551.0,31314.0,52570.0,30668.0,54045.0,20379.0,18093.0
2026-05-06 15:51:07.302540,420422,1609504930751833,2530663770,0.987712,-0.431392,0.089792,-6.36125,1.65375,0.63875,-43.56,-3.04,-84.05601,eccentric,4,5.0,35514.0,44972.0,73845.0,97551.0,31314.0,52570.0,30668.0,54045.0,20379.0,18093.0
2026-05-06 15:51:07.305078,420423,1609504930766381,2530678753,0.987712,-0.431392,0.089792,-3.80625,0.1575,0.97125,-43.648003,-2.992,-84.05601,eccentric,4,5.0,35514.0,44972.0,73845.0,97551.0,31314.0,52570.0,30668.0,54045.0,20379.0,18093.0
2026-05-06 15:51:07.307592,420424,1609504930775320,2530687469,1.009184,-0.480192,0.101504,-4.92625,-2.8525,-0.16625,-43.632004,-1.464,-85.384,eccentric,4,5.0,35514.0,44972.0,73845.0,97551.0,31314.0,52570.0,30668.0,54045.0,20379.0,18093.0
2026-05-06 15:51:07.310068,420425,1609504930789974,2530702453,1.009184,-0.480192,0.101504,-5.46,-5.95875,-2.1875,-43.632004,-1.464,-85.384,eccentric,4,5.0,35514.0,44972.0,73845.0,97551.0,31314.0,52570.0,30668.0,54045.0,20379.0,18093.0
2026-05-06 15:51:07.312603,420426,1609504930798871,2530711169,1.03456,-0.482144,0.064416,-7.42875,-8.35625,-0.0175,-43.288002,-1.44,-84.76,eccentric,4,5.0,35514.0,44972.0,73845.0,97551.0,31314.0,52570.0,30668.0,54045.0,20379.0,18093.0
2026-05-06 15:51:07.337756,420427,1609504930807936,2530719952,1.03456,-0.482144,0.064416,-0.25375,-10.17625,2.0475,-43.288002,-1.44,-84.76,eccentric,4,5.0,35514.0,44972.0,73845.0,97551.0,31314.0,52570.0,30668.0,54045.0,20379.0,18093.0
2026-05-06 15:51:07.376641,420428,1609504930822626,2530735003,1.056032,-0.491904,0.134688,-1.5225,-11.29625,0.8225,-43.088,-1.84,-85.712006,eccentric,4,5.0,35514.0,44972.0,73845.0,97551.0,31314.0,52570.0,30668.0,54045.0,20379.0,18093.0
2026-05-06 15:51:07.379021,420429,1609504930831571,2530743721,1.056032,-0.491904,0.134688,-6.13375,-11.305,2.75625,-43.088,-1.84,-85.712006,eccentric,4,5.0,35514.0,44972.0,73845.0,97551.0,31314.0,52570.0,30668.0,54045.0,20379.0,18093.0
2026-05-06 15:51:07.406509,420440,1609504930846277,2530757281,1.065792,-0.443104,0.122976,-4.54125,-12.36375,5.285,-42.744003,-1.448,-84.968,eccentric,4,5.0,35408.0,44863.0,73782.0,97771.0,31236.0,52476.0,30611.0,54189.0,20367.0,18037.0
2026-05-06 15:51:07.408789,420441,1609504930855496,2530768098,1.071648,-0.480192,0.089792,-5.36375,-13.23875,3.28125,-42.304,-1.368,-86.28001,eccentric,4,5.0,35408.0,44863.0,73782.0,97771.0,31236.0,52476.0,30611.0,54189.0,20367.0,18037.0
2026-05-06 15:51:07.411461,420442,1609504930864397,2530776815,1.071648,-0.480192,0.089792,3.49125,-15.21625,4.36625,-42.304,-1.368,-86.28001,eccentric,4,5.0,35408.0,44863.0,73782.0,97771.0,31236.0,52476.0,30611.0,54189.0,20367.0,18037.0
2026-05-06 15:51:07.413728,420443,1609504930878848,2530789702,1.0736,-0.499712,0.103456,11.34875,-16.33625,7.00875,-42.408,-3.176,-84.888,eccentric,4,5.0,35408.0,44863.0,73782.0,97771.0,31236.0,52476.0,30611.0,54189.0,20367.0,18037.0
2026-05-06 15:51:07.418781,420444,1609504930888162,2530800515,1.0736,-0.499712,0.103456,8.636251,-14.6125,10.167501,-42.408,-3.176,-84.888,eccentric,4,5.0,35408.0,44863.0,73782.0,97771.0,31236.0,52476.0,30611.0,54189.0,20367.0,18037.0
2026-05-06 15:51:07.421229,420445,1609504930902813,2530815548,1.042368,-0.41968,0.056608,4.61125,-13.25625,10.6925,-42.08,-3.288,-84.920006,eccentric,4,5.0,35408.0,44863.0,73782.0,97771.0,31236.0,52476.0,30611.0,54189.0,20367.0,18037.0
2026-05-06 15:51:07.423632,420446,1609504930911797,2530824345,1.042368,-0.41968,0.056608,0.6475,-12.285,8.4,-42.08,-3.288,-84.920006,eccentric,4,5.0,35408.0,44863.0,73782.0,97771.0,31236.0,52476.0,30611.0,54189.0,20367.0,18037.0
2026-05-06 15:51:07.426317,420447,1609504930926295,2530837332,1.04432,-0.4392,0.060512,-4.13875,-11.52375,3.85875,-41.728,-3.288,-82.90401,eccentric,4,5.0,35408.0,44863.0,73782.0,97771.0,31236.0,52476.0,30611.0,54189.0,20367.0,18037.0
2026-05-06 15:51:07.440170,420448,1609504930935613,2530848097,0.997472,-0.4392,0.124928,-11.795,-10.40375,-0.60375,-41.328003,-1.688,-86.368004,eccentric,4,5.0,35408.0,44863.0,73782.0,97771.0,31236.0,52476.0,30611.0,54189.0,20367.0,18037.0
2026-05-06 15:51:07.477513,420459,1609504930944776,2530857008,0.997472,-0.4392,0.124928,-10.7975,-9.56375,-0.41125,-41.328003,-1.688,-86.368004,eccentric,4,5.0,35408.0,44986.0,73874.0,97670.0,31257.0,52617.0,30702.0,54137.0,20370.0,18142.0
2026-05-06 15:51:07.477995,420460,1609504930959516,2530871954,0.999424,-0.472384,0.101504,-10.08,-8.60125,-2.98375,-41.352,-5.08,-84.136,eccentric,4,5.0,35408.0,44986.0,73874.0,97670.0,31257.0,52617.0,30702.0,54137.0,20370.0,18142.0
2026-05-06 15:51:07.480063,420461,1609504930968434,2530880663,0.999424,-0.472384,0.101504,-10.05375,-7.875,-6.85125,-41.352,-5.08,-84.136,eccentric,4,5.0,35408.0,44986.0,73874.0,97670.0,31257.0,52617.0,30702.0,54137.0,20370.0,18142.0
2026-05-06 15:51:07.486486,420462,1609504930982968,2530895604,0.981856,-0.454816,0.085888,-12.88875,-5.8625,-10.31625,-41.272003,-6.472,-84.00001,eccentric,4,5.0,35408.0,44986.0,73874.0,97670.0,31257.0,52617.0,30702.0,54137.0,20370.0,18142.0
2026-05-06 15:51:07.492581,420463,1609504930992085,2530904361,0.981856,-0.454816,0.085888,-12.0925,-3.395,-14.2275,-41.272003,-6.472,-84.00001,eccentric,4,5.0,35408.0,44986.0,73874.0,97670.0,31257.0,52617.0,30702.0,54137.0,20370.0,18142.0
2026-05-06 15:51:07.501455,420464,1609504931001015,2530913107,0.94672,-0.417728,0.115168,-9.63375,-0.55125,-17.61375,-40.744003,-3.448,-84.72,eccentric,4,5.0,35408.0,44986.0,73874.0,97670.0,31257.0,52617.0,30702.0,54137.0,20370.0,18142.0
2026-05-06 15:51:07.525195,420465,1609504931015508,2530928007,0.899872,-0.32208,0.105408,-7.2975,1.89,-21.5425,-40.944,-3.712,-86.152,eccentric,4,5.0,35408.0,44986.0,73874.0,97670.0,31257.0,52617.0,30702.0,54137.0,20370.0,18142.0
2026-05-06 15:51:07.527511,420466,1609504931024424,2530936707,0.899872,-0.32208,0.105408,-0.55125,2.415,-22.54875,-40.944,-3.712,-86.152,eccentric,4,5.0,35408.0,44986.0,73874.0,97670.0,31257.0,52617.0,30702.0,54137.0,20370.0,18142.0
2026-05-06 15:51:07.541550,420467,1609504931038978,2530951656,0.983808,-0.396256,0.081984,7.3675,2.87875,-25.24375,-40.864002,-6.056,-84.704,eccentric,4,5.0,35408.0,44986.0,73874.0,97670.0,31257.0,52617.0,30702.0,54137.0,20370.0,18142.0
2026-05-06 15:51:07.573777,420478,1609504931048071,2530960436,0.983808,-0.396256,0.081984,6.9825,5.8975,-32.9175,-40.864002,-6.056,-84.704,eccentric,4,5.0,34923.0,44694.0,73670.0,97453.0,30894.0,52356.0,30611.0,54051.0,20189.0,18026.0
2026-05-06 15:51:07.578311,420479,1609504931057172,2530969228,0.95648,-0.476288,0.115168,-0.21875,11.2,-36.68,-41.088,-6.968,-84.11201,eccentric,4,5.0,34923.0,44694.0,73670.0,97453.0,30894.0,52356.0,30611.0,54051.0,20189.0,18026.0
2026-05-06 15:51:07.578812,420480,1609504931071711,2530984240,0.95648,-0.476288,0.115168,-4.69875,17.47375,-36.3475,-41.088,-6.968,-84.11201,eccentric,4,5.0,34923.0,44694.0,73670.0,97453.0,30894.0,52356.0,30611.0,54051.0,20189.0,18026.0
2026-05-06 15:51:07.581398,420481,1609504931080665,2530992909,0.815936,-0.337696,0.228384,-9.87875,23.23125,-42.55125,-40.928,-8.072001,-83.624,eccentric,4,5.0,34923.0,44694.0,73670.0,97453.0,30894.0,52356.0,30611.0,54051.0,20189.0,18026.0
2026-05-06 15:51:07.595173,420482,1609504931095164,2531007841,0.804224,-0.249856,0.101504,-2.6775,25.6375,-44.0475,-41.184002,-6.904,-84.616005,eccentric,4,5.0,34923.0,44694.0,73670.0,97453.0,30894.0,52356.0,30611.0,54051.0,20189.0,18026.0
2026-05-06 15:51:07.603859,420483,1609504931104070,2531016595,0.804224,-0.249856,0.101504,8.3825,25.48,-47.03125,-41.184002,-6.904,-84.616005,eccentric,4,5.0,34923.0,44694.0,73670.0,97453.0,30894.0,52356.0,30611.0,54051.0,20189.0,18026.0
2026-05-06 15:51:07.617799,420484,1609504931118585,2531029456,0.847168,-0.318176,0.099552,23.73,24.63125,-49.21,-40.864002,-8.200001,-82.536,eccentric,4,5.0,34923.0,44694.0,73670.0,97453.0,30894.0,52356.0,30611.0,54051.0,20189.0,18026.0
2026-05-06 15:51:07.627685,420485,1609504931127906,2531040370,0.847168,-0.318176,0.099552,28.21875,26.48625,-52.00125,-40.864002,-8.200001,-82.536,eccentric,4,5.0,34923.0,44694.0,73670.0,97453.0,30894.0,52356.0,30611.0,54051.0,20189.0,18026.0
2026-05-06 15:51:07.636615,420486,1609504931136843,2531049103,0.743712,-0.384544,0.173728,22.9075,30.17,-55.9125,-41.064003,-8.216001,-83.04,eccentric,4,5.0,34923.0,44694.0,73670.0,97453.0,30894.0,52356.0,30611.0,54051.0,20189.0,18026.0
2026-05-06 15:51:07.667585,420497,1609504931151436,2531064084,0.743712,-0.384544,0.173728,15.9425,33.53875,-58.87,-41.064003,-8.216001,-83.04,eccentric,4,5.0,34156.0,44003.0,73092.0,96755.0,30318.0,51805.0,30331.0,53853.0,19887.0,17796.0
2026-05-06 15:51:07.672778,420498,1609504931160515,2531072873,0.66368,-0.275232,0.105408,13.3,34.58,-64.46125,-41.36,-9.592,-82.75201,eccentric,4,5.0,34156.0,44003.0,73092.0,96755.0,30318.0,51805.0,30331.0,53853.0,19887.0,17796.0
2026-05-06 15:51:07.675243,420499,1609504931175020,2531085808,0.788608,-0.099552,0.128832,26.9675,33.285,-64.51375,-41.36,-9.592,-81.824005,eccentric,4,5.0,34156.0,44003.0,73092.0,96755.0,30318.0,51805.0,30331.0,53853.0,19887.0,17796.0
2026-05-06 15:51:07.707496,420500,1609504931184326,2531097007,0.794464,-0.099552,0.128832,40.075,30.065,-63.18375,-41.696003,-9.888001,-81.824005,eccentric,4,5.0,34156.0,44003.0,73092.0,96755.0,30318.0,51805.0,30331.0,53853.0,19887.0,17796.0
2026-05-06 15:51:07.735233,420501,1609504931193277,2531105701,0.794464,-0.099552,0.128832,40.8975,30.397501,-64.70625,-41.696003,-9.888001,-81.824005,eccentric,4,5.0,34156.0,44003.0,73092.0,96755.0,30318.0,51805.0,30331.0,53853.0,19887.0,17796.0
2026-05-06 15:51:07.757683,420502,1609504931207761,2531118601,0.667584,-0.1464,0.13664,29.91625,31.955,-70.72625,-41.584003,-10.744,-82.024,eccentric,4,5.0,34156.0,44003.0,73092.0,96755.0,30318.0,51805.0,30331.0,53853.0,19887.0,17796.0
2026-05-06 15:51:07.760051,420503,1609504931217070,2531129397,0.603168,-0.288896,0.163968,9.4675,32.59375,-82.5475,-41.512,-13.808001,-80.464005,eccentric,4,5.0,34156.0,44003.0,73092.0,96755.0,30318.0,51805.0,30331.0,53853.0,19887.0,17796.0
2026-05-06 15:51:07.763151,420504,1609504931231697,2531144312,0.603168,-0.288896,0.163968,5.495,30.68625,-85.0675,-41.512,-13.808001,-80.464005,eccentric,4,5.0,34156.0,44003.0,73092.0,96755.0,30318.0,51805.0,30331.0,53853.0,19887.0,17796.0
2026-05-06 15:51:07.766232,420505,1609504931240807,2531153055,0.638304,-0.163968,0.222528,7.72625,28.23625,-83.02,-41.656002,-12.976001,-81.144005,eccentric,4,5.0,34156.0,44003.0,73092.0,96755.0,30318.0,51805.0,30331.0,53853.0,19887.0,17796.0
2026-05-06 15:51:07.792759,420516,1609504931249971,2531161880,0.638304,-0.163968,0.222528,20.27375,26.66125,-76.0025,-41.656002,-12.976001,-81.144005,eccentric,4,5.0,34081.0,43989.0,72605.0,97578.0,30300.0,51868.0,30140.0,54336.0,19936.0,17873.0
2026-05-06 15:51:07.795193,420517,1609504931264465,2531176829,0.589504,-0.121024,0.101504,33.985,23.1875,-69.04625,-41.776,-14.032001,-81.07201,eccentric,4,5.0,34081.0,43989.0,72605.0,97578.0,30300.0,51868.0,30140.0,54336.0,19936.0,17873.0
2026-05-06 15:51:07.797836,420518,1609504931273409,2531185591,0.589504,-0.121024,0.101504,32.8475,21.60375,-70.83125,-41.776,-14.032001,-81.07201,eccentric,4,5.0,34081.0,43989.0,72605.0,97578.0,30300.0,51868.0,30140.0,54336.0,19936.0,17873.0
2026-05-06 15:51:07.800290,420519,1609504931287944,2531200608,0.638304,-0.197152,0.173728,25.375,20.44875,-76.527504,-42.192,-17.832,-78.200005,eccentric,4,5.0,34081.0,43989.0,72605.0,97578.0,30300.0,51868.0,30140.0,54336.0,19936.0,17873.0
2026-05-06 15:51:07.802806,420520,1609504931296870,2531209396,0.597312,-0.144448,0.290848,22.6975,21.3675,-75.9675,-41.696003,-19.432001,-78.008,eccentric,4,5.0,34081.0,43989.0,72605.0,97578.0,30300.0,51868.0,30140.0,54336.0,19936.0,17873.0
2026-05-06 15:51:07.816634,420521,1609504931311573,2531224300,0.597312,-0.144448,0.290848,20.64125,21.4025,-70.805,-41.696003,-19.432001,-78.008,eccentric,4,5.0,34081.0,43989.0,72605.0,97578.0,30300.0,51868.0,30140.0,54336.0,19936.0,17873.0
2026-05-06 15:51:07.819119,420522,1609504931320673,2531233033,0.564128,-0.124928,0.142496,19.3375,20.95625,-67.6025,-41.048,-16.392,-80.560005,eccentric,4,5.0,34081.0,43989.0,72605.0,97578.0,30300.0,51868.0,30140.0,54336.0,19936.0,17873.0
2026-05-06 15:51:07.832580,420523,1609504931329660,2531241746,0.564128,-0.124928,0.142496,20.53625,18.41875,-62.85125,-41.048,-16.392,-80.560005,eccentric,4,5.0,34081.0,43989.0,72605.0,97578.0,30300.0,51868.0,30140.0,54336.0,19936.0,17873.0
2026-05-06 15:51:07.871459,420534,1609504931344226,2531256742,0.732,-0.099552,0.07808,20.27375,16.4675,-58.6775,-41.192,-16.984001,-79.888,eccentric,4,5.0,34068.0,43828.0,72184.0,98071.0,30291.0,51679.0,29948.0,54509.0,19953.0,17813.0
2026-05-06 15:51:07.876478,420535,1609504931353821,2531265533,0.732,-0.099552,0.07808,24.78875,15.2075,-57.4175,-41.192,-16.984001,-79.888,eccentric,4,5.0,34068.0,43828.0,72184.0,98071.0,30291.0,51679.0,29948.0,54509.0,19953.0,17813.0
2026-05-06 15:51:07.878824,420536,1609504931362855,2531274386,0.607072,-0.042944,0.201056,23.7825,15.1725,-58.56375,-41.128002,-19.008001,-78.824005,eccentric,4,5.0,34068.0,43828.0,72184.0,98071.0,30291.0,51679.0,29948.0,54509.0,19953.0,17813.0
2026-05-06 15:51:07.881531,420537,1609504931377367,2531289317,0.591456,-0.081984,0.21472,22.75,14.44625,-55.195,-41.336002,-20.104,-79.728004,eccentric,4,5.0,34068.0,43828.0,72184.0,98071.0,30291.0,51679.0,29948.0,54509.0,19953.0,17813.0
2026-05-06 15:51:07.887729,420538,1609504931386354,2531298089,0.591456,-0.081984,0.21472,16.28375,11.76875,-49.49875,-41.336002,-20.104,-79.728004,eccentric,4,5.0,34068.0,43828.0,72184.0,98071.0,30291.0,51679.0,29948.0,54509.0,19953.0,17813.0
2026-05-06 15:51:07.925279,420539,1609504931400969,2531313168,0.706624,-0.105408,0.179584,5.005,10.4125,-43.61,-40.944,-18.552,-79.704,eccentric,4,5.0,34068.0,43828.0,72184.0,98071.0,30291.0,51679.0,29948.0,54509.0,19953.0,17813.0
2026-05-06 15:51:07.927688,420540,1609504931409877,2531321888,0.706624,-0.105408,0.179584,-1.86375,8.61875,-36.2775,-40.944,-18.552,-79.704,eccentric,4,5.0,34068.0,43828.0,72184.0,98071.0,30291.0,51679.0,29948.0,54509.0,19953.0,17813.0
2026-05-06 15:51:07.930284,420541,1609504931424363,2531336956,0.691008,-0.072224,0.154208,1.04125,6.20375,-30.59,-40.744003,-18.768002,-81.424,eccentric,4,5.0,34068.0,43828.0,72184.0,98071.0,30291.0,51679.0,29948.0,54509.0,19953.0,17813.0
2026-05-06 15:51:07.932761,420542,1609504931433434,2531345706,0.691008,-0.072224,0.154208,8.1375,3.29875,-24.00125,-40.744003,-18.768002,-81.424,eccentric,4,5.0,34068.0,43828.0,72184.0,98071.0,30291.0,51679.0,29948.0,54509.0,19953.0,17813.0
2026-05-06 15:51:07.947938,420543,1609504931442424,2531354494,0.802272,-0.05856,0.183488,10.3775,0.2625,-19.4075,-41.152,-19.248001,-79.26401,eccentric,4,5.0,34068.0,43828.0,72184.0,98071.0,30291.0,51679.0,29948.0,54509.0,19953.0,17813.0
2026-05-06 15:51:07.973818,420554,1609504931457082,2531369548,0.802272,0.001952,0.236192,7.65625,-0.28875,-17.08875,-41.152,-19.248001,-79.26401,eccentric,4,5.0,33928.0,43308.0,71804.0,98289.0,30148.0,51157.0,29740.0,54612.0,19866.0,17575.0
2026-05-06 15:51:07.976353,420555,1609504931466042,2531378299,0.784704,0.001952,0.236192,5.4425,-0.32375,-14.72625,-40.784,-22.104002,-77.576004,eccentric,4,5.0,33928.0,43308.0,71804.0,98289.0,30148.0,51157.0,29740.0,54612.0,19866.0,17575.0
2026-05-06 15:51:07.979932,420556,1609504931480601,2531393351,0.794464,-0.08784,0.216672,3.31625,-1.02375,-13.25625,-40.888,-22.536001,-77.256004,eccentric,4,5.0,33928.0,43308.0,71804.0,98289.0,30148.0,51157.0,29740.0,54612.0,19866.0,17575.0
2026-05-06 15:51:07.988872,420557,1609504931489503,2531402070,0.794464,-0.08784,0.216672,1.12875,-3.22,-9.98375,-40.888,-22.536001,-77.256004,eccentric,4,5.0,33928.0,43308.0,71804.0,98289.0,30148.0,51157.0,29740.0,54612.0,19866.0,17575.0
2026-05-06 15:51:08.002626,420558,1609504931498682,2531410873,0.866688,-0.0976,0.15616,1.14625,-5.145,-3.08875,-40.672,-20.76,-77.648,eccentric,4,5.0,33928.0,43308.0,71804.0,98289.0,30148.0,51157.0,29740.0,54612.0,19866.0,17575.0
2026-05-06 15:51:08.016545,420559,1609504931513302,2531425836,0.866688,-0.0976,0.15616,3.12375,-5.8625,1.75875,-40.672,-20.76,-77.648,eccentric,4,5.0,33928.0,43308.0,71804.0,98289.0,30148.0,51157.0,29740.0,54612.0,19866.0,17575.0
2026-05-06 15:51:08.022614,420560,1609504931522360,2531434544,0.866688,-0.025376,0.1952,4.45375,-5.95,3.1675,-40.968002,-19.032001,-79.512,eccentric,4,5.0,33928.0,43308.0,71804.0,98289.0,30148.0,51157.0,29740.0,54612.0,19866.0,17575.0
2026-05-06 15:51:08.036679,420561,1609504931536874,2531449520,0.866688,-0.025376,0.1952,3.4125,-5.80125,4.08625,-40.968002,-19.032001,-79.512,eccentric,4,5.0,33928.0,43308.0,71804.0,98289.0,30148.0,51157.0,29740.0,54612.0,19866.0,17575.0
2026-05-06 15:51:08.132563,420572,1609504931546294,2531458233,0.851072,-0.02928,0.212768,3.6575,-5.71375,4.5325,-40.664,-18.640001,-79.240005,eccentric,4,5.0,34052.0,43370.0,71948.0,98612.0,30231.0,51266.0,29853.0,54837.0,19892.0,17618.0
2026-05-06 15:51:08.137026,420573,1609504931555328,2531467009,0.851072,-0.02928,0.212768,1.72375,-5.71375,4.76,-40.664,-18.640001,-79.240005,eccentric,4,5.0,34052.0,43370.0,71948.0,98612.0,30231.0,51266.0,29853.0,54837.0,19892.0,17618.0
2026-05-06 15:51:08.141594,420574,1609504931569765,2531481945,0.83936,-0.031232,0.201056,2.275,-5.97625,6.06375,-40.672,-19.112001,-80.144005,eccentric,4,5.0,34052.0,43370.0,71948.0,98612.0,30231.0,51266.0,29853.0,54837.0,19892.0,17618.0
2026-05-06 15:51:08.141664,420575,1609504931578759,2531490791,0.870592,-0.050752,0.187392,5.425,-6.44875,4.7775,-40.936,-19.816002,-76.616005,eccentric,4,5.0,34052.0,43370.0,71948.0,98612.0,30231.0,51266.0,29853.0,54837.0,19892.0,17618.0
2026-05-06 15:51:08.142484,420576,1609504931593348,2531505696,0.870592,-0.050752,0.187392,6.50125,-6.37,4.54125,-40.936,-19.816002,-76.616005,eccentric,4,5.0,34052.0,43370.0,71948.0,98612.0,30231.0,51266.0,29853.0,54837.0,19892.0,17618.0
2026-05-06 15:51:08.144885,420577,1609504931602293,2531514463,0.870592,-0.056608,0.163968,4.40125,-5.705,3.43,-40.792004,-18.392,-80.07201,eccentric,4,5.0,34052.0,43370.0,71948.0,98612.0,30231.0,51266.0,29853.0,54837.0,19892.0,17618.0
2026-05-06 15:51:08.147564,420578,1609504931616895,2531529373,0.870592,-0.056608,0.163968,0.2625,-4.64625,2.31875,-40.792004,-18.392,-80.07201,eccentric,4,5.0,34052.0,43370.0,71948.0,98612.0,30231.0,51266.0,29853.0,54837.0,19892.0,17618.0
2026-05-06 15:51:08.152628,420579,1609504931625816,2531538139,0.843264,-0.046848,0.203008,-1.19,-3.605,3.1675,-40.736,-18.536001,-80.11201,eccentric,4,5.0,34052.0,43370.0,71948.0,98612.0,30231.0,51266.0,29853.0,54837.0,19892.0,17618.0
2026-05-06 15:51:08.154870,420580,1609504931634738,2531546895,0.843264,-0.046848,0.203008,-2.61625,-3.50875,1.51375,-40.736,-18.536001,-80.11201,eccentric,4,5.0,34052.0,43370.0,71948.0,98612.0,30231.0,51266.0,29853.0,54837.0,19892.0,17618.0
2026-05-06 15:51:08.190248,420591,1609504931650067,2531561945,0.892064,-0.056608,0.208864,-3.07125,-3.3425,2.31,-40.480003,-22.184002,-77.608,eccentric,4,5.0,34448.0,43746.0,72286.0,99000.0,30583.0,51631.0,29986.0,55103.0,20082.0,17764.0
2026-05-06 15:51:08.192643,420592,1609504931659200,2531570683,0.862784,-0.076128,0.115168,-2.89625,-3.22,3.815,-40.752003,-17.872002,-80.44,eccentric,4,5.0,34448.0,43746.0,72286.0,99000.0,30583.0,51631.0,29986.0,55103.0,20082.0,17764.0
2026-05-06 15:51:08.195239,420593,1609504931673807,2531585700,0.862784,-0.076128,0.115168,-4.235,-4.10375,5.10125,-40.752003,-17.872002,-80.44,eccentric,4,5.0,34448.0,43746.0,72286.0,99000.0,30583.0,51631.0,29986.0,55103.0,20082.0,17764.0
2026-05-06 15:51:08.197781,420594,1609504931682807,2531594451,0.874496,-0.011712,0.193248,-7.58625,-4.3925,5.53875,-40.696003,-18.960001,-79.136,eccentric,4,5.0,34448.0,43746.0,72286.0,99000.0,30583.0,51631.0,29986.0,55103.0,20082.0,17764.0
2026-05-06 15:51:08.200247,420595,1609504931691744,2531603275,0.874496,-0.011712,0.193248,-7.79625,-4.235,5.06625,-40.696003,-18.960001,-79.136,eccentric,4,5.0,34448.0,43746.0,72286.0,99000.0,30583.0,51631.0,29986.0,55103.0,20082.0,17764.0
2026-05-06 15:51:08.206600,420596,1609504931706250,2531618303,0.864736,-0.00976,0.191296,-4.48,-3.89375,2.9575,-40.768,-19.872002,-79.352005,eccentric,4,5.0,34448.0,43746.0,72286.0,99000.0,30583.0,51631.0,29986.0,55103.0,20082.0,17764.0
2026-05-06 15:51:08.215282,420597,1609504931715163,2531627002,0.864736,-0.00976,0.191296,-4.57625,-3.73625,0.25375,-40.768,-19.872002,-79.352005,eccentric,4,5.0,34448.0,43746.0,72286.0,99000.0,30583.0,51631.0,29986.0,55103.0,20082.0,17764.0
2026-05-06 15:51:08.236571,420598,1609504931729670,2531641934,0.874496,-0.060512,0.1952,-4.66375,-2.94875,-0.0525,-40.744003,-18.208,-80.11201,eccentric,4,5.0,34448.0,43746.0,72286.0,99000.0,30583.0,51631.0,29986.0,55103.0,20082.0,17764.0
2026-05-06 15:51:08.237927,420599,1609504931738578,2531650641,0.874496,-0.060512,0.1952,-5.075,-3.0625,0.65625,-40.744003,-18.208,-80.11201,eccentric,4,5.0,34448.0,43746.0,72286.0,99000.0,30583.0,51631.0,29986.0,55103.0,20082.0,17764.0
2026-05-06 15:51:08.276429,420610,1609504931747528,2531659426,0.90768,-0.023424,0.134688,-5.3725,-2.7475,2.37125,-40.568,-19.856,-80.312004,eccentric,4,5.0,34784.0,44147.0,72587.0,99448.0,30927.0,52027.0,30154.0,55358.0,20253.0,17947.0
2026-05-06 15:51:08.278857,420611,1609504931762280,2531674483,0.903776,0.040992,0.189344,-5.7925,-2.07375,1.49625,-40.792004,-18.480001,-80.248,eccentric,4,5.0,34784.0,44147.0,72587.0,99448.0,30927.0,52027.0,30154.0,55358.0,20253.0,17947.0
2026-05-06 15:51:08.281452,420612,1609504931771317,2531683344,0.903776,0.040992,0.189344,-8.26,0.35875,-1.09375,-40.792004,-18.480001,-80.248,eccentric,4,5.0,34784.0,44147.0,72587.0,99448.0,30927.0,52027.0,30154.0,55358.0,20253.0,17947.0
2026-05-06 15:51:08.287709,420613,1609504931785833,2531698428,0.876448,-0.05856,0.17568,-11.165,2.135,-4.50625,-41.056004,-21.640001,-78.12,eccentric,4,5.0,34784.0,44147.0,72587.0,99448.0,30927.0,52027.0,30154.0,55358.0,20253.0,17947.0
2026-05-06 15:51:08.294087,420614,1609504931794738,2531707170,0.876448,-0.05856,0.17568,-12.075,2.24875,-7.665,-41.056004,-21.640001,-78.12,eccentric,4,5.0,34784.0,44147.0,72587.0,99448.0,30927.0,52027.0,30154.0,55358.0,20253.0,17947.0
2026-05-06 15:51:08.307745,420615,1609504931809272,2531720142,0.88816,-0.054656,0.181536,-8.53125,2.065,-6.475,-40.624,-18.392,-80.152,eccentric,4,5.0,34784.0,44147.0,72587.0,99448.0,30927.0,52027.0,30154.0,55358.0,20253.0,17947.0
