pc_time,serial_num,sensor_ts,host_ts,ax,ay,az,gx,gy,gz,mx,my,mz,phase,rpe,weight_kg,ppg_a,ppg_b,ppg_c,ppg_d,ppg_e
2026-04-07 17:38:40.225057,106391,590619352,590620885,0.79056,-0.113216,-0.15616,7.7175,-7.245,0.76125,-10.848001,-16.784,19.808,concentric,3,3.0,30398.0,386632.0,345427.0,402945.0,347406.0
2026-04-07 17:38:40.227324,106392,590628295,590629595,0.79056,-0.113216,-0.15616,10.00125,-8.68,3.5525,-10.848001,-16.784,19.808,concentric,3,3.0,30398.0,386632.0,345427.0,402945.0,347406.0
2026-04-07 17:38:40.252765,106402,590637280,590638342,0.77104,-0.105408,-0.15616,9.5025,-10.45625,6.46625,-9.728001,-16.976002,17.912,concentric,3,3.0,30248.0,385631.0,344632.0,402493.0,346575.0
2026-04-07 17:38:40.256934,106403,590651958,590653451,0.774944,-0.111264,-0.158112,8.70625,-11.75125,9.6075,-9.68,-16.848001,17.808,concentric,3,3.0,30248.0,385631.0,344632.0,402493.0,346575.0
2026-04-07 17:38:40.258639,106404,590660902,590662174,0.774944,-0.111264,-0.158112,6.965,-12.06625,12.215,-9.68,-16.848001,17.808,concentric,3,3.0,30248.0,385631.0,344632.0,402493.0,346575.0
2026-04-07 17:38:40.260187,106405,590669927,590670893,0.774944,-0.111264,-0.158112,4.27,-11.97875,13.04625,-9.68,-16.848001,17.808,concentric,3,3.0,30248.0,385631.0,344632.0,402493.0,346575.0
2026-04-07 17:38:40.291365,106406,590684548,590685855,0.753472,-0.103456,-0.158112,3.6925,-12.55625,14.0175,-10.064,-16.792002,17.392,concentric,3,3.0,30248.0,385631.0,344632.0,402493.0,346575.0
2026-04-07 17:38:40.295721,106407,590693455,590694550,0.757376,-0.144448,-0.189344,4.69875,-14.1225,15.408751,-9.736,-16.184,17.6,concentric,3,3.0,30248.0,385631.0,344632.0,402493.0,346575.0
2026-04-07 17:38:40.297460,106408,590702420,590703247,0.757376,-0.144448,-0.189344,6.01125,-16.835001,16.68625,-9.736,-16.184,17.6,concentric,3,3.0,30248.0,385631.0,344632.0,402493.0,346575.0
2026-04-07 17:38:40.299242,106409,590711363,590711944,0.788608,-0.10736,-0.222528,6.3875,-19.11,18.52375,-9.736,-16.184,17.640001,concentric,3,3.0,30248.0,385631.0,344632.0,402493.0,346575.0
2026-04-07 17:38:40.331331,106410,590726120,590726843,0.792512,-0.10736,-0.222528,8.715,-20.37,20.116251,-9.744,-15.432001,17.640001,concentric,3,3.0,30248.0,385631.0,344632.0,402493.0,346575.0
2026-04-07 17:38:40.358961,106421,590735460,590737960,0.792512,-0.12688,-0.163968,8.68875,-20.5275,20.86875,-10.112,-15.576001,17.072,concentric,3,3.0,30551.0,387852.0,346579.0,403431.0,348765.0
2026-04-07 17:38:40.361501,106422,590744484,590746695,0.792512,-0.12688,-0.163968,6.13375,-20.0025,21.49,-10.112,-15.576001,17.072,concentric,3,3.0,30551.0,387852.0,346579.0,403431.0,348765.0
2026-04-07 17:38:40.363944,106423,590758981,590759695,0.81984,-0.130784,-0.16592,6.36125,-19.25,21.97125,-10.168,-15.336,16.968,concentric,3,3.0,30551.0,387852.0,346579.0,403431.0,348765.0
2026-04-07 17:38:40.366431,106424,590768363,590770499,0.81984,-0.130784,-0.16592,7.3325,-18.12125,21.60375,-10.168,-15.336,16.968,concentric,3,3.0,30551.0,387852.0,346579.0,403431.0,348765.0
2026-04-07 17:38:40.368950,106425,590777321,590779202,0.80032,-0.15616,-0.18544,6.965,-18.147501,22.085001,-10.256001,-15.584001,16.856,concentric,3,3.0,30551.0,387852.0,346579.0,403431.0,348765.0
2026-04-07 17:38:40.371505,106426,590786251,590787960,0.80032,-0.15616,-0.18544,4.78625,-19.95875,22.40875,-10.256001,-15.584001,16.856,concentric,3,3.0,30551.0,387852.0,346579.0,403431.0,348765.0
2026-04-07 17:38:40.402621,106427,590800781,590802875,0.833504,-0.16592,-0.187392,2.49375,-21.21875,21.77,-9.728001,-14.840001,16.616001,concentric,3,3.0,30551.0,387852.0,346579.0,403431.0,348765.0
2026-04-07 17:38:40.404005,106428,590809706,590811614,0.833504,-0.16592,-0.187392,1.40875,-20.2475,22.14625,-9.728001,-14.840001,16.616001,concentric,3,3.0,30551.0,387852.0,346579.0,403431.0,348765.0
2026-04-07 17:38:40.408555,106429,590818623,590820295,0.860832,-0.1464,-0.177632,1.715,-19.74875,20.545,-10.0,-14.448001,16.744001,concentric,3,3.0,30551.0,387852.0,346579.0,403431.0,348765.0
2026-04-07 17:38:40.420778,106430,590833135,590835199,0.841312,-0.15616,-0.191296,3.77125,-18.0775,18.20875,-9.872001,-14.336,15.704,concentric,3,3.0,30551.0,387852.0,346579.0,403431.0,348765.0
2026-04-07 17:38:40.493655,106440,590842228,590844010,0.841312,-0.15616,-0.191296,5.775,-17.19375,16.68625,-9.872001,-14.336,15.704,concentric,3,3.0,31268.0,393222.0,350988.0,403431.0,353413.0
2026-04-07 17:38:40.495929,106441,590851205,590852810,0.841312,-0.15616,-0.191296,5.34625,-17.395,14.67375,-9.872001,-14.336,15.704,concentric,3,3.0,31268.0,393222.0,350988.0,403431.0,353413.0
2026-04-07 17:38:40.499393,106442,590865694,590867703,0.83936,-0.197152,-0.201056,5.1975,-18.78625,12.90625,-9.92,-13.608001,16.624,concentric,3,3.0,31268.0,393222.0,350988.0,403431.0,353413.0
2026-04-07 17:38:40.501119,106443,590874592,590876404,0.835456,-0.169824,-0.193248,5.67875,-20.25625,12.565,-9.736,-13.992001,16.072,concentric,3,3.0,31268.0,393222.0,350988.0,403431.0,353413.0
2026-04-07 17:38:40.502709,106444,590883530,590885102,0.835456,-0.169824,-0.193248,4.33125,-21.2975,12.5475,-9.736,-13.992001,16.072,concentric,3,3.0,31268.0,393222.0,350988.0,403431.0,353413.0
2026-04-07 17:38:40.506815,106445,590892489,590893809,0.827648,-0.228384,-0.212768,4.38375,-22.8725,13.055,-10.064,-13.728001,16.528,concentric,3,3.0,31268.0,393222.0,350988.0,403431.0,353413.0
2026-04-07 17:38:40.513373,106446,590906952,590908689,0.827648,-0.228384,-0.212768,4.05125,-24.5175,12.573751,-10.064,-13.728001,16.528,concentric,3,3.0,31268.0,393222.0,350988.0,403431.0,353413.0
2026-04-07 17:38:40.515051,106447,590915874,590917377,0.784704,-0.23424,-0.20496,6.15125,-25.4275,11.13875,-10.584001,-13.816001,17.392,concentric,3,3.0,31268.0,393222.0,350988.0,403431.0,353413.0
2026-04-07 17:38:40.517258,106448,590924867,590926125,0.784704,-0.23424,-0.20496,12.62625,-25.8825,10.2375,-10.584001,-13.816001,17.392,concentric,3,3.0,31268.0,393222.0,350988.0,403431.0,353413.0
2026-04-07 17:38:40.548274,106458,590939862,590941263,0.763232,-0.162016,-0.206912,18.4975,-26.76625,9.3975,-9.592,-13.120001,14.936001,concentric,3,3.0,31845.0,397321.0,354318.0,403431.0,356831.0
2026-04-07 17:38:40.549965,106459,590948881,590949974,0.763232,-0.162016,-0.206912,19.25,-27.34375,9.21375,-9.592,-13.120001,14.936001,concentric,3,3.0,31845.0,397321.0,354318.0,403431.0,356831.0
2026-04-07 17:38:40.551528,106460,590957814,590958799,0.788608,-0.228384,-0.189344,16.40625,-28.65625,9.073751,-9.576,-13.168,14.792001,concentric,3,3.0,31845.0,397321.0,354318.0,403431.0,356831.0
2026-04-07 17:38:40.559280,106461,590972311,590973732,0.772992,-0.240096,-0.210816,12.1625,-28.6125,9.49375,-9.576,-13.168,14.608001,concentric,3,3.0,31845.0,397321.0,354318.0,403431.0,356831.0
2026-04-07 17:38:40.587844,106462,590981286,590982431,0.778848,-0.240096,-0.210816,9.8175,-27.15125,9.625,-9.784,-13.128,14.608001,concentric,3,3.0,31845.0,397321.0,354318.0,403431.0,356831.0
2026-04-07 17:38:40.592525,106463,590990222,590991142,0.778848,-0.240096,-0.210816,10.9375,-25.97875,10.6225,-9.784,-13.128,14.608001,concentric,3,3.0,31845.0,397321.0,354318.0,403431.0,356831.0
2026-04-07 17:38:40.594009,106464,590999115,590999841,0.767136,-0.261568,-0.255712,12.0575,-25.9,11.8825,-9.464001,-12.76,13.920001,concentric,3,3.0,31845.0,397321.0,354318.0,403431.0,356831.0
2026-04-07 17:38:40.600911,106465,591014074,591014737,0.759328,-0.23424,-0.271328,12.355001,-26.3725,14.0525,-8.64,-11.224001,16.432001,concentric,3,3.0,31845.0,397321.0,354318.0,403431.0,356831.0
2026-04-07 17:38:40.631625,106466,591023375,591025491,0.759328,-0.23424,-0.271328,14.525,-26.845,15.75,-8.64,-11.224001,16.432001,concentric,3,3.0,31845.0,397321.0,354318.0,403431.0,356831.0
2026-04-07 17:38:40.636174,106467,591032316,591034221,0.759328,-0.203008,-0.228384,15.37375,-26.3725,15.1375,-8.64,-11.224001,16.432001,concentric,3,3.0,31845.0,397321.0,354318.0,403431.0,356831.0
2026-04-07 17:38:40.666939,106478,591046921,591049185,0.806176,-0.193248,-0.228384,12.52125,-25.08625,13.36125,-9.752001,-12.848001,13.296001,concentric,3,3.0,32409.0,401026.0,357746.0,403431.0,360466.0
2026-04-07 17:38:40.668619,106479,591055857,591057881,0.812032,-0.242048,-0.259616,9.00375,-22.89,11.55,-9.304001,-11.688001,13.68,concentric,3,3.0,32409.0,401026.0,357746.0,403431.0,360466.0
2026-04-07 17:38:40.670343,106480,591064837,591066612,0.812032,-0.242048,-0.259616,6.81625,-20.7375,9.68625,-9.304001,-11.688001,13.68,concentric,3,3.0,32409.0,401026.0,357746.0,403431.0,360466.0
2026-04-07 17:38:40.674539,106481,591073776,591075342,0.80032,-0.265472,-0.316224,7.28875,-19.145,9.1175,-10.376,-12.248,12.240001,concentric,3,3.0,32409.0,401026.0,357746.0,403431.0,360466.0
2026-04-07 17:38:40.676895,106482,591088310,591090261,0.80032,-0.265472,-0.316224,7.34125,-18.75125,9.38,-10.376,-12.248,12.240001,concentric,3,3.0,32409.0,401026.0,357746.0,403431.0,360466.0
2026-04-07 17:38:40.685592,106483,591097602,591099382,0.823744,-0.249856,-0.2928,6.90375,-20.3875,9.63375,-9.368,-11.608001,13.280001,concentric,3,3.0,32409.0,401026.0,357746.0,403431.0,360466.0
2026-04-07 17:38:40.714114,106484,591106596,591108088,0.823744,-0.249856,-0.2928,6.1425,-20.51,9.70375,-9.368,-11.608001,13.280001,concentric,3,3.0,32409.0,401026.0,357746.0,403431.0,360466.0
2026-04-07 17:38:40.719498,106485,591121076,591122997,0.870592,-0.267424,-0.286944,5.67,-19.57375,9.44125,-9.744,-11.648001,13.136001,concentric,3,3.0,32409.0,401026.0,357746.0,403431.0,360466.0
2026-04-07 17:38:40.720976,106486,591130019,591131723,0.870592,-0.267424,-0.286944,4.97,-18.4275,9.05625,-9.744,-11.648001,13.136001,concentric,3,3.0,32409.0,401026.0,357746.0,403431.0,360466.0
2026-04-07 17:38:40.779869,106496,591138984,591140399,0.862784,-0.242048,-0.28304,4.9525,-15.95125,7.28,-9.376,-11.104,12.736001,concentric,3,3.0,32960.0,403118.0,361228.0,403431.0,364318.0
2026-04-07 17:38:40.781439,106497,591148486,591149122,0.862784,-0.242048,-0.28304,5.45125,-13.4225,6.55375,-9.376,-11.104,12.736001,concentric,3,3.0,32960.0,403118.0,361228.0,403431.0,364318.0
2026-04-07 17:38:40.785668,106498,591163341,591164136,0.841312,-0.245952,-0.32208,4.0775,-10.823751,5.915,-9.280001,-11.504001,13.64,concentric,3,3.0,32960.0,403118.0,361228.0,403431.0,364318.0
2026-04-07 17:38:40.787480,106499,591172277,591172838,0.841312,-0.245952,-0.32208,1.54,-9.1175,6.48375,-9.280001,-11.504001,13.64,concentric,3,3.0,32960.0,403118.0,361228.0,403431.0,364318.0
2026-04-07 17:38:40.789038,106500,591181433,591183602,0.8296,-0.26352,-0.316224,-0.72625,-7.6825,6.79875,-9.64,-10.872001,12.216001,concentric,3,3.0,32960.0,403118.0,361228.0,403431.0,364318.0
2026-04-07 17:38:40.793174,106501,591195936,591196489,0.813984,-0.259616,-0.300608,-3.84125,-6.55375,7.0525,-10.240001,-11.648001,16.04,concentric,3,3.0,32960.0,403118.0,361228.0,403431.0,364318.0
2026-04-07 17:38:40.795588,106502,591205369,591207285,0.813984,-0.259616,-0.300608,-5.9325,-5.64375,7.735,-10.240001,-11.648001,16.04,concentric,3,3.0,32960.0,403118.0,361228.0,403431.0,364318.0
2026-04-07 17:38:40.801811,106503,591214365,591216000,0.784704,-0.212768,-0.310368,-4.78625,-4.48875,9.58125,-10.68,-11.712001,16.232,concentric,3,3.0,32960.0,403118.0,361228.0,403431.0,364318.0
2026-04-07 17:38:40.830536,106504,591223301,591224731,0.784704,-0.212768,-0.310368,-4.10375,-3.92875,9.625,-10.68,-11.712001,16.232,concentric,3,3.0,32960.0,403118.0,361228.0,403431.0,364318.0
2026-04-07 17:38:40.834013,106505,591237768,591239659,0.74176,-0.236192,-0.318176,-4.9525,-4.06875,10.43,-9.864,-11.056001,12.832001,concentric,3,3.0,32960.0,403118.0,361228.0,403431.0,364318.0
2026-04-07 17:38:40.858939,106515,591246695,591248360,0.74176,-0.236192,-0.318176,-5.50375,-4.17375,11.66375,-9.864,-11.056001,12.832001,concentric,3,3.0,33294.0,403431.0,362827.0,403431.0,366434.0
2026-04-07 17:38:40.863198,106516,591255652,591257096,0.726144,-0.269376,-0.325984,-7.525,-3.92,12.6875,-10.824,-10.832001,14.256001,concentric,3,3.0,33294.0,403431.0,362827.0,403431.0,366434.0
2026-04-07 17:38:40.866089,106517,591270211,591272070,0.726144,-0.269376,-0.325984,-7.175,-3.85,13.545,-10.824,-10.832001,14.256001,concentric,3,3.0,33294.0,403431.0,362827.0,403431.0,366434.0
2026-04-07 17:38:40.871788,106518,591279154,591280787,0.753472,-0.21472,-0.325984,-5.57375,-4.1825,14.56875,-10.672001,-11.288,13.984,concentric,3,3.0,33294.0,403431.0,362827.0,403431.0,366434.0
2026-04-07 17:38:40.875597,106519,591288101,591289497,0.753472,-0.21472,-0.325984,-7.245,-4.2525,14.13125,-10.672001,-11.288,13.984,concentric,3,3.0,33294.0,403431.0,362827.0,403431.0,366434.0
2026-04-07 17:38:40.907465,106520,591302583,591304431,0.74176,-0.257664,-0.337696,-9.9925,-3.45625,14.07875,-9.664001,-10.192,12.256001,concentric,3,3.0,33294.0,403431.0,362827.0,403431.0,366434.0
2026-04-07 17:38:40.912176,106521,591311514,591313143,0.74176,-0.257664,-0.337696,-9.96625,-3.2375,14.13125,-9.664001,-10.192,12.256001,concentric,3,3.0,33294.0,403431.0,362827.0,403431.0,366434.0
2026-04-07 17:38:40.913774,106522,591320482,591321859,0.708576,-0.265472,-0.359168,-8.2775,-3.2025,14.55125,-10.136001,-10.272,12.312,concentric,3,3.0,33294.0,403431.0,362827.0,403431.0,366434.0
2026-04-07 17:38:40.915247,106523,591329390,591330549,0.708576,-0.265472,-0.359168,-7.53375,-3.68375,15.190001,-10.136001,-10.272,12.312,concentric,3,3.0,33294.0,403431.0,362827.0,403431.0,366434.0
2026-04-07 17:38:40.971600,106534,591344440,591345667,0.720288,-0.275232,-0.347456,-6.58875,-3.64875,16.16125,-10.816001,-10.072001,13.592001,concentric,3,3.0,33306.0,403431.0,362714.0,403431.0,366427.0
2026-04-07 17:38:40.975673,106535,591353464,591354493,0.720288,-0.275232,-0.345504,-8.5575,-3.66625,16.79125,-10.816001,-10.072001,13.592001,concentric,3,3.0,33306.0,403431.0,362714.0,403431.0,366427.0
2026-04-07 17:38:40.977342,106536,591362383,591363217,0.763232,-0.310368,-0.345504,-9.0125,-3.47375,15.715,-10.096001,-10.280001,13.616,concentric,3,3.0,33306.0,403431.0,362714.0,403431.0,366427.0
2026-04-07 17:38:40.978941,106537,591376896,591378188,0.802272,-0.296704,-0.343552,-6.8425,-1.8025,15.11125,-11.248,-9.848001,13.632001,concentric,3,3.0,33306.0,403431.0,362714.0,403431.0,366427.0
2026-04-07 17:38:40.983207,106538,591385819,591386978,0.802272,-0.296704,-0.343552,-5.2675,-0.34125,15.627501,-11.248,-9.848001,13.632001,concentric,3,3.0,33306.0,403431.0,362714.0,403431.0,366427.0
2026-04-07 17:38:40.984755,106539,591394759,591395681,0.66368,-0.345504,-0.392352,-5.94125,1.4,15.16375,-11.112,-9.928,12.208,concentric,3,3.0,33306.0,403431.0,362714.0,403431.0,366427.0
2026-04-07 17:38:40.990698,106540,591403709,591404425,0.66368,-0.345504,-0.392352,-11.8825,3.605,11.725,-11.112,-9.928,12.208,concentric,3,3.0,33306.0,403431.0,362714.0,403431.0,366427.0
2026-04-07 17:38:41.019213,106541,591418777,591419404,0.845216,-0.355264,-0.329888,-8.98625,4.1125,9.00375,-11.008,-9.904,12.088,concentric,3,3.0,33306.0,403431.0,362714.0,403431.0,366427.0
2026-04-07 17:38:41.024015,106542,591428022,591430199,0.845216,-0.355264,-0.329888,-0.51625,4.34,12.2675,-11.008,-9.904,12.088,concentric,3,3.0,33306.0,403431.0,362714.0,403431.0,366427.0
2026-04-07 17:38:41.025300,106543,591437089,591438894,0.759328,-0.259616,-0.363072,5.22375,5.76625,12.43375,-10.512,-9.272,11.632001,concentric,3,3.0,33306.0,403431.0,362714.0,403431.0,366427.0
2026-04-07 17:38:41.089910,106553,591451760,591453915,0.759328,-0.259616,-0.363072,6.8075,6.79875,9.485,-10.512,-9.272,11.632001,concentric,3,3.0,33337.0,403431.0,362964.0,403431.0,366628.0
2026-04-07 17:38:41.091446,106554,591460749,591462681,0.796416,-0.335744,-0.372832,4.13875,7.98875,6.83375,-11.400001,-9.688001,13.68,concentric,3,3.0,33337.0,403431.0,362964.0,403431.0,366628.0
2026-04-07 17:38:41.095800,106555,591469650,591471377,0.796416,-0.335744,-0.372832,4.4625,8.54,4.31375,-11.400001,-9.688001,13.68,concentric,3,3.0,33337.0,403431.0,362964.0,403431.0,366628.0
2026-04-07 17:38:41.097406,106556,591478575,591480114,0.778848,-0.288896,-0.329888,4.8825,8.77625,4.45375,-10.888001,-9.312,11.248,concentric,3,3.0,33337.0,403431.0,362964.0,403431.0,366628.0
2026-04-07 17:38:41.098970,106557,591493085,591495020,0.778848,-0.288896,-0.329888,6.545,9.72125,5.92375,-10.888001,-9.312,11.248,concentric,3,3.0,33337.0,403431.0,362964.0,403431.0,366628.0
2026-04-07 17:38:41.103707,106558,591502070,591503758,0.796416,-0.31232,-0.339648,3.7975,9.905,5.495,-11.384001,-9.248,11.712001,concentric,3,3.0,33337.0,403431.0,362964.0,403431.0,366628.0
2026-04-07 17:38:41.105624,106559,591511116,591512572,0.796416,-0.31232,-0.339648,2.12625,11.2175,5.1275,-11.384001,-9.248,11.712001,concentric,3,3.0,33337.0,403431.0,362964.0,403431.0,366628.0
2026-04-07 17:38:41.135038,106560,591525640,591527528,0.835456,-0.329888,-0.345504,4.6725,11.935,4.725,-11.144,-9.160001,12.048,concentric,3,3.0,33337.0,403431.0,362964.0,403431.0,366628.0
2026-04-07 17:38:41.137310,106561,591534570,591536212,0.792512,-0.259616,-0.345504,9.0125,12.985,3.605,-11.144,-9.160001,12.664001,concentric,3,3.0,33337.0,403431.0,362964.0,403431.0,366628.0
2026-04-07 17:38:41.170787,106571,591544113,591544969,0.792512,-0.259616,-0.345504,13.1425,12.6525,1.435,-11.936001,-8.712001,12.664001,concentric,3,3.0,33383.0,403431.0,363305.0,403431.0,366912.0
2026-04-07 17:38:41.172403,106572,591553073,591553695,0.792512,-0.259616,-0.345504,12.425,12.15375,-0.7875,-11.936001,-8.712001,12.664001,concentric,3,3.0,33383.0,403431.0,363305.0,403431.0,366912.0
2026-04-07 17:38:41.174036,106573,591567910,591568620,0.841312,-0.333792,-0.339648,7.21,12.1975,-1.68875,-11.936001,-8.936001,12.376,concentric,3,3.0,33383.0,403431.0,363305.0,403431.0,366912.0
2026-04-07 17:38:41.178131,106574,591577394,591579377,0.815936,-0.384544,-0.32208,3.4825,12.53,-0.63,-12.168,-8.224,12.056001,concentric,3,3.0,33383.0,403431.0,363305.0,403431.0,366912.0
2026-04-07 17:38:41.179745,106575,591586407,591588094,0.815936,-0.384544,-0.32208,6.67625,13.78125,0.77875,-12.168,-8.224,12.056001,concentric,3,3.0,33383.0,403431.0,363305.0,403431.0,366912.0
2026-04-07 17:38:41.211254,106576,591600929,591603054,0.831552,-0.320128,-0.329888,11.515,14.7,1.5925,-11.68,-8.528001,12.248,concentric,3,3.0,33383.0,403431.0,363305.0,403431.0,366912.0
2026-04-07 17:38:41.213575,106577,591609861,591611757,0.831552,-0.320128,-0.329888,15.3825,16.51125,2.75625,-11.68,-8.528001,12.248,concentric,3,3.0,33383.0,403431.0,363305.0,403431.0,366912.0
2026-04-07 17:38:41.218176,106578,591618814,591620477,0.804224,-0.304512,-0.31232,16.16125,17.70125,3.0275,-12.672001,-8.8,12.784,concentric,3,3.0,33383.0,403431.0,363305.0,403431.0,366912.0
2026-04-07 17:38:41.220591,106579,591627713,591629153,0.804224,-0.304512,-0.31232,17.12375,17.57,3.01,-12.672001,-8.8,12.784,concentric,3,3.0,33383.0,403431.0,363305.0,403431.0,366912.0
2026-04-07 17:38:41.278585,106590,591642244,591644033,0.81008,-0.337696,-0.300608,17.4475,16.58125,2.49375,-12.888001,-8.08,13.312,concentric,3,3.0,33433.0,403431.0,363898.0,403431.0,367341.0
2026-04-07 17:38:41.281180,106591,591651647,591652734,0.81008,-0.337696,-0.300608,16.555,15.42625,1.86375,-12.888001,-8.08,13.312,concentric,3,3.0,33433.0,403431.0,363898.0,403431.0,367341.0
2026-04-07 17:38:41.283582,106592,591660552,591661451,0.817888,-0.339648,-0.288896,17.70125,14.28,2.40625,-12.960001,-8.320001,12.936001,concentric,3,3.0,33433.0,403431.0,363898.0,403431.0,367341.0
2026-04-07 17:38:41.285234,106593,591675050,591676399,0.817888,-0.347456,-0.286944,15.72375,14.0175,2.19625,-12.960001,-8.320001,12.936001,concentric,3,3.0,33433.0,403431.0,363898.0,403431.0,367341.0
2026-04-07 17:38:41.289411,106594,591684087,591685105,0.823744,-0.347456,-0.286944,14.56,13.265,2.16125,-13.56,-8.280001,13.656001,concentric,3,3.0,33433.0,403431.0,363898.0,403431.0,367341.0
2026-04-07 17:38:41.291175,106595,591693124,591693833,0.823744,-0.347456,-0.286944,14.542501,12.31125,1.82,-13.56,-8.280001,13.656001,concentric,3,3.0,33433.0,403431.0,363898.0,403431.0,367341.0
2026-04-07 17:38:41.292676,106596,591702537,591704683,0.8296,-0.384544,-0.298656,14.25375,11.1475,0.175,-13.936001,-8.208,13.712001,concentric,3,3.0,33433.0,403431.0,363898.0,403431.0,367341.0
2026-04-07 17:38:41.323832,106597,591717039,591717530,0.83936,-0.366976,-0.279136,14.595,10.61375,-0.105,-13.464001,-7.928001,12.464001,concentric,3,3.0,33433.0,403431.0,363898.0,403431.0,367341.0
2026-04-07 17:38:41.326072,106598,591726530,591728285,0.83936,-0.366976,-0.279136,14.74375,9.61625,-0.21875,-13.464001,-7.928001,12.464001,concentric,3,3.0,33433.0,403431.0,363898.0,403431.0,367341.0
2026-04-07 17:38:41.330854,106599,591735440,591737036,0.853024,-0.441152,-0.2928,13.755,7.86625,-0.1225,-13.464001,-7.928001,10.552,concentric,3,3.0,33433.0,403431.0,363898.0,403431.0,367341.0
2026-04-07 17:38:41.387399,106609,591750090,591752015,0.853024,-0.441152,-0.2928,12.34625,7.105,-0.735,-13.136001,-7.336,10.552,concentric,3,3.0,33431.0,403431.0,364171.0,403431.0,367640.0
2026-04-07 17:38:41.389958,106610,591759106,591760801,0.8296,-0.384544,-0.271328,14.69125,6.58,-1.2775,-14.240001,-7.512001,14.432001,concentric,3,3.0,33431.0,403431.0,364171.0,403431.0,367640.0
2026-04-07 17:38:41.392477,106611,591768027,591769494,0.8296,-0.384544,-0.271328,18.43625,6.76375,-0.53375,-14.240001,-7.512001,14.432001,concentric,3,3.0,33431.0,403431.0,364171.0,403431.0,367640.0
2026-04-07 17:38:41.394077,106612,591776939,591778139,0.851072,-0.421632,-0.261568,20.16875,5.8975,-1.995,-13.752001,-7.480001,12.888001,concentric,3,3.0,33431.0,403431.0,364171.0,403431.0,367640.0
2026-04-07 17:38:41.398243,106613,591791406,591793040,0.851072,-0.421632,-0.261568,18.803751,6.30875,-2.40625,-13.752001,-7.480001,12.888001,concentric,3,3.0,33431.0,403431.0,364171.0,403431.0,367640.0
2026-04-07 17:38:41.399898,106614,591800340,591801752,0.851072,-0.42944,-0.255712,17.0975,6.9825,-1.70625,-14.288001,-7.568,14.880001,concentric,3,3.0,33431.0,403431.0,364171.0,403431.0,367640.0
2026-04-07 17:38:41.401779,106615,591809252,591810474,0.851072,-0.42944,-0.255712,17.19375,6.9125,-1.68,-14.288001,-7.568,14.880001,concentric,3,3.0,33431.0,403431.0,364171.0,403431.0,367640.0
2026-04-07 17:38:41.432574,106616,591823772,591825453,0.853024,-0.423584,-0.267424,16.17,6.69375,-2.02125,-14.616001,-8.248,15.832001,concentric,3,3.0,33431.0,403431.0,364171.0,403431.0,367640.0
2026-04-07 17:38:41.434889,106617,591832743,591834162,0.853024,-0.423584,-0.267424,16.485,6.65,-2.66875,-14.616001,-8.248,15.832001,concentric,3,3.0,33431.0,403431.0,364171.0,403431.0,367640.0
2026-04-07 17:38:41.439507,106618,591841706,591842852,0.835456,-0.4392,-0.257664,17.75375,6.51,-4.05125,-13.984,-6.992,13.128,concentric,3,3.0,33431.0,403431.0,364171.0,403431.0,367640.0
2026-04-07 17:38:41.466929,106628,591856256,591857779,0.83936,-0.415776,-0.251808,19.2675,6.79875,-4.1825,-13.784,-7.08,10.504001,concentric,3,3.0,33420.0,403431.0,364261.0,403431.0,367699.0
2026-04-07 17:38:41.468622,106629,591865178,591866554,0.83936,-0.415776,-0.251808,19.11875,6.5625,-4.375,-13.784,-7.08,10.504001,concentric,3,3.0,33420.0,403431.0,364261.0,403431.0,367699.0
2026-04-07 17:38:41.471231,106630,591874143,591875280,0.83936,-0.415776,-0.251808,16.275,5.81,-4.82125,-13.784,-7.08,10.504001,concentric,3,3.0,33420.0,403431.0,364261.0,403431.0,367699.0
2026-04-07 17:38:41.473544,106631,591883076,591884012,0.837408,-0.456768,-0.232288,13.8075,5.075,-4.73375,-14.080001,-6.808,13.76,concentric,3,3.0,33420.0,403431.0,364261.0,403431.0,367699.0
2026-04-07 17:38:41.505750,106632,591897659,591898913,0.83936,-0.435296,-0.23424,14.02625,3.745,-4.515,-14.368001,-6.56,12.432,concentric,3,3.0,33420.0,403431.0,364261.0,403431.0,367699.0
2026-04-07 17:38:41.506067,106633,591906553,591907632,0.83936,-0.435296,-0.23424,14.90125,3.92,-4.66375,-14.368001,-6.56,12.432,concentric,3,3.0,33420.0,403431.0,364261.0,403431.0,367699.0
2026-04-07 17:38:41.510649,106634,591915452,591916395,0.83936,-0.435296,-0.249856,15.47,3.68375,-5.32875,-14.368001,-6.56,12.432,concentric,3,3.0,33420.0,403431.0,364261.0,403431.0,367699.0
2026-04-07 17:38:41.516800,106635,591929930,591931304,0.81984,-0.402112,-0.236192,14.77875,2.87875,-5.97625,-14.112,-7.344,13.384001,concentric,3,3.0,33420.0,403431.0,364261.0,403431.0,367699.0
2026-04-07 17:38:41.545406,106636,591938891,591940043,0.81984,-0.437248,-0.232288,14.25375,2.63375,-5.845,-14.176001,-6.984,12.592001,concentric,3,3.0,33420.0,403431.0,364261.0,403431.0,367699.0
2026-04-07 17:38:41.572428,106646,591948020,591949030,0.81984,-0.437248,-0.232288,12.88875,1.89875,-6.7025,-14.176001,-6.984,12.592001,concentric,3,3.0,33494.0,403431.0,364231.0,403431.0,367809.0
2026-04-07 17:38:41.573923,106647,591962544,591963932,0.798368,-0.42944,-0.232288,12.29375,1.785,-6.65,-14.256001,-7.16,13.136001,concentric,3,3.0,33494.0,403431.0,364231.0,403431.0,367809.0
2026-04-07 17:38:41.578173,106648,591971493,591972687,0.798368,-0.42944,-0.232288,11.935,1.995,-6.79,-14.256001,-7.16,13.136001,concentric,3,3.0,33494.0,403431.0,364231.0,403431.0,367809.0
2026-04-07 17:38:41.579982,106649,591980428,591981395,0.804224,-0.435296,-0.218624,11.96125,1.39125,-6.43125,-14.360001,-7.304,14.336,concentric,3,3.0,33494.0,403431.0,364231.0,403431.0,367809.0
2026-04-07 17:38:41.582093,106650,591994941,591996304,0.804224,-0.435296,-0.218624,10.8675,1.3825,-6.9125,-14.360001,-7.304,14.336,concentric,3,3.0,33494.0,403431.0,364231.0,403431.0,367809.0
2026-04-07 17:38:41.612537,106651,592003886,592005030,0.808128,-0.423584,-0.23424,10.57,0.945,-5.9325,-14.504001,-7.064,15.072001,concentric,3,3.0,33494.0,403431.0,364231.0,403431.0,367809.0
2026-04-07 17:38:41.614817,106652,592012805,592013724,0.808128,-0.423584,-0.23424,8.61,0.51625,-5.74875,-14.504001,-7.064,15.072001,concentric,3,3.0,33494.0,403431.0,364231.0,403431.0,367809.0
2026-04-07 17:38:41.619271,106653,592021741,592022438,0.823744,-0.413824,-0.23424,6.65875,0.35875,-5.3725,-13.76,-6.832,12.536,concentric,3,3.0,33494.0,403431.0,364231.0,403431.0,367809.0
2026-04-07 17:38:41.623467,106654,592036621,592037364,0.815936,-0.425536,-0.238144,4.8475,-0.63875,-5.11875,-13.76,-7.176,13.912001,concentric,3,3.0,33494.0,403431.0,364231.0,403431.0,367809.0
2026-04-07 17:38:41.689903,106665,592046102,592048372,0.815936,-0.425536,-0.238144,5.1275,-0.65625,-5.52125,-15.032001,-7.176,13.912001,concentric,3,3.0,33386.0,403431.0,363383.0,403431.0,366841.0
2026-04-07 17:38:41.691445,106666,592055227,592057176,0.815936,-0.425536,-0.238144,4.9,-1.12,-5.1975,-15.032001,-7.176,13.912001,concentric,3,3.0,33386.0,403431.0,363383.0,403431.0,366841.0
2026-04-07 17:38:41.695712,106667,592064174,592065923,0.821792,-0.437248,-0.236192,4.33125,-1.60125,-5.425,-14.608001,-6.656,12.776001,concentric,3,3.0,33386.0,403431.0,363383.0,403431.0,366841.0
2026-04-07 17:38:41.698645,106668,592078716,592080817,0.827648,-0.417728,-0.244,3.87625,-1.6275,-6.0375,-14.144001,-6.464,12.432,concentric,3,3.0,33386.0,403431.0,363383.0,403431.0,366841.0
2026-04-07 17:38:41.708232,106669,592087681,592089502,0.827648,-0.417728,-0.244,3.43875,-1.785,-5.32875,-14.144001,-6.464,12.432,concentric,3,3.0,33386.0,403431.0,363383.0,403431.0,366841.0
2026-04-07 17:38:41.710074,106670,592096658,592098258,0.812032,-0.431392,-0.26352,2.1525,-1.65375,-4.6375,-14.144001,-6.464,12.432,concentric,3,3.0,33386.0,403431.0,363383.0,403431.0,366841.0
2026-04-07 17:38:41.711550,106671,592111239,592113311,0.825696,-0.431392,-0.26352,1.1725,-1.5575,-3.8325,-14.128,-6.744,13.480001,concentric,3,3.0,33386.0,403431.0,363383.0,403431.0,366841.0
2026-04-07 17:38:41.715693,106672,592120201,592122067,0.827648,-0.435296,-0.255712,1.19,-1.32125,-3.325,-14.392001,-6.184001,12.512001,concentric,3,3.0,33386.0,403431.0,363383.0,403431.0,366841.0
2026-04-07 17:38:41.717277,106673,592129112,592130769,0.827648,-0.435296,-0.255712,1.54,-0.9275,-2.8525,-14.392001,-6.184001,12.512001,concentric,3,3.0,33386.0,403431.0,363383.0,403431.0,366841.0
2026-04-07 17:38:41.771204,106683,592143624,592145906,0.81984,-0.423584,-0.265472,1.40875,-0.4725,-2.51125,-13.856001,-6.648,14.272,concentric,3,3.0,33392.0,403431.0,363505.0,403431.0,366977.0
2026-04-07 17:38:41.772782,106684,592152557,592154632,0.81984,-0.423584,-0.265472,0.76125,0.0175,-2.03875,-13.856001,-6.648,14.272,concentric,3,3.0,33392.0,403431.0,363505.0,403431.0,366977.0
2026-04-07 17:38:41.776927,106685,592161478,592163351,0.81984,-0.413824,-0.271328,0.39375,0.4025,-2.09125,-13.352,-6.72,12.096001,concentric,3,3.0,33392.0,403431.0,363505.0,403431.0,366977.0
2026-04-07 17:38:41.778650,106686,592175992,592178291,0.81984,-0.413824,-0.271328,-0.30625,0.175,-2.47625,-13.352,-6.72,12.096001,concentric,3,3.0,33392.0,403431.0,363505.0,403431.0,366977.0
2026-04-07 17:38:41.780307,106687,592184931,592186985,0.808128,-0.417728,-0.281088,-1.30375,0.76125,-2.45875,-15.352001,-7.024,14.120001,concentric,3,3.0,33392.0,403431.0,363505.0,403431.0,366977.0
2026-04-07 17:38:41.784269,106688,592193876,592195704,0.808128,-0.417728,-0.281088,-2.07375,1.25125,-1.96875,-15.352001,-7.024,14.120001,concentric,3,3.0,33392.0,403431.0,363505.0,403431.0,366977.0
2026-04-07 17:38:41.789418,106689,592202885,592204471,0.798368,-0.417728,-0.28304,-2.91375,1.75,-1.7325,-14.632001,-7.168,14.624001,concentric,3,3.0,33392.0,403431.0,363505.0,403431.0,366977.0
2026-04-07 17:38:41.817964,106690,592217498,592219372,0.778848,-0.415776,-0.27328,-2.4325,2.7475,-0.97125,-14.432001,-6.28,12.504001,concentric,3,3.0,33392.0,403431.0,363505.0,403431.0,366977.0
2026-04-07 17:38:41.822359,106691,592226489,592228058,0.778848,-0.415776,-0.27328,-2.03875,3.115,0.175,-14.432001,-6.28,12.504001,concentric,3,3.0,33392.0,403431.0,363505.0,403431.0,366977.0
2026-04-07 17:38:41.825064,106692,592235373,592236716,0.778848,-0.415776,-0.27328,-1.05,3.52625,0.14875,-14.432001,-6.28,12.504001,concentric,3,3.0,33392.0,403431.0,363505.0,403431.0,366977.0
2026-04-07 17:38:41.852734,106702,592250210,592251743,0.772992,-0.3904,-0.275232,-0.5425,3.15,-0.21875,-14.264001,-6.264,12.456,concentric,3,3.0,33350.0,403431.0,363365.0,403431.0,366754.0
2026-04-07 17:38:41.856907,106703,592259181,592260432,0.788608,-0.40992,-0.284992,-0.74375,2.91375,-0.91875,-14.840001,-6.544,13.552001,concentric,3,3.0,33350.0,403431.0,363365.0,403431.0,366754.0
2026-04-07 17:38:41.858554,106704,592268135,592269220,0.788608,-0.40992,-0.284992,-1.40875,2.905,-1.3475,-14.840001,-6.544,13.552001,concentric,3,3.0,33350.0,403431.0,363365.0,403431.0,366754.0
2026-04-07 17:38:41.888861,106705,592282667,592284120,0.798368,-0.417728,-0.290848,-1.51375,2.0825,-1.1375,-14.696001,-7.088,13.912001,concentric,3,3.0,33350.0,403431.0,363365.0,403431.0,366754.0
2026-04-07 17:38:41.891146,106706,592291578,592292812,0.798368,-0.417728,-0.290848,-1.35625,1.995,-1.68875,-14.696001,-7.088,13.912001,concentric,3,3.0,33350.0,403431.0,363365.0,403431.0,366754.0
2026-04-07 17:38:41.895834,106707,592300461,592301534,0.80032,-0.42944,-0.271328,-1.6625,1.6975,-1.88125,-13.68,-6.152,12.072001,concentric,3,3.0,33350.0,403431.0,363365.0,403431.0,366754.0
2026-04-07 17:38:41.898200,106708,592309398,592310224,0.80032,-0.42944,-0.271328,-1.40875,1.9775,-0.53375,-13.68,-6.152,12.072001,concentric,3,3.0,33350.0,403431.0,363365.0,403431.0,366754.0
2026-04-07 17:38:41.926610,106709,592323921,592325156,0.827648,-0.437248,-0.296704,0.035,1.68875,-0.67375,-14.376,-6.072001,13.104001,concentric,3,3.0,33350.0,403431.0,363365.0,403431.0,366754.0
2026-04-07 17:38:41.931099,106710,592332850,592333893,0.827648,-0.437248,-0.296704,0.6125,0.98,-0.91,-14.376,-6.072001,13.104001,concentric,3,3.0,33350.0,403431.0,363365.0,403431.0,366754.0
2026-04-07 17:38:41.932682,106711,592341785,592342576,0.860832,-0.42944,-0.296704,1.1375,0.63,-1.4875,-14.232,-6.16,12.360001,concentric,3,3.0,33350.0,403431.0,363365.0,403431.0,366754.0
2026-04-07 17:38:42.008966,106722,592356441,592357506,0.860832,-0.42944,-0.296704,0.91875,0.44625,-2.31875,-14.232,-6.16,12.360001,concentric,3,3.0,33443.0,403431.0,363816.0,403431.0,367309.0
2026-04-07 17:38:42.013308,106723,592365398,592366269,0.866688,-0.456768,-0.306464,-0.2275,0.42875,-2.40625,-14.488001,-6.544,15.416,concentric,3,3.0,33443.0,403431.0,363816.0,403431.0,367309.0
2026-04-07 17:38:42.017286,106724,592374385,592374991,0.866688,-0.456768,-0.306464,-0.56875,0.25375,-2.37125,-14.488001,-6.544,15.416,concentric,3,3.0,33443.0,403431.0,363816.0,403431.0,367309.0
2026-04-07 17:38:42.018786,106725,592389162,592389889,0.8784,-0.462624,-0.316224,0.04375,0.77875,-1.95125,-13.816001,-6.568,12.280001,concentric,3,3.0,33443.0,403431.0,363816.0,403431.0,367309.0
2026-04-07 17:38:42.023171,106726,592398574,592400700,0.8784,-0.454816,-0.31232,0.95375,1.12875,-1.61875,-14.512001,-6.888001,11.832001,concentric,3,3.0,33443.0,403431.0,363816.0,403431.0,367309.0
2026-04-07 17:38:42.024878,106727,592407504,592409391,0.8784,-0.454816,-0.31232,1.96875,1.715,-1.23375,-14.512001,-6.888001,11.832001,concentric,3,3.0,33443.0,403431.0,363816.0,403431.0,367309.0
2026-04-07 17:38:42.026411,106728,592416446,592418167,0.8784,-0.454816,-0.31232,2.59875,2.16125,-1.51375,-14.512001,-6.888001,11.832001,concentric,3,3.0,33443.0,403431.0,363816.0,403431.0,367309.0
2026-04-07 17:38:42.030905,106729,592430980,592433175,0.870592,-0.450912,-0.300608,4.0425,1.88125,-1.19875,-14.072001,-6.8,11.256001,concentric,3,3.0,33443.0,403431.0,363816.0,403431.0,367309.0
2026-04-07 17:38:42.032571,106730,592439897,592441877,0.866688,-0.454816,-0.296704,5.285,2.8525,-0.6125,-14.040001,-6.2,13.472001,concentric,3,3.0,33443.0,403431.0,363816.0,403431.0,367309.0
2026-04-07 17:38:42.057384,106740,592449366,592450645,0.866688,-0.454816,-0.296704,6.74625,3.70125,0.1225,-14.040001,-6.2,13.472001,concentric,3,3.0,33408.0,403431.0,363982.0,403431.0,367299.0
2026-04-07 17:38:42.058926,106741,592458404,592459411,0.845216,-0.431392,-0.277184,7.7525,5.1975,1.37375,-14.336,-6.464,12.000001,concentric,3,3.0,33408.0,403431.0,363982.0,403431.0,367299.0
2026-04-07 17:38:42.062237,106742,592473109,592474354,0.845216,-0.431392,-0.277184,7.70875,5.95875,2.51125,-14.336,-6.464,12.000001,concentric,3,3.0,33408.0,403431.0,363982.0,403431.0,367299.0
2026-04-07 17:38:42.069389,106743,592482089,592483108,0.833504,-0.450912,-0.284992,7.46375,6.72875,2.68625,-14.056001,-6.424,14.144001,concentric,3,3.0,33408.0,403431.0,363982.0,403431.0,367299.0
2026-04-07 17:38:42.097781,106744,592491041,592491838,0.833504,-0.450912,-0.284992,7.63,8.30375,3.22875,-14.056001,-6.424,14.144001,concentric,3,3.0,33408.0,403431.0,363982.0,403431.0,367299.0
2026-04-07 17:38:42.102380,106745,592505532,592506772,0.821792,-0.431392,-0.269376,7.35875,9.24875,4.29625,-13.208,-6.224001,14.800001,eccentric,3,3.0,33408.0,403431.0,363982.0,403431.0,367299.0
2026-04-07 17:38:42.103842,106746,592514447,592515513,0.821792,-0.431392,-0.269376,7.02625,10.36,4.68125,-13.208,-6.224001,14.800001,eccentric,3,3.0,33408.0,403431.0,363982.0,403431.0,367299.0
2026-04-07 17:38:42.112059,106747,592523387,592524225,0.802272,-0.435296,-0.25376,6.3,10.43875,4.62,-13.696001,-5.68,13.128,eccentric,3,3.0,33408.0,403431.0,363982.0,403431.0,367299.0
2026-04-07 17:38:42.139161,106748,592537884,592539098,0.802272,-0.435296,-0.259616,6.51,11.31375,4.48875,-13.696001,-5.68,13.128,eccentric,3,3.0,33408.0,403431.0,363982.0,403431.0,367299.0
2026-04-07 17:38:42.166056,106758,592546814,592548081,0.792512,-0.433344,-0.259616,5.95875,12.3725,5.1975,-13.52,-6.000001,12.912001,eccentric,3,3.0,33243.0,403431.0,363216.0,403431.0,366094.0
2026-04-07 17:38:42.167660,106759,592555721,592556820,0.792512,-0.433344,-0.259616,5.13625,12.87125,5.39,-13.52,-6.000001,12.912001,eccentric,3,3.0,33243.0,403431.0,363216.0,403431.0,366094.0
2026-04-07 17:38:42.171909,106760,592570227,592571734,0.778848,-0.40016,-0.261568,4.2875,13.57125,5.95,-13.448001,-5.464,12.696001,eccentric,3,3.0,33243.0,403431.0,363216.0,403431.0,366094.0
2026-04-07 17:38:42.173628,106761,592579237,592580590,0.776896,-0.417728,-0.244,3.75375,14.0525,6.09,-13.568001,-5.4,12.024,eccentric,3,3.0,33243.0,403431.0,363216.0,403431.0,366094.0
2026-04-07 17:38:42.175166,106762,592588150,592589289,0.776896,-0.417728,-0.244,3.22,14.3325,4.73375,-13.568001,-5.4,12.024,eccentric,3,3.0,33243.0,403431.0,363216.0,403431.0,366094.0
2026-04-07 17:38:42.183070,106763,592597108,592598035,0.776896,-0.417728,-0.244,3.24625,14.542501,4.82125,-13.568001,-5.4,12.024,eccentric,3,3.0,33243.0,403431.0,363216.0,403431.0,366094.0
2026-04-07 17:38:42.211636,106764,592611602,592612964,0.769088,-0.41968,-0.242048,3.35125,14.8925,4.41,-13.184001,-5.296001,13.032001,eccentric,3,3.0,33243.0,403431.0,363216.0,403431.0,366094.0
2026-04-07 17:38:42.216146,106765,592620502,592621660,0.77104,-0.4392,-0.25376,2.05625,14.665,3.5175,-13.344001,-5.752,13.216001,eccentric,3,3.0,33243.0,403431.0,363216.0,403431.0,366094.0
2026-04-07 17:38:42.218469,106766,592629408,592630347,0.77104,-0.4392,-0.25376,0.70875,13.67625,2.72125,-13.344001,-5.752,13.216001,eccentric,3,3.0,33243.0,403431.0,363216.0,403431.0,366094.0
2026-04-07 17:38:42.272645,106767,592643931,592645252,0.772992,-0.42944,-0.242048,0.5425,13.4575,1.49625,-12.8,-5.752,13.224001,eccentric,3,3.0,33243.0,403431.0,363216.0,403431.0,366094.0
2026-04-07 17:38:42.301560,106778,592652960,592653997,0.772992,-0.42944,-0.242048,1.81125,13.27375,1.21625,-12.8,-5.752,13.224001,eccentric,3,3.0,32893.0,403205.0,361412.0,403431.0,363845.0
2026-04-07 17:38:42.302245,106779,592661914,592662705,0.788608,-0.466528,-0.245952,1.47875,12.775,-0.18375,-13.232,-5.808,13.360001,eccentric,3,3.0,32893.0,403205.0,361412.0,403431.0,363845.0
2026-04-07 17:38:42.306073,106780,592676382,592677584,0.788608,-0.466528,-0.245952,0.07875,12.565,-1.47875,-13.232,-5.808,13.360001,eccentric,3,3.0,32893.0,403205.0,361412.0,403431.0,363845.0
2026-04-07 17:38:42.307625,106781,592685244,592686305,0.77104,-0.460672,-0.23424,0.69125,12.6,-1.77625,-12.728001,-5.352,13.608001,eccentric,3,3.0,32893.0,403205.0,361412.0,403431.0,363845.0
2026-04-07 17:38:42.311930,106782,592694159,592694988,0.77104,-0.460672,-0.23424,2.24,11.76,-3.255,-12.728001,-5.352,13.608001,eccentric,3,3.0,32893.0,403205.0,361412.0,403431.0,363845.0
2026-04-07 17:38:42.313635,106783,592708708,592709929,0.792512,-0.443104,-0.247904,1.925,11.03375,-5.03125,-13.696001,-5.992,15.232,eccentric,3,3.0,32893.0,403205.0,361412.0,403431.0,363845.0
2026-04-07 17:38:42.316246,106784,592717645,592718732,0.792512,-0.443104,-0.247904,0.58625,11.480001,-6.37875,-13.696001,-5.992,15.232,eccentric,3,3.0,32893.0,403205.0,361412.0,403431.0,363845.0
2026-04-07 17:38:42.317755,106785,592726569,592727442,0.812032,-0.470432,-0.26352,0.81375,11.7425,-6.615,-13.408001,-6.016,15.104001,eccentric,3,3.0,32893.0,403205.0,361412.0,403431.0,363845.0
2026-04-07 17:38:42.321774,106786,592735510,592736205,0.812032,-0.470432,-0.26352,1.07625,11.165,-7.6125,-13.408001,-6.016,15.104001,eccentric,3,3.0,32893.0,403205.0,361412.0,403431.0,363845.0
2026-04-07 17:38:42.373872,106796,592750958,592751352,0.8296,-0.441152,-0.255712,1.925,10.4125,-9.14375,-13.376,-5.616,15.376,eccentric,3,3.0,32868.0,402988.0,360808.0,403431.0,363319.0
2026-04-07 17:38:42.378232,106797,592760307,592762320,0.862784,-0.462624,-0.259616,4.52375,9.87875,-12.3025,-12.928,-5.776001,13.504001,eccentric,3,3.0,32868.0,402988.0,360808.0,403431.0,363319.0
2026-04-07 17:38:42.379907,106798,592769201,592771024,0.862784,-0.462624,-0.259616,5.74,9.3625,-15.67125,-12.928,-5.776001,13.504001,eccentric,3,3.0,32868.0,402988.0,360808.0,403431.0,363319.0
2026-04-07 17:38:42.381491,106799,592778235,592779743,0.862784,-0.462624,-0.259616,4.90875,8.28625,-18.08625,-12.928,-5.776001,13.504001,eccentric,3,3.0,32868.0,402988.0,360808.0,403431.0,363319.0
2026-04-07 17:38:42.388252,106800,592792768,592794656,0.854976,-0.493856,-0.244,6.57125,9.17,-19.03125,-12.792001,-6.08,14.896001,eccentric,3,3.0,32868.0,402988.0,360808.0,403431.0,363319.0
2026-04-07 17:38:42.390661,106801,592801723,592803375,0.856928,-0.474336,-0.216672,8.2425,9.79125,-19.10125,-12.76,-6.016,14.040001,eccentric,3,3.0,32868.0,402988.0,360808.0,403431.0,363319.0
2026-04-07 17:38:42.421209,106802,592810663,592812095,0.856928,-0.474336,-0.216672,8.37375,10.57875,-20.09,-12.76,-6.016,14.040001,eccentric,3,3.0,32868.0,402988.0,360808.0,403431.0,363319.0
2026-04-07 17:38:42.425668,106803,592825119,592827001,0.8296,-0.447008,-0.197152,8.0325,11.48875,-20.1425,-12.56,-6.336,14.000001,eccentric,3,3.0,32868.0,402988.0,360808.0,403431.0,363319.0
2026-04-07 17:38:42.427388,106804,592834026,592835722,0.8296,-0.447008,-0.197152,8.07625,12.87125,-21.0,-12.56,-6.336,14.000001,eccentric,3,3.0,32868.0,402988.0,360808.0,403431.0,363319.0
2026-04-07 17:38:42.429442,106805,592842958,592844446,0.823744,-0.42944,-0.191296,9.40625,13.1075,-21.91,-12.672001,-6.288,14.128,eccentric,3,3.0,32868.0,402988.0,360808.0,403431.0,363319.0
2026-04-07 17:38:42.459981,106815,592858146,592859470,0.823744,-0.42944,-0.191296,10.386251,14.2275,-22.741251,-12.672001,-6.288,14.128,eccentric,3,3.0,32686.0,402280.0,359602.0,403431.0,361732.0
2026-04-07 17:38:42.461723,106816,592867093,592868171,0.80032,-0.423584,-0.167872,10.045,15.12,-22.63625,-13.288001,-7.456,17.432001,eccentric,3,3.0,32686.0,402280.0,359602.0,403431.0,361732.0
2026-04-07 17:38:42.465875,106817,592875992,592876915,0.80032,-0.423584,-0.167872,9.6075,16.1175,-22.58375,-13.288001,-7.456,17.432001,eccentric,3,3.0,32686.0,402280.0,359602.0,403431.0,361732.0
2026-04-07 17:38:42.493222,106818,592884918,592885644,0.778848,-0.417728,-0.183488,10.465,17.73625,-21.79625,-11.904,-6.752,14.360001,eccentric,3,3.0,32686.0,402280.0,359602.0,403431.0,361732.0
2026-04-07 17:38:42.494889,106819,592899782,592900534,0.747616,-0.359168,-0.160064,10.54375,18.89125,-22.14625,-11.904,-6.736001,12.544001,eccentric,3,3.0,32686.0,402280.0,359602.0,403431.0,361732.0
2026-04-07 17:38:42.497262,106820,592909125,592911292,0.747616,-0.359168,-0.160064,12.1625,19.85375,-22.741251,-12.528001,-6.736001,12.544001,eccentric,3,3.0,32686.0,402280.0,359602.0,403431.0,361732.0
2026-04-07 17:38:42.530052,106821,592918158,592920055,0.747616,-0.359168,-0.160064,13.1775,20.23875,-22.88125,-12.528001,-6.736001,12.544001,eccentric,3,3.0,32686.0,402280.0,359602.0,403431.0,361732.0
2026-04-07 17:38:42.534457,106822,592927080,592928763,0.749568,-0.357216,-0.1464,10.29,20.69375,-23.52,-12.656,-7.112001,14.656001,eccentric,3,3.0,32686.0,402280.0,359602.0,403431.0,361732.0
2026-04-07 17:38:42.537456,106823,592941570,592943642,0.730048,-0.363072,-0.142496,7.44625,21.1225,-24.0275,-12.736001,-7.544,15.168001,eccentric,3,3.0,32686.0,402280.0,359602.0,403431.0,361732.0
2026-04-07 17:38:42.601942,106834,592951148,592952638,0.730048,-0.363072,-0.142496,5.78375,21.63,-23.37125,-12.736001,-7.544,15.168001,eccentric,3,3.0,32013.0,399385.0,355827.0,403431.0,357187.0
2026-04-07 17:38:42.603647,106835,592960236,592961396,0.708576,-0.333792,-0.119072,5.5125,21.0175,-23.905,-12.736001,-7.960001,17.728,eccentric,3,3.0,32013.0,399385.0,355827.0,403431.0,357187.0
2026-04-07 17:38:42.605293,106836,592974718,592976300,0.708576,-0.333792,-0.119072,5.215,20.67625,-23.4675,-12.880001,-7.960001,17.728,eccentric,3,3.0,32013.0,399385.0,355827.0,403431.0,357187.0
2026-04-07 17:38:42.609437,106837,592983685,592985010,0.71248,-0.353312,-0.130784,3.70125,20.08125,-22.7325,-11.776001,-7.28,15.480001,eccentric,3,3.0,32013.0,399385.0,355827.0,403431.0,357187.0
2026-04-07 17:38:42.611794,106838,592992612,592993702,0.71248,-0.353312,-0.130784,1.60125,19.04875,-22.19875,-11.776001,-7.28,15.480001,eccentric,3,3.0,32013.0,399385.0,355827.0,403431.0,357187.0
2026-04-07 17:38:42.618182,106839,593007143,593008618,0.732,-0.337696,-0.122976,-0.1925,18.24375,-22.33875,-12.528001,-7.56,17.168001,eccentric,3,3.0,32013.0,399385.0,355827.0,403431.0,357187.0
2026-04-07 17:38:42.619766,106840,593016082,593017327,0.732,-0.337696,-0.122976,0.63,17.8675,-21.88375,-12.528001,-7.56,17.168001,eccentric,3,3.0,32013.0,399385.0,355827.0,403431.0,357187.0
2026-04-07 17:38:42.629452,106841,593025109,593026033,0.74176,-0.357216,-0.128832,-0.60375,17.92,-22.40875,-12.408001,-8.432,17.136002,eccentric,3,3.0,32013.0,399385.0,355827.0,403431.0,357187.0
2026-04-07 17:38:42.631083,106842,593034688,593035522,0.74176,-0.357216,-0.128832,-1.4875,18.2,-21.42,-12.408001,-8.432,17.136002,eccentric,3,3.0,32013.0,399385.0,355827.0,403431.0,357187.0
2026-04-07 17:38:42.660675,106852,593049216,593050873,0.745664,-0.339648,-0.109312,-1.0325,17.64,-20.2125,-12.896001,-8.696,17.528002,eccentric,3,3.0,31637.0,396685.0,353506.0,403431.0,354635.0
2026-04-07 17:38:42.662422,106853,593058201,593059627,0.745664,-0.339648,-0.109312,-1.63625,17.8325,-19.6525,-12.896001,-8.696,17.528002,eccentric,3,3.0,31637.0,396685.0,353506.0,403431.0,354635.0
2026-04-07 17:38:42.664264,106854,593067147,593068400,0.776896,-0.327936,-0.119072,-3.815,17.98125,-19.32875,-12.552001,-9.088,18.032001,eccentric,3,3.0,31637.0,396685.0,353506.0,403431.0,354635.0
2026-04-07 17:38:42.669417,106855,593081614,593083337,0.806176,-0.35136,-0.124928,-7.25375,18.13875,-20.2125,-12.544001,-9.400001,17.552,eccentric,3,3.0,31637.0,396685.0,353506.0,403431.0,354635.0
2026-04-07 17:38:42.677777,106856,593090552,593092063,0.806176,-0.35136,-0.124928,-9.68625,18.82125,-21.23625,-12.544001,-9.400001,17.552,eccentric,3,3.0,31637.0,396685.0,353506.0,403431.0,354635.0
2026-04-07 17:38:42.686325,106857,593099481,593100809,0.806176,-0.35136,-0.124928,-9.87875,18.9175,-21.83125,-12.544001,-9.400001,17.552,eccentric,3,3.0,31637.0,396685.0,353506.0,403431.0,354635.0
2026-04-07 17:38:42.714111,106858,593108455,593109480,0.806176,-0.357216,-0.148352,-10.54375,18.5325,-22.26875,-12.432,-9.488001,17.048,eccentric,3,3.0,31637.0,396685.0,353506.0,403431.0,354635.0
2026-04-07 17:38:42.718595,106859,593123040,593124390,0.83936,-0.372832,-0.142496,-11.20875,18.0425,-21.647501,-12.328001,-8.952001,16.664001,eccentric,3,3.0,31637.0,396685.0,353506.0,403431.0,354635.0
2026-04-07 17:38:42.720177,106860,593132066,593133082,0.83936,-0.372832,-0.142496,-11.97,18.01625,-21.58625,-12.328001,-8.952001,16.664001,eccentric,3,3.0,31637.0,396685.0,353506.0,403431.0,354635.0
2026-04-07 17:38:42.728026,106861,593141016,593141770,0.870592,-0.316224,-0.109312,-12.39,19.075,-22.33,-12.328001,-9.504001,16.232,eccentric,3,3.0,31637.0,396685.0,353506.0,403431.0,354635.0
2026-04-07 17:38:42.787502,106871,593156021,593156837,0.870592,-0.316224,-0.109312,-12.67,20.85125,-24.325,-12.328001,-9.504001,16.232,eccentric,3,3.0,31318.0,394422.0,351670.0,403431.0,352775.0
2026-04-07 17:38:42.789077,106872,593165489,593167640,0.876448,-0.343552,-0.121024,-13.16,22.00625,-25.43625,-11.512,-9.768001,16.688002,eccentric,3,3.0,31318.0,394422.0,351670.0,403431.0,352775.0
2026-04-07 17:38:42.793170,106873,593174554,593176340,0.876448,-0.343552,-0.121024,-16.178751,22.925,-28.175,-11.512,-9.768001,16.688002,eccentric,3,3.0,31318.0,394422.0,351670.0,403431.0,352775.0
2026-04-07 17:38:42.794831,106874,593183531,593185050,0.884256,-0.335744,-0.103456,-17.045,23.65125,-29.98625,-12.416,-10.360001,17.416,eccentric,3,3.0,31318.0,394422.0,351670.0,403431.0,352775.0
2026-04-07 17:38:42.796477,106875,593198078,593199968,0.884256,-0.335744,-0.103456,-17.38625,24.43875,-31.96375,-12.416,-10.360001,17.416,eccentric,3,3.0,31318.0,394422.0,351670.0,403431.0,352775.0
2026-04-07 17:38:42.800680,106876,593207051,593208777,0.890112,-0.279136,-0.11712,-16.1525,25.865,-34.51875,-12.928,-11.264001,20.304,eccentric,3,3.0,31318.0,394422.0,351670.0,403431.0,352775.0
2026-04-07 17:38:42.802256,106877,593216042,593217483,0.890112,-0.279136,-0.11712,-15.085,26.9325,-36.16375,-12.928,-11.264001,20.304,eccentric,3,3.0,31318.0,394422.0,351670.0,403431.0,352775.0
2026-04-07 17:38:42.832719,106878,593230555,593232400,0.8784,-0.28304,-0.122976,-15.89875,28.1225,-38.08,-13.056001,-11.264001,19.424002,eccentric,3,3.0,31318.0,394422.0,351670.0,403431.0,352775.0
2026-04-07 17:38:42.835051,106879,593239496,593241115,0.8784,-0.28304,-0.122976,-16.7475,28.62125,-39.26125,-13.056001,-11.264001,19.424002,eccentric,3,3.0,31318.0,394422.0,351670.0,403431.0,352775.0
2026-04-07 17:38:42.873368,106880,593248524,593249792,0.856928,-0.298656,-0.111264,-16.49375,28.805,-39.69875,-12.248,-11.568001,17.696001,eccentric,3,3.0,31318.0,394422.0,351670.0,403431.0,352775.0
2026-04-07 17:38:42.904470,106891,593257539,593258575,0.856928,-0.298656,-0.111264,-15.636251,28.192501,-39.795002,-12.248,-11.568001,17.696001,eccentric,3,3.0,30907.0,391430.0,349267.0,403431.0,350313.0
2026-04-07 17:38:42.906160,106892,593272065,593273625,0.833504,-0.251808,-0.101504,-14.14,27.81625,-38.89375,-12.072001,-11.848001,18.04,eccentric,3,3.0,30907.0,391430.0,349267.0,403431.0,350313.0
2026-04-07 17:38:42.907680,106893,593281023,593282390,0.817888,-0.181536,-0.06832,-14.455,28.0,-38.57875,-12.072001,-11.848001,18.04,eccentric,3,3.0,30907.0,391430.0,349267.0,403431.0,350313.0
2026-04-07 17:38:42.912174,106894,593289950,593291069,0.817888,-0.181536,-0.06832,-14.48125,28.32375,-41.23,-12.104001,-12.144001,17.192001,eccentric,3,3.0,30907.0,391430.0,349267.0,403431.0,350313.0
2026-04-07 17:38:42.913802,106895,593304485,593305999,0.796416,-0.232288,-0.103456,-13.4225,28.49,-42.42875,-12.040001,-13.024,20.0,eccentric,3,3.0,30907.0,391430.0,349267.0,403431.0,350313.0
2026-04-07 17:38:42.916184,106896,593313456,593314737,0.796416,-0.232288,-0.103456,-13.6325,28.315,-43.63625,-12.040001,-13.024,20.0,eccentric,3,3.0,30907.0,391430.0,349267.0,403431.0,350313.0
2026-04-07 17:38:42.918520,106897,593322419,593323480,0.772992,-0.261568,-0.07808,-17.68375,27.991251,-44.49375,-11.384001,-12.976001,18.264,eccentric,3,3.0,30907.0,391430.0,349267.0,403431.0,350313.0
2026-04-07 17:38:42.924251,106898,593336961,593338407,0.772992,-0.261568,-0.07808,-16.5025,27.3875,-42.35,-11.384001,-12.976001,18.264,eccentric,3,3.0,30907.0,391430.0,349267.0,403431.0,350313.0
2026-04-07 17:38:42.955023,106899,593345979,593347118,0.720288,-0.138592,-0.050752,-14.28,27.37,-41.65875,-12.240001,-13.76,20.576,eccentric,3,3.0,30907.0,391430.0,349267.0,403431.0,350313.0
2026-04-07 17:38:42.988575,106909,593355655,593355987,0.720288,-0.138592,-0.050752,-14.1925,27.69375,-40.94125,-12.240001,-13.76,20.576,eccentric,3,3.0,30019.0,384806.0,343963.0,401927.0,345272.0
2026-04-07 17:38:42.991276,106910,593364859,593366816,0.708576,-0.201056,-0.06832,-15.295,27.265,-39.19125,-12.064,-14.232,19.216002,eccentric,3,3.0,30019.0,384806.0,343963.0,401927.0,345272.0
2026-04-07 17:38:42.993827,106911,593379354,593379723,0.708576,-0.201056,-0.06832,-19.215,25.97,-39.1825,-12.064,-14.232,19.216002,eccentric,3,3.0,30019.0,384806.0,343963.0,401927.0,345272.0
2026-04-07 17:38:42.996120,106912,593388902,593390525,0.69296,-0.261568,-0.08784,-18.7075,24.26375,-37.40625,-12.232,-14.424001,20.400002,eccentric,3,3.0,30019.0,384806.0,343963.0,401927.0,345272.0
2026-04-07 17:38:42.997664,106913,593397866,593399209,0.69296,-0.261568,-0.08784,-15.8375,21.28,-36.47,-12.232,-14.424001,20.400002,eccentric,3,3.0,30019.0,384806.0,343963.0,401927.0,345272.0
2026-04-07 17:38:43.001774,106914,593406813,593407875,0.66368,-0.167872,-0.052704,-12.04,19.3725,-35.4725,-12.352,-14.984001,21.320002,eccentric,3,3.0,30019.0,384806.0,343963.0,401927.0,345272.0
2026-04-07 17:38:43.008022,106915,593421329,593422866,0.66368,-0.167872,-0.066368,-8.085,17.43,-34.27375,-12.352,-14.984001,21.320002,eccentric,3,3.0,30019.0,384806.0,343963.0,401927.0,345272.0
2026-04-07 17:38:43.047576,106916,593430285,593431567,0.661728,-0.201056,-0.066368,-10.5875,14.30625,-32.10375,-12.008,-15.072001,19.384,eccentric,3,3.0,30019.0,384806.0,343963.0,401927.0,345272.0
2026-04-07 17:38:43.052004,106917,593439212,593440308,0.661728,-0.201056,-0.066368,-12.5825,10.955,-28.6825,-12.008,-15.072001,19.384,eccentric,3,3.0,30019.0,384806.0,343963.0,401927.0,345272.0
2026-04-07 17:38:43.076947,106927,593453904,593455268,0.708576,-0.257664,-0.099552,-10.43875,7.93625,-26.775,-10.792001,-14.544001,19.272001,eccentric,3,3.0,29475.0,380501.0,340485.0,398164.0,342084.0
2026-04-07 17:38:43.078638,106928,593462951,593463994,0.733952,-0.167872,-0.042944,-5.73125,5.775,-24.89375,-11.096001,-14.952001,20.512001,eccentric,3,3.0,29475.0,380501.0,340485.0,398164.0,342084.0
2026-04-07 17:38:43.080193,106929,593471894,593472753,0.733952,-0.167872,-0.042944,-1.3475,6.23,-22.303751,-11.096001,-14.952001,20.512001,eccentric,3,3.0,29475.0,380501.0,340485.0,398164.0,342084.0
2026-04-07 17:38:43.084393,106930,593486408,593487714,0.784704,-0.22448,-0.07808,-3.1325,6.01125,-20.1425,-11.920001,-16.248001,22.44,eccentric,3,3.0,29475.0,380501.0,340485.0,398164.0,342084.0
2026-04-07 17:38:43.086357,106931,593495372,593496447,0.784704,-0.22448,-0.07808,-8.42625,4.865,-18.17375,-11.920001,-16.248001,22.44,eccentric,3,3.0,29475.0,380501.0,340485.0,398164.0,342084.0
2026-04-07 17:38:43.092975,106932,593504291,593505135,0.81984,-0.23424,-0.089792,-13.3,4.4275,-19.075,-11.976001,-16.024,22.576,eccentric,3,3.0,29475.0,380501.0,340485.0,398164.0,342084.0
2026-04-07 17:38:43.099296,106933,593513288,593513935,0.81984,-0.23424,-0.089792,-8.26875,4.38375,-18.68125,-11.976001,-16.024,22.576,eccentric,3,3.0,29475.0,380501.0,340485.0,398164.0,342084.0
2026-04-07 17:38:43.127796,106934,593528274,593528880,0.892064,-0.163968,-0.015616,-4.935,4.865,-20.62375,-11.376,-15.736001,21.848001,eccentric,3,3.0,29475.0,380501.0,340485.0,398164.0,342084.0
2026-04-07 17:38:43.132401,106935,593537479,593539641,0.892064,-0.163968,-0.015616,-4.71625,6.755,-23.30125,-11.376,-15.736001,21.848001,eccentric,3,3.0,29475.0,380501.0,340485.0,398164.0,342084.0
2026-04-07 17:38:43.133952,106936,593546408,593548300,0.872544,-0.218624,-0.083936,-5.565,7.875,-22.89,-12.152,-16.496,23.416,eccentric,3,3.0,29475.0,380501.0,340485.0,398164.0,342084.0
2026-04-07 17:38:43.197471,106947,593561063,593563402,0.872544,-0.218624,-0.083936,-8.085,7.04375,-23.09125,-12.152,-16.496,23.416,eccentric,3,3.0,29430.0,379759.0,339768.0,397237.0,341465.0
2026-04-07 17:38:43.199020,106948,593570023,593572140,0.886208,-0.187392,-0.095648,-6.9475,6.41375,-22.82,-11.688001,-16.640001,26.136002,eccentric,3,3.0,29430.0,379759.0,339768.0,397237.0,341465.0
2026-04-07 17:38:43.203169,106949,593579037,593580826,0.886208,-0.187392,-0.095648,-2.555,6.1425,-24.24625,-11.688001,-16.640001,26.136002,eccentric,3,3.0,29430.0,379759.0,339768.0,397237.0,341465.0
2026-04-07 17:38:43.204901,106950,593587976,593589504,0.9272,-0.113216,-0.070272,2.31,7.035,-26.39,-12.248,-16.152,23.248001,eccentric,3,3.0,29430.0,379759.0,339768.0,397237.0,341465.0
2026-04-07 17:38:43.206397,106951,593604263,593606600,0.911584,-0.11712,-0.040992,3.1325,9.72125,-30.6775,-12.248,-16.616001,20.536001,eccentric,3,3.0,29430.0,379759.0,339768.0,397237.0,341465.0
2026-04-07 17:38:43.219440,106952,593613226,593615341,0.911584,-0.11712,-0.040992,4.12125,12.8275,-35.14875,-11.712001,-16.616001,20.536001,eccentric,3,3.0,29430.0,379759.0,339768.0,397237.0,341465.0
2026-04-07 17:38:43.221177,106953,593622212,593624082,0.911584,-0.08784,-0.023424,4.445,15.72375,-38.98125,-11.712001,-16.616001,20.536001,eccentric,3,3.0,29430.0,379759.0,339768.0,397237.0,341465.0
2026-04-07 17:38:43.223057,106954,593631170,593632752,0.899872,-0.08784,-0.023424,4.5675,19.08375,-42.14875,-10.688001,-17.088001,20.464,eccentric,3,3.0,29430.0,379759.0,339768.0,397237.0,341465.0
2026-04-07 17:38:43.253882,106955,593645644,593647677,0.841312,-0.113216,-0.054656,4.27,21.30625,-44.75625,-10.88,-17.944,21.576,eccentric,3,3.0,29430.0,379759.0,339768.0,397237.0,341465.0
2026-04-07 17:38:43.293973,106965,593654958,593656439,0.841312,-0.113216,-0.054656,3.54375,22.72375,-46.935,-10.88,-17.944,21.576,eccentric,3,3.0,29186.0,377783.0,338244.0,395544.0,340075.0
2026-04-07 17:38:43.298173,106966,593663901,593665140,0.796416,-0.203008,-0.122976,7.60375,21.58625,-46.97875,-10.104,-18.056002,17.6,eccentric,3,3.0,29186.0,377783.0,338244.0,395544.0,340075.0
2026-04-07 17:38:43.299893,106967,593672848,593673834,0.796416,-0.203008,-0.122976,13.2125,18.40125,-43.82,-10.104,-18.056002,17.6,eccentric,3,3.0,29186.0,377783.0,338244.0,395544.0,340075.0
2026-04-07 17:38:43.301413,106968,593687324,593688743,0.841312,-0.08784,-0.062464,20.48375,15.9425,-40.670002,-10.368,-18.304,20.408,eccentric,3,3.0,29186.0,377783.0,338244.0,395544.0,340075.0
2026-04-07 17:38:43.305640,106969,593696221,593697423,0.841312,-0.08784,-0.062464,22.65375,15.82875,-39.935,-10.368,-18.304,20.408,eccentric,3,3.0,29186.0,377783.0,338244.0,395544.0,340075.0
2026-04-07 17:38:43.307363,106970,593705183,593706167,0.815936,0.003904,0.015616,20.95625,18.655,-42.28,-10.632001,-18.864,21.720001,eccentric,3,3.0,29186.0,377783.0,338244.0,395544.0,340075.0
2026-04-07 17:38:43.308974,106971,593719698,593721127,0.815936,0.003904,0.015616,16.24875,21.81375,-44.31875,-10.632001,-18.864,21.720001,eccentric,3,3.0,29186.0,377783.0,338244.0,395544.0,340075.0
2026-04-07 17:38:43.315587,106972,593728609,593729816,0.798368,-0.13664,-0.033184,13.3525,23.87875,-46.2525,-11.112,-18.976002,21.384,eccentric,3,3.0,29186.0,377783.0,338244.0,395544.0,340075.0
2026-04-07 17:38:43.344664,106973,593737581,593738515,0.798368,-0.13664,-0.033184,16.7125,24.4125,-47.32875,-11.112,-18.976002,21.384,eccentric,3,3.0,29186.0,377783.0,338244.0,395544.0,340075.0
2026-04-07 17:38:43.348768,106974,593752064,593753411,0.782752,-0.216672,-0.12688,22.72375,21.245,-44.89625,-9.8,-18.52,20.456001,eccentric,3,3.0,29186.0,377783.0,338244.0,395544.0,340075.0
2026-04-07 17:38:43.379891,106984,593761003,593762101,0.782752,-0.216672,-0.12688,28.848751,15.1375,-37.54625,-9.8,-18.52,20.456001,eccentric,3,3.0,29448.0,379565.0,339695.0,397093.0,341481.0
2026-04-07 17:38:43.381413,106985,593769959,593770834,0.755424,-0.261568,-0.1464,31.07125,6.88625,-26.36375,-9.408,-18.608002,18.136002,eccentric,3,3.0,29448.0,379565.0,339695.0,397093.0,341481.0
2026-04-07 17:38:43.385658,106986,593784470,593785781,0.710528,-0.099552,-0.091744,31.14125,-2.275,-14.02625,-9.936001,-18.936,20.088001,eccentric,3,3.0,29448.0,379565.0,339695.0,397093.0,341481.0
2026-04-07 17:38:43.387378,106987,593793393,593794480,0.710528,-0.099552,-0.091744,31.94625,-8.96,-4.78625,-9.936001,-18.936,20.088001,eccentric,3,3.0,29448.0,379565.0,339695.0,397093.0,341481.0
2026-04-07 17:38:43.389850,106988,593802348,593803177,0.710528,-0.099552,-0.091744,29.6275,-12.5825,1.1025,-9.936001,-18.936,20.088001,eccentric,3,3.0,29448.0,379565.0,339695.0,397093.0,341481.0
2026-04-07 17:38:43.420065,106989,593811305,593811880,0.724192,-0.033184,-0.05856,24.03625,-12.60875,2.31875,-11.136001,-19.088001,23.264002,eccentric,3,3.0,29448.0,379565.0,339695.0,397093.0,341481.0
2026-04-07 17:38:43.424948,106990,593826043,593826816,0.778848,-0.103456,-0.072224,20.09875,-11.655,1.61875,-10.096001,-18.664001,19.816002,eccentric,3,3.0,29448.0,379565.0,339695.0,397093.0,341481.0
2026-04-07 17:38:43.425995,106991,593835425,593837579,0.778848,-0.103456,-0.072224,17.84125,-9.21375,-0.23625,-10.096001,-18.664001,19.816002,eccentric,3,3.0,29448.0,379565.0,339695.0,397093.0,341481.0
2026-04-07 17:38:43.431804,106992,593844330,593846273,0.853024,-0.1464,-0.103456,17.4125,-7.0525,-1.4175,-10.152,-18.664001,22.048,eccentric,3,3.0,29448.0,379565.0,339695.0,397093.0,341481.0
2026-04-07 17:38:43.495188,107003,593859012,593859553,0.853024,-0.1464,-0.103456,16.485,-6.15125,-1.365,-10.152,-18.664001,22.048,eccentric,3,3.0,29866.0,382632.0,342158.0,399723.0,343997.0
2026-04-07 17:38:43.497659,107004,593868564,593870338,0.903776,-0.12688,-0.07808,15.61,-5.2325,-0.4025,-9.440001,-18.368,19.736,eccentric,3,3.0,29866.0,382632.0,342158.0,399723.0,343997.0
2026-04-07 17:38:43.500121,107005,593877479,593879052,0.903776,-0.12688,-0.07808,12.6,-4.82125,0.98875,-9.440001,-18.368,19.736,eccentric,3,3.0,29866.0,382632.0,342158.0,399723.0,343997.0
2026-04-07 17:38:43.505276,107006,593886430,593887740,0.903776,-0.124928,-0.08784,8.67125,-4.83,2.26625,-9.288,-17.784,19.472,eccentric,3,3.0,29866.0,382632.0,342158.0,399723.0,343997.0
2026-04-07 17:38:43.506083,107007,593900989,593902711,0.903776,-0.124928,-0.08784,4.66375,-5.32,2.70375,-9.288,-17.784,19.472,eccentric,3,3.0,29866.0,382632.0,342158.0,399723.0,343997.0
2026-04-07 17:38:43.507671,107008,593909994,593911451,0.899872,-0.08784,-0.0976,4.3225,-6.02,1.96875,-9.824,-17.896,19.04,eccentric,3,3.0,29866.0,382632.0,342158.0,399723.0,343997.0
2026-04-07 17:38:43.514382,107009,593918998,593920241,0.899872,-0.08784,-0.0976,6.5275,-5.46875,0.70875,-9.824,-17.896,19.04,eccentric,3,3.0,29866.0,382632.0,342158.0,399723.0,343997.0
2026-04-07 17:38:43.542818,107010,593933542,593935272,0.880352,-0.050752,-0.066368,8.33,-4.69,-1.63625,-9.552,-18.384,20.640001,eccentric,3,3.0,29866.0,382632.0,342158.0,399723.0,343997.0
2026-04-07 17:38:43.547365,107011,593942476,593943979,0.880352,-0.050752,-0.066368,8.51375,-4.0775,-4.33125,-9.552,-18.384,20.640001,eccentric,3,3.0,29866.0,382632.0,342158.0,399723.0,343997.0
2026-04-07 17:38:43.549815,107012,593951495,593952693,0.872544,-0.085888,-0.040992,9.17875,-3.43875,-5.915,-9.824,-17.816,18.288,eccentric,3,3.0,29866.0,382632.0,342158.0,399723.0,343997.0
2026-04-07 17:38:43.574912,107022,593960563,593961454,0.872544,-0.085888,-0.040992,10.36,-3.03625,-6.7025,-9.824,-17.816,18.288,eccentric,3,3.0,29760.0,381772.0,341579.0,399247.0,343653.0
2026-04-07 17:38:43.576672,107023,593975171,593976378,0.853024,-0.085888,-0.044896,10.0975,-3.2725,-6.6675,-10.280001,-17.768002,19.800001,eccentric,3,3.0,29760.0,381772.0,341579.0,399247.0,343653.0
2026-04-07 17:38:43.580906,107024,593984089,593985112,0.815936,-0.11712,-0.081984,8.575,-3.08875,-5.24125,-10.280001,-18.240002,16.480001,eccentric,3,3.0,29760.0,381772.0,341579.0,399247.0,343653.0
2026-04-07 17:38:43.582179,107025,593993123,593993873,0.815936,-0.11712,-0.081984,6.51875,-4.10375,-3.35125,-10.208,-18.240002,16.480001,eccentric,3,3.0,29760.0,381772.0,341579.0,399247.0,343653.0
2026-04-07 17:38:43.612498,107026,594008139,594008812,0.835456,-0.07808,-0.113216,5.985,-5.67,-0.84,-9.984,-17.720001,19.184,eccentric,3,3.0,29760.0,381772.0,341579.0,399247.0,343653.0
2026-04-07 17:38:43.614802,107027,594017422,594019567,0.835456,-0.07808,-0.113216,6.09,-5.635,0.525,-9.984,-17.720001,19.184,eccentric,3,3.0,29760.0,381772.0,341579.0,399247.0,343653.0
2026-04-07 17:38:43.619399,107028,594026348,594028239,0.804224,-0.015616,-0.0488,3.8325,-3.87625,-0.07,-10.256001,-17.632,19.024,eccentric,3,3.0,29760.0,381772.0,341579.0,399247.0,343653.0
2026-04-07 17:38:43.621894,107029,594035349,594036991,0.804224,-0.015616,-0.0488,2.51125,-1.93375,-0.07,-10.256001,-17.632,19.024,eccentric,3,3.0,29760.0,381772.0,341579.0,399247.0,343653.0
2026-04-07 17:38:43.655700,107030,594049873,594051954,0.806176,-0.130784,-0.060512,-1.89,-1.51375,-0.14875,-9.976001,-17.848001,19.104,eccentric,3,3.0,29760.0,381772.0,341579.0,399247.0,343653.0
2026-04-07 17:38:43.683155,107040,594059462,594060695,0.806176,-0.130784,-0.060512,-4.43625,-2.10875,1.09375,-9.976001,-17.848001,19.104,eccentric,3,3.0,29705.0,381419.0,341315.0,398957.0,343333.0
2026-04-07 17:38:43.684946,107041,594068409,594069488,0.788608,-0.138592,-0.103456,-2.24,-2.87875,3.52625,-9.84,-17.792002,19.104,eccentric,3,3.0,29705.0,381419.0,341315.0,398957.0,343333.0
2026-04-07 17:38:43.687383,107042,594083006,594084425,0.788608,-0.138592,-0.103456,-0.8225,-5.1975,7.665,-9.84,-17.792002,19.104,eccentric,3,3.0,29705.0,381419.0,341315.0,398957.0,343333.0
2026-04-07 17:38:43.688895,107043,594092038,594093133,0.81984,-0.142496,-0.142496,-0.48125,-9.02125,12.5825,-10.488001,-17.552,18.456001,eccentric,3,3.0,29705.0,381419.0,341315.0,398957.0,343333.0
2026-04-07 17:38:43.693011,107044,594101186,594101860,0.81984,-0.142496,-0.142496,-1.4875,-9.948751,15.44375,-10.488001,-17.552,18.456001,eccentric,3,3.0,29705.0,381419.0,341315.0,398957.0,343333.0
2026-04-07 17:38:43.697974,107045,594110526,594112721,0.80032,-0.05856,-0.06832,-0.41125,-10.19375,16.00375,-9.872001,-17.288,18.992,eccentric,3,3.0,29705.0,381419.0,341315.0,398957.0,343333.0
2026-04-07 17:38:43.730057,107046,594125091,594125580,0.823744,-0.115168,-0.081984,-0.805,-9.555,16.44125,-10.952001,-17.224,18.76,eccentric,3,3.0,29705.0,381419.0,341315.0,398957.0,343333.0
2026-04-07 17:38:43.732365,107047,594134472,594136335,0.823744,-0.115168,-0.081984,-3.675,-9.49375,16.89625,-10.952001,-17.224,18.76,eccentric,3,3.0,29705.0,381419.0,341315.0,398957.0,343333.0
2026-04-07 17:38:43.737291,107048,594143432,594145024,0.823744,-0.115168,-0.081984,-6.23,-9.82625,17.92,-10.952001,-17.224,18.76,eccentric,3,3.0,29705.0,381419.0,341315.0,398957.0,343333.0
2026-04-07 17:38:43.791549,107049,594152353,594153822,0.808128,-0.109312,-0.12688,-7.56,-10.10625,18.19125,-10.016001,-16.816,20.192001,eccentric,3,3.0,29705.0,381419.0,341315.0,398957.0,343333.0
2026-04-07 17:38:43.815306,107059,594166972,594168815,0.860832,-0.130784,-0.1464,-8.47,-10.89375,20.09875,-10.032001,-16.344,18.048,eccentric,3,3.0,29947.0,383288.0,342788.0,400542.0,344734.0
