pc_time,serial_num,sensor_ts,host_ts,ax,ay,az,gx,gy,gz,mx,my,mz,phase,rpe,weight_kg,ppg_a,ppg_b,ppg_c,ppg_d,ppg_e
2026-04-14 18:20:05.713220,897995,1609508299324305,5899294430,0.542656,-0.076128,0.242048,-23.7825,-35.7525,17.40375,-3.664,27.328001,18.568,inter_set_rest,4,7.0,144041.0,346320.0,238566.0,334871.0,247305.0
2026-04-14 18:20:05.722507,897996,1609508299333287,5899303126,0.569984,-0.119072,0.265472,-23.555,-36.02375,12.67875,-3.696,27.472002,18.384,inter_set_rest,4,7.0,144041.0,346320.0,238566.0,334871.0,247305.0
2026-04-14 18:20:05.737557,897997,1609508299347802,5899318052,0.569984,-0.119072,0.265472,-24.115,-34.36125,10.2725,-3.696,27.472002,18.384,inter_set_rest,4,7.0,144041.0,346320.0,238566.0,334871.0,247305.0
2026-04-14 18:20:05.764152,898008,1609508299356873,5899326861,0.607072,-0.169824,0.310368,-23.52,-31.78875,11.042501,-4.528,28.048002,17.336,inter_set_rest,4,7.0,124314.0,336499.0,213946.0,326492.0,223291.0
2026-04-14 18:20:05.765907,898009,1609508299365865,5899335597,0.607072,-0.169824,0.310368,-24.6575,-30.02125,11.7425,-4.528,28.048002,17.336,inter_set_rest,4,7.0,124314.0,336499.0,213946.0,326492.0,223291.0
2026-04-14 18:20:05.768501,898010,1609508299380443,5899350540,0.571936,-0.140544,0.249856,-25.50625,-28.02625,14.7175,-4.392,27.624,17.208,inter_set_rest,4,7.0,124314.0,336499.0,213946.0,326492.0,223291.0
2026-04-14 18:20:05.776095,898011,1609508299389386,5899359252,0.571936,-0.140544,0.249856,-25.147501,-25.78625,14.8575,-4.392,27.624,17.208,inter_set_rest,4,7.0,124314.0,336499.0,213946.0,326492.0,223291.0
2026-04-14 18:20:05.792243,898012,1609508299403916,5899374137,0.66368,-0.181536,0.27328,-22.05875,-23.23125,12.20625,-3.616,27.680002,16.744001,inter_set_rest,4,7.0,124314.0,336499.0,213946.0,326492.0,223291.0
2026-04-14 18:20:05.802202,898013,1609508299412834,5899382864,0.599264,-0.187392,0.226432,-19.215,-20.95625,9.77375,-4.512,28.464,18.464,inter_set_rest,4,7.0,124314.0,336499.0,213946.0,326492.0,223291.0
2026-04-14 18:20:05.808438,898014,1609508299421782,5899391582,0.599264,-0.187392,0.226432,-15.46125,-18.585001,10.14125,-4.512,28.464,18.464,inter_set_rest,4,7.0,124314.0,336499.0,213946.0,326492.0,223291.0
2026-04-14 18:20:05.823499,898015,1609508299436286,5899406608,0.650016,-0.183488,0.359168,-11.68125,-16.91375,12.136251,-4.224,28.192001,17.36,inter_set_rest,4,7.0,124314.0,336499.0,213946.0,326492.0,223291.0
2026-04-14 18:20:05.834723,898016,1609508299445199,5899415296,0.650016,-0.183488,0.359168,-8.75,-14.02625,13.41375,-4.224,28.192001,17.36,inter_set_rest,4,7.0,124314.0,336499.0,213946.0,326492.0,223291.0
2026-04-14 18:20:05.888473,898027,1609508299459782,5899428274,0.677344,-0.20496,0.171776,-5.915,-10.4825,13.8075,-5.392,28.664001,18.168001,inter_set_rest,4,7.0,107571.0,329954.0,192992.0,320814.0,202947.0
2026-04-14 18:20:05.891238,898028,1609508299469167,5899439068,0.677344,-0.20496,0.171776,-4.06875,-9.28375,12.3375,-5.392,28.664001,18.168001,inter_set_rest,4,7.0,107571.0,329954.0,192992.0,320814.0,202947.0
2026-04-14 18:20:05.893706,898029,1609508299483680,5899453986,0.681248,-0.183488,0.306464,-2.40625,-9.3625,10.77125,-3.52,27.984001,16.928001,inter_set_rest,4,7.0,107571.0,329954.0,192992.0,320814.0,202947.0
2026-04-14 18:20:05.896289,898030,1609508299492602,5899462688,0.681248,-0.226432,0.083936,-0.07,-10.33375,10.185,-3.52,27.984001,18.976002,inter_set_rest,4,7.0,107571.0,329954.0,192992.0,320814.0,202947.0
2026-04-14 18:20:05.898830,898031,1609508299501656,5899471456,0.659776,-0.226432,0.083936,5.80125,-12.97625,9.073751,-3.376,28.216002,19.008001,inter_set_rest,4,7.0,107571.0,329954.0,192992.0,320814.0,202947.0
2026-04-14 18:20:05.923666,898032,1609508299516239,5899486440,0.659776,-0.240096,0.238144,12.5825,-15.198751,9.52875,-3.32,27.664001,17.728,inter_set_rest,4,7.0,107571.0,329954.0,192992.0,320814.0,202947.0
2026-04-14 18:20:05.949370,898033,1609508299525194,5899495140,0.659776,-0.240096,0.238144,13.7025,-16.4325,10.99875,-3.32,27.664001,17.728,inter_set_rest,4,7.0,107571.0,329954.0,192992.0,320814.0,202947.0
2026-04-14 18:20:05.951043,898034,1609508299539715,5899510041,0.730048,-0.218624,0.3904,12.85375,-16.3275,14.0,-4.04,28.000002,18.128,inter_set_rest,4,7.0,107571.0,329954.0,192992.0,320814.0,202947.0
2026-04-14 18:20:05.963481,898035,1609508299548772,5899518749,0.730048,-0.218624,0.3904,13.13375,-15.37375,16.065,-4.04,28.000002,18.128,inter_set_rest,4,7.0,107571.0,329954.0,192992.0,320814.0,202947.0
2026-04-14 18:20:05.991539,898046,1609508299557850,5899527588,0.687104,-0.23424,0.189344,15.37375,-14.6475,16.79125,-4.616,27.672,17.824001,inter_set_rest,4,7.0,106713.0,331048.0,191393.0,321965.0,201293.0
2026-04-14 18:20:05.994056,898047,1609508299572369,5899542475,0.687104,-0.23424,0.189344,17.7625,-14.42875,16.98375,-4.616,27.672,17.824001,inter_set_rest,4,7.0,106713.0,331048.0,191393.0,321965.0,201293.0
2026-04-14 18:20:05.996529,898048,1609508299581338,5899551135,0.6832,-0.247904,0.169824,21.35,-14.07,17.99,-4.568,27.328001,18.44,inter_set_rest,4,7.0,106713.0,331048.0,191393.0,321965.0,201293.0
2026-04-14 18:20:05.999019,898049,1609508299595950,5899566067,0.655872,-0.208864,0.25376,24.87625,-14.58625,18.45375,-4.448,26.896002,18.344002,inter_set_rest,4,7.0,106713.0,331048.0,191393.0,321965.0,201293.0
2026-04-14 18:20:06.001164,898050,1609508299604983,5899574769,0.655872,-0.208864,0.25376,25.366251,-14.35,18.38375,-4.448,26.896002,18.344002,inter_set_rest,4,7.0,106713.0,331048.0,191393.0,321965.0,201293.0
2026-04-14 18:20:06.009080,898051,1609508299619527,5899589855,0.737856,-0.206912,0.431392,22.26,-13.3525,17.78,-4.288,27.640001,19.456001,inter_set_rest,4,7.0,106713.0,331048.0,191393.0,321965.0,201293.0
2026-04-14 18:20:06.017403,898052,1609508299628472,5899598591,0.737856,-0.206912,0.431392,17.07125,-12.11,16.03,-4.288,27.640001,19.456001,inter_set_rest,4,7.0,106713.0,331048.0,191393.0,321965.0,201293.0
2026-04-14 18:20:06.025307,898053,1609508299637550,5899607386,0.665632,-0.267424,0.193248,13.64125,-12.88875,12.355001,-4.176,27.416,18.072,inter_set_rest,4,7.0,106713.0,331048.0,191393.0,321965.0,201293.0
2026-04-14 18:20:06.066428,898064,1609508299652209,5899622329,0.665632,-0.267424,0.193248,15.6625,-14.7875,9.96625,-4.176,27.416,18.072,inter_set_rest,4,7.0,94339.0,325948.0,175201.0,318450.0,184923.0
2026-04-14 18:20:06.068924,898065,1609508299661187,5899631104,0.66368,-0.23424,0.210816,20.43125,-16.8,7.1225,-4.352,26.320002,17.480001,inter_set_rest,4,7.0,94339.0,325948.0,175201.0,318450.0,184923.0
2026-04-14 18:20:06.071434,898066,1609508299675893,5899646064,0.70272,-0.1952,0.46848,24.12375,-18.57625,3.80625,-5.176,26.632002,18.096,inter_set_rest,4,7.0,94339.0,325948.0,175201.0,318450.0,184923.0
2026-04-14 18:20:06.073899,898067,1609508299684960,5899654786,0.70272,-0.1952,0.46848,24.15875,-21.07875,0.945,-5.176,26.632002,18.096,inter_set_rest,4,7.0,94339.0,325948.0,175201.0,318450.0,184923.0
2026-04-14 18:20:06.081009,898068,1609508299693997,5899663519,0.70272,-0.300608,0.191296,17.885,-23.9225,-1.61875,-5.176,26.632002,20.160002,inter_set_rest,4,7.0,94339.0,325948.0,175201.0,318450.0,184923.0
2026-04-14 18:20:06.097348,898069,1609508299708509,5899678423,0.716384,-0.300608,0.191296,10.955,-26.241251,-2.835,-5.136,26.488,20.160002,inter_set_rest,4,7.0,94339.0,325948.0,175201.0,318450.0,184923.0
2026-04-14 18:20:06.105028,898070,1609508299717421,5899687108,0.864736,-0.355264,0.394304,8.225,-28.88375,-4.41875,-4.48,26.344002,19.432001,inter_set_rest,4,7.0,94339.0,325948.0,175201.0,318450.0,184923.0
2026-04-14 18:20:06.119956,898071,1609508299732058,5899701998,0.864736,-0.355264,0.394304,11.13,-31.3775,-5.74,-4.48,26.344002,19.432001,inter_set_rest,4,7.0,94339.0,325948.0,175201.0,318450.0,184923.0
2026-04-14 18:20:06.127825,898072,1609508299741173,5899710704,0.8296,-0.316224,0.443104,14.91875,-33.6525,-6.755,-5.656,25.744001,19.504002,inter_set_rest,4,7.0,94339.0,325948.0,175201.0,318450.0,184923.0
2026-04-14 18:20:06.137825,898073,1609508299750241,5899719396,0.8296,-0.316224,0.443104,20.51875,-34.81625,-8.925,-5.656,25.744001,19.504002,inter_set_rest,4,7.0,94339.0,325948.0,175201.0,318450.0,184923.0
2026-04-14 18:20:06.172114,898084,1609508299764817,5899734347,0.895968,-0.306464,0.359168,25.095,-32.90875,-11.33125,-6.520001,25.552002,18.560001,inter_set_rest,4,7.0,85125.0,326139.0,162746.0,318023.0,172540.0
2026-04-14 18:20:06.175235,898085,1609508299773764,5899743149,0.895968,-0.306464,0.359168,27.86875,-31.605,-14.2625,-6.520001,25.552002,18.560001,inter_set_rest,4,7.0,85125.0,326139.0,162746.0,318023.0,172540.0
2026-04-14 18:20:06.177752,898086,1609508299788332,5899758169,0.833504,-0.343552,0.245952,29.32125,-32.7425,-17.57,-6.728,25.336,19.720001,inter_set_rest,4,7.0,85125.0,326139.0,162746.0,318023.0,172540.0
2026-04-14 18:20:06.184922,898087,1609508299797291,5899766851,0.929152,-0.374784,0.22448,30.8,-31.911251,-18.64625,-7.048,24.872002,19.896002,inter_set_rest,4,7.0,85125.0,326139.0,162746.0,318023.0,172540.0
2026-04-14 18:20:06.200394,898088,1609508299811754,5899781777,0.929152,-0.374784,0.22448,32.655,-29.5925,-17.26375,-7.048,24.872002,19.896002,inter_set_rest,4,7.0,85125.0,326139.0,162746.0,318023.0,172540.0
2026-04-14 18:20:06.207802,898089,1609508299820781,5899790547,0.8784,-0.327936,0.203008,31.605,-27.58875,-15.9425,-6.752,24.544,20.192001,inter_set_rest,4,7.0,85125.0,326139.0,162746.0,318023.0,172540.0
2026-04-14 18:20:06.216597,898090,1609508299829849,5899799257,0.8784,-0.327936,0.203008,29.9075,-24.92,-15.9075,-6.752,24.544,20.192001,inter_set_rest,4,7.0,85125.0,326139.0,162746.0,318023.0,172540.0
2026-04-14 18:20:06.232266,898091,1609508299844381,5899814186,0.968192,-0.28304,0.363072,31.29875,-21.90125,-16.63375,-7.824,24.248001,20.304,inter_set_rest,4,7.0,85125.0,326139.0,162746.0,318023.0,172540.0
2026-04-14 18:20:06.289725,898102,1609508299853325,5899822856,0.968192,-0.28304,0.363072,35.00875,-20.1775,-19.4425,-7.824,24.248001,20.304,inter_set_rest,4,7.0,75116.0,314780.0,149028.0,308237.0,158836.0
2026-04-14 18:20:06.313545,898103,1609508299867934,5899837788,0.88816,-0.2928,0.154208,38.36875,-19.241251,-21.1925,-8.312,23.480001,19.952002,inter_set_rest,4,7.0,75116.0,314780.0,149028.0,308237.0,158836.0
2026-04-14 18:20:06.315915,898104,1609508299876876,5899846524,0.851072,-0.244,0.206912,38.28125,-18.94375,-22.39125,-9.56,23.192001,21.352001,inter_set_rest,4,7.0,75116.0,314780.0,149028.0,308237.0,158836.0
2026-04-14 18:20:06.317118,898105,1609508299885877,5899855225,0.851072,-0.244,0.206912,37.17875,-18.235,-22.505,-9.56,23.192001,21.352001,inter_set_rest,4,7.0,75116.0,314780.0,149028.0,308237.0,158836.0
2026-04-14 18:20:06.319737,898106,1609508299900410,5899870198,0.9272,-0.218624,0.372832,36.26,-15.12875,-23.44125,-8.816,22.768002,21.456001,inter_set_rest,4,7.0,75116.0,314780.0,149028.0,308237.0,158836.0
2026-04-14 18:20:06.324920,898107,1609508299909355,5899878914,0.9272,-0.218624,0.372832,38.21125,-12.32,-24.8325,-8.816,22.768002,21.456001,inter_set_rest,4,7.0,75116.0,314780.0,149028.0,308237.0,158836.0
2026-04-14 18:20:06.325014,898108,1609508299923821,5899893783,0.890112,-0.203008,0.394304,38.17625,-11.27,-25.4975,-9.328,23.128,21.488,inter_set_rest,4,7.0,75116.0,314780.0,149028.0,308237.0,158836.0
2026-04-14 18:20:06.327698,898109,1609508299932944,5899902487,0.890112,-0.203008,0.394304,34.85125,-10.6575,-24.96375,-9.328,23.128,21.488,inter_set_rest,4,7.0,75116.0,314780.0,149028.0,308237.0,158836.0
2026-04-14 18:20:06.334692,898110,1609508299947524,5899917465,0.870592,-0.230336,0.22448,31.255001,-8.96,-23.31,-9.512,21.728,22.008001,inter_set_rest,4,7.0,75116.0,314780.0,149028.0,308237.0,158836.0
2026-04-14 18:20:06.367222,898121,1609508299957039,5899926310,0.8296,-0.222528,0.286944,23.30125,-7.23625,-23.52,-9.84,21.456001,20.928001,inter_set_rest,4,7.0,69245.0,301708.0,140846.0,297143.0,150790.0
2026-04-14 18:20:06.369868,898122,1609508299966012,5899935052,0.8296,-0.222528,0.286944,17.78875,-3.2725,-22.1375,-9.84,21.456001,20.928001,inter_set_rest,4,7.0,69245.0,301708.0,140846.0,297143.0,150790.0
2026-04-14 18:20:06.372269,898123,1609508299980615,5899949959,0.772992,-0.167872,0.238144,22.05,1.47875,-19.53,-9.264001,21.008001,21.472,inter_set_rest,4,7.0,69245.0,301708.0,140846.0,297143.0,150790.0
2026-04-14 18:20:06.376023,898124,1609508299989568,5899958796,0.772992,-0.167872,0.238144,25.9875,5.95875,-17.24625,-9.264001,21.008001,21.472,inter_set_rest,4,7.0,69245.0,301708.0,140846.0,297143.0,150790.0
2026-04-14 18:20:06.391062,898125,1609508300004089,5899973640,0.80032,-0.046848,0.119072,22.70625,11.87375,-14.455,-9.952001,21.52,22.28,inter_set_rest,4,7.0,69245.0,301708.0,140846.0,297143.0,150790.0
2026-04-14 18:20:06.400407,898126,1609508300013198,5899982378,0.80032,-0.046848,0.119072,14.41125,18.55875,-9.6425,-9.952001,21.52,22.28,inter_set_rest,4,7.0,69245.0,301708.0,140846.0,297143.0,150790.0
2026-04-14 18:20:06.410301,898127,1609508300022247,5899991082,0.84912,-0.076128,0.324032,1.155,22.26875,-7.175,-8.96,21.000002,21.320002,inter_set_rest,4,7.0,69245.0,301708.0,140846.0,297143.0,150790.0
2026-04-14 18:20:06.423640,898128,1609508300036724,5900005982,0.854976,-0.167872,0.064416,-14.14,23.05625,-6.8425,-9.320001,21.592001,22.160002,inter_set_rest,4,7.0,69245.0,301708.0,140846.0,297143.0,150790.0
2026-04-14 18:20:06.434247,898129,1609508300045673,5900014646,0.854976,-0.167872,0.064416,-20.8075,23.28375,-4.90875,-9.320001,21.592001,22.160002,inter_set_rest,4,7.0,69245.0,301708.0,140846.0,297143.0,150790.0
2026-04-14 18:20:06.469801,898140,1609508300060471,5900029648,0.88816,-0.15616,0.30256,-16.98375,25.01625,-5.08375,-9.168,21.240002,21.328001,inter_set_rest,4,7.0,74813.0,314476.0,148295.0,307085.0,158574.0
2026-04-14 18:20:06.472380,898141,1609508300069572,5900038374,0.88816,-0.15616,0.30256,-13.965,24.47375,-6.85125,-9.168,21.240002,21.328001,inter_set_rest,4,7.0,74813.0,314476.0,148295.0,307085.0,158574.0
2026-04-14 18:20:06.475250,898142,1609508300078954,5900049180,0.788608,-0.066368,0.20496,-16.54625,24.605,-7.14875,-7.904,21.872002,21.240002,inter_set_rest,4,7.0,74813.0,314476.0,148295.0,307085.0,158574.0
2026-04-14 18:20:06.480247,898143,1609508300093493,5900062035,0.788608,-0.066368,0.20496,-22.86375,26.215,-7.76125,-7.904,21.872002,21.240002,inter_set_rest,4,7.0,74813.0,314476.0,148295.0,307085.0,158574.0
2026-04-14 18:20:06.514089,898144,1609508300102887,5900072801,0.886208,-0.101504,0.337696,-26.39,27.825,-10.255,-8.344001,21.648,20.696001,inter_set_rest,4,7.0,74813.0,314476.0,148295.0,307085.0,158574.0
2026-04-14 18:20:06.517240,898145,1609508300117375,5900087680,0.886208,-0.208864,0.349408,-26.2325,26.145,-13.1425,-8.68,22.496,21.480001,inter_set_rest,4,7.0,74813.0,314476.0,148295.0,307085.0,158574.0
2026-04-14 18:20:06.521163,898146,1609508300126301,5900096413,0.886208,-0.208864,0.349408,-25.05125,23.415,-13.9475,-8.68,22.496,21.480001,inter_set_rest,4,7.0,74813.0,314476.0,148295.0,307085.0,158574.0
2026-04-14 18:20:06.529887,898147,1609508300135240,5900105125,0.886208,-0.208864,0.349408,-24.9025,21.58625,-9.98375,-8.68,22.496,21.480001,inter_set_rest,4,7.0,74813.0,314476.0,148295.0,307085.0,158574.0
2026-04-14 18:20:06.537343,898148,1609508300149791,5900120083,0.83936,-0.113216,0.2928,-26.565,21.2975,-5.145,-8.432,22.864,24.800001,inter_set_rest,4,7.0,74813.0,314476.0,148295.0,307085.0,158574.0
2026-04-14 18:20:06.566502,898159,1609508300159339,5900128851,0.821792,-0.103456,0.244,-31.71875,22.63625,-2.77375,-8.664001,22.944,21.432001,inter_set_rest,4,7.0,74759.0,317255.0,147973.0,309777.0,158169.0
2026-04-14 18:20:06.568581,898160,1609508300174034,5900143745,0.821792,-0.103456,0.244,-33.1275,23.8525,-3.00125,-8.664001,22.944,21.432001,inter_set_rest,4,7.0,74759.0,317255.0,147973.0,309777.0,158169.0
2026-04-14 18:20:06.576219,898161,1609508300183141,5900152434,0.862784,-0.208864,0.226432,-34.23,24.395,-4.5325,-7.304,22.944,20.368,inter_set_rest,4,7.0,74759.0,317255.0,147973.0,309777.0,158169.0
2026-04-14 18:20:06.579053,898162,1609508300192204,5900161162,0.862784,-0.208864,0.226432,-36.645,23.37125,-3.5875,-7.304,22.944,20.368,inter_set_rest,4,7.0,74759.0,317255.0,147973.0,309777.0,158169.0
2026-04-14 18:20:06.594058,898163,1609508300206729,5900176095,0.798368,-0.121024,0.359168,-35.1575,22.89,-1.26875,-6.88,22.936,20.256,inter_set_rest,4,7.0,74759.0,317255.0,147973.0,309777.0,158169.0
2026-04-14 18:20:06.602321,898164,1609508300215672,5900184792,0.798368,-0.121024,0.359168,-34.4225,23.33625,-2.52875,-6.88,22.936,20.256,inter_set_rest,4,7.0,74759.0,317255.0,147973.0,309777.0,158169.0
2026-04-14 18:20:06.617394,898165,1609508300230164,5900199681,0.825696,-0.177632,0.284992,-39.34875,23.397501,-3.3425,-6.576,23.816002,20.656,inter_set_rest,4,7.0,74759.0,317255.0,147973.0,309777.0,158169.0
2026-04-14 18:20:06.624767,898166,1609508300239161,5900208465,0.831552,-0.191296,0.40016,-45.66625,22.98625,-1.89,-8.208,24.856,21.632002,inter_set_rest,4,7.0,74759.0,317255.0,147973.0,309777.0,158169.0
2026-04-14 18:20:06.660726,898167,1609508300248108,5900217188,0.831552,-0.191296,0.40016,-45.00125,22.7675,-1.12875,-8.208,24.856,21.632002,inter_set_rest,4,7.0,74759.0,317255.0,147973.0,309777.0,158169.0
2026-04-14 18:20:06.710314,898178,1609508300262720,5900232230,0.815936,-0.199104,0.251808,-39.17375,21.9625,-2.33625,-8.128,24.840002,20.016,inter_set_rest,4,7.0,74238.0,317031.0,147254.0,309554.0,157466.0
2026-04-14 18:20:06.712823,898179,1609508300271655,5900240960,0.815936,-0.199104,0.251808,-34.04625,20.65875,-3.675,-8.128,24.840002,20.016,inter_set_rest,4,7.0,74238.0,317031.0,147254.0,309554.0,157466.0
2026-04-14 18:20:06.715316,898180,1609508300286130,5900255899,0.804224,-0.173728,0.441152,-33.075,19.46875,-5.55625,-7.12,24.688002,20.264002,inter_set_rest,4,7.0,74238.0,317031.0,147254.0,309554.0,157466.0
2026-04-14 18:20:06.717352,898181,1609508300295060,5900264607,0.804224,-0.173728,0.441152,-36.68875,18.06875,-8.84625,-7.12,24.688002,20.264002,inter_set_rest,4,7.0,74238.0,317031.0,147254.0,309554.0,157466.0
2026-04-14 18:20:06.721469,898182,1609508300309563,5900279591,0.813984,-0.216672,0.4392,-41.0025,17.4125,-10.78,-6.976,24.752,19.664001,inter_set_rest,4,7.0,74238.0,317031.0,147254.0,309554.0,157466.0
2026-04-14 18:20:06.722267,898183,1609508300318508,5900288298,0.86864,-0.31232,0.47824,-42.857502,17.07125,-12.06625,-7.184001,25.384,19.536001,inter_set_rest,4,7.0,74238.0,317031.0,147254.0,309554.0,157466.0
2026-04-14 18:20:06.724761,898184,1609508300327508,5900297010,0.86864,-0.31232,0.47824,-40.9675,15.3825,-11.92625,-7.184001,25.384,19.536001,inter_set_rest,4,7.0,74238.0,317031.0,147254.0,309554.0,157466.0
2026-04-14 18:20:06.731667,898185,1609508300342033,5900311911,0.854976,-0.275232,0.366976,-37.8525,15.0675,-10.42125,-7.016,25.568,19.288,inter_set_rest,4,7.0,74238.0,317031.0,147254.0,309554.0,157466.0
2026-04-14 18:20:06.739042,898186,1609508300350983,5900320620,0.854976,-0.275232,0.366976,-32.6025,14.72625,-9.61625,-7.016,25.568,19.288,inter_set_rest,4,7.0,74238.0,317031.0,147254.0,309554.0,157466.0
2026-04-14 18:20:06.768725,898197,1609508300365811,5900336094,0.786656,-0.251808,0.388448,-30.4675,14.752501,-13.2825,-7.368001,25.52,20.512001,inter_set_rest,4,7.0,80658.0,324115.0,156004.0,315267.0,166329.0
2026-04-14 18:20:06.771232,898198,1609508300374954,5900344783,0.786656,-0.251808,0.388448,-33.18875,13.36125,-17.52625,-7.368001,25.52,20.512001,inter_set_rest,4,7.0,80658.0,324115.0,156004.0,315267.0,166329.0
2026-04-14 18:20:06.774098,898199,1609508300384012,5900353525,0.88816,-0.386496,0.325984,-34.0025,11.13,-17.6225,-7.24,25.952002,18.872002,inter_set_rest,4,7.0,80658.0,324115.0,156004.0,315267.0,166329.0
2026-04-14 18:20:06.786193,898200,1609508300398528,5900368630,0.90768,-0.392352,0.37088,-32.99625,10.01,-14.9625,-7.24,25.712002,17.576,inter_set_rest,4,7.0,80658.0,324115.0,156004.0,315267.0,166329.0
2026-04-14 18:20:06.796550,898201,1609508300407464,5900377348,0.90768,-0.392352,0.37088,-29.295,8.89875,-13.50125,-6.104,25.712002,17.576,inter_set_rest,4,7.0,80658.0,324115.0,156004.0,315267.0,166329.0
2026-04-14 18:20:06.810011,898202,1609508300422118,5900392235,0.841312,-0.306464,0.314272,-26.67,9.49375,-12.48625,-5.752,26.376001,18.04,inter_set_rest,4,7.0,80658.0,324115.0,156004.0,315267.0,166329.0
2026-04-14 18:20:06.820158,898203,1609508300431094,5900400915,0.841312,-0.306464,0.314272,-23.77375,11.96125,-12.71375,-5.752,26.376001,18.04,inter_set_rest,4,7.0,80658.0,324115.0,156004.0,315267.0,166329.0
2026-04-14 18:20:06.832646,898204,1609508300445623,5900415852,0.894016,-0.337696,0.505568,-22.8025,14.0525,-14.8225,-5.824,26.28,17.536001,inter_set_rest,4,7.0,80658.0,324115.0,156004.0,315267.0,166329.0
2026-04-14 18:20:06.842624,898205,1609508300454562,5900424685,0.894016,-0.337696,0.505568,-18.6375,13.41375,-15.81125,-5.824,26.28,17.536001,inter_set_rest,4,7.0,80658.0,324115.0,156004.0,315267.0,166329.0
2026-04-14 18:20:06.869848,898216,1609508300463560,5900433458,0.862784,-0.413824,0.226432,-13.06375,13.545,-14.315001,-6.968,25.944002,17.688002,inter_set_rest,4,7.0,105641.0,340004.0,188262.0,327844.0,198993.0
2026-04-14 18:20:06.872429,898217,1609508300478104,5900446468,0.862784,-0.413824,0.226432,-4.62875,13.5275,-9.17,-6.968,25.944002,17.688002,inter_set_rest,4,7.0,105641.0,340004.0,188262.0,327844.0,198993.0
2026-04-14 18:20:06.875354,898218,1609508300487292,5900457260,0.81984,-0.339648,0.374784,1.365,12.5825,-6.475,-6.168,25.776001,19.68,inter_set_rest,4,7.0,105641.0,340004.0,188262.0,327844.0,198993.0
2026-04-14 18:20:06.890341,898219,1609508300501785,5900470189,0.749568,-0.232288,0.347456,5.04,14.175,-4.7425,-5.768,26.288002,17.44,inter_set_rest,4,7.0,105641.0,340004.0,188262.0,327844.0,198993.0
2026-04-14 18:20:06.900452,898220,1609508300511092,5900480965,0.749568,-0.232288,0.347456,3.465,16.45,-5.15375,-5.768,26.288002,17.44,inter_set_rest,4,7.0,105641.0,340004.0,188262.0,327844.0,198993.0
2026-04-14 18:20:06.906077,898221,1609508300520042,5900489667,0.698816,-0.327936,0.257664,3.38625,19.4075,-6.79,-5.872,25.760002,16.416,inter_set_rest,4,7.0,105641.0,340004.0,188262.0,327844.0,198993.0
2026-04-14 18:20:06.922675,898222,1609508300534556,5900504585,0.698816,-0.327936,0.257664,-0.51625,19.53,-8.32125,-5.872,25.760002,16.416,inter_set_rest,4,7.0,105641.0,340004.0,188262.0,327844.0,198993.0
2026-04-14 18:20:06.931552,898223,1609508300543650,5900513284,0.782752,-0.304512,0.433344,-2.415,18.73375,-4.96125,-6.216,25.728,18.144001,inter_set_rest,4,7.0,105641.0,340004.0,188262.0,327844.0,198993.0
2026-04-14 18:20:06.971571,898234,1609508300558416,5900528200,0.782752,-0.304512,0.433344,-1.26875,20.772501,-0.5075,-6.216,25.728,18.144001,inter_set_rest,4,7.0,109594.0,340959.0,193719.0,327161.0,203265.0
2026-04-14 18:20:06.974093,898235,1609508300567414,5900537011,0.749568,-0.271328,0.294752,0.6475,21.595,2.07375,-5.176,25.888,17.792002,inter_set_rest,4,7.0,109594.0,340959.0,193719.0,327161.0,203265.0
2026-04-14 18:20:06.976573,898236,1609508300576395,5900545778,0.749568,-0.271328,0.294752,0.6825,23.05625,3.3425,-5.176,25.888,17.792002,inter_set_rest,4,7.0,109594.0,340959.0,193719.0,327161.0,203265.0
2026-04-14 18:20:06.978965,898237,1609508300590931,5900560727,0.735904,-0.279136,0.343552,-1.33875,24.7975,3.52625,-4.864,26.032001,17.744001,inter_set_rest,4,7.0,109594.0,340959.0,193719.0,327161.0,203265.0
2026-04-14 18:20:06.986094,898238,1609508300600014,5900569447,0.737856,-0.329888,0.337696,-0.21875,25.5325,2.73875,-4.248,25.696001,15.712001,inter_set_rest,4,7.0,109594.0,340959.0,193719.0,327161.0,203265.0
2026-04-14 18:20:07.004199,898239,1609508300614524,5900584362,0.737856,-0.329888,0.337696,3.91125,25.13,2.135,-4.248,25.696001,15.712001,inter_set_rest,4,7.0,109594.0,340959.0,193719.0,327161.0,203265.0
2026-04-14 18:20:07.026514,898240,1609508300623617,5900593068,0.708576,-0.259616,0.452864,5.59125,22.4,3.92,-4.696,25.976002,18.208,inter_set_rest,4,7.0,109594.0,340959.0,193719.0,327161.0,203265.0
2026-04-14 18:20:07.051029,898241,1609508300638113,5900608062,0.708576,-0.259616,0.452864,4.87375,21.11375,5.635,-4.696,25.976002,18.208,inter_set_rest,4,7.0,109594.0,340959.0,193719.0,327161.0,203265.0
2026-04-14 18:20:07.054903,898242,1609508300647030,5900616693,0.72224,-0.245952,0.456768,4.94375,20.3875,6.86875,-4.4,25.408,18.52,inter_set_rest,4,7.0,109594.0,340959.0,193719.0,327161.0,203265.0
2026-04-14 18:20:07.056869,898243,1609508300656156,5900625472,0.72224,-0.245952,0.456768,6.895,17.3775,5.705,-4.4,25.408,18.52,inter_set_rest,4,7.0,109594.0,340959.0,193719.0,327161.0,203265.0
2026-04-14 18:20:07.083785,898254,1609508300670671,5900640485,0.778848,-0.366976,0.286944,11.9875,11.59375,2.0125,-4.04,25.296001,18.096,inter_set_rest,4,7.0,98394.0,334086.0,180113.0,320761.0,189106.0
2026-04-14 18:20:07.086567,898255,1609508300679746,5900649207,0.778848,-0.366976,0.499712,19.01375,8.35625,1.015,-4.04,25.296001,18.096,inter_set_rest,4,7.0,98394.0,334086.0,180113.0,320761.0,189106.0
2026-04-14 18:20:07.088454,898256,1609508300694284,5900664171,0.753472,-0.33184,0.499712,23.91375,5.15375,0.84,-4.16,25.016,18.400002,inter_set_rest,4,7.0,98394.0,334086.0,180113.0,320761.0,189106.0
2026-04-14 18:20:07.092917,898257,1609508300703241,5900672873,0.808128,-0.275232,0.359168,21.1225,2.275,0.7875,-4.32,25.152,18.240002,inter_set_rest,4,7.0,98394.0,334086.0,180113.0,320761.0,189106.0
2026-04-14 18:20:07.102302,898258,1609508300712242,5900681627,0.808128,-0.275232,0.359168,16.49375,0.21,1.8375,-4.32,25.152,18.240002,inter_set_rest,4,7.0,98394.0,334086.0,180113.0,320761.0,189106.0
2026-04-14 18:20:07.113648,898259,1609508300726749,5900696544,0.796416,-0.27328,0.355264,15.47875,-4.15625,-1.51375,-4.784,25.392002,19.128,inter_set_rest,4,7.0,98394.0,334086.0,180113.0,320761.0,189106.0
2026-04-14 18:20:07.123732,898260,1609508300735697,5900705234,0.796416,-0.27328,0.355264,16.66875,-10.36,-4.9525,-4.784,25.392002,19.128,inter_set_rest,4,7.0,98394.0,334086.0,180113.0,320761.0,189106.0
2026-04-14 18:20:07.160006,898261,1609508300750191,5900720167,0.837408,-0.298656,0.488,21.77,-16.33625,-10.01,-5.176,25.008001,19.472,inter_set_rest,4,7.0,98394.0,334086.0,180113.0,320761.0,189106.0
2026-04-14 18:20:07.187318,898272,1609508300759472,5900728793,0.837408,-0.298656,0.488,20.055,-18.305,-14.51625,-5.176,25.008001,19.472,inter_set_rest,4,7.0,115939.0,335372.0,202189.0,320696.0,210807.0
2026-04-14 18:20:07.191264,898273,1609508300774181,5900743807,0.772992,-0.255712,0.349408,14.035,-17.66625,-11.2875,-5.592001,24.28,19.144001,inter_set_rest,4,7.0,115939.0,335372.0,202189.0,320696.0,210807.0
2026-04-14 18:20:07.192598,898274,1609508300783254,5900752547,0.812032,-0.183488,0.261568,9.695,-16.7475,-10.85,-4.976,24.328001,18.6,inter_set_rest,4,7.0,115939.0,335372.0,202189.0,320696.0,210807.0
2026-04-14 18:20:07.194685,898275,1609508300792250,5900761231,0.812032,-0.183488,0.261568,2.21375,-17.96375,-9.80875,-4.976,24.328001,18.6,inter_set_rest,4,7.0,115939.0,335372.0,202189.0,320696.0,210807.0
2026-04-14 18:20:07.197367,898276,1609508300806930,5900776184,0.794464,-0.261568,0.32208,1.015,-20.0375,-8.1375,-4.816001,24.296001,19.112001,inter_set_rest,4,7.0,115939.0,335372.0,202189.0,320696.0,210807.0
2026-04-14 18:20:07.206207,898277,1609508300815938,5900784912,0.794464,-0.261568,0.32208,9.6075,-22.49625,-10.115,-4.816001,24.296001,19.112001,inter_set_rest,4,7.0,115939.0,335372.0,202189.0,320696.0,210807.0
2026-04-14 18:20:07.217416,898278,1609508300830430,5900799815,0.7808,-0.228384,0.372832,12.1275,-25.78625,-10.84125,-5.224001,24.336,19.576,inter_set_rest,4,7.0,115939.0,335372.0,202189.0,320696.0,210807.0
2026-04-14 18:20:07.224977,898279,1609508300839414,5900808504,0.7808,-0.228384,0.372832,-0.88375,-27.545,-7.49875,-5.224001,24.336,19.576,inter_set_rest,4,7.0,115939.0,335372.0,202189.0,320696.0,210807.0
2026-04-14 18:20:07.235025,898280,1609508300848332,5900817197,0.710528,-0.308416,0.162016,-10.675,-27.37875,-3.815,-6.184001,24.832,20.544,inter_set_rest,4,7.0,115939.0,335372.0,202189.0,320696.0,210807.0
2026-04-14 18:20:07.271583,898291,1609508300863561,5900832521,0.812032,-0.286944,0.427488,-6.16,-28.90125,-1.51375,-6.512,24.52,19.128,inter_set_rest,4,7.0,158396.0,336889.0,253979.0,320706.0,259937.0
2026-04-14 18:20:07.274093,898292,1609508300872587,5900841257,0.812032,-0.286944,0.427488,11.38375,-32.20875,0.0525,-6.512,24.52,19.128,inter_set_rest,4,7.0,158396.0,336889.0,253979.0,320706.0,259937.0
2026-04-14 18:20:07.278139,898293,1609508300881926,5900852225,0.792512,-0.218624,0.404064,23.23125,-32.8825,0.69125,-8.384001,24.184002,19.536001,inter_set_rest,4,7.0,158396.0,336889.0,253979.0,320706.0,259937.0
2026-04-14 18:20:07.284169,898294,1609508300896538,5900865076,0.792512,-0.218624,0.404064,21.53375,-31.7275,1.04125,-8.384001,24.184002,19.536001,inter_set_rest,4,7.0,158396.0,336889.0,253979.0,320706.0,259937.0
2026-04-14 18:20:07.296415,898295,1609508300905904,5900875827,0.724192,-0.255712,0.407968,20.09,-33.22375,1.11125,-6.4,23.976002,19.184,inter_set_rest,4,7.0,158396.0,336889.0,253979.0,320706.0,259937.0
2026-04-14 18:20:07.310166,898296,1609508300920451,5900890812,0.724192,-0.255712,0.407968,28.56875,-34.5625,-2.63375,-6.4,23.976002,19.184,inter_set_rest,4,7.0,158396.0,336889.0,253979.0,320706.0,259937.0
2026-04-14 18:20:07.316393,898297,1609508300929357,5900899510,0.915488,-0.320128,0.359168,32.235,-33.59125,-3.6925,-6.432,23.784,20.672,inter_set_rest,4,7.0,158396.0,336889.0,253979.0,320706.0,259937.0
2026-04-14 18:20:07.330303,898298,1609508300943936,5900912456,0.909632,-0.267424,0.464576,26.635,-33.11875,1.39125,-7.456,23.504002,20.44,inter_set_rest,4,7.0,158396.0,336889.0,253979.0,320706.0,259937.0
2026-04-14 18:20:07.341562,898299,1609508300953366,5900923226,0.909632,-0.267424,0.464576,29.61,-35.420002,1.77625,-7.456,23.504002,20.44,inter_set_rest,4,7.0,158396.0,336889.0,253979.0,320706.0,259937.0
2026-04-14 18:20:07.393942,898310,1609508300962513,5900931986,0.89792,-0.240096,0.388448,39.576252,-34.825,-3.03625,-8.544001,22.944,17.720001,inter_set_rest,4,7.0,179307.0,331954.0,278532.0,315778.0,280982.0
2026-04-14 18:20:07.419014,898311,1609508300977238,5900947031,0.89792,-0.240096,0.388448,45.9025,-32.27875,-7.2275,-8.544001,22.944,17.720001,inter_set_rest,4,7.0,179307.0,331954.0,278532.0,315778.0,280982.0
2026-04-14 18:20:07.424094,898312,1609508300986263,5900955792,0.913536,-0.320128,0.21472,43.8025,-28.98875,-7.44625,-8.480001,22.328001,19.896002,inter_set_rest,4,7.0,179307.0,331954.0,278532.0,315778.0,280982.0
2026-04-14 18:20:07.426566,898313,1609508300995299,5900964679,0.913536,-0.320128,0.21472,39.27875,-24.36,-1.09375,-8.480001,22.328001,19.896002,inter_set_rest,4,7.0,179307.0,331954.0,278532.0,315778.0,280982.0
2026-04-14 18:20:07.428910,898314,1609508301009773,5900979586,1.046272,-0.257664,0.337696,37.05625,-20.1075,7.28875,-7.752,21.880001,20.136002,inter_set_rest,4,7.0,179307.0,331954.0,278532.0,315778.0,280982.0
2026-04-14 18:20:07.431143,898315,1609508301018687,5900988268,1.046272,-0.257664,0.337696,37.6775,-17.00125,11.97875,-7.752,21.880001,20.136002,inter_set_rest,4,7.0,179307.0,331954.0,278532.0,315778.0,280982.0
2026-04-14 18:20:07.434012,898316,1609508301033188,5901003144,0.95648,-0.199104,0.382592,43.68875,-14.7175,8.365,-7.912,21.392,20.640001,inter_set_rest,4,7.0,179307.0,331954.0,278532.0,315778.0,280982.0
2026-04-14 18:20:07.436111,898317,1609508301042133,5901011886,0.95648,-0.245952,0.265472,42.98875,-11.9,5.3725,-7.912,21.392,18.592001,inter_set_rest,4,7.0,179307.0,331954.0,278532.0,315778.0,280982.0
2026-04-14 18:20:07.445356,898318,1609508301056678,5901026947,0.85888,-0.245952,0.265472,41.65875,-8.12875,6.0375,-7.400001,21.528002,18.848001,inter_set_rest,4,7.0,179307.0,331954.0,278532.0,315778.0,280982.0
2026-04-14 18:20:07.475519,898329,1609508301065752,5901035816,0.7808,-0.261568,0.150304,45.15875,-3.85875,9.21375,-8.632,20.656,21.000002,inter_set_rest,4,7.0,175317.0,331355.0,272982.0,315119.0,276536.0
2026-04-14 18:20:07.477435,898330,1609508301074777,5901044573,0.7808,-0.261568,0.150304,47.53875,1.33875,14.49875,-8.632,20.656,21.000002,inter_set_rest,4,7.0,175317.0,331355.0,272982.0,315119.0,276536.0
2026-04-14 18:20:07.479674,898331,1609508301089377,5901059513,0.870592,-0.238144,0.189344,48.16,8.35625,20.02875,-8.936001,20.528002,22.2,inter_set_rest,4,7.0,175317.0,331355.0,272982.0,315119.0,276536.0
2026-04-14 18:20:07.487698,898332,1609508301098450,5901068252,0.870592,-0.238144,0.189344,49.35,10.75375,22.35625,-8.936001,20.528002,22.2,inter_set_rest,4,7.0,175317.0,331355.0,272982.0,315119.0,276536.0
2026-04-14 18:20:07.500272,898333,1609508301112992,5901083199,0.845216,-0.12688,0.22448,55.44875,10.87625,20.81625,-7.224001,19.552,22.088001,inter_set_rest,4,7.0,175317.0,331355.0,272982.0,315119.0,276536.0
2026-04-14 18:20:07.508804,898334,1609508301122021,5901091916,0.845216,-0.12688,0.22448,57.54,11.22625,15.37375,-7.224001,19.552,22.088001,inter_set_rest,4,7.0,175317.0,331355.0,272982.0,315119.0,276536.0
2026-04-14 18:20:07.518705,898335,1609508301130965,5901100607,0.772992,-0.257664,0.329888,60.585,11.40125,12.6525,-7.008,19.168001,21.624,inter_set_rest,4,7.0,175317.0,331355.0,272982.0,315119.0,276536.0
2026-04-14 18:20:07.533706,898336,1609508301145556,5901115579,0.735904,-0.193248,0.279136,60.40125,11.47125,12.145,-7.032001,18.672,23.712002,inter_set_rest,4,7.0,175317.0,331355.0,272982.0,315119.0,276536.0
2026-04-14 18:20:07.541257,898337,1609508301154544,5901124299,0.735904,-0.193248,0.279136,55.58875,9.511251,18.38375,-7.032001,18.672,23.712002,inter_set_rest,4,7.0,175317.0,331355.0,272982.0,315119.0,276536.0
2026-04-14 18:20:07.573455,898348,1609508301169271,5901139313,0.886208,-0.208864,0.3416,56.34125,7.11375,18.89125,-7.376,17.712,23.368002,inter_set_rest,4,7.0,175438.0,334079.0,272795.0,317756.0,276589.0
2026-04-14 18:20:07.577397,898349,1609508301178627,5901148098,0.886208,-0.208864,0.3416,64.79375,4.59375,14.18375,-7.376,17.712,23.368002,inter_set_rest,4,7.0,175438.0,334079.0,272795.0,317756.0,276589.0
2026-04-14 18:20:07.578561,898350,1609508301187658,5901156973,0.880352,-0.191296,0.378688,74.1475,3.22875,7.4725,-7.384,16.664001,24.792002,inter_set_rest,4,7.0,175438.0,334079.0,272795.0,317756.0,276589.0
2026-04-14 18:20:07.589676,898351,1609508301202457,5901171967,0.880352,-0.191296,0.378688,83.895,3.5875,0.23625,-7.384,16.664001,24.792002,inter_set_rest,4,7.0,175438.0,334079.0,272795.0,317756.0,276589.0
2026-04-14 18:20:07.600227,898352,1609508301211372,5901180666,0.901824,0.007808,0.357216,84.30625,6.8425,-2.54625,-6.504,15.920001,25.112001,inter_set_rest,4,7.0,175438.0,334079.0,272795.0,317756.0,276589.0
2026-04-14 18:20:07.612666,898353,1609508301225903,5901195618,0.845216,-0.013664,0.564128,75.145,12.285,4.27,-6.152,15.184001,25.000002,inter_set_rest,4,7.0,175438.0,334079.0,272795.0,317756.0,276589.0
2026-04-14 18:20:07.621227,898354,1609508301234856,5901204362,0.845216,-0.013664,0.564128,68.18,16.3275,9.4325,-6.152,15.184001,25.000002,inter_set_rest,4,7.0,175438.0,334079.0,272795.0,317756.0,276589.0
2026-04-14 18:20:07.637417,898355,1609508301249436,5901219283,0.815936,0.046848,0.327936,74.36625,18.7075,8.05,-6.288,14.488001,26.488,inter_set_rest,4,7.0,175438.0,334079.0,272795.0,317756.0,276589.0
2026-04-14 18:20:07.647837,898356,1609508301258463,5901227976,0.815936,0.046848,0.327936,75.99375,22.303751,4.13875,-6.288,14.488001,26.488,inter_set_rest,4,7.0,175438.0,334079.0,272795.0,317756.0,276589.0
2026-04-14 18:20:07.675149,898367,1609508301267583,5901236908,0.667584,-0.056608,0.35136,67.20875,25.0075,5.46875,-6.584,13.936001,25.064001,inter_set_rest,4,7.0,165580.0,331939.0,261068.0,315708.0,266154.0
2026-04-14 18:20:07.677474,898368,1609508301282948,5901252081,0.667584,-0.056608,0.35136,48.86875,29.14625,11.06,-6.584,13.936001,25.064001,inter_set_rest,4,7.0,165580.0,331939.0,261068.0,315708.0,266154.0
2026-04-14 18:20:07.679897,898369,1609508301291978,5901260804,0.76128,-0.093696,0.388448,29.9075,33.985,20.5975,-4.608,13.664001,25.536001,inter_set_rest,4,7.0,165580.0,331939.0,261068.0,315708.0,266154.0
2026-04-14 18:20:07.688622,898370,1609508301301371,5901271552,0.76128,-0.093696,0.388448,22.715,35.9275,25.025,-4.608,13.664001,25.536001,inter_set_rest,4,7.0,165580.0,331939.0,261068.0,315708.0,266154.0
2026-04-14 18:20:07.702302,898371,1609508301315877,5901284442,0.806176,0.027328,0.491904,32.6375,35.60375,18.69875,-3.944,12.528001,25.560001,inter_set_rest,4,7.0,165580.0,331939.0,261068.0,315708.0,266154.0
2026-04-14 18:20:07.714089,898372,1609508301325319,5901295198,0.765184,-0.046848,0.562176,46.305,35.857502,8.35625,-3.92,12.048,25.432001,inter_set_rest,4,7.0,165580.0,331939.0,261068.0,315708.0,266154.0
2026-04-14 18:20:07.730295,898373,1609508301339841,5901310237,0.765184,-0.046848,0.562176,51.625,38.91125,0.77,-3.92,12.048,25.432001,inter_set_rest,4,7.0,165580.0,331939.0,261068.0,315708.0,266154.0
2026-04-14 18:20:07.736249,898374,1609508301348881,5901318934,0.622688,-0.052704,0.359168,44.37125,44.45875,-0.1575,-3.592,11.88,26.976002,inter_set_rest,4,7.0,165580.0,331939.0,261068.0,315708.0,266154.0
2026-04-14 18:20:07.762699,898375,1609508301357900,5901327620,0.622688,-0.052704,0.359168,22.25125,50.3125,7.6475,-3.592,11.88,26.976002,inter_set_rest,4,7.0,165580.0,331939.0,261068.0,315708.0,266154.0
2026-04-14 18:20:07.855525,898386,1609508301372445,5901342601,0.677344,-0.001952,0.35136,10.4125,55.37,16.96625,-3.576,12.072001,27.2,inter_set_rest,4,7.0,147315.0,326777.0,239793.0,311244.0,247193.0
2026-04-14 18:20:07.857423,898387,1609508301381356,5901351317,0.677344,-0.001952,0.35136,13.85125,59.50875,16.45875,-3.576,12.072001,27.2,inter_set_rest,4,7.0,147315.0,326777.0,239793.0,311244.0,247193.0
2026-04-14 18:20:07.860183,898388,1609508301395954,5901366210,0.677344,0.128832,0.472384,16.98375,62.02,10.75375,-2.384,11.984,26.992,inter_set_rest,4,7.0,147315.0,326777.0,239793.0,311244.0,247193.0
2026-04-14 18:20:07.862201,898389,1609508301404959,5901374899,0.689056,0.070272,0.755424,9.38,63.51625,4.1125,-1.6,11.528001,25.584002,inter_set_rest,4,7.0,147315.0,326777.0,239793.0,311244.0,247193.0
2026-04-14 18:20:07.865149,898390,1609508301419462,5901389772,0.689056,0.070272,0.755424,4.0075,66.36,-5.3375,-1.6,11.528001,25.584002,inter_set_rest,4,7.0,147315.0,326777.0,239793.0,311244.0,247193.0
2026-04-14 18:20:07.867205,898391,1609508301428415,5901398462,0.593408,-0.025376,0.56608,7.02625,72.1875,-13.92125,-0.664,11.496,27.752,inter_set_rest,4,7.0,147315.0,326777.0,239793.0,311244.0,247193.0
2026-04-14 18:20:07.870079,898392,1609508301437349,5901407158,0.593408,-0.025376,0.56608,9.98375,78.6975,-18.8825,-0.664,11.496,27.752,inter_set_rest,4,7.0,147315.0,326777.0,239793.0,311244.0,247193.0
2026-04-14 18:20:07.872342,898393,1609508301451830,5901422043,0.642208,-0.080032,0.685152,14.7175,84.11375,-17.29,-0.312,11.184001,28.048002,inter_set_rest,4,7.0,147315.0,326777.0,239793.0,311244.0,247193.0
2026-04-14 18:20:07.875258,898394,1609508301460771,5901430802,0.642208,-0.080032,0.685152,20.23875,87.683754,-14.83125,-0.312,11.184001,28.048002,inter_set_rest,4,7.0,147315.0,326777.0,239793.0,311244.0,247193.0
2026-04-14 18:20:07.902272,898405,1609508301475356,5901443769,0.698816,0.085888,0.552416,25.375,90.5625,-14.9275,0.016,11.112,27.872002,inter_set_rest,4,7.0,132004.0,333449.0,221479.0,318454.0,229493.0
2026-04-14 18:20:07.905336,898406,1609508301484656,5901454580,0.698816,0.085888,0.720288,20.50125,93.26625,-15.11125,0.016,11.112,27.872002,inter_set_rest,4,7.0,132004.0,333449.0,221479.0,318454.0,229493.0
2026-04-14 18:20:07.907825,898407,1609508301493747,5901463289,0.519232,-0.007808,0.720288,13.440001,96.88,-18.38375,2.024,10.616,26.240002,inter_set_rest,4,7.0,132004.0,333449.0,221479.0,318454.0,229493.0
2026-04-14 18:20:07.910339,898408,1609508301508424,5901478247,0.628544,-0.031232,0.732,4.725,101.15,-24.395,3.616,10.768001,26.760002,inter_set_rest,4,7.0,132004.0,333449.0,221479.0,318454.0,229493.0
2026-04-14 18:20:07.912715,898409,1609508301517376,5901487005,0.628544,-0.031232,0.732,3.2725,102.20875,-28.04375,3.616,10.768001,26.760002,inter_set_rest,4,7.0,132004.0,333449.0,221479.0,318454.0,229493.0
2026-04-14 18:20:07.919806,898410,1609508301531984,5901501907,0.462624,-0.28304,0.415776,7.2275,103.20625,-39.095,4.8,10.144,27.160002,inter_set_rest,4,7.0,132004.0,333449.0,221479.0,318454.0,229493.0
2026-04-14 18:20:07.934669,898411,1609508301540953,5901510590,0.462624,-0.28304,0.415776,20.13375,104.746254,-50.365,4.8,10.144,27.160002,inter_set_rest,4,7.0,132004.0,333449.0,221479.0,318454.0,229493.0
2026-04-14 18:20:07.936045,898412,1609508301549873,5901519330,0.659776,-0.18544,1.19072,43.47875,97.055,-34.965,6.552001,10.208,26.576002,inter_set_rest,4,7.0,132004.0,333449.0,221479.0,318454.0,229493.0
2026-04-14 18:20:07.975291,898423,1609508301564973,5901534366,0.659776,-0.18544,1.19072,23.345,82.20625,-29.86375,6.552001,10.208,26.576002,inter_set_rest,4,7.0,88916.0,320441.0,166505.0,308409.0,174309.0
2026-04-14 18:20:07.977625,898424,1609508301574014,5901543244,0.238144,0.03904,1.274656,-4.61125,82.2325,-38.2375,6.432,10.240001,25.136002,inter_set_rest,4,7.0,88916.0,320441.0,166505.0,308409.0,174309.0
2026-04-14 18:20:07.980119,898425,1609508301588556,5901558308,0.333792,-0.003904,0.9272,-27.06375,77.6125,-41.74625,7.312,10.56,24.952002,inter_set_rest,4,7.0,88916.0,320441.0,166505.0,308409.0,174309.0
2026-04-14 18:20:07.984923,898426,1609508301597583,5901567008,0.333792,-0.003904,0.9272,-46.76875,77.945,-51.05625,7.312,10.56,24.952002,inter_set_rest,4,7.0,88916.0,320441.0,166505.0,308409.0,174309.0
2026-04-14 18:20:07.993733,898427,1609508301606659,5901575695,0.33184,-0.02928,0.841312,-42.455,81.97,-56.91,9.096001,11.336,24.416,inter_set_rest,4,7.0,88916.0,320441.0,166505.0,308409.0,174309.0
2026-04-14 18:20:08.009251,898428,1609508301621185,5901590705,0.33184,-0.02928,0.841312,-22.32125,80.185,-69.545,9.096001,11.336,24.416,inter_set_rest,4,7.0,88916.0,320441.0,166505.0,308409.0,174309.0
2026-04-14 18:20:08.016605,898429,1609508301630101,5901599389,0.398208,-0.169824,0.568032,2.10875,80.45625,-81.82125,9.552,11.088,24.496,inter_set_rest,4,7.0,88916.0,320441.0,166505.0,308409.0,174309.0
2026-04-14 18:20:08.036015,898430,1609508301644595,5901614323,0.398208,-0.169824,0.568032,23.1175,83.20375,-93.17875,9.552,11.088,24.496,inter_set_rest,4,7.0,88916.0,320441.0,166505.0,308409.0,174309.0
2026-04-14 18:20:08.041047,898431,1609508301653518,5901622996,0.22448,-0.226432,0.591456,34.2125,86.835,-106.74125,10.072001,11.104,24.336,inter_set_rest,4,7.0,88916.0,320441.0,166505.0,308409.0,174309.0
2026-04-14 18:20:08.076078,898442,1609508301668235,5901637929,0.093696,-0.07808,0.864736,25.97875,86.44125,-125.5625,9.912001,11.84,23.400002,inter_set_rest,4,7.0,43822.0,204311.0,100735.0,209685.0,107609.0
2026-04-14 18:20:08.078474,898443,1609508301677241,5901646728,0.093696,-0.07808,0.864736,12.04,84.1925,-141.77625,9.912001,11.84,23.400002,inter_set_rest,4,7.0,43822.0,204311.0,100735.0,209685.0,107609.0
2026-04-14 18:20:08.080913,898444,1609508301686263,5901655499,-0.031232,0.080032,0.544608,12.66125,81.235,-146.29124,9.912001,11.84,24.352001,inter_set_rest,4,7.0,43822.0,204311.0,100735.0,209685.0,107609.0
2026-04-14 18:20:08.087376,898445,1609508301700962,5901670410,-0.025376,0.080032,0.544608,12.775,82.04875,-150.57,9.416,12.392,24.352001,inter_set_rest,4,7.0,43822.0,204311.0,100735.0,209685.0,107609.0
2026-04-14 18:20:08.096498,898446,1609508301709909,5901679095,-0.103456,0.03904,0.251808,10.14125,83.06375,-156.7825,11.56,12.456,22.920002,inter_set_rest,4,7.0,43822.0,204311.0,100735.0,209685.0,107609.0
2026-04-14 18:20:08.130327,898447,1609508301724401,5901693971,-0.103456,0.03904,0.251808,15.61875,90.746254,-162.4175,11.56,12.456,22.920002,inter_set_rest,4,7.0,43822.0,204311.0,100735.0,209685.0,107609.0
2026-04-14 18:20:08.132701,898448,1609508301733343,5901702684,-0.1464,0.054656,0.343552,35.56875,99.19,-166.06625,12.456,12.64,22.768002,inter_set_rest,4,7.0,43822.0,204311.0,100735.0,209685.0,107609.0
2026-04-14 18:20:08.134712,898449,1609508301742303,5901711411,-0.1464,0.054656,0.343552,69.65875,100.89625,-170.40625,12.456,12.64,22.768002,inter_set_rest,4,7.0,43822.0,204311.0,100735.0,209685.0,107609.0
2026-04-14 18:20:08.161200,898450,1609508301756864,5901726310,-0.261568,0.28304,0.601216,101.1325,97.44875,-179.75125,12.512001,12.088,23.480001,inter_set_rest,4,7.0,43822.0,204311.0,100735.0,209685.0,107609.0
2026-04-14 18:20:08.196100,898461,1609508301766048,5901735633,-0.261568,0.28304,0.601216,108.91125,94.71,-193.82124,12.512001,12.088,23.480001,inter_set_rest,4,7.0,38853.0,181998.0,91172.0,188953.0,96822.0
2026-04-14 18:20:08.198557,898462,1609508301780586,5901750629,-0.290848,0.308416,0.462624,87.255,98.2625,-208.215,12.016001,12.816001,24.176,inter_set_rest,4,7.0,38853.0,181998.0,91172.0,188953.0,96822.0
2026-04-14 18:20:08.201034,898463,1609508301789539,5901759342,-0.199104,0.257664,0.528992,48.65875,98.77,-214.13,12.688001,13.336,22.36,inter_set_rest,4,7.0,38853.0,181998.0,91172.0,188953.0,96822.0
2026-04-14 18:20:08.204067,898464,1609508301804064,5901774301,-0.199104,0.257664,0.528992,12.48625,101.6925,-214.025,12.688001,13.336,22.36,inter_set_rest,4,7.0,38853.0,181998.0,91172.0,188953.0,96822.0
2026-04-14 18:20:08.206070,898465,1609508301813096,5901782996,-0.376736,0.339648,0.638304,1.25125,110.15375,-216.475,13.672001,14.032001,21.84,inter_set_rest,4,7.0,38853.0,181998.0,91172.0,188953.0,96822.0
2026-04-14 18:20:08.209075,898466,1609508301822170,5901791782,-0.376736,0.339648,0.638304,17.5175,121.65125,-223.06375,13.672001,14.032001,21.84,inter_set_rest,4,7.0,38853.0,181998.0,91172.0,188953.0,96822.0
2026-04-14 18:20:08.223526,898467,1609508301836671,5901806722,-0.44896,0.378688,0.472384,46.095,130.6025,-232.61874,14.264001,15.064001,21.424002,inter_set_rest,4,7.0,38853.0,181998.0,91172.0,188953.0,96822.0
2026-04-14 18:20:08.234699,898468,1609508301845716,5901815422,-0.44896,0.378688,0.472384,66.5175,135.84375,-247.80875,14.264001,15.064001,21.424002,inter_set_rest,4,7.0,38853.0,181998.0,91172.0,188953.0,96822.0
2026-04-14 18:20:08.248906,898469,1609508301860244,5901830309,-0.472384,0.32208,0.37088,70.86625,136.00125,-263.55,14.000001,15.936001,21.624,inter_set_rest,4,7.0,38853.0,181998.0,91172.0,188953.0,96822.0
2026-04-14 18:20:08.277549,898480,1609508301869550,5901839122,-0.655872,0.482144,0.589504,60.7425,139.55376,-271.9325,13.696001,16.936,22.048,inter_set_rest,4,7.0,40123.0,182073.0,93156.0,189503.0,98956.0
2026-04-14 18:20:08.279951,898481,1609508301878656,5901847847,-0.655872,0.482144,0.589504,58.40625,145.61751,-271.635,13.696001,16.936,22.048,inter_set_rest,4,7.0,40123.0,182073.0,93156.0,189503.0,98956.0
2026-04-14 18:20:08.282541,898482,1609508301893195,5901862973,-0.913536,0.74176,0.853024,71.07625,143.89375,-269.22,12.808001,17.576,22.104002,inter_set_rest,4,7.0,40123.0,182073.0,93156.0,189503.0,98956.0
2026-04-14 18:20:08.290058,898483,1609508301902144,5901871713,-0.913536,0.74176,0.853024,91.95375,142.65125,-271.92374,12.808001,17.576,22.104002,inter_set_rest,4,7.0,40123.0,182073.0,93156.0,189503.0,98956.0
2026-04-14 18:20:08.306275,898484,1609508301916747,5901886660,-0.976,0.862784,0.700768,106.39125,146.16,-280.62125,14.416,17.504002,21.416,inter_set_rest,4,7.0,40123.0,182073.0,93156.0,189503.0,98956.0
2026-04-14 18:20:08.313456,898485,1609508301925713,5901895351,-0.976,0.862784,0.700768,105.58625,146.23875,-286.13376,14.416,17.504002,21.416,inter_set_rest,4,7.0,40123.0,182073.0,93156.0,189503.0,98956.0
2026-04-14 18:20:08.327402,898486,1609508301940238,5901910344,-0.837408,0.77104,0.784704,93.695,145.4425,-286.44,14.152,18.144001,21.224,inter_set_rest,4,7.0,40123.0,182073.0,93156.0,189503.0,98956.0
2026-04-14 18:20:08.337480,898487,1609508301949175,5901919067,-1.106784,0.938912,1.075552,77.7875,143.815,-286.44,12.616,19.776001,22.728,inter_set_rest,4,7.0,40123.0,182073.0,93156.0,189503.0,98956.0
2026-04-14 18:20:08.344975,898488,1609508301958106,5901927783,-1.106784,0.938912,1.075552,69.64125,139.71126,-286.44,12.616,19.776001,22.728,inter_set_rest,4,7.0,40123.0,182073.0,93156.0,189503.0,98956.0
2026-04-14 18:20:08.376275,898499,1609508301972660,5901942754,-1.286368,1.030656,0.952576,62.34375,137.2525,-286.44,12.864,20.424002,20.944,inter_set_rest,4,7.0,60246.0,231714.0,129626.0,236314.0,140284.0
2026-04-14 18:20:08.378777,898500,1609508301981748,5901951571,-1.286368,1.030656,0.952576,57.47,137.0775,-286.44,12.864,20.424002,20.944,inter_set_rest,4,7.0,60246.0,231714.0,129626.0,236314.0,140284.0
2026-04-14 18:20:08.384815,898501,1609508301996309,5901966518,-1.216096,0.895968,0.798368,51.6775,142.17,-286.44,11.656,21.984001,21.368002,inter_set_rest,4,7.0,60246.0,231714.0,129626.0,236314.0,140284.0
2026-04-14 18:20:08.392552,898502,1609508302005384,5901975227,-1.216096,0.895968,0.798368,42.77875,145.1625,-286.44,11.656,21.984001,21.368002,inter_set_rest,4,7.0,60246.0,231714.0,129626.0,236314.0,140284.0
2026-04-14 18:20:08.405069,898503,1609508302014380,5901983918,-1.196576,0.6344,0.886208,41.27375,148.89876,-286.44,12.152,22.536001,20.864,inter_set_rest,4,7.0,60246.0,231714.0,129626.0,236314.0,140284.0
2026-04-14 18:20:08.432424,898504,1609508302028938,5901998939,-1.495232,0.636352,0.890112,52.8325,153.405,-286.44,11.176001,23.008001,17.896,inter_set_rest,4,7.0,60246.0,231714.0,129626.0,236314.0,140284.0
2026-04-14 18:20:08.434832,898505,1609508302037893,5902007611,-1.495232,0.636352,0.890112,77.81375,153.335,-286.44,11.176001,23.008001,17.896,inter_set_rest,4,7.0,60246.0,231714.0,129626.0,236314.0,140284.0
2026-04-14 18:20:08.447435,898506,1609508302052509,5902022541,-1.641632,0.700768,0.757376,104.1775,149.10875,-286.44,10.088,22.552002,21.008001,inter_set_rest,4,7.0,60246.0,231714.0,129626.0,236314.0,140284.0
2026-04-14 18:20:08.449835,898507,1609508302061529,5902031252,-1.641632,0.700768,0.757376,120.75,142.6775,-286.44,10.088,22.552002,21.008001,inter_set_rest,4,7.0,60246.0,231714.0,129626.0,236314.0,140284.0
2026-04-14 18:20:08.544980,898518,1609508302070725,5902040040,-1.464,0.67344,0.573888,128.45,134.25125,-286.32626,8.608001,22.664001,21.12,inter_set_rest,4,7.0,80439.0,246456.0,158576.0,245297.0,168402.0
2026-04-14 18:20:08.547552,898519,1609508302085221,5902055116,-1.464,0.67344,0.573888,131.88,121.3275,-279.125,8.608001,22.664001,21.12,inter_set_rest,4,7.0,80439.0,246456.0,158576.0,245297.0,168402.0
2026-04-14 18:20:08.550058,898520,1609508302094166,5902063815,-1.380064,0.587552,0.523136,136.28125,106.46125,-259.35,8.088,21.616001,22.960001,inter_set_rest,4,7.0,80439.0,246456.0,158576.0,245297.0,168402.0
2026-04-14 18:20:08.552459,898521,1609508302108659,5902078682,-1.380064,0.493856,0.40992,147.20125,94.56125,-239.7325,8.088,21.616001,22.960001,inter_set_rest,4,7.0,80439.0,246456.0,158576.0,245297.0,168402.0
2026-04-14 18:20:08.555039,898522,1609508302117799,5902087412,-1.282464,0.493856,0.40992,163.7125,86.0825,-225.8375,7.08,19.752,23.704,inter_set_rest,4,7.0,80439.0,246456.0,158576.0,245297.0,168402.0
2026-04-14 18:20:08.557552,898523,1609508302132304,5902102308,-1.147776,0.462624,0.587552,184.8875,79.4325,-218.39125,6.272,17.816,25.616001,inter_set_rest,4,7.0,80439.0,246456.0,158576.0,245297.0,168402.0
2026-04-14 18:20:08.559864,898524,1609508302141333,5902111130,-1.147776,0.462624,0.587552,204.4525,72.10875,-213.00125,6.272,17.816,25.616001,inter_set_rest,4,7.0,80439.0,246456.0,158576.0,245297.0,168402.0
2026-04-14 18:20:08.562577,898525,1609508302150372,5902119860,-1.342976,0.591456,0.30256,215.41624,69.37,-212.44125,5.128,16.152,24.896002,inter_set_rest,4,7.0,80439.0,246456.0,158576.0,245297.0,168402.0
2026-04-14 18:20:08.567393,898526,1609508302164873,5902134791,-1.342976,0.591456,0.30256,206.38625,69.86,-220.94626,5.128,16.152,24.896002,inter_set_rest,4,7.0,80439.0,246456.0,158576.0,245297.0,168402.0
2026-04-14 18:20:08.594737,898537,1609508302173926,5902143646,-1.30784,0.433344,0.339648,180.495,65.93125,-223.7025,4.192,14.52,27.2,inter_set_rest,4,7.0,82240.0,244522.0,161826.0,239277.0,172223.0
2026-04-14 18:20:08.597232,898538,1609508302188474,5902158685,-1.30784,0.433344,0.339648,158.9175,62.08125,-208.2325,4.192,14.52,27.2,inter_set_rest,4,7.0,82240.0,244522.0,161826.0,239277.0,172223.0
2026-04-14 18:20:08.601233,898539,1609508302197626,5902167414,-1.233664,0.316224,0.255712,147.65625,61.6525,-185.70125,4.072,12.936001,27.160002,inter_set_rest,4,7.0,82240.0,244522.0,161826.0,239277.0,172223.0
2026-04-14 18:20:08.602467,898540,1609508302206619,5902176091,-1.233664,0.316224,0.255712,146.04625,58.9925,-172.3925,4.072,12.936001,27.160002,inter_set_rest,4,7.0,82240.0,244522.0,161826.0,239277.0,172223.0
2026-04-14 18:20:08.608590,898541,1609508302221179,5902191067,-1.221952,0.33184,0.236192,153.51875,57.1025,-165.34,4.184,11.104,28.264002,inter_set_rest,4,7.0,82240.0,244522.0,161826.0,239277.0,172223.0
2026-04-14 18:20:08.618428,898542,1609508302230143,5902199797,-1.106784,0.425536,0.10736,165.9175,56.51625,-154.88374,4.912,8.832001,30.272001,inter_set_rest,4,7.0,82240.0,244522.0,161826.0,239277.0,172223.0
2026-04-14 18:20:08.632789,898543,1609508302244640,5902214708,-1.106784,0.425536,0.10736,174.5975,53.55875,-141.72375,4.912,8.832001,30.272001,inter_set_rest,4,7.0,82240.0,244522.0,161826.0,239277.0,172223.0
2026-04-14 18:20:08.641223,898544,1609508302253578,5902223387,-0.976,0.427488,0.011712,176.54875,48.4925,-127.54,4.088,7.136,28.448002,inter_set_rest,4,7.0,82240.0,244522.0,161826.0,239277.0,172223.0
2026-04-14 18:20:08.681578,898555,1609508302268650,5902238361,-0.976,0.427488,0.011712,169.4,41.1425,-112.72625,4.088,7.136,28.448002,inter_set_rest,4,7.0,72990.0,233767.0,149044.0,229814.0,159057.0
2026-04-14 18:20:08.686646,898556,1609508302277742,5902247128,-0.903776,0.427488,0.189344,158.27875,36.1375,-97.23875,4.76,5.0,27.736002,inter_set_rest,4,7.0,72990.0,233767.0,149044.0,229814.0,159057.0
2026-04-14 18:20:08.687100,898557,1609508302286705,5902255826,-0.903776,0.427488,0.189344,150.50874,33.18875,-82.04875,4.76,5.0,27.736002,inter_set_rest,4,7.0,72990.0,233767.0,149044.0,229814.0,159057.0
2026-04-14 18:20:08.688880,898558,1609508302301204,5902270736,-0.89792,0.482144,0.142496,142.35374,29.5575,-68.60875,5.624,3.192,28.472002,inter_set_rest,4,7.0,72990.0,233767.0,149044.0,229814.0,159057.0
2026-04-14 18:20:08.698627,898559,1609508302310310,5902279441,-0.81984,0.573888,0.046848,123.87375,26.6525,-60.94375,5.624,3.192,28.376001,inter_set_rest,4,7.0,72990.0,233767.0,149044.0,229814.0,159057.0
2026-04-14 18:20:08.712704,898560,1609508302324825,5902294318,-0.827648,0.573888,0.046848,88.5675,22.960001,-57.12,5.672,2.616,28.376001,inter_set_rest,4,7.0,72990.0,233767.0,149044.0,229814.0,159057.0
2026-04-14 18:20:08.720316,898561,1609508302333766,5902303064,-0.823744,0.57584,0.099552,43.225,19.11875,-50.6975,5.816001,2.928,28.712002,inter_set_rest,4,7.0,72990.0,233767.0,149044.0,229814.0,159057.0
2026-04-14 18:20:08.728724,898562,1609508302342836,5902311966,-0.823744,0.57584,0.099552,2.2225,17.38625,-37.555,5.816001,2.928,28.712002,inter_set_rest,4,7.0,72990.0,233767.0,149044.0,229814.0,159057.0
2026-04-14 18:20:08.745076,898563,1609508302357375,5902326882,-0.778848,0.45872,0.310368,-29.54,18.27,-25.4975,6.696,3.504,27.752,inter_set_rest,4,7.0,72990.0,233767.0,149044.0,229814.0,159057.0
2026-04-14 18:20:08.754975,898564,1609508302366292,5902335564,-0.778848,0.45872,0.310368,-48.3875,22.925,-18.27875,6.696,3.504,27.752,inter_set_rest,4,7.0,72990.0,233767.0,149044.0,229814.0,159057.0
2026-04-14 18:20:08.790823,898575,1609508302380876,5902350492,-0.847168,0.329888,0.288896,-54.92375,30.24,-12.55625,6.12,4.72,27.816002,inter_set_rest,4,7.0,79767.0,240052.0,157974.0,236218.0,167680.0
2026-04-14 18:20:08.790943,898576,1609508302389832,5902359270,-0.847168,0.329888,0.288896,-54.1625,35.0525,-6.0025,6.12,4.72,27.816002,inter_set_rest,4,7.0,79767.0,240052.0,157974.0,236218.0,167680.0
2026-04-14 18:20:08.791986,898577,1609508302398805,5902368039,-0.856928,0.275232,0.242048,-51.94875,39.235,0.70875,7.896,5.288,28.760002,inter_set_rest,4,7.0,79767.0,240052.0,157974.0,236218.0,167680.0
2026-04-14 18:20:08.799951,898578,1609508302413335,5902382977,-0.890112,0.300608,0.433344,-48.95625,43.44375,7.62125,8.84,5.888001,27.240002,inter_set_rest,4,7.0,79767.0,240052.0,157974.0,236218.0,167680.0
2026-04-14 18:20:08.810282,898579,1609508302422388,5902391666,-0.890112,0.300608,0.433344,-46.29625,45.71,16.415,8.84,5.888001,27.240002,inter_set_rest,4,7.0,79767.0,240052.0,157974.0,236218.0,167680.0
2026-04-14 18:20:08.826583,898580,1609508302436826,5902406624,-0.835456,0.247904,0.628544,-43.72375,47.215,26.06625,9.472,6.264,27.184002,inter_set_rest,4,7.0,79767.0,240052.0,157974.0,236218.0,167680.0
2026-04-14 18:20:08.832800,898581,1609508302445744,5902415342,-0.835456,0.247904,0.628544,-42.175,46.8125,35.21875,9.472,6.264,27.184002,inter_set_rest,4,7.0,79767.0,240052.0,157974.0,236218.0,167680.0
2026-04-14 18:20:08.874755,898582,1609508302460275,5902430280,-0.950624,0.23424,0.51728,-41.51,43.37375,42.83125,10.160001,6.84,26.912,inter_set_rest,4,7.0,79767.0,240052.0,157974.0,236218.0,167680.0
2026-04-14 18:20:08.922492,898593,1609508302469631,5902439295,-0.950624,0.23424,0.51728,-39.48875,39.48,49.7875,10.160001,6.84,26.912,inter_set_rest,4,7.0,67310.0,231554.0,140936.0,229717.0,150255.0
2026-04-14 18:20:08.925353,898594,1609508302478744,5902448062,-0.938912,0.142496,0.392352,-37.52,34.22125,56.18375,10.408001,7.272,27.888,inter_set_rest,4,7.0,67310.0,231554.0,140936.0,229717.0,150255.0
2026-04-14 18:20:08.927840,898595,1609508302493488,5902463094,-0.99552,0.162016,0.398208,-34.11625,29.4525,62.265,10.936001,7.392,26.472002,inter_set_rest,4,7.0,67310.0,231554.0,140936.0,229717.0,150255.0
2026-04-14 18:20:08.930346,898596,1609508302502446,5902471805,-0.99552,0.162016,0.398208,-30.9575,25.94375,70.00875,10.936001,7.392,26.472002,inter_set_rest,4,7.0,67310.0,231554.0,140936.0,229717.0,150255.0
2026-04-14 18:20:08.932730,898597,1609508302516939,5902486711,-1.056032,0.191296,0.4392,-29.51375,23.98375,77.46375,11.68,7.712,27.144001,inter_set_rest,4,7.0,67310.0,231554.0,140936.0,229717.0,150255.0
2026-04-14 18:20:08.934996,898598,1609508302525947,5902495398,-1.056032,0.191296,0.4392,-33.13625,22.54,84.5075,11.68,7.712,27.144001,inter_set_rest,4,7.0,67310.0,231554.0,140936.0,229717.0,150255.0
2026-04-14 18:20:08.937710,898599,1609508302534865,5902504097,-1.052128,0.191296,0.681248,-42.25375,20.48375,89.45125,12.504001,8.248,27.256,inter_set_rest,4,7.0,67310.0,231554.0,140936.0,229717.0,150255.0
2026-04-14 18:20:08.940322,898600,1609508302549404,5902519030,-1.052128,0.191296,0.681248,-54.15375,17.66625,94.0975,12.504001,8.248,27.256,inter_set_rest,4,7.0,67310.0,231554.0,140936.0,229717.0,150255.0
2026-04-14 18:20:08.946238,898601,1609508302558440,5902527753,-1.153632,0.177632,0.411872,-68.32875,12.9675,100.02125,12.104001,8.84,26.048,inter_set_rest,4,7.0,67310.0,231554.0,140936.0,229717.0,150255.0
2026-04-14 18:20:08.979880,898612,1609508302573145,5902542895,-1.106784,0.154208,0.593408,-85.1375,6.9475,104.1425,13.224001,10.096001,24.800001,inter_set_rest,4,7.0,69060.0,235258.0,143203.0,232444.0,152772.0
2026-04-14 18:20:08.982340,898613,1609508302582189,5902551742,-1.106784,0.154208,0.593408,-103.55625,-1.47,106.58375,13.224001,10.096001,24.800001,inter_set_rest,4,7.0,69060.0,235258.0,143203.0,232444.0,152772.0
2026-04-14 18:20:08.984844,898614,1609508302596717,5902566670,-1.194624,0.083936,0.288896,-119.665,-11.865,109.90875,13.056001,11.248,26.392002,inter_set_rest,4,7.0,69060.0,235258.0,143203.0,232444.0,152772.0
2026-04-14 18:20:08.992445,898615,1609508302605652,5902575370,-1.194624,0.083936,0.288896,-131.88,-21.51625,111.78125,13.056001,11.248,26.392002,inter_set_rest,4,7.0,69060.0,235258.0,143203.0,232444.0,152772.0
2026-04-14 18:20:09.003718,898616,1609508302614584,5902584070,-1.147776,0.013664,0.339648,-137.0775,-31.21125,111.04625,13.016001,12.584001,26.928001,inter_set_rest,4,7.0,69060.0,235258.0,143203.0,232444.0,152772.0
2026-04-14 18:20:09.016298,898617,1609508302629234,5902599007,-1.147776,0.013664,0.339648,-136.22,-38.57,109.051254,13.016001,12.584001,26.928001,inter_set_rest,4,7.0,69060.0,235258.0,143203.0,232444.0,152772.0
2026-04-14 18:20:09.025059,898618,1609508302638181,5902607707,-1.0248,-0.054656,0.456768,-127.33875,-43.96875,107.135,13.368001,12.928,26.392002,inter_set_rest,4,7.0,69060.0,235258.0,143203.0,232444.0,152772.0
2026-04-14 18:20:09.040045,898619,1609508302652713,5902622592,-1.028704,-0.074176,0.21472,-112.93625,-47.83625,104.93,13.160001,13.024,25.44,inter_set_rest,4,7.0,69060.0,235258.0,143203.0,232444.0,152772.0
2026-04-14 18:20:09.073684,898620,1609508302661683,5902631285,-1.028704,-0.074176,0.21472,-94.2025,-50.33,99.60125,13.160001,13.024,25.44,inter_set_rest,4,7.0,69060.0,235258.0,143203.0,232444.0,152772.0
2026-04-14 18:20:09.103599,898631,1609508302671135,5902640446,-1.028704,-0.074176,0.21472,-73.89375,-50.155,94.2025,13.160001,13.024,25.44,inter_set_rest,4,7.0,65350.0,229573.0,137718.0,227924.0,147102.0
2026-04-14 18:20:09.106278,898632,1609508302685685,5902655498,-0.919392,-0.011712,0.365024,-54.3725,-48.58,90.195,13.912001,13.408001,26.032001,inter_set_rest,4,7.0,65350.0,229573.0,137718.0,227924.0,147102.0
2026-04-14 18:20:09.108739,898633,1609508302694734,5902664234,-0.942816,0.046848,0.33184,-39.03375,-46.48875,86.152504,13.528001,13.168,25.704,inter_set_rest,4,7.0,65350.0,229573.0,137718.0,227924.0,147102.0
2026-04-14 18:20:09.111260,898634,1609508302709278,5902679177,-0.942816,0.046848,0.33184,-28.411251,-43.46125,79.9225,13.528001,13.168,25.704,inter_set_rest,4,7.0,65350.0,229573.0,137718.0,227924.0,147102.0
2026-04-14 18:20:09.113787,898635,1609508302718236,5902687880,-1.095072,0.06832,0.222528,-20.88625,-38.1675,72.28375,13.784,12.960001,26.320002,inter_set_rest,4,7.0,65350.0,229573.0,137718.0,227924.0,147102.0
2026-04-14 18:20:09.116277,898636,1609508302727247,5902696589,-1.095072,0.06832,0.222528,-16.16125,-31.911251,61.5825,13.784,12.960001,26.320002,inter_set_rest,4,7.0,65350.0,229573.0,137718.0,227924.0,147102.0
2026-04-14 18:20:09.130000,898637,1609508302741894,5902711664,-1.303936,0.140544,0.080032,-15.7325,-26.705,48.51875,12.912001,13.304001,27.080002,inter_set_rest,4,7.0,65350.0,229573.0,137718.0,227924.0,147102.0
2026-04-14 18:20:09.137545,898638,1609508302751037,5902720391,-1.303936,0.140544,0.080032,-19.39,-20.23875,34.86875,12.912001,13.304001,27.080002,inter_set_rest,4,7.0,65350.0,229573.0,137718.0,227924.0,147102.0
2026-04-14 18:20:09.152439,898639,1609508302765558,5902735303,-1.303936,0.144448,0.308416,-26.32,-13.125,22.645,13.68,13.128,26.296001,inter_set_rest,4,7.0,65350.0,229573.0,137718.0,227924.0,147102.0
2026-04-14 18:20:09.181143,898650,1609508302774876,5902744086,-1.411296,0.12688,0.199104,-32.48875,-6.46625,12.573751,13.608001,13.840001,26.008001,inter_set_rest,4,7.0,72463.0,236389.0,148680.0,233794.0,157951.0
2026-04-14 18:20:09.183874,898651,1609508302784141,5902752982,-1.411296,0.12688,0.199104,-35.1575,-0.41125,4.34,13.608001,13.840001,26.008001,inter_set_rest,4,7.0,72463.0,236389.0,148680.0,233794.0,157951.0
2026-04-14 18:20:09.186470,898652,1609508302799149,5902767916,-1.432768,0.122976,0.06832,-34.78125,3.82375,-2.2575,12.56,14.048,27.28,inter_set_rest,4,7.0,72463.0,236389.0,148680.0,233794.0,157951.0
2026-04-14 18:20:09.196048,898653,1609508302808481,5902778678,-1.432768,0.122976,0.06832,-33.32,4.9,-5.52125,12.56,14.048,27.28,inter_set_rest,4,7.0,72463.0,236389.0,148680.0,233794.0,157951.0
2026-04-14 18:20:09.236617,898654,1609508302823200,5902791644,-1.35664,0.099552,-0.052704,-32.90875,3.26375,-4.7075,13.440001,14.568001,27.496002,inter_set_rest,4,7.0,72463.0,236389.0,148680.0,233794.0,157951.0
2026-04-14 18:20:09.239121,898655,1609508302832486,5902802412,-1.35664,0.099552,-0.052704,-32.8125,-0.9625,-0.88375,13.440001,14.568001,27.496002,inter_set_rest,4,7.0,72463.0,236389.0,148680.0,233794.0,157951.0
2026-04-14 18:20:09.241586,898656,1609508302841418,5902811091,-1.360544,0.06832,-0.130784,-33.73125,-8.1375,5.43375,11.216001,14.872001,26.680002,inter_set_rest,4,7.0,72463.0,236389.0,148680.0,233794.0,157951.0
2026-04-14 18:20:09.265180,898657,1609508302855933,5902826000,-1.335168,0.081984,-0.011712,-34.23875,-14.74375,11.655,10.856001,15.064001,27.648,inter_set_rest,4,7.0,72463.0,236389.0,148680.0,233794.0,157951.0
2026-04-14 18:20:09.267263,898658,1609508302864905,5902834695,-1.335168,0.081984,-0.011712,-33.635,-20.58,15.8025,10.856001,15.064001,27.648,inter_set_rest,4,7.0,72463.0,236389.0,148680.0,233794.0,157951.0
2026-04-14 18:20:09.295262,898669,1609508302874519,5902843595,-1.284416,0.132736,0.023424,-33.1625,-24.78,17.045,12.456,15.184001,26.704,inter_set_rest,4,7.0,60082.0,220596.0,130678.0,221401.0,139127.0
2026-04-14 18:20:09.297855,898670,1609508302889144,5902858631,-1.284416,0.132736,0.023424,-34.3875,-27.71125,16.38,12.456,15.184001,26.704,inter_set_rest,4,7.0,60082.0,220596.0,130678.0,221401.0,139127.0
2026-04-14 18:20:09.305359,898671,1609508302898143,5902867323,-1.1712,0.158112,0.111264,-36.8025,-30.03,15.46125,11.88,15.280001,26.904001,inter_set_rest,4,7.0,60082.0,220596.0,130678.0,221401.0,139127.0
2026-04-14 18:20:09.307847,898672,1609508302912819,5902882413,-1.1712,0.158112,0.111264,-39.22625,-29.723751,14.95375,11.88,15.280001,26.904001,inter_set_rest,4,7.0,60082.0,220596.0,130678.0,221401.0,139127.0
2026-04-14 18:20:09.310317,898673,1609508302921784,5902891126,-1.120448,0.128832,0.081984,-39.83,-28.70875,13.2125,11.416,16.288,27.568,inter_set_rest,4,7.0,60082.0,220596.0,130678.0,221401.0,139127.0
2026-04-14 18:20:09.323693,898674,1609508302936376,5902906290,-1.040416,0.083936,0.0976,-36.81125,-26.04,10.8325,10.744,16.640001,27.576002,inter_set_rest,4,7.0,60082.0,220596.0,130678.0,221401.0,139127.0
2026-04-14 18:20:09.333972,898675,1609508302945404,5902914971,-1.040416,0.083936,0.0976,-29.9775,-22.9425,9.1,10.744,16.640001,27.576002,inter_set_rest,4,7.0,60082.0,220596.0,130678.0,221401.0,139127.0
2026-04-14 18:20:09.340864,898676,1609508302954433,5902923685,-1.009184,0.103456,0.11712,-20.125,-18.96125,8.8025,10.744,16.432001,27.968,inter_set_rest,4,7.0,60082.0,220596.0,130678.0,221401.0,139127.0
2026-04-14 18:20:09.356415,898677,1609508302968915,5902938593,-1.009184,0.103456,0.11712,-10.325,-15.96875,9.16125,10.160001,16.432001,27.968,inter_set_rest,4,7.0,60082.0,220596.0,130678.0,221401.0,139127.0
2026-04-14 18:20:09.383968,898688,1609508302977870,5902947337,-1.020896,0.113216,-0.031232,-2.79125,-13.25625,9.63375,10.200001,16.576,27.048,inter_set_rest,4,7.0,60246.0,220264.0,130968.0,221148.0,139353.0
2026-04-14 18:20:09.386063,898689,1609508302992427,5902962293,-1.020896,0.113216,-0.031232,3.15875,-11.24375,9.86125,10.200001,16.576,27.048,inter_set_rest,4,7.0,60246.0,220264.0,130968.0,221148.0,139353.0
2026-04-14 18:20:09.388739,898690,1609508303001422,5902971012,-0.991616,0.144448,0.103456,7.20125,-9.91375,9.89625,10.448001,16.104,26.992,inter_set_rest,4,7.0,60246.0,220264.0,130968.0,221148.0,139353.0
2026-04-14 18:20:09.399097,898691,1609508303010412,5902979698,-0.991616,0.144448,0.103456,9.65125,-9.2575,8.61875,10.448001,16.104,26.992,inter_set_rest,4,7.0,60246.0,220264.0,130968.0,221148.0,139353.0
2026-04-14 18:20:09.414116,898692,1609508303024899,5902994632,-1.110688,0.160064,-0.01952,11.20875,-9.345,6.44875,10.128,16.328001,28.024002,inter_set_rest,4,7.0,60246.0,220264.0,130968.0,221148.0,139353.0
2026-04-14 18:20:09.419909,898693,1609508303034055,5903003343,-1.110688,0.160064,-0.01952,11.8125,-10.395,4.26125,10.128,16.328001,28.024002,inter_set_rest,4,7.0,60246.0,220264.0,130968.0,221148.0,139353.0
2026-04-14 18:20:09.436534,898694,1609508303048508,5903018329,-1.056032,0.113216,-0.099552,11.4625,-11.85625,1.925,9.968,16.056002,27.400002,inter_set_rest,4,7.0,60246.0,220264.0,130968.0,221148.0,139353.0
2026-04-14 18:20:09.444660,898695,1609508303057459,5903027035,-1.077504,0.132736,-0.095648,11.7775,-13.79,-1.32125,9.808001,15.984001,27.400002,inter_set_rest,4,7.0,60246.0,220264.0,130968.0,221148.0,139353.0
2026-04-14 18:20:09.485343,898706,1609508303072464,5903041884,-1.077504,0.132736,-0.095648,12.17125,-15.3825,-4.94375,9.808001,15.984001,27.400002,inter_set_rest,4,7.0,56985.0,213716.0,125840.0,216023.0,133809.0
2026-04-14 18:20:09.487855,898707,1609508303081659,5903050667,-1.026752,0.11712,-0.031232,15.0675,-15.93375,-9.77375,9.184,15.856001,27.616001,inter_set_rest,4,7.0,56985.0,213716.0,125840.0,216023.0,133809.0
2026-04-14 18:20:09.490364,898708,1609508303090764,5903059503,-1.026752,0.11712,-0.031232,18.935,-15.96,-14.81375,9.184,15.856001,27.616001,inter_set_rest,4,7.0,56985.0,213716.0,125840.0,216023.0,133809.0
2026-04-14 18:20:09.492739,898709,1609508303105736,5903074449,-0.98576,0.111264,0.03904,25.33125,-14.28,-19.5125,8.272,15.424001,28.52,inter_set_rest,4,7.0,56985.0,213716.0,125840.0,216023.0,133809.0
2026-04-14 18:20:09.503630,898710,1609508303115065,5903085207,-0.98576,0.105408,0.121024,31.815,-12.005,-23.38875,8.272,15.424001,28.52,inter_set_rest,4,7.0,56985.0,213716.0,125840.0,216023.0,133809.0
2026-04-14 18:20:09.512841,898711,1609508303124127,5903093921,-0.91744,0.105408,0.121024,38.94625,-9.16125,-27.195,9.008,15.072001,28.256,inter_set_rest,4,7.0,56985.0,213716.0,125840.0,216023.0,133809.0
2026-04-14 18:20:09.528453,898712,1609508303138611,5903108822,-1.022848,0.142496,0.070272,45.66625,-5.85375,-31.5525,8.456,14.752001,29.000002,inter_set_rest,4,7.0,56985.0,213716.0,125840.0,216023.0,133809.0
2026-04-14 18:20:09.535970,898713,1609508303147534,5903117501,-1.022848,0.142496,0.070272,50.89,-2.8525,-35.4025,8.456,14.752001,29.000002,inter_set_rest,4,7.0,56985.0,213716.0,125840.0,216023.0,133809.0
2026-04-14 18:20:09.548945,898714,1609508303162058,5903132377,-1.01504,0.130784,0.138592,54.50375,-0.06125,-38.99,7.808001,13.840001,29.328001,inter_set_rest,4,7.0,56985.0,213716.0,125840.0,216023.0,133809.0
2026-04-14 18:20:09.653661,898726,1609508303171000,5903141326,-1.01504,0.130784,0.138592,56.07875,2.2225,-42.74375,7.808001,13.840001,29.328001,inter_set_rest,4,7.0,54976.0,209560.0,122408.0,212519.0,130031.0
2026-04-14 18:20:09.656510,898727,1609508303179994,5903150113,-1.08336,0.109312,-0.027328,56.9275,3.45625,-46.89125,8.608001,12.816001,28.800001,inter_set_rest,4,7.0,54976.0,209560.0,122408.0,212519.0,130031.0
2026-04-14 18:20:09.659091,898728,1609508303194668,5903163084,-1.08336,0.109312,-0.027328,57.19875,3.33375,-51.42375,8.608001,12.816001,28.800001,inter_set_rest,4,7.0,54976.0,209560.0,122408.0,212519.0,130031.0
2026-04-14 18:20:09.661080,898729,1609508303203908,5903173841,-1.095072,0.109312,0.056608,57.61875,2.905,-56.42875,7.032001,12.616,29.904001,inter_set_rest,4,7.0,54976.0,209560.0,122408.0,212519.0,130031.0
2026-04-14 18:20:09.664065,898730,1609508303218384,5903188712,-1.149728,0.105408,-0.040992,58.275,2.24875,-60.9875,7.488,11.920001,30.512001,inter_set_rest,4,7.0,54976.0,209560.0,122408.0,212519.0,130031.0
2026-04-14 18:20:09.666592,898731,1609508303227350,5903197414,-1.149728,0.105408,-0.040992,60.6725,1.77625,-66.33375,7.488,11.920001,30.512001,inter_set_rest,4,7.0,54976.0,209560.0,122408.0,212519.0,130031.0
2026-04-14 18:20:09.668533,898732,1609508303241854,5903210278,-1.085312,0.122976,0.142496,64.74125,1.085,-71.3475,6.368001,11.360001,30.816002,inter_set_rest,4,7.0,54976.0,209560.0,122408.0,212519.0,130031.0
2026-04-14 18:20:09.671092,898733,1609508303251131,5903221164,-1.085312,0.122976,0.142496,68.7575,0.6125,-75.67,6.368001,11.360001,30.816002,inter_set_rest,4,7.0,54976.0,209560.0,122408.0,212519.0,130031.0
2026-04-14 18:20:09.674075,898734,1609508303260139,5903229846,-1.175104,0.1464,-0.042944,73.00125,1.60125,-78.8025,6.008,11.088,30.632002,inter_set_rest,4,7.0,54976.0,209560.0,122408.0,212519.0,130031.0
2026-04-14 18:20:09.730944,898745,1609508303275479,5903244826,-1.175104,0.1464,-0.042944,77.70875,3.955,-81.655,6.008,11.088,30.632002,inter_set_rest,4,7.0,53879.0,208165.0,120441.0,211446.0,127962.0
2026-04-14 18:20:09.733868,898746,1609508303284464,5903253599,-1.18096,0.18544,0.179584,81.90875,7.95375,-85.74125,6.784,9.376,30.480001,inter_set_rest,4,7.0,53879.0,208165.0,120441.0,211446.0,127962.0
2026-04-14 18:20:09.736494,898747,1609508303293414,5903262309,-1.18096,0.18544,0.179584,86.6075,13.72875,-91.245,6.784,9.376,30.480001,inter_set_rest,4,7.0,53879.0,208165.0,120441.0,211446.0,127962.0
2026-04-14 18:20:09.738533,898748,1609508303308509,5903277399,-1.173152,0.152256,0.144448,91.665,20.57125,-98.35875,6.808,8.184,29.944002,inter_set_rest,4,7.0,53879.0,208165.0,120441.0,211446.0,127962.0
2026-04-14 18:20:09.741228,898749,1609508303317405,5903286105,-1.1712,0.201056,0.238144,96.25875,27.125,-104.055,7.256001,7.2,29.888,inter_set_rest,4,7.0,53879.0,208165.0,120441.0,211446.0,127962.0
2026-04-14 18:20:09.744050,898750,1609508303332305,5903301003,-1.1712,0.201056,0.238144,98.88375,33.1275,-107.8175,7.256001,7.2,29.888,inter_set_rest,4,7.0,53879.0,208165.0,120441.0,211446.0,127962.0
2026-04-14 18:20:09.746546,898751,1609508303341636,5903311818,-1.130208,0.251808,0.294752,99.28625,38.8325,-109.61125,7.552001,6.192,30.336002,inter_set_rest,4,7.0,53879.0,208165.0,120441.0,211446.0,127962.0
2026-04-14 18:20:09.749086,898752,1609508303350585,5903320497,-1.130208,0.251808,0.294752,98.46375,44.02125,-109.0425,7.552001,6.192,30.336002,inter_set_rest,4,7.0,53879.0,208165.0,120441.0,211446.0,127962.0
2026-04-14 18:20:09.752404,898753,1609508303365225,5903335478,-1.061888,0.230336,0.261568,96.145,47.67875,-105.55125,8.192,5.088,29.352001,inter_set_rest,4,7.0,53879.0,208165.0,120441.0,211446.0,127962.0
2026-04-14 18:20:09.784979,898764,1609508303374331,5903344658,-1.061888,0.230336,0.261568,93.4325,50.505,-98.46375,8.192,5.088,29.352001,inter_set_rest,4,7.0,53653.0,208437.0,119884.0,210909.0,127381.0
2026-04-14 18:20:09.787417,898765,1609508303388896,5903357533,-1.087264,0.230336,0.203008,90.18625,52.75375,-90.60625,10.152,4.232,28.888,inter_set_rest,4,7.0,53653.0,208437.0,119884.0,210909.0,127381.0
2026-04-14 18:20:09.789989,898766,1609508303398135,5903368310,-0.983808,0.25376,0.437248,85.855,53.760002,-82.355,9.768001,4.232,30.024002,inter_set_rest,4,7.0,53653.0,208437.0,119884.0,210909.0,127381.0
2026-04-14 18:20:09.794974,898767,1609508303407072,5903377082,-0.983808,0.25376,0.437248,77.09625,52.75375,-74.89125,9.768001,4.232,30.024002,inter_set_rest,4,7.0,53653.0,208437.0,119884.0,210909.0,127381.0
2026-04-14 18:20:09.807522,898768,1609508303421561,5903390130,-1.040416,0.269376,0.22448,62.34375,50.435,-68.83625,10.896001,3.592,29.168001,inter_set_rest,4,7.0,53653.0,208437.0,119884.0,210909.0,127381.0
2026-04-14 18:20:09.818543,898769,1609508303431016,5903400892,-1.040416,0.269376,0.22448,42.9275,45.8675,-63.56,10.896001,3.592,29.168001,inter_set_rest,4,7.0,53653.0,208437.0,119884.0,210909.0,127381.0
2026-04-14 18:20:09.834774,898770,1609508303445550,5903415806,-0.960384,0.261568,0.423584,22.741251,41.615,-58.93125,10.648001,3.864,28.264002,inter_set_rest,4,7.0,53653.0,208437.0,119884.0,210909.0,127381.0
2026-04-14 18:20:09.841180,898771,1609508303454650,5903424536,-0.960384,0.261568,0.423584,5.06625,38.33375,-54.92375,10.648001,3.864,28.264002,inter_set_rest,4,7.0,53653.0,208437.0,119884.0,210909.0,127381.0
2026-04-14 18:20:09.850018,898772,1609508303463714,5903433251,-1.079456,0.247904,0.41968,-6.13375,32.5675,-51.9225,11.304001,4.248,27.576002,inter_set_rest,4,7.0,53653.0,208437.0,119884.0,210909.0,127381.0
2026-04-14 18:20:09.884981,898783,1609508303478382,5903448307,-1.089216,0.18544,0.44896,-12.39,25.76875,-50.16375,11.696,4.616,28.024002,inter_set_rest,4,7.0,49959.0,194645.0,113299.0,200988.0,120154.0
2026-04-14 18:20:09.887540,898784,1609508303487474,5903457017,-1.089216,0.18544,0.44896,-14.70875,21.1575,-48.6675,11.696,4.616,28.024002,inter_set_rest,4,7.0,49959.0,194645.0,113299.0,200988.0,120154.0
2026-04-14 18:20:09.889965,898785,1609508303502011,5903472122,-1.198528,0.169824,0.339648,-12.915,16.8875,-46.7075,11.432,5.416,28.088001,inter_set_rest,4,7.0,49959.0,194645.0,113299.0,200988.0,120154.0
2026-04-14 18:20:09.899774,898786,1609508303510958,5903480850,-1.198528,0.169824,0.339648,-7.63,12.15375,-44.28375,11.432,5.416,28.088001,inter_set_rest,4,7.0,49959.0,194645.0,113299.0,200988.0,120154.0
2026-04-14 18:20:09.909573,898787,1609508303519887,5903489524,-1.196576,0.138592,0.396256,1.8725,8.1725,-42.385,12.568001,4.896,28.36,inter_set_rest,4,7.0,49959.0,194645.0,113299.0,200988.0,120154.0
2026-04-14 18:20:09.921112,898788,1609508303534417,5903504486,-1.196576,0.138592,0.396256,15.190001,6.01125,-39.357502,12.568001,4.896,28.36,inter_set_rest,4,7.0,49959.0,194645.0,113299.0,200988.0,120154.0
2026-04-14 18:20:09.929963,898789,1609508303543396,5903513200,-1.120448,0.101504,0.4392,28.58625,3.96375,-36.2075,12.160001,4.384,27.368002,inter_set_rest,4,7.0,49959.0,194645.0,113299.0,200988.0,120154.0
2026-04-14 18:20:09.966282,898790,1609508303557990,5903528078,-1.120448,0.171776,0.462624,42.42875,2.45,-31.75375,12.160001,4.384,28.12,inter_set_rest,4,7.0,49959.0,194645.0,113299.0,200988.0,120154.0
2026-04-14 18:20:09.988773,898791,1609508303566965,5903536752,-1.120448,0.171776,0.462624,52.63125,0.25375,-26.10125,12.032001,4.056,28.12,inter_set_rest,4,7.0,49959.0,194645.0,113299.0,200988.0,120154.0
2026-04-14 18:20:10.016445,898802,1609508303581520,5903549912,-1.075552,0.191296,0.378688,55.2475,-3.66625,-17.99,11.120001,3.376,28.160002,inter_set_rest,4,7.0,48950.0,193362.0,111136.0,200125.0,117949.0
2026-04-14 18:20:10.018959,898803,1609508303590796,5903560770,-1.075552,0.191296,0.378688,51.4675,-8.47875,-7.8925,11.120001,3.376,28.160002,inter_set_rest,4,7.0,48950.0,193362.0,111136.0,200125.0,117949.0
2026-04-14 18:20:10.021162,898804,1609508303599720,5903569466,-0.993568,0.183488,0.402112,42.28,-13.64125,3.57,10.848001,3.128,28.016,inter_set_rest,4,7.0,48950.0,193362.0,111136.0,200125.0,117949.0
2026-04-14 18:20:10.023630,898805,1609508303614338,5903584357,-0.993568,0.183488,0.402112,30.93125,-17.28125,13.99125,10.848001,3.128,28.016,inter_set_rest,4,7.0,48950.0,193362.0,111136.0,200125.0,117949.0
2026-04-14 18:20:10.026537,898806,1609508303623293,5903593089,-0.960384,0.1464,0.306464,18.38375,-20.965,22.5575,10.592001,2.944,29.248001,inter_set_rest,4,7.0,48950.0,193362.0,111136.0,200125.0,117949.0
2026-04-14 18:20:10.029030,898807,1609508303637831,5903607997,-0.960384,0.1464,0.306464,5.6525,-23.45,30.38875,10.592001,2.944,29.248001,inter_set_rest,4,7.0,48950.0,193362.0,111136.0,200125.0,117949.0
2026-04-14 18:20:10.034823,898808,1609508303646896,5903616675,-0.962336,0.158112,0.452864,-7.35875,-25.9175,35.74375,9.128,3.312,31.176,inter_set_rest,4,7.0,48950.0,193362.0,111136.0,200125.0,117949.0
2026-04-14 18:20:10.044072,898809,1609508303655919,5903625449,-0.962336,0.158112,0.452864,-20.9475,-28.525,38.49125,9.128,3.312,31.176,inter_set_rest,4,7.0,48950.0,193362.0,111136.0,200125.0,117949.0
2026-04-14 18:20:10.057848,898810,1609508303670416,5903640424,-0.962336,0.115168,0.503616,-33.48625,-30.397501,39.64625,10.232,2.856,27.568,inter_set_rest,4,7.0,48950.0,193362.0,111136.0,200125.0,117949.0
2026-04-14 18:20:10.087288,898821,1609508303679523,5903649244,-0.989664,0.03904,0.277184,-43.645,-31.5875,39.9525,10.440001,3.56,26.072,inter_set_rest,4,7.0,49354.0,193517.0,111760.0,200639.0,118597.0
2026-04-14 18:20:10.089810,898822,1609508303694103,5903664114,-0.989664,0.03904,0.277184,-50.33875,-32.73375,39.235,10.440001,3.56,26.072,inter_set_rest,4,7.0,49354.0,193517.0,111760.0,200639.0,118597.0
2026-04-14 18:20:10.092355,898823,1609508303703063,5903672927,-0.925248,-0.013664,0.32208,-52.955,-32.8825,37.5375,9.688001,4.08,27.552002,inter_set_rest,4,7.0,49354.0,193517.0,111760.0,200639.0,118597.0
2026-04-14 18:20:10.099903,898824,1609508303712103,5903681642,-0.925248,-0.013664,0.32208,-52.7625,-33.31125,34.09875,9.688001,4.08,27.552002,inter_set_rest,4,7.0,49354.0,193517.0,111760.0,200639.0,118597.0
2026-04-14 18:20:10.116559,898825,1609508303726651,5903696553,-0.972096,-0.040992,0.249856,-50.23375,-34.0725,31.57,9.632001,4.416,28.568,inter_set_rest,4,7.0,49354.0,193517.0,111760.0,200639.0,118597.0
2026-04-14 18:20:10.122727,898826,1609508303735681,5903705239,-0.972096,-0.040992,0.249856,-46.576252,-34.7025,29.21625,9.632001,4.416,28.568,inter_set_rest,4,7.0,49354.0,193517.0,111760.0,200639.0,118597.0
2026-04-14 18:20:10.141577,898827,1609508303750207,5903720186,-0.968192,-0.046848,0.394304,-41.2825,-36.0325,27.09,8.136001,5.064,28.376001,inter_set_rest,4,7.0,49354.0,193517.0,111760.0,200639.0,118597.0
2026-04-14 18:20:10.147421,898828,1609508303759101,5903728858,-0.968192,-0.072224,0.210816,-36.0675,-37.42375,24.6575,8.136001,5.064,28.376001,inter_set_rest,4,7.0,49354.0,193517.0,111760.0,200639.0,118597.0
2026-04-14 18:20:10.164070,898829,1609508303773633,5903743793,-1.040416,-0.072224,0.210816,-30.59,-38.87625,22.715,7.992001,5.312,27.336,inter_set_rest,4,7.0,49354.0,193517.0,111760.0,200639.0,118597.0
2026-04-14 18:20:10.192084,898840,1609508303782710,5903752548,-1.011136,-0.054656,0.421632,-24.36,-39.7075,21.77,8.104,5.12,28.144001,inter_set_rest,4,7.0,48535.0,191662.0,110322.0,199536.0,117016.0
2026-04-14 18:20:10.193506,898841,1609508303791870,5903761401,-1.011136,-0.054656,0.421632,-19.11875,-39.80375,21.4725,8.104,5.12,28.144001,inter_set_rest,4,7.0,48535.0,191662.0,110322.0,199536.0,117016.0
2026-04-14 18:20:10.196097,898842,1609508303806413,5903776324,-1.05408,-0.070272,0.226432,-15.2775,-39.7075,21.00875,7.56,5.208,29.344002,inter_set_rest,4,7.0,48535.0,191662.0,110322.0,199536.0,117016.0
2026-04-14 18:20:10.202703,898843,1609508303815379,5903785047,-1.05408,-0.070272,0.226432,-11.97,-40.11,21.4375,7.56,5.208,29.344002,inter_set_rest,4,7.0,48535.0,191662.0,110322.0,199536.0,117016.0
2026-04-14 18:20:10.218637,898844,1609508303829953,5903799949,-1.069696,-0.056608,0.242048,-10.71,-40.0575,22.365,7.344,5.496,28.504002,inter_set_rest,4,7.0,48535.0,191662.0,110322.0,199536.0,117016.0
2026-04-14 18:20:10.229080,898845,1609508303838895,5903808704,-1.069696,-0.056608,0.242048,-9.98375,-39.82125,23.63375,7.344,5.496,28.504002,inter_set_rest,4,7.0,48535.0,191662.0,110322.0,199536.0,117016.0
2026-04-14 18:20:10.234902,898846,1609508303847869,5903817413,-1.071648,-0.03904,0.269376,-9.96625,-38.56125,24.29,6.552001,5.448,29.344002,inter_set_rest,4,7.0,48535.0,191662.0,110322.0,199536.0,117016.0
2026-04-14 18:20:10.250430,898847,1609508303862374,5903832431,-1.04432,-0.056608,0.210816,-11.795,-36.8725,24.14125,6.136,5.864,28.688002,inter_set_rest,4,7.0,48535.0,191662.0,110322.0,199536.0,117016.0
2026-04-14 18:20:10.260340,898848,1609508303871288,5903841145,-1.04432,-0.056608,0.210816,-14.945,-35.735,23.695,6.136,5.864,28.688002,inter_set_rest,4,7.0,48535.0,191662.0,110322.0,199536.0,117016.0
2026-04-14 18:20:10.287302,898859,1609508303886015,5903856159,-1.091168,-0.042944,0.177632,-18.52375,-34.6675,23.05625,4.88,6.2,29.656002,inter_set_rest,4,7.0,48601.0,192269.0,110425.0,200138.0,117071.0
2026-04-14 18:20:10.290287,898860,1609508303895068,5903864893,-1.091168,-0.042944,0.177632,-23.275,-32.85625,22.47875,4.88,6.2,29.656002,inter_set_rest,4,7.0,48601.0,192269.0,110425.0,200138.0,117071.0
2026-04-14 18:20:10.297765,898861,1609508303909614,5903879965,-0.979904,-0.085888,0.265472,-27.36125,-31.185,20.50125,4.592,6.12,29.560001,inter_set_rest,4,7.0,48601.0,192269.0,110425.0,200138.0,117071.0
2026-04-14 18:20:10.306564,898862,1609508303918679,5903888718,-0.979904,-0.085888,0.265472,-29.26,-29.2425,17.87625,4.592,6.12,29.560001,inter_set_rest,4,7.0,48601.0,192269.0,110425.0,200138.0,117071.0
