pc_time,serial_num,sensor_ts,host_ts,ax,ay,az,gx,gy,gz,mx,my,mz,phase,rpe,weight_kg,ppg_a,ppg_b,ppg_c,ppg_d,ppg_e,ppg_f,ppg_g,ppg_h,ppg_i,ppg_j
2026-05-06 16:14:48.050014,687775,1609506351466463,3951378612,0.853024,-0.128832,0.154208,-14.86625,5.5475,7.5775,-32.576,-20.640001,-86.576004,none,6,5.0,33370.0,37687.0,89634.0,101347.0,32579.0,46456.0,38929.0,58828.0,21606.0,16198.0
2026-05-06 16:14:48.055146,687776,1609506351481527,3951393572,0.853024,-0.128832,0.154208,-12.74875,6.50125,7.3325,-32.576,-20.640001,-86.576004,none,6,5.0,33370.0,37687.0,89634.0,101347.0,32579.0,46456.0,38929.0,58828.0,21606.0,16198.0
2026-05-06 16:14:48.055448,687777,1609506351490493,3951402474,0.7808,-0.142496,0.072224,-7.7525,6.62375,5.74875,-32.72,-20.664001,-86.416,none,6,5.0,33370.0,37687.0,89634.0,101347.0,32579.0,46456.0,38929.0,58828.0,21606.0,16198.0
2026-05-06 16:14:48.057277,687778,1609506351499421,3951411265,0.7808,-0.142496,0.072224,-6.67625,6.5625,7.105,-32.72,-20.664001,-86.416,none,6,5.0,33370.0,37687.0,89634.0,101347.0,32579.0,46456.0,38929.0,58828.0,21606.0,16198.0
2026-05-06 16:14:48.085079,687779,1609506351513931,3951426176,0.872544,-0.167872,0.062464,-10.33375,6.3,10.0275,-32.752003,-20.720001,-86.616005,none,6,5.0,33370.0,37687.0,89634.0,101347.0,32579.0,46456.0,38929.0,58828.0,21606.0,16198.0
2026-05-06 16:14:48.110105,687780,1609506351522868,3951434871,0.872544,-0.167872,0.062464,-14.7,4.8125,10.5525,-32.752003,-20.720001,-86.616005,none,6,5.0,33370.0,37687.0,89634.0,101347.0,32579.0,46456.0,38929.0,58828.0,21606.0,16198.0
2026-05-06 16:14:48.141383,687781,1609506351537446,3951449808,0.815936,-0.085888,0.11712,-11.83,2.79125,9.16125,-32.808002,-18.928001,-87.712006,none,6,5.0,33370.0,37687.0,89634.0,101347.0,32579.0,46456.0,38929.0,58828.0,21606.0,16198.0
2026-05-06 16:14:48.143827,687782,1609506351546348,3951458500,0.815936,-0.085888,0.148352,-4.025,-0.51625,6.475,-32.808002,-18.928001,-87.712006,none,6,5.0,33370.0,37687.0,89634.0,101347.0,32579.0,46456.0,38929.0,58828.0,21606.0,16198.0
2026-05-06 16:14:48.148923,687783,1609506351560819,3951473400,0.817888,-0.142496,0.148352,-0.06125,-3.815,4.935,-32.872,-18.272001,-88.07201,none,6,5.0,33370.0,37687.0,89634.0,101347.0,32579.0,46456.0,38929.0,58828.0,21606.0,16198.0
2026-05-06 16:14:48.178915,687794,1609506351570008,3951482183,0.88816,-0.238144,0.093696,-2.84375,-6.475,4.9525,-32.944,-19.304,-87.75201,none,6,5.0,33538.0,37786.0,89794.0,101546.0,32709.0,46557.0,39028.0,58944.0,21688.0,16225.0
2026-05-06 16:14:48.181273,687795,1609506351579039,3951490930,0.88816,-0.238144,0.093696,-6.30875,-7.9625,4.6025,-32.944,-19.304,-87.75201,none,6,5.0,33538.0,37786.0,89794.0,101546.0,32709.0,46557.0,39028.0,58944.0,21688.0,16225.0
2026-05-06 16:14:48.184129,687796,1609506351593519,3951505897,0.94672,-0.111264,0.105408,-6.0375,-10.45625,4.90875,-32.832,-22.464,-86.76,none,6,5.0,33538.0,37786.0,89794.0,101546.0,32709.0,46557.0,39028.0,58944.0,21688.0,16225.0
2026-05-06 16:14:48.186243,687797,1609506351602675,3951514703,0.94672,-0.111264,0.105408,3.2025,-13.74625,5.59125,-32.832,-22.464,-86.76,none,6,5.0,33538.0,37786.0,89794.0,101546.0,32709.0,46557.0,39028.0,58944.0,21688.0,16225.0
2026-05-06 16:14:48.188906,687798,1609506351617242,3951529660,0.86864,-0.08784,0.201056,15.68,-16.26625,0.49875,-32.600002,-18.696001,-88.232,none,6,5.0,33538.0,37786.0,89794.0,101546.0,32709.0,46557.0,39028.0,58944.0,21688.0,16225.0
2026-05-06 16:14:48.191404,687799,1609506351626264,3951538358,0.86864,-0.08784,0.201056,16.1525,-17.00125,-4.235,-32.600002,-18.696001,-88.232,none,6,5.0,33538.0,37786.0,89794.0,101546.0,32709.0,46557.0,39028.0,58944.0,21688.0,16225.0
2026-05-06 16:14:48.193914,687800,1609506351635331,3951547114,0.870592,-0.203008,0.138592,6.02,-14.69125,-1.35625,-32.280003,-18.352001,-89.336006,none,6,5.0,33538.0,37786.0,89794.0,101546.0,32709.0,46557.0,39028.0,58944.0,21688.0,16225.0
2026-05-06 16:14:48.210660,687801,1609506351649840,3951562070,0.93696,-0.228384,0.132736,-4.45375,-11.47125,2.02125,-32.264,-19.656,-87.296005,none,6,5.0,33538.0,37786.0,89794.0,101546.0,32709.0,46557.0,39028.0,58944.0,21688.0,16225.0
2026-05-06 16:14:48.215968,687802,1609506351658792,3951570791,0.93696,-0.228384,0.132736,-9.63375,-9.695,2.38,-32.264,-19.656,-87.296005,none,6,5.0,33538.0,37786.0,89794.0,101546.0,32709.0,46557.0,39028.0,58944.0,21688.0,16225.0
2026-05-06 16:14:48.247170,687813,1609506351673536,3951585877,0.880352,-0.119072,0.1464,-8.995,-7.9625,3.4825,-32.296,-19.896002,-87.712006,none,6,5.0,33518.0,37777.0,89773.0,101609.0,32714.0,46607.0,39013.0,58976.0,21668.0,16248.0
2026-05-06 16:14:48.249679,687814,1609506351682548,3951594907,0.880352,-0.119072,0.1464,-4.64625,-5.41625,3.9725,-32.296,-19.896002,-87.712006,none,6,5.0,33518.0,37777.0,89773.0,101609.0,32714.0,46607.0,39013.0,58976.0,21668.0,16248.0
2026-05-06 16:14:48.253447,687815,1609506351697156,3951609906,0.862784,-0.160064,0.158112,-4.10375,-3.19375,1.56625,-32.36,-20.504002,-88.44,none,6,5.0,33518.0,37777.0,89773.0,101609.0,32714.0,46607.0,39013.0,58976.0,21668.0,16248.0
2026-05-06 16:14:48.266227,687816,1609506351706085,3951618667,0.862784,-0.160064,0.158112,-8.54875,-0.14,1.86375,-32.36,-20.504002,-88.44,none,6,5.0,33518.0,37777.0,89773.0,101609.0,32714.0,46607.0,39013.0,58976.0,21668.0,16248.0
2026-05-06 16:14:48.272592,687817,1609506351715169,3951627410,0.894016,-0.216672,0.083936,-12.34625,1.84625,2.12625,-32.280003,-18.096,-87.48801,none,6,5.0,33518.0,37777.0,89773.0,101609.0,32714.0,46607.0,39013.0,58976.0,21668.0,16248.0
2026-05-06 16:14:48.286380,687818,1609506351729679,3951642385,0.94672,-0.17568,0.103456,-12.425,2.5725,2.47625,-33.048,-20.080002,-87.16801,none,6,5.0,33518.0,37777.0,89773.0,101609.0,32714.0,46607.0,39013.0,58976.0,21668.0,16248.0
2026-05-06 16:14:48.294942,687819,1609506351738650,3951651103,0.94672,-0.17568,0.103456,-8.84625,2.12625,2.485,-33.048,-20.080002,-87.16801,none,6,5.0,33518.0,37777.0,89773.0,101609.0,32714.0,46607.0,39013.0,58976.0,21668.0,16248.0
2026-05-06 16:14:48.308789,687820,1609506351753192,3951663959,0.913536,-0.16592,0.169824,-2.975,2.2225,0.60375,-32.448,-18.464,-88.632,none,6,5.0,33518.0,37777.0,89773.0,101609.0,32714.0,46607.0,39013.0,58976.0,21668.0,16248.0
2026-05-06 16:14:48.317508,687821,1609506351762428,3951674767,0.913536,-0.16592,0.169824,-1.96,2.89625,-2.05625,-32.448,-18.464,-88.632,none,6,5.0,33518.0,37777.0,89773.0,101609.0,32714.0,46607.0,39013.0,58976.0,21668.0,16248.0
2026-05-06 16:14:48.348843,687832,1609506351771920,3951684288,0.853024,-0.17568,0.197152,-4.78625,3.64875,-3.4475,-32.272003,-18.224,-88.16801,none,6,5.0,33561.0,37864.0,89871.0,101620.0,32773.0,46719.0,39088.0,58962.0,21711.0,16295.0
2026-05-06 16:14:48.351310,687833,1609506351786512,3951699257,0.853024,-0.17568,0.197152,-6.60625,3.22,-4.165,-32.272003,-18.224,-88.16801,none,6,5.0,33561.0,37864.0,89871.0,101620.0,32773.0,46719.0,39088.0,58962.0,21711.0,16295.0
2026-05-06 16:14:48.353758,687834,1609506351795501,3951708017,0.931104,-0.191296,0.109312,-4.96125,2.10875,-4.235,-32.528,-19.808,-86.128006,none,6,5.0,33561.0,37864.0,89871.0,101620.0,32773.0,46719.0,39088.0,58962.0,21711.0,16295.0
2026-05-06 16:14:48.368783,687835,1609506351810033,3951720880,0.892064,-0.183488,0.140544,-2.8175,0.9275,-3.815,-32.752003,-19.784,-86.8,none,6,5.0,33561.0,37864.0,89871.0,101620.0,32773.0,46719.0,39088.0,58962.0,21711.0,16295.0
2026-05-06 16:14:48.374867,687836,1609506351819319,3951731720,0.892064,-0.183488,0.140544,-0.315,0.58625,-5.705,-32.752003,-19.784,-86.8,none,6,5.0,33561.0,37864.0,89871.0,101620.0,32773.0,46719.0,39088.0,58962.0,21711.0,16295.0
2026-05-06 16:14:48.388976,687837,1609506351828260,3951740473,0.892064,-0.183488,0.171776,1.68,0.79625,-8.7325,-32.752003,-19.784,-86.8,none,6,5.0,33561.0,37864.0,89871.0,101620.0,32773.0,46719.0,39088.0,58962.0,21711.0,16295.0
2026-05-06 16:14:48.402496,687838,1609506351842879,3951755391,0.854976,-0.199104,0.173728,-0.07875,0.84,-8.58375,-32.752003,-19.880001,-88.84801,none,6,5.0,33561.0,37864.0,89871.0,101620.0,32773.0,46719.0,39088.0,58962.0,21711.0,16295.0
2026-05-06 16:14:48.408649,687839,1609506351851786,3951764119,0.899872,-0.193248,0.150304,-0.91875,1.96875,-7.41125,-32.288002,-18.416,-88.48,none,6,5.0,33561.0,37864.0,89871.0,101620.0,32773.0,46719.0,39088.0,58962.0,21711.0,16295.0
2026-05-06 16:14:48.422431,687840,1609506351866442,3951779141,0.899872,-0.193248,0.150304,-0.86625,2.98375,-6.04625,-32.288002,-18.416,-88.48,none,6,5.0,33561.0,37864.0,89871.0,101620.0,32773.0,46719.0,39088.0,58962.0,21711.0,16295.0
2026-05-06 16:14:48.508570,687851,1609506351875525,3951787973,0.841312,-0.18544,0.124928,-1.84625,4.55,-5.7225,-32.352,-18.184,-87.816,none,6,5.0,33707.0,37978.0,89819.0,101342.0,32876.0,46820.0,39026.0,58819.0,21746.0,16313.0
2026-05-06 16:14:48.511044,687852,1609506351884502,3951796760,0.841312,-0.18544,0.124928,-3.535,6.20375,-6.93875,-32.352,-18.184,-87.816,none,6,5.0,33707.0,37978.0,89819.0,101342.0,32876.0,46820.0,39026.0,58819.0,21746.0,16313.0
2026-05-06 16:14:48.513391,687853,1609506351899000,3951811747,0.860832,-0.1952,0.171776,-5.0225,7.23625,-6.92125,-33.04,-21.44,-85.536,none,6,5.0,33707.0,37978.0,89819.0,101342.0,32876.0,46820.0,39026.0,58819.0,21746.0,16313.0
2026-05-06 16:14:48.516053,687854,1609506351907931,3951820451,0.860832,-0.1952,0.171776,-6.44,7.62125,-5.95,-33.04,-21.44,-85.536,none,6,5.0,33707.0,37978.0,89819.0,101342.0,32876.0,46820.0,39026.0,58819.0,21746.0,16313.0
2026-05-06 16:14:48.518480,687855,1609506351922445,3951833403,0.8296,-0.179584,0.134688,-6.1775,8.89875,-6.25625,-32.768,-18.512001,-85.16,none,6,5.0,33707.0,37978.0,89819.0,101342.0,32876.0,46820.0,39026.0,58819.0,21746.0,16313.0
2026-05-06 16:14:48.520988,687856,1609506351931827,3951844164,0.845216,-0.197152,0.11712,-6.08125,9.292501,-6.09875,-32.672,-18.44,-87.624,none,6,5.0,33707.0,37978.0,89819.0,101342.0,32876.0,46820.0,39026.0,58819.0,21746.0,16313.0
2026-05-06 16:14:48.523496,687857,1609506351940786,3951853059,0.845216,-0.197152,0.11712,-7.72625,10.36,-4.85625,-32.672,-18.44,-87.624,none,6,5.0,33707.0,37978.0,89819.0,101342.0,32876.0,46820.0,39026.0,58819.0,21746.0,16313.0
2026-05-06 16:14:48.525862,687858,1609506351955459,3951868127,0.802272,-0.193248,0.111264,-8.9775,11.7075,-4.41875,-33.016003,-20.632002,-86.600006,none,6,5.0,33707.0,37978.0,89819.0,101342.0,32876.0,46820.0,39026.0,58819.0,21746.0,16313.0
2026-05-06 16:14:48.528397,687859,1609506351964449,3951876835,0.802272,-0.193248,0.111264,-6.37875,11.4975,-4.2875,-33.016003,-20.632002,-86.600006,none,6,5.0,33707.0,37978.0,89819.0,101342.0,32876.0,46820.0,39026.0,58819.0,21746.0,16313.0
2026-05-06 16:14:48.562747,687870,1609506351979547,3951891972,0.821792,-0.203008,0.113216,-5.46,11.13875,-3.4825,-33.112003,-19.792002,-86.744,none,6,5.0,33990.0,38138.0,89955.0,101467.0,33123.0,46989.0,39086.0,58858.0,21887.0,16417.0
2026-05-06 16:14:48.563577,687871,1609506351988591,3951900794,0.821792,-0.203008,0.113216,-5.83625,11.36625,-3.0275,-33.112003,-19.792002,-86.744,none,6,5.0,33990.0,38138.0,89955.0,101467.0,33123.0,46989.0,39086.0,58858.0,21887.0,16417.0
2026-05-06 16:14:48.566015,687872,1609506351997573,3951909509,0.812032,-0.18544,0.11712,-5.43375,10.85875,-3.57,-33.424,-20.352001,-86.80801,none,6,5.0,33990.0,38138.0,89955.0,101467.0,33123.0,46989.0,39086.0,58858.0,21887.0,16417.0
2026-05-06 16:14:48.569102,687873,1609506352012056,3951924446,0.81984,-0.167872,0.103456,-5.7575,10.99875,-4.375,-33.328003,-20.320002,-86.54401,none,6,5.0,33990.0,38138.0,89955.0,101467.0,33123.0,46989.0,39086.0,58858.0,21887.0,16417.0
2026-05-06 16:14:48.579685,687874,1609506352021152,3951933191,0.81984,-0.167872,0.103456,-5.48625,10.92,-4.795,-33.328003,-20.320002,-86.54401,none,6,5.0,33990.0,38138.0,89955.0,101467.0,33123.0,46989.0,39086.0,58858.0,21887.0,16417.0
2026-05-06 16:14:48.603775,687875,1609506352035800,3951948207,0.837408,-0.197152,0.177632,-5.9325,10.87625,-5.4425,-33.576,-18.952002,-87.368004,none,6,5.0,33990.0,38138.0,89955.0,101467.0,33123.0,46989.0,39086.0,58858.0,21887.0,16417.0
2026-05-06 16:14:48.606199,687876,1609506352044729,3951956907,0.837408,-0.197152,0.177632,-7.86625,12.60875,-4.76875,-33.576,-18.952002,-87.368004,none,6,5.0,33990.0,38138.0,89955.0,101467.0,33123.0,46989.0,39086.0,58858.0,21887.0,16417.0
2026-05-06 16:14:48.619857,687877,1609506352059242,3951971825,0.798368,-0.199104,0.148352,-9.66875,13.32625,-4.2,-33.504,-18.720001,-87.288,none,6,5.0,33990.0,38138.0,89955.0,101467.0,33123.0,46989.0,39086.0,58858.0,21887.0,16417.0
2026-05-06 16:14:48.626107,687878,1609506352068169,3951980506,0.798368,-0.199104,0.148352,-10.94625,13.2475,-3.3775,-33.504,-18.720001,-87.288,none,6,5.0,33990.0,38138.0,89955.0,101467.0,33123.0,46989.0,39086.0,58858.0,21887.0,16417.0
2026-05-06 16:14:48.656274,687889,1609506352077293,3951989328,0.812032,-0.18544,0.17568,-11.73375,13.1075,-3.395,-33.632,-18.936,-87.248,none,6,5.0,34169.0,38122.0,90112.0,101736.0,33228.0,46996.0,39123.0,58990.0,21940.0,16427.0
2026-05-06 16:14:48.658862,687890,1609506352091804,3952004265,0.753472,-0.16592,0.130784,-12.04,12.792501,-3.28125,-33.960003,-22.36,-85.96001,none,6,5.0,34169.0,38122.0,90112.0,101736.0,33228.0,46996.0,39123.0,58990.0,21940.0,16427.0
2026-05-06 16:14:48.661400,687891,1609506352100731,3952013056,0.753472,-0.16592,0.130784,-11.480001,12.94125,-3.24625,-33.960003,-22.36,-85.96001,none,6,5.0,34169.0,38122.0,90112.0,101736.0,33228.0,46996.0,39123.0,58990.0,21940.0,16427.0
2026-05-06 16:14:48.678984,687892,1609506352115485,3952027974,0.759328,-0.16592,0.183488,-10.92,13.95625,-3.14125,-33.808002,-20.664001,-85.728004,none,6,5.0,34169.0,38122.0,90112.0,101736.0,33228.0,46996.0,39123.0,58990.0,21940.0,16427.0
2026-05-06 16:14:48.685006,687893,1609506352124508,3952036712,0.759328,-0.16592,0.183488,-11.27875,13.90375,-1.91625,-33.808002,-20.664001,-85.728004,none,6,5.0,34169.0,38122.0,90112.0,101736.0,33228.0,46996.0,39123.0,58990.0,21940.0,16427.0
2026-05-06 16:14:48.688749,687894,1609506352133609,3952045463,0.755424,-0.160064,0.13664,-13.5625,13.09875,0.84875,-34.176003,-20.776001,-85.368004,none,6,5.0,34169.0,38122.0,90112.0,101736.0,33228.0,46996.0,39123.0,58990.0,21940.0,16427.0
2026-05-06 16:14:48.725092,687895,1609506352148104,3952060435,0.755424,-0.160064,0.13664,-14.81375,12.705,2.23125,-34.176003,-20.776001,-85.368004,concentric,6,5.0,34169.0,38122.0,90112.0,101736.0,33228.0,46996.0,39123.0,58990.0,21940.0,16427.0
2026-05-06 16:14:48.727662,687896,1609506352157000,3952069132,0.714432,-0.177632,0.183488,-16.03875,11.87375,1.39125,-34.480003,-18.904001,-86.632,concentric,6,5.0,34169.0,38122.0,90112.0,101736.0,33228.0,46996.0,39123.0,58990.0,21940.0,16427.0
2026-05-06 16:14:48.760920,687907,1609506352171739,3952084496,0.765184,-0.18544,0.113216,-16.17,11.57625,1.19,-34.480003,-18.776001,-86.976006,concentric,6,5.0,34188.0,38079.0,90115.0,101665.0,33257.0,46985.0,39174.0,58979.0,21976.0,16406.0
2026-05-06 16:14:48.763150,687908,1609506352180782,3952093231,0.765184,-0.18544,0.113216,-13.5625,11.40125,3.50875,-34.648003,-18.776001,-86.976006,concentric,6,5.0,34188.0,38079.0,90115.0,101665.0,33257.0,46985.0,39174.0,58979.0,21976.0,16406.0
2026-05-06 16:14:48.764910,687909,1609506352195525,3952108223,0.767136,-0.138592,0.162016,-15.30375,10.61375,4.76875,-34.320004,-20.984001,-85.312004,concentric,6,5.0,34188.0,38079.0,90115.0,101665.0,33257.0,46985.0,39174.0,58979.0,21976.0,16406.0
2026-05-06 16:14:48.767534,687910,1609506352204494,3952116970,0.767136,-0.138592,0.162016,-18.90875,11.4975,3.59625,-34.320004,-20.984001,-85.312004,concentric,6,5.0,34188.0,38079.0,90115.0,101665.0,33257.0,46985.0,39174.0,58979.0,21976.0,16406.0
2026-05-06 16:14:48.770028,687911,1609506352213453,3952125679,0.706624,-0.121024,0.193248,-19.57375,11.64625,2.66,-34.800003,-21.792002,-83.936005,concentric,6,5.0,34188.0,38079.0,90115.0,101665.0,33257.0,46985.0,39174.0,58979.0,21976.0,16406.0
2026-05-06 16:14:48.788849,687912,1609506352227955,3952140665,0.706624,-0.121024,0.193248,-19.87125,11.0075,1.84625,-34.800003,-21.792002,-83.936005,concentric,6,5.0,34188.0,38079.0,90115.0,101665.0,33257.0,46985.0,39174.0,58979.0,21976.0,16406.0
2026-05-06 16:14:48.795087,687913,1609506352236863,3952149358,0.747616,-0.1464,0.160064,-19.31125,9.82625,3.325,-34.608,-19.336,-85.68,concentric,6,5.0,34188.0,38079.0,90115.0,101665.0,33257.0,46985.0,39174.0,58979.0,21976.0,16406.0
2026-05-06 16:14:48.830228,687914,1609506352251426,3952162272,0.747616,-0.1464,0.113216,-19.9325,8.1725,4.025,-34.608,-19.336,-85.68,concentric,6,5.0,34188.0,38079.0,90115.0,101665.0,33257.0,46985.0,39174.0,58979.0,21976.0,16406.0
2026-05-06 16:14:48.855023,687915,1609506352260800,3952173075,0.81984,-0.222528,0.121024,-20.965,7.2275,4.47125,-35.128002,-18.872002,-86.20801,concentric,6,5.0,34188.0,38079.0,90115.0,101665.0,33257.0,46985.0,39174.0,58979.0,21976.0,16406.0
2026-05-06 16:14:48.879917,687916,1609506352269742,3952181776,0.81984,-0.222528,0.121024,-22.9425,7.9975,1.8025,-35.128002,-18.872002,-86.20801,concentric,6,5.0,34188.0,38079.0,90115.0,101665.0,33257.0,46985.0,39174.0,58979.0,21976.0,16406.0
2026-05-06 16:14:48.909818,687927,1609506352284462,3952196706,0.765184,-0.181536,0.216672,-22.44375,8.365,-1.28625,-35.008003,-19.2,-85.456,concentric,6,5.0,34281.0,37989.0,90232.0,101735.0,33293.0,46933.0,39243.0,59044.0,21984.0,16408.0
2026-05-06 16:14:48.912347,687928,1609506352293548,3952205572,0.747616,-0.07808,0.206912,-13.92125,7.72625,-0.14875,-35.304,-19.088001,-86.008,concentric,6,5.0,34281.0,37989.0,90232.0,101735.0,33293.0,46933.0,39243.0,59044.0,21984.0,16408.0
2026-05-06 16:14:48.914736,687929,1609506352308167,3952220485,0.747616,-0.07808,0.206912,-6.43125,6.4575,0.945,-35.304,-19.088001,-86.008,concentric,6,5.0,34281.0,37989.0,90232.0,101735.0,33293.0,46933.0,39243.0,59044.0,21984.0,16408.0
2026-05-06 16:14:48.917332,687930,1609506352317076,3952229183,0.825696,-0.13664,0.13664,-9.1875,7.1575,0.58625,-35.264,-19.288,-85.648,concentric,6,5.0,34281.0,37989.0,90232.0,101735.0,33293.0,46933.0,39243.0,59044.0,21984.0,16408.0
2026-05-06 16:14:48.919949,687931,1609506352326029,3952237929,0.825696,-0.13664,0.13664,-17.491251,9.52,0.7525,-35.264,-19.288,-85.648,concentric,6,5.0,34281.0,37989.0,90232.0,101735.0,33293.0,46933.0,39243.0,59044.0,21984.0,16408.0
2026-05-06 16:14:48.922640,687932,1609506352340729,3952252908,0.798368,-0.212768,0.201056,-24.6925,11.82125,0.5075,-35.68,-20.048,-85.840004,concentric,6,5.0,34281.0,37989.0,90232.0,101735.0,33293.0,46933.0,39243.0,59044.0,21984.0,16408.0
2026-05-06 16:14:48.925066,687933,1609506352349776,3952261609,0.798368,-0.212768,0.201056,-26.7925,14.46375,-0.00875,-35.68,-20.048,-85.840004,concentric,6,5.0,34281.0,37989.0,90232.0,101735.0,33293.0,46933.0,39243.0,59044.0,21984.0,16408.0
2026-05-06 16:14:48.927566,687934,1609506352364333,3952276716,0.749568,-0.163968,0.277184,-24.80625,15.11125,-1.33875,-35.896,-20.664001,-85.560005,concentric,6,5.0,34281.0,37989.0,90232.0,101735.0,33293.0,46933.0,39243.0,59044.0,21984.0,16408.0
2026-05-06 16:14:48.954637,687945,1609506352374040,3952285646,0.802272,-0.093696,0.187392,-22.715,15.46125,-2.56375,-36.056004,-19.344002,-84.48,concentric,6,5.0,34183.0,37861.0,90150.0,101437.0,33169.0,46799.0,39188.0,58883.0,21915.0,16326.0
2026-05-06 16:14:48.957148,687946,1609506352383073,3952294551,0.802272,-0.093696,0.187392,-17.255,15.5925,-2.7125,-36.056004,-19.344002,-84.48,concentric,6,5.0,34183.0,37861.0,90150.0,101437.0,33169.0,46799.0,39188.0,58883.0,21915.0,16326.0
2026-05-06 16:14:48.959609,687947,1609506352397639,3952309492,0.880352,-0.142496,0.142496,-13.85125,15.1375,-2.10875,-36.368,-19.472,-84.872,concentric,6,5.0,34183.0,37861.0,90150.0,101437.0,33169.0,46799.0,39188.0,58883.0,21915.0,16326.0
2026-05-06 16:14:48.962123,687948,1609506352406581,3952318216,0.880352,-0.142496,0.142496,-16.91375,16.42375,-1.60125,-36.368,-19.472,-84.872,concentric,6,5.0,34183.0,37861.0,90150.0,101437.0,33169.0,46799.0,39188.0,58883.0,21915.0,16326.0
2026-05-06 16:14:48.976145,687949,1609506352421116,3952333164,0.737856,-0.15616,0.279136,-21.84875,19.897501,-4.33125,-36.088,-20.048,-84.43201,concentric,6,5.0,34183.0,37861.0,90150.0,101437.0,33169.0,46799.0,39188.0,58883.0,21915.0,16326.0
2026-05-06 16:14:48.989942,687950,1609506352430105,3952341907,0.737856,-0.15616,0.279136,-23.23125,19.9675,-7.8925,-36.088,-20.048,-84.43201,concentric,6,5.0,34183.0,37861.0,90150.0,101437.0,33169.0,46799.0,39188.0,58883.0,21915.0,16326.0
2026-05-06 16:14:48.996396,687951,1609506352439021,3952350588,0.753472,-0.07808,0.199104,-20.965,19.4775,-7.21,-36.496002,-19.888,-84.52801,concentric,6,5.0,34183.0,37861.0,90150.0,101437.0,33169.0,46799.0,39188.0,58883.0,21915.0,16326.0
2026-05-06 16:14:49.010077,687952,1609506352453671,3952365537,0.909632,-0.163968,0.16592,-19.73125,19.53,-8.46125,-36.496002,-19.888,-86.04,concentric,6,5.0,34183.0,37861.0,90150.0,101437.0,33169.0,46799.0,39188.0,58883.0,21915.0,16326.0
2026-05-06 16:14:49.018826,687953,1609506352462600,3952374262,0.909632,-0.163968,0.16592,-19.95875,20.9125,-10.9375,-36.760002,-19.904001,-86.04,concentric,6,5.0,34183.0,37861.0,90150.0,101437.0,33169.0,46799.0,39188.0,58883.0,21915.0,16326.0
2026-05-06 16:14:49.052519,687964,1609506352477471,3952389224,0.74176,-0.218624,0.335744,-22.645,23.5725,-12.46,-37.096,-21.576,-82.76,concentric,6,5.0,33999.0,37607.0,90244.0,101251.0,32974.0,46444.0,39188.0,58754.0,21799.0,16114.0
2026-05-06 16:14:49.054977,687965,1609506352486559,3952397999,0.74176,-0.218624,0.335744,-25.03375,26.075,-17.0625,-37.096,-21.576,-82.76,concentric,6,5.0,33999.0,37607.0,90244.0,101251.0,32974.0,46444.0,39188.0,58754.0,21799.0,16114.0
2026-05-06 16:14:49.057561,687966,1609506352501093,3952412952,0.71248,-0.07808,0.290848,-18.15625,23.975,-15.26,-37.52,-22.352001,-82.536,concentric,6,5.0,33999.0,37607.0,90244.0,101251.0,32974.0,46444.0,39188.0,58754.0,21799.0,16114.0
2026-05-06 16:14:49.066223,687967,1609506352510038,3952421685,0.71248,-0.07808,0.290848,-11.480001,21.42,-11.83875,-37.52,-22.352001,-82.536,concentric,6,5.0,33999.0,37607.0,90244.0,101251.0,32974.0,46444.0,39188.0,58754.0,21799.0,16114.0
2026-05-06 16:14:49.075073,687968,1609506352518954,3952430481,1.046272,-0.1464,0.12688,-7.83125,19.5125,-12.81,-37.344,-20.472,-83.600006,concentric,6,5.0,33999.0,37607.0,90244.0,101251.0,32974.0,46444.0,39188.0,58754.0,21799.0,16114.0
2026-05-06 16:14:49.090158,687969,1609506352533445,3952445396,1.046272,-0.1464,0.12688,-5.57375,19.495,-14.06125,-37.344,-20.472,-83.600006,concentric,6,5.0,33999.0,37607.0,90244.0,101251.0,32974.0,46444.0,39188.0,58754.0,21799.0,16114.0
2026-05-06 16:14:49.098754,687970,1609506352542384,3952454127,0.8784,-0.181536,0.406016,-8.6275,23.205,-13.81625,-37.736,-20.640001,-82.688,concentric,6,5.0,33999.0,37607.0,90244.0,101251.0,32974.0,46444.0,39188.0,58754.0,21799.0,16114.0
2026-05-06 16:14:49.112668,687971,1609506352556895,3952469074,0.798368,-0.076128,0.314272,-8.295,24.91125,-18.935,-38.224003,-22.544,-81.76,concentric,6,5.0,33999.0,37607.0,90244.0,101251.0,32974.0,46444.0,39188.0,58754.0,21799.0,16114.0
2026-05-06 16:14:49.121416,687972,1609506352566007,3952477767,0.798368,-0.076128,0.314272,-4.025,21.74375,-19.18875,-38.224003,-22.544,-81.76,concentric,6,5.0,33999.0,37607.0,90244.0,101251.0,32974.0,46444.0,39188.0,58754.0,21799.0,16114.0
2026-05-06 16:14:49.157499,687984,1609506352575337,3952487116,0.991616,0.0,0.228384,-3.98125,18.90875,-14.875,-38.048,-21.144001,-83.136,concentric,6,5.0,34033.0,37663.0,90556.0,101861.0,32995.0,46476.0,39341.0,59004.0,21783.0,16134.0
2026-05-06 16:14:49.159964,687985,1609506352589920,3952502226,0.991616,0.0,0.228384,-7.5775,17.01875,-19.03125,-38.048,-21.144001,-83.136,concentric,6,5.0,34033.0,37663.0,90556.0,101861.0,32995.0,46476.0,39341.0,59004.0,21783.0,16134.0
2026-05-06 16:14:49.162527,687986,1609506352598908,3952510985,1.091168,-0.21472,0.347456,-12.1275,17.22875,-24.78,-38.456,-25.008001,-80.96001,concentric,6,5.0,34033.0,37663.0,90556.0,101861.0,32995.0,46476.0,39341.0,59004.0,21783.0,16134.0
2026-05-06 16:14:49.168863,687987,1609506352613454,3952525946,1.091168,-0.21472,0.347456,-18.08625,20.32625,-22.72375,-38.456,-25.008001,-80.96001,concentric,6,5.0,34033.0,37663.0,90556.0,101861.0,32995.0,46476.0,39341.0,59004.0,21783.0,16134.0
2026-05-06 16:14:49.197526,687988,1609506352622497,3952534668,0.90768,-0.269376,0.417728,-22.72375,23.485,-20.055,-38.352,-23.28,-80.32001,concentric,6,5.0,34033.0,37663.0,90556.0,101861.0,32995.0,46476.0,39341.0,59004.0,21783.0,16134.0
2026-05-06 16:14:49.222677,687989,1609506352636977,3952549564,0.94672,-0.02928,0.327936,-16.8175,23.30125,-15.14625,-38.800003,-21.392,-82.232,concentric,6,5.0,34033.0,37663.0,90556.0,101861.0,32995.0,46476.0,39341.0,59004.0,21783.0,16134.0
2026-05-06 16:14:49.244360,687990,1609506352645920,3952558262,0.94672,-0.02928,0.327936,-3.82375,20.4225,-9.8,-38.800003,-21.392,-82.232,concentric,6,5.0,34033.0,37663.0,90556.0,101861.0,32995.0,46476.0,39341.0,59004.0,21783.0,16134.0
2026-05-06 16:14:49.246085,687991,1609506352654866,3952567040,0.94672,-0.10736,0.261568,-1.5925,18.13,-14.2975,-38.800003,-21.392,-82.232,concentric,6,5.0,34033.0,37663.0,90556.0,101861.0,32995.0,46476.0,39341.0,59004.0,21783.0,16134.0
2026-05-06 16:14:49.248682,687992,1609506352669339,3952581938,1.173152,-0.10736,0.261568,-10.43,17.29,-21.83125,-38.976,-21.544,-83.192,concentric,6,5.0,34033.0,37663.0,90556.0,101861.0,32995.0,46476.0,39341.0,59004.0,21783.0,16134.0
2026-05-06 16:14:49.276349,688003,1609506352678461,3952590775,0.948672,-0.310368,0.378688,-19.31125,19.25875,-23.66,-38.616,-22.776001,-81.552,concentric,6,5.0,33904.0,37451.0,90804.0,101951.0,32833.0,46197.0,39437.0,59123.0,21639.0,15944.0
2026-05-06 16:14:49.278860,688004,1609506352693004,3952605804,0.948672,-0.310368,0.378688,-23.66875,20.39625,-22.645,-38.616,-22.776001,-81.552,concentric,6,5.0,33904.0,37451.0,90804.0,101951.0,32833.0,46197.0,39437.0,59123.0,21639.0,15944.0
2026-05-06 16:14:49.281317,688005,1609506352702097,3952614543,0.948672,-0.201056,0.38064,-16.94875,16.7825,-17.45625,-39.376003,-23.992,-79.888,concentric,6,5.0,33904.0,37451.0,90804.0,101951.0,32833.0,46197.0,39437.0,59123.0,21639.0,15944.0
2026-05-06 16:14:49.283813,688006,1609506352711167,3952623301,0.948672,-0.201056,0.38064,-9.1175,13.34375,-13.58875,-39.376003,-23.992,-79.888,concentric,6,5.0,33904.0,37451.0,90804.0,101951.0,32833.0,46197.0,39437.0,59123.0,21639.0,15944.0
2026-05-06 16:14:49.286374,688007,1609506352725713,3952638269,1.050176,-0.042944,0.275232,-3.8325,12.04,-15.225,-39.416,-25.776001,-78.896,concentric,6,5.0,33904.0,37451.0,90804.0,101951.0,32833.0,46197.0,39437.0,59123.0,21639.0,15944.0
2026-05-06 16:14:49.296517,688008,1609506352734664,3952647042,1.050176,-0.042944,0.275232,2.70375,10.54375,-16.84375,-39.416,-25.776001,-78.896,concentric,6,5.0,33904.0,37451.0,90804.0,101951.0,32833.0,46197.0,39437.0,59123.0,21639.0,15944.0
2026-05-06 16:14:49.319960,688009,1609506352749250,3952661951,1.050176,-0.212768,0.411872,0.84,10.7975,-17.85,-39.624,-26.216002,-81.16,concentric,6,5.0,33904.0,37451.0,90804.0,101951.0,32833.0,46197.0,39437.0,59123.0,21639.0,15944.0
2026-05-06 16:14:49.322976,688010,1609506352758171,3952670664,0.903776,-0.230336,0.417728,-8.23375,13.51875,-19.241251,-39.600002,-22.576,-81.08,concentric,6,5.0,33904.0,37451.0,90804.0,101951.0,32833.0,46197.0,39437.0,59123.0,21639.0,15944.0
2026-05-06 16:14:49.327335,688011,1609506352772662,3952683511,0.903776,-0.230336,0.417728,-6.125,13.3525,-15.37375,-39.600002,-22.576,-81.08,concentric,6,5.0,33904.0,37451.0,90804.0,101951.0,32833.0,46197.0,39437.0,59123.0,21639.0,15944.0
2026-05-06 16:14:49.380230,688022,1609506352782256,3952694637,0.925248,-0.091744,0.298656,0.21,11.725,-10.73625,-39.376003,-23.392,-80.832,concentric,6,5.0,34156.0,37702.0,90993.0,102342.0,33032.0,46490.0,39514.0,59266.0,21760.0,16092.0
2026-05-06 16:14:49.382484,688023,1609506352791271,3952703374,0.925248,-0.091744,0.298656,0.06125,10.6925,-10.50875,-39.376003,-23.392,-80.832,concentric,6,5.0,34156.0,37702.0,90993.0,102342.0,33032.0,46490.0,39514.0,59266.0,21760.0,16092.0
2026-05-06 16:14:49.384858,688024,1609506352805745,3952718322,0.976,-0.05856,0.357216,-0.32375,10.29875,-12.0225,-39.800003,-22.984001,-80.952,concentric,6,5.0,34156.0,37702.0,90993.0,102342.0,33032.0,46490.0,39514.0,59266.0,21760.0,16092.0
2026-05-06 16:14:49.387375,688025,1609506352814715,3952727184,0.976,-0.05856,0.357216,-2.765,11.33125,-14.8575,-39.800003,-22.984001,-80.952,concentric,6,5.0,34156.0,37702.0,90993.0,102342.0,33032.0,46490.0,39514.0,59266.0,21760.0,16092.0
2026-05-06 16:14:49.389935,688026,1609506352829240,3952740096,0.870592,-0.20496,0.384544,-8.715,14.11375,-15.82,-39.808002,-24.608002,-79.176,concentric,6,5.0,34156.0,37702.0,90993.0,102342.0,33032.0,46490.0,39514.0,59266.0,21760.0,16092.0
2026-05-06 16:14:49.396452,688027,1609506352838535,3952750904,0.909632,-0.187392,0.353312,-10.7975,14.0525,-13.11625,-39.928,-24.696001,-78.976006,concentric,6,5.0,34156.0,37702.0,90993.0,102342.0,33032.0,46490.0,39514.0,59266.0,21760.0,16092.0
2026-05-06 16:14:49.405166,688028,1609506352847445,3952759611,0.909632,-0.187392,0.353312,-8.72375,11.6375,-9.38875,-39.928,-24.696001,-78.976006,concentric,6,5.0,34156.0,37702.0,90993.0,102342.0,33032.0,46490.0,39514.0,59266.0,21760.0,16092.0
2026-05-06 16:14:49.418756,688029,1609506352861995,3952774640,0.979904,-0.080032,0.306464,-5.15375,9.37125,-7.4725,-39.904003,-24.568,-78.816,concentric,6,5.0,34156.0,37702.0,90993.0,102342.0,33032.0,46490.0,39514.0,59266.0,21760.0,16092.0
2026-05-06 16:14:49.429265,688030,1609506352870929,3952783350,0.979904,-0.080032,0.306464,-4.43625,6.99125,-8.49625,-39.904003,-24.568,-78.816,concentric,6,5.0,34156.0,37702.0,90993.0,102342.0,33032.0,46490.0,39514.0,59266.0,21760.0,16092.0
2026-05-06 16:14:49.454943,688041,1609506352885548,3952796388,0.99552,-0.169824,0.359168,-5.27625,5.775,-9.6425,-40.584003,-24.664001,-79.05601,concentric,6,5.0,34345.0,37856.0,91100.0,103002.0,33201.0,46691.0,39549.0,59545.0,21853.0,16173.0
2026-05-06 16:14:49.457510,688042,1609506352894862,3952807265,0.99552,-0.169824,0.359168,-9.3975,7.00875,-11.1825,-40.584003,-24.664001,-79.05601,concentric,6,5.0,34345.0,37856.0,91100.0,103002.0,33201.0,46691.0,39549.0,59545.0,21853.0,16173.0
2026-05-06 16:14:49.460042,688043,1609506352903907,3952816020,0.931104,-0.222528,0.38064,-11.9,8.46125,-10.49125,-40.288002,-26.632002,-78.312004,concentric,6,5.0,34345.0,37856.0,91100.0,103002.0,33201.0,46691.0,39549.0,59545.0,21853.0,16173.0
2026-05-06 16:14:49.473767,688044,1609506352918408,3952830980,0.981856,-0.122976,0.365024,-9.1175,7.0175,-7.58625,-40.184002,-23.624,-80.08,concentric,6,5.0,34345.0,37856.0,91100.0,103002.0,33201.0,46691.0,39549.0,59545.0,21853.0,16173.0
2026-05-06 16:14:49.487632,688045,1609506352927357,3952839697,0.981856,-0.122976,0.365024,-6.51,5.3375,-6.265,-40.184002,-23.624,-80.08,concentric,6,5.0,34345.0,37856.0,91100.0,103002.0,33201.0,46691.0,39549.0,59545.0,21853.0,16173.0
2026-05-06 16:14:49.496403,688046,1609506352941864,3952852648,1.018944,-0.138592,0.31232,-5.915,4.69875,-5.3025,-39.920002,-23.112001,-80.048004,concentric,6,5.0,34345.0,37856.0,91100.0,103002.0,33201.0,46691.0,39549.0,59545.0,21853.0,16173.0
2026-05-06 16:14:49.509676,688047,1609506352951147,3952863421,1.018944,-0.138592,0.31232,-5.22375,3.43,-6.13375,-39.920002,-23.112001,-80.048004,concentric,6,5.0,34345.0,37856.0,91100.0,103002.0,33201.0,46691.0,39549.0,59545.0,21853.0,16173.0
2026-05-06 16:14:49.515073,688048,1609506352960097,3952872176,0.954528,-0.232288,0.423584,-9.1,3.80625,-7.86625,-39.952003,-25.152,-78.824005,concentric,6,5.0,34345.0,37856.0,91100.0,103002.0,33201.0,46691.0,39549.0,59545.0,21853.0,16173.0
2026-05-06 16:14:49.647570,688059,1609506352974616,3952887271,0.954528,-0.232288,0.423584,-11.89125,4.38375,-7.0175,-39.952003,-25.152,-78.824005,concentric,6,5.0,34403.0,37909.0,91045.0,102886.0,33209.0,46675.0,39514.0,59459.0,21863.0,16163.0
2026-05-06 16:14:49.650119,688060,1609506352983790,3952895958,0.94672,-0.140544,0.36112,-7.525,3.15,-4.0775,-39.968002,-23.752,-79.90401,concentric,6,5.0,34403.0,37909.0,91045.0,102886.0,33209.0,46675.0,39514.0,59459.0,21863.0,16163.0
2026-05-06 16:14:49.652586,688061,1609506352998353,3952910976,0.962336,-0.109312,0.374784,-3.8325,1.19875,-2.1175,-40.208,-23.544,-79.784004,concentric,6,5.0,34403.0,37909.0,91045.0,102886.0,33209.0,46675.0,39514.0,59459.0,21863.0,16163.0
2026-05-06 16:14:49.655091,688062,1609506353007294,3952919695,0.962336,-0.109312,0.374784,-5.66125,0.56,-2.7825,-40.208,-23.544,-79.784004,concentric,6,5.0,34403.0,37909.0,91045.0,102886.0,33209.0,46675.0,39514.0,59459.0,21863.0,16163.0
2026-05-06 16:14:49.657575,688063,1609506353021811,3952932732,0.899872,-0.191296,0.335744,-9.7125,0.2975,-4.59375,-39.776,-23.544,-79.832,concentric,6,5.0,34403.0,37909.0,91045.0,102886.0,33209.0,46675.0,39514.0,59459.0,21863.0,16163.0
2026-05-06 16:14:49.660095,688064,1609506353031157,3952943520,0.899872,-0.191296,0.335744,-11.41875,-0.86625,-4.99625,-39.776,-23.544,-79.832,concentric,6,5.0,34403.0,37909.0,91045.0,102886.0,33209.0,46675.0,39514.0,59459.0,21863.0,16163.0
2026-05-06 16:14:49.662610,688065,1609506353040122,3952952244,0.894016,-0.169824,0.374784,-10.675,-2.52875,-4.55,-40.08,-23.52,-79.816,concentric,6,5.0,34403.0,37909.0,91045.0,102886.0,33209.0,46675.0,39514.0,59459.0,21863.0,16163.0
2026-05-06 16:14:49.664991,688066,1609506353054692,3952967164,0.894016,-0.169824,0.374784,-6.76375,-4.585,-3.73625,-40.08,-23.52,-79.816,concentric,6,5.0,34403.0,37909.0,91045.0,102886.0,33209.0,46675.0,39514.0,59459.0,21863.0,16163.0
2026-05-06 16:14:49.667695,688067,1609506353063615,3952975907,0.901824,-0.130784,0.314272,-2.00375,-6.8075,-2.6425,-39.84,-23.776001,-79.856,concentric,6,5.0,34403.0,37909.0,91045.0,102886.0,33209.0,46675.0,39514.0,59459.0,21863.0,16163.0
2026-05-06 16:14:49.695029,688078,1609506353078271,3952990851,0.901824,-0.134688,0.343552,-1.6975,-8.6275,-2.45,-39.84,-23.776001,-79.856,concentric,6,5.0,34499.0,38029.0,90914.0,102735.0,33296.0,46761.0,39434.0,59334.0,21873.0,16190.0
2026-05-06 16:14:49.700821,688079,1609506353087353,3952999612,0.880352,-0.134688,0.343552,-2.0825,-8.7325,-2.5025,-39.528004,-24.208002,-80.088005,concentric,6,5.0,34499.0,38029.0,90914.0,102735.0,33296.0,46761.0,39434.0,59334.0,21873.0,16190.0
2026-05-06 16:14:49.701149,688080,1609506353096415,3953008368,0.880352,-0.134688,0.343552,-1.63625,-9.345,-2.2925,-39.528004,-24.208002,-80.088005,concentric,6,5.0,34499.0,38029.0,90914.0,102735.0,33296.0,46761.0,39434.0,59334.0,21873.0,16190.0
2026-05-06 16:14:49.702306,688081,1609506353110940,3953023281,0.864736,-0.119072,0.33184,-0.84,-10.42125,-3.325,-39.448,-24.144001,-80.776,concentric,6,5.0,34499.0,38029.0,90914.0,102735.0,33296.0,46761.0,39434.0,59334.0,21873.0,16190.0
2026-05-06 16:14:49.707761,688082,1609506353119897,3953032063,0.911584,-0.148352,0.339648,-2.09125,-11.6025,-4.9525,-39.688004,-25.408,-79.0,concentric,6,5.0,34499.0,38029.0,90914.0,102735.0,33296.0,46761.0,39434.0,59334.0,21873.0,16190.0
2026-05-06 16:14:49.710121,688083,1609506353134489,3953047179,0.911584,-0.148352,0.339648,-3.17625,-12.24125,-5.66125,-39.688004,-25.408,-79.0,concentric,6,5.0,34499.0,38029.0,90914.0,102735.0,33296.0,46761.0,39434.0,59334.0,21873.0,16190.0
2026-05-06 16:14:49.713206,688084,1609506353143397,3953055944,0.90768,-0.17568,0.324032,-3.2725,-13.02875,-5.915,-39.416,-26.328001,-79.064,concentric,6,5.0,34499.0,38029.0,90914.0,102735.0,33296.0,46761.0,39434.0,59334.0,21873.0,16190.0
2026-05-06 16:14:49.714760,688085,1609506353152370,3953064661,0.90768,-0.17568,0.324032,-1.05,-14.55125,-4.27,-39.416,-26.328001,-79.064,concentric,6,5.0,34499.0,38029.0,90914.0,102735.0,33296.0,46761.0,39434.0,59334.0,21873.0,16190.0
2026-05-06 16:14:49.723816,688086,1609506353167184,3953079653,0.948672,-0.150304,0.347456,-0.105,-16.205,-3.535,-38.952003,-25.584002,-79.336006,concentric,6,5.0,34499.0,38029.0,90914.0,102735.0,33296.0,46761.0,39434.0,59334.0,21873.0,16190.0
2026-05-06 16:14:49.757432,688097,1609506353176135,3953088531,0.948672,-0.150304,0.347456,0.56,-18.235,-2.19625,-38.952003,-25.584002,-79.336006,eccentric,6,5.0,34598.0,38159.0,90876.0,102759.0,33377.0,46901.0,39467.0,59367.0,21911.0,16219.0
2026-05-06 16:14:49.760129,688098,1609506353190779,3953101599,1.057984,-0.163968,0.294752,1.26,-19.22375,-1.26875,-38.800003,-24.416,-80.896,eccentric,6,5.0,34598.0,38159.0,90876.0,102759.0,33377.0,46901.0,39467.0,59367.0,21911.0,16219.0
2026-05-06 16:14:49.762424,688099,1609506353200110,3953112397,1.120448,-0.228384,0.44896,0.76125,-18.08625,-1.1725,-38.672,-27.104002,-78.312004,eccentric,6,5.0,34598.0,38159.0,90876.0,102759.0,33377.0,46901.0,39467.0,59367.0,21911.0,16219.0
2026-05-06 16:14:49.764937,688100,1609506353209052,3953121174,1.120448,-0.228384,0.44896,-0.5775,-16.40625,0.18375,-38.672,-27.104002,-78.312004,eccentric,6,5.0,34598.0,38159.0,90876.0,102759.0,33377.0,46901.0,39467.0,59367.0,21911.0,16219.0
2026-05-06 16:14:49.798815,688101,1609506353223538,3953136142,1.030656,-0.203008,0.333792,-4.03375,-14.06125,1.54,-38.888,-25.240002,-81.48801,eccentric,6,5.0,34598.0,38159.0,90876.0,102759.0,33377.0,46901.0,39467.0,59367.0,21911.0,16219.0
2026-05-06 16:14:49.801526,688102,1609506353232459,3953144852,1.030656,-0.203008,0.333792,-3.28125,-12.39875,2.86125,-38.888,-25.240002,-81.48801,eccentric,6,5.0,34598.0,38159.0,90876.0,102759.0,33377.0,46901.0,39467.0,59367.0,21911.0,16219.0
2026-05-06 16:14:49.804027,688103,1609506353247103,3953159768,1.06384,-0.144448,0.298656,4.795,-13.13375,5.3375,-38.648003,-23.592001,-81.560005,eccentric,6,5.0,34598.0,38159.0,90876.0,102759.0,33377.0,46901.0,39467.0,59367.0,21911.0,16219.0
2026-05-06 16:14:49.812508,688104,1609506353256076,3953168500,1.06384,-0.144448,0.298656,10.6575,-12.90625,4.68125,-38.648003,-23.592001,-81.560005,eccentric,6,5.0,34598.0,38159.0,90876.0,102759.0,33377.0,46901.0,39467.0,59367.0,21911.0,16219.0
2026-05-06 16:14:49.826708,688105,1609506353270602,3953181359,1.100928,-0.191296,0.35136,11.795,-12.985,2.40625,-38.640003,-24.272001,-81.560005,eccentric,6,5.0,34598.0,38159.0,90876.0,102759.0,33377.0,46901.0,39467.0,59367.0,21911.0,16219.0
2026-05-06 16:14:49.860446,688116,1609506353280223,3953192181,1.007232,-0.206912,0.316224,7.84,-13.0375,0.5075,-38.448,-24.536001,-78.90401,eccentric,6,5.0,34704.0,38270.0,90999.0,102732.0,33452.0,46961.0,39507.0,59420.0,21927.0,16221.0
2026-05-06 16:14:49.862998,688117,1609506353289322,3953201170,1.009184,-0.206912,0.316224,3.33375,-12.2325,1.4875,-38.448,-24.536001,-78.90401,eccentric,6,5.0,34704.0,38270.0,90999.0,102732.0,33452.0,46961.0,39507.0,59420.0,21927.0,16221.0
2026-05-06 16:14:49.865435,688118,1609506353304111,3953216216,1.016992,-0.122976,0.3416,5.775,-11.9875,4.90875,-38.08,-24.880001,-80.560005,eccentric,6,5.0,34704.0,38270.0,90999.0,102732.0,33452.0,46961.0,39507.0,59420.0,21927.0,16221.0
2026-05-06 16:14:49.869226,688119,1609506353313063,3953224953,1.016992,-0.122976,0.3416,8.65375,-11.73375,4.71625,-38.08,-24.880001,-80.560005,eccentric,6,5.0,34704.0,38270.0,90999.0,102732.0,33452.0,46961.0,39507.0,59420.0,21927.0,16221.0
2026-05-06 16:14:49.902819,688120,1609506353327553,3953239891,1.003328,-0.081984,0.284992,10.0975,-11.1825,1.995,-38.056004,-25.704,-80.80801,eccentric,6,5.0,34704.0,38270.0,90999.0,102732.0,33452.0,46961.0,39507.0,59420.0,21927.0,16221.0
2026-05-06 16:14:49.905359,688121,1609506353336507,3953248631,1.003328,-0.081984,0.284992,13.11625,-10.19375,1.60125,-38.056004,-25.704,-80.80801,eccentric,6,5.0,34704.0,38270.0,90999.0,102732.0,33452.0,46961.0,39507.0,59420.0,21927.0,16221.0
2026-05-06 16:14:49.930142,688122,1609506353345462,3953257357,0.989664,-0.1464,0.310368,15.46125,-11.17375,-0.455,-37.752003,-23.816002,-82.04,eccentric,6,5.0,34704.0,38270.0,90999.0,102732.0,33452.0,46961.0,39507.0,59420.0,21927.0,16221.0
2026-05-06 16:14:49.955426,688123,1609506353359944,3953272274,0.989664,-0.1464,0.343552,8.61875,-10.17625,-3.3425,-37.752003,-23.816002,-82.04,eccentric,6,5.0,34704.0,38270.0,90999.0,102732.0,33452.0,46961.0,39507.0,59420.0,21927.0,16221.0
2026-05-06 16:14:49.976217,688124,1609506353368905,3953281135,0.944768,-0.140544,0.343552,1.925,-8.47,-3.85,-37.568,-23.6,-81.84801,eccentric,6,5.0,34704.0,38270.0,90999.0,102732.0,33452.0,46961.0,39507.0,59420.0,21927.0,16221.0
2026-05-06 16:14:50.037295,688135,1609506353383552,3953296160,0.977952,-0.06832,0.288896,3.36875,-7.30625,-2.9575,-37.656002,-24.240002,-82.240005,eccentric,6,5.0,34886.0,38389.0,91163.0,102720.0,33633.0,47113.0,39613.0,59451.0,22037.0,16298.0
2026-05-06 16:14:50.039798,688136,1609506353392536,3953304946,0.977952,-0.06832,0.288896,8.5575,-6.27375,-2.2575,-37.656002,-24.240002,-82.240005,eccentric,6,5.0,34886.0,38389.0,91163.0,102720.0,33633.0,47113.0,39613.0,59451.0,22037.0,16298.0
2026-05-06 16:14:50.042343,688137,1609506353401569,3953313768,0.89792,-0.046848,0.329888,13.5625,-4.76875,-2.82625,-37.320004,-23.384,-81.768005,eccentric,6,5.0,34886.0,38389.0,91163.0,102720.0,33633.0,47113.0,39613.0,59451.0,22037.0,16298.0
2026-05-06 16:14:50.044785,688138,1609506353416129,3953328664,0.89792,-0.046848,0.329888,15.58375,-3.52625,-4.27,-37.320004,-23.384,-81.768005,eccentric,6,5.0,34886.0,38389.0,91163.0,102720.0,33633.0,47113.0,39613.0,59451.0,22037.0,16298.0
2026-05-06 16:14:50.047284,688139,1609506353425052,3953337366,0.786656,-0.01952,0.255712,13.99125,-2.37125,-7.1225,-37.392002,-23.928001,-82.216,eccentric,6,5.0,34886.0,38389.0,91163.0,102720.0,33633.0,47113.0,39613.0,59451.0,22037.0,16298.0
2026-05-06 16:14:50.049797,688140,1609506353439560,3953352227,0.786656,-0.01952,0.255712,13.658751,-2.9925,-7.42875,-37.392002,-23.928001,-82.216,eccentric,6,5.0,34886.0,38389.0,91163.0,102720.0,33633.0,47113.0,39613.0,59451.0,22037.0,16298.0
2026-05-06 16:14:50.052265,688141,1609506353448486,3953360925,0.987712,-0.091744,0.226432,11.13,-3.745,-7.9275,-37.08,-23.768002,-81.52801,eccentric,6,5.0,34886.0,38389.0,91163.0,102720.0,33633.0,47113.0,39613.0,59451.0,22037.0,16298.0
2026-05-06 16:14:50.054773,688142,1609506353462998,3953373853,0.876448,-0.1464,0.353312,5.2325,-3.50875,-9.96625,-37.376003,-23.632002,-82.312004,eccentric,6,5.0,34886.0,38389.0,91163.0,102720.0,33633.0,47113.0,39613.0,59451.0,22037.0,16298.0
2026-05-06 16:14:50.057274,688143,1609506353472391,3953384679,0.876448,-0.1464,0.353312,0.49,-2.24,-12.48625,-37.376003,-23.632002,-82.312004,eccentric,6,5.0,34886.0,38389.0,91163.0,102720.0,33633.0,47113.0,39613.0,59451.0,22037.0,16298.0
2026-05-06 16:14:50.084824,688154,1609506353481803,3953393483,0.794464,0.00976,0.251808,-0.1575,0.27125,-13.448751,-36.752003,-26.088001,-82.128006,eccentric,6,5.0,34868.0,38312.0,91287.0,102962.0,33635.0,46959.0,39669.0,59590.0,22044.0,16261.0
2026-05-06 16:14:50.087328,688155,1609506353496425,3953408465,0.794464,0.00976,0.251808,6.44,-1.42625,-8.74125,-36.752003,-26.088001,-82.128006,eccentric,6,5.0,34868.0,38312.0,91287.0,102962.0,33635.0,46959.0,39669.0,59590.0,22044.0,16261.0
2026-05-06 16:14:50.089800,688156,1609506353505481,3953417312,0.862784,0.031232,0.279136,10.50875,-1.98625,-6.11625,-36.808002,-25.608002,-80.976006,eccentric,6,5.0,34868.0,38312.0,91287.0,102962.0,33635.0,46959.0,39669.0,59590.0,22044.0,16261.0
2026-05-06 16:14:50.092509,688157,1609506353520054,3953432270,0.862784,0.031232,0.279136,9.555,-1.3125,-10.0625,-36.808002,-25.608002,-80.976006,eccentric,6,5.0,34868.0,38312.0,91287.0,102962.0,33635.0,46959.0,39669.0,59590.0,22044.0,16261.0
2026-05-06 16:14:50.095060,688158,1609506353529004,3953441071,0.862784,-0.109312,0.152256,10.31625,-1.12,-13.81625,-36.864002,-26.072,-79.704,eccentric,6,5.0,34868.0,38312.0,91287.0,102962.0,33635.0,46959.0,39669.0,59590.0,22044.0,16261.0
2026-05-06 16:14:50.097533,688159,1609506353537958,3953449821,0.862784,-0.109312,0.152256,13.5625,-2.35375,-14.69125,-36.864002,-26.072,-79.704,eccentric,6,5.0,34868.0,38312.0,91287.0,102962.0,33635.0,46959.0,39669.0,59590.0,22044.0,16261.0
2026-05-06 16:14:50.111411,688160,1609506353552504,3953464774,0.772992,-0.0976,0.353312,15.12875,-4.03375,-13.58875,-36.848003,-27.968,-79.592,eccentric,6,5.0,34868.0,38312.0,91287.0,102962.0,33635.0,46959.0,39669.0,59590.0,22044.0,16261.0
2026-05-06 16:14:50.117357,688161,1609506353561442,3953473478,0.772992,-0.0976,0.244,15.925,-4.3925,-13.1075,-36.848003,-27.968,-79.592,eccentric,6,5.0,34868.0,38312.0,91287.0,102962.0,33635.0,46959.0,39669.0,59590.0,22044.0,16261.0
2026-05-06 16:14:50.133791,688162,1609506353576125,3953488423,0.6832,0.062464,0.245952,19.03125,-5.87125,-11.83,-36.312,-24.088001,-81.568,eccentric,6,5.0,34868.0,38312.0,91287.0,102962.0,33635.0,46959.0,39669.0,59590.0,22044.0,16261.0
2026-05-06 16:14:50.165214,688173,1609506353585295,3953497399,0.892064,0.062464,0.148352,20.36125,-7.6125,-11.55875,-35.912003,-24.432001,-82.576004,eccentric,6,5.0,34900.0,38128.0,91147.0,103582.0,33628.0,46706.0,39571.0,59808.0,22047.0,16120.0
2026-05-06 16:14:50.166149,688174,1609506353594220,3953506165,0.892064,0.062464,0.148352,16.94,-8.12,-14.0875,-35.912003,-24.432001,-82.576004,eccentric,6,5.0,34900.0,38128.0,91147.0,103582.0,33628.0,46706.0,39571.0,59808.0,22047.0,16120.0
2026-05-06 16:14:50.168623,688175,1609506353608874,3953521166,0.743712,-0.0976,0.316224,10.24625,-6.8775,-16.42375,-35.704002,-24.76,-82.304,eccentric,6,5.0,34900.0,38128.0,91147.0,103582.0,33628.0,46706.0,39571.0,59808.0,22047.0,16120.0
2026-05-06 16:14:50.176343,688176,1609506353617929,3953529920,0.743712,-0.0976,0.316224,-1.155,-2.8875,-20.4575,-35.704002,-24.76,-82.304,eccentric,6,5.0,34900.0,38128.0,91147.0,103582.0,33628.0,46706.0,39571.0,59808.0,22047.0,16120.0
2026-05-06 16:14:50.191310,688177,1609506353632436,3953544917,0.632448,-0.054656,0.2928,-4.57625,-1.47875,-20.53625,-36.056004,-26.728,-81.136,eccentric,6,5.0,34900.0,38128.0,91147.0,103582.0,33628.0,46706.0,39571.0,59808.0,22047.0,16120.0
2026-05-06 16:14:50.198778,688178,1609506353641366,3953553621,0.632448,-0.054656,0.2928,-0.4375,-2.87875,-15.81125,-36.056004,-26.728,-81.136,eccentric,6,5.0,34900.0,38128.0,91147.0,103582.0,33628.0,46706.0,39571.0,59808.0,22047.0,16120.0
2026-05-06 16:14:50.215035,688179,1609506353655876,3953568512,0.853024,0.056608,0.12688,-0.16625,-2.94,-15.1025,-35.528,-26.472002,-81.352005,eccentric,6,5.0,34900.0,38128.0,91147.0,103582.0,33628.0,46706.0,39571.0,59808.0,22047.0,16120.0
2026-05-06 16:14:50.221424,688180,1609506353664825,3953577403,0.802272,-0.001952,0.310368,5.32,-0.5075,-14.9275,-35.136,-25.272001,-82.36,eccentric,6,5.0,34900.0,38128.0,91147.0,103582.0,33628.0,46706.0,39571.0,59808.0,22047.0,16120.0
2026-05-06 16:14:50.232673,688181,1609506353673734,3953586135,0.802272,-0.001952,0.310368,11.9875,2.8875,-14.323751,-35.136,-25.272001,-82.36,eccentric,6,5.0,34900.0,38128.0,91147.0,103582.0,33628.0,46706.0,39571.0,59808.0,22047.0,16120.0
2026-05-06 16:14:50.260153,688192,1609506353688280,3953599107,0.521184,-0.064416,0.327936,5.24125,6.37,-19.62625,-35.52,-25.744001,-82.024,eccentric,6,5.0,34593.0,37933.0,91075.0,103668.0,33325.0,46441.0,39471.0,59949.0,21871.0,15993.0
2026-05-06 16:14:50.264411,688193,1609506353697876,3953609978,0.521184,-0.064416,0.327936,-0.4725,4.83,-17.9375,-35.52,-25.744001,-82.024,eccentric,6,5.0,34593.0,37933.0,91075.0,103668.0,33325.0,46441.0,39471.0,59949.0,21871.0,15993.0
2026-05-06 16:14:50.271905,688194,1609506353712472,3953624967,0.815936,-0.025376,0.140544,0.1575,1.015,-10.5525,-34.960003,-25.880001,-82.144005,eccentric,6,5.0,34593.0,37933.0,91075.0,103668.0,33325.0,46441.0,39471.0,59949.0,21871.0,15993.0
2026-05-06 16:14:50.297344,688195,1609506353721419,3953633710,0.815936,-0.025376,0.140544,2.835,-1.63625,-7.86625,-34.960003,-25.880001,-82.144005,eccentric,6,5.0,34593.0,37933.0,91075.0,103668.0,33325.0,46441.0,39471.0,59949.0,21871.0,15993.0
2026-05-06 16:14:50.322546,688196,1609506353730379,3953642418,0.913536,0.056608,0.28304,1.715,0.91,-9.56375,-35.36,-29.184002,-81.456,eccentric,6,5.0,34593.0,37933.0,91075.0,103668.0,33325.0,46441.0,39471.0,59949.0,21871.0,15993.0
2026-05-06 16:14:50.338912,688197,1609506353744840,3953657424,0.456768,0.03904,0.294752,-0.04375,6.8425,-20.22125,-34.928,-25.752,-82.48801,eccentric,6,5.0,34593.0,37933.0,91075.0,103668.0,33325.0,46441.0,39471.0,59949.0,21871.0,15993.0
2026-05-06 16:14:50.345156,688198,1609506353753743,3953666120,0.456768,0.03904,0.294752,4.865,5.20625,-28.63875,-34.928,-25.752,-82.48801,eccentric,6,5.0,34593.0,37933.0,91075.0,103668.0,33325.0,46441.0,39471.0,59949.0,21871.0,15993.0
2026-05-06 16:14:50.353937,688199,1609506353768387,3953681061,0.823744,-0.011712,0.236192,4.29625,0.2625,-16.4675,-35.008003,-26.128002,-81.872,eccentric,6,5.0,34593.0,37933.0,91075.0,103668.0,33325.0,46441.0,39471.0,59949.0,21871.0,15993.0
2026-05-06 16:14:50.358175,688200,1609506353777356,3953689765,0.823744,-0.011712,0.236192,-6.615,-1.3125,-2.2925,-35.008003,-26.128002,-81.872,eccentric,6,5.0,34593.0,37933.0,91075.0,103668.0,33325.0,46441.0,39471.0,59949.0,21871.0,15993.0
2026-05-06 16:14:50.387515,688211,1609506353792006,3953702784,0.835456,-0.085888,0.226432,-7.83125,-1.93375,-7.18375,-35.048,-26.184002,-82.144005,eccentric,6,5.0,34819.0,37827.0,91245.0,104453.0,33515.0,46321.0,39573.0,60403.0,21951.0,15937.0
2026-05-06 16:14:50.390002,688212,1609506353801219,3953713614,0.835456,-0.085888,0.226432,-2.135,-3.38625,-17.22,-35.048,-26.184002,-82.144005,eccentric,6,5.0,34819.0,37827.0,91245.0,104453.0,33515.0,46321.0,39573.0,60403.0,21951.0,15937.0
2026-05-06 16:14:50.395039,688213,1609506353810220,3953722385,0.650016,-0.011712,0.327936,0.42,-2.98375,-18.5325,-35.112003,-28.104002,-81.776,eccentric,6,5.0,34819.0,37827.0,91245.0,104453.0,33515.0,46321.0,39573.0,60403.0,21951.0,15937.0
2026-05-06 16:14:50.397428,688214,1609506353824823,3953737291,0.718336,0.05856,0.242048,2.44125,-4.2175,-11.698751,-34.776,-28.248001,-78.776,eccentric,6,5.0,34819.0,37827.0,91245.0,104453.0,33515.0,46321.0,39573.0,60403.0,21951.0,15937.0
2026-05-06 16:14:50.400073,688215,1609506353833745,3953746032,0.718336,0.05856,0.242048,5.11,-4.1125,-6.265,-34.776,-28.248001,-78.776,eccentric,6,5.0,34819.0,37827.0,91245.0,104453.0,33515.0,46321.0,39573.0,60403.0,21951.0,15937.0
2026-05-06 16:14:50.406232,688216,1609506353848300,3953760972,0.876448,-0.0976,0.245952,2.72125,-4.095,-6.8075,-34.72,-27.800001,-80.944,eccentric,6,5.0,34819.0,37827.0,91245.0,104453.0,33515.0,46321.0,39573.0,60403.0,21951.0,15937.0
2026-05-06 16:14:50.415165,688217,1609506353857266,3953769718,0.876448,-0.0976,0.245952,-6.4925,-2.87,-8.02375,-34.72,-27.800001,-80.944,eccentric,6,5.0,34819.0,37827.0,91245.0,104453.0,33515.0,46321.0,39573.0,60403.0,21951.0,15937.0
2026-05-06 16:14:50.423894,688218,1609506353866217,3953778453,0.794464,-0.144448,0.286944,-16.28375,0.0525,-8.19,-34.704002,-28.016,-80.408005,eccentric,6,5.0,34819.0,37827.0,91245.0,104453.0,33515.0,46321.0,39573.0,60403.0,21951.0,15937.0
2026-05-06 16:14:50.466225,688229,1609506353880759,3953793389,0.794464,-0.144448,0.286944,-16.6775,0.74375,-7.86625,-34.704002,-28.016,-80.408005,eccentric,6,5.0,35054.0,38303.0,91356.0,105598.0,33729.0,46757.0,39637.0,60949.0,22060.0,16163.0
2026-05-06 16:14:50.468733,688230,1609506353889791,3953802117,0.661728,0.062464,0.310368,-6.7725,0.0525,-5.22375,-34.448,-27.720001,-82.128006,eccentric,6,5.0,35054.0,38303.0,91356.0,105598.0,33729.0,46757.0,39637.0,60949.0,22060.0,16163.0
2026-05-06 16:14:50.471244,688231,1609506353904295,3953815064,0.661728,-0.001952,0.197152,0.98875,-1.72375,-2.4325,-34.448,-27.720001,-82.128006,eccentric,6,5.0,35054.0,38303.0,91356.0,105598.0,33729.0,46757.0,39637.0,60949.0,22060.0,16163.0
2026-05-06 16:14:50.473782,688232,1609506353913547,3953825885,0.864736,-0.001952,0.197152,-1.25125,-2.8525,-2.19625,-34.288002,-26.800001,-82.07201,eccentric,6,5.0,35054.0,38303.0,91356.0,105598.0,33729.0,46757.0,39637.0,60949.0,22060.0,16163.0
2026-05-06 16:14:50.479812,688233,1609506353922544,3953834600,0.864736,-0.001952,0.197152,-9.72125,-3.75375,-8.1725,-34.288002,-26.800001,-82.07201,eccentric,6,5.0,35054.0,38303.0,91356.0,105598.0,33729.0,46757.0,39637.0,60949.0,22060.0,16163.0
2026-05-06 16:14:50.493839,688234,1609506353937064,3953849554,0.886208,-0.193248,0.275232,-12.792501,-3.465,-9.3975,-34.280003,-26.800001,-81.84801,eccentric,6,5.0,35054.0,38303.0,91356.0,105598.0,33729.0,46757.0,39637.0,60949.0,22060.0,16163.0
2026-05-06 16:14:50.502662,688235,1609506353946005,3953858316,0.732,-0.050752,0.296704,-8.19,-2.72125,-5.32875,-34.344,-28.184002,-79.872,eccentric,6,5.0,35054.0,38303.0,91356.0,105598.0,33729.0,46757.0,39637.0,60949.0,22060.0,16163.0
2026-05-06 16:14:50.536430,688236,1609506353960598,3953873206,0.732,-0.050752,0.296704,-2.1525,-2.66875,-3.05375,-34.344,-28.184002,-79.872,eccentric,6,5.0,35054.0,38303.0,91356.0,105598.0,33729.0,46757.0,39637.0,60949.0,22060.0,16163.0
2026-05-06 16:14:50.538906,688237,1609506353969494,3953882010,0.71248,0.017568,0.236192,-5.6,-3.0275,-0.56,-33.936,-26.896002,-81.656006,eccentric,6,5.0,35054.0,38303.0,91356.0,105598.0,33729.0,46757.0,39637.0,60949.0,22060.0,16163.0
2026-05-06 16:14:50.571253,688248,1609506353984698,3953895530,0.71248,0.017568,0.236192,-9.79125,-3.3075,-3.745,-33.936,-26.896002,-81.656006,eccentric,6,5.0,35372.0,38642.0,91341.0,106078.0,34027.0,47145.0,39631.0,61165.0,22216.0,16326.0
2026-05-06 16:14:50.573726,688249,1609506353994192,3953906396,1.057984,-0.152256,0.134688,-11.61125,-3.84125,-5.285,-34.128002,-27.216002,-81.840004,eccentric,6,5.0,35372.0,38642.0,91341.0,106078.0,34027.0,47145.0,39631.0,61165.0,22216.0,16326.0
2026-05-06 16:14:50.576329,688250,1609506354003227,3953915155,1.057984,-0.152256,0.134688,-12.34625,-3.64,1.645,-34.128002,-27.216002,-81.840004,eccentric,6,5.0,35372.0,38642.0,91341.0,106078.0,34027.0,47145.0,39631.0,61165.0,22216.0,16326.0
2026-05-06 16:14:50.578848,688251,1609506354017959,3953930181,0.694912,-0.0976,0.304512,-5.215,-0.58625,-1.77625,-34.192,-28.736002,-80.96001,eccentric,6,5.0,35372.0,38642.0,91341.0,106078.0,34027.0,47145.0,39631.0,61165.0,22216.0,16326.0
2026-05-06 16:14:50.585138,688252,1609506354027070,3953938898,0.747616,0.017568,0.218624,0.93625,-2.415,-7.385,-34.304,-30.368002,-79.16801,eccentric,6,5.0,35372.0,38642.0,91341.0,106078.0,34027.0,47145.0,39631.0,61165.0,22216.0,16326.0
2026-05-06 16:14:50.591384,688253,1609506354036151,3953947633,0.747616,0.017568,0.218624,-1.6275,-2.695,2.905,-34.304,-30.368002,-79.16801,eccentric,6,5.0,35372.0,38642.0,91341.0,106078.0,34027.0,47145.0,39631.0,61165.0,22216.0,16326.0
2026-05-06 16:14:50.635125,688254,1609506354050642,3953962567,0.958432,-0.089792,0.111264,2.58125,-2.94875,3.465,-34.24,-28.368002,-82.336006,eccentric,6,5.0,35372.0,38642.0,91341.0,106078.0,34027.0,47145.0,39631.0,61165.0,22216.0,16326.0
2026-05-06 16:14:50.686334,688255,1609506354059538,3953971262,0.958432,-0.089792,0.111264,3.5875,-3.42125,-0.56875,-34.24,-28.368002,-82.336006,eccentric,6,5.0,35372.0,38642.0,91341.0,106078.0,34027.0,47145.0,39631.0,61165.0,22216.0,16326.0
2026-05-06 16:14:50.711361,688256,1609506354074056,3953986243,0.767136,-0.080032,0.275232,-2.61625,-0.735,4.06875,-34.280003,-26.904001,-82.024,eccentric,6,5.0,35372.0,38642.0,91341.0,106078.0,34027.0,47145.0,39631.0,61165.0,22216.0,16326.0
2026-05-06 16:14:50.743746,688267,1609506354083248,3953994917,0.767136,-0.080032,0.275232,-6.4925,3.63125,-0.67375,-34.280003,-26.904001,-82.024,eccentric,6,5.0,35347.0,38735.0,91442.0,106198.0,33987.0,47242.0,39684.0,61274.0,22183.0,16344.0
2026-05-06 16:14:50.747113,688268,1609506354092213,3954003612,0.728096,-0.040992,0.298656,-8.60125,4.96125,-1.28625,-33.904003,-27.216002,-81.944,eccentric,6,5.0,35347.0,38735.0,91442.0,106198.0,33987.0,47242.0,39684.0,61274.0,22183.0,16344.0
2026-05-06 16:14:50.748499,688269,1609506354106813,3954018549,0.798368,-0.060512,0.187392,-11.445,7.98875,7.09625,-34.152,-26.720001,-80.256004,eccentric,6,5.0,35347.0,38735.0,91442.0,106198.0,33987.0,47242.0,39684.0,61274.0,22183.0,16344.0
2026-05-06 16:14:50.751249,688270,1609506354115741,3954027285,0.798368,-0.060512,0.187392,-10.78875,10.42125,5.7575,-34.152,-26.720001,-80.256004,eccentric,6,5.0,35347.0,38735.0,91442.0,106198.0,33987.0,47242.0,39684.0,61274.0,22183.0,16344.0
2026-05-06 16:14:50.753722,688271,1609506354130242,3954042223,0.860832,-0.113216,0.183488,-13.43125,9.905,2.205,-34.552002,-27.152,-81.408005,eccentric,6,5.0,35347.0,38735.0,91442.0,106198.0,33987.0,47242.0,39684.0,61274.0,22183.0,16344.0
2026-05-06 16:14:50.758781,688272,1609506354139196,3954050965,0.860832,-0.113216,0.183488,-18.61125,9.84375,5.425,-34.552002,-27.152,-81.408005,eccentric,6,5.0,35347.0,38735.0,91442.0,106198.0,33987.0,47242.0,39684.0,61274.0,22183.0,16344.0
2026-05-06 16:14:50.761166,688273,1609506354154029,3954064782,0.687104,-0.03904,0.238144,-14.4375,9.87,3.99875,-34.608,-26.656002,-81.304,eccentric,6,5.0,35347.0,38735.0,91442.0,106198.0,33987.0,47242.0,39684.0,61274.0,22183.0,16344.0
2026-05-06 16:14:50.763612,688274,1609506354163227,3954075565,0.687104,-0.03904,0.238144,-5.4775,6.965,2.87875,-34.608,-26.656002,-81.304,eccentric,6,5.0,35347.0,38735.0,91442.0,106198.0,33987.0,47242.0,39684.0,61274.0,22183.0,16344.0
2026-05-06 16:14:50.766255,688275,1609506354172238,3954084301,0.743712,-0.050752,0.21472,-5.39,4.68125,4.27,-35.144,-27.240002,-81.07201,eccentric,6,5.0,35347.0,38735.0,91442.0,106198.0,33987.0,47242.0,39684.0,61274.0,22183.0,16344.0
2026-05-06 16:14:50.793803,688286,1609506354187410,3954099294,0.825696,-0.134688,0.199104,-4.9525,4.27,2.75625,-35.0,-27.064001,-81.776,eccentric,6,5.0,35414.0,38613.0,91434.0,106475.0,34019.0,47020.0,39658.0,61330.0,22203.0,16261.0
2026-05-06 16:14:50.796396,688287,1609506354196437,3954108301,0.825696,-0.134688,0.199104,-4.0425,3.08875,1.63625,-35.0,-27.064001,-81.776,eccentric,6,5.0,35414.0,38613.0,91434.0,106475.0,34019.0,47020.0,39658.0,61330.0,22203.0,16261.0
2026-05-06 16:14:50.798905,688288,1609506354205405,3954117031,0.825696,-0.134688,0.199104,-7.14,4.08625,4.27,-35.0,-27.064001,-81.776,eccentric,6,5.0,35414.0,38613.0,91434.0,106475.0,34019.0,47020.0,39658.0,61330.0,22203.0,16261.0
2026-05-06 16:14:50.801334,688289,1609506354220190,3954131985,0.755424,-0.144448,0.3416,-8.91625,6.67625,7.49875,-35.336002,-27.248001,-80.216,eccentric,6,5.0,35414.0,38613.0,91434.0,106475.0,34019.0,47020.0,39658.0,61330.0,22203.0,16261.0
2026-05-06 16:14:50.803868,688290,1609506354229170,3954140776,0.749568,-0.070272,0.296704,-10.2375,7.58625,8.505,-35.088,-26.720001,-81.36,eccentric,6,5.0,35414.0,38613.0,91434.0,106475.0,34019.0,47020.0,39658.0,61330.0,22203.0,16261.0
2026-05-06 16:14:50.806401,688291,1609506354243739,3954155743,0.749568,-0.070272,0.296704,-10.885,7.875,11.10375,-35.088,-26.720001,-81.36,eccentric,6,5.0,35414.0,38613.0,91434.0,106475.0,34019.0,47020.0,39658.0,61330.0,22203.0,16261.0
2026-05-06 16:14:50.808814,688292,1609506354252752,3954164482,0.778848,-0.080032,0.208864,-7.35,6.72,11.917501,-35.112003,-26.896002,-80.944,eccentric,6,5.0,35414.0,38613.0,91434.0,106475.0,34019.0,47020.0,39658.0,61330.0,22203.0,16261.0
2026-05-06 16:14:50.842528,688293,1609506354267341,3954179410,0.86864,-0.18544,0.242048,-4.3925,4.13875,9.86125,-35.112003,-24.848001,-81.216,eccentric,6,5.0,35414.0,38613.0,91434.0,106475.0,34019.0,47020.0,39658.0,61330.0,22203.0,16261.0
2026-05-06 16:14:50.844971,688294,1609506354276433,3954188226,0.86864,-0.18544,0.242048,-5.01375,1.61,9.47625,-35.512,-26.080002,-81.216,eccentric,6,5.0,35414.0,38613.0,91434.0,106475.0,34019.0,47020.0,39658.0,61330.0,22203.0,16261.0
2026-05-06 16:14:50.875030,688305,1609506354285521,3954197289,0.86864,-0.18544,0.242048,-5.5475,0.77875,10.01,-35.512,-26.080002,-81.216,eccentric,6,5.0,35182.0,38377.0,91348.0,106983.0,33812.0,46825.0,39581.0,61624.0,22071.0,16166.0
2026-05-06 16:14:50.877602,688306,1609506354300160,3954212492,0.77104,-0.099552,0.304512,-2.79125,0.58625,9.555,-35.656002,-26.592001,-80.832,eccentric,6,5.0,35182.0,38377.0,91348.0,106983.0,33812.0,46825.0,39581.0,61624.0,22071.0,16166.0
2026-05-06 16:14:50.880194,688307,1609506354309130,3954221261,0.794464,-0.042944,0.296704,-0.77,0.14,11.06875,-35.52,-27.840002,-79.856,eccentric,6,5.0,35182.0,38377.0,91348.0,106983.0,33812.0,46825.0,39581.0,61624.0,22071.0,16166.0
2026-05-06 16:14:50.882651,688308,1609506354323643,3954236194,0.794464,-0.042944,0.296704,-2.93125,0.04375,10.52625,-35.52,-27.840002,-79.856,eccentric,6,5.0,35182.0,38377.0,91348.0,106983.0,33812.0,46825.0,39581.0,61624.0,22071.0,16166.0
2026-05-06 16:14:50.891399,688309,1609506354332643,3954244927,0.853024,-0.154208,0.242048,-4.5325,0.02625,8.575,-35.800003,-26.184002,-81.08,eccentric,6,5.0,35182.0,38377.0,91348.0,106983.0,33812.0,46825.0,39581.0,61624.0,22071.0,16166.0
2026-05-06 16:14:50.897528,688310,1609506354341600,3954253630,0.853024,-0.154208,0.242048,-4.40125,0.455,6.88625,-35.800003,-26.184002,-81.08,eccentric,6,5.0,35182.0,38377.0,91348.0,106983.0,33812.0,46825.0,39581.0,61624.0,22071.0,16166.0
2026-05-06 16:14:50.931080,688311,1609506354356220,3954268668,0.784704,-0.183488,0.329888,-5.6175,1.53125,7.18375,-35.328003,-25.472002,-80.872,eccentric,6,5.0,35182.0,38377.0,91348.0,106983.0,33812.0,46825.0,39581.0,61624.0,22071.0,16166.0
2026-05-06 16:14:50.936253,688312,1609506354365139,3954277383,0.784704,-0.183488,0.329888,-4.06,2.8525,9.38875,-35.328003,-25.472002,-80.872,eccentric,6,5.0,35182.0,38377.0,91348.0,106983.0,33812.0,46825.0,39581.0,61624.0,22071.0,16166.0
