pc_time,serial_num,sensor_ts,host_ts,ax,ay,az,gx,gy,gz,mx,my,mz,phase,rpe,weight_kg,ppg_a,ppg_b,ppg_c,ppg_d,ppg_e,ppg_f,ppg_g,ppg_h,ppg_i,ppg_j
2026-05-06 16:14:56.313771,689328,1609506359721090,3959633568,0.815936,-0.042944,0.203008,1.7325,4.025,-6.2125,-34.248,-28.016,-81.496,concentric,6,5.0,35805.0,39616.0,91047.0,101532.0,33740.0,47324.0,39292.0,58191.0,21850.0,16184.0
2026-05-06 16:14:56.315985,689329,1609506359735891,3959648691,0.835456,-0.171776,0.251808,0.93625,3.12375,-6.6325,-34.464,-26.320002,-82.84801,concentric,6,5.0,35805.0,39616.0,91047.0,101532.0,33740.0,47324.0,39292.0,58191.0,21850.0,16184.0
2026-05-06 16:14:56.318503,689330,1609506359744960,3959657417,0.835456,-0.171776,0.251808,0.02625,3.36,-4.1475,-34.464,-26.320002,-82.84801,concentric,6,5.0,35805.0,39616.0,91047.0,101532.0,33740.0,47324.0,39292.0,58191.0,21850.0,16184.0
2026-05-06 16:14:56.323493,689331,1609506359753921,3959666169,0.806176,-0.103456,0.20496,2.0825,3.91125,-2.59875,-34.424,-26.208002,-82.176,concentric,6,5.0,35805.0,39616.0,91047.0,101532.0,33740.0,47324.0,39292.0,58191.0,21850.0,16184.0
2026-05-06 16:14:56.326214,689332,1609506359768458,3959681065,0.806176,-0.005856,0.277184,4.66375,3.10625,1.89,-34.424,-26.208002,-80.128006,concentric,6,5.0,35805.0,39616.0,91047.0,101532.0,33740.0,47324.0,39292.0,58191.0,21850.0,16184.0
2026-05-06 16:14:56.334950,689333,1609506359777461,3959689862,0.782752,-0.005856,0.277184,3.64,1.855,3.3775,-34.36,-25.976002,-81.888,concentric,6,5.0,35805.0,39616.0,91047.0,101532.0,33740.0,47324.0,39292.0,58191.0,21850.0,16184.0
2026-05-06 16:14:56.351291,689334,1609506359791998,3959702779,0.778848,-0.033184,0.206912,1.56625,0.7,1.21625,-34.264,-24.408,-83.312004,concentric,6,5.0,35805.0,39616.0,91047.0,101532.0,33740.0,47324.0,39292.0,58191.0,21850.0,16184.0
2026-05-06 16:14:56.362628,689335,1609506359801246,3959713604,0.778848,-0.033184,0.206912,-3.7625,-0.1575,0.86625,-34.264,-24.408,-83.312004,concentric,6,5.0,35805.0,39616.0,91047.0,101532.0,33740.0,47324.0,39292.0,58191.0,21850.0,16184.0
2026-05-06 16:14:56.428855,689346,1609506359815829,3959728701,0.851072,-0.085888,0.218624,-5.06625,-0.91,1.505,-34.352,-24.560001,-83.272,concentric,6,5.0,35963.0,39769.0,91142.0,101503.0,33866.0,47467.0,39332.0,58192.0,21922.0,16258.0
2026-05-06 16:14:56.431332,689347,1609506359824837,3959737548,0.851072,-0.085888,0.218624,-4.66375,-0.84875,1.9425,-34.352,-24.560001,-83.272,concentric,6,5.0,35963.0,39769.0,91142.0,101503.0,33866.0,47467.0,39332.0,58192.0,21922.0,16258.0
2026-05-06 16:14:56.433881,689348,1609506359833961,3959746248,0.843264,-0.103456,0.236192,-5.7225,0.88375,2.56375,-34.648003,-24.384,-83.28001,concentric,6,5.0,35963.0,39769.0,91142.0,101503.0,33866.0,47467.0,39332.0,58192.0,21922.0,16258.0
2026-05-06 16:14:56.436316,689349,1609506359848448,3959761159,0.843264,-0.103456,0.236192,-6.825,1.60125,3.115,-34.648003,-24.384,-83.28001,concentric,6,5.0,35963.0,39769.0,91142.0,101503.0,33866.0,47467.0,39332.0,58192.0,21922.0,16258.0
2026-05-06 16:14:56.438758,689350,1609506359857375,3959770110,0.774944,-0.062464,0.212768,-9.0825,1.82,4.69875,-34.792,-24.144001,-81.624,concentric,6,5.0,35963.0,39769.0,91142.0,101503.0,33866.0,47467.0,39332.0,58192.0,21922.0,16258.0
2026-05-06 16:14:56.441328,689351,1609506359872034,3959783047,0.853024,-0.050752,0.230336,-8.6625,1.67125,7.27125,-34.536003,-23.616001,-83.392006,concentric,6,5.0,35963.0,39769.0,91142.0,101503.0,33866.0,47467.0,39332.0,58192.0,21922.0,16258.0
2026-05-06 16:14:56.443734,689352,1609506359881553,3959793839,0.853024,-0.050752,0.230336,-9.58125,1.11125,7.18375,-34.536003,-23.616001,-83.392006,concentric,6,5.0,35963.0,39769.0,91142.0,101503.0,33866.0,47467.0,39332.0,58192.0,21922.0,16258.0
2026-05-06 16:14:56.446254,689353,1609506359890681,3959802602,0.827648,-0.093696,0.240096,-11.515,2.17875,5.69625,-34.672,-24.184002,-84.592,concentric,6,5.0,35963.0,39769.0,91142.0,101503.0,33866.0,47467.0,39332.0,58192.0,21922.0,16258.0
2026-05-06 16:14:56.483641,689354,1609506359905227,3959817554,0.827648,-0.093696,0.240096,-10.15875,3.50875,4.025,-34.672,-24.184002,-84.592,concentric,6,5.0,35963.0,39769.0,91142.0,101503.0,33866.0,47467.0,39332.0,58192.0,21922.0,16258.0
2026-05-06 16:14:56.484119,689355,1609506359914174,3959826288,0.821792,-0.095648,0.228384,-13.95625,4.22625,4.83,-35.216003,-24.168001,-83.128006,concentric,6,5.0,35963.0,39769.0,91142.0,101503.0,33866.0,47467.0,39332.0,58192.0,21922.0,16258.0
2026-05-06 16:14:56.510059,689366,1609506359928738,3959841233,0.821792,-0.095648,0.228384,-16.695,4.9,7.97125,-35.216003,-24.168001,-83.128006,concentric,6,5.0,35957.0,39782.0,91060.0,101272.0,33854.0,47474.0,39305.0,58098.0,21896.0,16237.0
2026-05-06 16:14:56.512296,689367,1609506359937809,3959850151,0.786656,-0.06832,0.222528,-15.26,5.03125,7.90125,-34.968002,-23.768002,-83.392006,concentric,6,5.0,35957.0,39782.0,91060.0,101272.0,33854.0,47474.0,39305.0,58098.0,21896.0,16237.0
2026-05-06 16:14:56.514951,689368,1609506359946856,3959858937,0.786656,-0.06832,0.222528,-13.685,4.69875,7.4725,-34.968002,-23.768002,-83.392006,concentric,6,5.0,35957.0,39782.0,91060.0,101272.0,33854.0,47474.0,39305.0,58098.0,21896.0,16237.0
2026-05-06 16:14:56.517358,689369,1609506359961370,3959873907,0.812032,-0.0976,0.242048,-11.69,3.5875,7.3675,-34.952003,-25.208002,-82.032005,concentric,6,5.0,35957.0,39782.0,91060.0,101272.0,33854.0,47474.0,39305.0,58098.0,21896.0,16237.0
2026-05-06 16:14:56.552521,689370,1609506359970381,3959882669,0.778848,-0.122976,0.271328,-12.99375,3.89375,7.58625,-35.480003,-23.688002,-83.37601,concentric,6,5.0,35957.0,39782.0,91060.0,101272.0,33854.0,47474.0,39305.0,58098.0,21896.0,16237.0
2026-05-06 16:14:56.580759,689371,1609506359984882,3959897553,0.778848,-0.122976,0.271328,-14.02625,4.99625,7.6825,-35.480003,-23.688002,-83.37601,concentric,6,5.0,35957.0,39782.0,91060.0,101272.0,33854.0,47474.0,39305.0,58098.0,21896.0,16237.0
2026-05-06 16:14:56.597334,689372,1609506359993928,3959906279,0.825696,-0.093696,0.199104,-14.2625,5.55625,10.17625,-35.336002,-23.664001,-82.952,concentric,6,5.0,35957.0,39782.0,91060.0,101272.0,33854.0,47474.0,39305.0,58098.0,21896.0,16237.0
2026-05-06 16:14:56.600016,689373,1609506360002852,3959914997,0.825696,-0.093696,0.199104,-14.46375,5.3375,12.145,-35.336002,-23.664001,-82.952,concentric,6,5.0,35957.0,39782.0,91060.0,101272.0,33854.0,47474.0,39305.0,58098.0,21896.0,16237.0
2026-05-06 16:14:56.629887,689384,1609506360017450,3959929929,0.792512,-0.044896,0.247904,-14.752501,5.4075,10.07125,-35.536003,-23.248001,-81.80801,concentric,6,5.0,35950.0,39816.0,91054.0,101310.0,33864.0,47492.0,39294.0,58091.0,21883.0,16262.0
2026-05-06 16:14:56.632570,689385,1609506360027078,3959938755,0.792512,-0.044896,0.247904,-13.51,6.3875,8.5925,-35.536003,-23.248001,-81.80801,concentric,6,5.0,35950.0,39816.0,91054.0,101310.0,33864.0,47492.0,39294.0,58091.0,21883.0,16262.0
2026-05-06 16:14:56.635075,689386,1609506360041560,3959953735,0.778848,-0.13664,0.236192,-12.6875,6.62375,7.7175,-35.784,-23.608002,-82.656006,concentric,6,5.0,35950.0,39816.0,91054.0,101310.0,33864.0,47492.0,39294.0,58091.0,21883.0,16262.0
2026-05-06 16:14:56.637537,689387,1609506360050574,3959962478,0.747616,-0.130784,0.2928,-16.2225,7.28,8.23375,-35.784,-23.608002,-82.656006,concentric,6,5.0,35950.0,39816.0,91054.0,101310.0,33864.0,47492.0,39294.0,58091.0,21883.0,16262.0
2026-05-06 16:14:56.640076,689388,1609506360059661,3959971277,0.735904,-0.130784,0.2928,-17.85875,8.33,10.19375,-35.68,-23.144001,-82.90401,concentric,6,5.0,35950.0,39816.0,91054.0,101310.0,33864.0,47492.0,39294.0,58091.0,21883.0,16262.0
2026-05-06 16:14:56.642582,689389,1609506360074243,3959986267,0.71248,-0.046848,0.281088,-14.8575,8.42625,14.3675,-36.280003,-23.472002,-81.448006,concentric,6,5.0,35950.0,39816.0,91054.0,101310.0,33864.0,47492.0,39294.0,58091.0,21883.0,16262.0
2026-05-06 16:14:56.645106,689390,1609506360083170,3959994972,0.71248,-0.046848,0.281088,-15.3475,8.198751,16.24875,-36.280003,-23.472002,-81.448006,concentric,6,5.0,35950.0,39816.0,91054.0,101310.0,33864.0,47492.0,39294.0,58091.0,21883.0,16262.0
2026-05-06 16:14:56.658915,689391,1609506360097731,3960009882,0.821792,-0.148352,0.242048,-19.11,7.7175,13.615,-36.032,-24.568,-81.272,concentric,6,5.0,35950.0,39816.0,91054.0,101310.0,33864.0,47492.0,39294.0,58091.0,21883.0,16262.0
2026-05-06 16:14:56.662650,689392,1609506360106719,3960018689,0.821792,-0.148352,0.242048,-22.58375,7.44625,10.6925,-36.032,-24.568,-81.272,concentric,6,5.0,35950.0,39816.0,91054.0,101310.0,33864.0,47492.0,39294.0,58091.0,21883.0,16262.0
2026-05-06 16:14:56.713810,689403,1609506360121819,3960033900,0.804224,-0.183488,0.25376,-18.9,7.56875,10.4125,-36.456,-23.424002,-82.352005,concentric,6,5.0,36017.0,39871.0,91051.0,100953.0,33909.0,47570.0,39309.0,57943.0,21906.0,16280.0
2026-05-06 16:14:56.718926,689404,1609506360130962,3960042700,0.804224,-0.05856,0.286944,-12.775,8.33875,10.73625,-36.456,-23.424002,-82.352005,concentric,6,5.0,36017.0,39871.0,91051.0,100953.0,33909.0,47570.0,39309.0,57943.0,21906.0,16280.0
2026-05-06 16:14:56.721376,689405,1609506360139889,3960051405,0.716384,-0.0488,0.286944,-8.75875,9.17875,12.20625,-36.528,-22.560001,-80.992004,concentric,6,5.0,36017.0,39871.0,91051.0,100953.0,33909.0,47570.0,39309.0,57943.0,21906.0,16280.0
2026-05-06 16:14:56.723868,689406,1609506360154443,3960066411,0.737856,-0.023424,0.232288,-6.11625,9.21375,14.805,-36.672,-22.312,-82.288,concentric,6,5.0,36017.0,39871.0,91051.0,100953.0,33909.0,47570.0,39309.0,57943.0,21906.0,16280.0
2026-05-06 16:14:56.726395,689407,1609506360163443,3960075187,0.737856,-0.023424,0.232288,-6.22125,8.16375,14.761251,-36.672,-22.312,-82.288,concentric,6,5.0,36017.0,39871.0,91051.0,100953.0,33909.0,47570.0,39309.0,57943.0,21906.0,16280.0
2026-05-06 16:14:56.736421,689408,1609506360177971,3960090162,0.940864,-0.220576,0.261568,-10.36,7.49,13.6325,-37.144,-22.392,-82.12,concentric,6,5.0,36017.0,39871.0,91051.0,100953.0,33909.0,47570.0,39309.0,57943.0,21906.0,16280.0
2026-05-06 16:14:56.745130,689409,1609506360186917,3960098895,0.940864,-0.220576,0.261568,-15.0675,9.1,12.04,-37.144,-22.392,-82.12,concentric,6,5.0,36017.0,39871.0,91051.0,100953.0,33909.0,47570.0,39309.0,57943.0,21906.0,16280.0
2026-05-06 16:14:56.753958,689410,1609506360195865,3960107642,0.730048,-0.15616,0.353312,-18.59375,13.36125,7.3675,-37.064003,-22.272001,-81.816,concentric,6,5.0,36017.0,39871.0,91051.0,100953.0,33909.0,47570.0,39309.0,57943.0,21906.0,16280.0
2026-05-06 16:14:56.767432,689411,1609506360210430,3960122653,0.730048,-0.15616,0.353312,-6.65875,14.971251,8.05875,-37.064003,-22.272001,-81.816,concentric,6,5.0,36017.0,39871.0,91051.0,100953.0,33909.0,47570.0,39309.0,57943.0,21906.0,16280.0
2026-05-06 16:14:56.801395,689422,1609506360219426,3960131435,0.69296,-0.027328,0.290848,-0.735,13.5625,10.57875,-37.24,-21.84,-78.880005,concentric,6,5.0,35797.0,39754.0,90588.0,100016.0,33676.0,47416.0,39046.0,57333.0,21752.0,16164.0
2026-05-06 16:14:56.803901,689423,1609506360234075,3960146410,0.851072,-0.056608,0.201056,-3.24625,11.50625,12.31125,-37.536003,-21.320002,-81.328,concentric,6,5.0,35797.0,39754.0,90588.0,100016.0,33676.0,47416.0,39046.0,57333.0,21752.0,16164.0
2026-05-06 16:14:56.806465,689424,1609506360243048,3960155205,0.851072,-0.056608,0.201056,-0.6825,7.77875,13.99125,-37.536003,-21.320002,-81.328,concentric,6,5.0,35797.0,39754.0,90588.0,100016.0,33676.0,47416.0,39046.0,57333.0,21752.0,16164.0
2026-05-06 16:14:56.808910,689425,1609506360251974,3960163945,0.851072,-0.142496,0.413824,-1.33875,7.665,12.31125,-37.536003,-21.320002,-81.328,concentric,6,5.0,35797.0,39754.0,90588.0,100016.0,33676.0,47416.0,39046.0,57333.0,21752.0,16164.0
2026-05-06 16:14:56.845164,689426,1609506360266645,3960178897,0.880352,-0.142496,0.413824,-6.06375,12.46,11.24375,-37.904003,-22.928001,-77.136,concentric,6,5.0,35797.0,39754.0,90588.0,100016.0,33676.0,47416.0,39046.0,57333.0,21752.0,16164.0
2026-05-06 16:14:56.845561,689427,1609506360275713,3960187611,0.733952,-0.1464,0.320128,-7.42,19.04875,9.93125,-37.792004,-21.488,-81.776,concentric,6,5.0,35797.0,39754.0,90588.0,100016.0,33676.0,47416.0,39046.0,57333.0,21752.0,16164.0
2026-05-06 16:14:56.847325,689428,1609506360290197,3960202620,0.733952,-0.1464,0.320128,-5.8625,21.77,8.26,-37.792004,-21.488,-81.776,concentric,6,5.0,35797.0,39754.0,90588.0,100016.0,33676.0,47416.0,39046.0,57333.0,21752.0,16164.0
2026-05-06 16:14:56.858767,689429,1609506360299128,3960211350,0.661728,-0.037088,0.281088,-3.5525,22.4175,10.745,-38.616,-20.936,-81.392006,concentric,6,5.0,35797.0,39754.0,90588.0,100016.0,33676.0,47416.0,39046.0,57333.0,21752.0,16164.0
2026-05-06 16:14:56.901449,689430,1609506360313695,3960226364,0.827648,-0.06832,0.25376,6.7375,19.7575,13.62375,-38.448,-20.2,-77.07201,concentric,6,5.0,35797.0,39754.0,90588.0,100016.0,33676.0,47416.0,39046.0,57333.0,21752.0,16164.0
2026-05-06 16:14:56.971204,689441,1609506360323315,3960235094,0.827648,-0.06832,0.25376,11.47125,15.925,12.1275,-38.448,-20.2,-77.07201,concentric,6,5.0,36009.0,40043.0,90596.0,99325.0,33814.0,47670.0,39031.0,56818.0,21794.0,16262.0
2026-05-06 16:14:56.973752,689442,1609506360332431,3960243813,0.827648,-0.193248,0.37088,10.36,14.805,12.25875,-38.448,-20.2,-77.07201,concentric,6,5.0,36009.0,40043.0,90596.0,99325.0,33814.0,47670.0,39031.0,56818.0,21794.0,16262.0
2026-05-06 16:14:56.976232,689443,1609506360347045,3960258827,0.786656,-0.189344,0.37088,1.7675,16.9575,9.80875,-38.712,-20.400002,-79.69601,concentric,6,5.0,36009.0,40043.0,90596.0,99325.0,33814.0,47670.0,39031.0,56818.0,21794.0,16262.0
2026-05-06 16:14:56.978734,689444,1609506360355985,3960267528,0.716384,-0.144448,0.343552,-7.98875,19.01375,6.3175,-39.0,-23.344002,-79.79201,concentric,6,5.0,36009.0,40043.0,90596.0,99325.0,33814.0,47670.0,39031.0,56818.0,21794.0,16262.0
2026-05-06 16:14:56.981163,689445,1609506360370467,3960282422,0.716384,-0.144448,0.343552,-7.77875,18.41875,7.0875,-39.0,-23.344002,-79.79201,concentric,6,5.0,36009.0,40043.0,90596.0,99325.0,33814.0,47670.0,39031.0,56818.0,21794.0,16262.0
2026-05-06 16:14:56.983781,689446,1609506360379422,3960291188,0.813984,-0.074176,0.310368,-3.00125,14.761251,9.21375,-39.168003,-19.232,-80.520004,concentric,6,5.0,36009.0,40043.0,90596.0,99325.0,33814.0,47670.0,39031.0,56818.0,21794.0,16262.0
2026-05-06 16:14:56.986268,689447,1609506360388358,3960299913,0.813984,-0.074176,0.310368,-3.47375,13.34375,6.29125,-39.168003,-19.232,-80.520004,concentric,6,5.0,36009.0,40043.0,90596.0,99325.0,33814.0,47670.0,39031.0,56818.0,21794.0,16262.0
2026-05-06 16:14:56.988798,689448,1609506360402954,3960314951,0.843264,-0.134688,0.402112,-3.42125,13.18625,5.8975,-39.608,-19.304,-80.64001,concentric,6,5.0,36009.0,40043.0,90596.0,99325.0,33814.0,47670.0,39031.0,56818.0,21794.0,16262.0
2026-05-06 16:14:56.991261,689449,1609506360411885,3960323740,0.843264,-0.134688,0.402112,-3.955,16.26625,5.355,-39.608,-19.304,-80.64001,concentric,6,5.0,36009.0,40043.0,90596.0,99325.0,33814.0,47670.0,39031.0,56818.0,21794.0,16262.0
2026-05-06 16:14:57.018913,689460,1609506360426807,3960338784,0.755424,-0.251808,0.376736,-8.05875,19.18,3.61375,-39.712,-21.12,-81.520004,concentric,6,5.0,36311.0,40426.0,90897.0,98960.0,34019.0,48025.0,39191.0,56584.0,21893.0,16405.0
2026-05-06 16:14:57.048604,689461,1609506360435922,3960347534,0.794464,-0.201056,0.296704,-5.1275,18.69875,4.27,-39.896004,-21.064001,-80.608,concentric,6,5.0,36311.0,40426.0,90897.0,98960.0,34019.0,48025.0,39191.0,56584.0,21893.0,16405.0
2026-05-06 16:14:57.051218,689462,1609506360444872,3960356347,0.794464,-0.201056,0.296704,2.77375,14.805,6.04625,-39.896004,-21.064001,-80.608,concentric,6,5.0,36311.0,40426.0,90897.0,98960.0,34019.0,48025.0,39191.0,56584.0,21893.0,16405.0
2026-05-06 16:14:57.053738,689463,1609506360459392,3960371356,0.909632,-0.12688,0.398208,6.7375,12.27625,4.7075,-40.336002,-20.104,-80.344,concentric,6,5.0,36311.0,40426.0,90897.0,98960.0,34019.0,48025.0,39191.0,56584.0,21893.0,16405.0
2026-05-06 16:14:57.056230,689464,1609506360468346,3960380178,0.909632,-0.12688,0.398208,8.70625,12.4775,3.89375,-40.336002,-20.104,-80.344,concentric,6,5.0,36311.0,40426.0,90897.0,98960.0,34019.0,48025.0,39191.0,56584.0,21893.0,16405.0
2026-05-06 16:14:57.058736,689465,1609506360482825,3960395095,0.886208,-0.201056,0.413824,4.69,16.03875,1.3125,-40.320004,-18.952002,-79.8,concentric,6,5.0,36311.0,40426.0,90897.0,98960.0,34019.0,48025.0,39191.0,56584.0,21893.0,16405.0
2026-05-06 16:14:57.061252,689466,1609506360491758,3960403793,0.886208,-0.201056,0.413824,-1.93375,21.00875,-3.96375,-40.320004,-18.952002,-79.8,concentric,6,5.0,36311.0,40426.0,90897.0,98960.0,34019.0,48025.0,39191.0,56584.0,21893.0,16405.0
2026-05-06 16:14:57.063505,689467,1609506360506450,3960418775,0.81008,-0.144448,0.406016,-6.0725,23.77375,-4.71625,-40.68,-18.392,-80.008,concentric,6,5.0,36311.0,40426.0,90897.0,98960.0,34019.0,48025.0,39191.0,56584.0,21893.0,16405.0
2026-05-06 16:14:57.072437,689468,1609506360515431,3960427530,0.911584,-0.179584,0.25376,-3.61375,23.44125,-4.62,-40.88,-19.008001,-79.520004,concentric,6,5.0,36311.0,40426.0,90897.0,98960.0,34019.0,48025.0,39191.0,56584.0,21893.0,16405.0
2026-05-06 16:14:57.102646,689479,1609506360524741,3960436255,0.911584,-0.179584,0.25376,-0.805,21.02625,-8.32125,-40.88,-19.008001,-79.520004,concentric,6,5.0,36830.0,40982.0,91262.0,99298.0,34474.0,48504.0,39351.0,56639.0,22155.0,16623.0
2026-05-06 16:14:57.105158,689480,1609506360539423,3960451283,1.00528,-0.2928,0.445056,-6.09875,17.92,-11.90875,-41.352,-22.712002,-77.088005,concentric,6,5.0,36830.0,40982.0,91262.0,99298.0,34474.0,48504.0,39351.0,56639.0,22155.0,16623.0
2026-05-06 16:14:57.107630,689481,1609506360548349,3960460054,1.00528,-0.2928,0.445056,-15.32125,19.6,-12.8975,-41.352,-22.712002,-77.088005,concentric,6,5.0,36830.0,40982.0,91262.0,99298.0,34474.0,48504.0,39351.0,56639.0,22155.0,16623.0
2026-05-06 16:14:57.142684,689482,1609506360562937,3960475081,0.895968,-0.218624,0.47824,-19.27625,23.7825,-12.25875,-41.496002,-20.568,-77.872,concentric,6,5.0,36830.0,40982.0,91262.0,99298.0,34474.0,48504.0,39351.0,56639.0,22155.0,16623.0
2026-05-06 16:14:57.144625,689483,1609506360571872,3960483787,0.895968,-0.218624,0.47824,-11.5325,25.025,-11.13,-41.496002,-20.568,-77.872,concentric,6,5.0,36830.0,40982.0,91262.0,99298.0,34474.0,48504.0,39351.0,56639.0,22155.0,16623.0
2026-05-06 16:14:57.147366,689484,1609506360580801,3960492512,0.86864,-0.109312,0.3416,-5.0575,25.585001,-12.792501,-41.552002,-19.464,-78.560005,concentric,6,5.0,36830.0,40982.0,91262.0,99298.0,34474.0,48504.0,39351.0,56639.0,22155.0,16623.0
2026-05-06 16:14:57.150934,689485,1609506360595309,3960507450,0.940864,-0.208864,0.324032,-1.95125,24.47375,-16.1175,-41.752003,-20.976002,-75.58401,concentric,6,5.0,36830.0,40982.0,91262.0,99298.0,34474.0,48504.0,39351.0,56639.0,22155.0,16623.0
2026-05-06 16:14:57.159701,689486,1609506360604286,3960516183,0.940864,-0.208864,0.324032,-2.2225,22.6275,-21.69125,-41.752003,-20.976002,-75.58401,concentric,6,5.0,36830.0,40982.0,91262.0,99298.0,34474.0,48504.0,39351.0,56639.0,22155.0,16623.0
2026-05-06 16:14:57.193894,689487,1609506360618788,3960531099,0.938912,-0.232288,0.452864,-5.7225,22.28625,-23.2575,-41.816,-19.816002,-78.176,concentric,6,5.0,36830.0,40982.0,91262.0,99298.0,34474.0,48504.0,39351.0,56639.0,22155.0,16623.0
2026-05-06 16:14:57.221215,689498,1609506360627886,3960539922,0.938912,-0.232288,0.452864,-7.49875,23.625,-18.41875,-41.816,-19.816002,-78.176,concentric,6,5.0,37039.0,41136.0,91248.0,101202.0,34669.0,48635.0,39339.0,57659.0,22339.0,16690.0
2026-05-06 16:14:57.223726,689499,1609506360636857,3960548712,0.884256,-0.105408,0.488,-12.48625,25.41,-14.83125,-42.096,-19.736,-77.36,concentric,6,5.0,37039.0,41136.0,91248.0,101202.0,34669.0,48635.0,39339.0,57659.0,22339.0,16690.0
2026-05-06 16:14:57.226364,689500,1609506360651430,3960563664,0.884256,-0.105408,0.488,-20.195,25.4275,-14.385,-42.096,-19.736,-77.36,concentric,6,5.0,37039.0,41136.0,91248.0,101202.0,34669.0,48635.0,39339.0,57659.0,22339.0,16690.0
2026-05-06 16:14:57.228868,689501,1609506360660498,3960572462,0.90768,-0.11712,0.394304,-29.04125,24.15,-18.06875,-42.744003,-23.488,-75.184006,concentric,6,5.0,37039.0,41136.0,91248.0,101202.0,34669.0,48635.0,39339.0,57659.0,22339.0,16690.0
2026-05-06 16:14:57.233156,689502,1609506360675065,3960587452,0.90768,-0.11712,0.464576,-37.2575,21.35875,-22.303751,-42.744003,-23.488,-75.184006,concentric,6,5.0,37039.0,41136.0,91248.0,101202.0,34669.0,48635.0,39339.0,57659.0,22339.0,16690.0
2026-05-06 16:14:57.240244,689503,1609506360684165,3960596187,1.018944,-0.31232,0.464576,-42.28875,18.8825,-24.5525,-42.728,-24.36,-75.54401,concentric,6,5.0,37039.0,41136.0,91248.0,101202.0,34669.0,48635.0,39339.0,57659.0,22339.0,16690.0
2026-05-06 16:14:57.279935,689504,1609506360698678,3960611119,0.91744,-0.329888,0.597312,-39.17375,18.3225,-23.72125,-42.36,-21.248001,-76.920006,concentric,6,5.0,37039.0,41136.0,91248.0,101202.0,34669.0,48635.0,39339.0,57659.0,22339.0,16690.0
2026-05-06 16:14:57.304998,689505,1609506360707635,3960619885,0.91744,-0.329888,0.597312,-25.9875,16.7825,-20.2125,-42.36,-21.248001,-76.920006,concentric,6,5.0,37039.0,41136.0,91248.0,101202.0,34669.0,48635.0,39339.0,57659.0,22339.0,16690.0
2026-05-06 16:14:57.325887,689506,1609506360716599,3960628628,0.933056,-0.191296,0.491904,-8.33875,14.525,-16.37125,-42.672,-21.104,-76.32001,concentric,6,5.0,37039.0,41136.0,91248.0,101202.0,34669.0,48635.0,39339.0,57659.0,22339.0,16690.0
2026-05-06 16:14:57.349970,689517,1609506360731329,3960643575,0.933056,-0.191296,0.491904,1.82875,12.11875,-12.915,-42.672,-21.104,-76.32001,concentric,6,5.0,36917.0,40635.0,90728.0,101508.0,34529.0,48209.0,39097.0,57955.0,22315.0,16590.0
2026-05-06 16:14:57.352521,689518,1609506360740258,3960652263,0.999424,-0.220576,0.480192,0.46375,10.5175,-12.2675,-42.608,-21.712002,-76.256004,concentric,6,5.0,36917.0,40635.0,90728.0,101508.0,34529.0,48209.0,39097.0,57955.0,22315.0,16590.0
2026-05-06 16:14:57.355053,689519,1609506360754745,3960667448,0.999424,-0.220576,0.480192,-7.51625,10.0625,-14.1925,-42.608,-21.712002,-76.256004,concentric,6,5.0,36917.0,40635.0,90728.0,101508.0,34529.0,48209.0,39097.0,57955.0,22315.0,16590.0
2026-05-06 16:14:57.357546,689520,1609506360763651,3960676151,0.894016,-0.259616,0.530944,-12.97625,9.38875,-16.24875,-42.904003,-23.144001,-76.008,concentric,6,5.0,36917.0,40635.0,90728.0,101508.0,34529.0,48209.0,39097.0,57955.0,22315.0,16590.0
2026-05-06 16:14:57.360053,689521,1609506360772707,3960685004,0.894016,-0.259616,0.530944,-12.17125,8.05875,-16.1175,-42.904003,-23.144001,-76.008,concentric,6,5.0,36917.0,40635.0,90728.0,101508.0,34529.0,48209.0,39097.0,57955.0,22315.0,16590.0
2026-05-06 16:14:57.365045,689522,1609506360787405,3960700071,0.923296,-0.22448,0.501664,-10.3775,6.6325,-14.35875,-42.656002,-23.632002,-75.352005,concentric,6,5.0,36917.0,40635.0,90728.0,101508.0,34529.0,48209.0,39097.0,57955.0,22315.0,16590.0
2026-05-06 16:14:57.367378,689523,1609506360796352,3960708789,0.913536,-0.236192,0.530944,-12.55625,7.00875,-13.43125,-42.656002,-23.632002,-75.888,concentric,6,5.0,36917.0,40635.0,90728.0,101508.0,34529.0,48209.0,39097.0,57955.0,22315.0,16590.0
2026-05-06 16:14:57.372329,689524,1609506360810961,3960721802,0.913536,-0.236192,0.530944,-15.16375,7.69125,-12.39,-42.744003,-23.384,-75.888,concentric,6,5.0,36917.0,40635.0,90728.0,101508.0,34529.0,48209.0,39097.0,57955.0,22315.0,16590.0
2026-05-06 16:14:57.378823,689525,1609506360820847,3960732735,0.89792,-0.259616,0.462624,-12.95875,7.77875,-10.64,-42.496002,-25.728,-73.248,concentric,6,5.0,36917.0,40635.0,90728.0,101508.0,34529.0,48209.0,39097.0,57955.0,22315.0,16590.0
2026-05-06 16:14:57.406413,689536,1609506360829856,3960741531,0.89792,-0.259616,0.462624,-10.91125,6.29125,-9.42375,-42.496002,-25.728,-73.248,concentric,6,5.0,36700.0,40348.0,90532.0,101807.0,34301.0,47900.0,38955.0,58072.0,22199.0,16480.0
2026-05-06 16:14:57.408923,689537,1609506360844411,3960756562,0.874496,-0.169824,0.515328,-10.0625,5.075,-9.1875,-42.864002,-22.264002,-76.128006,concentric,6,5.0,36700.0,40348.0,90532.0,101807.0,34301.0,47900.0,38955.0,58072.0,22199.0,16480.0
2026-05-06 16:14:57.411414,689538,1609506360853334,3960765316,0.874496,-0.169824,0.515328,-8.3475,3.61375,-7.97125,-42.864002,-22.264002,-76.128006,concentric,6,5.0,36700.0,40348.0,90532.0,101807.0,34301.0,47900.0,38955.0,58072.0,22199.0,16480.0
2026-05-06 16:14:57.426829,689539,1609506360867877,3960780267,0.866688,-0.171776,0.489952,-8.6275,2.52,-8.51375,-42.528004,-22.648,-76.200005,concentric,6,5.0,36700.0,40348.0,90532.0,101807.0,34301.0,47900.0,38955.0,58072.0,22199.0,16480.0
2026-05-06 16:14:57.433755,689540,1609506360876827,3960789058,0.89792,-0.275232,0.480192,-13.04625,2.0475,-8.96875,-42.528004,-22.648,-76.560005,concentric,6,5.0,36700.0,40348.0,90532.0,101807.0,34301.0,47900.0,38955.0,58072.0,22199.0,16480.0
2026-05-06 16:14:57.467548,689541,1609506360891326,3960803977,0.895968,-0.275232,0.480192,-15.82,2.415,-7.97125,-42.960003,-24.04,-76.560005,concentric,6,5.0,36700.0,40348.0,90532.0,101807.0,34301.0,47900.0,38955.0,58072.0,22199.0,16480.0
2026-05-06 16:14:57.470118,689542,1609506360900239,3960812716,0.862784,-0.236192,0.40016,-14.9275,1.58375,-5.83625,-43.056004,-22.456001,-76.048004,concentric,6,5.0,36700.0,40348.0,90532.0,101807.0,34301.0,47900.0,38955.0,58072.0,22199.0,16480.0
2026-05-06 16:14:57.472637,689543,1609506360909163,3960821456,0.862784,-0.236192,0.40016,-8.9425,-0.23625,-3.49125,-43.056004,-22.456001,-76.048004,concentric,6,5.0,36700.0,40348.0,90532.0,101807.0,34301.0,47900.0,38955.0,58072.0,22199.0,16480.0
2026-05-06 16:14:57.503635,689554,1609506360923694,3960836429,0.81984,-0.113216,0.454816,-2.23125,-1.8725,-2.17,-42.768,-22.488,-75.928,concentric,6,5.0,36695.0,40364.0,90688.0,102431.0,34280.0,47901.0,39048.0,58370.0,22172.0,16471.0
2026-05-06 16:14:57.507614,689555,1609506360932663,3960845270,0.81984,-0.113216,0.454816,0.51625,-2.975,-2.9575,-42.768,-22.488,-75.928,concentric,6,5.0,36695.0,40364.0,90688.0,102431.0,34280.0,47901.0,39048.0,58370.0,22172.0,16471.0
2026-05-06 16:14:57.510522,689556,1609506360947284,3960858250,0.786656,-0.130784,0.44896,-1.21625,-4.34,-4.24375,-42.848003,-24.672,-74.408005,concentric,6,5.0,36695.0,40364.0,90688.0,102431.0,34280.0,47901.0,39048.0,58370.0,22172.0,16471.0
2026-05-06 16:14:57.514952,689557,1609506360956749,3960869055,0.786656,-0.130784,0.44896,-6.265,-5.25,-6.1075,-42.848003,-24.672,-74.408005,concentric,6,5.0,36695.0,40364.0,90688.0,102431.0,34280.0,47901.0,39048.0,58370.0,22172.0,16471.0
2026-05-06 16:14:57.521099,689558,1609506360965744,3960877844,0.804224,-0.228384,0.404064,-11.1475,-4.82125,-6.22125,-42.440002,-24.000002,-72.37601,concentric,6,5.0,36695.0,40364.0,90688.0,102431.0,34280.0,47901.0,39048.0,58370.0,22172.0,16471.0
2026-05-06 16:14:57.556246,689559,1609506360980234,3960892785,0.79056,-0.183488,0.470432,-11.41,-4.96125,-5.78375,-42.256,-22.312,-76.144005,eccentric,6,5.0,36695.0,40364.0,90688.0,102431.0,34280.0,47901.0,39048.0,58370.0,22172.0,16471.0
2026-05-06 16:14:57.557424,689560,1609506360989187,3960901494,0.79056,-0.183488,0.470432,-6.39625,-6.23,-5.25,-42.256,-22.312,-76.144005,eccentric,6,5.0,36695.0,40364.0,90688.0,102431.0,34280.0,47901.0,39048.0,58370.0,22172.0,16471.0
2026-05-06 16:14:57.561102,689561,1609506361003668,3960916394,0.772992,-0.12688,0.47824,0.32375,-7.30625,-3.91125,-42.512,-22.512001,-76.312004,eccentric,6,5.0,36695.0,40364.0,90688.0,102431.0,34280.0,47901.0,39048.0,58370.0,22172.0,16471.0
2026-05-06 16:14:57.573773,689562,1609506361012654,3960925123,0.772992,-0.12688,0.47824,4.76875,-7.76125,-4.10375,-42.512,-22.512001,-76.312004,eccentric,6,5.0,36695.0,40364.0,90688.0,102431.0,34280.0,47901.0,39048.0,58370.0,22172.0,16471.0
2026-05-06 16:14:57.605068,689573,1609506361027711,3960940174,0.77104,-0.132736,0.44896,5.5475,-7.53375,-4.99625,-42.232002,-22.952002,-76.264,eccentric,6,5.0,36540.0,40309.0,90605.0,102211.0,34142.0,47850.0,38971.0,58293.0,22085.0,16433.0
2026-05-06 16:14:57.607227,689574,1609506361036743,3960948957,0.77104,-0.132736,0.44896,3.43,-7.2275,-5.845,-42.232002,-22.952002,-76.264,eccentric,6,5.0,36540.0,40309.0,90605.0,102211.0,34142.0,47850.0,38971.0,58293.0,22085.0,16433.0
2026-05-06 16:14:57.609903,689575,1609506361045712,3960957796,0.772992,-0.17568,0.482144,0.07875,-6.23875,-6.92125,-42.488003,-22.856,-76.896,eccentric,6,5.0,36540.0,40309.0,90605.0,102211.0,34142.0,47850.0,38971.0,58293.0,22085.0,16433.0
2026-05-06 16:14:57.616044,689576,1609506361060276,3960972889,0.759328,-0.152256,0.433344,-0.74375,-6.3875,-6.44875,-42.576,-22.584002,-74.76,eccentric,6,5.0,36540.0,40309.0,90605.0,102211.0,34142.0,47850.0,38971.0,58293.0,22085.0,16433.0
2026-05-06 16:14:57.624832,689577,1609506361069183,3960981613,0.759328,-0.152256,0.433344,1.4525,-6.65875,-5.67,-42.576,-22.584002,-74.76,eccentric,6,5.0,36540.0,40309.0,90605.0,102211.0,34142.0,47850.0,38971.0,58293.0,22085.0,16433.0
2026-05-06 16:14:57.649906,689578,1609506361083653,3960994474,0.75152,-0.119072,0.447008,5.74,-7.5775,-5.005,-42.272003,-22.744001,-76.84801,eccentric,6,5.0,36540.0,40309.0,90605.0,102211.0,34142.0,47850.0,38971.0,58293.0,22085.0,16433.0
2026-05-06 16:14:57.675016,689579,1609506361092961,3961005356,0.75152,-0.119072,0.447008,7.77875,-8.58375,-5.285,-42.272003,-22.744001,-76.84801,eccentric,6,5.0,36540.0,40309.0,90605.0,102211.0,34142.0,47850.0,38971.0,58293.0,22085.0,16433.0
2026-05-06 16:14:57.700020,689580,1609506361101910,3961014060,0.794464,-0.140544,0.413824,8.09375,-9.0475,-5.4775,-42.048,-22.960001,-77.04,eccentric,6,5.0,36540.0,40309.0,90605.0,102211.0,34142.0,47850.0,38971.0,58293.0,22085.0,16433.0
2026-05-06 16:14:57.725075,689581,1609506361116601,3961028981,0.794464,-0.140544,0.413824,7.14875,-9.4675,-6.2825,-42.048,-22.960001,-77.04,eccentric,6,5.0,36540.0,40309.0,90605.0,102211.0,34142.0,47850.0,38971.0,58293.0,22085.0,16433.0
2026-05-06 16:14:57.756415,689592,1609506361125890,3961037739,0.802272,-0.160064,0.462624,4.36625,-10.3075,-6.6675,-42.000004,-22.480001,-77.152,eccentric,6,5.0,36437.0,40220.0,90598.0,101937.0,34040.0,47744.0,38980.0,58197.0,22019.0,16395.0
2026-05-06 16:14:57.758949,689593,1609506361140477,3961052776,0.794464,-0.148352,0.433344,0.84,-9.98375,-6.02,-42.320004,-22.272001,-77.896,eccentric,6,5.0,36437.0,40220.0,90598.0,101937.0,34040.0,47744.0,38980.0,58197.0,22019.0,16395.0
2026-05-06 16:14:57.761510,689594,1609506361149401,3961061511,0.794464,-0.148352,0.433344,0.58625,-9.66875,-5.32875,-42.320004,-22.272001,-77.896,eccentric,6,5.0,36437.0,40220.0,90598.0,101937.0,34040.0,47744.0,38980.0,58197.0,22019.0,16395.0
2026-05-06 16:14:57.763885,689595,1609506361158324,3961070241,0.794464,-0.148352,0.433344,1.96,-10.15875,-4.4975,-42.320004,-22.272001,-77.896,eccentric,6,5.0,36437.0,40220.0,90598.0,101937.0,34040.0,47744.0,38980.0,58197.0,22019.0,16395.0
2026-05-06 16:14:57.766415,689596,1609506361172838,3961085169,0.825696,-0.1464,0.425536,3.08,-10.745,-4.2875,-42.096,-23.000002,-77.72,eccentric,6,5.0,36437.0,40220.0,90598.0,101937.0,34040.0,47744.0,38980.0,58197.0,22019.0,16395.0
2026-05-06 16:14:57.768953,689597,1609506361181785,3961093903,0.845216,-0.16592,0.445056,4.17375,-10.99875,-4.2525,-41.536003,-22.752,-76.84801,eccentric,6,5.0,36437.0,40220.0,90598.0,101937.0,34040.0,47744.0,38980.0,58197.0,22019.0,16395.0
2026-05-06 16:14:57.771517,689598,1609506361196357,3961108893,0.845216,-0.16592,0.445056,4.36625,-11.042501,-3.7275,-41.536003,-22.752,-76.84801,eccentric,6,5.0,36437.0,40220.0,90598.0,101937.0,34040.0,47744.0,38980.0,58197.0,22019.0,16395.0
2026-05-06 16:14:57.776428,689599,1609506361205367,3961117696,0.845216,-0.171776,0.443104,2.21375,-10.52625,-3.885,-41.896004,-22.84,-77.624,eccentric,6,5.0,36437.0,40220.0,90598.0,101937.0,34040.0,47744.0,38980.0,58197.0,22019.0,16395.0
2026-05-06 16:14:57.778960,689600,1609506361214287,3961126568,0.845216,-0.171776,0.443104,3.21125,-10.57,-2.3275,-41.896004,-22.84,-77.624,eccentric,6,5.0,36437.0,40220.0,90598.0,101937.0,34040.0,47744.0,38980.0,58197.0,22019.0,16395.0
2026-05-06 16:14:57.807664,689611,1609506361229051,3961141580,0.884256,-0.15616,0.431392,4.3225,-10.9025,-0.90125,-41.664,-22.648,-77.336006,eccentric,6,5.0,36419.0,40204.0,90587.0,101393.0,34026.0,47790.0,38993.0,57969.0,21997.0,16379.0
2026-05-06 16:14:57.808543,689612,1609506361238356,3961150383,0.884256,-0.15616,0.431392,3.63125,-10.9375,-0.7175,-41.664,-22.648,-77.336006,eccentric,6,5.0,36419.0,40204.0,90587.0,101393.0,34026.0,47790.0,38993.0,57969.0,21997.0,16379.0
2026-05-06 16:14:57.811030,689613,1609506361252977,3961165365,0.882304,-0.169824,0.404064,3.5,-10.91125,-0.60375,-41.728,-24.528002,-78.616005,eccentric,6,5.0,36419.0,40204.0,90587.0,101393.0,34026.0,47790.0,38993.0,57969.0,21997.0,16379.0
2026-05-06 16:14:57.820000,689614,1609506361261935,3961174089,0.872544,-0.167872,0.421632,2.6425,-11.08625,-0.53375,-41.664,-24.448002,-76.968,eccentric,6,5.0,36419.0,40204.0,90587.0,101393.0,34026.0,47790.0,38993.0,57969.0,21997.0,16379.0
2026-05-06 16:14:57.826265,689615,1609506361270886,3961182844,0.872544,-0.167872,0.421632,3.0625,-11.0075,-0.0175,-41.664,-24.448002,-76.968,eccentric,6,5.0,36419.0,40204.0,90587.0,101393.0,34026.0,47790.0,38993.0,57969.0,21997.0,16379.0
2026-05-06 16:14:57.860097,689616,1609506361285358,3961197786,0.8784,-0.160064,0.411872,4.24375,-11.59375,0.81375,-41.184002,-22.68,-78.288,eccentric,6,5.0,36419.0,40204.0,90587.0,101393.0,34026.0,47790.0,38993.0,57969.0,21997.0,16379.0
2026-05-06 16:14:57.862660,689617,1609506361294269,3961206600,0.8784,-0.160064,0.411872,3.80625,-12.0925,1.82875,-41.184002,-22.68,-78.288,eccentric,6,5.0,36419.0,40204.0,90587.0,101393.0,34026.0,47790.0,38993.0,57969.0,21997.0,16379.0
2026-05-06 16:14:57.866452,689618,1609506361308746,3961221488,0.915488,-0.17568,0.398208,6.44,-13.055,3.22875,-41.36,-22.552002,-78.352005,eccentric,6,5.0,36419.0,40204.0,90587.0,101393.0,34026.0,47790.0,38993.0,57969.0,21997.0,16379.0
2026-05-06 16:14:57.876382,689619,1609506361317710,3961230270,0.915488,-0.17568,0.398208,7.65625,-13.67625,4.06,-41.36,-22.552002,-78.352005,eccentric,6,5.0,36419.0,40204.0,90587.0,101393.0,34026.0,47790.0,38993.0,57969.0,21997.0,16379.0
2026-05-06 16:14:57.905002,689630,1609506361332367,3961243208,0.923296,-0.177632,0.407968,5.635,-13.43125,4.06875,-41.472,-24.112001,-76.84801,eccentric,6,5.0,36458.0,40220.0,90486.0,100722.0,33980.0,47725.0,38923.0,57583.0,21918.0,16311.0
2026-05-06 16:14:57.907529,689631,1609506361341623,3961254161,0.931104,-0.15616,0.417728,3.71,-12.573751,3.82375,-41.120003,-22.112001,-76.656006,eccentric,6,5.0,36458.0,40220.0,90486.0,100722.0,33980.0,47725.0,38923.0,57583.0,21918.0,16311.0
2026-05-06 16:14:57.910019,689632,1609506361350610,3961262881,0.931104,-0.15616,0.417728,4.08625,-12.11875,4.68125,-41.120003,-22.112001,-76.656006,eccentric,6,5.0,36458.0,40220.0,90486.0,100722.0,33980.0,47725.0,38923.0,57583.0,21918.0,16311.0
2026-05-06 16:14:57.923835,689633,1609506361365130,3961277794,0.970144,-0.21472,0.384544,4.515,-11.865,4.9,-40.84,-22.2,-78.864006,eccentric,6,5.0,36458.0,40220.0,90486.0,100722.0,33980.0,47725.0,38923.0,57583.0,21918.0,16311.0
2026-05-06 16:14:57.932675,689634,1609506361374049,3961286536,0.970144,-0.21472,0.384544,5.7225,-13.3175,7.0175,-40.84,-22.2,-78.864006,eccentric,6,5.0,36458.0,40220.0,90486.0,100722.0,33980.0,47725.0,38923.0,57583.0,21918.0,16311.0
2026-05-06 16:14:57.946455,689635,1609506361388688,3961299444,0.99552,-0.218624,0.415776,6.32625,-14.00875,10.14125,-40.848003,-21.44,-79.05601,eccentric,6,5.0,36458.0,40220.0,90486.0,100722.0,33980.0,47725.0,38923.0,57583.0,21918.0,16311.0
2026-05-06 16:14:57.955066,689636,1609506361397967,3961310280,0.99552,-0.218624,0.415776,6.195,-14.81375,11.6025,-40.848003,-21.44,-79.05601,eccentric,6,5.0,36458.0,40220.0,90486.0,100722.0,33980.0,47725.0,38923.0,57583.0,21918.0,16311.0
2026-05-06 16:14:57.963825,689637,1609506361407108,3961319002,1.075552,-0.199104,0.402112,3.85875,-14.20125,11.68125,-41.056004,-23.032001,-77.688,eccentric,6,5.0,36458.0,40220.0,90486.0,100722.0,33980.0,47725.0,38923.0,57583.0,21918.0,16311.0
2026-05-06 16:14:57.982104,689638,1609506361421639,3961333892,1.0736,-0.210816,0.366976,4.10375,-13.95625,11.515,-40.68,-22.392,-81.632,eccentric,6,5.0,36458.0,40220.0,90486.0,100722.0,33980.0,47725.0,38923.0,57583.0,21918.0,16311.0
2026-05-06 16:14:58.057462,689650,1609506361430839,3961342689,1.0736,-0.210816,0.366976,8.2775,-14.77875,11.59375,-40.68,-22.392,-81.632,eccentric,6,5.0,36378.0,40117.0,90541.0,100425.0,33889.0,47595.0,38944.0,57425.0,21851.0,16247.0
2026-05-06 16:14:58.060228,689651,1609506361445349,3961357666,1.069696,-0.245952,0.437248,13.0725,-17.9375,13.36125,-40.896004,-22.832,-78.64001,eccentric,6,5.0,36378.0,40117.0,90541.0,100425.0,33889.0,47595.0,38944.0,57425.0,21851.0,16247.0
2026-05-06 16:14:58.062727,689652,1609506361454247,3961366369,1.069696,-0.245952,0.437248,13.3175,-21.04375,15.636251,-40.896004,-22.832,-78.64001,eccentric,6,5.0,36378.0,40117.0,90541.0,100425.0,33889.0,47595.0,38944.0,57425.0,21851.0,16247.0
2026-05-06 16:14:58.065171,689653,1609506361468795,3961381386,1.067744,-0.206912,0.411872,14.175,-23.05625,18.87375,-40.512,-20.424002,-80.64001,eccentric,6,5.0,36378.0,40117.0,90541.0,100425.0,33889.0,47595.0,38944.0,57425.0,21851.0,16247.0
2026-05-06 16:14:58.067653,689654,1609506361477791,3961390140,1.067744,-0.206912,0.411872,14.542501,-24.272501,20.0375,-40.512,-20.424002,-80.64001,eccentric,6,5.0,36378.0,40117.0,90541.0,100425.0,33889.0,47595.0,38944.0,57425.0,21851.0,16247.0
2026-05-06 16:14:58.070182,689655,1609506361486737,3961398867,1.056032,-0.191296,0.347456,14.30625,-23.38,17.78,-40.344,-20.496,-80.288,eccentric,6,5.0,36378.0,40117.0,90541.0,100425.0,33889.0,47595.0,38944.0,57425.0,21851.0,16247.0
2026-05-06 16:14:58.075904,689656,1609506361501337,3961413776,1.056032,-0.222528,0.417728,16.63375,-23.12625,15.09375,-40.344,-20.496,-80.288,eccentric,6,5.0,36378.0,40117.0,90541.0,100425.0,33889.0,47595.0,38944.0,57425.0,21851.0,16247.0
2026-05-06 16:14:58.076291,689657,1609506361510339,3961422554,1.009184,-0.222528,0.417728,16.695,-22.9775,13.39625,-40.688004,-23.408,-81.07201,eccentric,6,5.0,36378.0,40117.0,90541.0,100425.0,33889.0,47595.0,38944.0,57425.0,21851.0,16247.0
2026-05-06 16:14:58.108771,689668,1609506361524880,3961438010,0.884256,-0.134688,0.388448,14.04375,-22.3125,13.30875,-40.176003,-21.752,-79.608,eccentric,6,5.0,36173.0,40030.0,90777.0,99306.0,33732.0,47586.0,39048.0,56853.0,21724.0,16170.0
2026-05-06 16:14:58.111295,689669,1609506361533924,3961444686,0.884256,-0.134688,0.388448,14.41125,-21.11375,14.28,-40.176003,-21.752,-79.608,eccentric,6,5.0,36173.0,40030.0,90777.0,99306.0,33732.0,47586.0,39048.0,56853.0,21724.0,16170.0
2026-05-06 16:14:58.113654,689670,1609506361543185,3961455558,0.944768,-0.140544,0.353312,26.46875,-21.84,15.04125,-39.792004,-19.624,-80.01601,eccentric,6,5.0,36173.0,40030.0,90777.0,99306.0,33732.0,47586.0,39048.0,56853.0,21724.0,16170.0
2026-05-06 16:14:58.116326,689671,1609506361557876,3961470565,0.944768,-0.140544,0.353312,33.59125,-22.3825,13.16,-39.792004,-19.624,-80.01601,eccentric,6,5.0,36173.0,40030.0,90777.0,99306.0,33732.0,47586.0,39048.0,56853.0,21724.0,16170.0
2026-05-06 16:14:58.125111,689672,1609506361566839,3961479282,0.976,-0.199104,0.3904,30.625,-20.965,12.03125,-39.408,-20.512001,-80.384,eccentric,6,5.0,36173.0,40030.0,90777.0,99306.0,33732.0,47586.0,39048.0,56853.0,21724.0,16170.0
2026-05-06 16:14:58.138934,689673,1609506361581421,3961492321,0.976,-0.199104,0.3904,26.10125,-20.1775,10.08,-39.408,-20.512001,-80.384,eccentric,6,5.0,36173.0,40030.0,90777.0,99306.0,33732.0,47586.0,39048.0,56853.0,21724.0,16170.0
2026-05-06 16:14:58.147545,689674,1609506361590771,3961503102,0.903776,-0.160064,0.42944,18.52375,-19.31125,9.30125,-39.120003,-19.76,-82.504005,eccentric,6,5.0,36173.0,40030.0,90777.0,99306.0,33732.0,47586.0,39048.0,56853.0,21724.0,16170.0
2026-05-06 16:14:58.156405,689675,1609506361599741,3961511830,0.903776,-0.160064,0.42944,16.9925,-19.7225,10.75375,-39.120003,-19.76,-82.504005,eccentric,6,5.0,36173.0,40030.0,90777.0,99306.0,33732.0,47586.0,39048.0,56853.0,21724.0,16170.0
2026-05-06 16:14:58.190071,689676,1609506361614285,3961526733,0.89792,-0.070272,0.386496,18.59375,-19.80125,11.9525,-39.176003,-18.776001,-81.688,eccentric,6,5.0,36173.0,40030.0,90777.0,99306.0,33732.0,47586.0,39048.0,56853.0,21724.0,16170.0
2026-05-06 16:14:58.195011,689677,1609506361623226,3961535451,0.886208,-0.085888,0.343552,15.16375,-18.76,9.03875,-38.600002,-18.808,-83.36,eccentric,6,5.0,36173.0,40030.0,90777.0,99306.0,33732.0,47586.0,39048.0,56853.0,21724.0,16170.0
2026-05-06 16:14:58.222689,689688,1609506361637827,3961550529,0.886208,-0.085888,0.343552,15.39125,-17.3775,5.565,-38.600002,-18.808,-83.36,eccentric,6,5.0,36233.0,40143.0,90919.0,99037.0,33796.0,47667.0,39142.0,56706.0,21758.0,16218.0
2026-05-06 16:14:58.225121,689689,1609506361646944,3961559273,0.876448,-0.230336,0.288896,14.665,-17.42125,2.0475,-38.568,-18.648,-82.28001,eccentric,6,5.0,36233.0,40143.0,90919.0,99037.0,33796.0,47667.0,39142.0,56706.0,21758.0,16218.0
2026-05-06 16:14:58.227651,689690,1609506361655976,3961568015,0.876448,-0.230336,0.288896,5.6875,-16.8525,-2.5725,-38.568,-18.648,-82.28001,eccentric,6,5.0,36233.0,40143.0,90919.0,99037.0,33796.0,47667.0,39142.0,56706.0,21758.0,16218.0
2026-05-06 16:14:58.229936,689691,1609506361670481,3961582974,0.856928,-0.16592,0.300608,2.47625,-17.815,-1.7675,-37.936,-18.752,-82.648,eccentric,6,5.0,36233.0,40143.0,90919.0,99037.0,33796.0,47667.0,39142.0,56706.0,21758.0,16218.0
2026-05-06 16:14:58.236194,689692,1609506361679424,3961591713,0.856928,-0.16592,0.300608,10.5525,-18.795,1.42625,-37.936,-18.752,-82.648,eccentric,6,5.0,36233.0,40143.0,90919.0,99037.0,33796.0,47667.0,39142.0,56706.0,21758.0,16218.0
2026-05-06 16:14:58.252653,689693,1609506361693917,3961606629,0.831552,-0.062464,0.368928,17.45625,-18.57625,1.77625,-37.896,-18.768002,-82.64001,eccentric,6,5.0,36233.0,40143.0,90919.0,99037.0,33796.0,47667.0,39142.0,56706.0,21758.0,16218.0
2026-05-06 16:14:58.263531,689694,1609506361702842,3961615360,0.831552,-0.124928,0.359168,14.63875,-16.2225,-0.875,-37.896,-18.768002,-82.64001,eccentric,6,5.0,36233.0,40143.0,90919.0,99037.0,33796.0,47667.0,39142.0,56706.0,21758.0,16218.0
2026-05-06 16:14:58.274512,689695,1609506361717484,3961628343,0.804224,-0.11712,0.359168,1.4175,-14.0875,-7.56875,-37.872,-18.936,-83.024,eccentric,6,5.0,36233.0,40143.0,90919.0,99037.0,33796.0,47667.0,39142.0,56706.0,21758.0,16218.0
2026-05-06 16:14:58.336402,689706,1609506361726778,3961639195,0.76128,-0.183488,0.226432,-15.65375,-11.865,-16.75625,-37.512,-20.576,-81.688,eccentric,6,5.0,36329.0,40144.0,91121.0,99263.0,33862.0,47645.0,39230.0,56880.0,21791.0,16255.0
2026-05-06 16:14:58.338880,689707,1609506361735739,3961647939,0.76128,-0.183488,0.226432,-19.03125,-10.59625,-18.97875,-37.512,-20.576,-81.688,eccentric,6,5.0,36329.0,40144.0,91121.0,99263.0,33862.0,47645.0,39230.0,56880.0,21791.0,16255.0
2026-05-06 16:14:58.341465,689708,1609506361750396,3961662926,0.798368,-0.181536,0.384544,-3.10625,-9.87875,-12.90625,-37.456,-21.288,-82.58401,eccentric,6,5.0,36329.0,40144.0,91121.0,99263.0,33862.0,47645.0,39230.0,56880.0,21791.0,16255.0
2026-05-06 16:14:58.343930,689709,1609506361759311,3961671653,0.798368,-0.181536,0.384544,10.255,-7.2275,-9.511251,-37.456,-21.288,-82.58401,eccentric,6,5.0,36329.0,40144.0,91121.0,99263.0,33862.0,47645.0,39230.0,56880.0,21791.0,16255.0
2026-05-06 16:14:58.346398,689710,1609506361774020,3961686643,0.65392,-0.099552,0.281088,11.4625,-3.35125,-13.3875,-37.280003,-20.04,-82.840004,eccentric,6,5.0,36329.0,40144.0,91121.0,99263.0,33862.0,47645.0,39230.0,56880.0,21791.0,16255.0
2026-05-06 16:14:58.348854,689711,1609506361783009,3961695373,0.65392,-0.099552,0.281088,5.6875,-2.47625,-17.52625,-37.280003,-20.04,-82.840004,eccentric,6,5.0,36329.0,40144.0,91121.0,99263.0,33862.0,47645.0,39230.0,56880.0,21791.0,16255.0
2026-05-06 16:14:58.351459,689712,1609506361791950,3961704105,0.66368,-0.05856,0.101504,-3.52625,-4.50625,-23.17,-36.872,-19.84,-82.648,eccentric,6,5.0,36329.0,40144.0,91121.0,99263.0,33862.0,47645.0,39230.0,56880.0,21791.0,16255.0
2026-05-06 16:14:58.386247,689713,1609506361806583,3961719097,0.802272,-0.132736,0.38064,-0.18375,-6.405,-22.295,-37.112003,-20.296001,-82.688,eccentric,6,5.0,36329.0,40144.0,91121.0,99263.0,33862.0,47645.0,39230.0,56880.0,21791.0,16255.0
2026-05-06 16:14:58.411332,689714,1609506361815631,3961727805,0.802272,-0.132736,0.38064,-0.6825,-4.41875,-17.80625,-37.112003,-20.296001,-82.688,eccentric,6,5.0,36329.0,40144.0,91121.0,99263.0,33862.0,47645.0,39230.0,56880.0,21791.0,16255.0
2026-05-06 16:14:58.473791,689725,1609506361830201,3961742802,0.528992,-0.115168,0.259616,-7.41125,2.82625,-24.00125,-36.544003,-20.52,-82.73601,eccentric,6,5.0,35996.0,39795.0,91160.0,100027.0,33598.0,47257.0,39244.0,57241.0,21713.0,16105.0
2026-05-06 16:14:58.478708,689726,1609506361839250,3961751554,0.528992,-0.115168,0.259616,-2.24875,3.1325,-27.37,-36.544003,-20.52,-82.73601,eccentric,6,5.0,35996.0,39795.0,91160.0,100027.0,33598.0,47257.0,39244.0,57241.0,21713.0,16105.0
2026-05-06 16:14:58.481173,689727,1609506361853734,3961766449,0.737856,-0.081984,0.15616,-7.805,-0.67375,-24.17625,-36.688004,-21.248001,-82.592,eccentric,6,5.0,35996.0,39795.0,91160.0,100027.0,33598.0,47257.0,39244.0,57241.0,21713.0,16105.0
2026-05-06 16:14:58.483852,689728,1609506361862708,3961775194,0.737856,-0.081984,0.15616,-16.09125,-1.25125,-19.635,-36.688004,-21.248001,-82.592,eccentric,6,5.0,35996.0,39795.0,91160.0,100027.0,33598.0,47257.0,39244.0,57241.0,21713.0,16105.0
2026-05-06 16:14:58.486292,689729,1609506361871675,3961783949,0.7808,-0.119072,0.339648,-8.53125,-0.805,-18.025,-36.760002,-21.240002,-82.712006,eccentric,6,5.0,35996.0,39795.0,91160.0,100027.0,33598.0,47257.0,39244.0,57241.0,21713.0,16105.0
2026-05-06 16:14:58.488805,689730,1609506361886166,3961798915,0.474336,-0.07808,0.343552,-8.3825,0.44625,-23.66,-36.152,-21.672,-82.08,eccentric,6,5.0,35996.0,39795.0,91160.0,100027.0,33598.0,47257.0,39244.0,57241.0,21713.0,16105.0
2026-05-06 16:14:58.491335,689731,1609506361895071,3961807628,0.474336,-0.07808,0.343552,-12.69625,1.72375,-25.82125,-36.152,-21.672,-82.08,eccentric,6,5.0,35996.0,39795.0,91160.0,100027.0,33598.0,47257.0,39244.0,57241.0,21713.0,16105.0
2026-05-06 16:14:58.493804,689732,1609506361909779,3961820635,0.747616,-0.074176,0.02928,-11.375,-0.91875,-21.735,-36.072002,-23.864,-81.408005,eccentric,6,5.0,35996.0,39795.0,91160.0,100027.0,33598.0,47257.0,39244.0,57241.0,21713.0,16105.0
2026-05-06 16:14:58.498892,689733,1609506361919252,3961831528,0.747616,-0.074176,0.02928,-5.53,-4.6025,-17.99875,-36.072002,-23.864,-81.408005,eccentric,6,5.0,35996.0,39795.0,91160.0,100027.0,33598.0,47257.0,39244.0,57241.0,21713.0,16105.0
2026-05-06 16:14:58.538915,689744,1609506361928253,3961840365,0.93696,-0.128832,0.363072,-1.14625,-6.86875,-13.195,-35.944,-24.000002,-80.504005,eccentric,6,5.0,35825.0,39335.0,91094.0,101108.0,33421.0,46716.0,39206.0,57853.0,21624.0,15868.0
2026-05-06 16:14:58.544651,689745,1609506361942882,3961855373,0.93696,-0.128832,0.363072,-8.05875,-1.54,-16.24875,-35.944,-24.000002,-80.504005,eccentric,6,5.0,35825.0,39335.0,91094.0,101108.0,33421.0,46716.0,39206.0,57853.0,21624.0,15868.0
2026-05-06 16:14:58.544816,689746,1609506361951852,3961864094,0.41968,-0.021472,0.376736,-2.77375,2.96625,-28.56875,-36.328003,-24.504002,-80.648,eccentric,6,5.0,35825.0,39335.0,91094.0,101108.0,33421.0,46716.0,39206.0,57853.0,21624.0,15868.0
2026-05-06 16:14:58.550305,689747,1609506361966565,3961879034,0.74176,-0.001952,0.244,0.90125,-1.435,-28.18375,-36.064003,-22.856,-81.624,eccentric,6,5.0,35825.0,39335.0,91094.0,101108.0,33421.0,46716.0,39206.0,57853.0,21624.0,15868.0
2026-05-06 16:14:58.551820,689748,1609506361975615,3961887787,0.74176,-0.001952,0.244,-5.69625,-2.52875,-16.77375,-36.064003,-22.856,-81.624,eccentric,6,5.0,35825.0,39335.0,91094.0,101108.0,33421.0,46716.0,39206.0,57853.0,21624.0,15868.0
2026-05-06 16:14:58.554026,689749,1609506361984555,3961896573,0.74176,-0.001952,0.244,-9.58125,-2.82625,-12.11,-36.064003,-22.856,-81.624,eccentric,6,5.0,35825.0,39335.0,91094.0,101108.0,33421.0,46716.0,39206.0,57853.0,21624.0,15868.0
2026-05-06 16:14:58.556268,689750,1609506361999215,3961911627,1.001376,-0.242048,0.142496,-15.28625,-0.58625,-16.7475,-36.08,-26.392002,-77.37601,eccentric,6,5.0,35825.0,39335.0,91094.0,101108.0,33421.0,46716.0,39206.0,57853.0,21624.0,15868.0
2026-05-06 16:14:58.564989,689751,1609506362008202,3961920325,0.476288,-0.105408,0.318176,-15.05875,3.36,-19.46875,-36.184002,-25.936,-81.69601,eccentric,6,5.0,35825.0,39335.0,91094.0,101108.0,33421.0,46716.0,39206.0,57853.0,21624.0,15868.0
2026-05-06 16:14:58.598810,689752,1609506362022725,3961935234,0.476288,-0.105408,0.318176,0.49875,4.1125,-20.825,-36.184002,-25.936,-81.69601,eccentric,6,5.0,35825.0,39335.0,91094.0,101108.0,33421.0,46716.0,39206.0,57853.0,21624.0,15868.0
2026-05-06 16:14:58.628944,689763,1609506362032353,3961944005,0.694912,0.074176,0.288896,12.0925,-0.7175,-13.3,-35.824,-23.312,-82.336006,eccentric,6,5.0,35703.0,39236.0,90958.0,102062.0,33417.0,46639.0,39148.0,58279.0,21675.0,15898.0
2026-05-06 16:14:58.631301,689764,1609506362041387,3961952996,0.694912,0.074176,0.288896,5.59125,-0.09625,-7.595,-35.824,-23.312,-82.336006,eccentric,6,5.0,35703.0,39236.0,90958.0,102062.0,33417.0,46639.0,39148.0,58279.0,21675.0,15898.0
2026-05-06 16:14:58.633920,689765,1609506362055988,3961967987,0.665632,-0.163968,0.177632,-1.96,1.75875,-14.34125,-35.904003,-23.912,-81.90401,eccentric,6,5.0,35703.0,39236.0,90958.0,102062.0,33417.0,46639.0,39148.0,58279.0,21675.0,15898.0
2026-05-06 16:14:58.639540,689766,1609506362065014,3961976769,0.665632,-0.163968,0.177632,-8.575,2.80875,-14.875,-35.904003,-23.912,-81.90401,eccentric,6,5.0,35703.0,39236.0,90958.0,102062.0,33417.0,46639.0,39148.0,58279.0,21675.0,15898.0
2026-05-06 16:14:58.639659,689767,1609506362079673,3961991789,0.730048,-0.26352,0.251808,-11.165,2.84375,-3.99,-36.0,-23.728,-82.4,eccentric,6,5.0,35703.0,39236.0,90958.0,102062.0,33417.0,46639.0,39148.0,58279.0,21675.0,15898.0
2026-05-06 16:14:58.648512,689768,1609506362088618,3962000513,0.583648,-0.00976,0.261568,-10.01,2.24,-1.11125,-35.792,-23.776001,-82.26401,eccentric,6,5.0,35703.0,39236.0,90958.0,102062.0,33417.0,46639.0,39148.0,58279.0,21675.0,15898.0
2026-05-06 16:14:58.654991,689769,1609506362097729,3962009247,0.583648,-0.00976,0.261568,0.0525,-0.7,-1.46125,-35.792,-23.776001,-82.26401,eccentric,6,5.0,35703.0,39236.0,90958.0,102062.0,33417.0,46639.0,39148.0,58279.0,21675.0,15898.0
2026-05-06 16:14:58.668716,689770,1609506362112239,3962024219,0.64416,-0.015616,0.183488,5.64375,-2.45875,1.5225,-35.952003,-24.912,-81.12,eccentric,6,5.0,35703.0,39236.0,90958.0,102062.0,33417.0,46639.0,39148.0,58279.0,21675.0,15898.0
2026-05-06 16:14:58.677504,689771,1609506362121161,3962033008,0.64416,-0.015616,0.183488,0.6825,-2.58125,1.25125,-35.952003,-24.912,-81.12,eccentric,6,5.0,35703.0,39236.0,90958.0,102062.0,33417.0,46639.0,39148.0,58279.0,21675.0,15898.0
2026-05-06 16:14:58.713781,689782,1609506362135749,3962047970,0.821792,-0.296704,0.1952,-7.58625,-2.5375,2.4325,-35.816,-23.744001,-81.04,eccentric,6,5.0,35776.0,39369.0,90967.0,101698.0,33455.0,46764.0,39146.0,58158.0,21714.0,15939.0
2026-05-06 16:14:58.716397,689783,1609506362144814,3962056810,0.821792,-0.296704,0.1952,-14.98875,-2.28375,7.4025,-35.816,-23.744001,-81.04,eccentric,6,5.0,35776.0,39369.0,90967.0,101698.0,33455.0,46764.0,39146.0,58158.0,21714.0,15939.0
2026-05-06 16:14:58.718915,689784,1609506362159450,3962071838,0.640256,-0.150304,0.27328,-13.965,-1.95125,6.74625,-35.616,-23.328001,-82.28001,eccentric,6,5.0,35776.0,39369.0,90967.0,101698.0,33455.0,46764.0,39146.0,58158.0,21714.0,15939.0
2026-05-06 16:14:58.727641,689785,1609506362168422,3962080550,0.778848,-0.023424,0.30256,-0.7525,-5.04875,9.21375,-35.728,-23.536001,-82.07201,eccentric,6,5.0,35776.0,39369.0,90967.0,101698.0,33455.0,46764.0,39146.0,58158.0,21714.0,15939.0
2026-05-06 16:14:58.752454,689786,1609506362177375,3962089351,0.778848,-0.023424,0.30256,3.84125,-7.09625,11.48875,-35.728,-23.536001,-82.07201,eccentric,6,5.0,35776.0,39369.0,90967.0,101698.0,33455.0,46764.0,39146.0,58158.0,21714.0,15939.0
2026-05-06 16:14:58.777403,689787,1609506362191852,3962104250,0.950624,-0.245952,0.222528,-0.86625,-5.29375,7.875,-35.712,-22.960001,-82.240005,eccentric,6,5.0,35776.0,39369.0,90967.0,101698.0,33455.0,46764.0,39146.0,58158.0,21714.0,15939.0
2026-05-06 16:14:58.791403,689788,1609506362200796,3962113054,0.950624,-0.245952,0.222528,-7.6475,-2.345,5.1975,-35.712,-22.960001,-82.240005,eccentric,6,5.0,35776.0,39369.0,90967.0,101698.0,33455.0,46764.0,39146.0,58158.0,21714.0,15939.0
2026-05-06 16:14:58.793769,689789,1609506362215291,3962127960,0.89792,-0.226432,0.286944,-13.81625,-0.37625,4.69875,-36.008003,-22.848001,-82.16801,eccentric,6,5.0,35776.0,39369.0,90967.0,101698.0,33455.0,46764.0,39146.0,58158.0,21714.0,15939.0
2026-05-06 16:14:58.798711,689790,1609506362224239,3962136636,0.89792,-0.226432,0.286944,-8.74125,-1.05875,4.92625,-36.008003,-22.848001,-82.16801,eccentric,6,5.0,35776.0,39369.0,90967.0,101698.0,33455.0,46764.0,39146.0,58158.0,21714.0,15939.0
