pc_time,serial_num,sensor_ts,host_ts,ax,ay,az,gx,gy,gz,mx,my,mz,phase,rpe,weight_kg,ppg_a,ppg_b,ppg_c,ppg_d,ppg_e,ppg_f,ppg_g,ppg_h,ppg_i,ppg_j
2026-05-06 16:14:58.829660,689801,1609506362238975,3962151698,0.872544,-0.027328,0.267424,1.26875,-2.63375,4.83,-35.960003,-23.008001,-82.240005,concentric,6,5.0,35547.0,39182.0,90949.0,102449.0,33282.0,46629.0,39144.0,58495.0,21611.0,15883.0
2026-05-06 16:14:58.830945,689802,1609506362247967,3962160425,0.933056,-0.160064,0.210816,10.325,-3.6575,1.53125,-36.136,-24.632002,-79.688,concentric,6,5.0,35547.0,39182.0,90949.0,102449.0,33282.0,46629.0,39144.0,58495.0,21611.0,15883.0
2026-05-06 16:14:58.833695,689803,1609506362256987,3962169167,0.933056,-0.160064,0.210816,10.6225,-3.0275,-5.145,-36.136,-24.632002,-79.688,concentric,6,5.0,35547.0,39182.0,90949.0,102449.0,33282.0,46629.0,39144.0,58495.0,21611.0,15883.0
2026-05-06 16:14:58.836051,689804,1609506362271541,3962184089,0.890112,-0.228384,0.261568,6.4575,-1.6975,-8.0325,-36.152,-24.272001,-81.192,concentric,6,5.0,35547.0,39182.0,90949.0,102449.0,33282.0,46629.0,39144.0,58495.0,21611.0,15883.0
2026-05-06 16:14:58.840358,689805,1609506362280617,3962192821,0.890112,-0.228384,0.261568,5.285,-0.28,-5.60875,-36.152,-24.272001,-81.192,concentric,6,5.0,35547.0,39182.0,90949.0,102449.0,33282.0,46629.0,39144.0,58495.0,21611.0,15883.0
2026-05-06 16:14:58.862484,689806,1609506362295207,3962207792,0.886208,-0.080032,0.35136,7.18375,-0.34125,-2.79125,-35.928,-25.056002,-80.184006,concentric,6,5.0,35547.0,39182.0,90949.0,102449.0,33282.0,46629.0,39144.0,58495.0,21611.0,15883.0
2026-05-06 16:14:58.864832,689807,1609506362304112,3962216526,0.886208,-0.080032,0.35136,5.43375,1.61,-0.69125,-35.928,-25.056002,-80.184006,concentric,6,5.0,35547.0,39182.0,90949.0,102449.0,33282.0,46629.0,39144.0,58495.0,21611.0,15883.0
2026-05-06 16:14:58.871242,689808,1609506362313063,3962225230,0.843264,-0.060512,0.296704,3.2725,4.19125,-3.59625,-35.776,-23.512001,-82.200005,concentric,6,5.0,35547.0,39182.0,90949.0,102449.0,33282.0,46629.0,39144.0,58495.0,21611.0,15883.0
2026-05-06 16:14:58.887628,689809,1609506362327577,3962240168,0.843264,-0.169824,0.244,-1.12,6.615,-8.1025,-35.776,-23.512001,-82.200005,concentric,6,5.0,35547.0,39182.0,90949.0,102449.0,33282.0,46629.0,39144.0,58495.0,21611.0,15883.0
2026-05-06 16:14:58.918725,689820,1609506362336688,3962249037,0.845216,-0.169824,0.244,-4.48,8.54,-8.74125,-36.496002,-23.032001,-82.632,concentric,6,5.0,35597.0,39241.0,90958.0,101985.0,33323.0,46693.0,39184.0,58329.0,21628.0,15911.0
2026-05-06 16:14:58.923914,689821,1609506362351210,3962261992,0.827648,-0.142496,0.255712,-5.145,9.73875,-5.5825,-36.184002,-22.968,-82.44,concentric,6,5.0,35597.0,39241.0,90958.0,101985.0,33323.0,46693.0,39184.0,58329.0,21628.0,15911.0
2026-05-06 16:14:58.924045,689822,1609506362360415,3962272853,0.827648,-0.142496,0.255712,-0.69125,9.63375,-2.70375,-36.184002,-22.968,-82.44,concentric,6,5.0,35597.0,39241.0,90958.0,101985.0,33323.0,46693.0,39184.0,58329.0,21628.0,15911.0
2026-05-06 16:14:58.926805,689823,1609506362369516,3962281592,0.802272,-0.0488,0.304512,5.80125,8.015,-0.805,-36.0,-24.920002,-80.448006,concentric,6,5.0,35597.0,39241.0,90958.0,101985.0,33323.0,46693.0,39184.0,58329.0,21628.0,15911.0
2026-05-06 16:14:58.964918,689824,1609506362384033,3962296500,0.802272,-0.0488,0.304512,4.66375,7.035,-1.47,-36.0,-24.920002,-80.448006,concentric,6,5.0,35597.0,39241.0,90958.0,101985.0,33323.0,46693.0,39184.0,58329.0,21628.0,15911.0
2026-05-06 16:14:58.967477,689825,1609506362392997,3962305300,0.786656,-0.091744,0.28304,0.25375,6.37,-2.42375,-36.464,-24.384,-80.76,concentric,6,5.0,35597.0,39241.0,90958.0,101985.0,33323.0,46693.0,39184.0,58329.0,21628.0,15911.0
2026-05-06 16:14:58.969900,689826,1609506362407482,3962320232,0.786656,-0.091744,0.28304,-3.6225,6.0725,-3.745,-36.464,-24.384,-80.76,concentric,6,5.0,35597.0,39241.0,90958.0,101985.0,33323.0,46693.0,39184.0,58329.0,21628.0,15911.0
2026-05-06 16:14:58.973656,689827,1609506362416460,3962328958,0.774944,-0.158112,0.286944,-6.58875,5.845,-3.2375,-36.280003,-23.032001,-82.384,concentric,6,5.0,35597.0,39241.0,90958.0,101985.0,33323.0,46693.0,39184.0,58329.0,21628.0,15911.0
2026-05-06 16:14:58.987275,689828,1609506362430979,3962341855,0.786656,-0.154208,0.277184,-7.98,5.55625,-1.05875,-36.336002,-22.560001,-82.200005,concentric,6,5.0,35597.0,39241.0,90958.0,101985.0,33323.0,46693.0,39184.0,58329.0,21628.0,15911.0
2026-05-06 16:14:59.017484,689839,1609506362440319,3962352736,0.786656,-0.154208,0.277184,-7.83125,5.52125,2.8175,-36.336002,-22.560001,-82.200005,concentric,6,5.0,35536.0,39186.0,90739.0,101568.0,33259.0,46573.0,39038.0,58099.0,21583.0,15856.0
2026-05-06 16:14:59.019980,689840,1609506362449501,3962361594,0.70272,-0.089792,0.275232,-5.85375,5.31125,4.0775,-36.328003,-24.632002,-79.424,concentric,6,5.0,35536.0,39186.0,90739.0,101568.0,33259.0,46573.0,39038.0,58099.0,21583.0,15856.0
2026-05-06 16:14:59.022449,689841,1609506362464069,3962376559,0.70272,-0.089792,0.275232,-3.4825,5.1275,3.59625,-36.328003,-24.632002,-79.424,concentric,6,5.0,35536.0,39186.0,90739.0,101568.0,33259.0,46573.0,39038.0,58099.0,21583.0,15856.0
2026-05-06 16:14:59.031166,689842,1609506362473107,3962385311,0.696864,-0.099552,0.286944,-4.87375,4.29625,4.43625,-36.544003,-26.152,-79.512,concentric,6,5.0,35536.0,39186.0,90739.0,101568.0,33259.0,46573.0,39038.0,58099.0,21583.0,15856.0
2026-05-06 16:14:59.045079,689843,1609506362487657,3962400311,0.696864,-0.099552,0.286944,-9.511251,4.55,5.39875,-36.544003,-26.152,-79.512,concentric,6,5.0,35536.0,39186.0,90739.0,101568.0,33259.0,46573.0,39038.0,58099.0,21583.0,15856.0
2026-05-06 16:14:59.053864,689844,1609506362496573,3962409033,0.796416,-0.21472,0.249856,-13.53625,4.3225,6.825,-36.472,-22.536001,-81.84801,concentric,6,5.0,35536.0,39186.0,90739.0,101568.0,33259.0,46573.0,39038.0,58099.0,21583.0,15856.0
2026-05-06 16:14:59.062577,689845,1609506362505501,3962417746,0.796416,-0.21472,0.249856,-19.495,5.04875,7.83125,-36.472,-22.536001,-81.84801,concentric,6,5.0,35536.0,39186.0,90739.0,101568.0,33259.0,46573.0,39038.0,58099.0,21583.0,15856.0
2026-05-06 16:14:59.106204,689846,1609506362520020,3962432662,0.708576,-0.148352,0.318176,-20.545,6.25625,8.74125,-36.648003,-22.216002,-81.496,concentric,6,5.0,35536.0,39186.0,90739.0,101568.0,33259.0,46573.0,39038.0,58099.0,21583.0,15856.0
2026-05-06 16:14:59.128755,689847,1609506362528985,3962441450,0.708576,-0.148352,0.314272,-13.3175,5.60875,10.78,-36.648003,-22.216002,-81.496,concentric,6,5.0,35536.0,39186.0,90739.0,101568.0,33259.0,46573.0,39038.0,58099.0,21583.0,15856.0
2026-05-06 16:14:59.186395,689858,1609506362543592,3962454414,0.700768,-0.08784,0.314272,-9.40625,4.13875,11.55,-36.904003,-22.008001,-81.75201,concentric,6,5.0,35672.0,39318.0,90574.0,101190.0,33341.0,46722.0,38907.0,57802.0,21613.0,15885.0
2026-05-06 16:14:59.191413,689859,1609506362552905,3962465218,0.80032,-0.17568,0.23424,-11.698751,3.885,11.48875,-37.280003,-21.920002,-81.52801,concentric,6,5.0,35672.0,39318.0,90574.0,101190.0,33341.0,46722.0,38907.0,57802.0,21613.0,15885.0
2026-05-06 16:14:59.193708,689860,1609506362561825,3962473922,0.80032,-0.17568,0.23424,-16.23125,3.03625,11.261251,-37.280003,-21.920002,-81.52801,concentric,6,5.0,35672.0,39318.0,90574.0,101190.0,33341.0,46722.0,38907.0,57802.0,21613.0,15885.0
2026-05-06 16:14:59.198076,689861,1609506362576290,3962488820,0.7808,-0.222528,0.269376,-21.49875,3.6925,8.715,-37.152,-21.664001,-81.272,concentric,6,5.0,35672.0,39318.0,90574.0,101190.0,33341.0,46722.0,38907.0,57802.0,21613.0,15885.0
2026-05-06 16:14:59.203136,689862,1609506362585298,3962497569,0.7808,-0.222528,0.269376,-19.06625,3.98125,6.50125,-37.152,-21.664001,-81.272,concentric,6,5.0,35672.0,39318.0,90574.0,101190.0,33341.0,46722.0,38907.0,57802.0,21613.0,15885.0
2026-05-06 16:14:59.203219,689863,1609506362599809,3962512499,0.72224,-0.109312,0.324032,-14.67375,3.0975,7.2975,-37.032,-21.864,-81.54401,concentric,6,5.0,35672.0,39318.0,90574.0,101190.0,33341.0,46722.0,38907.0,57802.0,21613.0,15885.0
2026-05-06 16:14:59.203688,689864,1609506362608740,3962521214,0.72224,-0.109312,0.324032,-11.935,2.52875,6.53625,-37.032,-21.864,-81.54401,concentric,6,5.0,35672.0,39318.0,90574.0,101190.0,33341.0,46722.0,38907.0,57802.0,21613.0,15885.0
2026-05-06 16:14:59.205999,689865,1609506362623353,3962534122,0.739808,-0.122976,0.251808,-10.42125,2.19625,4.06875,-37.4,-21.632002,-82.00001,concentric,6,5.0,35672.0,39318.0,90574.0,101190.0,33341.0,46722.0,38907.0,57802.0,21613.0,15885.0
2026-05-06 16:14:59.233842,689876,1609506362632594,3962544876,0.755424,-0.187392,0.306464,-8.198751,1.74125,4.6725,-38.008003,-25.528002,-78.888,concentric,6,5.0,35716.0,39402.0,90538.0,100712.0,33351.0,46818.0,38912.0,57554.0,21606.0,15927.0
2026-05-06 16:14:59.236301,689877,1609506362641595,3962553695,0.755424,-0.187392,0.306464,-8.435,2.61625,5.705,-38.008003,-25.528002,-78.888,concentric,6,5.0,35716.0,39402.0,90538.0,100712.0,33351.0,46818.0,38912.0,57554.0,21606.0,15927.0
2026-05-06 16:14:59.238861,689878,1609506362656173,3962568691,0.757376,-0.177632,0.284992,-9.28375,4.55875,6.5625,-37.584003,-24.752,-80.04,concentric,6,5.0,35716.0,39402.0,90538.0,100712.0,33351.0,46818.0,38912.0,57554.0,21606.0,15927.0
2026-05-06 16:14:59.241395,689879,1609506362665245,3962577520,0.757376,-0.177632,0.284992,-9.415,4.235,8.46125,-37.584003,-24.752,-80.04,concentric,6,5.0,35716.0,39402.0,90538.0,100712.0,33351.0,46818.0,38912.0,57554.0,21606.0,15927.0
2026-05-06 16:14:59.243926,689880,1609506362679953,3962592557,0.74176,-0.124928,0.296704,-12.36375,3.71,6.055,-38.112003,-25.096,-79.392006,concentric,6,5.0,35716.0,39402.0,90538.0,100712.0,33351.0,46818.0,38912.0,57554.0,21606.0,15927.0
2026-05-06 16:14:59.246401,689881,1609506362688946,3962601271,0.74176,-0.124928,0.296704,-11.0775,3.22875,5.22375,-38.112003,-25.096,-79.392006,concentric,6,5.0,35716.0,39402.0,90538.0,100712.0,33351.0,46818.0,38912.0,57554.0,21606.0,15927.0
2026-05-06 16:14:59.254920,689882,1609506362697943,3962610356,0.796416,-0.124928,0.290848,-5.52125,2.52875,6.2125,-37.872,-22.952002,-79.944,concentric,6,5.0,35716.0,39402.0,90538.0,100712.0,33351.0,46818.0,38912.0,57554.0,21606.0,15927.0
2026-05-06 16:14:59.275155,689883,1609506362712479,3962623249,0.757376,-0.173728,0.36112,-5.27625,3.7975,4.08625,-37.920002,-21.296001,-80.576004,concentric,6,5.0,35716.0,39402.0,90538.0,100712.0,33351.0,46818.0,38912.0,57554.0,21606.0,15927.0
2026-05-06 16:14:59.278908,689884,1609506362721671,3962634020,0.757376,-0.173728,0.36112,-9.275,6.545,3.78875,-37.920002,-21.296001,-80.576004,concentric,6,5.0,35716.0,39402.0,90538.0,100712.0,33351.0,46818.0,38912.0,57554.0,21606.0,15927.0
2026-05-06 16:14:59.318789,689895,1609506362736438,3962647255,0.718336,-0.134688,0.279136,-13.02875,8.9075,5.24125,-38.296,-23.072,-80.8,concentric,6,5.0,35861.0,39696.0,90484.0,100472.0,33480.0,47127.0,38942.0,57394.0,21689.0,16079.0
2026-05-06 16:14:59.321272,689896,1609506362745921,3962658129,0.718336,-0.134688,0.279136,-13.2125,7.58625,6.69375,-38.296,-23.072,-80.8,concentric,6,5.0,35861.0,39696.0,90484.0,100472.0,33480.0,47127.0,38942.0,57394.0,21689.0,16079.0
2026-05-06 16:14:59.323860,689897,1609506362754999,3962666843,0.874496,-0.158112,0.26352,-15.70625,4.655,4.5325,-38.216003,-23.064001,-80.616005,concentric,6,5.0,35861.0,39696.0,90484.0,100472.0,33480.0,47127.0,38942.0,57394.0,21689.0,16079.0
2026-05-06 16:14:59.326321,689898,1609506362769634,3962681802,0.874496,-0.158112,0.26352,-13.658751,4.01625,1.715,-38.216003,-23.064001,-80.616005,concentric,6,5.0,35861.0,39696.0,90484.0,100472.0,33480.0,47127.0,38942.0,57394.0,21689.0,16079.0
2026-05-06 16:14:59.335166,689899,1609506362778801,3962690534,0.792512,-0.17568,0.386496,-5.87125,5.43375,-0.04375,-38.352,-20.936,-81.144005,concentric,6,5.0,35861.0,39696.0,90484.0,100472.0,33480.0,47127.0,38942.0,57394.0,21689.0,16079.0
2026-05-06 16:14:59.356396,689900,1609506362793316,3962705455,0.753472,-0.158112,0.327936,-0.32375,7.035,-2.765,-38.064003,-21.448002,-81.136,concentric,6,5.0,35861.0,39696.0,90484.0,100472.0,33480.0,47127.0,38942.0,57394.0,21689.0,16079.0
2026-05-06 16:14:59.361429,689901,1609506362802235,3962714159,0.753472,-0.158112,0.327936,-1.04125,7.76125,-3.01875,-38.064003,-21.448002,-81.136,concentric,6,5.0,35861.0,39696.0,90484.0,100472.0,33480.0,47127.0,38942.0,57394.0,21689.0,16079.0
2026-05-06 16:14:59.367545,689902,1609506362811125,3962722880,0.753472,-0.158112,0.238144,-3.955,7.72625,-1.855,-38.064003,-21.448002,-81.136,concentric,6,5.0,35861.0,39696.0,90484.0,100472.0,33480.0,47127.0,38942.0,57394.0,21689.0,16079.0
2026-05-06 16:14:59.383379,689903,1609506362825695,3962737912,0.899872,-0.152256,0.238144,0.35875,5.46875,-1.155,-38.096,-21.408,-81.704,concentric,6,5.0,35861.0,39696.0,90484.0,100472.0,33480.0,47127.0,38942.0,57394.0,21689.0,16079.0
2026-05-06 16:14:59.417499,689914,1609506362835012,3962746698,0.866688,-0.171776,0.433344,4.76875,4.025,-2.35375,-38.352,-20.536001,-80.768005,concentric,6,5.0,36266.0,40230.0,90572.0,101280.0,33864.0,47655.0,39023.0,57807.0,21898.0,16351.0
2026-05-06 16:14:59.420019,689915,1609506362849723,3962761719,0.866688,-0.171776,0.433344,3.815,7.42875,-2.3275,-38.352,-20.536001,-80.768005,concentric,6,5.0,36266.0,40230.0,90572.0,101280.0,33864.0,47655.0,39023.0,57807.0,21898.0,16351.0
2026-05-06 16:14:59.422539,689916,1609506362858716,3962770446,0.798368,-0.13664,0.4392,1.89875,11.375,-2.4325,-38.536003,-22.648,-81.768005,concentric,6,5.0,36266.0,40230.0,90572.0,101280.0,33864.0,47655.0,39023.0,57807.0,21898.0,16351.0
2026-05-06 16:14:59.425022,689917,1609506362867789,3962779175,0.798368,-0.13664,0.4392,-3.0275,12.95875,-1.12,-38.536003,-22.648,-81.768005,concentric,6,5.0,36266.0,40230.0,90572.0,101280.0,33864.0,47655.0,39023.0,57807.0,21898.0,16351.0
2026-05-06 16:14:59.438918,689918,1609506362882407,3962794097,0.837408,-0.111264,0.327936,-10.45625,14.6825,-1.40875,-39.0,-22.688002,-79.16801,concentric,6,5.0,36266.0,40230.0,90572.0,101280.0,33864.0,47655.0,39023.0,57807.0,21898.0,16351.0
2026-05-06 16:14:59.447590,689919,1609506362891300,3962802871,0.837408,-0.111264,0.327936,-8.6975,13.51,-1.68,-39.0,-22.688002,-79.16801,concentric,6,5.0,36266.0,40230.0,90572.0,101280.0,33864.0,47655.0,39023.0,57807.0,21898.0,16351.0
2026-05-06 16:14:59.484189,689920,1609506362905921,3962817827,0.83936,-0.119072,0.339648,-2.45,10.167501,-0.8925,-39.168003,-22.384,-80.07201,concentric,6,5.0,36266.0,40230.0,90572.0,101280.0,33864.0,47655.0,39023.0,57807.0,21898.0,16351.0
2026-05-06 16:14:59.508749,689921,1609506362914931,3962826620,0.794464,-0.124928,0.425536,-1.86375,8.9775,-0.79625,-39.144,-20.712002,-80.48801,concentric,6,5.0,36266.0,40230.0,90572.0,101280.0,33864.0,47655.0,39023.0,57807.0,21898.0,16351.0
2026-05-06 16:14:59.533844,689922,1609506362929420,3962841554,0.794464,-0.124928,0.425536,-3.5,9.79125,0.42875,-39.144,-20.712002,-80.48801,concentric,6,5.0,36266.0,40230.0,90572.0,101280.0,33864.0,47655.0,39023.0,57807.0,21898.0,16351.0
2026-05-06 16:14:59.568609,689933,1609506362938998,3962850484,0.782752,-0.105408,0.413824,-7.525,10.4125,1.00625,-39.328003,-21.144001,-80.560005,concentric,6,5.0,36251.0,40068.0,90816.0,101395.0,33850.0,47516.0,39124.0,57830.0,21895.0,16277.0
2026-05-06 16:14:59.574039,689934,1609506362947967,3962859332,0.782752,-0.105408,0.413824,-12.04,10.70125,1.085,-39.328003,-21.144001,-80.560005,concentric,6,5.0,36251.0,40068.0,90816.0,101395.0,33850.0,47516.0,39124.0,57830.0,21895.0,16277.0
2026-05-06 16:14:59.574129,689935,1609506362962581,3962874248,0.798368,-0.109312,0.325984,-13.965,8.855001,0.27125,-39.640003,-20.512001,-80.328,concentric,6,5.0,36251.0,40068.0,90816.0,101395.0,33850.0,47516.0,39124.0,57830.0,21895.0,16277.0
2026-05-06 16:14:59.576300,689936,1609506362971480,3962882998,0.798368,-0.109312,0.325984,-17.01,4.08625,0.315,-39.640003,-20.512001,-80.328,concentric,6,5.0,36251.0,40068.0,90816.0,101395.0,33850.0,47516.0,39124.0,57830.0,21895.0,16277.0
2026-05-06 16:14:59.578717,689937,1609506362985981,3962897925,0.821792,-0.12688,0.376736,-23.31,2.84375,0.9975,-39.328003,-20.944,-80.592,concentric,6,5.0,36251.0,40068.0,90816.0,101395.0,33850.0,47516.0,39124.0,57830.0,21895.0,16277.0
2026-05-06 16:14:59.606271,689938,1609506362995152,3962906743,0.788608,-0.13664,0.454816,-26.355,2.89625,2.66,-40.176003,-24.160002,-78.312004,concentric,6,5.0,36251.0,40068.0,90816.0,101395.0,33850.0,47516.0,39124.0,57830.0,21895.0,16277.0
2026-05-06 16:14:59.608758,689939,1609506363004099,3962915541,0.788608,-0.13664,0.454816,-32.3225,3.92875,1.46125,-40.176003,-24.160002,-78.312004,concentric,6,5.0,36251.0,40068.0,90816.0,101395.0,33850.0,47516.0,39124.0,57830.0,21895.0,16277.0
2026-05-06 16:14:59.611367,689940,1609506363018748,3962930512,0.851072,-0.0976,0.347456,-34.29125,4.9875,0.0875,-39.568,-20.728,-80.4,concentric,6,5.0,36251.0,40068.0,90816.0,101395.0,33850.0,47516.0,39124.0,57830.0,21895.0,16277.0
2026-05-06 16:14:59.613659,689941,1609506363027682,3962939235,0.851072,-0.0976,0.347456,-28.46375,5.03125,0.1225,-39.568,-20.728,-80.4,concentric,6,5.0,36251.0,40068.0,90816.0,101395.0,33850.0,47516.0,39124.0,57830.0,21895.0,16277.0
2026-05-06 16:14:59.643929,689952,1609506363042288,3962954299,0.866688,-0.187392,0.345504,-25.78625,3.75375,-1.60125,-39.928,-20.816002,-80.16,concentric,6,5.0,36130.0,40097.0,90638.0,101549.0,33718.0,47464.0,39011.0,57889.0,21844.0,16252.0
2026-05-06 16:14:59.646269,689953,1609506363051211,3962963026,0.866688,-0.187392,0.345504,-27.195,3.7275,-3.4475,-39.928,-20.816002,-80.16,concentric,6,5.0,36130.0,40097.0,90638.0,101549.0,33718.0,47464.0,39011.0,57889.0,21844.0,16252.0
2026-05-06 16:14:59.648825,689954,1609506363060377,3962971742,0.821792,-0.1952,0.382592,-25.725,4.305,-2.49375,-40.232002,-20.92,-80.008,concentric,6,5.0,36130.0,40097.0,90638.0,101549.0,33718.0,47464.0,39011.0,57889.0,21844.0,16252.0
2026-05-06 16:14:59.651175,689955,1609506363074894,3962986688,0.843264,-0.152256,0.349408,-23.31875,4.73375,-2.1,-40.152,-23.024,-80.296005,concentric,6,5.0,36130.0,40097.0,90638.0,101549.0,33718.0,47464.0,39011.0,57889.0,21844.0,16252.0
2026-05-06 16:14:59.653426,689956,1609506363083933,3962995433,0.843264,-0.152256,0.349408,-23.9925,5.45125,-3.3425,-40.152,-23.024,-80.296005,concentric,6,5.0,36130.0,40097.0,90638.0,101549.0,33718.0,47464.0,39011.0,57889.0,21844.0,16252.0
2026-05-06 16:14:59.655884,689957,1609506363098422,3963010583,0.89792,-0.189344,0.304512,-26.3725,7.4375,-7.20125,-40.696003,-20.888,-79.8,concentric,6,5.0,36130.0,40097.0,90638.0,101549.0,33718.0,47464.0,39011.0,57889.0,21844.0,16252.0
2026-05-06 16:14:59.664903,689958,1609506363107423,3963019300,0.89792,-0.189344,0.304512,-25.97,8.6625,-8.75,-40.696003,-20.888,-79.8,concentric,6,5.0,36130.0,40097.0,90638.0,101549.0,33718.0,47464.0,39011.0,57889.0,21844.0,16252.0
2026-05-06 16:14:59.678890,689959,1609506363121934,3963034315,0.90768,-0.247904,0.382592,-25.6025,8.8025,-9.7825,-40.544003,-22.224,-78.54401,concentric,6,5.0,36130.0,40097.0,90638.0,101549.0,33718.0,47464.0,39011.0,57889.0,21844.0,16252.0
2026-05-06 16:14:59.687498,689960,1609506363130878,3963043032,0.90768,-0.247904,0.382592,-25.5325,9.33625,-8.82,-40.544003,-22.224,-78.54401,concentric,6,5.0,36130.0,40097.0,90638.0,101549.0,33718.0,47464.0,39011.0,57889.0,21844.0,16252.0
2026-05-06 16:14:59.716151,689971,1609506363140399,3963051764,0.890112,-0.22448,0.4392,-25.48875,10.5175,-7.98875,-40.904003,-23.480001,-78.992004,concentric,6,5.0,35874.0,39898.0,90751.0,101793.0,33529.0,47280.0,39073.0,58025.0,21749.0,16182.0
2026-05-06 16:14:59.718836,689972,1609506363155012,3963066808,0.901824,-0.201056,0.343552,-25.22625,12.03125,-8.295,-41.128002,-21.800001,-77.22401,concentric,6,5.0,35874.0,39898.0,90751.0,101793.0,33529.0,47280.0,39073.0,58025.0,21749.0,16182.0
2026-05-06 16:14:59.721292,689973,1609506363164054,3963075536,0.901824,-0.201056,0.343552,-25.48,13.0725,-9.30125,-41.128002,-21.800001,-77.22401,concentric,6,5.0,35874.0,39898.0,90751.0,101793.0,33529.0,47280.0,39073.0,58025.0,21749.0,16182.0
2026-05-06 16:14:59.735131,689974,1609506363178644,3963090814,0.901824,-0.230336,0.31232,-25.10375,13.3,-11.27875,-40.912003,-21.736002,-78.880005,concentric,6,5.0,35874.0,39898.0,90751.0,101793.0,33529.0,47280.0,39073.0,58025.0,21749.0,16182.0
2026-05-06 16:14:59.750561,689975,1609506363187552,3963099511,0.901824,-0.230336,0.31232,-22.23375,13.92125,-13.11625,-40.912003,-21.736002,-78.880005,concentric,6,5.0,35874.0,39898.0,90751.0,101793.0,33529.0,47280.0,39073.0,58025.0,21749.0,16182.0
2026-05-06 16:14:59.751176,689976,1609506363196499,3963108266,0.915488,-0.27328,0.406016,-16.21375,13.2125,-12.5825,-41.104,-22.368002,-77.456,concentric,6,5.0,35874.0,39898.0,90751.0,101793.0,33529.0,47280.0,39073.0,58025.0,21749.0,16182.0
2026-05-06 16:14:59.785016,689977,1609506363211109,3963123271,0.915488,-0.27328,0.406016,-12.3725,11.8825,-12.0925,-41.104,-22.368002,-77.456,concentric,6,5.0,35874.0,39898.0,90751.0,101793.0,33529.0,47280.0,39073.0,58025.0,21749.0,16182.0
2026-05-06 16:14:59.787540,689978,1609506363220064,3963131973,0.91744,-0.232288,0.447008,-11.61125,11.76875,-12.04,-41.368004,-22.256,-78.456,concentric,6,5.0,35874.0,39898.0,90751.0,101793.0,33529.0,47280.0,39073.0,58025.0,21749.0,16182.0
2026-05-06 16:14:59.793799,689979,1609506363234556,3963146883,0.91744,-0.271328,0.392352,-10.99875,12.32,-11.75125,-41.368004,-22.256,-78.456,concentric,6,5.0,35874.0,39898.0,90751.0,101793.0,33529.0,47280.0,39073.0,58025.0,21749.0,16182.0
2026-05-06 16:14:59.823899,689990,1609506363243646,3963155666,0.950624,-0.271328,0.392352,-12.53,12.90625,-12.3725,-41.528004,-22.080002,-78.16,concentric,6,5.0,35742.0,39838.0,90634.0,102002.0,33404.0,47254.0,39049.0,58105.0,21707.0,16208.0
2026-05-06 16:14:59.826425,689991,1609506363252758,3963164512,0.950624,-0.271328,0.392352,-12.985,13.86,-10.91125,-41.528004,-22.080002,-78.16,concentric,6,5.0,35742.0,39838.0,90634.0,102002.0,33404.0,47254.0,39049.0,58105.0,21707.0,16208.0
2026-05-06 16:14:59.828927,689992,1609506363267207,3963179479,0.903776,-0.284992,0.388448,-7.76125,14.4725,-9.02125,-41.792004,-23.76,-76.28001,concentric,6,5.0,35742.0,39838.0,90634.0,102002.0,33404.0,47254.0,39049.0,58105.0,21707.0,16208.0
2026-05-06 16:14:59.853654,689993,1609506363276256,3963188299,0.93696,-0.245952,0.3904,-0.6825,12.95,-7.4025,-41.848003,-24.944,-75.68,concentric,6,5.0,35742.0,39838.0,90634.0,102002.0,33404.0,47254.0,39049.0,58105.0,21707.0,16208.0
2026-05-06 16:14:59.878754,689994,1609506363290916,3963203340,0.93696,-0.245952,0.3904,-0.06125,12.0925,-6.8075,-41.848003,-24.944,-75.68,concentric,6,5.0,35742.0,39838.0,90634.0,102002.0,33404.0,47254.0,39049.0,58105.0,21707.0,16208.0
2026-05-06 16:14:59.903951,689995,1609506363299861,3963212043,0.923296,-0.269376,0.363072,-2.63375,11.9525,-7.42,-41.800003,-22.616001,-77.704,concentric,6,5.0,35742.0,39838.0,90634.0,102002.0,33404.0,47254.0,39049.0,58105.0,21707.0,16208.0
2026-05-06 16:14:59.908960,689996,1609506363314351,3963226938,0.923296,-0.269376,0.363072,-3.2025,11.90875,-7.76125,-41.800003,-22.616001,-77.704,concentric,6,5.0,35742.0,39838.0,90634.0,102002.0,33404.0,47254.0,39049.0,58105.0,21707.0,16208.0
2026-05-06 16:14:59.911444,689997,1609506363323292,3963235677,0.931104,-0.294752,0.445056,-2.54625,11.24375,-7.60375,-41.920002,-22.160002,-75.616005,concentric,6,5.0,35742.0,39838.0,90634.0,102002.0,33404.0,47254.0,39049.0,58105.0,21707.0,16208.0
2026-05-06 16:14:59.913709,689998,1609506363332273,3963244469,0.931104,-0.294752,0.445056,-2.4325,10.99,-7.39375,-41.920002,-22.160002,-75.616005,concentric,6,5.0,35742.0,39838.0,90634.0,102002.0,33404.0,47254.0,39049.0,58105.0,21707.0,16208.0
2026-05-06 16:14:59.943960,690009,1609506363346940,3963259420,0.925248,-0.255712,0.398208,-1.9075,10.4825,-6.71125,-42.064003,-22.416,-77.48,concentric,6,5.0,35730.0,39854.0,90714.0,101792.0,33380.0,47257.0,39085.0,58028.0,21693.0,16216.0
2026-05-06 16:14:59.946520,690010,1609506363355888,3963268144,0.962336,-0.30256,0.413824,0.04375,9.30125,-7.35,-42.064003,-23.848001,-77.12,concentric,6,5.0,35730.0,39854.0,90714.0,101792.0,33380.0,47257.0,39085.0,58028.0,21693.0,16216.0
2026-05-06 16:14:59.950891,690011,1609506363370645,3963283147,0.962336,-0.30256,0.413824,2.52,8.4525,-8.51375,-42.256,-23.848001,-77.12,concentric,6,5.0,35730.0,39854.0,90714.0,101792.0,33380.0,47257.0,39085.0,58028.0,21693.0,16216.0
2026-05-06 16:14:59.951223,690012,1609506363379779,3963291991,0.895968,-0.284992,0.394304,6.86,7.5775,-8.12,-42.024002,-24.28,-76.256004,concentric,6,5.0,35730.0,39854.0,90714.0,101792.0,33380.0,47257.0,39085.0,58028.0,21693.0,16216.0
2026-05-06 16:14:59.953671,690013,1609506363388810,3963300764,0.895968,-0.284992,0.394304,11.6025,5.95875,-7.67375,-42.024002,-24.28,-76.256004,concentric,6,5.0,35730.0,39854.0,90714.0,101792.0,33380.0,47257.0,39085.0,58028.0,21693.0,16216.0
2026-05-06 16:14:59.961287,690014,1609506363403340,3963315700,0.894016,-0.226432,0.452864,13.1075,5.13625,-5.90625,-41.784,-22.744001,-77.68,concentric,6,5.0,35730.0,39854.0,90714.0,101792.0,33380.0,47257.0,39085.0,58028.0,21693.0,16216.0
2026-05-06 16:14:59.968743,690015,1609506363412257,3963324452,0.894016,-0.226432,0.452864,9.6075,5.9675,-5.99375,-41.784,-22.744001,-77.68,concentric,6,5.0,35730.0,39854.0,90714.0,101792.0,33380.0,47257.0,39085.0,58028.0,21693.0,16216.0
2026-05-06 16:15:00.002430,690016,1609506363426761,3963339397,0.872544,-0.245952,0.378688,7.72625,6.475,-8.28625,-42.168003,-22.624,-77.43201,concentric,6,5.0,35730.0,39854.0,90714.0,101792.0,33380.0,47257.0,39085.0,58028.0,21693.0,16216.0
2026-05-06 16:15:00.005002,690017,1609506363435673,3963348152,0.872544,-0.245952,0.40992,7.1225,6.5975,-9.625,-42.168003,-22.624,-77.43201,concentric,6,5.0,35730.0,39854.0,90714.0,101792.0,33380.0,47257.0,39085.0,58028.0,21693.0,16216.0
2026-05-06 16:15:00.032317,690028,1609506363450243,3963361036,0.88816,-0.257664,0.413824,10.50875,5.6875,-8.96875,-42.072002,-22.328001,-76.096,concentric,6,5.0,35795.0,39859.0,90879.0,101574.0,33471.0,47312.0,39168.0,57953.0,21732.0,16204.0
2026-05-06 16:15:00.036883,690029,1609506363459564,3963371895,0.870592,-0.220576,0.425536,15.785,4.57625,-7.5425,-42.04,-25.744001,-75.392006,concentric,6,5.0,35795.0,39859.0,90879.0,101574.0,33471.0,47312.0,39168.0,57953.0,21732.0,16204.0
2026-05-06 16:15:00.038241,690030,1609506363468574,3963380702,0.870592,-0.220576,0.425536,18.5675,4.0075,-5.95875,-42.04,-25.744001,-75.392006,concentric,6,5.0,35795.0,39859.0,90879.0,101574.0,33471.0,47312.0,39168.0,57953.0,21732.0,16204.0
2026-05-06 16:15:00.040028,690031,1609506363483096,3963395693,0.85888,-0.181536,0.40016,19.10125,3.85,-4.05125,-42.104004,-25.608002,-75.136,concentric,6,5.0,35795.0,39859.0,90879.0,101574.0,33471.0,47312.0,39168.0,57953.0,21732.0,16204.0
2026-05-06 16:15:00.048527,690032,1609506363492128,3963404448,0.85888,-0.181536,0.40016,16.23125,3.84125,-4.99625,-42.104004,-25.608002,-75.136,eccentric,6,5.0,35795.0,39859.0,90879.0,101574.0,33471.0,47312.0,39168.0,57953.0,21732.0,16204.0
2026-05-06 16:15:00.082495,690033,1609506363506748,3963419354,0.813984,-0.183488,0.386496,10.07125,3.91125,-7.1575,-42.496002,-22.256,-77.184006,eccentric,6,5.0,35795.0,39859.0,90879.0,101574.0,33471.0,47312.0,39168.0,57953.0,21732.0,16204.0
2026-05-06 16:15:00.085037,690034,1609506363515699,3963428068,0.813984,-0.183488,0.386496,8.68875,3.5875,-7.98,-42.496002,-22.256,-77.184006,eccentric,6,5.0,35795.0,39859.0,90879.0,101574.0,33471.0,47312.0,39168.0,57953.0,21732.0,16204.0
2026-05-06 16:15:00.090026,690035,1609506363524623,3963436823,0.813984,-0.197152,0.3904,10.99,2.0125,-8.46125,-41.912003,-21.816002,-77.408005,eccentric,6,5.0,35795.0,39859.0,90879.0,101574.0,33471.0,47312.0,39168.0,57953.0,21732.0,16204.0
2026-05-06 16:15:00.125189,690047,1609506363539713,3963451847,0.802272,-0.152256,0.394304,14.39375,-0.60375,-8.37375,-42.320004,-23.968,-76.856,eccentric,6,5.0,35915.0,39903.0,90852.0,101485.0,33535.0,47290.0,39110.0,57879.0,21787.0,16196.0
2026-05-06 16:15:00.127699,690048,1609506363548970,3963460778,0.802272,-0.152256,0.394304,19.13625,-2.91375,-6.95625,-42.320004,-23.968,-76.856,eccentric,6,5.0,35915.0,39903.0,90852.0,101485.0,33535.0,47290.0,39110.0,57879.0,21787.0,16196.0
2026-05-06 16:15:00.133774,690049,1609506363563490,3963475785,0.802272,-0.138592,0.3904,19.985,-3.26375,-6.4925,-42.272003,-23.728,-76.976006,eccentric,6,5.0,35915.0,39903.0,90852.0,101485.0,33535.0,47290.0,39110.0,57879.0,21787.0,16196.0
2026-05-06 16:15:00.134387,690050,1609506363572470,3963484486,0.802272,-0.138592,0.3904,16.35375,-3.71,-7.70875,-42.272003,-23.728,-76.976006,eccentric,6,5.0,35915.0,39903.0,90852.0,101485.0,33535.0,47290.0,39110.0,57879.0,21787.0,16196.0
2026-05-06 16:15:00.142408,690051,1609506363581436,3963493319,0.788608,-0.1464,0.413824,10.535,-3.57,-9.63375,-41.968002,-22.776001,-77.776,eccentric,6,5.0,35915.0,39903.0,90852.0,101485.0,33535.0,47290.0,39110.0,57879.0,21787.0,16196.0
2026-05-06 16:15:00.152414,690052,1609506363595970,3963508247,0.788608,-0.1464,0.413824,9.0825,-3.66625,-9.91375,-41.968002,-22.776001,-77.776,eccentric,6,5.0,35915.0,39903.0,90852.0,101485.0,33535.0,47290.0,39110.0,57879.0,21787.0,16196.0
2026-05-06 16:15:00.166224,690053,1609506363604895,3963516971,0.786656,-0.130784,0.413824,10.96375,-4.445,-9.38,-42.008003,-22.048,-77.264,eccentric,6,5.0,35915.0,39903.0,90852.0,101485.0,33535.0,47290.0,39110.0,57879.0,21787.0,16196.0
2026-05-06 16:15:00.175180,690054,1609506363619439,3963531914,0.782752,-0.142496,0.368928,12.48625,-5.5125,-9.5375,-42.176003,-25.824001,-76.728004,eccentric,6,5.0,35915.0,39903.0,90852.0,101485.0,33535.0,47290.0,39110.0,57879.0,21787.0,16196.0
2026-05-06 16:15:00.188730,690055,1609506363628375,3963540645,0.782752,-0.142496,0.368928,11.38375,-5.25875,-10.07125,-42.176003,-25.824001,-76.728004,eccentric,6,5.0,35915.0,39903.0,90852.0,101485.0,33535.0,47290.0,39110.0,57879.0,21787.0,16196.0
2026-05-06 16:15:00.313792,690066,1609506363643078,3963555585,0.782752,-0.124928,0.4392,9.93125,-5.08375,-10.05375,-41.592003,-21.856,-77.872,eccentric,6,5.0,35935.0,39930.0,90811.0,101688.0,33593.0,47315.0,39100.0,58010.0,21808.0,16202.0
2026-05-06 16:15:00.316381,690067,1609506363652090,3963564350,0.782752,-0.124928,0.4392,9.59,-4.7775,-9.1525,-41.592003,-21.856,-77.872,eccentric,6,5.0,35935.0,39930.0,90811.0,101688.0,33593.0,47315.0,39100.0,58010.0,21808.0,16202.0
2026-05-06 16:15:00.318881,690068,1609506363661046,3963573056,0.782752,-0.08784,0.417728,9.511251,-3.99875,-8.95125,-41.664,-22.272001,-78.208,eccentric,6,5.0,35935.0,39930.0,90811.0,101688.0,33593.0,47315.0,39100.0,58010.0,21808.0,16202.0
2026-05-06 16:15:00.321249,690069,1609506363675579,3963588009,0.782752,-0.08784,0.417728,9.00375,-3.59625,-9.4675,-41.664,-22.272001,-78.208,eccentric,6,5.0,35935.0,39930.0,90811.0,101688.0,33593.0,47315.0,39100.0,58010.0,21808.0,16202.0
2026-05-06 16:15:00.323944,690070,1609506363684494,3963596688,0.80032,-0.12688,0.40992,7.30625,-2.17,-10.40375,-41.640003,-22.216002,-78.064,eccentric,6,5.0,35935.0,39930.0,90811.0,101688.0,33593.0,47315.0,39100.0,58010.0,21808.0,16202.0
2026-05-06 16:15:00.328129,690071,1609506363699057,3963611606,0.815936,-0.169824,0.417728,4.78625,-0.875,-11.27875,-41.752003,-22.328001,-76.560005,eccentric,6,5.0,35935.0,39930.0,90811.0,101688.0,33593.0,47315.0,39100.0,58010.0,21808.0,16202.0
2026-05-06 16:15:00.328686,690072,1609506363708014,3963620291,0.815936,-0.169824,0.417728,1.61,0.035,-10.6225,-41.752003,-22.328001,-76.560005,eccentric,6,5.0,35935.0,39930.0,90811.0,101688.0,33593.0,47315.0,39100.0,58010.0,21808.0,16202.0
2026-05-06 16:15:00.334274,690073,1609506363716944,3963629059,0.815936,-0.169824,0.417728,2.00375,0.595,-8.42625,-41.752003,-22.328001,-76.560005,eccentric,6,5.0,35935.0,39930.0,90811.0,101688.0,33593.0,47315.0,39100.0,58010.0,21808.0,16202.0
2026-05-06 16:15:00.334704,690074,1609506363731552,3963643986,0.808128,-0.105408,0.407968,5.45125,0.49875,-7.60375,-41.592003,-22.248001,-78.424,eccentric,6,5.0,35935.0,39930.0,90811.0,101688.0,33593.0,47315.0,39100.0,58010.0,21808.0,16202.0
2026-05-06 16:15:00.361214,690085,1609506363740932,3963652946,0.827648,-0.124928,0.359168,5.71375,0.21,-7.84875,-41.800003,-22.408,-78.368004,eccentric,6,5.0,36034.0,39982.0,90787.0,101847.0,33665.0,47383.0,39060.0,58091.0,21836.0,16255.0
2026-05-06 16:15:00.363686,690086,1609506363755522,3963667894,0.827648,-0.124928,0.359168,3.28125,0.455,-8.82,-41.800003,-22.408,-78.368004,eccentric,6,5.0,36034.0,39982.0,90787.0,101847.0,33665.0,47383.0,39060.0,58091.0,21836.0,16255.0
2026-05-06 16:15:00.366284,690087,1609506363764457,3963676634,0.815936,-0.138592,0.384544,1.085,0.0875,-9.8875,-41.384003,-22.576,-78.248,eccentric,6,5.0,36034.0,39982.0,90787.0,101847.0,33665.0,47383.0,39060.0,58091.0,21836.0,16255.0
2026-05-06 16:15:00.368869,690088,1609506363773477,3963685387,0.815936,-0.138592,0.384544,3.50875,-0.2275,-9.12625,-41.384003,-22.576,-78.248,eccentric,6,5.0,36034.0,39982.0,90787.0,101847.0,33665.0,47383.0,39060.0,58091.0,21836.0,16255.0
2026-05-06 16:15:00.371228,690089,1609506363788051,3963700430,0.843264,-0.142496,0.392352,5.3375,-0.4025,-8.14625,-41.632004,-22.920002,-78.504005,eccentric,6,5.0,36034.0,39982.0,90787.0,101847.0,33665.0,47383.0,39060.0,58091.0,21836.0,16255.0
2026-05-06 16:15:00.373904,690090,1609506363796998,3963709169,0.843264,-0.142496,0.392352,6.48375,-0.14,-7.60375,-41.632004,-22.920002,-78.504005,eccentric,6,5.0,36034.0,39982.0,90787.0,101847.0,33665.0,47383.0,39060.0,58091.0,21836.0,16255.0
2026-05-06 16:15:00.376351,690091,1609506363811629,3963724115,0.83936,-0.122976,0.384544,6.86875,0.30625,-6.685,-41.648003,-22.448002,-79.16801,eccentric,6,5.0,36034.0,39982.0,90787.0,101847.0,33665.0,47383.0,39060.0,58091.0,21836.0,16255.0
2026-05-06 16:15:00.378859,690092,1609506363820716,3963732797,0.874496,-0.12688,0.466528,3.1325,0.84,-5.69625,-41.616,-22.216002,-78.616005,eccentric,6,5.0,36034.0,39982.0,90787.0,101847.0,33665.0,47383.0,39060.0,58091.0,21836.0,16255.0
2026-05-06 16:15:00.395161,690093,1609506363835208,3963747744,0.874496,-0.12688,0.466528,-2.1175,1.33875,-5.425,-41.616,-22.216002,-78.616005,eccentric,6,5.0,36034.0,39982.0,90787.0,101847.0,33665.0,47383.0,39060.0,58091.0,21836.0,16255.0
2026-05-06 16:15:00.424995,690104,1609506363844321,3963756517,0.870592,-0.140544,0.464576,-5.31125,2.3275,-4.4275,-41.624,-22.656,-78.336006,eccentric,6,5.0,36099.0,40098.0,90800.0,101957.0,33724.0,47476.0,39083.0,58173.0,21879.0,16280.0
2026-05-06 16:15:00.431886,690105,1609506363853278,3963765466,0.870592,-0.140544,0.464576,-4.3925,2.63375,-2.9575,-41.624,-22.656,-78.336006,eccentric,6,5.0,36099.0,40098.0,90800.0,101957.0,33724.0,47476.0,39083.0,58173.0,21879.0,16280.0
2026-05-06 16:15:00.432584,690106,1609506363867802,3963780408,0.86864,-0.142496,0.365024,-2.47625,2.3975,-2.00375,-41.648003,-24.456001,-77.28001,eccentric,6,5.0,36099.0,40098.0,90800.0,101957.0,33724.0,47476.0,39083.0,58173.0,21879.0,16280.0
2026-05-06 16:15:00.433191,690107,1609506363876891,3963789167,0.86864,-0.142496,0.365024,0.14,0.44625,-0.8925,-41.648003,-24.456001,-77.28001,eccentric,6,5.0,36099.0,40098.0,90800.0,101957.0,33724.0,47476.0,39083.0,58173.0,21879.0,16280.0
2026-05-06 16:15:00.453746,690108,1609506363891523,3963804159,0.929152,-0.191296,0.349408,1.04125,-1.95125,0.18375,-41.192,-22.784,-78.416,eccentric,6,5.0,36099.0,40098.0,90800.0,101957.0,33724.0,47476.0,39083.0,58173.0,21879.0,16280.0
2026-05-06 16:15:00.457522,690109,1609506363900651,3963812859,0.989664,-0.199104,0.4392,-0.175,-4.33125,1.715,-41.52,-22.472,-79.256004,eccentric,6,5.0,36099.0,40098.0,90800.0,101957.0,33724.0,47476.0,39083.0,58173.0,21879.0,16280.0
2026-05-06 16:15:00.466373,690110,1609506363909646,3963821575,0.989664,-0.199104,0.4392,-0.245,-6.37875,3.10625,-41.52,-22.472,-79.256004,eccentric,6,5.0,36099.0,40098.0,90800.0,101957.0,33724.0,47476.0,39083.0,58173.0,21879.0,16280.0
2026-05-06 16:15:00.480127,690111,1609506363924158,3963836534,0.96624,-0.12688,0.445056,-1.435,-7.77875,4.05125,-41.688004,-23.536001,-77.36,eccentric,6,5.0,36099.0,40098.0,90800.0,101957.0,33724.0,47476.0,39083.0,58173.0,21879.0,16280.0
2026-05-06 16:15:00.488909,690112,1609506363933166,3963845377,0.96624,-0.12688,0.445056,-1.19,-8.785,4.57625,-41.688004,-23.536001,-77.36,eccentric,6,5.0,36099.0,40098.0,90800.0,101957.0,33724.0,47476.0,39083.0,58173.0,21879.0,16280.0
2026-05-06 16:15:00.527548,690123,1609506363947828,3963860412,1.0248,-0.162016,0.431392,0.9975,-11.06,5.3025,-41.792004,-25.992,-76.600006,eccentric,6,5.0,36194.0,40239.0,90842.0,101957.0,33803.0,47627.0,39119.0,58187.0,21878.0,16339.0
2026-05-06 16:15:00.530047,690124,1609506363956997,3963869257,1.0248,-0.162016,0.431392,0.77875,-15.07625,4.76875,-41.792004,-25.992,-76.600006,eccentric,6,5.0,36194.0,40239.0,90842.0,101957.0,33803.0,47627.0,39119.0,58187.0,21878.0,16339.0
2026-05-06 16:15:00.532527,690125,1609506363966055,3963877996,1.020896,-0.259616,0.36112,-1.4875,-17.29875,3.50875,-41.288002,-22.704,-79.024,eccentric,6,5.0,36194.0,40239.0,90842.0,101957.0,33803.0,47627.0,39119.0,58187.0,21878.0,16339.0
2026-05-06 16:15:00.536263,690126,1609506363980608,3963892939,1.016992,-0.1952,0.4392,2.555,-20.41375,5.76625,-41.288002,-20.656,-81.024,eccentric,6,5.0,36194.0,40239.0,90842.0,101957.0,33803.0,47627.0,39119.0,58187.0,21878.0,16339.0
2026-05-06 16:15:00.550167,690127,1609506363989597,3963901659,1.016992,-0.1952,0.4392,7.18375,-23.65125,7.67375,-41.280003,-21.824001,-81.024,eccentric,6,5.0,36194.0,40239.0,90842.0,101957.0,33803.0,47627.0,39119.0,58187.0,21878.0,16339.0
2026-05-06 16:15:00.563829,690128,1609506364004123,3963916577,1.00528,-0.11712,0.421632,8.93375,-25.82125,7.91,-40.968002,-22.608002,-78.72,eccentric,6,5.0,36194.0,40239.0,90842.0,101957.0,33803.0,47627.0,39119.0,58187.0,21878.0,16339.0
2026-05-06 16:15:00.588900,690129,1609506364013045,3963925273,1.00528,-0.11712,0.421632,9.02125,-27.317501,7.51625,-40.968002,-22.608002,-78.72,eccentric,6,5.0,36194.0,40239.0,90842.0,101957.0,33803.0,47627.0,39119.0,58187.0,21878.0,16339.0
2026-05-06 16:15:00.613595,690130,1609506364027536,3963940260,1.016992,-0.206912,0.40016,6.06375,-28.83125,5.46875,-40.272003,-21.272001,-79.768005,eccentric,6,5.0,36194.0,40239.0,90842.0,101957.0,33803.0,47627.0,39119.0,58187.0,21878.0,16339.0
2026-05-06 16:15:00.636400,690131,1609506364036444,3963948962,1.016992,-0.206912,0.40016,1.785,-30.2575,4.3925,-40.272003,-21.272001,-79.768005,eccentric,6,5.0,36194.0,40239.0,90842.0,101957.0,33803.0,47627.0,39119.0,58187.0,21878.0,16339.0
2026-05-06 16:15:00.668760,690142,1609506364045533,3963957733,1.009184,-0.238144,0.388448,-0.53375,-31.71875,7.37625,-40.016003,-21.456001,-80.288,eccentric,6,5.0,36328.0,40465.0,90865.0,101181.0,33918.0,47905.0,39160.0,57783.0,21899.0,16401.0
2026-05-06 16:15:00.671415,690143,1609506364060247,3963972614,1.009184,-0.238144,0.388448,-0.1225,-31.272501,9.03875,-40.016003,-21.456001,-80.288,eccentric,6,5.0,36328.0,40465.0,90865.0,101181.0,33918.0,47905.0,39160.0,57783.0,21899.0,16401.0
2026-05-06 16:15:00.673920,690144,1609506364069168,3963981454,1.046272,-0.199104,0.378688,5.13625,-31.73625,10.68375,-40.232002,-21.448002,-80.54401,eccentric,6,5.0,36328.0,40465.0,90865.0,101181.0,33918.0,47905.0,39160.0,57783.0,21899.0,16401.0
2026-05-06 16:15:00.676427,690145,1609506364083654,3963994418,1.104832,-0.230336,0.398208,8.42625,-31.35125,10.0275,-39.816,-20.808,-81.4,eccentric,6,5.0,36328.0,40465.0,90865.0,101181.0,33918.0,47905.0,39160.0,57783.0,21899.0,16401.0
2026-05-06 16:15:00.678897,690146,1609506364092896,3964005321,1.104832,-0.230336,0.398208,11.725,-30.24,8.25125,-39.816,-20.808,-81.4,eccentric,6,5.0,36328.0,40465.0,90865.0,101181.0,33918.0,47905.0,39160.0,57783.0,21899.0,16401.0
2026-05-06 16:15:00.681328,690147,1609506364101852,3964014060,1.032608,-0.220576,0.411872,13.67625,-29.14625,9.79125,-39.52,-20.544,-79.69601,eccentric,6,5.0,36328.0,40465.0,90865.0,101181.0,33918.0,47905.0,39160.0,57783.0,21899.0,16401.0
2026-05-06 16:15:00.683947,690148,1609506364116406,3964029030,1.032608,-0.220576,0.411872,15.645,-26.495,12.95875,-39.52,-20.544,-79.69601,eccentric,6,5.0,36328.0,40465.0,90865.0,101181.0,33918.0,47905.0,39160.0,57783.0,21899.0,16401.0
2026-05-06 16:15:00.688177,690149,1609506364125407,3964037734,0.993568,-0.11712,0.407968,15.4,-25.095,15.88125,-39.088,-20.712002,-82.048004,eccentric,6,5.0,36328.0,40465.0,90865.0,101181.0,33918.0,47905.0,39160.0,57783.0,21899.0,16401.0
2026-05-06 16:15:00.695848,690150,1609506364139945,3964050699,0.993568,-0.11712,0.407968,11.025,-21.49,14.175,-39.088,-20.712002,-82.048004,eccentric,6,5.0,36328.0,40465.0,90865.0,101181.0,33918.0,47905.0,39160.0,57783.0,21899.0,16401.0
2026-05-06 16:15:00.722356,690161,1609506364149564,3964061688,1.032608,-0.15616,0.298656,15.9775,-19.0925,11.45375,-39.048,-20.376001,-83.22401,eccentric,6,5.0,36311.0,40600.0,90886.0,100462.0,33913.0,48046.0,39196.0,57423.0,21886.0,16401.0
2026-05-06 16:15:00.724767,690162,1609506364158501,3964070453,1.032608,-0.15616,0.298656,22.365,-19.2325,9.26625,-39.048,-20.376001,-83.22401,eccentric,6,5.0,36311.0,40600.0,90886.0,100462.0,33913.0,48046.0,39196.0,57423.0,21886.0,16401.0
2026-05-06 16:15:00.731215,690163,1609506364173809,3964085492,0.989664,-0.218624,0.427488,20.9825,-16.42375,7.91,-38.736,-22.800001,-81.04,eccentric,6,5.0,36311.0,40600.0,90886.0,100462.0,33913.0,48046.0,39196.0,57423.0,21886.0,16401.0
2026-05-06 16:15:00.740017,690164,1609506364182711,3964094213,0.894016,-0.142496,0.368928,20.64125,-13.5625,8.96,-38.656002,-21.648,-81.552,eccentric,6,5.0,36311.0,40600.0,90886.0,100462.0,33913.0,48046.0,39196.0,57423.0,21886.0,16401.0
2026-05-06 16:15:00.753844,690165,1609506364197291,3964109117,0.894016,-0.142496,0.368928,16.1175,-11.61125,8.54,-38.656002,-21.648,-81.552,eccentric,6,5.0,36311.0,40600.0,90886.0,100462.0,33913.0,48046.0,39196.0,57423.0,21886.0,16401.0
2026-05-06 16:15:00.762585,690166,1609506364206228,3964117827,0.94672,-0.064416,0.359168,11.68125,-10.91125,6.78125,-38.624,-19.84,-82.776,eccentric,6,5.0,36311.0,40600.0,90886.0,100462.0,33913.0,48046.0,39196.0,57423.0,21886.0,16401.0
2026-05-06 16:15:00.771390,690167,1609506364215169,3964126551,0.94672,-0.064416,0.359168,9.3625,-9.1875,4.24375,-38.624,-19.84,-82.776,eccentric,6,5.0,36311.0,40600.0,90886.0,100462.0,33913.0,48046.0,39196.0,57423.0,21886.0,16401.0
2026-05-06 16:15:00.785025,690168,1609506364229817,3964141587,0.940864,-0.10736,0.374784,9.19625,-6.79875,-0.7,-38.496002,-21.576,-83.288,eccentric,6,5.0,36311.0,40600.0,90886.0,100462.0,33913.0,48046.0,39196.0,57423.0,21886.0,16401.0
2026-05-06 16:15:00.794333,690169,1609506364238860,3964150324,0.940864,-0.10736,0.374784,11.2525,-5.45125,-2.61625,-38.496002,-21.576,-83.288,eccentric,6,5.0,36311.0,40600.0,90886.0,100462.0,33913.0,48046.0,39196.0,57423.0,21886.0,16401.0
2026-05-06 16:15:00.822586,690180,1609506364253521,3964165350,0.892064,-0.15616,0.491904,8.54,-3.19375,-4.5325,-38.480003,-21.504002,-80.952,eccentric,6,5.0,36239.0,40523.0,91309.0,100424.0,33886.0,47932.0,39369.0,57445.0,21857.0,16381.0
2026-05-06 16:15:00.825058,690181,1609506364262502,3964174131,0.892064,-0.095648,0.277184,4.6725,-1.1375,-7.34125,-38.480003,-21.504002,-80.952,eccentric,6,5.0,36239.0,40523.0,91309.0,100424.0,33886.0,47932.0,39369.0,57445.0,21857.0,16381.0
2026-05-06 16:15:00.827662,690182,1609506364271509,3964182838,0.8784,-0.095648,0.277184,6.4925,-0.3675,-6.51875,-38.112003,-19.968,-81.80801,eccentric,6,5.0,36239.0,40523.0,91309.0,100424.0,33886.0,47932.0,39369.0,57445.0,21857.0,16381.0
2026-05-06 16:15:00.850209,690183,1609506364286033,3964197754,0.979904,-0.093696,0.347456,8.47875,-0.86625,-6.93,-37.920002,-20.448002,-82.76,eccentric,6,5.0,36239.0,40523.0,91309.0,100424.0,33886.0,47932.0,39369.0,57445.0,21857.0,16381.0
2026-05-06 16:15:00.852701,690184,1609506364294971,3964206498,0.979904,-0.093696,0.347456,11.7075,-0.28875,-8.09375,-37.920002,-20.448002,-82.76,eccentric,6,5.0,36239.0,40523.0,91309.0,100424.0,33886.0,47932.0,39369.0,57445.0,21857.0,16381.0
2026-05-06 16:15:00.884983,690185,1609506364309444,3964221399,0.827648,-0.076128,0.447008,10.255,1.82,-10.885,-38.224003,-20.464,-82.448006,eccentric,6,5.0,36239.0,40523.0,91309.0,100424.0,33886.0,47932.0,39369.0,57445.0,21857.0,16381.0
2026-05-06 16:15:00.887414,690186,1609506364318357,3964230151,0.827648,-0.076128,0.447008,4.83,6.3525,-13.8075,-38.224003,-20.464,-82.448006,eccentric,6,5.0,36239.0,40523.0,91309.0,100424.0,33886.0,47932.0,39369.0,57445.0,21857.0,16381.0
2026-05-06 16:15:00.889992,690187,1609506364332940,3964245094,0.753472,-0.025376,0.363072,9.45,6.7725,-12.1275,-37.480003,-20.496,-82.28001,eccentric,6,5.0,36239.0,40523.0,91309.0,100424.0,33886.0,47932.0,39369.0,57445.0,21857.0,16381.0
2026-05-06 16:15:00.923878,690198,1609506364341922,3964254182,0.753472,-0.025376,0.363072,13.16,4.83875,-13.09875,-37.480003,-20.496,-82.28001,eccentric,6,5.0,35963.0,39671.0,91362.0,100821.0,33667.0,47079.0,39377.0,57761.0,21823.0,16055.0
2026-05-06 16:15:00.926393,690199,1609506364351052,3964262942,0.806176,0.015616,0.181536,12.50375,2.9575,-15.95125,-37.648003,-22.376001,-80.736,eccentric,6,5.0,35963.0,39671.0,91362.0,100821.0,33667.0,47079.0,39377.0,57761.0,21823.0,16055.0
2026-05-06 16:15:00.928942,690200,1609506364365611,3964277852,0.784704,-0.064416,0.40992,11.03375,0.9275,-20.3875,-37.232002,-22.880001,-80.72,eccentric,6,5.0,35963.0,39671.0,91362.0,100821.0,33667.0,47079.0,39377.0,57761.0,21823.0,16055.0
2026-05-06 16:15:00.931423,690201,1609506364374562,3964286631,0.784704,-0.064416,0.40992,6.57125,-1.015,-24.15,-37.232002,-22.880001,-80.72,eccentric,6,5.0,35963.0,39671.0,91362.0,100821.0,33667.0,47079.0,39377.0,57761.0,21823.0,16055.0
2026-05-06 16:15:00.956384,690202,1609506364389063,3964301534,0.571936,-0.011712,0.314272,-1.505,0.58625,-27.7375,-37.112003,-21.392,-82.200005,eccentric,6,5.0,35963.0,39671.0,91362.0,100821.0,33667.0,47079.0,39377.0,57761.0,21823.0,16055.0
2026-05-06 16:15:00.981255,690203,1609506364397994,3964310257,0.571936,-0.011712,0.314272,2.91375,-0.105,-24.82375,-37.112003,-21.392,-82.200005,eccentric,6,5.0,35963.0,39671.0,91362.0,100821.0,33667.0,47079.0,39377.0,57761.0,21823.0,16055.0
2026-05-06 16:15:00.995101,690204,1609506364412517,3964325189,0.6832,0.027328,0.249856,8.365,-2.58125,-21.525,-36.512,-21.928001,-81.872,eccentric,6,5.0,35963.0,39671.0,91362.0,100821.0,33667.0,47079.0,39377.0,57761.0,21823.0,16055.0
2026-05-06 16:15:00.997528,690205,1609506364421509,3964333925,0.6832,0.027328,0.249856,7.4725,-5.39875,-20.1425,-36.512,-21.928001,-81.872,eccentric,6,5.0,35963.0,39671.0,91362.0,100821.0,33667.0,47079.0,39377.0,57761.0,21823.0,16055.0
2026-05-06 16:15:00.999677,690206,1609506364430456,3964342658,0.786656,-0.085888,0.368928,4.6025,-7.48125,-22.522501,-36.824,-22.336,-81.936005,eccentric,6,5.0,35963.0,39671.0,91362.0,100821.0,33667.0,47079.0,39377.0,57761.0,21823.0,16055.0
2026-05-06 16:15:01.027670,690217,1609506364445158,3964357655,0.599264,0.007808,0.398208,1.3475,-8.37375,-24.31625,-36.312,-22.864,-80.504005,eccentric,6,5.0,35607.0,39010.0,91183.0,101826.0,33412.0,46434.0,39288.0,58367.0,21709.0,15819.0
2026-05-06 16:15:01.030075,690218,1609506364454278,3964366481,0.599264,0.007808,0.398208,7.245,-7.1925,-23.21375,-36.312,-22.864,-80.504005,eccentric,6,5.0,35607.0,39010.0,91183.0,101826.0,33412.0,46434.0,39288.0,58367.0,21709.0,15819.0
2026-05-06 16:15:01.032660,690219,1609506364468795,3964381489,0.81008,-0.03904,0.11712,8.72375,-9.03,-21.11375,-36.624,-25.024002,-81.144005,eccentric,6,5.0,35607.0,39010.0,91183.0,101826.0,33412.0,46434.0,39288.0,58367.0,21709.0,15819.0
2026-05-06 16:15:01.035150,690220,1609506364477828,3964390247,0.81008,-0.03904,0.11712,-2.00375,-9.205,-23.205,-36.624,-25.024002,-81.144005,eccentric,6,5.0,35607.0,39010.0,91183.0,101826.0,33412.0,46434.0,39288.0,58367.0,21709.0,15819.0
2026-05-06 16:15:01.047599,690221,1609506364486870,3964398969,0.753472,-0.03904,0.37088,-5.915,-9.75625,-22.303751,-35.936,-24.816002,-81.232,eccentric,6,5.0,35607.0,39010.0,91183.0,101826.0,33412.0,46434.0,39288.0,58367.0,21709.0,15819.0
2026-05-06 16:15:01.063796,690222,1609506364501419,3964414015,0.753472,-0.03904,0.37088,-0.83125,-7.595,-20.15125,-35.936,-24.816002,-81.232,eccentric,6,5.0,35607.0,39010.0,91183.0,101826.0,33412.0,46434.0,39288.0,58367.0,21709.0,15819.0
2026-05-06 16:15:01.066402,690223,1609506364510370,3964422724,0.628544,0.070272,0.353312,9.905,-5.13625,-21.735,-35.696003,-25.232,-81.68,eccentric,6,5.0,35607.0,39010.0,91183.0,101826.0,33412.0,46434.0,39288.0,58367.0,21709.0,15819.0
2026-05-06 16:15:01.100020,690224,1609506364524886,3964437618,0.72224,-0.052704,0.167872,7.27125,-5.46875,-20.02875,-35.696003,-23.288002,-79.968,eccentric,6,5.0,35607.0,39010.0,91183.0,101826.0,33412.0,46434.0,39288.0,58367.0,21709.0,15819.0
2026-05-06 16:15:01.102564,690225,1609506364533792,3964446351,0.72224,-0.052704,0.167872,-3.61375,-5.285,-23.1175,-35.600002,-23.288002,-79.968,eccentric,6,5.0,35607.0,39010.0,91183.0,101826.0,33412.0,46434.0,39288.0,58367.0,21709.0,15819.0
2026-05-06 16:15:01.130107,690236,1609506364548478,3964459645,0.716384,-0.103456,0.255712,-8.645,-5.285,-24.465,-35.552002,-24.160002,-82.312004,eccentric,6,5.0,36037.0,39269.0,91580.0,102822.0,33786.0,46760.0,39511.0,58922.0,21913.0,15959.0
2026-05-06 16:15:01.132667,690237,1609506364558098,3964470511,0.716384,-0.103456,0.255712,-12.145,-4.45375,-21.93625,-35.552002,-24.160002,-82.312004,eccentric,6,5.0,36037.0,39269.0,91580.0,102822.0,33786.0,46760.0,39511.0,58922.0,21913.0,15959.0
2026-05-06 16:15:01.135152,690238,1609506364567150,3964479287,0.616832,0.066368,0.366976,3.36875,-4.55,-24.87625,-35.232002,-24.2,-82.296005,eccentric,6,5.0,36037.0,39269.0,91580.0,102822.0,33786.0,46760.0,39511.0,58922.0,21913.0,15959.0
2026-05-06 16:15:01.138752,690239,1609506364581704,3964494215,0.616832,0.066368,0.366976,18.2,-6.57125,-20.7025,-35.232002,-24.2,-82.296005,eccentric,6,5.0,36037.0,39269.0,91580.0,102822.0,33786.0,46760.0,39511.0,58922.0,21913.0,15959.0
2026-05-06 16:15:01.147541,690240,1609506364590664,3964502954,0.597312,-0.027328,0.148352,16.59875,-6.92125,-19.52125,-35.408,-24.624,-82.408005,eccentric,6,5.0,36037.0,39269.0,91580.0,102822.0,33786.0,46760.0,39511.0,58922.0,21913.0,15959.0
2026-05-06 16:15:01.165154,690241,1609506364605190,3964517928,0.597312,-0.15616,0.244,7.385,-8.19,-25.5675,-35.408,-24.624,-82.408005,eccentric,6,5.0,36037.0,39269.0,91580.0,102822.0,33786.0,46760.0,39511.0,58922.0,21913.0,15959.0
2026-05-06 16:15:01.172257,690242,1609506364614103,3964526622,0.872544,-0.15616,0.244,-2.47625,-9.02125,-18.78625,-34.88,-24.608002,-83.536,eccentric,6,5.0,36037.0,39269.0,91580.0,102822.0,33786.0,46760.0,39511.0,58922.0,21913.0,15959.0
2026-05-06 16:15:01.181308,690243,1609506364623042,3964535411,0.872544,-0.15616,0.244,-7.0525,-7.72625,-7.4375,-34.88,-24.608002,-83.536,eccentric,6,5.0,36037.0,39269.0,91580.0,102822.0,33786.0,46760.0,39511.0,58922.0,21913.0,15959.0
2026-05-06 16:15:01.195026,690244,1609506364637577,3964548387,0.513376,0.080032,0.335744,2.345,-5.635,-10.22,-34.752003,-24.52,-82.624,eccentric,6,5.0,36037.0,39269.0,91580.0,102822.0,33786.0,46760.0,39511.0,58922.0,21913.0,15959.0
2026-05-06 16:15:01.230133,690255,1609506364647309,3964559244,0.669536,0.023424,0.187392,3.61375,-6.62375,-14.8925,-34.848003,-25.256,-81.328,eccentric,6,5.0,36094.0,39431.0,91477.0,102897.0,33863.0,46954.0,39458.0,58878.0,21916.0,16017.0
2026-05-06 16:15:01.232662,690256,1609506364662030,3964574337,0.669536,0.023424,0.187392,-0.83125,-6.37875,-14.16625,-34.848003,-25.256,-81.328,eccentric,6,5.0,36094.0,39431.0,91477.0,102897.0,33863.0,46954.0,39458.0,58878.0,21916.0,16017.0
2026-05-06 16:15:01.235124,690257,1609506364671002,3964583092,0.854976,-0.304512,0.1952,-0.1225,-6.0725,-14.55125,-34.800003,-26.608002,-81.424,eccentric,6,5.0,36094.0,39431.0,91477.0,102897.0,33863.0,46954.0,39458.0,58878.0,21916.0,16017.0
2026-05-06 16:15:01.237652,690258,1609506364679955,3964591791,0.854976,-0.304512,0.1952,-2.47625,-3.885,-7.4025,-34.800003,-26.608002,-81.424,eccentric,6,5.0,36094.0,39431.0,91477.0,102897.0,33863.0,46954.0,39458.0,58878.0,21916.0,16017.0
2026-05-06 16:15:01.251420,690259,1609506364694456,3964606719,0.593408,-0.06832,0.27328,-6.3175,-1.5925,4.17375,-34.944,-26.464,-81.48801,eccentric,6,5.0,36094.0,39431.0,91477.0,102897.0,33863.0,46954.0,39458.0,58878.0,21916.0,16017.0
2026-05-06 16:15:01.261411,690260,1609506364703431,3964615436,0.593408,-0.06832,0.27328,-6.67625,-1.95125,4.33125,-34.944,-26.464,-81.48801,eccentric,6,5.0,36094.0,39431.0,91477.0,102897.0,33863.0,46954.0,39458.0,58878.0,21916.0,16017.0
2026-05-06 16:15:01.276178,690261,1609506364717926,3964630365,0.720288,0.1464,0.238144,-7.98,-2.8,5.25875,-34.88,-24.616001,-82.312004,eccentric,6,5.0,36094.0,39431.0,91477.0,102897.0,33863.0,46954.0,39458.0,58878.0,21916.0,16017.0
2026-05-06 16:15:01.283553,690262,1609506364726859,3964639065,0.7808,-0.222528,0.160064,-4.34875,-2.40625,1.16375,-35.328003,-26.608002,-81.512,eccentric,6,5.0,36094.0,39431.0,91477.0,102897.0,33863.0,46954.0,39458.0,58878.0,21916.0,16017.0
2026-05-06 16:15:01.292514,690263,1609506364735928,3964647843,0.7808,-0.222528,0.160064,-5.67,-1.575,-6.755,-35.328003,-26.608002,-81.512,eccentric,6,5.0,36094.0,39431.0,91477.0,102897.0,33863.0,46954.0,39458.0,58878.0,21916.0,16017.0
2026-05-06 16:15:01.385030,690274,1609506364750636,3964662942,0.650016,-0.212768,0.25376,-12.11,1.4175,2.38,-35.016003,-26.184002,-81.568,eccentric,6,5.0,36505.0,39928.0,91884.0,103194.0,34243.0,47439.0,39653.0,59070.0,22126.0,16251.0
2026-05-06 16:15:01.387276,690275,1609506364759655,3964671695,0.650016,-0.212768,0.25376,-12.67875,2.7825,10.8325,-35.016003,-26.184002,-81.568,eccentric,6,5.0,36505.0,39928.0,91884.0,103194.0,34243.0,47439.0,39653.0,59070.0,22126.0,16251.0
2026-05-06 16:15:01.389906,690276,1609506364774129,3964686605,0.755424,0.052704,0.267424,-11.94375,1.11125,14.79625,-34.864002,-24.208002,-82.152,eccentric,6,5.0,36505.0,39928.0,91884.0,103194.0,34243.0,47439.0,39653.0,59070.0,22126.0,16251.0
2026-05-06 16:15:01.392420,690277,1609506364783078,3964695311,0.755424,0.052704,0.267424,-7.77875,1.75,17.71875,-34.864002,-24.208002,-82.152,eccentric,6,5.0,36505.0,39928.0,91884.0,103194.0,34243.0,47439.0,39653.0,59070.0,22126.0,16251.0
2026-05-06 16:15:01.395008,690278,1609506364797608,3964710288,0.796416,-0.12688,0.113216,-7.53375,3.07125,11.7775,-35.144,-24.44,-82.328,eccentric,6,5.0,36505.0,39928.0,91884.0,103194.0,34243.0,47439.0,39653.0,59070.0,22126.0,16251.0
2026-05-06 16:15:01.397353,690279,1609506364806557,3964719040,0.796416,-0.189344,0.290848,-18.2175,4.55,7.2275,-35.144,-24.44,-82.328,eccentric,6,5.0,36505.0,39928.0,91884.0,103194.0,34243.0,47439.0,39653.0,59070.0,22126.0,16251.0
2026-05-06 16:15:01.399974,690280,1609506364815496,3964727745,0.782752,-0.201056,0.290848,-23.695,4.6725,11.64625,-35.496002,-25.848001,-80.304,eccentric,6,5.0,36505.0,39928.0,91884.0,103194.0,34243.0,47439.0,39653.0,59070.0,22126.0,16251.0
2026-05-06 16:15:01.402498,690281,1609506364830102,3964740867,0.81984,0.042944,0.251808,-20.43125,3.36,14.49,-35.52,-25.888,-80.896,eccentric,6,5.0,36505.0,39928.0,91884.0,103194.0,34243.0,47439.0,39653.0,59070.0,22126.0,16251.0
2026-05-06 16:15:01.405049,690282,1609506364839305,3964751669,0.81984,0.042944,0.251808,-13.48375,1.3125,15.785,-35.52,-25.888,-80.896,eccentric,6,5.0,36505.0,39928.0,91884.0,103194.0,34243.0,47439.0,39653.0,59070.0,22126.0,16251.0
