pc_time,serial_num,sensor_ts,host_ts,ax,ay,az,gx,gy,gz,mx,my,mz,phase,rpe,weight_kg,ppg_a,ppg_b,ppg_c,ppg_d,ppg_e,ppg_f,ppg_g,ppg_h,ppg_i,ppg_j
2026-05-06 16:19:41.290082,742949,1609506644720488,4244632771,-1.075552,0.21472,-0.366976,-17.03625,-17.5175,-5.52125,40.832,18.256,-86.05601,concentric,4,5.0,31765.0,31848.0,113898.0,76842.0,29694.0,39151.0,47487.0,42576.0,21169.0,13111.0
2026-05-06 16:19:41.320152,742960,1609506644729640,4244641560,-1.075552,0.21472,-0.366976,-17.24625,-12.66125,-2.0475,40.832,18.256,-86.05601,concentric,4,5.0,31695.0,31987.0,115213.0,76895.0,29599.0,39313.0,47990.0,42594.0,21128.0,13209.0
2026-05-06 16:19:41.322515,742961,1609506644744177,4244656603,-1.038464,0.236192,-0.32208,-17.0275,-7.385,0.945,40.848003,17.512001,-86.424,concentric,4,5.0,31695.0,31987.0,115213.0,76895.0,29599.0,39313.0,47990.0,42594.0,21128.0,13209.0
2026-05-06 16:19:41.325095,742962,1609506644753134,4244665336,-1.038464,0.236192,-0.32208,-14.69125,-1.79375,2.6425,40.848003,17.512001,-86.424,concentric,4,5.0,31695.0,31987.0,115213.0,76895.0,29599.0,39313.0,47990.0,42594.0,21128.0,13209.0
2026-05-06 16:19:41.360195,742963,1609506644767746,4244680374,-1.077504,0.210816,-0.355264,-13.55375,3.89375,4.13,41.224003,18.640001,-86.136,concentric,4,5.0,31695.0,31987.0,115213.0,76895.0,29599.0,39313.0,47990.0,42594.0,21128.0,13209.0
2026-05-06 16:19:41.385192,742964,1609506644776829,4244689034,-1.028704,0.238144,-0.368928,-12.3375,8.645,6.4925,40.968002,15.896001,-85.184006,concentric,4,5.0,31695.0,31987.0,115213.0,76895.0,29599.0,39313.0,47990.0,42594.0,21128.0,13209.0
2026-05-06 16:19:41.410215,742965,1609506644785870,4244697740,-1.028704,0.238144,-0.368928,-11.2525,13.886251,9.24,40.968002,15.896001,-85.184006,concentric,4,5.0,31695.0,31987.0,115213.0,76895.0,29599.0,39313.0,47990.0,42594.0,21128.0,13209.0
2026-05-06 16:19:41.431239,742966,1609506644800353,4244712750,-1.052128,0.220576,-0.37088,-11.042501,18.33125,11.2525,40.952003,17.648,-86.856,concentric,4,5.0,31695.0,31987.0,115213.0,76895.0,29599.0,39313.0,47990.0,42594.0,21128.0,13209.0
2026-05-06 16:19:41.433722,742967,1609506644809264,4244721464,-1.052128,0.220576,-0.37088,-10.24625,23.7825,12.845,40.952003,17.648,-86.856,concentric,4,5.0,31695.0,31987.0,115213.0,76895.0,29599.0,39313.0,47990.0,42594.0,21128.0,13209.0
2026-05-06 16:19:41.472701,742978,1609506644823793,4244736400,-1.050176,0.20496,-0.386496,-10.14125,29.295,15.7675,40.552002,17.016,-86.456,concentric,4,5.0,31379.0,31944.0,114586.0,76391.0,29333.0,39328.0,47907.0,42326.0,20925.0,13203.0
2026-05-06 16:19:41.475120,742979,1609506644833470,4244745113,-1.050176,0.20496,-0.386496,-9.75625,34.16875,17.77125,40.552002,17.016,-86.456,concentric,4,5.0,31379.0,31944.0,114586.0,76391.0,29333.0,39328.0,47907.0,42326.0,20925.0,13203.0
2026-05-06 16:19:41.477558,742980,1609506644842399,4244753799,-1.056032,0.206912,-0.386496,-8.1025,38.05375,19.897501,40.352,17.272001,-87.152,concentric,4,5.0,31379.0,31944.0,114586.0,76391.0,29333.0,39328.0,47907.0,42326.0,20925.0,13203.0
2026-05-06 16:19:41.480190,742981,1609506644856910,4244768752,-1.067744,0.226432,-0.404064,-6.965,42.16625,21.7525,40.104,16.76,-88.256004,concentric,4,5.0,31379.0,31944.0,114586.0,76391.0,29333.0,39328.0,47907.0,42326.0,20925.0,13203.0
2026-05-06 16:19:41.482746,742982,1609506644865803,4244777489,-1.067744,0.226432,-0.404064,-7.6825,46.43625,22.91625,40.104,16.76,-88.256004,concentric,4,5.0,31379.0,31944.0,114586.0,76391.0,29333.0,39328.0,47907.0,42326.0,20925.0,13203.0
2026-05-06 16:19:41.487714,742983,1609506644880331,4244792466,-1.069696,0.244,-0.433344,-9.33625,49.8925,25.0075,39.752003,15.792001,-89.288,concentric,4,5.0,31379.0,31944.0,114586.0,76391.0,29333.0,39328.0,47907.0,42326.0,20925.0,13203.0
2026-05-06 16:19:41.490139,742984,1609506644889496,4244801203,-1.069696,0.244,-0.433344,-9.21375,54.13625,26.15375,39.752003,15.792001,-89.288,concentric,4,5.0,31379.0,31944.0,114586.0,76391.0,29333.0,39328.0,47907.0,42326.0,20925.0,13203.0
2026-05-06 16:19:41.492389,742985,1609506644904100,4244816133,-1.050176,0.236192,-0.415776,-6.13375,59.185,27.16875,39.128002,13.68,-88.16,concentric,4,5.0,31379.0,31944.0,114586.0,76391.0,29333.0,39328.0,47907.0,42326.0,20925.0,13203.0
2026-05-06 16:19:41.497769,742986,1609506644913175,4244824891,-1.050176,0.236192,-0.415776,-6.09,64.496254,28.1575,39.128002,13.68,-88.16,concentric,4,5.0,31379.0,31944.0,114586.0,76391.0,29333.0,39328.0,47907.0,42326.0,20925.0,13203.0
2026-05-06 16:19:41.500076,742987,1609506644922142,4244833671,-1.022848,0.191296,-0.464576,-6.51875,69.7375,30.28375,38.440002,12.976001,-87.856,concentric,4,5.0,31379.0,31944.0,114586.0,76391.0,29333.0,39328.0,47907.0,42326.0,20925.0,13203.0
2026-05-06 16:19:41.536342,742998,1609506644936814,4244848846,-1.05408,0.210816,-0.406016,-3.66625,76.4575,34.65,37.576,11.456,-86.552,concentric,4,5.0,31449.0,32170.0,114969.0,75612.0,29441.0,39645.0,48266.0,41858.0,21026.0,13377.0
2026-05-06 16:19:41.538627,742999,1609506644945756,4244857635,-1.05408,0.210816,-0.406016,1.365,84.175,38.05375,37.576,11.456,-86.552,concentric,4,5.0,31449.0,32170.0,114969.0,75612.0,29441.0,39645.0,48266.0,41858.0,21026.0,13377.0
2026-05-06 16:19:41.541338,743000,1609506644960381,4244872594,-1.052128,0.300608,-0.474336,4.68125,89.5125,39.7425,36.504,14.160001,-91.96001,concentric,4,5.0,31449.0,32170.0,114969.0,75612.0,29441.0,39645.0,48266.0,41858.0,21026.0,13377.0
2026-05-06 16:19:41.544000,743001,1609506644969493,4244881380,-1.052128,0.300608,-0.474336,1.63625,91.77875,40.60875,36.504,14.160001,-91.96001,concentric,4,5.0,31449.0,32170.0,114969.0,75612.0,29441.0,39645.0,48266.0,41858.0,21026.0,13377.0
2026-05-06 16:19:41.546440,743002,1609506644978545,4244890129,-1.016992,0.333792,-0.560224,-2.38875,94.255,40.20625,35.496002,13.536,-93.176,concentric,4,5.0,31449.0,32170.0,114969.0,75612.0,29441.0,39645.0,48266.0,41858.0,21026.0,13377.0
2026-05-06 16:19:41.560170,743003,1609506644993044,4244905034,-1.016992,0.333792,-0.560224,-3.1675,98.245,39.9875,35.496002,13.536,-93.176,concentric,4,5.0,31449.0,32170.0,114969.0,75612.0,29441.0,39645.0,48266.0,41858.0,21026.0,13377.0
2026-05-06 16:19:41.569069,743004,1609506645002022,4244913804,-1.030656,0.255712,-0.509472,-0.14,102.66375,41.3875,34.36,12.912001,-93.76,concentric,4,5.0,31449.0,32170.0,114969.0,75612.0,29441.0,39645.0,48266.0,41858.0,21026.0,13377.0
2026-05-06 16:19:41.602697,743005,1609506645016496,4244928892,-1.03456,0.265472,-0.482144,0.67375,106.51375,43.44375,32.848003,12.328001,-94.48,concentric,4,5.0,31449.0,32170.0,114969.0,75612.0,29441.0,39645.0,48266.0,41858.0,21026.0,13377.0
2026-05-06 16:19:41.633841,743016,1609506645025417,4244937608,-1.03456,0.265472,-0.482144,-0.34125,110.53,45.33375,32.848003,12.328001,-94.48,concentric,4,5.0,32435.0,32847.0,118092.0,74400.0,30445.0,40414.0,49736.0,41088.0,21779.0,13765.0
2026-05-06 16:19:41.636175,743017,1609506645040387,4244952550,-1.04432,0.343552,-0.632448,-0.175,114.5025,45.745,31.448002,11.976001,-96.368004,concentric,4,5.0,32435.0,32847.0,118092.0,74400.0,30445.0,40414.0,49736.0,41088.0,21779.0,13765.0
2026-05-06 16:19:41.638999,743018,1609506645049310,4244961305,-1.04432,0.343552,-0.632448,-0.58625,118.15125,46.48875,31.448002,11.976001,-96.368004,concentric,4,5.0,32435.0,32847.0,118092.0,74400.0,30445.0,40414.0,49736.0,41088.0,21779.0,13765.0
2026-05-06 16:19:41.641374,743019,1609506645058395,4244970167,-1.016992,0.337696,-0.636352,-0.88375,121.51125,47.76625,29.880001,11.336,-97.032005,concentric,4,5.0,32435.0,32847.0,118092.0,74400.0,30445.0,40414.0,49736.0,41088.0,21779.0,13765.0
2026-05-06 16:19:41.643950,743020,1609506645072919,4244985292,-1.016992,0.337696,-0.636352,-2.24875,124.08375,47.78375,29.880001,11.336,-97.032005,concentric,4,5.0,32435.0,32847.0,118092.0,74400.0,30445.0,40414.0,49736.0,41088.0,21779.0,13765.0
2026-05-06 16:19:41.650093,743021,1609506645081951,4244994061,-1.007232,0.339648,-0.657824,-2.86125,126.0875,48.86875,28.024002,8.88,-95.728004,concentric,4,5.0,32435.0,32847.0,118092.0,74400.0,30445.0,40414.0,49736.0,41088.0,21779.0,13765.0
2026-05-06 16:19:41.683996,743022,1609506645096444,4245009052,-0.991616,0.365024,-0.675392,-2.26625,127.89875,49.638752,28.024002,8.88,-99.672005,concentric,4,5.0,32435.0,32847.0,118092.0,74400.0,30445.0,40414.0,49736.0,41088.0,21779.0,13765.0
2026-05-06 16:19:41.686452,743023,1609506645105347,4245017741,-0.991616,0.365024,-0.675392,-2.21375,129.3425,49.3325,26.04,9.080001,-99.672005,concentric,4,5.0,32435.0,32847.0,118092.0,74400.0,30445.0,40414.0,49736.0,41088.0,21779.0,13765.0
2026-05-06 16:19:41.689020,743024,1609506645114292,4245026441,-0.991616,0.365024,-0.675392,-0.49,130.795,48.79875,26.04,9.080001,-99.672005,concentric,4,5.0,32435.0,32847.0,118092.0,74400.0,30445.0,40414.0,49736.0,41088.0,21779.0,13765.0
2026-05-06 16:19:41.776441,743035,1609506645129506,4245041517,-0.968192,0.353312,-0.698816,3.38625,133.95375,48.2825,24.240002,10.248,-100.032005,concentric,4,5.0,33477.0,33090.0,119752.0,74002.0,31502.0,40731.0,50352.0,40835.0,22625.0,13944.0
2026-05-06 16:19:41.779014,743036,1609506645138638,4245050373,-0.9272,0.335744,-0.714432,1.6625,136.94624,48.67625,22.6,9.792001,-100.864006,concentric,4,5.0,33477.0,33090.0,119752.0,74002.0,31502.0,40731.0,50352.0,40835.0,22625.0,13944.0
2026-05-06 16:19:41.781453,743037,1609506645153170,4245065416,-0.9272,0.335744,-0.714432,-1.05,138.075,50.732502,22.6,9.792001,-100.864006,concentric,4,5.0,33477.0,33090.0,119752.0,74002.0,31502.0,40731.0,50352.0,40835.0,22625.0,13944.0
2026-05-06 16:19:41.784008,743038,1609506645162107,4245074118,-0.909632,0.382592,-0.74176,-2.8175,138.59125,51.52875,20.088001,8.8,-100.76,concentric,4,5.0,33477.0,33090.0,119752.0,74002.0,31502.0,40731.0,50352.0,40835.0,22625.0,13944.0
2026-05-06 16:19:41.786445,743039,1609506645171076,4245082832,-0.909632,0.382592,-0.74176,-1.25125,139.125,52.5875,20.088001,8.8,-100.76,concentric,4,5.0,33477.0,33090.0,119752.0,74002.0,31502.0,40731.0,50352.0,40835.0,22625.0,13944.0
2026-05-06 16:19:41.789033,743040,1609506645185567,4245097742,-0.874496,0.42944,-0.772992,-1.82875,139.3875,52.1675,17.768002,8.84,-101.984,concentric,4,5.0,33477.0,33090.0,119752.0,74002.0,31502.0,40731.0,50352.0,40835.0,22625.0,13944.0
2026-05-06 16:19:41.791448,743041,1609506645194499,4245106453,-0.874496,0.42944,-0.772992,-1.3475,140.77875,53.45375,17.768002,8.84,-101.984,concentric,4,5.0,33477.0,33090.0,119752.0,74002.0,31502.0,40731.0,50352.0,40835.0,22625.0,13944.0
2026-05-06 16:19:41.793987,743042,1609506645209135,4245121439,-0.827648,0.404064,-0.720288,3.255,144.22626,53.75125,15.440001,8.76,-102.12,concentric,4,5.0,33477.0,33090.0,119752.0,74002.0,31502.0,40731.0,50352.0,40835.0,22625.0,13944.0
2026-05-06 16:19:41.796439,743043,1609506645218074,4245130214,-0.812032,0.406016,-0.81008,1.74125,145.01375,52.50875,13.144001,9.176001,-102.200005,concentric,4,5.0,33477.0,33090.0,119752.0,74002.0,31502.0,40731.0,50352.0,40835.0,22625.0,13944.0
2026-05-06 16:19:41.852533,743054,1609506645232833,4245145211,-0.812032,0.406016,-0.81008,0.1925,144.9875,52.71875,13.144001,9.176001,-102.200005,concentric,4,5.0,34991.0,33429.0,122810.0,73496.0,32966.0,41133.0,51646.0,40515.0,23762.0,14203.0
2026-05-06 16:19:41.855155,743055,1609506645242004,4245154058,-0.739808,0.406016,-0.80032,0.76125,146.16875,52.3425,11.112,8.480001,-102.816,concentric,4,5.0,34991.0,33429.0,122810.0,73496.0,32966.0,41133.0,51646.0,40515.0,23762.0,14203.0
2026-05-06 16:19:41.857654,743056,1609506645250964,4245162832,-0.739808,0.406016,-0.80032,0.9275,146.545,52.43875,11.112,8.480001,-102.816,concentric,4,5.0,34991.0,33429.0,122810.0,73496.0,32966.0,41133.0,51646.0,40515.0,23762.0,14203.0
2026-05-06 16:19:41.860196,743057,1609506645265460,4245177749,-0.694912,0.445056,-0.876448,-3.61375,145.11874,52.920002,8.84,8.096001,-102.54401,concentric,4,5.0,34991.0,33429.0,122810.0,73496.0,32966.0,41133.0,51646.0,40515.0,23762.0,14203.0
2026-05-06 16:19:41.862385,743058,1609506645274365,4245186488,-0.694912,0.445056,-0.876448,-2.96625,144.20876,53.59375,8.84,8.096001,-102.54401,concentric,4,5.0,34991.0,33429.0,122810.0,73496.0,32966.0,41133.0,51646.0,40515.0,23762.0,14203.0
2026-05-06 16:19:41.865042,743059,1609506645288850,4245201394,-0.636352,0.441152,-0.8784,3.7625,144.54124,53.576252,6.544,7.960001,-102.856,concentric,4,5.0,34991.0,33429.0,122810.0,73496.0,32966.0,41133.0,51646.0,40515.0,23762.0,14203.0
2026-05-06 16:19:41.867572,743060,1609506645297843,4245210196,-0.636352,0.441152,-0.899872,4.15625,144.235,53.4625,6.544,7.960001,-102.856,concentric,4,5.0,34991.0,33429.0,122810.0,73496.0,32966.0,41133.0,51646.0,40515.0,23762.0,14203.0
2026-05-06 16:19:41.873958,743061,1609506645306782,4245218950,-0.60512,0.445056,-0.899872,2.275,143.52625,53.17375,4.424,6.960001,-102.344,concentric,4,5.0,34991.0,33429.0,122810.0,73496.0,32966.0,41133.0,51646.0,40515.0,23762.0,14203.0
2026-05-06 16:19:41.908756,743062,1609506645321285,4245233875,-0.544608,0.41968,-0.892064,2.94,143.99,52.9025,2.08,8.768001,-102.44,concentric,4,5.0,34991.0,33429.0,122810.0,73496.0,32966.0,41133.0,51646.0,40515.0,23762.0,14203.0
2026-05-06 16:19:41.941320,743074,1609506645330849,4245242696,-0.544608,0.41968,-0.892064,4.6375,144.82124,54.3375,2.08,8.768001,-102.44,concentric,4,5.0,35480.0,33222.0,122345.0,73435.0,33438.0,40884.0,51430.0,40468.0,24149.0,14054.0
2026-05-06 16:19:41.943907,743075,1609506645345568,4245257770,-0.513376,0.452864,-0.890112,2.21375,144.54124,54.670002,-0.528,8.768001,-102.032005,concentric,4,5.0,35480.0,33222.0,122345.0,73435.0,33438.0,40884.0,51430.0,40468.0,24149.0,14054.0
2026-05-06 16:19:41.946179,743076,1609506645354563,4245266605,-0.513376,0.452864,-0.890112,2.44125,144.57625,55.895,-0.528,8.768001,-102.032005,concentric,4,5.0,35480.0,33222.0,122345.0,73435.0,33438.0,40884.0,51430.0,40468.0,24149.0,14054.0
2026-05-06 16:19:41.948949,743077,1609506645363543,4245275323,-0.431392,0.464576,-0.870592,0.67375,143.28125,54.9325,-2.328,6.648,-100.288,concentric,4,5.0,35480.0,33222.0,122345.0,73435.0,33438.0,40884.0,51430.0,40468.0,24149.0,14054.0
2026-05-06 16:19:41.951353,743078,1609506645378059,4245290358,-0.431392,0.464576,-0.870592,-3.9725,138.7575,52.64875,-2.328,6.648,-100.288,concentric,4,5.0,35480.0,33222.0,122345.0,73435.0,33438.0,40884.0,51430.0,40468.0,24149.0,14054.0
2026-05-06 16:19:41.953953,743079,1609506645387007,4245299081,-0.35136,0.501664,-0.93696,-4.83875,135.1875,50.33,-3.984,9.168,-100.536,concentric,4,5.0,35480.0,33222.0,122345.0,73435.0,33438.0,40884.0,51430.0,40468.0,24149.0,14054.0
2026-05-06 16:19:41.987697,743080,1609506645401508,4245314028,-0.316224,0.470432,-0.93696,-1.37375,133.07875,49.69125,-5.928001,9.488001,-100.496,concentric,4,5.0,35480.0,33222.0,122345.0,73435.0,33438.0,40884.0,51430.0,40468.0,24149.0,14054.0
2026-05-06 16:19:41.990195,743081,1609506645410435,4245322732,-0.316224,0.470432,-0.93696,5.635,133.44624,49.665,-5.928001,9.488001,-100.496,concentric,4,5.0,35480.0,33222.0,122345.0,73435.0,33438.0,40884.0,51430.0,40468.0,24149.0,14054.0
2026-05-06 16:19:41.992680,743082,1609506645424938,4245335768,-0.296704,0.421632,-0.938912,8.40875,134.47,51.16125,-7.432,9.688001,-100.464005,concentric,4,5.0,35480.0,33222.0,122345.0,73435.0,33438.0,40884.0,51430.0,40468.0,24149.0,14054.0
2026-05-06 16:19:42.022560,743093,1609506645434316,4245346631,-0.296704,0.421632,-0.938912,10.185,133.77,50.39125,-7.432,9.688001,-100.464005,concentric,4,5.0,35613.0,32950.0,121699.0,73715.0,33539.0,40552.0,51116.0,40646.0,24246.0,13915.0
2026-05-06 16:19:42.025059,743094,1609506645443338,4245355399,-0.25376,0.40992,-0.890112,9.1175,132.43124,49.595,-9.408,10.016001,-99.776,concentric,4,5.0,35613.0,32950.0,121699.0,73715.0,33539.0,40552.0,51116.0,40646.0,24246.0,13915.0
2026-05-06 16:19:42.027346,743095,1609506645457906,4245370443,-0.25376,0.40992,-0.890112,11.8825,134.95125,50.23375,-9.408,10.016001,-99.776,concentric,4,5.0,35613.0,32950.0,121699.0,73715.0,33539.0,40552.0,51116.0,40646.0,24246.0,13915.0
2026-05-06 16:19:42.033905,743096,1609506645466882,4245379200,-0.193248,0.433344,-0.976,4.13,133.945,50.3125,-10.968,10.248,-97.896,concentric,4,5.0,35613.0,32950.0,121699.0,73715.0,33539.0,40552.0,51116.0,40646.0,24246.0,13915.0
2026-05-06 16:19:42.050197,743097,1609506645481411,4245394110,-0.072224,0.45872,-0.913536,-5.81875,131.3025,49.5075,-12.648001,9.888001,-96.20801,concentric,4,5.0,35613.0,32950.0,121699.0,73715.0,33539.0,40552.0,51116.0,40646.0,24246.0,13915.0
2026-05-06 16:19:42.059034,743098,1609506645490368,4245402818,-0.072224,0.45872,-0.913536,-7.37625,129.4475,49.07,-12.648001,9.888001,-96.20801,concentric,4,5.0,35613.0,32950.0,121699.0,73715.0,33539.0,40552.0,51116.0,40646.0,24246.0,13915.0
2026-05-06 16:19:42.067694,743099,1609506645499466,4245411682,-0.072224,0.454816,-0.954528,-7.63875,127.7675,47.67875,-12.648001,9.888001,-96.20801,concentric,4,5.0,35613.0,32950.0,121699.0,73715.0,33539.0,40552.0,51116.0,40646.0,24246.0,13915.0
2026-05-06 16:19:42.094847,743100,1609506645514044,4245426659,0.007808,0.454816,-0.954528,-8.47875,124.652504,45.325,-14.528001,8.896001,-95.392006,concentric,4,5.0,35613.0,32950.0,121699.0,73715.0,33539.0,40552.0,51116.0,40646.0,24246.0,13915.0
2026-05-06 16:19:42.119921,743101,1609506645522941,4245435348,0.062464,0.437248,-0.903776,0.805,125.43125,44.37125,-15.712001,10.68,-96.512,concentric,4,5.0,35613.0,32950.0,121699.0,73715.0,33539.0,40552.0,51116.0,40646.0,24246.0,13915.0
2026-05-06 16:19:42.182517,743112,1609506645538032,4245450373,0.062464,0.437248,-0.903776,5.45125,126.90125,43.89,-15.712001,10.68,-96.512,concentric,4,5.0,36331.0,33203.0,121502.0,74483.0,34141.0,40975.0,51142.0,41118.0,24585.0,14054.0
2026-05-06 16:19:42.185018,743113,1609506645546956,4245459069,-0.003904,0.425536,-0.817888,0.76125,124.433754,41.055,-17.064001,11.176001,-95.520004,concentric,4,5.0,36331.0,33203.0,121502.0,74483.0,34141.0,40975.0,51142.0,41118.0,24585.0,14054.0
2026-05-06 16:19:42.188267,743114,1609506645555826,4245467786,-0.003904,0.425536,-0.817888,-2.54625,121.6775,37.63375,-17.064001,11.176001,-95.520004,concentric,4,5.0,36331.0,33203.0,121502.0,74483.0,34141.0,40975.0,51142.0,41118.0,24585.0,14054.0
2026-05-06 16:19:42.191241,743115,1609506645570350,4245482756,0.13664,0.396256,-0.835456,-7.455,119.90125,36.63625,-18.456001,8.848001,-92.600006,concentric,4,5.0,36331.0,33203.0,121502.0,74483.0,34141.0,40975.0,51142.0,41118.0,24585.0,14054.0
2026-05-06 16:19:42.194742,743116,1609506645579307,4245491517,0.13664,0.396256,-0.835456,-15.1375,116.270004,34.06375,-18.456001,8.848001,-92.600006,concentric,4,5.0,36331.0,33203.0,121502.0,74483.0,34141.0,40975.0,51142.0,41118.0,24585.0,14054.0
2026-05-06 16:19:42.195387,743117,1609506645593856,4245506592,0.191296,0.349408,-0.827648,-16.38,113.855,32.83875,-19.752,11.240001,-93.672005,concentric,4,5.0,36331.0,33203.0,121502.0,74483.0,34141.0,40975.0,51142.0,41118.0,24585.0,14054.0
2026-05-06 16:19:42.197216,743118,1609506645602794,4245515377,0.230336,0.437248,-0.817888,-10.15875,112.97125,33.04,-21.064001,7.536,-91.064,concentric,4,5.0,36331.0,33203.0,121502.0,74483.0,34141.0,40975.0,51142.0,41118.0,24585.0,14054.0
2026-05-06 16:19:42.200012,743119,1609506645617312,4245528365,0.230336,0.437248,-0.817888,-6.6675,111.125,32.43625,-21.064001,7.536,-91.064,concentric,4,5.0,36331.0,33203.0,121502.0,74483.0,34141.0,40975.0,51142.0,41118.0,24585.0,14054.0
2026-05-06 16:19:42.202536,743120,1609506645626530,4245539153,0.286944,0.40016,-0.825696,-6.69375,109.9525,28.90125,-22.52,8.648001,-91.352005,concentric,4,5.0,36331.0,33203.0,121502.0,74483.0,34141.0,40975.0,51142.0,41118.0,24585.0,14054.0
2026-05-06 16:19:42.229923,743131,1609506645635770,4245547976,0.286944,0.40016,-0.825696,-8.19,108.64,25.69875,-22.52,8.648001,-91.352005,concentric,4,5.0,35935.0,32668.0,117940.0,75876.0,33654.0,40556.0,49506.0,41892.0,24192.0,13751.0
2026-05-06 16:19:42.232620,743132,1609506645650638,4245563032,0.27328,0.33184,-0.856928,-9.10875,107.14375,22.33,-23.536001,9.768001,-90.600006,concentric,4,5.0,35935.0,32668.0,117940.0,75876.0,33654.0,40556.0,49506.0,41892.0,24192.0,13751.0
2026-05-06 16:19:42.235052,743133,1609506645659764,4245571920,0.27328,0.33184,-0.856928,-13.48375,103.88875,21.0,-23.536001,9.768001,-90.600006,concentric,4,5.0,35935.0,32668.0,117940.0,75876.0,33654.0,40556.0,49506.0,41892.0,24192.0,13751.0
2026-05-06 16:19:42.243994,743134,1609506645674293,4245586870,0.277184,0.363072,-0.782752,-13.195,100.9575,19.985,-24.456001,10.312,-89.712006,concentric,4,5.0,35935.0,32668.0,117940.0,75876.0,33654.0,40556.0,49506.0,41892.0,24192.0,13751.0
2026-05-06 16:19:42.250196,743135,1609506645683267,4245595643,0.31232,0.368928,-0.870592,-11.80375,96.73125,19.78375,-24.936,11.416,-90.144005,concentric,4,5.0,35935.0,32668.0,117940.0,75876.0,33654.0,40556.0,49506.0,41892.0,24192.0,13751.0
2026-05-06 16:19:42.267649,743136,1609506645692208,4245604358,0.31232,0.368928,-0.870592,-12.87125,93.21375,22.155,-24.936,11.416,-90.144005,concentric,4,5.0,35935.0,32668.0,117940.0,75876.0,33654.0,40556.0,49506.0,41892.0,24192.0,13751.0
2026-05-06 16:19:42.276483,743137,1609506645706680,4245619262,0.316224,0.324032,-0.831552,-11.7425,92.79375,23.79125,-25.872002,11.64,-89.776,concentric,4,5.0,35935.0,32668.0,117940.0,75876.0,33654.0,40556.0,49506.0,41892.0,24192.0,13751.0
2026-05-06 16:19:42.286801,743138,1609506645715755,4245628018,0.316224,0.324032,-0.831552,-12.9325,90.746254,26.9675,-25.872002,11.64,-89.776,concentric,4,5.0,35935.0,32668.0,117940.0,75876.0,33654.0,40556.0,49506.0,41892.0,24192.0,13751.0
2026-05-06 16:19:42.323935,743149,1609506645730891,4245643062,0.372832,0.349408,-0.72224,-14.455,88.94375,29.47875,-26.760002,11.872001,-88.840004,concentric,4,5.0,36025.0,32799.0,119248.0,76036.0,33885.0,40565.0,49961.0,41953.0,24364.0,13796.0
2026-05-06 16:19:42.326334,743150,1609506645739970,4245651866,0.372832,0.349408,-0.72224,-15.7675,86.9575,31.50875,-26.760002,11.872001,-88.840004,concentric,4,5.0,36025.0,32799.0,119248.0,76036.0,33885.0,40565.0,49961.0,41953.0,24364.0,13796.0
2026-05-06 16:19:42.328878,743151,1609506645749134,4245660676,0.404064,0.372832,-0.735904,-19.25875,84.42875,31.71875,-27.576002,9.216001,-85.496,concentric,4,5.0,36025.0,32799.0,119248.0,76036.0,33885.0,40565.0,49961.0,41953.0,24364.0,13796.0
2026-05-06 16:19:42.331350,743152,1609506645763654,4245675585,0.47824,0.374784,-0.714432,-16.35375,82.5825,30.75625,-28.2,8.344001,-85.352005,concentric,4,5.0,36025.0,32799.0,119248.0,76036.0,33885.0,40565.0,49961.0,41953.0,24364.0,13796.0
2026-05-06 16:19:42.340106,743153,1609506645772654,4245684327,0.47824,0.374784,-0.714432,-13.57125,81.10375,31.43,-28.2,8.344001,-85.352005,concentric,4,5.0,36025.0,32799.0,119248.0,76036.0,33885.0,40565.0,49961.0,41953.0,24364.0,13796.0
2026-05-06 16:19:42.375211,743154,1609506645787205,4245699293,0.503616,0.407968,-0.6832,-13.16875,79.26625,31.64875,-28.216002,12.392,-86.504005,concentric,4,5.0,36025.0,32799.0,119248.0,76036.0,33885.0,40565.0,49961.0,41953.0,24364.0,13796.0
2026-05-06 16:19:42.377433,743155,1609506645796107,4245707990,0.503616,0.407968,-0.6832,-13.125,78.496254,31.57,-28.216002,12.392,-86.504005,concentric,4,5.0,36025.0,32799.0,119248.0,76036.0,33885.0,40565.0,49961.0,41953.0,24364.0,13796.0
2026-05-06 16:19:42.380065,743156,1609506645805065,4245716773,0.480192,0.402112,-0.689056,-11.9875,77.91875,29.04125,-29.288002,12.816001,-85.96001,concentric,4,5.0,36025.0,32799.0,119248.0,76036.0,33885.0,40565.0,49961.0,41953.0,24364.0,13796.0
2026-05-06 16:19:42.388927,743157,1609506645819603,4245731710,0.480192,0.402112,-0.689056,-16.695,75.25,26.46875,-29.288002,12.816001,-85.96001,concentric,4,5.0,36025.0,32799.0,119248.0,76036.0,33885.0,40565.0,49961.0,41953.0,24364.0,13796.0
2026-05-06 16:19:42.396375,743158,1609506645828634,4245740463,0.55632,0.406016,-0.650016,-18.38375,73.10625,24.68375,-29.552002,11.184001,-84.712006,concentric,4,5.0,36025.0,32799.0,119248.0,76036.0,33885.0,40565.0,49961.0,41953.0,24364.0,13796.0
2026-05-06 16:19:42.424029,743169,1609506645843178,4245755477,0.532896,0.339648,-0.6344,-16.415,71.8025,23.93125,-29.976002,10.936001,-86.90401,concentric,4,5.0,36277.0,32875.0,120174.0,76087.0,34192.0,40661.0,50212.0,41950.0,24564.0,13839.0
2026-05-06 16:19:42.426420,743170,1609506645852141,4245764413,0.532896,0.339648,-0.6344,-12.45125,70.83125,22.05875,-29.976002,10.936001,-86.90401,concentric,4,5.0,36277.0,32875.0,120174.0,76087.0,34192.0,40661.0,50212.0,41950.0,24564.0,13839.0
2026-05-06 16:19:42.435210,743171,1609506645866669,4245779362,0.57584,0.3904,-0.669536,-16.275,67.68125,22.3825,-30.224,12.376,-83.776,concentric,4,5.0,36277.0,32875.0,120174.0,76087.0,34192.0,40661.0,50212.0,41950.0,24564.0,13839.0
2026-05-06 16:19:42.464769,743172,1609506645875623,4245788081,0.57584,0.3904,-0.669536,-16.178751,65.275,22.9425,-30.224,12.376,-83.776,concentric,4,5.0,36277.0,32875.0,120174.0,76087.0,34192.0,40661.0,50212.0,41950.0,24564.0,13839.0
2026-05-06 16:19:42.491273,743173,1609506645884660,4245796845,0.589504,0.353312,-0.61488,-13.16,63.79625,23.70375,-30.544,12.872001,-83.52801,concentric,4,5.0,36277.0,32875.0,120174.0,76087.0,34192.0,40661.0,50212.0,41950.0,24564.0,13839.0
2026-05-06 16:19:42.516483,743174,1609506645899272,4245811731,0.589504,0.353312,-0.61488,-15.09375,62.62375,23.86125,-30.544,12.872001,-83.52801,concentric,4,5.0,36277.0,32875.0,120174.0,76087.0,34192.0,40661.0,50212.0,41950.0,24564.0,13839.0
2026-05-06 16:19:42.526473,743175,1609506645908231,4245820448,0.5856,0.329888,-0.579744,-17.99,60.3925,24.85875,-31.368002,9.776,-80.44,concentric,4,5.0,36277.0,32875.0,120174.0,76087.0,34192.0,40661.0,50212.0,41950.0,24564.0,13839.0
2026-05-06 16:19:42.528776,743176,1609506645922718,4245835380,0.5856,0.345504,-0.544608,-15.1725,59.115,23.8875,-31.368002,9.776,-80.44,concentric,4,5.0,36277.0,32875.0,120174.0,76087.0,34192.0,40661.0,50212.0,41950.0,24564.0,13839.0
2026-05-06 16:19:42.555961,743187,1609506645932167,4245844208,0.620736,0.345504,-0.544608,-15.68,57.63625,24.80625,-31.192001,13.040001,-83.576004,concentric,4,5.0,35403.0,32396.0,117526.0,76332.0,33507.0,40300.0,49008.0,42124.0,24072.0,13614.0
2026-05-06 16:19:42.558875,743188,1609506645941157,4245852960,0.620736,0.345504,-0.544608,-15.4875,56.8925,25.19125,-31.192001,13.040001,-83.576004,concentric,4,5.0,35403.0,32396.0,117526.0,76332.0,33507.0,40300.0,49008.0,42124.0,24072.0,13614.0
2026-05-06 16:19:42.561074,743189,1609506645955657,4245867915,0.64416,0.36112,-0.513376,-18.01625,55.09875,24.03625,-31.936,13.776001,-82.08,concentric,4,5.0,35403.0,32396.0,117526.0,76332.0,33507.0,40300.0,49008.0,42124.0,24072.0,13614.0
2026-05-06 16:19:42.563652,743190,1609506645964594,4245876776,0.687104,0.376736,-0.59536,-22.435,53.10375,22.67125,-32.128002,13.024,-82.08,concentric,4,5.0,35403.0,32396.0,117526.0,76332.0,33507.0,40300.0,49008.0,42124.0,24072.0,13614.0
2026-05-06 16:19:42.566286,743191,1609506645979263,4245891725,0.687104,0.376736,-0.59536,-19.8625,53.1125,23.275,-32.128002,13.024,-82.08,concentric,4,5.0,35403.0,32396.0,117526.0,76332.0,33507.0,40300.0,49008.0,42124.0,24072.0,13614.0
2026-05-06 16:19:42.568872,743192,1609506645988264,4245900506,0.626592,0.306464,-0.445056,-12.3375,54.7575,21.74375,-32.528,11.984,-79.424,concentric,4,5.0,35403.0,32396.0,117526.0,76332.0,33507.0,40300.0,49008.0,42124.0,24072.0,13614.0
2026-05-06 16:19:42.571349,743193,1609506646002793,4245915444,0.626592,0.306464,-0.445056,-12.69625,53.305,19.04,-32.528,11.984,-79.424,concentric,4,5.0,35403.0,32396.0,117526.0,76332.0,33507.0,40300.0,49008.0,42124.0,24072.0,13614.0
2026-05-06 16:19:42.579933,743194,1609506646011838,4245924153,0.6832,0.38064,-0.505568,-16.59,51.72125,18.6375,-32.696003,12.056001,-78.464005,concentric,4,5.0,35403.0,32396.0,117526.0,76332.0,33507.0,40300.0,49008.0,42124.0,24072.0,13614.0
2026-05-06 16:19:42.588948,743195,1609506646020787,4245932962,0.6832,0.38064,-0.505568,-21.11375,50.1025,19.005,-32.696003,12.056001,-78.464005,concentric,4,5.0,35403.0,32396.0,117526.0,76332.0,33507.0,40300.0,49008.0,42124.0,24072.0,13614.0
2026-05-06 16:19:42.627557,743206,1609506646035450,4245947917,0.720288,0.339648,-0.558272,-25.06875,47.15375,19.3375,-32.728,13.648001,-79.76,concentric,4,5.0,33800.0,31332.0,111860.0,77062.0,32157.0,39337.0,46650.0,42641.0,23090.0,13133.0
2026-05-06 16:19:42.630195,743207,1609506646044544,4245956683,0.70272,0.337696,-0.501664,-22.93375,46.1475,20.4575,-33.064003,14.184001,-79.688,concentric,4,5.0,33800.0,31332.0,111860.0,77062.0,32157.0,39337.0,46650.0,42641.0,23090.0,13133.0
2026-05-06 16:19:42.632692,743208,1609506646059242,4245971672,0.70272,0.337696,-0.501664,-19.92375,45.57,21.805,-33.064003,14.184001,-79.688,concentric,4,5.0,33800.0,31332.0,111860.0,77062.0,32157.0,39337.0,46650.0,42641.0,23090.0,13133.0
2026-05-06 16:19:42.635049,743209,1609506646068165,4245980425,0.714432,0.376736,-0.45872,-13.92125,45.24625,23.00375,-33.16,13.856001,-79.37601,concentric,4,5.0,33800.0,31332.0,111860.0,77062.0,32157.0,39337.0,46650.0,42641.0,23090.0,13133.0
2026-05-06 16:19:42.646457,743210,1609506646077113,4245989150,0.714432,0.376736,-0.45872,-14.4725,43.70625,23.1875,-33.16,13.856001,-79.37601,concentric,4,5.0,33800.0,31332.0,111860.0,77062.0,32157.0,39337.0,46650.0,42641.0,23090.0,13133.0
2026-05-06 16:19:42.663587,743211,1609506646091684,4246004126,0.747616,0.357216,-0.44896,-16.38875,42.455,23.975,-33.232002,14.280001,-79.632,concentric,4,5.0,33800.0,31332.0,111860.0,77062.0,32157.0,39337.0,46650.0,42641.0,23090.0,13133.0
2026-05-06 16:19:42.671707,743212,1609506646100779,4246012824,0.747616,0.357216,-0.44896,-20.685,41.44875,24.52625,-33.232002,14.280001,-79.632,concentric,4,5.0,33800.0,31332.0,111860.0,77062.0,32157.0,39337.0,46650.0,42641.0,23090.0,13133.0
2026-05-06 16:19:42.690040,743213,1609506646115252,4246027748,0.759328,0.3416,-0.445056,-24.710001,40.005,24.38625,-33.304,14.088,-78.464005,concentric,4,5.0,33800.0,31332.0,111860.0,77062.0,32157.0,39337.0,46650.0,42641.0,23090.0,13133.0
2026-05-06 16:19:42.692617,743214,1609506646124171,4246036430,0.759328,0.357216,-0.462624,-25.34,39.138752,25.1825,-33.304,14.088,-78.464005,concentric,4,5.0,33800.0,31332.0,111860.0,77062.0,32157.0,39337.0,46650.0,42641.0,23090.0,13133.0
2026-05-06 16:19:42.726438,743225,1609506646133770,4246045504,0.733952,0.35136,-0.462624,-21.81375,38.40375,25.5675,-33.368,14.784,-78.560005,concentric,4,5.0,32399.0,30898.0,108715.0,76471.0,30805.0,38888.0,45001.0,42360.0,22050.0,12899.0
2026-05-06 16:19:42.729023,743226,1609506646148461,4246060601,0.726144,0.308416,-0.398208,-15.75,38.03625,26.57375,-33.496002,13.176001,-76.928,concentric,4,5.0,32399.0,30898.0,108715.0,76471.0,30805.0,38888.0,45001.0,42360.0,22050.0,12899.0
2026-05-06 16:19:42.731430,743227,1609506646157378,4246069369,0.726144,0.308416,-0.398208,-15.9425,37.3275,26.022501,-33.496002,13.176001,-76.928,concentric,4,5.0,32399.0,30898.0,108715.0,76471.0,30805.0,38888.0,45001.0,42360.0,22050.0,12899.0
2026-05-06 16:19:42.740132,743228,1609506646172033,4246084288,0.759328,0.333792,-0.406016,-21.1225,35.1575,26.7575,-33.512,13.544001,-76.68,concentric,4,5.0,32399.0,30898.0,108715.0,76471.0,30805.0,38888.0,45001.0,42360.0,22050.0,12899.0
2026-05-06 16:19:42.748886,743229,1609506646181138,4246092997,0.759328,0.333792,-0.406016,-26.32875,34.65875,27.02875,-33.512,13.544001,-76.68,concentric,4,5.0,32399.0,30898.0,108715.0,76471.0,30805.0,38888.0,45001.0,42360.0,22050.0,12899.0
2026-05-06 16:19:42.757551,743230,1609506646190099,4246101726,0.786656,0.329888,-0.521184,-25.76875,34.125,26.425,-33.224003,15.200001,-77.784004,concentric,4,5.0,32399.0,30898.0,108715.0,76471.0,30805.0,38888.0,45001.0,42360.0,22050.0,12899.0
2026-05-06 16:19:42.792717,743231,1609506646204595,4246116807,0.786656,0.329888,-0.382592,-22.2425,34.685,26.64375,-33.224003,15.200001,-77.784004,concentric,4,5.0,32399.0,30898.0,108715.0,76471.0,30805.0,38888.0,45001.0,42360.0,22050.0,12899.0
2026-05-06 16:19:42.794932,743232,1609506646213513,4246125527,0.765184,0.28304,-0.382592,-17.07125,34.79875,24.56125,-33.496002,15.344001,-75.704,concentric,4,5.0,32399.0,30898.0,108715.0,76471.0,30805.0,38888.0,45001.0,42360.0,22050.0,12899.0
2026-05-06 16:19:42.796424,743233,1609506646228013,4246140571,0.774944,0.265472,-0.296704,-16.6775,33.7225,24.71875,-33.528,15.832001,-77.032005,concentric,4,5.0,32399.0,30898.0,108715.0,76471.0,30805.0,38888.0,45001.0,42360.0,22050.0,12899.0
2026-05-06 16:19:42.883645,743244,1609506646237146,4246149336,0.774944,0.265472,-0.296704,-17.01875,32.6725,26.425,-33.528,15.832001,-77.032005,concentric,4,5.0,31009.0,30704.0,106752.0,75748.0,29456.0,38678.0,44051.0,42005.0,21005.0,12812.0
2026-05-06 16:19:42.886094,743245,1609506646251742,4246164289,0.804224,0.300608,-0.441152,-19.39,30.72125,26.0925,-33.336002,15.872001,-76.992004,concentric,4,5.0,31009.0,30704.0,106752.0,75748.0,29456.0,38678.0,44051.0,42005.0,21005.0,12812.0
2026-05-06 16:19:42.888873,743246,1609506646260771,4246173029,0.804224,0.300608,-0.441152,-27.83375,29.2425,26.95,-33.336002,15.872001,-76.992004,concentric,4,5.0,31009.0,30704.0,106752.0,75748.0,29456.0,38678.0,44051.0,42005.0,21005.0,12812.0
2026-05-06 16:19:42.891331,743247,1609506646269867,4246181774,0.847168,0.288896,-0.433344,-31.1325,28.11375,27.57125,-33.480003,16.304,-76.8,concentric,4,5.0,31009.0,30704.0,106752.0,75748.0,29456.0,38678.0,44051.0,42005.0,21005.0,12812.0
2026-05-06 16:19:42.893893,743248,1609506646284349,4246196682,0.847168,0.288896,-0.433344,-26.29375,28.56875,24.63125,-33.480003,16.304,-76.8,concentric,4,5.0,31009.0,30704.0,106752.0,75748.0,29456.0,38678.0,44051.0,42005.0,21005.0,12812.0
2026-05-06 16:19:42.896399,743249,1609506646293273,4246205417,0.763232,0.181536,-0.337696,-20.8775,28.69125,22.155,-33.16,16.336,-74.288,concentric,4,5.0,31009.0,30704.0,106752.0,75748.0,29456.0,38678.0,44051.0,42005.0,21005.0,12812.0
2026-05-06 16:19:42.899166,743250,1609506646307738,4246220306,0.8296,0.238144,-0.353312,-20.02875,29.09375,24.053751,-33.208,16.416,-76.888,concentric,4,5.0,31009.0,30704.0,106752.0,75748.0,29456.0,38678.0,44051.0,42005.0,21005.0,12812.0
2026-05-06 16:19:42.901411,743251,1609506646316856,4246229033,0.8296,0.238144,-0.353312,-17.7275,29.303751,27.64125,-33.208,16.416,-76.888,concentric,4,5.0,31009.0,30704.0,106752.0,75748.0,29456.0,38678.0,44051.0,42005.0,21005.0,12812.0
2026-05-06 16:19:42.903992,743252,1609506646325830,4246237781,0.8296,0.245952,-0.32208,-15.54875,28.5075,27.37875,-33.208,16.416,-76.888,concentric,4,5.0,31009.0,30704.0,106752.0,75748.0,29456.0,38678.0,44051.0,42005.0,21005.0,12812.0
2026-05-06 16:19:42.934021,743263,1609506646340732,4246252948,0.81984,0.245952,-0.32208,-14.44625,27.16,25.41875,-33.448,15.120001,-73.936005,concentric,4,5.0,29950.0,30417.0,103683.0,75272.0,28398.0,38382.0,42668.0,41795.0,20205.0,12692.0
2026-05-06 16:19:42.936504,743264,1609506646349902,4246261768,0.806176,0.220576,-0.320128,-20.60625,25.22625,23.1525,-32.904003,14.944,-75.36,concentric,4,5.0,29950.0,30417.0,103683.0,75272.0,28398.0,38382.0,42668.0,41795.0,20205.0,12692.0
2026-05-06 16:19:42.939018,743265,1609506646364436,4246276740,0.806176,0.220576,-0.320128,-24.272501,23.7475,23.975,-32.904003,14.944,-75.36,concentric,4,5.0,29950.0,30417.0,103683.0,75272.0,28398.0,38382.0,42668.0,41795.0,20205.0,12692.0
2026-05-06 16:19:42.941421,743266,1609506646373471,4246285491,0.81008,0.203008,-0.343552,-21.77,22.60125,23.49375,-32.944,14.208001,-73.576004,concentric,4,5.0,29950.0,30417.0,103683.0,75272.0,28398.0,38382.0,42668.0,41795.0,20205.0,12692.0
2026-05-06 16:19:42.950048,743267,1609506646382476,4246294211,0.81008,0.203008,-0.343552,-19.005,22.5925,24.4475,-32.944,14.208001,-73.576004,concentric,4,5.0,29950.0,30417.0,103683.0,75272.0,28398.0,38382.0,42668.0,41795.0,20205.0,12692.0
2026-05-06 16:19:42.983904,743268,1609506646396980,4246309168,0.81008,0.208864,-0.316224,-14.7,21.97125,24.9725,-32.84,16.832,-76.16801,concentric,4,5.0,29950.0,30417.0,103683.0,75272.0,28398.0,38382.0,42668.0,41795.0,20205.0,12692.0
2026-05-06 16:19:42.986421,743269,1609506646405891,4246317880,0.81008,0.208864,-0.316224,-12.67875,20.895,22.44375,-32.84,16.832,-76.16801,concentric,4,5.0,29950.0,30417.0,103683.0,75272.0,28398.0,38382.0,42668.0,41795.0,20205.0,12692.0
2026-05-06 16:19:42.988912,743270,1609506646420431,4246332922,0.812032,0.203008,-0.281088,-13.79875,19.27625,23.205,-32.456,17.192001,-75.4,concentric,4,5.0,29950.0,30417.0,103683.0,75272.0,28398.0,38382.0,42668.0,41795.0,20205.0,12692.0
2026-05-06 16:19:42.997702,743271,1609506646429386,4246341652,0.808128,0.191296,-0.216672,-16.45,17.66625,22.91625,-32.776,15.976001,-74.968,concentric,4,5.0,29950.0,30417.0,103683.0,75272.0,28398.0,38382.0,42668.0,41795.0,20205.0,12692.0
2026-05-06 16:19:43.028735,743282,1609506646444119,4246356674,0.808128,0.191296,-0.216672,-18.10375,15.9075,23.35375,-32.776,15.976001,-74.968,eccentric,4,5.0,29276.0,30423.0,101313.0,74850.0,27738.0,38335.0,41711.0,41609.0,19683.0,12670.0
2026-05-06 16:19:43.031156,743283,1609506646453096,4246365411,0.835456,0.20496,-0.22448,-19.4075,13.90375,22.47875,-32.32,17.024,-75.056,eccentric,4,5.0,29276.0,30423.0,101313.0,74850.0,27738.0,38335.0,41711.0,41609.0,19683.0,12670.0
2026-05-06 16:19:43.033656,743284,1609506646462070,4246374140,0.835456,0.20496,-0.22448,-19.01375,11.6725,22.40875,-32.32,17.024,-75.056,eccentric,4,5.0,29276.0,30423.0,101313.0,74850.0,27738.0,38335.0,41711.0,41609.0,19683.0,12670.0
2026-05-06 16:19:43.049041,743285,1609506646476584,4246389141,0.825696,0.191296,-0.31232,-16.31,10.00125,20.265,-32.016003,15.624001,-75.056,eccentric,4,5.0,29276.0,30423.0,101313.0,74850.0,27738.0,38335.0,41711.0,41609.0,19683.0,12670.0
2026-05-06 16:19:43.053857,743286,1609506646485496,4246397820,0.825696,0.191296,-0.31232,-15.30375,8.47875,19.8275,-32.016003,15.624001,-75.056,eccentric,4,5.0,29276.0,30423.0,101313.0,74850.0,27738.0,38335.0,41711.0,41609.0,19683.0,12670.0
2026-05-06 16:19:43.087719,743287,1609506646500115,4246412720,0.827648,0.201056,-0.32208,-14.4725,6.8425,19.635,-32.376003,16.672,-76.384,eccentric,4,5.0,29276.0,30423.0,101313.0,74850.0,27738.0,38335.0,41711.0,41609.0,19683.0,12670.0
2026-05-06 16:19:43.090213,743288,1609506646509220,4246421451,0.83936,0.163968,-0.244,-11.27875,5.71375,18.095,-31.744001,18.488,-76.576004,eccentric,4,5.0,29276.0,30423.0,101313.0,74850.0,27738.0,38335.0,41711.0,41609.0,19683.0,12670.0
2026-05-06 16:19:43.092714,743289,1609506646518247,4246430189,0.83936,0.163968,-0.244,-12.11,3.99875,15.68875,-31.744001,18.488,-76.576004,eccentric,4,5.0,29276.0,30423.0,101313.0,74850.0,27738.0,38335.0,41711.0,41609.0,19683.0,12670.0
2026-05-06 16:19:43.152653,743300,1609506646532770,4246445578,0.854976,0.173728,-0.261568,-16.98375,1.785,14.16625,-31.824001,15.296001,-74.096,eccentric,4,5.0,27840.0,30125.0,97694.0,74218.0,26395.0,37979.0,40468.0,41328.0,18620.0,12524.0
2026-05-06 16:19:43.155090,743301,1609506646541786,4246454313,0.854976,0.173728,-0.261568,-16.3275,0.20125,12.46875,-31.824001,15.296001,-74.096,eccentric,4,5.0,27840.0,30125.0,97694.0,74218.0,26395.0,37979.0,40468.0,41328.0,18620.0,12524.0
2026-05-06 16:19:43.157681,743302,1609506646556316,4246467268,0.8296,0.171776,-0.2928,-14.07875,-0.62125,9.5375,-31.016,18.224,-76.600006,eccentric,4,5.0,27840.0,30125.0,97694.0,74218.0,26395.0,37979.0,40468.0,41328.0,18620.0,12524.0
2026-05-06 16:19:43.160126,743303,1609506646565706,4246478053,0.8296,0.171776,-0.2928,-10.94625,-0.28,8.84625,-31.016,18.224,-76.600006,eccentric,4,5.0,27840.0,30125.0,97694.0,74218.0,26395.0,37979.0,40468.0,41328.0,18620.0,12524.0
2026-05-06 16:19:43.162388,743304,1609506646580375,4246491159,0.853024,0.163968,-0.27328,-8.6625,-1.18125,7.4025,-31.744001,15.064001,-74.240005,eccentric,4,5.0,27840.0,30125.0,97694.0,74218.0,26395.0,37979.0,40468.0,41328.0,18620.0,12524.0
2026-05-06 16:19:43.164785,743305,1609506646589677,4246502016,0.85888,0.150304,-0.220576,-8.8375,-2.1175,6.58,-31.624,16.44,-76.872,eccentric,4,5.0,27840.0,30125.0,97694.0,74218.0,26395.0,37979.0,40468.0,41328.0,18620.0,12524.0
2026-05-06 16:19:43.167511,743306,1609506646598674,4246510767,0.85888,0.150304,-0.220576,-7.04375,-2.89625,4.41,-31.624,16.44,-76.872,eccentric,4,5.0,27840.0,30125.0,97694.0,74218.0,26395.0,37979.0,40468.0,41328.0,18620.0,12524.0
2026-05-06 16:19:43.198964,743307,1609506646613230,4246525714,0.872544,0.154208,-0.232288,-6.95625,-3.4475,1.75,-31.536001,16.808,-75.344,eccentric,4,5.0,27840.0,30125.0,97694.0,74218.0,26395.0,37979.0,40468.0,41328.0,18620.0,12524.0
2026-05-06 16:19:43.227308,743308,1609506646622158,4246534428,0.872544,0.154208,-0.232288,-8.70625,-4.4275,1.58375,-31.536001,16.808,-75.344,eccentric,4,5.0,27840.0,30125.0,97694.0,74218.0,26395.0,37979.0,40468.0,41328.0,18620.0,12524.0
2026-05-06 16:19:43.268932,743319,1609506646637283,4246549553,0.854976,0.12688,-0.288896,-8.77625,-5.8975,-0.48125,-31.144001,18.648,-76.736,eccentric,4,5.0,26953.0,29759.0,95246.0,73995.0,25465.0,37605.0,39581.0,41272.0,17882.0,12332.0
2026-05-06 16:19:43.271316,743320,1609506646646286,4246558313,0.854976,0.12688,-0.288896,-8.715,-6.41375,-1.8025,-31.144001,18.648,-76.736,eccentric,4,5.0,26953.0,29759.0,95246.0,73995.0,25465.0,37605.0,39581.0,41272.0,17882.0,12332.0
2026-05-06 16:19:43.274023,743321,1609506646655245,4246567013,0.841312,0.13664,-0.30256,-5.95875,-7.48125,-2.205,-31.520002,18.288,-76.840004,eccentric,4,5.0,26953.0,29759.0,95246.0,73995.0,25465.0,37605.0,39581.0,41272.0,17882.0,12332.0
2026-05-06 16:19:43.276430,743322,1609506646669748,4246581949,0.851072,0.138592,-0.210816,-2.2575,-8.32125,-3.68375,-30.936,18.472,-76.888,eccentric,4,5.0,26953.0,29759.0,95246.0,73995.0,25465.0,37605.0,39581.0,41272.0,17882.0,12332.0
2026-05-06 16:19:43.279037,743323,1609506646678678,4246590662,0.851072,0.138592,-0.210816,-0.07875,-9.6075,-5.39,-30.936,18.472,-76.888,eccentric,4,5.0,26953.0,29759.0,95246.0,73995.0,25465.0,37605.0,39581.0,41272.0,17882.0,12332.0
2026-05-06 16:19:43.281453,743324,1609506646693261,4246605588,0.847168,0.158112,-0.281088,0.98875,-10.05375,-6.965,-31.2,15.376,-75.0,eccentric,4,5.0,26953.0,29759.0,95246.0,73995.0,25465.0,37605.0,39581.0,41272.0,17882.0,12332.0
2026-05-06 16:19:43.284017,743325,1609506646702235,4246614350,0.847168,0.158112,-0.281088,0.79625,-11.1125,-6.685,-31.2,15.376,-75.0,eccentric,4,5.0,26953.0,29759.0,95246.0,73995.0,25465.0,37605.0,39581.0,41272.0,17882.0,12332.0
2026-05-06 16:19:43.288997,743326,1609506646711261,4246623115,0.853024,0.152256,-0.275232,1.4,-11.3575,-7.81375,-31.352001,14.872001,-74.536,eccentric,4,5.0,26953.0,29759.0,95246.0,73995.0,25465.0,37605.0,39581.0,41272.0,17882.0,12332.0
2026-05-06 16:19:43.295186,743327,1609506646725810,4246638082,0.853024,0.152256,-0.275232,2.09125,-11.3925,-9.275,-31.352001,14.872001,-74.536,eccentric,4,5.0,26953.0,29759.0,95246.0,73995.0,25465.0,37605.0,39581.0,41272.0,17882.0,12332.0
2026-05-06 16:19:43.330233,743338,1609506646734731,4246646872,0.84912,0.150304,-0.281088,2.61625,-12.075,-9.87875,-31.192001,15.576001,-76.288,eccentric,4,5.0,27057.0,29878.0,95332.0,73902.0,25398.0,37730.0,39725.0,41244.0,17801.0,12399.0
2026-05-06 16:19:43.331053,743339,1609506646749342,4246661819,0.843264,0.152256,-0.228384,4.2175,-13.27375,-10.98125,-31.192001,15.576001,-77.96001,eccentric,4,5.0,27057.0,29878.0,95332.0,73902.0,25398.0,37730.0,39725.0,41244.0,17801.0,12399.0
2026-05-06 16:19:43.333808,743340,1609506646758311,4246670669,0.843264,0.152256,-0.228384,6.18625,-14.6475,-13.7375,-31.424002,15.264001,-77.96001,eccentric,4,5.0,27057.0,29878.0,95332.0,73902.0,25398.0,37730.0,39725.0,41244.0,17801.0,12399.0
2026-05-06 16:19:43.336120,743341,1609506646767284,4246679396,0.843264,0.152256,-0.228384,5.25875,-15.995,-14.4375,-31.424002,15.264001,-77.96001,eccentric,4,5.0,27057.0,29878.0,95332.0,73902.0,25398.0,37730.0,39725.0,41244.0,17801.0,12399.0
2026-05-06 16:19:43.353847,743342,1609506646781947,4246694365,0.83936,0.167872,-0.259616,5.24125,-18.05125,-14.6125,-31.168001,16.224,-77.16,eccentric,4,5.0,27057.0,29878.0,95332.0,73902.0,25398.0,37730.0,39725.0,41244.0,17801.0,12399.0
2026-05-06 16:19:43.360107,743343,1609506646790893,4246703080,0.813984,0.162016,-0.337696,6.6675,-20.50125,-16.6075,-30.784002,17.712,-78.200005,eccentric,4,5.0,27057.0,29878.0,95332.0,73902.0,25398.0,37730.0,39725.0,41244.0,17801.0,12399.0
2026-05-06 16:19:43.384037,743344,1609506646805430,4246718104,0.813984,0.162016,-0.337696,8.00625,-22.61875,-17.6925,-30.784002,17.712,-78.200005,eccentric,4,5.0,27057.0,29878.0,95332.0,73902.0,25398.0,37730.0,39725.0,41244.0,17801.0,12399.0
2026-05-06 16:19:43.386422,743345,1609506646814335,4246726792,0.837408,0.179584,-0.255712,9.58125,-24.10625,-17.885,-31.080002,17.688002,-77.90401,eccentric,4,5.0,27057.0,29878.0,95332.0,73902.0,25398.0,37730.0,39725.0,41244.0,17801.0,12399.0
2026-05-06 16:19:43.400180,743346,1609506646828936,4246739732,0.837408,0.179584,-0.255712,12.18875,-25.2175,-19.3375,-31.080002,17.688002,-77.90401,eccentric,4,5.0,27057.0,29878.0,95332.0,73902.0,25398.0,37730.0,39725.0,41244.0,17801.0,12399.0
2026-05-06 16:19:43.427839,743357,1609506646838792,4246750619,0.817888,0.187392,-0.2928,12.60875,-26.76625,-21.0875,-30.976002,18.184,-76.976006,eccentric,4,5.0,27345.0,30025.0,95997.0,73891.0,25562.0,37972.0,40105.0,41275.0,17893.0,12502.0
2026-05-06 16:19:43.429812,743358,1609506646847851,4246759483,0.817888,0.187392,-0.2928,12.215,-28.735,-22.63625,-30.976002,18.184,-76.976006,eccentric,4,5.0,27345.0,30025.0,95997.0,73891.0,25562.0,37972.0,40105.0,41275.0,17893.0,12502.0
2026-05-06 16:19:43.432539,743359,1609506646862396,4246774521,0.812032,0.183488,-0.316224,11.90875,-30.37125,-24.24625,-31.168001,15.192,-75.744,eccentric,4,5.0,27345.0,30025.0,95997.0,73891.0,25562.0,37972.0,40105.0,41275.0,17893.0,12502.0
2026-05-06 16:19:43.438871,743360,1609506646871353,4246783241,0.784704,0.20496,-0.365024,13.2125,-32.10375,-25.27,-31.512001,14.072001,-77.08,eccentric,4,5.0,27345.0,30025.0,95997.0,73891.0,25562.0,37972.0,40105.0,41275.0,17893.0,12502.0
2026-05-06 16:19:43.455088,743361,1609506646885853,4246798135,0.784704,0.20496,-0.365024,14.525,-33.8975,-26.25,-31.512001,14.072001,-77.08,eccentric,4,5.0,27345.0,30025.0,95997.0,73891.0,25562.0,37972.0,40105.0,41275.0,17893.0,12502.0
2026-05-06 16:19:43.461284,743362,1609506646894780,4246806852,0.788608,0.191296,-0.347456,16.84375,-35.420002,-27.405,-31.008001,17.480001,-78.424,eccentric,4,5.0,27345.0,30025.0,95997.0,73891.0,25562.0,37972.0,40105.0,41275.0,17893.0,12502.0
2026-05-06 16:19:43.475137,743363,1609506646903720,4246815704,0.788608,0.191296,-0.347456,18.095,-37.51125,-28.98875,-31.008001,17.480001,-78.424,eccentric,4,5.0,27345.0,30025.0,95997.0,73891.0,25562.0,37972.0,40105.0,41275.0,17893.0,12502.0
2026-05-06 16:19:43.489014,743364,1609506646918259,4246830683,0.774944,0.1952,-0.33184,16.35375,-39.96125,-29.295,-30.728,17.632,-78.824005,eccentric,4,5.0,27345.0,30025.0,95997.0,73891.0,25562.0,37972.0,40105.0,41275.0,17893.0,12502.0
2026-05-06 16:19:43.495178,743365,1609506646927172,4246839493,0.774944,0.1952,-0.33184,16.26625,-42.23625,-29.84625,-30.728,17.632,-78.824005,eccentric,4,5.0,27345.0,30025.0,95997.0,73891.0,25562.0,37972.0,40105.0,41275.0,17893.0,12502.0
2026-05-06 16:19:43.528826,743376,1609506646941863,4246854618,0.774944,0.220576,-0.411872,15.68,-43.9075,-31.045,-30.968002,16.656,-78.632,eccentric,4,5.0,27629.0,30386.0,97299.0,74163.0,25954.0,38352.0,40726.0,41398.0,18140.0,12661.0
2026-05-06 16:19:43.531199,743377,1609506646950900,4246863471,0.769088,0.238144,-0.38064,14.84875,-45.45625,-31.36875,-30.968002,15.256001,-78.16,eccentric,4,5.0,27629.0,30386.0,97299.0,74163.0,25954.0,38352.0,40726.0,41398.0,18140.0,12661.0
2026-05-06 16:19:43.533888,743378,1609506646959915,4246872204,0.769088,0.238144,-0.38064,15.3125,-47.34625,-32.357502,-30.816002,15.256001,-78.16,eccentric,4,5.0,27629.0,30386.0,97299.0,74163.0,25954.0,38352.0,40726.0,41398.0,18140.0,12661.0
2026-05-06 16:19:43.570204,743379,1609506646974506,4246887156,0.735904,0.22448,-0.413824,15.32125,-49.42875,-34.29125,-30.688002,15.416,-78.688,eccentric,4,5.0,27629.0,30386.0,97299.0,74163.0,25954.0,38352.0,40726.0,41398.0,18140.0,12661.0
2026-05-06 16:19:43.595064,743380,1609506646983445,4246895866,0.735904,0.22448,-0.413824,14.595,-51.5025,-34.81625,-30.688002,15.416,-78.688,eccentric,4,5.0,27629.0,30386.0,97299.0,74163.0,25954.0,38352.0,40726.0,41398.0,18140.0,12661.0
2026-05-06 16:19:43.603564,743381,1609506646997964,4246908726,0.739808,0.23424,-0.339648,15.46125,-53.0775,-34.81625,-29.944002,16.400002,-80.76,eccentric,4,5.0,27629.0,30386.0,97299.0,74163.0,25954.0,38352.0,40726.0,41398.0,18140.0,12661.0
2026-05-06 16:19:43.604925,743382,1609506647007166,4246919610,0.739808,0.23424,-0.339648,17.14125,-55.37,-35.035,-29.944002,16.400002,-80.76,eccentric,4,5.0,27629.0,30386.0,97299.0,74163.0,25954.0,38352.0,40726.0,41398.0,18140.0,12661.0
2026-05-06 16:19:43.607408,743383,1609506647021754,4246932504,0.739808,0.25376,-0.460672,18.38375,-57.2075,-36.19875,-30.312002,16.368,-80.840004,eccentric,4,5.0,27629.0,30386.0,97299.0,74163.0,25954.0,38352.0,40726.0,41398.0,18140.0,12661.0
2026-05-06 16:19:43.612491,743384,1609506647030949,4246943290,0.739808,0.25376,-0.538752,18.8475,-58.6775,-35.7175,-30.312002,16.368,-80.840004,eccentric,4,5.0,27629.0,30386.0,97299.0,74163.0,25954.0,38352.0,40726.0,41398.0,18140.0,12661.0
2026-05-06 16:19:43.637536,743395,1609506647040135,4246952073,0.710528,0.277184,-0.538752,18.165,-59.71875,-36.11125,-30.12,16.04,-82.01601,eccentric,4,5.0,28362.0,30625.0,99994.0,74517.0,26665.0,38511.0,41817.0,41565.0,18663.0,12761.0
2026-05-06 16:19:43.640094,743396,1609506647054729,4246967013,0.72224,0.240096,-0.437248,14.81375,-59.98125,-35.315,-29.848001,16.0,-82.04,eccentric,4,5.0,28362.0,30625.0,99994.0,74517.0,26665.0,38511.0,41817.0,41565.0,18663.0,12761.0
2026-05-06 16:19:43.642577,743397,1609506647063716,4246975751,0.72224,0.240096,-0.437248,12.59125,-62.23875,-36.88125,-29.848001,16.0,-82.04,eccentric,4,5.0,28362.0,30625.0,99994.0,74517.0,26665.0,38511.0,41817.0,41565.0,18663.0,12761.0
2026-05-06 16:19:43.645007,743398,1609506647078371,4246990750,0.70272,0.232288,-0.443104,9.80875,-64.9075,-38.71875,-29.384,15.792001,-83.192,eccentric,4,5.0,28362.0,30625.0,99994.0,74517.0,26665.0,38511.0,41817.0,41565.0,18663.0,12761.0
2026-05-06 16:19:43.658999,743399,1609506647087410,4246999479,0.70272,0.232288,-0.443104,9.3275,-67.50625,-38.36,-29.384,15.792001,-83.192,eccentric,4,5.0,28362.0,30625.0,99994.0,74517.0,26665.0,38511.0,41817.0,41565.0,18663.0,12761.0
2026-05-06 16:19:43.665205,743400,1609506647096344,4247008163,0.669536,0.271328,-0.5856,10.42125,-69.125,-38.1675,-28.992,15.432001,-82.944,eccentric,4,5.0,28362.0,30625.0,99994.0,74517.0,26665.0,38511.0,41817.0,41565.0,18663.0,12761.0
2026-05-06 16:19:43.678902,743401,1609506647110947,4247023112,0.669536,0.271328,-0.5856,10.22,-70.23625,-37.45875,-28.992,15.432001,-82.944,eccentric,4,5.0,28362.0,30625.0,99994.0,74517.0,26665.0,38511.0,41817.0,41565.0,18663.0,12761.0
2026-05-06 16:19:43.687683,743402,1609506647119859,4247031866,0.66368,0.298656,-0.544608,9.1175,-71.3475,-36.56625,-28.984001,14.800001,-83.79201,eccentric,4,5.0,28362.0,30625.0,99994.0,74517.0,26665.0,38511.0,41817.0,41565.0,18663.0,12761.0
2026-05-06 16:19:43.721354,743403,1609506647134352,4247046803,0.646112,0.265472,-0.480192,14.28,-72.24875,-38.3775,-28.392002,15.568001,-84.28001,eccentric,4,5.0,28362.0,30625.0,99994.0,74517.0,26665.0,38511.0,41817.0,41565.0,18663.0,12761.0
2026-05-06 16:19:43.777562,743414,1609506647143462,4247055691,0.646112,0.265472,-0.480192,17.22875,-74.06,-39.99625,-28.392002,15.568001,-84.28001,eccentric,4,5.0,30594.0,30785.0,103781.0,74942.0,28861.0,38636.0,43335.0,41736.0,20330.0,12856.0
2026-05-06 16:19:43.780194,743415,1609506647152542,4247064497,0.610976,0.33184,-0.579744,13.99125,-76.5975,-40.46875,-28.392002,14.904,-85.088005,eccentric,4,5.0,30594.0,30785.0,103781.0,74942.0,28861.0,38636.0,43335.0,41736.0,20330.0,12856.0
2026-05-06 16:19:43.782681,743416,1609506647167086,4247079434,0.610976,0.33184,-0.579744,8.82,-79.4325,-40.15375,-28.064001,14.904,-85.088005,eccentric,4,5.0,30594.0,30785.0,103781.0,74942.0,28861.0,38636.0,43335.0,41736.0,20330.0,12856.0
2026-05-06 16:19:43.785149,743417,1609506647176047,4247088158,0.593408,0.324032,-0.64416,9.17875,-80.885,-41.67625,-27.584002,12.768001,-83.312004,eccentric,4,5.0,30594.0,30785.0,103781.0,74942.0,28861.0,38636.0,43335.0,41736.0,20330.0,12856.0
2026-05-06 16:19:43.787711,743418,1609506647190573,4247103107,0.593408,0.324032,-0.64416,5.67,-82.25,-43.70625,-27.584002,12.768001,-83.312004,eccentric,4,5.0,30594.0,30785.0,103781.0,74942.0,28861.0,38636.0,43335.0,41736.0,20330.0,12856.0
2026-05-06 16:19:43.790188,743419,1609506647199474,4247111934,0.54656,0.343552,-0.714432,2.44125,-84.04375,-42.77,-26.944002,14.296001,-86.16801,eccentric,4,5.0,30594.0,30785.0,103781.0,74942.0,28861.0,38636.0,43335.0,41736.0,20330.0,12856.0
2026-05-06 16:19:43.794608,743420,1609506647214103,4247124871,0.50752,0.33184,-0.564128,5.22375,-84.11375,-43.79375,-26.680002,10.528001,-84.984,eccentric,4,5.0,30594.0,30785.0,103781.0,74942.0,28861.0,38636.0,43335.0,41736.0,20330.0,12856.0
2026-05-06 16:19:43.795119,743421,1609506647223423,4247135695,0.50752,0.33184,-0.564128,10.73625,-83.92125,-44.1,-26.680002,10.528001,-84.984,eccentric,4,5.0,30594.0,30785.0,103781.0,74942.0,28861.0,38636.0,43335.0,41736.0,20330.0,12856.0
2026-05-06 16:19:43.802688,743422,1609506647232424,4247144474,0.50752,0.33184,-0.735904,10.885,-84.97125,-44.54625,-26.680002,10.528001,-84.984,eccentric,4,5.0,30594.0,30785.0,103781.0,74942.0,28861.0,38636.0,43335.0,41736.0,20330.0,12856.0
2026-05-06 16:19:43.830107,743433,1609506647247089,4247159517,0.519232,0.40016,-0.739808,0.735,-88.585,-43.54875,-26.192001,12.392,-86.008,eccentric,4,5.0,32243.0,31125.0,107025.0,75048.0,30507.0,39009.0,44619.0,41733.0,21613.0,13034.0
2026-05-06 16:19:43.832642,743434,1609506647256070,4247168306,0.46848,0.345504,-0.726144,-3.885,-89.36375,-42.385,-25.352001,11.552001,-87.672005,eccentric,4,5.0,32243.0,31125.0,107025.0,75048.0,30507.0,39009.0,44619.0,41733.0,21613.0,13034.0
2026-05-06 16:19:43.838905,743435,1609506647270595,4247183296,0.46848,0.345504,-0.726144,-2.89625,-90.08125,-46.6725,-25.352001,11.552001,-87.672005,eccentric,4,5.0,32243.0,31125.0,107025.0,75048.0,30507.0,39009.0,44619.0,41733.0,21613.0,13034.0
2026-05-06 16:19:43.847699,743436,1609506647279494,4247192058,0.460672,0.3904,-0.77104,-5.2675,-90.1075,-45.395,-24.464,11.472,-88.632,eccentric,4,5.0,32243.0,31125.0,107025.0,75048.0,30507.0,39009.0,44619.0,41733.0,21613.0,13034.0
2026-05-06 16:19:43.856453,743437,1609506647288441,4247200750,0.460672,0.3904,-0.77104,-3.99875,-88.61125,-41.09,-24.464,11.472,-88.632,eccentric,4,5.0,32243.0,31125.0,107025.0,75048.0,30507.0,39009.0,44619.0,41733.0,21613.0,13034.0
2026-05-06 16:19:43.872542,743438,1609506647302933,4247215637,0.421632,0.404064,-0.694912,2.33625,-87.7275,-44.77375,-23.728,12.736001,-90.392006,eccentric,4,5.0,32243.0,31125.0,107025.0,75048.0,30507.0,39009.0,44619.0,41733.0,21613.0,13034.0
2026-05-06 16:19:43.881353,743439,1609506647311928,4247224399,0.421632,0.404064,-0.694912,0.035,-88.6725,-45.89375,-23.728,12.736001,-90.392006,eccentric,4,5.0,32243.0,31125.0,107025.0,75048.0,30507.0,39009.0,44619.0,41733.0,21613.0,13034.0
2026-05-06 16:19:43.895404,743440,1609506647326430,4247237252,0.411872,0.415776,-0.81008,-3.57875,-91.04375,-48.125,-23.168001,12.216001,-92.200005,eccentric,4,5.0,32243.0,31125.0,107025.0,75048.0,30507.0,39009.0,44619.0,41733.0,21613.0,13034.0
2026-05-06 16:19:43.930054,743441,1609506647335693,4247248014,0.368928,0.388448,-0.776896,-8.3475,-92.5575,-50.35625,-22.472,11.688001,-91.968,eccentric,4,5.0,32243.0,31125.0,107025.0,75048.0,30507.0,39009.0,44619.0,41733.0,21613.0,13034.0
2026-05-06 16:19:43.990377,743452,1609506647344840,4247256882,0.368928,0.388448,-0.776896,-4.52375,-91.98875,-51.66875,-22.472,11.688001,-91.968,eccentric,4,5.0,32038.0,30679.0,104540.0,75662.0,30336.0,38594.0,43663.0,42108.0,21557.0,12844.0
2026-05-06 16:19:43.993354,743453,1609506647359351,4247271832,0.363072,0.441152,-0.833504,-5.06625,-92.925,-53.5325,-21.640001,11.464001,-92.48,eccentric,4,5.0,32038.0,30679.0,104540.0,75662.0,30336.0,38594.0,43663.0,42108.0,21557.0,12844.0
2026-05-06 16:19:43.994875,743454,1609506647368267,4247280555,0.363072,0.441152,-0.833504,-13.4925,-94.6925,-50.4525,-21.640001,11.464001,-92.48,eccentric,4,5.0,32038.0,30679.0,104540.0,75662.0,30336.0,38594.0,43663.0,42108.0,21557.0,12844.0
2026-05-06 16:19:43.997522,743455,1609506647382784,4247295464,0.300608,0.396256,-0.675392,-12.97625,-96.04,-50.67125,-20.336,11.168,-93.576004,eccentric,4,5.0,32038.0,30679.0,104540.0,75662.0,30336.0,38594.0,43663.0,42108.0,21557.0,12844.0
2026-05-06 16:19:44.000047,743456,1609506647391724,4247304249,0.300608,0.396256,-0.675392,-11.27,-99.61,-56.77875,-20.336,11.168,-93.576004,eccentric,4,5.0,32038.0,30679.0,104540.0,75662.0,30336.0,38594.0,43663.0,42108.0,21557.0,12844.0
2026-05-06 16:19:44.002550,743457,1609506647406428,4247319167,0.27328,0.427488,-0.854976,-21.105,-103.7575,-54.32875,-19.960001,10.224001,-94.576004,eccentric,4,5.0,32038.0,30679.0,104540.0,75662.0,30336.0,38594.0,43663.0,42108.0,21557.0,12844.0
2026-05-06 16:19:44.005057,743458,1609506647415401,4247327914,0.226432,0.398208,-0.942816,-10.885,-104.3,-55.67625,-18.624,10.040001,-94.16801,eccentric,4,5.0,32038.0,30679.0,104540.0,75662.0,30336.0,38594.0,43663.0,42108.0,21557.0,12844.0
2026-05-06 16:19:44.007537,743459,1609506647424366,4247336743,0.226432,0.398208,-0.942816,-2.72125,-105.56,-60.55875,-18.624,10.040001,-94.16801,eccentric,4,5.0,32038.0,30679.0,104540.0,75662.0,30336.0,38594.0,43663.0,42108.0,21557.0,12844.0
2026-05-06 16:19:44.009954,743460,1609506647438917,4247349672,0.140544,0.505568,-0.835456,-4.97,-105.35875,-53.585,-17.76,8.152,-94.936005,eccentric,4,5.0,32038.0,30679.0,104540.0,75662.0,30336.0,38594.0,43663.0,42108.0,21557.0,12844.0
2026-05-06 16:19:44.040158,743471,1609506647448832,4247360576,0.140544,0.505568,-0.835456,-2.77375,-106.46125,-55.965,-17.76,8.152,-94.936005,eccentric,4,5.0,30190.0,29679.0,99423.0,76188.0,28540.0,37747.0,41805.0,42431.0,20188.0,12398.0
2026-05-06 16:19:44.042655,743472,1609506647457993,4247369364,0.103456,0.482144,-0.882304,-12.32,-109.26125,-58.572502,-16.2,7.28,-95.992004,eccentric,4,5.0,30190.0,29679.0,99423.0,76188.0,28540.0,37747.0,41805.0,42431.0,20188.0,12398.0
2026-05-06 16:19:44.045097,743473,1609506647472725,4247384441,0.103456,0.482144,-0.882304,-15.5225,-111.78125,-58.14375,-16.2,7.28,-95.992004,eccentric,4,5.0,30190.0,29679.0,99423.0,76188.0,28540.0,37747.0,41805.0,42431.0,20188.0,12398.0
2026-05-06 16:19:44.051403,743474,1609506647481694,4247393186,0.093696,0.366976,-0.83936,-11.10375,-112.76125,-60.99625,-15.152,7.008,-96.456,eccentric,4,5.0,30190.0,29679.0,99423.0,76188.0,28540.0,37747.0,41805.0,42431.0,20188.0,12398.0
2026-05-06 16:19:44.066188,743475,1609506647496330,4247408127,-0.011712,0.474336,-0.901824,-1.68,-112.97125,-61.635002,-13.384001,7.864,-99.184006,eccentric,4,5.0,30190.0,29679.0,99423.0,76188.0,28540.0,37747.0,41805.0,42431.0,20188.0,12398.0
2026-05-06 16:19:44.073688,743476,1609506647505236,4247416825,-0.011712,0.474336,-0.901824,7.9275,-112.21875,-60.26125,-13.384001,7.864,-99.184006,eccentric,4,5.0,30190.0,29679.0,99423.0,76188.0,28540.0,37747.0,41805.0,42431.0,20188.0,12398.0
2026-05-06 16:19:44.090099,743477,1609506647519721,4247431755,-0.066368,0.591456,-0.9272,12.985,-111.7025,-58.02125,-12.216001,8.440001,-99.064,eccentric,4,5.0,30190.0,29679.0,99423.0,76188.0,28540.0,37747.0,41805.0,42431.0,20188.0,12398.0
2026-05-06 16:19:44.096389,743478,1609506647528644,4247440497,-0.066368,0.591456,-0.9272,12.1625,-111.57125,-57.53125,-12.216001,8.440001,-99.064,eccentric,4,5.0,30190.0,29679.0,99423.0,76188.0,28540.0,37747.0,41805.0,42431.0,20188.0,12398.0
2026-05-06 16:19:44.105124,743479,1609506647537698,4247449202,-0.091744,0.46848,-0.894016,8.1725,-112.1225,-59.87625,-11.072001,7.984,-99.784004,eccentric,4,5.0,30190.0,29679.0,99423.0,76188.0,28540.0,37747.0,41805.0,42431.0,20188.0,12398.0
2026-05-06 16:19:44.137701,743491,1609506647552374,4247464236,-0.091744,0.46848,-0.894016,2.42375,-113.085,-61.775,-11.072001,7.984,-99.784004,eccentric,4,5.0,29044.0,29044.0,97077.0,77002.0,27284.0,37137.0,40766.0,42923.0,19222.0,12093.0
2026-05-06 16:19:44.140307,743492,1609506647561423,4247472971,-0.134688,0.441152,-0.929152,-1.6975,-113.855,-62.43125,-9.968,5.504,-99.09601,eccentric,4,5.0,29044.0,29044.0,97077.0,77002.0,27284.0,37137.0,40766.0,42923.0,19222.0,12093.0
2026-05-06 16:19:44.142694,743493,1609506647576023,4247487951,-0.208864,0.489952,-0.856928,5.7925,-113.4,-60.08625,-8.592,6.696,-99.976006,eccentric,4,5.0,29044.0,29044.0,97077.0,77002.0,27284.0,37137.0,40766.0,42923.0,19222.0,12093.0
2026-05-06 16:19:44.156334,743494,1609506647584952,4247496811,-0.208864,0.489952,-0.856928,18.52375,-110.08375,-59.63125,-8.592,6.696,-99.976006,eccentric,4,5.0,29044.0,29044.0,97077.0,77002.0,27284.0,37137.0,40766.0,42923.0,19222.0,12093.0
2026-05-06 16:19:44.162464,743495,1609506647593859,4247505525,-0.208864,0.489952,-0.856928,24.47375,-108.19375,-57.12,-8.592,6.696,-99.976006,eccentric,4,5.0,29044.0,29044.0,97077.0,77002.0,27284.0,37137.0,40766.0,42923.0,19222.0,12093.0
2026-05-06 16:19:44.176288,743496,1609506647608510,4247520470,-0.173728,0.550464,-0.88816,15.12,-110.13625,-56.25375,-7.08,6.472,-99.872,eccentric,4,5.0,29044.0,29044.0,97077.0,77002.0,27284.0,37137.0,40766.0,42923.0,19222.0,12093.0
2026-05-06 16:19:44.186313,743497,1609506647617581,4247529257,-0.206912,0.488,-1.052128,7.1925,-113.04125,-56.27125,-5.472,6.424,-100.47201,eccentric,4,5.0,29044.0,29044.0,97077.0,77002.0,27284.0,37137.0,40766.0,42923.0,19222.0,12093.0
2026-05-06 16:19:44.200043,743498,1609506647632091,4247544191,-0.206912,0.488,-1.052128,6.79,-114.9225,-57.56625,-5.472,6.424,-100.47201,eccentric,4,5.0,29044.0,29044.0,97077.0,77002.0,27284.0,37137.0,40766.0,42923.0,19222.0,12093.0
2026-05-06 16:19:44.234028,743509,1609506647641037,4247552909,-0.25376,0.402112,-0.835456,19.6525,-113.96,-55.947502,-3.704,8.216001,-101.520004,eccentric,4,5.0,28530.0,28630.0,96769.0,77528.0,26720.0,36664.0,40617.0,43194.0,18778.0,11873.0
2026-05-06 16:19:44.236429,743510,1609506647650544,4247561678,-0.25376,0.402112,-0.835456,23.6775,-115.1675,-54.22375,-3.704,8.216001,-101.520004,eccentric,4,5.0,28530.0,28630.0,96769.0,77528.0,26720.0,36664.0,40617.0,43194.0,18778.0,11873.0
2026-05-06 16:19:44.239025,743511,1609506647665486,4247576781,-0.265472,0.530944,-0.948672,13.36125,-118.18625,-49.5075,-2.336,6.56,-99.872,eccentric,4,5.0,28530.0,28630.0,96769.0,77528.0,26720.0,36664.0,40617.0,43194.0,18778.0,11873.0
2026-05-06 16:19:44.241527,743512,1609506647674462,4247585553,-0.265472,0.530944,-0.948672,13.15125,-118.3525,-51.49375,-2.336,6.56,-99.872,eccentric,4,5.0,28530.0,28630.0,96769.0,77528.0,26720.0,36664.0,40617.0,43194.0,18778.0,11873.0
2026-05-06 16:19:44.275038,743513,1609506647689292,4247600531,-0.296704,0.466528,-1.007232,12.64375,-119.60375,-53.31375,-0.432,5.248,-99.83201,eccentric,4,5.0,28530.0,28630.0,96769.0,77528.0,26720.0,36664.0,40617.0,43194.0,18778.0,11873.0
2026-05-06 16:19:44.300107,743514,1609506647698718,4247611327,-0.427488,0.433344,-0.853024,19.46875,-118.86,-53.43625,1.528,9.432,-102.47201,eccentric,4,5.0,28530.0,28630.0,96769.0,77528.0,26720.0,36664.0,40617.0,43194.0,18778.0,11873.0
2026-05-06 16:19:44.325163,743515,1609506647707681,4247620073,-0.427488,0.433344,-0.853024,25.8825,-116.0775,-50.67125,1.528,9.432,-102.47201,eccentric,4,5.0,28530.0,28630.0,96769.0,77528.0,26720.0,36664.0,40617.0,43194.0,18778.0,11873.0
2026-05-06 16:19:44.347644,743516,1609506647722196,4247633001,-0.480192,0.42944,-0.921344,29.303751,-116.1825,-48.30875,2.88,9.944,-102.408005,eccentric,4,5.0,28530.0,28630.0,96769.0,77528.0,26720.0,36664.0,40617.0,43194.0,18778.0,11873.0
2026-05-06 16:19:44.348777,743517,1609506647731573,4247643772,-0.480192,0.42944,-0.921344,13.265,-120.84625,-47.451252,2.88,9.944,-102.408005,eccentric,4,5.0,28530.0,28630.0,96769.0,77528.0,26720.0,36664.0,40617.0,43194.0,18778.0,11873.0
2026-05-06 16:19:44.376347,743528,1609506647746235,4247657164,-0.435296,0.521184,-1.095072,1.4175,-122.675,-45.42125,4.784,9.336,-102.16,eccentric,4,5.0,28326.0,28564.0,97102.0,77517.0,26501.0,36536.0,40766.0,43195.0,18585.0,11806.0
2026-05-06 16:19:44.378992,743529,1609506647755600,4247667943,-0.435296,0.521184,-1.095072,3.82375,-119.74375,-47.4425,4.784,9.336,-102.16,eccentric,4,5.0,28326.0,28564.0,97102.0,77517.0,26501.0,36536.0,40766.0,43195.0,18585.0,11806.0
2026-05-06 16:19:44.410162,743530,1609506647764510,4247676673,-0.515328,0.417728,-0.944768,12.64375,-114.3625,-49.93625,6.24,9.72,-101.88801,eccentric,4,5.0,28326.0,28564.0,97102.0,77517.0,26501.0,36536.0,40766.0,43195.0,18585.0,11806.0
2026-05-06 16:19:44.412694,743531,1609506647779059,4247691618,-0.583648,0.452864,-0.860832,12.15375,-113.75875,-51.388752,8.400001,10.064,-102.26401,eccentric,4,5.0,28326.0,28564.0,97102.0,77517.0,26501.0,36536.0,40766.0,43195.0,18585.0,11806.0
2026-05-06 16:19:44.415230,743532,1609506647788073,4247700352,-0.583648,0.452864,-0.860832,9.42375,-114.8,-48.545002,8.400001,10.064,-102.26401,eccentric,4,5.0,28326.0,28564.0,97102.0,77517.0,26501.0,36536.0,40766.0,43195.0,18585.0,11806.0
2026-05-06 16:19:44.420174,743533,1609506647802723,4247715318,-0.581696,0.402112,-0.903776,12.705,-115.26375,-50.0675,9.592,9.936001,-102.312004,eccentric,4,5.0,28326.0,28564.0,97102.0,77517.0,26501.0,36536.0,40766.0,43195.0,18585.0,11806.0
2026-05-06 16:19:44.422607,743534,1609506647811789,4247724032,-0.581696,0.402112,-0.903776,2.2225,-118.055,-50.75875,9.592,9.936001,-102.312004,eccentric,4,5.0,28326.0,28564.0,97102.0,77517.0,26501.0,36536.0,40766.0,43195.0,18585.0,11806.0
2026-05-06 16:19:44.427615,743535,1609506647820819,4247732860,-0.622688,0.486048,-0.892064,-10.05375,-119.988754,-52.10625,11.920001,10.160001,-101.8,eccentric,4,5.0,28326.0,28564.0,97102.0,77517.0,26501.0,36536.0,40766.0,43195.0,18585.0,11806.0
2026-05-06 16:19:44.430160,743536,1609506647835291,4247747858,-0.622688,0.486048,-0.892064,-6.86,-119.7525,-55.16875,11.920001,10.160001,-101.8,eccentric,4,5.0,28326.0,28564.0,97102.0,77517.0,26501.0,36536.0,40766.0,43195.0,18585.0,11806.0
2026-05-06 16:19:44.460079,743547,1609506647844854,4247756605,-0.657824,0.466528,-0.81984,-5.57375,-120.30375,-57.21625,13.776001,10.320001,-102.728004,eccentric,4,5.0,28136.0,28514.0,97810.0,77350.0,26296.0,36440.0,41047.0,43080.0,18442.0,11755.0
2026-05-06 16:19:44.462537,743548,1609506647859402,4247771676,-0.708576,0.411872,-0.827648,-15.35625,-124.32875,-58.345,14.984001,7.288001,-99.816,eccentric,4,5.0,28136.0,28514.0,97810.0,77350.0,26296.0,36440.0,41047.0,43080.0,18442.0,11755.0
2026-05-06 16:19:44.465025,743549,1609506647868473,4247780424,-0.708576,0.411872,-0.827648,-20.57125,-128.75626,-60.06,14.984001,7.288001,-99.816,eccentric,4,5.0,28136.0,28514.0,97810.0,77350.0,26296.0,36440.0,41047.0,43080.0,18442.0,11755.0
2026-05-06 16:19:44.467561,743550,1609506647877434,4247789210,-0.708576,0.411872,-0.874496,-21.98875,-133.83125,-60.235,14.984001,7.288001,-99.816,eccentric,4,5.0,28136.0,28514.0,97810.0,77350.0,26296.0,36440.0,41047.0,43080.0,18442.0,11755.0
2026-05-06 16:19:44.469971,743551,1609506647892068,4247804119,-0.732,0.343552,-0.874496,-17.00125,-135.70375,-58.2575,17.320002,7.248,-101.368004,eccentric,4,5.0,28136.0,28514.0,97810.0,77350.0,26296.0,36440.0,41047.0,43080.0,18442.0,11755.0
2026-05-06 16:19:44.472563,743552,1609506647901198,4247812976,-0.806176,0.308416,-0.671488,-7.91875,-133.8575,-57.478752,19.320002,9.056001,-99.84801,eccentric,4,5.0,28136.0,28514.0,97810.0,77350.0,26296.0,36440.0,41047.0,43080.0,18442.0,11755.0
2026-05-06 16:19:44.486344,743553,1609506647915745,4247828069,-0.806176,0.308416,-0.671488,-2.68625,-133.2975,-57.085,19.320002,9.056001,-99.84801,eccentric,4,5.0,28136.0,28514.0,97810.0,77350.0,26296.0,36440.0,41047.0,43080.0,18442.0,11755.0
2026-05-06 16:19:44.492609,743554,1609506647924634,4247836764,-0.933056,0.347456,-0.72224,-4.6375,-136.14125,-56.90125,21.312,9.176001,-99.36001,eccentric,4,5.0,28136.0,28514.0,97810.0,77350.0,26296.0,36440.0,41047.0,43080.0,18442.0,11755.0
2026-05-06 16:19:44.501376,743555,1609506647933563,4247845480,-0.933056,0.347456,-0.72224,-8.09375,-137.935,-56.0875,21.312,9.176001,-99.36001,eccentric,4,5.0,28136.0,28514.0,97810.0,77350.0,26296.0,36440.0,41047.0,43080.0,18442.0,11755.0
2026-05-06 16:19:44.534885,743566,1609506647948258,4247860433,-0.989664,0.314272,-0.64416,-5.22375,-136.9025,-55.44,23.336,10.6,-99.688,eccentric,4,5.0,27624.0,28294.0,96159.0,77622.0,25793.0,36298.0,40269.0,43241.0,18098.0,11670.0
2026-05-06 16:19:44.537339,743567,1609506647957264,4247869223,-0.989664,0.314272,-0.64416,-8.40875,-135.4325,-55.41375,23.336,10.6,-99.688,eccentric,4,5.0,27624.0,28294.0,96159.0,77622.0,25793.0,36298.0,40269.0,43241.0,18098.0,11670.0
2026-05-06 16:19:44.539906,743568,1609506647971892,4247884188,-0.989664,0.296704,-0.638304,-12.36375,-133.07875,-54.18875,24.816002,10.784,-100.840004,eccentric,4,5.0,27624.0,28294.0,96159.0,77622.0,25793.0,36298.0,40269.0,43241.0,18098.0,11670.0
2026-05-06 16:19:44.548827,743569,1609506647980914,4247892928,-1.00528,0.294752,-0.636352,-8.5225,-129.9725,-53.90875,26.696001,11.736001,-97.872,eccentric,4,5.0,27624.0,28294.0,96159.0,77622.0,25793.0,36298.0,40269.0,43241.0,18098.0,11670.0
2026-05-06 16:19:44.569974,743570,1609506647995401,4247907833,-1.00528,0.294752,-0.636352,-3.3075,-125.8425,-51.7475,26.696001,11.736001,-97.872,eccentric,4,5.0,27624.0,28294.0,96159.0,77622.0,25793.0,36298.0,40269.0,43241.0,18098.0,11670.0
2026-05-06 16:19:44.572362,743571,1609506648004310,4247916523,-1.0248,0.28304,-0.589504,-0.77,-121.52875,-49.83125,28.776001,12.192,-97.22401,eccentric,4,5.0,27624.0,28294.0,96159.0,77622.0,25793.0,36298.0,40269.0,43241.0,18098.0,11670.0
2026-05-06 16:19:44.581085,743572,1609506648013289,4247925262,-1.0248,0.28304,-0.589504,1.44375,-115.22875,-46.36625,28.776001,12.192,-97.22401,eccentric,4,5.0,27624.0,28294.0,96159.0,77622.0,25793.0,36298.0,40269.0,43241.0,18098.0,11670.0
2026-05-06 16:19:44.608924,743573,1609506648027824,4247940238,-1.026752,0.277184,-0.489952,5.67875,-109.17375,-45.1675,30.128002,12.552001,-96.408005,eccentric,4,5.0,27624.0,28294.0,96159.0,77622.0,25793.0,36298.0,40269.0,43241.0,18098.0,11670.0
2026-05-06 16:19:44.611269,743574,1609506648036755,4247948930,-1.026752,0.277184,-0.489952,2.03875,-106.1025,-43.2775,30.128002,12.552001,-96.408005,eccentric,4,5.0,27624.0,28294.0,96159.0,77622.0,25793.0,36298.0,40269.0,43241.0,18098.0,11670.0
2026-05-06 16:19:44.638704,743585,1609506648051550,4247963991,-1.016992,0.378688,-0.54656,0.44625,-103.285,-41.405,31.152002,13.160001,-95.768005,eccentric,4,5.0,27134.0,28313.0,97199.0,77441.0,25325.0,36281.0,40777.0,43133.0,17710.0,11672.0
2026-05-06 16:19:44.641140,743586,1609506648060525,4247972810,-1.01504,0.3416,-0.544608,-1.56625,-102.33125,-43.35625,32.488003,11.68,-93.728004,eccentric,4,5.0,27134.0,28313.0,97199.0,77441.0,25325.0,36281.0,40777.0,43133.0,17710.0,11672.0
2026-05-06 16:19:44.693839,743587,1609506648069552,4247981538,-1.01504,0.3416,-0.544608,-2.905,-101.246254,-44.73,32.488003,11.68,-93.728004,eccentric,4,5.0,27134.0,28313.0,97199.0,77441.0,25325.0,36281.0,40777.0,43133.0,17710.0,11672.0
2026-05-06 16:19:44.703951,743588,1609506648084089,4247996550,-1.038464,0.279136,-0.55632,-3.03625,-100.93125,-45.12375,33.648003,12.472,-92.648,eccentric,4,5.0,27134.0,28313.0,97199.0,77441.0,25325.0,36281.0,40777.0,43133.0,17710.0,11672.0
2026-05-06 16:19:44.706303,743589,1609506648093093,4248005292,-1.038464,0.279136,-0.55632,-4.55,-101.395,-44.93125,33.648003,12.472,-92.648,eccentric,4,5.0,27134.0,28313.0,97199.0,77441.0,25325.0,36281.0,40777.0,43133.0,17710.0,11672.0
2026-05-06 16:19:44.708936,743590,1609506648107634,4248020278,-1.028704,0.27328,-0.589504,-2.33625,-101.3425,-43.77625,34.920002,14.304001,-92.76,eccentric,4,5.0,27134.0,28313.0,97199.0,77441.0,25325.0,36281.0,40777.0,43133.0,17710.0,11672.0
2026-05-06 16:19:44.714029,743591,1609506648116605,4248028965,-1.028704,0.27328,-0.589504,3.4825,-98.28,-41.2125,34.920002,14.304001,-92.76,eccentric,4,5.0,27134.0,28313.0,97199.0,77441.0,25325.0,36281.0,40777.0,43133.0,17710.0,11672.0
2026-05-06 16:19:44.716448,743592,1609506648131154,4248043886,-1.046272,0.316224,-0.50752,5.25,-94.96375,-38.4125,36.272003,14.768001,-91.896,eccentric,4,5.0,27134.0,28313.0,97199.0,77441.0,25325.0,36281.0,40777.0,43133.0,17710.0,11672.0
2026-05-06 16:19:44.719035,743593,1609506648140057,4248052601,-1.052128,0.286944,-0.406016,1.2425,-93.0475,-37.68625,36.272003,15.528001,-91.664,eccentric,4,5.0,27134.0,28313.0,97199.0,77441.0,25325.0,36281.0,40777.0,43133.0,17710.0,11672.0
2026-05-06 16:19:44.746328,743604,1609506648149280,4248061592,-1.052128,0.286944,-0.406016,-6.23875,-92.47,-38.94625,36.808002,15.528001,-91.664,eccentric,4,5.0,26892.0,28699.0,101979.0,76403.0,25088.0,36467.0,42902.0,42547.0,17607.0,11828.0
2026-05-06 16:19:44.748865,743605,1609506648164000,4248076600,-1.069696,0.158112,-0.435296,-13.50125,-92.68,-40.66125,37.84,15.872001,-90.20801,eccentric,4,5.0,26892.0,28699.0,101979.0,76403.0,25088.0,36467.0,42902.0,42547.0,17607.0,11828.0
2026-05-06 16:19:44.751331,743606,1609506648173147,4248085359,-1.069696,0.158112,-0.435296,-15.86375,-90.746254,-41.25625,37.84,15.872001,-90.20801,eccentric,4,5.0,26892.0,28699.0,101979.0,76403.0,25088.0,36467.0,42902.0,42547.0,17607.0,11828.0
2026-05-06 16:19:44.757590,743607,1609506648187783,4248100323,-1.071648,0.23424,-0.456768,-13.27375,-85.925,-38.43,38.52,15.688001,-89.536,eccentric,4,5.0,26892.0,28699.0,101979.0,76403.0,25088.0,36467.0,42902.0,42547.0,17607.0,11828.0
2026-05-06 16:19:44.765178,743608,1609506648196771,4248109087,-1.071648,0.23424,-0.456768,-10.31625,-78.95125,-33.90625,38.52,15.688001,-89.536,eccentric,4,5.0,26892.0,28699.0,101979.0,76403.0,25088.0,36467.0,42902.0,42547.0,17607.0,11828.0
2026-05-06 16:19:44.773995,743609,1609506648205680,4248117793,-1.030656,0.324032,-0.41968,-10.745,-72.86125,-30.2225,39.256,16.0,-89.064,eccentric,4,5.0,26892.0,28699.0,101979.0,76403.0,25088.0,36467.0,42902.0,42547.0,17607.0,11828.0
2026-05-06 16:19:44.790210,743610,1609506648220175,4248132722,-1.030656,0.21472,-0.392352,-16.45,-68.1975,-27.1425,39.256,16.0,-89.064,eccentric,4,5.0,26892.0,28699.0,101979.0,76403.0,25088.0,36467.0,42902.0,42547.0,17607.0,11828.0
2026-05-06 16:19:44.799025,743611,1609506648229186,4248141472,-1.038464,0.216672,-0.392352,-21.210001,-64.68,-25.99625,39.776,16.552,-87.232,eccentric,4,5.0,26892.0,28699.0,101979.0,76403.0,25088.0,36467.0,42902.0,42547.0,17607.0,11828.0
2026-05-06 16:19:44.851411,743622,1609506648243712,4248156416,-1.04432,0.144448,-0.378688,-20.685,-62.9125,-27.44875,40.016003,15.376,-86.352005,eccentric,4,5.0,27997.0,29744.0,110166.0,75400.0,26212.0,37443.0,46070.0,41912.0,18463.0,12386.0
2026-05-06 16:19:44.853966,743623,1609506648252689,4248165159,-1.04432,0.144448,-0.378688,-16.8525,-59.3425,-26.15375,40.016003,15.376,-86.352005,eccentric,4,5.0,27997.0,29744.0,110166.0,75400.0,26212.0,37443.0,46070.0,41912.0,18463.0,12386.0
2026-05-06 16:19:44.858977,743624,1609506648267233,4248178041,-1.052128,0.27328,-0.423584,-11.34875,-53.8825,-23.03,40.336002,15.080001,-86.328,eccentric,4,5.0,27997.0,29744.0,110166.0,75400.0,26212.0,37443.0,46070.0,41912.0,18463.0,12386.0
2026-05-06 16:19:44.864038,743625,1609506648276502,4248188886,-1.052128,0.27328,-0.423584,-7.60375,-48.0725,-21.2625,40.336002,15.080001,-86.328,eccentric,4,5.0,27997.0,29744.0,110166.0,75400.0,26212.0,37443.0,46070.0,41912.0,18463.0,12386.0
2026-05-06 16:19:44.866321,743626,1609506648285427,4248197596,-1.03456,0.300608,-0.396256,-14.0175,-44.37125,-19.915,40.912003,14.6,-86.05601,eccentric,4,5.0,27997.0,29744.0,110166.0,75400.0,26212.0,37443.0,46070.0,41912.0,18463.0,12386.0
2026-05-06 16:19:44.868691,743627,1609506648299951,4248212515,-1.03456,0.300608,-0.396256,-25.38375,-41.79,-18.92625,40.912003,14.6,-86.05601,eccentric,4,5.0,27997.0,29744.0,110166.0,75400.0,26212.0,37443.0,46070.0,41912.0,18463.0,12386.0
2026-05-06 16:19:44.877477,743628,1609506648308901,4248221415,-1.032608,0.134688,-0.359168,-28.13125,-39.1475,-17.24625,41.168003,15.496,-86.728004,eccentric,4,5.0,27997.0,29744.0,110166.0,75400.0,26212.0,37443.0,46070.0,41912.0,18463.0,12386.0
2026-05-06 16:19:44.891377,743629,1609506648323538,4248234350,-1.056032,0.197152,-0.333792,-23.19625,-33.495,-14.90125,41.072002,15.504001,-85.64001,eccentric,4,5.0,27997.0,29744.0,110166.0,75400.0,26212.0,37443.0,46070.0,41912.0,18463.0,12386.0
2026-05-06 16:19:44.900134,743630,1609506648332862,4248245152,-1.056032,0.197152,-0.333792,-14.00875,-26.460001,-11.7075,41.072002,15.504001,-85.64001,eccentric,4,5.0,27997.0,29744.0,110166.0,75400.0,26212.0,37443.0,46070.0,41912.0,18463.0,12386.0
2026-05-06 16:19:44.909007,743631,1609506648341900,4248253885,-1.040416,0.294752,-0.337696,-9.44125,-20.74625,-9.205,41.216003,16.744001,-85.312004,eccentric,4,5.0,27997.0,29744.0,110166.0,75400.0,26212.0,37443.0,46070.0,41912.0,18463.0,12386.0
2026-05-06 16:19:44.945081,743642,1609506648356538,4248269083,-1.040416,0.294752,-0.337696,-12.6525,-18.2,-7.8575,41.216003,16.744001,-85.312004,eccentric,4,5.0,28763.0,30390.0,113227.0,74729.0,26953.0,38120.0,47596.0,41515.0,19023.0,12684.0
2026-05-06 16:19:44.947608,743643,1609506648365602,4248277856,-1.050176,0.249856,-0.335744,-19.15375,-15.575,-7.875,41.328003,16.744001,-86.576004,eccentric,4,5.0,28763.0,30390.0,113227.0,74729.0,26953.0,38120.0,47596.0,41515.0,19023.0,12684.0
2026-05-06 16:19:44.950117,743644,1609506648380120,4248292790,-1.050176,0.249856,-0.335744,-24.84125,-13.011251,-6.8775,41.328003,16.744001,-86.576004,eccentric,4,5.0,28763.0,30390.0,113227.0,74729.0,26953.0,38120.0,47596.0,41515.0,19023.0,12684.0
2026-05-06 16:19:44.958888,743645,1609506648389192,4248301535,-1.065792,0.23424,-0.337696,-25.9525,-8.91625,-5.2325,41.488003,16.432001,-88.22401,eccentric,4,5.0,28763.0,30390.0,113227.0,74729.0,26953.0,38120.0,47596.0,41515.0,19023.0,12684.0
2026-05-06 16:19:44.969002,743646,1609506648398135,4248310326,-1.065792,0.23424,-0.337696,-23.89625,-3.7275,-3.00125,41.488003,16.432001,-88.22401,eccentric,4,5.0,28763.0,30390.0,113227.0,74729.0,26953.0,38120.0,47596.0,41515.0,19023.0,12684.0
2026-05-06 16:19:44.982666,743647,1609506648412873,4248325285,-1.05408,0.230336,-0.327936,-25.34,0.44625,-1.7675,41.168003,14.512001,-86.136,eccentric,4,5.0,28763.0,30390.0,113227.0,74729.0,26953.0,38120.0,47596.0,41515.0,19023.0,12684.0
2026-05-06 16:19:44.993976,743648,1609506648421851,4248334086,-1.05408,0.167872,-0.357216,-25.13,4.22625,-0.2975,41.168003,14.512001,-86.136,eccentric,4,5.0,28763.0,30390.0,113227.0,74729.0,26953.0,38120.0,47596.0,41515.0,19023.0,12684.0
2026-05-06 16:19:45.009512,743649,1609506648436348,4248348993,-1.022848,0.16592,-0.357216,-23.135,7.81375,1.61875,40.952003,13.936001,-85.880005,eccentric,4,5.0,28763.0,30390.0,113227.0,74729.0,26953.0,38120.0,47596.0,41515.0,19023.0,12684.0
2026-05-06 16:19:45.118906,743660,1609506648445257,4248357740,-1.056032,0.216672,-0.318176,-16.415,12.5825,4.7775,41.544003,15.040001,-87.48,eccentric,4,5.0,28359.0,30159.0,111405.0,74736.0,26622.0,37995.0,46909.0,41508.0,18810.0,12619.0
2026-05-06 16:19:45.121288,743661,1609506648454450,4248366534,-1.056032,0.216672,-0.318176,-9.511251,17.928751,8.155,41.544003,15.040001,-87.48,eccentric,4,5.0,28359.0,30159.0,111405.0,74736.0,26622.0,37995.0,46909.0,41508.0,18810.0,12619.0
2026-05-06 16:19:45.123973,743662,1609506648468949,4248381593,-1.040416,0.308416,-0.261568,-10.0275,21.98875,10.87625,41.248,15.104001,-88.20801,eccentric,4,5.0,28359.0,30159.0,111405.0,74736.0,26622.0,37995.0,46909.0,41508.0,18810.0,12619.0
2026-05-06 16:19:45.126292,743663,1609506648477888,4248390322,-1.040416,0.308416,-0.261568,-16.0475,24.710001,11.235,41.248,15.104001,-88.20801,eccentric,4,5.0,28359.0,30159.0,111405.0,74736.0,26622.0,37995.0,46909.0,41508.0,18810.0,12619.0
2026-05-06 16:19:45.128948,743664,1609506648492373,4248403164,-1.05408,0.210816,-0.296704,-20.2125,27.93875,12.215,41.120003,14.56,-88.096,eccentric,4,5.0,28359.0,30159.0,111405.0,74736.0,26622.0,37995.0,46909.0,41508.0,18810.0,12619.0
