pc_time,serial_num,sensor_ts,host_ts,ax,ay,az,gx,gy,gz,mx,my,mz,phase,rpe,weight_kg,ppg_a,ppg_b,ppg_c,ppg_d,ppg_e,ppg_f,ppg_g,ppg_h,ppg_i,ppg_j
2026-05-06 16:16:53.913663,711460,1609506477343032,4077255350,0.757376,-0.335744,0.154208,0.245,-5.7225,11.41875,-35.072002,-19.560001,-84.144005,inter_set_rest,6,5.0,37611.0,39963.0,87577.0,101171.0,34600.0,47478.0,37942.0,58030.0,22752.0,16374.0
2026-05-06 16:16:53.922343,711461,1609506477357693,4077270324,0.772992,-0.072224,0.337696,15.04125,-7.20125,17.17625,-35.008003,-21.216002,-83.144005,inter_set_rest,6,5.0,37611.0,39963.0,87577.0,101171.0,34600.0,47478.0,37942.0,58030.0,22752.0,16374.0
2026-05-06 16:16:53.929108,711462,1609506477366789,4077279036,0.714432,-0.066368,0.277184,17.15,-4.3225,13.51875,-34.952003,-21.264002,-83.840004,inter_set_rest,6,5.0,37611.0,39963.0,87577.0,101171.0,34600.0,47478.0,37942.0,58030.0,22752.0,16374.0
2026-05-06 16:16:53.944130,711463,1609506477381301,4077293955,0.714432,-0.066368,0.277184,9.33625,-0.8925,7.7875,-34.952003,-21.264002,-83.840004,inter_set_rest,6,5.0,37611.0,39963.0,87577.0,101171.0,34600.0,47478.0,37942.0,58030.0,22752.0,16374.0
2026-05-06 16:16:53.951120,711464,1609506477390217,4077302684,0.696864,-0.271328,0.187392,-1.33875,0.44625,7.35,-34.960003,-19.232,-84.424,inter_set_rest,6,5.0,37611.0,39963.0,87577.0,101171.0,34600.0,47478.0,37942.0,58030.0,22752.0,16374.0
2026-05-06 16:16:53.959981,711465,1609506477399225,4077311423,0.696864,-0.271328,0.187392,-8.8375,-0.9625,10.33375,-34.960003,-19.232,-84.424,inter_set_rest,6,5.0,37611.0,39963.0,87577.0,101171.0,34600.0,47478.0,37942.0,58030.0,22752.0,16374.0
2026-05-06 16:16:53.993891,711466,1609506477413743,4077326322,0.933056,-0.3904,0.189344,-6.99125,-3.38625,13.755,-35.104,-19.312,-84.36,inter_set_rest,6,5.0,37611.0,39963.0,87577.0,101171.0,34600.0,47478.0,37942.0,58030.0,22752.0,16374.0
2026-05-06 16:16:54.026510,711477,1609506477423356,4077335083,0.933056,-0.3904,0.189344,-6.43125,-3.4825,8.72375,-35.104,-19.312,-84.36,inter_set_rest,6,5.0,37312.0,39673.0,87617.0,100921.0,34364.0,47207.0,37961.0,57967.0,22625.0,16260.0
2026-05-06 16:16:54.031246,711478,1609506477438060,4077350139,0.763232,-0.183488,0.294752,2.56375,-1.26875,6.4925,-35.304,-19.176,-84.01601,inter_set_rest,6,5.0,37312.0,39673.0,87617.0,100921.0,34364.0,47207.0,37961.0,57967.0,22625.0,16260.0
2026-05-06 16:16:54.033833,711479,1609506477447235,4077359032,0.817888,-0.169824,0.27328,15.67125,-2.96625,9.75625,-35.384003,-18.248001,-84.200005,inter_set_rest,6,5.0,37312.0,39673.0,87617.0,100921.0,34364.0,47207.0,37961.0,57967.0,22625.0,16260.0
2026-05-06 16:16:54.036224,711480,1609506477456277,4077367788,0.817888,-0.169824,0.27328,15.05875,-3.605,9.31875,-35.384003,-18.248001,-84.200005,inter_set_rest,6,5.0,37312.0,39673.0,87617.0,100921.0,34364.0,47207.0,37961.0,57967.0,22625.0,16260.0
2026-05-06 16:16:54.038841,711481,1609506477470831,4077382809,0.856928,-0.257664,0.232288,9.8175,-3.78,8.47875,-35.112003,-18.248001,-84.672005,inter_set_rest,6,5.0,37312.0,39673.0,87617.0,100921.0,34364.0,47207.0,37961.0,57967.0,22625.0,16260.0
2026-05-06 16:16:54.041249,711482,1609506477479787,4077391588,0.856928,-0.257664,0.232288,6.3175,-4.19125,6.79,-35.112003,-18.248001,-84.672005,inter_set_rest,6,5.0,37312.0,39673.0,87617.0,100921.0,34364.0,47207.0,37961.0,57967.0,22625.0,16260.0
2026-05-06 16:16:54.056285,711483,1609506477494320,4077406565,0.845216,-0.23424,0.169824,10.6575,-6.46625,5.6875,-35.096,-18.2,-84.75201,inter_set_rest,6,5.0,37312.0,39673.0,87617.0,100921.0,34364.0,47207.0,37961.0,57967.0,22625.0,16260.0
2026-05-06 16:16:54.067629,711484,1609506477503251,4077415289,0.845216,-0.23424,0.169824,17.7625,-9.42375,4.165,-35.096,-18.2,-84.75201,inter_set_rest,6,5.0,37312.0,39673.0,87617.0,100921.0,34364.0,47207.0,37961.0,57967.0,22625.0,16260.0
2026-05-06 16:16:54.077646,711485,1609506477512182,4077424006,0.843264,-0.167872,0.261568,19.022501,-9.8525,0.76125,-35.224003,-18.024,-84.664,inter_set_rest,6,5.0,37312.0,39673.0,87617.0,100921.0,34364.0,47207.0,37961.0,57967.0,22625.0,16260.0
2026-05-06 16:16:54.107669,711496,1609506477527078,4077439263,0.749568,-0.134688,0.267424,16.21375,-8.53125,-0.63875,-35.2,-19.856,-83.73601,inter_set_rest,6,5.0,37528.0,39806.0,87728.0,100897.0,34579.0,47331.0,37994.0,57908.0,22772.0,16339.0
2026-05-06 16:16:54.110132,711497,1609506477536044,4077448041,0.749568,-0.134688,0.267424,14.525,-7.2625,0.63875,-35.2,-19.856,-83.73601,inter_set_rest,6,5.0,37528.0,39806.0,87728.0,100897.0,34579.0,47331.0,37994.0,57908.0,22772.0,16339.0
2026-05-06 16:16:54.116598,711498,1609506477550702,4077463038,0.802272,-0.20496,0.18544,6.55375,-6.51875,1.14625,-35.120003,-19.256,-83.84801,inter_set_rest,6,5.0,37528.0,39806.0,87728.0,100897.0,34579.0,47331.0,37994.0,57908.0,22772.0,16339.0
2026-05-06 16:16:54.124605,711499,1609506477559780,4077471763,0.802272,-0.20496,0.18544,-0.0175,-6.06375,3.82375,-35.120003,-19.256,-83.84801,inter_set_rest,6,5.0,37528.0,39806.0,87728.0,100897.0,34579.0,47331.0,37994.0,57908.0,22772.0,16339.0
2026-05-06 16:16:54.146196,711500,1609506477568736,4077480508,0.784704,-0.216672,0.20496,3.22,-6.6675,5.145,-34.952003,-17.104,-85.48801,inter_set_rest,6,5.0,37528.0,39806.0,87728.0,100897.0,34579.0,47331.0,37994.0,57908.0,22772.0,16339.0
2026-05-06 16:16:54.156103,711501,1609506477583234,4077495460,0.784704,-0.216672,0.20496,9.5375,-7.665,6.7025,-34.952003,-17.104,-85.48801,inter_set_rest,6,5.0,37528.0,39806.0,87728.0,100897.0,34579.0,47331.0,37994.0,57908.0,22772.0,16339.0
2026-05-06 16:16:54.181333,711502,1609506477592157,4077504185,0.749568,-0.193248,0.1952,11.94375,-6.58875,7.20125,-35.032,-16.984001,-85.608,inter_set_rest,6,5.0,37528.0,39806.0,87728.0,100897.0,34579.0,47331.0,37994.0,57908.0,22772.0,16339.0
2026-05-06 16:16:54.206305,711503,1609506477606663,4077519122,0.700768,-0.124928,0.230336,8.88125,-4.05125,6.09875,-35.296,-17.008001,-85.448006,inter_set_rest,6,5.0,37528.0,39806.0,87728.0,100897.0,34579.0,47331.0,37994.0,57908.0,22772.0,16339.0
2026-05-06 16:16:54.215146,711504,1609506477615588,4077527840,0.700768,-0.124928,0.230336,7.6125,-2.37125,7.83125,-35.296,-17.008001,-85.448006,inter_set_rest,6,5.0,37528.0,39806.0,87728.0,100897.0,34579.0,47331.0,37994.0,57908.0,22772.0,16339.0
2026-05-06 16:16:54.245030,711515,1609506477630186,4077542864,0.696864,-0.158112,0.181536,-0.37625,-0.1925,8.60125,-35.008003,-16.76,-85.200005,inter_set_rest,6,5.0,37748.0,40058.0,87548.0,99772.0,34781.0,47649.0,37954.0,57320.0,22838.0,16452.0
2026-05-06 16:16:54.247584,711516,1609506477639289,4077551629,0.696864,-0.158112,0.181536,-9.30125,1.995,9.02125,-35.008003,-16.76,-85.200005,inter_set_rest,6,5.0,37748.0,40058.0,87548.0,99772.0,34781.0,47649.0,37954.0,57320.0,22838.0,16452.0
2026-05-06 16:16:54.249806,711517,1609506477648241,4077560371,0.650016,-0.17568,0.183488,-9.37125,2.94,10.33375,-35.120003,-16.44,-85.68,inter_set_rest,6,5.0,37748.0,40058.0,87548.0,99772.0,34781.0,47649.0,37954.0,57320.0,22838.0,16452.0
2026-05-06 16:16:54.252314,711518,1609506477662817,4077575484,0.650016,-0.17568,0.183488,-4.55875,2.17,11.55875,-35.120003,-16.44,-85.68,inter_set_rest,6,5.0,37748.0,40058.0,87548.0,99772.0,34781.0,47649.0,37954.0,57320.0,22838.0,16452.0
2026-05-06 16:16:54.254861,711519,1609506477671749,4077584291,0.69296,-0.216672,0.111264,-0.42875,1.75,13.545,-35.16,-16.088001,-84.944,inter_set_rest,6,5.0,37748.0,40058.0,87548.0,99772.0,34781.0,47649.0,37954.0,57320.0,22838.0,16452.0
2026-05-06 16:16:54.257344,711520,1609506477686275,4077597216,0.74176,-0.259616,0.181536,-1.19875,3.745,13.69375,-35.16,-16.088001,-84.20801,inter_set_rest,6,5.0,37748.0,40058.0,87548.0,99772.0,34781.0,47649.0,37954.0,57320.0,22838.0,16452.0
2026-05-06 16:16:54.260025,711521,1609506477695689,4077608121,0.74176,-0.259616,0.181536,-6.53625,7.5775,11.89125,-35.888,-17.296001,-84.20801,inter_set_rest,6,5.0,37748.0,40058.0,87548.0,99772.0,34781.0,47649.0,37954.0,57320.0,22838.0,16452.0
2026-05-06 16:16:54.266318,711522,1609506477704631,4077616857,0.74176,-0.259616,0.181536,-8.636251,11.36625,11.9875,-35.888,-17.296001,-84.20801,inter_set_rest,6,5.0,37748.0,40058.0,87548.0,99772.0,34781.0,47649.0,37954.0,57320.0,22838.0,16452.0
2026-05-06 16:16:54.280096,711523,1609506477719168,4077631839,0.6344,-0.187392,0.20496,-10.91125,14.07,13.16875,-35.576,-17.144001,-84.344,inter_set_rest,6,5.0,37748.0,40058.0,87548.0,99772.0,34781.0,47649.0,37954.0,57320.0,22838.0,16452.0
2026-05-06 16:16:54.313809,711534,1609506477728267,4077640626,0.651968,-0.115168,0.167872,-5.64375,14.5775,15.70625,-35.816,-17.448,-85.952,inter_set_rest,6,5.0,37813.0,40060.0,87377.0,98650.0,34777.0,47681.0,37858.0,56629.0,22822.0,16473.0
2026-05-06 16:16:54.316065,711535,1609506477742940,4077655688,0.651968,-0.115168,0.167872,4.3225,13.83375,18.1125,-35.816,-17.448,-85.952,inter_set_rest,6,5.0,37813.0,40060.0,87377.0,98650.0,34777.0,47681.0,37858.0,56629.0,22822.0,16473.0
2026-05-06 16:16:54.318575,711536,1609506477751989,4077664438,0.714432,-0.20496,0.160064,5.85375,14.49875,17.56125,-35.752003,-15.352001,-85.01601,inter_set_rest,6,5.0,37813.0,40060.0,87377.0,98650.0,34777.0,47681.0,37858.0,56629.0,22822.0,16473.0
2026-05-06 16:16:54.327533,711537,1609506477766670,4077679407,0.714432,-0.251808,0.216672,0.09625,17.43,14.4025,-35.752003,-15.352001,-85.01601,inter_set_rest,6,5.0,37813.0,40060.0,87377.0,98650.0,34777.0,47681.0,37858.0,56629.0,22822.0,16473.0
2026-05-06 16:16:54.340169,711538,1609506477775598,4077688135,0.685152,-0.265472,0.216672,-10.6225,20.64125,12.20625,-36.432003,-14.816001,-84.552,inter_set_rest,6,5.0,37813.0,40060.0,87377.0,98650.0,34777.0,47681.0,37858.0,56629.0,22822.0,16473.0
2026-05-06 16:16:54.346079,711539,1609506477784534,4077696841,0.685152,-0.265472,0.216672,-15.190001,22.295,12.94125,-36.432003,-14.816001,-84.552,inter_set_rest,6,5.0,37813.0,40060.0,87377.0,98650.0,34777.0,47681.0,37858.0,56629.0,22822.0,16473.0
2026-05-06 16:16:54.359955,711540,1609506477799059,4077711826,0.66368,-0.197152,0.216672,-13.83375,23.12625,10.14125,-36.568,-18.016,-83.28001,inter_set_rest,6,5.0,37813.0,40060.0,87377.0,98650.0,34777.0,47681.0,37858.0,56629.0,22822.0,16473.0
2026-05-06 16:16:54.368785,711541,1609506477808013,4077720555,0.694912,-0.132736,0.208864,-5.92375,22.47875,7.30625,-36.776,-16.128,-84.312004,inter_set_rest,6,5.0,37813.0,40060.0,87377.0,98650.0,34777.0,47681.0,37858.0,56629.0,22822.0,16473.0
2026-05-06 16:16:54.388700,711542,1609506477822541,4077733406,0.694912,-0.132736,0.208864,6.76375,20.15125,5.285,-36.776,-16.128,-84.312004,inter_set_rest,6,5.0,37813.0,40060.0,87377.0,98650.0,34777.0,47681.0,37858.0,56629.0,22822.0,16473.0
2026-05-06 16:16:54.422400,711553,1609506477832363,4077744278,0.710528,-0.216672,0.238144,13.0025,19.92375,1.86375,-37.224003,-13.984,-84.47201,inter_set_rest,6,5.0,37780.0,40009.0,87411.0,98150.0,34729.0,47650.0,37872.0,56167.0,22840.0,16466.0
2026-05-06 16:16:54.424973,711554,1609506477841369,4077753000,0.710528,-0.216672,0.238144,14.542501,22.8725,1.75,-37.224003,-13.984,-84.47201,inter_set_rest,6,5.0,37780.0,40009.0,87411.0,98150.0,34729.0,47650.0,37872.0,56167.0,22840.0,16466.0
2026-05-06 16:16:54.427502,711555,1609506477855850,4077767971,0.65392,-0.197152,0.267424,12.27625,26.18875,4.8125,-37.424004,-15.624001,-83.04,inter_set_rest,6,5.0,37780.0,40009.0,87411.0,98150.0,34729.0,47650.0,37872.0,56167.0,22840.0,16466.0
2026-05-06 16:16:54.429972,711556,1609506477864804,4077776687,0.65392,-0.197152,0.267424,10.8675,27.64125,6.23,-37.424004,-15.624001,-83.04,inter_set_rest,6,5.0,37780.0,40009.0,87411.0,98150.0,34729.0,47650.0,37872.0,56167.0,22840.0,16466.0
2026-05-06 16:16:54.441281,711557,1609506477879382,4077791701,0.607072,-0.08784,0.26352,10.96375,28.385,5.6175,-37.976,-15.128,-82.728004,inter_set_rest,6,5.0,37780.0,40009.0,87411.0,98150.0,34729.0,47650.0,37872.0,56167.0,22840.0,16466.0
2026-05-06 16:16:54.450076,711558,1609506477888309,4077800439,0.714432,-0.05856,0.222528,11.64625,27.7025,2.3975,-38.352,-15.000001,-82.43201,inter_set_rest,6,5.0,37780.0,40009.0,87411.0,98150.0,34729.0,47650.0,37872.0,56167.0,22840.0,16466.0
2026-05-06 16:16:54.458680,711559,1609506477897220,4077809150,0.714432,-0.05856,0.222528,16.16125,26.06625,-1.58375,-38.352,-15.000001,-82.43201,inter_set_rest,6,5.0,37780.0,40009.0,87411.0,98150.0,34729.0,47650.0,37872.0,56167.0,22840.0,16466.0
2026-05-06 16:16:54.475140,711560,1609506477911725,4077824096,0.739808,-0.152256,0.359168,14.4025,27.62375,-5.0925,-38.2,-12.824,-82.936005,inter_set_rest,6,5.0,37780.0,40009.0,87411.0,98150.0,34729.0,47650.0,37872.0,56167.0,22840.0,16466.0
2026-05-06 16:16:54.481010,711561,1609506477920673,4077832848,0.739808,-0.152256,0.359168,7.25375,31.3425,-6.8075,-38.2,-12.824,-82.936005,inter_set_rest,6,5.0,37780.0,40009.0,87411.0,98150.0,34729.0,47650.0,37872.0,56167.0,22840.0,16466.0
2026-05-06 16:16:54.563712,711572,1609506477935403,4077848125,0.657824,-0.111264,0.347456,7.42,34.04625,-6.0725,-39.104,-16.0,-80.992004,inter_set_rest,6,5.0,37540.0,39870.0,87464.0,98691.0,34619.0,47494.0,37914.0,56509.0,22812.0,16439.0
2026-05-06 16:16:54.566270,711573,1609506477944385,4077856844,0.657824,-0.111264,0.347456,17.7275,31.815,-8.49625,-39.104,-16.0,-80.992004,inter_set_rest,6,5.0,37540.0,39870.0,87464.0,98691.0,34619.0,47494.0,37914.0,56509.0,22812.0,16439.0
2026-05-06 16:16:54.568903,711574,1609506477958888,4077869694,0.749568,0.02928,0.345504,29.42625,28.30625,-12.03125,-38.800003,-12.656,-82.8,inter_set_rest,6,5.0,37540.0,39870.0,87464.0,98691.0,34619.0,47494.0,37914.0,56509.0,22812.0,16439.0
2026-05-06 16:16:54.571310,711575,1609506477968141,4077880480,0.749568,-0.033184,0.36112,38.263752,25.73375,-12.0575,-38.800003,-12.656,-82.8,inter_set_rest,6,5.0,37540.0,39870.0,87464.0,98691.0,34619.0,47494.0,37914.0,56509.0,22812.0,16439.0
2026-05-06 16:16:54.573862,711576,1609506477977074,4077889197,0.835456,-0.033184,0.36112,26.83625,29.89875,-13.405,-39.208,-11.856001,-80.824005,inter_set_rest,6,5.0,37540.0,39870.0,87464.0,98691.0,34619.0,47494.0,37914.0,56509.0,22812.0,16439.0
2026-05-06 16:16:54.576247,711577,1609506477991588,4077904145,0.876448,-0.177632,0.462624,9.3975,37.47625,-16.96625,-40.112003,-12.056001,-82.28001,inter_set_rest,6,5.0,37540.0,39870.0,87464.0,98691.0,34619.0,47494.0,37914.0,56509.0,22812.0,16439.0
2026-05-06 16:16:54.578866,711578,1609506478000557,4077913016,0.876448,-0.177632,0.462624,2.4325,42.1925,-20.04625,-40.112003,-12.056001,-82.28001,inter_set_rest,6,5.0,37540.0,39870.0,87464.0,98691.0,34619.0,47494.0,37914.0,56509.0,22812.0,16439.0
2026-05-06 16:16:54.583767,711579,1609506478015096,4077925975,0.894016,-0.115168,0.382592,1.2425,43.75,-26.11,-40.552002,-13.72,-80.32001,inter_set_rest,6,5.0,37540.0,39870.0,87464.0,98691.0,34619.0,47494.0,37914.0,56509.0,22812.0,16439.0
2026-05-06 16:16:54.611353,711590,1609506478024466,4077936699,0.894016,-0.115168,0.382592,18.90875,41.25625,-31.87625,-40.552002,-13.72,-80.32001,inter_set_rest,6,5.0,37078.0,39424.0,87222.0,98729.0,34333.0,47069.0,37792.0,56558.0,22702.0,16262.0
2026-05-06 16:16:54.613662,711591,1609506478033877,4077945443,0.979904,-0.080032,0.474336,33.232502,38.6225,-33.8975,-40.712,-14.040001,-81.200005,inter_set_rest,6,5.0,37078.0,39424.0,87222.0,98729.0,34333.0,47069.0,37792.0,56558.0,22702.0,16262.0
2026-05-06 16:16:54.616105,711592,1609506478048498,4077960503,0.979904,-0.080032,0.474336,37.2225,41.08125,-31.22,-40.712,-14.040001,-81.200005,inter_set_rest,6,5.0,37078.0,39424.0,87222.0,98729.0,34333.0,47069.0,37792.0,56558.0,22702.0,16262.0
2026-05-06 16:16:54.618754,711593,1609506478057538,4077969237,1.04432,-0.230336,0.46848,34.64125,48.0375,-30.8875,-41.512,-13.856001,-78.90401,inter_set_rest,6,5.0,37078.0,39424.0,87222.0,98729.0,34333.0,47069.0,37792.0,56558.0,22702.0,16262.0
2026-05-06 16:16:54.652730,711594,1609506478071992,4077984194,1.00528,-0.171776,0.554368,29.81125,54.74,-35.07875,-42.056004,-12.280001,-79.68,inter_set_rest,6,5.0,37078.0,39424.0,87222.0,98729.0,34333.0,47069.0,37792.0,56558.0,22702.0,16262.0
2026-05-06 16:16:54.657687,711595,1609506478081895,4077993662,1.00528,-0.171776,0.554368,38.08875,57.89,-38.115,-42.056004,-12.280001,-79.68,inter_set_rest,6,5.0,37078.0,39424.0,87222.0,98729.0,34333.0,47069.0,37792.0,56558.0,22702.0,16262.0
2026-05-06 16:16:54.660126,711596,1609506478090830,4078002412,1.003328,-0.062464,0.505568,49.595,57.54,-39.06,-42.256,-12.128,-79.352005,inter_set_rest,6,5.0,37078.0,39424.0,87222.0,98729.0,34333.0,47069.0,37792.0,56558.0,22702.0,16262.0
2026-05-06 16:16:54.667669,711597,1609506478105341,4078017314,1.003328,-0.062464,0.505568,50.365,55.965,-40.60875,-42.256,-12.128,-79.352005,inter_set_rest,6,5.0,37078.0,39424.0,87222.0,98729.0,34333.0,47069.0,37792.0,56558.0,22702.0,16262.0
2026-05-06 16:16:54.676443,711598,1609506478114257,4078026045,1.0248,-0.130784,0.503616,47.88,55.947502,-42.63,-43.056004,-13.112,-78.832,inter_set_rest,6,5.0,37078.0,39424.0,87222.0,98729.0,34333.0,47069.0,37792.0,56558.0,22702.0,16262.0
2026-05-06 16:16:54.715022,711609,1609506478129233,4078041190,1.0248,-0.130784,0.630496,48.85125,59.68375,-43.70625,-43.056004,-13.112,-78.832,inter_set_rest,6,5.0,36759.0,39019.0,87218.0,98635.0,34230.0,46727.0,37855.0,56531.0,22705.0,16113.0
2026-05-06 16:16:54.717533,711610,1609506478138245,4078050046,1.026752,-0.25376,0.630496,51.59,64.44375,-46.55875,-43.128002,-13.264001,-74.152,inter_set_rest,6,5.0,36759.0,39019.0,87218.0,98635.0,34230.0,46727.0,37855.0,56531.0,22705.0,16113.0
2026-05-06 16:16:54.720022,711611,1609506478147237,4078058758,1.026752,-0.25376,0.630496,57.28625,67.585,-48.93875,-43.128002,-13.264001,-74.152,inter_set_rest,6,5.0,36759.0,39019.0,87218.0,98635.0,34230.0,46727.0,37855.0,56531.0,22705.0,16113.0
2026-05-06 16:16:54.722536,711612,1609506478161796,4078073720,0.954528,-0.1952,0.601216,67.9525,69.1075,-48.615,-44.048,-15.232,-75.90401,inter_set_rest,6,5.0,36759.0,39019.0,87218.0,98635.0,34230.0,46727.0,37855.0,56531.0,22705.0,16113.0
2026-05-06 16:16:54.731272,711613,1609506478170851,4078082421,0.923296,-0.060512,0.622688,77.84875,68.145,-46.83,-44.440002,-14.432001,-76.608,inter_set_rest,6,5.0,36759.0,39019.0,87218.0,98635.0,34230.0,46727.0,37855.0,56531.0,22705.0,16113.0
2026-05-06 16:16:54.766380,711614,1609506478185358,4078097351,0.923296,-0.060512,0.622688,82.3725,67.78625,-43.47875,-44.440002,-14.432001,-76.608,inter_set_rest,6,5.0,36759.0,39019.0,87218.0,98635.0,34230.0,46727.0,37855.0,56531.0,22705.0,16113.0
2026-05-06 16:16:54.768965,711615,1609506478194289,4078106093,0.9272,-0.076128,0.5856,79.12625,71.085,-40.9325,-44.488003,-13.264001,-75.128006,inter_set_rest,6,5.0,36759.0,39019.0,87218.0,98635.0,34230.0,46727.0,37855.0,56531.0,22705.0,16113.0
2026-05-06 16:16:54.771434,711616,1609506478203220,4078114819,0.9272,-0.076128,0.5856,73.66625,75.74875,-43.65375,-44.488003,-13.264001,-75.128006,inter_set_rest,6,5.0,36759.0,39019.0,87218.0,98635.0,34230.0,46727.0,37855.0,56531.0,22705.0,16113.0
2026-05-06 16:16:54.805037,711617,1609506478217704,4078129745,0.884256,-0.085888,0.659776,70.20125,80.4125,-49.60375,-45.440002,-13.424001,-73.72,inter_set_rest,6,5.0,36759.0,39019.0,87218.0,98635.0,34230.0,46727.0,37855.0,56531.0,22705.0,16113.0
2026-05-06 16:16:54.835103,711628,1609506478227039,4078138435,0.884256,-0.085888,0.659776,71.4,83.46625,-52.185,-45.440002,-13.424001,-73.72,inter_set_rest,6,5.0,37080.0,38920.0,87076.0,99677.0,34745.0,46669.0,37745.0,57322.0,23096.0,16151.0
2026-05-06 16:16:54.840090,711629,1609506478241579,4078153369,0.854976,-0.01952,0.74176,83.25625,84.06125,-49.56875,-45.512,-13.944,-72.8,inter_set_rest,6,5.0,37080.0,38920.0,87076.0,99677.0,34745.0,46669.0,37745.0,57322.0,23096.0,16151.0
2026-05-06 16:16:54.842619,711630,1609506478250657,4078162175,0.81008,-0.00976,0.698816,86.89625,86.0475,-45.0975,-45.512,-13.776001,-72.496,inter_set_rest,6,5.0,37080.0,38920.0,87076.0,99677.0,34745.0,46669.0,37745.0,57322.0,23096.0,16151.0
2026-05-06 16:16:54.845186,711631,1609506478259622,4078170902,0.81008,-0.00976,0.698816,82.6,90.81625,-45.12375,-46.016003,-13.776001,-72.496,inter_set_rest,6,5.0,37080.0,38920.0,87076.0,99677.0,34745.0,46669.0,37745.0,57322.0,23096.0,16151.0
2026-05-06 16:16:54.847628,711632,1609506478274241,4078185902,0.759328,-0.00976,0.591456,75.29375,95.22625,-50.12,-46.144,-14.984001,-70.200005,inter_set_rest,6,5.0,37080.0,38920.0,87076.0,99677.0,34745.0,46669.0,37745.0,57322.0,23096.0,16151.0
2026-05-06 16:16:54.849842,711633,1609506478283159,4078194671,0.759328,-0.00976,0.591456,70.79625,100.45,-54.5475,-46.144,-14.984001,-70.200005,inter_set_rest,6,5.0,37080.0,38920.0,87076.0,99677.0,34745.0,46669.0,37745.0,57322.0,23096.0,16151.0
2026-05-06 16:16:54.890467,711634,1609506478297684,4078209598,0.704672,0.072224,0.685152,79.28375,102.445,-55.2475,-47.000004,-14.984001,-68.928,inter_set_rest,6,5.0,37080.0,38920.0,87076.0,99677.0,34745.0,46669.0,37745.0,57322.0,23096.0,16151.0
2026-05-06 16:16:54.912372,711635,1609506478306570,4078218318,0.704672,0.072224,0.685152,90.76375,103.01375,-51.695,-47.000004,-14.984001,-68.928,inter_set_rest,6,5.0,37080.0,38920.0,87076.0,99677.0,34745.0,46669.0,37745.0,57322.0,23096.0,16151.0
2026-05-06 16:16:54.914930,711636,1609506478321050,4078233213,0.640256,0.111264,0.661728,90.25625,105.945,-47.78375,-46.656002,-15.504001,-67.4,inter_set_rest,6,5.0,37080.0,38920.0,87076.0,99677.0,34745.0,46669.0,37745.0,57322.0,23096.0,16151.0
2026-05-06 16:16:54.945020,711647,1609506478330468,4078242008,0.640256,0.111264,0.661728,82.66125,109.45375,-45.77125,-46.656002,-15.504001,-67.4,inter_set_rest,6,5.0,38632.0,39781.0,86929.0,107850.0,36621.0,47723.0,37712.0,62293.0,24307.0,16684.0
2026-05-06 16:16:54.947442,711648,1609506478339434,4078250711,0.589504,0.206912,0.696864,71.77625,113.28625,-47.81875,-46.928,-16.496,-66.832,inter_set_rest,6,5.0,38632.0,39781.0,86929.0,107850.0,36621.0,47723.0,37712.0,62293.0,24307.0,16684.0
2026-05-06 16:16:54.950066,711649,1609506478353919,4078265612,0.52704,0.267424,0.54656,69.746254,114.24,-50.732502,-47.256,-17.0,-64.424,inter_set_rest,6,5.0,38632.0,39781.0,86929.0,107850.0,36621.0,47723.0,37712.0,62293.0,24307.0,16684.0
2026-05-06 16:16:54.952650,711650,1609506478362961,4078274448,0.52704,0.267424,0.54656,79.975,113.89875,-55.01125,-47.256,-17.0,-64.424,inter_set_rest,6,5.0,38632.0,39781.0,86929.0,107850.0,36621.0,47723.0,37712.0,62293.0,24307.0,16684.0
2026-05-06 16:16:54.955144,711651,1609506478377511,4078289489,0.484096,0.218624,0.708576,92.35625,113.77625,-58.8525,-47.432003,-19.536001,-61.896004,inter_set_rest,6,5.0,38632.0,39781.0,86929.0,107850.0,36621.0,47723.0,37712.0,62293.0,24307.0,16684.0
2026-05-06 16:16:54.957633,711652,1609506478386493,4078298233,0.484096,0.218624,0.708576,90.72875,115.85,-59.54375,-47.432003,-19.536001,-61.896004,inter_set_rest,6,5.0,38632.0,39781.0,86929.0,107850.0,36621.0,47723.0,37712.0,62293.0,24307.0,16684.0
2026-05-06 16:16:54.960079,711653,1609506478395542,4078307053,0.411872,0.269376,0.6832,78.33875,118.195,-57.26875,-47.2,-20.472,-60.040005,inter_set_rest,6,5.0,38632.0,39781.0,86929.0,107850.0,36621.0,47723.0,37712.0,62293.0,24307.0,16684.0
2026-05-06 16:16:54.972630,711654,1609506478410162,4078321975,0.411872,0.269376,0.6832,66.675,118.8075,-57.785,-47.2,-20.472,-60.040005,inter_set_rest,6,5.0,38632.0,39781.0,86929.0,107850.0,36621.0,47723.0,37712.0,62293.0,24307.0,16684.0
2026-05-06 16:16:54.978922,711655,1609506478419217,4078330748,0.353312,0.476288,0.638304,70.7,115.36,-60.34875,-46.744003,-19.320002,-59.712,inter_set_rest,6,5.0,38632.0,39781.0,86929.0,107850.0,36621.0,47723.0,37712.0,62293.0,24307.0,16684.0
2026-05-06 16:16:55.015102,711666,1609506478433748,4078345708,0.349408,0.327936,0.61488,93.4675,111.11625,-61.32,-46.688004,-22.544,-59.584003,inter_set_rest,6,5.0,41960.0,40640.0,87081.0,114553.0,40398.0,48791.0,37818.0,65486.0,26929.0,17182.0
2026-05-06 16:16:55.017639,711667,1609506478442716,4078354601,0.349408,0.327936,0.61488,106.33875,111.8075,-62.50125,-46.688004,-22.544,-59.584003,inter_set_rest,6,5.0,41960.0,40640.0,87081.0,114553.0,40398.0,48791.0,37818.0,65486.0,26929.0,17182.0
2026-05-06 16:16:55.020131,711668,1609506478457173,4078369527,0.308416,0.41968,0.86864,82.36375,118.090004,-64.995,-46.072002,-24.864,-54.728004,inter_set_rest,6,5.0,41960.0,40640.0,87081.0,114553.0,40398.0,48791.0,37818.0,65486.0,26929.0,17182.0
2026-05-06 16:16:55.028857,711669,1609506478466379,4078378344,0.308416,0.41968,0.86864,55.95625,123.26125,-62.3875,-46.072002,-24.864,-54.728004,inter_set_rest,6,5.0,41960.0,40640.0,87081.0,114553.0,40398.0,48791.0,37818.0,65486.0,26929.0,17182.0
2026-05-06 16:16:55.037636,711670,1609506478475434,4078387136,0.193248,0.587552,0.782752,66.42125,119.95375,-57.3475,-45.608,-23.032001,-55.72,inter_set_rest,6,5.0,41960.0,40640.0,87081.0,114553.0,40398.0,48791.0,37818.0,65486.0,26929.0,17182.0
2026-05-06 16:16:55.051446,711671,1609506478489957,4078402134,0.193248,0.587552,0.782752,82.95,113.30375,-57.67125,-45.608,-23.032001,-55.72,inter_set_rest,6,5.0,41960.0,40640.0,87081.0,114553.0,40398.0,48791.0,37818.0,65486.0,26929.0,17182.0
2026-05-06 16:16:55.060204,711672,1609506478498934,4078410880,0.244,0.51728,0.54656,91.37625,114.79125,-57.9425,-45.256,-24.160002,-51.4,inter_set_rest,6,5.0,41960.0,40640.0,87081.0,114553.0,40398.0,48791.0,37818.0,65486.0,26929.0,17182.0
2026-05-06 16:16:55.083993,711673,1609506478513449,4078425814,0.210816,0.523136,0.874496,83.60625,121.590004,-57.74125,-44.024002,-26.312002,-50.808002,inter_set_rest,6,5.0,41960.0,40640.0,87081.0,114553.0,40398.0,48791.0,37818.0,65486.0,26929.0,17182.0
2026-05-06 16:16:55.086231,711674,1609506478522391,4078434660,0.210816,0.523136,0.874496,43.9075,129.2375,-60.76875,-44.024002,-26.312002,-50.808002,inter_set_rest,6,5.0,41960.0,40640.0,87081.0,114553.0,40398.0,48791.0,37818.0,65486.0,26929.0,17182.0
2026-05-06 16:16:55.113658,711685,1609506478531518,4078443465,0.210816,0.523136,0.874496,32.90875,128.2575,-59.75375,-44.024002,-26.312002,-50.808002,inter_set_rest,6,5.0,46158.0,42082.0,87235.0,124129.0,44681.0,50867.0,37920.0,70163.0,29881.0,18120.0
2026-05-06 16:16:55.116064,711686,1609506478546187,4078458497,0.060512,0.61488,0.853024,61.11,115.98125,-57.00625,-43.896004,-27.832,-49.536003,inter_set_rest,6,5.0,46158.0,42082.0,87235.0,124129.0,44681.0,50867.0,37920.0,70163.0,29881.0,18120.0
2026-05-06 16:16:55.118899,711687,1609506478555128,4078467272,0.091744,0.685152,0.528992,74.73375,105.58625,-55.43125,-43.272003,-28.632002,-48.848003,inter_set_rest,6,5.0,46158.0,42082.0,87235.0,124129.0,44681.0,50867.0,37920.0,70163.0,29881.0,18120.0
2026-05-06 16:16:55.140105,711688,1609506478569682,4078482205,0.091744,0.685152,0.528992,86.065,104.37875,-51.47625,-43.272003,-28.632002,-48.848003,inter_set_rest,6,5.0,46158.0,42082.0,87235.0,124129.0,44681.0,50867.0,37920.0,70163.0,29881.0,18120.0
2026-05-06 16:16:55.142677,711689,1609506478578750,4078490958,0.10736,0.513376,0.86864,88.2875,108.29,-51.2225,-42.272003,-28.328001,-48.832,inter_set_rest,6,5.0,46158.0,42082.0,87235.0,124129.0,44681.0,50867.0,37920.0,70163.0,29881.0,18120.0
2026-05-06 16:16:55.148737,711690,1609506478587798,4078499663,0.10736,0.513376,0.86864,46.6725,112.56875,-57.81125,-42.272003,-28.328001,-48.832,inter_set_rest,6,5.0,46158.0,42082.0,87235.0,124129.0,44681.0,50867.0,37920.0,70163.0,29881.0,18120.0
2026-05-06 16:16:55.182524,711691,1609506478602318,4078514584,-0.023424,0.749568,0.81008,23.415,110.78375,-59.45625,-41.616,-30.352001,-47.536003,inter_set_rest,6,5.0,46158.0,42082.0,87235.0,124129.0,44681.0,50867.0,37920.0,70163.0,29881.0,18120.0
2026-05-06 16:16:55.185005,711692,1609506478611272,4078523289,-0.023424,0.749568,0.81008,52.03625,97.02875,-52.82375,-41.616,-30.352001,-47.536003,inter_set_rest,6,5.0,46158.0,42082.0,87235.0,124129.0,44681.0,50867.0,37920.0,70163.0,29881.0,18120.0
2026-05-06 16:16:55.187504,711693,1609506478625800,4078538261,-0.054656,0.890112,0.83936,75.46875,85.42625,-46.52375,-40.752003,-30.080002,-47.464,inter_set_rest,6,5.0,46158.0,42082.0,87235.0,124129.0,44681.0,50867.0,37920.0,70163.0,29881.0,18120.0
2026-05-06 16:16:55.217686,711704,1609506478634810,4078547070,-0.003904,0.665632,0.862784,68.18,89.08375,-42.98,-39.56,-31.28,-46.048,inter_set_rest,6,5.0,49460.0,43463.0,87909.0,133284.0,47987.0,52967.0,38180.0,76180.0,32057.0,19117.0
2026-05-06 16:16:55.220146,711705,1609506478649367,4078562077,-0.003904,0.665632,0.862784,49.91,96.76625,-43.40875,-39.56,-31.28,-46.048,inter_set_rest,6,5.0,49460.0,43463.0,87909.0,133284.0,47987.0,52967.0,38180.0,76180.0,32057.0,19117.0
2026-05-06 16:16:55.222732,711706,1609506478658316,4078570821,-0.05856,0.607072,0.905728,12.3025,105.28,-48.8775,-38.904003,-31.520002,-43.664,inter_set_rest,6,5.0,49460.0,43463.0,87909.0,133284.0,47987.0,52967.0,38180.0,76180.0,32057.0,19117.0
2026-05-06 16:16:55.249972,711707,1609506478667255,4078579535,-0.05856,0.607072,0.905728,-1.61875,109.1475,-47.5125,-38.904003,-31.520002,-43.664,inter_set_rest,6,5.0,49460.0,43463.0,87909.0,133284.0,47987.0,52967.0,38180.0,76180.0,32057.0,19117.0
2026-05-06 16:16:55.274959,711708,1609506478681889,4078594469,-0.152256,0.841312,1.042368,18.24375,99.67125,-36.77625,-38.288002,-32.272003,-44.24,inter_set_rest,6,5.0,49460.0,43463.0,87909.0,133284.0,47987.0,52967.0,38180.0,76180.0,32057.0,19117.0
2026-05-06 16:16:55.300168,711709,1609506478690827,4078603210,-0.152256,0.841312,1.042368,39.48,87.955,-24.9725,-38.288002,-32.272003,-44.24,inter_set_rest,6,5.0,49460.0,43463.0,87909.0,133284.0,47987.0,52967.0,38180.0,76180.0,32057.0,19117.0
2026-05-06 16:16:55.302659,711710,1609506478705323,4078616082,-0.074176,0.726144,0.521184,55.72,85.8375,-18.90875,-37.168003,-32.632,-43.128002,inter_set_rest,6,5.0,49460.0,43463.0,87909.0,133284.0,47987.0,52967.0,38180.0,76180.0,32057.0,19117.0
2026-05-06 16:16:55.305178,711711,1609506478714548,4078627014,-0.081984,0.642208,0.913536,40.845,91.245,-23.26625,-36.600002,-33.120003,-41.4,inter_set_rest,6,5.0,49460.0,43463.0,87909.0,133284.0,47987.0,52967.0,38180.0,76180.0,32057.0,19117.0
2026-05-06 16:16:55.337636,711723,1609506478729377,4078642146,-0.081984,0.642208,0.913536,-2.4325,102.76,-31.4125,-36.600002,-33.120003,-41.4,inter_set_rest,6,5.0,49613.0,43995.0,88206.0,130489.0,47975.0,53764.0,38341.0,74128.0,31973.0,19321.0
2026-05-06 16:16:55.340150,711724,1609506478738382,4078650985,-0.218624,0.833504,1.016992,-9.6775,104.57125,-25.17375,-35.632,-33.544003,-41.264004,inter_set_rest,6,5.0,49613.0,43995.0,88206.0,130489.0,47975.0,53764.0,38341.0,74128.0,31973.0,19321.0
2026-05-06 16:16:55.346722,711725,1609506478747347,4078659732,-0.218624,0.833504,1.016992,14.8575,96.27625,-11.305,-35.632,-33.544003,-41.264004,inter_set_rest,6,5.0,49613.0,43995.0,88206.0,130489.0,47975.0,53764.0,38341.0,74128.0,31973.0,19321.0
2026-05-06 16:16:55.346971,711726,1609506478761883,4078672674,-0.242048,0.944768,0.655872,32.4625,82.3375,-2.5025,-35.512,-37.36,-37.800003,inter_set_rest,6,5.0,49613.0,43995.0,88206.0,130489.0,47975.0,53764.0,38341.0,74128.0,31973.0,19321.0
2026-05-06 16:16:55.347334,711727,1609506478771283,4078683461,-0.242048,0.944768,0.655872,42.3675,76.02,0.23625,-35.512,-37.36,-37.800003,inter_set_rest,6,5.0,49613.0,43995.0,88206.0,130489.0,47975.0,53764.0,38341.0,74128.0,31973.0,19321.0
2026-05-06 16:16:55.349877,711728,1609506478780301,4078692178,-0.134688,0.630496,0.573888,24.4475,80.325,-3.185,-34.448,-37.0,-37.448,inter_set_rest,6,5.0,49613.0,43995.0,88206.0,130489.0,47975.0,53764.0,38341.0,74128.0,31973.0,19321.0
2026-05-06 16:16:55.356177,711729,1609506478794839,4078707149,-0.257664,0.776896,1.192672,-18.40125,90.27375,-12.9325,-34.448,-35.032,-38.192,inter_set_rest,6,5.0,49613.0,43995.0,88206.0,130489.0,47975.0,53764.0,38341.0,74128.0,31973.0,19321.0
2026-05-06 16:16:55.364977,711730,1609506478803746,4078715858,-0.257664,0.776896,1.192672,-38.885,87.71,-9.4675,-33.488003,-35.032,-38.192,inter_set_rest,6,5.0,49613.0,43995.0,88206.0,130489.0,47975.0,53764.0,38341.0,74128.0,31973.0,19321.0
2026-05-06 16:16:55.389852,711731,1609506478818292,4078730853,-0.359168,1.052128,1.075552,-19.04,72.808754,11.0075,-33.36,-33.064003,-37.888,inter_set_rest,6,5.0,49613.0,43995.0,88206.0,130489.0,47975.0,53764.0,38341.0,74128.0,31973.0,19321.0
2026-05-06 16:16:55.392634,711732,1609506478827200,4078739577,-0.359168,1.052128,1.075552,5.78375,54.3025,27.37875,-33.36,-33.064003,-37.888,inter_set_rest,6,5.0,49613.0,43995.0,88206.0,130489.0,47975.0,53764.0,38341.0,74128.0,31973.0,19321.0
2026-05-06 16:16:55.445049,711743,1609506478841973,4078754580,-0.281088,1.065792,0.77104,6.04625,38.92875,30.66875,-33.480003,-32.648003,-37.120003,inter_set_rest,6,5.0,52071.0,45545.0,88965.0,136081.0,50228.0,55467.0,38638.0,77322.0,33302.0,20086.0
2026-05-06 16:16:55.448671,711744,1609506478851115,4078763369,-0.281088,1.065792,0.77104,-1.51375,33.8975,31.99,-33.480003,-32.648003,-37.120003,inter_set_rest,6,5.0,52071.0,45545.0,88965.0,136081.0,50228.0,55467.0,38638.0,77322.0,33302.0,20086.0
2026-05-06 16:16:55.451484,711745,1609506478860255,4078772104,-0.201056,0.884256,0.281088,-29.09375,38.6925,27.9475,-32.800003,-33.352,-34.864002,inter_set_rest,6,5.0,52071.0,45545.0,88965.0,136081.0,50228.0,55467.0,38638.0,77322.0,33302.0,20086.0
2026-05-06 16:16:55.452565,711746,1609506478874765,4078787074,-0.201056,0.884256,0.599264,-88.29625,57.28625,16.0825,-32.800003,-33.352,-34.864002,inter_set_rest,6,5.0,52071.0,45545.0,88965.0,136081.0,50228.0,55467.0,38638.0,77322.0,33302.0,20086.0
2026-05-06 16:16:55.454682,711747,1609506478883669,4078795785,-0.27328,0.564128,0.599264,-205.35374,64.40875,5.48625,-32.024002,-28.848001,-33.536003,inter_set_rest,6,5.0,52071.0,45545.0,88965.0,136081.0,50228.0,55467.0,38638.0,77322.0,33302.0,20086.0
2026-05-06 16:16:55.461088,711748,1609506478898213,4078810741,-0.284992,0.343552,0.931104,-225.4,77.11375,20.615,-31.560001,-26.352001,-32.616,inter_set_rest,6,5.0,52071.0,45545.0,88965.0,136081.0,50228.0,55467.0,38638.0,77322.0,33302.0,20086.0
2026-05-06 16:16:55.470116,711749,1609506478907128,4078819475,-0.284992,0.343552,0.931104,-200.57625,49.70875,28.7875,-31.560001,-26.352001,-32.616,inter_set_rest,6,5.0,52071.0,45545.0,88965.0,136081.0,50228.0,55467.0,38638.0,77322.0,33302.0,20086.0
2026-05-06 16:16:55.476361,711750,1609506478916053,4078828220,-0.199104,0.579744,0.257664,-150.59625,47.9675,37.388752,-30.800001,-24.744001,-30.144001,inter_set_rest,6,5.0,52071.0,45545.0,88965.0,136081.0,50228.0,55467.0,38638.0,77322.0,33302.0,20086.0
2026-05-06 16:16:55.518984,711761,1609506478930606,4078843284,-0.199104,0.579744,0.257664,-107.33625,49.44625,36.12,-30.800001,-24.744001,-30.144001,inter_set_rest,6,5.0,45867.0,44355.0,83310.0,102628.0,45557.0,54962.0,36092.0,59196.0,31018.0,19623.0
2026-05-06 16:16:55.521410,711762,1609506478939617,4078852064,-0.259616,0.325984,0.3904,-151.3225,83.51,34.22125,-29.664001,-21.984001,-29.864002,inter_set_rest,6,5.0,45867.0,44355.0,83310.0,102628.0,45557.0,54962.0,36092.0,59196.0,31018.0,19623.0
2026-05-06 16:16:55.523975,711763,1609506478954144,4078864969,-0.259616,0.325984,0.3904,-201.1975,89.1625,17.4475,-29.664001,-21.984001,-29.864002,inter_set_rest,6,5.0,45867.0,44355.0,83310.0,102628.0,45557.0,54962.0,36092.0,59196.0,31018.0,19623.0
2026-05-06 16:16:55.526464,711764,1609506478963441,4078876117,-0.495808,0.15616,0.872544,-197.435,88.777504,3.43875,-28.624,-23.320002,-26.400002,inter_set_rest,6,5.0,45867.0,44355.0,83310.0,102628.0,45557.0,54962.0,36092.0,59196.0,31018.0,19623.0
2026-05-06 16:16:55.541875,711765,1609506478977927,4078889033,-0.562176,0.26352,1.007232,-129.885,85.505,-2.19625,-27.808,-19.880001,-29.896002,inter_set_rest,6,5.0,45867.0,44355.0,83310.0,102628.0,45557.0,54962.0,36092.0,59196.0,31018.0,19623.0
2026-05-06 16:16:55.548799,711766,1609506478987478,4078899842,-0.562176,0.26352,1.007232,-41.01125,68.66125,4.585,-27.808,-19.880001,-29.896002,inter_set_rest,6,5.0,45867.0,44355.0,83310.0,102628.0,45557.0,54962.0,36092.0,59196.0,31018.0,19623.0
2026-05-06 16:16:55.557499,711767,1609506478996413,4078908565,-0.288896,0.64416,0.187392,33.50375,54.66125,21.69125,-27.808,-21.232,-26.416,inter_set_rest,6,5.0,45867.0,44355.0,83310.0,102628.0,45557.0,54962.0,36092.0,59196.0,31018.0,19623.0
2026-05-06 16:16:55.591378,711768,1609506479010965,4078923637,-0.288896,0.64416,0.187392,35.7525,68.95875,33.075,-26.840002,-21.232,-26.416,inter_set_rest,6,5.0,45867.0,44355.0,83310.0,102628.0,45557.0,54962.0,36092.0,59196.0,31018.0,19623.0
2026-05-06 16:16:55.616435,711769,1609506479019913,4078932345,-0.466528,0.339648,0.620736,-56.91875,86.9925,22.21625,-25.288002,-17.424002,-26.000002,inter_set_rest,6,5.0,45867.0,44355.0,83310.0,102628.0,45557.0,54962.0,36092.0,59196.0,31018.0,19623.0
2026-05-06 16:16:55.686372,711780,1609506479034535,4078945931,-0.466528,0.339648,0.620736,-170.77376,92.496254,3.15,-25.288002,-17.424002,-26.000002,inter_set_rest,6,5.0,38053.0,38246.0,79499.0,84216.0,37278.0,48450.0,34334.0,48879.0,25692.0,16703.0
2026-05-06 16:16:55.688948,711781,1609506479043498,4078954714,-0.772992,0.163968,0.923296,-220.3425,85.68875,-1.61,-23.896002,-15.040001,-25.2,inter_set_rest,6,5.0,38053.0,38246.0,79499.0,84216.0,37278.0,48450.0,34334.0,48879.0,25692.0,16703.0
2026-05-06 16:16:55.691409,711782,1609506479052429,4078963444,-0.772992,0.163968,0.923296,-144.20876,65.66875,-0.98875,-23.896002,-15.040001,-25.2,inter_set_rest,6,5.0,38053.0,38246.0,79499.0,84216.0,37278.0,48450.0,34334.0,48879.0,25692.0,16703.0
2026-05-06 16:16:55.693998,711783,1609506479067279,4078978369,-0.607072,0.142496,0.84912,-69.527504,39.655,5.425,-23.288002,-12.664001,-24.656002,inter_set_rest,6,5.0,38053.0,38246.0,79499.0,84216.0,37278.0,48450.0,34334.0,48879.0,25692.0,16703.0
2026-05-06 16:16:55.696411,711784,1609506479076539,4078989175,-0.607072,0.450912,1.085312,-154.0,52.15,38.99875,-23.288002,-12.664001,-24.656002,inter_set_rest,6,5.0,38053.0,38246.0,79499.0,84216.0,37278.0,48450.0,34334.0,48879.0,25692.0,16703.0
2026-05-06 16:16:55.702484,711785,1609506479091126,4079002068,-0.568032,0.450912,1.085312,-14.1925,19.8275,-9.511251,-23.528002,-12.832001,-24.272001,inter_set_rest,6,5.0,38053.0,38246.0,79499.0,84216.0,37278.0,48450.0,34334.0,48879.0,25692.0,16703.0
2026-05-06 16:16:55.705167,711786,1609506479100503,4079012827,-0.655872,0.101504,0.743712,-31.2025,14.81375,-40.20625,-22.976002,-12.336,-24.544,inter_set_rest,6,5.0,38053.0,38246.0,79499.0,84216.0,37278.0,48450.0,34334.0,48879.0,25692.0,16703.0
2026-05-06 16:16:55.707688,711787,1609506479109642,4079021569,-0.655872,0.101504,0.743712,-110.97625,35.55125,1.46125,-22.976002,-12.336,-24.544,inter_set_rest,6,5.0,38053.0,38246.0,79499.0,84216.0,37278.0,48450.0,34334.0,48879.0,25692.0,16703.0
2026-05-06 16:16:55.710197,711788,1609506479124330,4079036596,-0.47824,-0.300608,0.9272,53.9175,-9.7475,-26.460001,-22.632002,-11.272,-24.088001,inter_set_rest,6,5.0,38053.0,38246.0,79499.0,84216.0,37278.0,48450.0,34334.0,48879.0,25692.0,16703.0
2026-05-06 16:16:55.737360,711799,1609506479133704,4079045450,-0.47824,-0.300608,0.9272,-22.37375,4.8825,-20.2825,-22.632002,-11.272,-24.088001,inter_set_rest,6,5.0,36607.0,36408.0,78120.0,79570.0,35386.0,46409.0,33633.0,45798.0,24276.0,15845.0
2026-05-06 16:16:55.739751,711800,1609506479142714,4079054227,-0.365024,0.36112,0.989664,21.1575,-9.948751,-17.1675,-23.016,-12.880001,-23.792002,inter_set_rest,6,5.0,36607.0,36408.0,78120.0,79570.0,35386.0,46409.0,33633.0,45798.0,24276.0,15845.0
2026-05-06 16:16:55.742303,711801,1609506479157443,4079069307,-0.484096,0.25376,1.05408,-6.125,-3.61375,-16.38,-23.016,-12.880001,-23.784,inter_set_rest,6,5.0,36607.0,36408.0,78120.0,79570.0,35386.0,46409.0,33633.0,45798.0,24276.0,15845.0
2026-05-06 16:16:55.751277,711802,1609506479166446,4079078153,-0.484096,0.25376,1.05408,-29.960001,-7.07875,-10.0275,-23.128,-14.152,-23.784,inter_set_rest,6,5.0,36607.0,36408.0,78120.0,79570.0,35386.0,46409.0,33633.0,45798.0,24276.0,15845.0
2026-05-06 16:16:55.752335,711803,1609506479181020,4079093198,-0.640256,0.259616,1.106784,-0.20125,-9.6425,-43.79375,-23.448002,-14.608001,-22.792002,inter_set_rest,6,5.0,36607.0,36408.0,78120.0,79570.0,35386.0,46409.0,33633.0,45798.0,24276.0,15845.0
2026-05-06 16:16:55.754994,711804,1609506479190007,4079101929,-0.640256,0.259616,1.106784,18.90875,-16.56375,-50.65375,-23.448002,-14.608001,-22.792002,inter_set_rest,6,5.0,36607.0,36408.0,78120.0,79570.0,35386.0,46409.0,33633.0,45798.0,24276.0,15845.0
2026-05-06 16:16:55.768844,711805,1609506479204499,4079116843,-0.618784,0.281088,0.905728,21.07875,-17.185,-33.99375,-23.512001,-13.464001,-24.504002,inter_set_rest,6,5.0,36607.0,36408.0,78120.0,79570.0,35386.0,46409.0,33633.0,45798.0,24276.0,15845.0
2026-05-06 16:16:55.775004,711806,1609506479213408,4079125612,-0.618784,0.281088,0.905728,36.28625,-25.55,-20.93875,-23.512001,-13.464001,-24.504002,inter_set_rest,6,5.0,36607.0,36408.0,78120.0,79570.0,35386.0,46409.0,33633.0,45798.0,24276.0,15845.0
2026-05-06 16:16:55.783976,711807,1609506479222351,4079134410,-0.542656,0.218624,0.83936,34.88625,-26.20625,-12.78375,-24.512001,-14.584001,-24.336,inter_set_rest,6,5.0,36607.0,36408.0,78120.0,79570.0,35386.0,46409.0,33633.0,45798.0,24276.0,15845.0
2026-05-06 16:16:55.827603,711818,1609506479237022,4079149491,-0.542656,0.218624,0.83936,49.1575,-28.9625,-18.655,-24.512001,-14.584001,-24.336,inter_set_rest,6,5.0,36827.0,36161.0,78021.0,78378.0,35336.0,45916.0,33515.0,44853.0,24144.0,15637.0
2026-05-06 16:16:55.830088,711819,1609506479246030,4079158284,-0.577792,0.308416,0.831552,64.58375,-27.67625,-18.68125,-24.52,-15.968,-23.640001,inter_set_rest,6,5.0,36827.0,36161.0,78021.0,78378.0,35336.0,45916.0,33515.0,44853.0,24144.0,15637.0
2026-05-06 16:16:55.832616,711820,1609506479260719,4079173192,-0.513376,0.37088,0.728096,78.0675,-25.41875,-12.0925,-25.376001,-16.832,-25.080002,inter_set_rest,6,5.0,36827.0,36161.0,78021.0,78378.0,35336.0,45916.0,33515.0,44853.0,24144.0,15637.0
2026-05-06 16:16:55.835076,711821,1609506479269818,4079181973,-0.513376,0.37088,0.728096,82.95875,-23.10875,-4.17375,-25.376001,-16.832,-25.080002,inter_set_rest,6,5.0,36827.0,36161.0,78021.0,78378.0,35336.0,45916.0,33515.0,44853.0,24144.0,15637.0
2026-05-06 16:16:55.841435,711822,1609506479278904,4079190689,-0.45872,0.421632,0.774944,75.99375,-19.36375,-8.5925,-25.472002,-17.864,-25.584002,inter_set_rest,6,5.0,36827.0,36161.0,78021.0,78378.0,35336.0,45916.0,33515.0,44853.0,24144.0,15637.0
2026-05-06 16:16:55.855177,711823,1609506479293481,4079205749,-0.45872,0.421632,0.774944,63.00875,-12.76625,-18.725,-25.472002,-17.864,-25.584002,inter_set_rest,6,5.0,36827.0,36161.0,78021.0,78378.0,35336.0,45916.0,33515.0,44853.0,24144.0,15637.0
2026-05-06 16:16:55.865213,711824,1609506479302464,4079214453,-0.538752,0.94672,0.940864,28.37625,-4.34875,-20.405,-25.384,-18.048,-25.400002,inter_set_rest,6,5.0,36827.0,36161.0,78021.0,78378.0,35336.0,45916.0,33515.0,44853.0,24144.0,15637.0
2026-05-06 16:16:55.878840,711825,1609506479316989,4079229494,-0.538752,0.94672,0.940864,-59.920002,7.25375,-29.88125,-25.384,-18.048,-25.400002,inter_set_rest,6,5.0,36827.0,36161.0,78021.0,78378.0,35336.0,45916.0,33515.0,44853.0,24144.0,15637.0
2026-05-06 16:16:55.887666,711826,1609506479325949,4079238193,-0.5856,0.298656,0.700768,38.2025,6.50125,13.51,-25.352001,-18.336,-27.920002,inter_set_rest,6,5.0,36827.0,36161.0,78021.0,78378.0,35336.0,45916.0,33515.0,44853.0,24144.0,15637.0
2026-05-06 16:16:55.921216,711837,1609506479340634,4079253216,-0.437248,0.675392,0.915488,36.61,3.1325,24.35125,-25.576002,-17.92,-27.080002,inter_set_rest,6,5.0,38484.0,38688.0,79214.0,85682.0,36817.0,48324.0,34131.0,48776.0,24960.0,16746.0
2026-05-06 16:16:55.923684,711838,1609506479349627,4079261999,-0.437248,0.675392,0.915488,-27.973751,2.4325,27.2475,-25.576002,-17.92,-27.080002,inter_set_rest,6,5.0,38484.0,38688.0,79214.0,85682.0,36817.0,48324.0,34131.0,48776.0,24960.0,16746.0
2026-05-06 16:16:55.929063,711839,1609506479358603,4079270724,-0.437248,0.320128,0.970144,-35.2975,4.45375,-7.5775,-25.576002,-17.92,-27.080002,inter_set_rest,6,5.0,38484.0,38688.0,79214.0,85682.0,36817.0,48324.0,34131.0,48776.0,24960.0,16746.0
2026-05-06 16:16:55.935020,711840,1609506479373127,4079285856,-0.392352,0.320128,0.970144,-40.90625,3.29,-13.011251,-25.504002,-17.304,-24.536001,inter_set_rest,6,5.0,38484.0,38688.0,79214.0,85682.0,36817.0,48324.0,34131.0,48776.0,24960.0,16746.0
2026-05-06 16:16:55.943872,711841,1609506479382063,4079294591,-0.447008,0.265472,1.022848,-34.06375,0.0,-1.91625,-25.424002,-17.624,-25.176,inter_set_rest,6,5.0,38484.0,38688.0,79214.0,85682.0,36817.0,48324.0,34131.0,48776.0,24960.0,16746.0
2026-05-06 16:16:55.983972,711842,1609506479396905,4079309538,-0.447008,0.265472,1.022848,6.7025,-1.89,-3.7275,-25.424002,-17.624,-25.176,inter_set_rest,6,5.0,38484.0,38688.0,79214.0,85682.0,36817.0,48324.0,34131.0,48776.0,24960.0,16746.0
2026-05-06 16:16:56.008839,711843,1609506479405845,4079318227,-0.534848,0.343552,0.83936,36.925,-4.0075,-8.18125,-25.720001,-18.928001,-24.720001,inter_set_rest,6,5.0,38484.0,38688.0,79214.0,85682.0,36817.0,48324.0,34131.0,48776.0,24960.0,16746.0
2026-05-06 16:16:56.033804,711844,1609506479414793,4079326959,-0.534848,0.343552,0.83936,49.525,-6.51875,-1.33875,-25.720001,-18.928001,-24.720001,inter_set_rest,6,5.0,38484.0,38688.0,79214.0,85682.0,36817.0,48324.0,34131.0,48776.0,24960.0,16746.0
2026-05-06 16:16:56.049881,711845,1609506479429282,4079341873,-0.437248,0.304512,0.679296,53.68125,-7.70875,6.71125,-25.68,-18.992,-25.776001,inter_set_rest,6,5.0,38484.0,38688.0,79214.0,85682.0,36817.0,48324.0,34131.0,48776.0,24960.0,16746.0
2026-05-06 16:16:56.102332,711856,1609506479438287,4079350738,-0.437248,0.304512,0.679296,35.13125,-2.47625,18.9875,-25.68,-18.992,-25.776001,inter_set_rest,6,5.0,38483.0,39169.0,79309.0,86721.0,36792.0,48809.0,34148.0,49267.0,24938.0,16936.0
2026-05-06 16:16:56.105085,711857,1609506479452824,4079363585,-0.359168,0.388448,0.821792,-0.48125,0.48125,22.47,-25.536001,-18.792002,-27.344002,inter_set_rest,6,5.0,38483.0,39169.0,79309.0,86721.0,36792.0,48809.0,34148.0,49267.0,24938.0,16936.0
2026-05-06 16:16:56.109534,711858,1609506479462196,4079374419,-0.503616,0.366976,0.925248,-22.00625,1.58375,13.02875,-25.976002,-17.784,-25.728,inter_set_rest,6,5.0,38483.0,39169.0,79309.0,86721.0,36792.0,48809.0,34148.0,49267.0,24938.0,16936.0
2026-05-06 16:16:56.110851,711859,1609506479471179,4079383114,-0.503616,0.366976,0.925248,-23.12625,-0.2975,-0.70875,-25.976002,-17.784,-25.728,inter_set_rest,6,5.0,38483.0,39169.0,79309.0,86721.0,36792.0,48809.0,34148.0,49267.0,24938.0,16936.0
2026-05-06 16:16:56.112193,711860,1609506479485683,4079398114,-0.562176,0.324032,0.856928,-9.58125,-3.70125,-7.5425,-25.688002,-18.608002,-24.864,inter_set_rest,6,5.0,38483.0,39169.0,79309.0,86721.0,36792.0,48809.0,34148.0,49267.0,24938.0,16936.0
2026-05-06 16:16:56.115014,711861,1609506479494608,4079407005,-0.562176,0.324032,0.856928,0.3675,-9.8,-5.04875,-25.688002,-18.608002,-24.864,inter_set_rest,6,5.0,38483.0,39169.0,79309.0,86721.0,36792.0,48809.0,34148.0,49267.0,24938.0,16936.0
2026-05-06 16:16:56.117481,711862,1609506479509115,4079419891,-0.4392,0.318176,0.796416,3.955,-13.3875,3.5175,-26.192001,-20.400002,-24.592001,inter_set_rest,6,5.0,38483.0,39169.0,79309.0,86721.0,36792.0,48809.0,34148.0,49267.0,24938.0,16936.0
2026-05-06 16:16:56.120002,711863,1609506479518366,4079430732,-0.4392,0.318176,0.796416,4.47125,-14.6475,7.455,-26.192001,-20.400002,-24.592001,inter_set_rest,6,5.0,38483.0,39169.0,79309.0,86721.0,36792.0,48809.0,34148.0,49267.0,24938.0,16936.0
2026-05-06 16:16:56.153659,711874,1609506479532921,4079445630,-0.372832,0.386496,0.808128,4.48875,-13.51875,5.7925,-26.288002,-18.0,-27.088001,inter_set_rest,6,5.0,37281.0,38089.0,79175.0,84952.0,35609.0,47717.0,34051.0,48464.0,24202.0,16469.0
2026-05-06 16:16:56.156271,711875,1609506479542911,4079454577,-0.462624,0.388448,0.726144,3.3775,-10.9725,-0.9975,-26.568,-19.664001,-25.768002,inter_set_rest,6,5.0,37281.0,38089.0,79175.0,84952.0,35609.0,47717.0,34051.0,48464.0,24202.0,16469.0
2026-05-06 16:16:56.158938,711876,1609506479552219,4079463387,-0.462624,0.388448,0.726144,3.92875,-6.20375,-4.36625,-26.568,-19.664001,-25.768002,inter_set_rest,6,5.0,37281.0,38089.0,79175.0,84952.0,35609.0,47717.0,34051.0,48464.0,24202.0,16469.0
2026-05-06 16:16:56.161180,711877,1609506479561970,4079474217,-0.464576,0.320128,0.8784,3.99,-5.6175,-8.417501,-26.544,-18.784,-24.824001,inter_set_rest,6,5.0,37281.0,38089.0,79175.0,84952.0,35609.0,47717.0,34051.0,48464.0,24202.0,16469.0
2026-05-06 16:16:56.163871,711878,1609506479576540,4079489174,-0.464576,0.320128,0.8784,5.6175,-8.05875,0.35875,-26.544,-18.784,-24.824001,inter_set_rest,6,5.0,37281.0,38089.0,79175.0,84952.0,35609.0,47717.0,34051.0,48464.0,24202.0,16469.0
2026-05-06 16:16:56.166323,711879,1609506479585584,4079497919,-0.427488,0.4392,0.86864,-1.505,-4.62875,13.93,-26.624,-22.12,-24.144001,inter_set_rest,6,5.0,37281.0,38089.0,79175.0,84952.0,35609.0,47717.0,34051.0,48464.0,24202.0,16469.0
2026-05-06 16:16:56.168923,711880,1609506479600189,4079512906,-0.427488,0.4392,0.86864,22.2425,-7.385,8.60125,-26.624,-22.12,-24.144001,inter_set_rest,6,5.0,37281.0,38089.0,79175.0,84952.0,35609.0,47717.0,34051.0,48464.0,24202.0,16469.0
2026-05-06 16:16:56.173939,711881,1609506479609300,4079521627,-0.347456,0.324032,0.870592,50.0675,-5.5125,5.20625,-26.888,-22.184002,-26.168001,inter_set_rest,6,5.0,37281.0,38089.0,79175.0,84952.0,35609.0,47717.0,34051.0,48464.0,24202.0,16469.0
2026-05-06 16:16:56.180145,711882,1609506479618269,4079530371,-0.347456,0.324032,0.870592,53.935,-5.83625,6.405,-26.888,-22.184002,-26.168001,inter_set_rest,6,5.0,37281.0,38089.0,79175.0,84952.0,35609.0,47717.0,34051.0,48464.0,24202.0,16469.0
2026-05-06 16:16:56.244002,711893,1609506479632913,4079545264,-0.333792,0.460672,0.833504,72.65125,-7.76125,12.62625,-27.016,-21.944,-25.608002,inter_set_rest,6,5.0,36667.0,38406.0,80682.0,82181.0,35102.0,48027.0,34794.0,46816.0,23799.0,16619.0
2026-05-06 16:16:56.246284,711894,1609506479641951,4079554009,-0.28304,0.462624,0.837408,67.22625,-5.76625,12.95875,-27.240002,-21.816002,-27.064001,inter_set_rest,6,5.0,36667.0,38406.0,80682.0,82181.0,35102.0,48027.0,34794.0,46816.0,23799.0,16619.0
2026-05-06 16:16:56.248999,711895,1609506479656432,4079568988,-0.28304,0.462624,0.837408,73.3075,-8.18125,-1.53125,-27.240002,-21.816002,-27.064001,inter_set_rest,6,5.0,36667.0,38406.0,80682.0,82181.0,35102.0,48027.0,34794.0,46816.0,23799.0,16619.0
2026-05-06 16:16:56.251483,711896,1609506479665380,4079577694,-0.189344,0.523136,0.905728,48.195,-8.505,3.5175,-27.384,-23.720001,-26.024002,inter_set_rest,6,5.0,36667.0,38406.0,80682.0,82181.0,35102.0,48027.0,34794.0,46816.0,23799.0,16619.0
2026-05-06 16:16:56.253915,711897,1609506479680053,4079592726,-0.189344,0.523136,0.905728,25.94375,-8.25125,3.535,-27.384,-23.720001,-26.024002,inter_set_rest,6,5.0,36667.0,38406.0,80682.0,82181.0,35102.0,48027.0,34794.0,46816.0,23799.0,16619.0
2026-05-06 16:16:56.256377,711898,1609506479688964,4079601473,-0.265472,0.415776,0.821792,22.2425,-8.61,2.9225,-27.744001,-24.288002,-27.824001,inter_set_rest,6,5.0,36667.0,38406.0,80682.0,82181.0,35102.0,48027.0,34794.0,46816.0,23799.0,16619.0
2026-05-06 16:16:56.258992,711899,1609506479698048,4079610228,-0.265472,0.415776,0.821792,15.00625,-9.0475,-5.0575,-27.744001,-24.288002,-27.824001,inter_set_rest,6,5.0,36667.0,38406.0,80682.0,82181.0,35102.0,48027.0,34794.0,46816.0,23799.0,16619.0
2026-05-06 16:16:56.292438,711900,1609506479712728,4079625194,-0.372832,0.509472,0.796416,24.4125,-9.79125,-18.585001,-27.584002,-23.384,-27.816002,inter_set_rest,6,5.0,36667.0,38406.0,80682.0,82181.0,35102.0,48027.0,34794.0,46816.0,23799.0,16619.0
2026-05-06 16:16:56.298359,711901,1609506479721691,4079633922,-0.486048,0.333792,0.726144,31.85,-7.93625,-25.8125,-27.584002,-23.384,-29.616001,inter_set_rest,6,5.0,36667.0,38406.0,80682.0,82181.0,35102.0,48027.0,34794.0,46816.0,23799.0,16619.0
2026-05-06 16:16:56.322536,711912,1609506479736251,4079648906,-0.486048,0.333792,0.726144,65.1875,-10.465,-49.90125,-27.912,-24.264002,-29.616001,inter_set_rest,6,5.0,37125.0,39363.0,82764.0,89662.0,35350.0,49038.0,35871.0,51284.0,23720.0,16949.0
2026-05-06 16:16:56.327551,711913,1609506479745272,4079657637,-0.491904,0.411872,0.72224,61.8275,-6.2475,-26.50375,-27.984001,-28.720001,-25.672,inter_set_rest,6,5.0,37125.0,39363.0,82764.0,89662.0,35350.0,49038.0,35871.0,51284.0,23720.0,16949.0
2026-05-06 16:16:56.352663,711914,1609506479754202,4079666663,-0.491904,0.411872,0.72224,56.90125,-6.55375,-16.86125,-27.984001,-28.720001,-25.672,inter_set_rest,6,5.0,37125.0,39363.0,82764.0,89662.0,35350.0,49038.0,35871.0,51284.0,23720.0,16949.0
2026-05-06 16:16:56.377683,711915,1609506479768683,4079679569,-0.41968,0.511424,0.769088,49.37625,-6.55375,-29.54875,-28.216002,-29.160002,-26.208002,inter_set_rest,6,5.0,37125.0,39363.0,82764.0,89662.0,35350.0,49038.0,35871.0,51284.0,23720.0,16949.0
2026-05-06 16:16:56.396491,711916,1609506479778035,4079690366,-0.41968,0.511424,0.769088,25.31375,-4.8475,-15.155,-28.216002,-29.160002,-26.208002,inter_set_rest,6,5.0,37125.0,39363.0,82764.0,89662.0,35350.0,49038.0,35871.0,51284.0,23720.0,16949.0
2026-05-06 16:16:56.396615,711917,1609506479792617,4079705282,-0.320128,0.538752,0.81984,-1.04125,-4.47125,-23.2925,-27.552002,-25.784,-28.648,inter_set_rest,6,5.0,37125.0,39363.0,82764.0,89662.0,35350.0,49038.0,35871.0,51284.0,23720.0,16949.0
2026-05-06 16:16:56.398822,711918,1609506479801761,4079714024,-0.320128,0.538752,0.81984,-13.8075,-3.87625,-31.9025,-27.552002,-25.784,-28.648,inter_set_rest,6,5.0,37125.0,39363.0,82764.0,89662.0,35350.0,49038.0,35871.0,51284.0,23720.0,16949.0
2026-05-06 16:16:56.401263,711919,1609506479810704,4079722737,-0.327936,0.484096,0.83936,-20.41375,-4.6375,-32.935,-27.328001,-25.576002,-29.36,inter_set_rest,6,5.0,37125.0,39363.0,82764.0,89662.0,35350.0,49038.0,35871.0,51284.0,23720.0,16949.0
2026-05-06 16:16:56.403850,711920,1609506479825208,4079737661,-0.476288,0.476288,0.776896,-16.98375,-4.4275,-29.88125,-27.584002,-25.720001,-28.672,inter_set_rest,6,5.0,37125.0,39363.0,82764.0,89662.0,35350.0,49038.0,35871.0,51284.0,23720.0,16949.0
2026-05-06 16:16:56.438889,711931,1609506479834100,4079746480,-0.476288,0.476288,0.776896,-2.91375,-4.62,-25.34875,-27.584002,-25.720001,-28.672,inter_set_rest,6,5.0,38249.0,40698.0,85599.0,97404.0,35949.0,50053.0,37337.0,55693.0,23758.0,17335.0
2026-05-06 16:16:56.441401,711932,1609506479848658,4079761422,-0.519232,0.519232,0.759328,8.12875,-4.52375,-20.69375,-27.624,-27.976002,-27.424002,inter_set_rest,6,5.0,38249.0,40698.0,85599.0,97404.0,35949.0,50053.0,37337.0,55693.0,23758.0,17335.0
2026-05-06 16:16:56.443923,711933,1609506479857651,4079770430,-0.519232,0.519232,0.759328,13.90375,-3.255,-15.33,-27.624,-27.976002,-27.424002,inter_set_rest,6,5.0,38249.0,40698.0,85599.0,97404.0,35949.0,50053.0,37337.0,55693.0,23758.0,17335.0
2026-05-06 16:16:56.452658,711934,1609506479872239,4079783302,-0.505568,0.59536,0.720288,15.86375,-1.5925,-10.0275,-27.44,-27.968,-27.648,inter_set_rest,6,5.0,38249.0,40698.0,85599.0,97404.0,35949.0,50053.0,37337.0,55693.0,23758.0,17335.0
2026-05-06 16:16:56.455119,711935,1609506479881678,4079794124,-0.505568,0.59536,0.720288,13.4225,0.07875,-7.07875,-27.44,-27.968,-27.648,inter_set_rest,6,5.0,38249.0,40698.0,85599.0,97404.0,35949.0,50053.0,37337.0,55693.0,23758.0,17335.0
2026-05-06 16:16:56.457619,711936,1609506479890820,4079802849,-0.456768,0.587552,0.753472,6.51875,1.855,-5.59125,-27.616001,-27.936,-27.616001,inter_set_rest,6,5.0,38249.0,40698.0,85599.0,97404.0,35949.0,50053.0,37337.0,55693.0,23758.0,17335.0
2026-05-06 16:16:56.473787,711937,1609506479905326,4079817793,-0.513376,0.511424,0.74176,-4.4975,4.55,-5.74875,-27.112001,-26.2,-28.696001,inter_set_rest,6,5.0,38249.0,40698.0,85599.0,97404.0,35949.0,50053.0,37337.0,55693.0,23758.0,17335.0
2026-05-06 16:16:56.481346,711938,1609506479914241,4079826635,-0.513376,0.511424,0.74176,-12.775,6.3175,-7.18375,-27.112001,-26.2,-28.696001,inter_set_rest,6,5.0,38249.0,40698.0,85599.0,97404.0,35949.0,50053.0,37337.0,55693.0,23758.0,17335.0
2026-05-06 16:16:56.492522,711939,1609506479928742,4079839525,-0.548512,0.431392,0.747616,-15.89,6.37,-9.4325,-27.528002,-29.608002,-27.304,inter_set_rest,6,5.0,38249.0,40698.0,85599.0,97404.0,35949.0,50053.0,37337.0,55693.0,23758.0,17335.0
2026-05-06 16:16:56.526426,711950,1609506479938449,4079850546,-0.548512,0.431392,0.747616,-11.05125,5.425,-10.605001,-27.528002,-29.608002,-27.304,inter_set_rest,6,5.0,38073.0,40995.0,86128.0,98388.0,35637.0,50242.0,37628.0,56155.0,23513.0,17432.0
2026-05-06 16:16:56.528967,711951,1609506479947535,4079859355,-0.482144,0.425536,0.716384,-5.565,4.7425,-9.68625,-27.328001,-27.136002,-28.432001,inter_set_rest,6,5.0,38073.0,40995.0,86128.0,98388.0,35637.0,50242.0,37628.0,56155.0,23513.0,17432.0
2026-05-06 16:16:56.531259,711952,1609506479962134,4079874326,-0.482144,0.425536,0.716384,1.81125,5.985,-7.28,-27.328001,-27.136002,-28.432001,inter_set_rest,6,5.0,38073.0,40995.0,86128.0,98388.0,35637.0,50242.0,37628.0,56155.0,23513.0,17432.0
2026-05-06 16:16:56.536398,711953,1609506479971136,4079883126,-0.394304,0.462624,0.753472,11.698751,6.11625,-6.335,-26.728,-28.496002,-27.616001,inter_set_rest,6,5.0,38073.0,40995.0,86128.0,98388.0,35637.0,50242.0,37628.0,56155.0,23513.0,17432.0
2026-05-06 16:16:56.550130,711954,1609506479985636,4079898079,-0.404064,0.521184,0.817888,17.17625,7.49875,-7.105,-26.712002,-28.176,-27.464,inter_set_rest,6,5.0,38073.0,40995.0,86128.0,98388.0,35637.0,50242.0,37628.0,56155.0,23513.0,17432.0
2026-05-06 16:16:56.557648,711955,1609506479994537,4079906738,-0.404064,0.521184,0.817888,17.45625,7.0875,-8.14625,-26.712002,-28.176,-27.464,inter_set_rest,6,5.0,38073.0,40995.0,86128.0,98388.0,35637.0,50242.0,37628.0,56155.0,23513.0,17432.0
2026-05-06 16:16:56.564436,711956,1609506480003487,4079915505,-0.404064,0.521184,0.853024,6.44875,7.175,-9.9925,-26.712002,-28.176,-27.464,inter_set_rest,6,5.0,38073.0,40995.0,86128.0,98388.0,35637.0,50242.0,37628.0,56155.0,23513.0,17432.0
2026-05-06 16:16:56.597461,711957,1609506480017996,4079930506,-0.365024,0.523136,0.853024,-1.9075,6.99125,-12.08375,-26.880001,-28.264002,-27.088001,inter_set_rest,6,5.0,38073.0,40995.0,86128.0,98388.0,35637.0,50242.0,37628.0,56155.0,23513.0,17432.0
2026-05-06 16:16:56.600044,711958,1609506480026961,4079939220,-0.327936,0.44896,0.85888,-5.39,4.865,-15.89,-26.560001,-26.928001,-28.736002,inter_set_rest,6,5.0,38073.0,40995.0,86128.0,98388.0,35637.0,50242.0,37628.0,56155.0,23513.0,17432.0
2026-05-06 16:16:56.633937,711969,1609506480041632,4079954142,-0.327936,0.44896,0.85888,-8.30375,3.99875,-21.21875,-26.560001,-26.928001,-28.736002,inter_set_rest,6,5.0,38212.0,41300.0,87193.0,98859.0,35641.0,50456.0,38150.0,56348.0,23507.0,17546.0
2026-05-06 16:16:56.636403,711970,1609506480050661,4079962985,-0.376736,0.515328,0.899872,-3.4825,-0.3675,-22.86375,-26.560001,-28.872002,-26.736002,inter_set_rest,6,5.0,38212.0,41300.0,87193.0,98859.0,35641.0,50456.0,38150.0,56348.0,23507.0,17546.0
2026-05-06 16:16:56.641452,711971,1609506480059681,4079971752,-0.376736,0.515328,0.899872,6.7025,-5.425,-19.43375,-26.560001,-28.872002,-26.736002,inter_set_rest,6,5.0,38212.0,41300.0,87193.0,98859.0,35641.0,50456.0,38150.0,56348.0,23507.0,17546.0
2026-05-06 16:16:56.643976,711972,1609506480074179,4079986881,-0.413824,0.59536,0.856928,13.877501,-7.74375,-13.37875,-26.672,-27.880001,-28.768002,inter_set_rest,6,5.0,38212.0,41300.0,87193.0,98859.0,35641.0,50456.0,38150.0,56348.0,23507.0,17546.0
2026-05-06 16:16:56.646323,711973,1609506480083331,4079995643,-0.413824,0.59536,0.856928,15.14625,-9.54625,-8.575,-26.672,-27.880001,-28.768002,inter_set_rest,6,5.0,38212.0,41300.0,87193.0,98859.0,35641.0,50456.0,38150.0,56348.0,23507.0,17546.0
2026-05-06 16:16:56.660142,711974,1609506480097831,4080010602,-0.40992,0.540704,0.716384,14.91875,-9.45,-7.91875,-26.384,-27.736002,-26.760002,inter_set_rest,6,5.0,38212.0,41300.0,87193.0,98859.0,35641.0,50456.0,38150.0,56348.0,23507.0,17546.0
2026-05-06 16:16:56.671207,711975,1609506480106751,4080019422,-0.382592,0.54656,0.720288,11.06,-7.5425,-6.20375,-26.680002,-28.048002,-29.008001,inter_set_rest,6,5.0,38212.0,41300.0,87193.0,98859.0,35641.0,50456.0,38150.0,56348.0,23507.0,17546.0
2026-05-06 16:16:56.685052,711976,1609506480121293,4080032249,-0.382592,0.54656,0.720288,2.58125,-6.8075,-2.21375,-26.680002,-28.048002,-29.008001,inter_set_rest,6,5.0,38212.0,41300.0,87193.0,98859.0,35641.0,50456.0,38150.0,56348.0,23507.0,17546.0
2026-05-06 16:16:56.693933,711977,1609506480130701,4080043054,-0.35136,0.579744,0.755424,-5.7225,-3.185,-1.54875,-26.864002,-27.904001,-28.952002,inter_set_rest,6,5.0,38212.0,41300.0,87193.0,98859.0,35641.0,50456.0,38150.0,56348.0,23507.0,17546.0
2026-05-06 16:16:56.812489,711988,1609506480140230,4080051897,-0.35136,0.579744,0.755424,-12.1625,0.6125,-2.86125,-26.864002,-27.904001,-28.952002,inter_set_rest,6,5.0,38538.0,41575.0,87972.0,99722.0,35827.0,50700.0,38531.0,56745.0,23593.0,17659.0
2026-05-06 16:16:56.815113,711989,1609506480154816,4080066960,-0.396256,0.568032,0.763232,-19.705,5.10125,-3.01875,-26.680002,-28.288002,-28.624,inter_set_rest,6,5.0,38538.0,41575.0,87972.0,99722.0,35827.0,50700.0,38531.0,56745.0,23593.0,17659.0
2026-05-06 16:16:56.817661,711990,1609506480163728,4080075672,-0.396256,0.568032,0.763232,-28.74375,9.9575,-4.4275,-26.680002,-28.288002,-28.624,inter_set_rest,6,5.0,38538.0,41575.0,87972.0,99722.0,35827.0,50700.0,38531.0,56745.0,23593.0,17659.0
2026-05-06 16:16:56.820161,711991,1609506480178250,4080090731,-0.437248,0.532896,0.853024,-32.78625,11.75125,-5.17125,-26.456001,-27.648,-29.552002,inter_set_rest,6,5.0,38538.0,41575.0,87972.0,99722.0,35827.0,50700.0,38531.0,56745.0,23593.0,17659.0
2026-05-06 16:16:56.825184,711992,1609506480187179,4080099433,-0.484096,0.55632,0.950624,-31.99875,11.13,-4.59375,-25.848001,-26.616001,-27.768002,inter_set_rest,6,5.0,38538.0,41575.0,87972.0,99722.0,35827.0,50700.0,38531.0,56745.0,23593.0,17659.0
2026-05-06 16:16:56.827649,711993,1609506480196126,4080108197,-0.484096,0.55632,0.950624,-28.93625,6.90375,-0.72625,-25.848001,-26.616001,-27.768002,inter_set_rest,6,5.0,38538.0,41575.0,87972.0,99722.0,35827.0,50700.0,38531.0,56745.0,23593.0,17659.0
2026-05-06 16:16:56.830074,711994,1609506480210622,4080123232,-0.45872,0.5856,0.851072,-24.98125,2.52,5.31125,-26.640001,-26.256,-27.992,inter_set_rest,6,5.0,38538.0,41575.0,87972.0,99722.0,35827.0,50700.0,38531.0,56745.0,23593.0,17659.0
2026-05-06 16:16:56.832679,711995,1609506480219516,4080131980,-0.45872,0.5856,0.851072,-26.6525,-0.945,11.17375,-26.640001,-26.256,-27.992,inter_set_rest,6,5.0,38538.0,41575.0,87972.0,99722.0,35827.0,50700.0,38531.0,56745.0,23593.0,17659.0
2026-05-06 16:16:56.835191,711996,1609506480234101,4080144972,-0.376736,0.51728,0.765184,-31.22875,-1.14625,13.46625,-26.632002,-25.52,-27.720001,inter_set_rest,6,5.0,38538.0,41575.0,87972.0,99722.0,35827.0,50700.0,38531.0,56745.0,23593.0,17659.0
2026-05-06 16:16:56.867452,712007,1609506480243743,4080155808,-0.376736,0.51728,0.765184,-33.005,-0.035,10.98125,-26.632002,-25.52,-27.720001,inter_set_rest,6,5.0,38164.0,41421.0,87393.0,99654.0,35375.0,50463.0,38253.0,56685.0,23241.0,17545.0
2026-05-06 16:16:56.870036,712008,1609506480252767,4080164566,-0.41968,0.44896,0.808128,-30.59,0.51625,9.730001,-26.840002,-25.36,-28.048002,inter_set_rest,6,5.0,38164.0,41421.0,87393.0,99654.0,35375.0,50463.0,38253.0,56685.0,23241.0,17545.0
2026-05-06 16:16:56.872490,712009,1609506480267312,4080179590,-0.528992,0.47824,0.929152,-30.00375,-0.53375,11.17375,-26.720001,-24.632002,-28.592001,inter_set_rest,6,5.0,38164.0,41421.0,87393.0,99654.0,35375.0,50463.0,38253.0,56685.0,23241.0,17545.0
2026-05-06 16:16:56.875042,712010,1609506480276381,4080188360,-0.528992,0.47824,0.929152,-33.915,-4.57625,12.355001,-26.720001,-24.632002,-28.592001,inter_set_rest,6,5.0,38164.0,41421.0,87393.0,99654.0,35375.0,50463.0,38253.0,56685.0,23241.0,17545.0
2026-05-06 16:16:56.877524,712011,1609506480290928,4080203392,-0.587552,0.42944,0.884256,-31.92,-11.78625,13.09,-27.160002,-24.192001,-27.976002,inter_set_rest,6,5.0,38164.0,41421.0,87393.0,99654.0,35375.0,50463.0,38253.0,56685.0,23241.0,17545.0
2026-05-06 16:16:56.880002,712012,1609506480299906,4080212143,-0.587552,0.42944,0.884256,-25.24375,-19.31125,11.17375,-27.160002,-24.192001,-27.976002,inter_set_rest,6,5.0,38164.0,41421.0,87393.0,99654.0,35375.0,50463.0,38253.0,56685.0,23241.0,17545.0
2026-05-06 16:16:56.882490,712013,1609506480308956,4080220949,-0.501664,0.421632,0.86864,-12.635,-25.41875,9.8,-27.656002,-25.68,-27.472002,inter_set_rest,6,5.0,38164.0,41421.0,87393.0,99654.0,35375.0,50463.0,38253.0,56685.0,23241.0,17545.0
2026-05-06 16:16:56.885050,712014,1609506480323588,4080236021,-0.501664,0.421632,0.86864,7.46375,-30.21375,13.3525,-27.656002,-25.68,-27.472002,inter_set_rest,6,5.0,38164.0,41421.0,87393.0,99654.0,35375.0,50463.0,38253.0,56685.0,23241.0,17545.0
2026-05-06 16:16:56.893892,712015,1609506480332594,4080244773,-0.355264,0.528992,0.935008,25.0425,-34.3175,20.25625,-28.712002,-26.416,-27.504002,inter_set_rest,6,5.0,38164.0,41421.0,87393.0,99654.0,35375.0,50463.0,38253.0,56685.0,23241.0,17545.0
2026-05-06 16:16:56.927654,712026,1609506480347637,4080259891,-0.374784,0.581696,0.958432,32.12125,-36.96,25.76,-28.984001,-27.000002,-28.840002,inter_set_rest,6,5.0,38947.0,42307.0,87525.0,100463.0,36233.0,51552.0,38387.0,56987.0,23536.0,17901.0
2026-05-06 16:16:56.930080,712027,1609506480356674,4080268699,-0.374784,0.581696,0.958432,30.94,-38.10625,26.7925,-28.984001,-27.000002,-28.840002,inter_set_rest,6,5.0,38947.0,42307.0,87525.0,100463.0,36233.0,51552.0,38387.0,56987.0,23536.0,17901.0
2026-05-06 16:16:56.932469,712028,1609506480365602,4080277436,-0.374784,0.581696,0.958432,19.81875,-41.763752,24.50875,-28.984001,-27.000002,-28.840002,inter_set_rest,6,5.0,38947.0,42307.0,87525.0,100463.0,36233.0,51552.0,38387.0,56987.0,23536.0,17901.0
2026-05-06 16:16:56.941150,712029,1609506480380153,4080292409,-0.427488,0.51728,1.013088,6.8775,-46.45375,22.11125,-30.304,-26.088001,-26.28,inter_set_rest,6,5.0,38947.0,42307.0,87525.0,100463.0,36233.0,51552.0,38387.0,56987.0,23536.0,17901.0
2026-05-06 16:16:56.949952,712030,1609506480389095,4080301128,-0.423584,0.435296,1.022848,1.6625,-52.9725,19.4075,-31.032001,-24.672,-30.128002,inter_set_rest,6,5.0,38947.0,42307.0,87525.0,100463.0,36233.0,51552.0,38387.0,56987.0,23536.0,17901.0
2026-05-06 16:16:56.973828,712031,1609506480403710,4080316114,-0.423584,0.435296,1.022848,5.2675,-60.68125,16.9575,-31.032001,-24.672,-30.128002,inter_set_rest,6,5.0,38947.0,42307.0,87525.0,100463.0,36233.0,51552.0,38387.0,56987.0,23536.0,17901.0
2026-05-06 16:16:56.976401,712032,1609506480412669,4080324813,-0.372832,0.423584,0.933056,18.12125,-67.38375,18.78625,-32.336002,-24.640001,-31.272001,inter_set_rest,6,5.0,38947.0,42307.0,87525.0,100463.0,36233.0,51552.0,38387.0,56987.0,23536.0,17901.0
2026-05-06 16:16:56.990067,712033,1609506480427180,4080339678,-0.294752,0.45872,0.813984,30.135,-71.26,23.695,-32.336002,-24.632002,-31.680002,inter_set_rest,6,5.0,38947.0,42307.0,87525.0,100463.0,36233.0,51552.0,38387.0,56987.0,23536.0,17901.0
2026-05-06 16:16:56.998940,712034,1609506480436094,4080348406,-0.294752,0.45872,0.813984,34.72,-72.21375,27.475,-33.280003,-24.632002,-31.680002,inter_set_rest,6,5.0,38947.0,42307.0,87525.0,100463.0,36233.0,51552.0,38387.0,56987.0,23536.0,17901.0
2026-05-06 16:16:57.026261,712045,1609506480445139,4080357166,-0.294752,0.45872,0.813984,33.85375,-70.41125,26.99375,-33.280003,-24.632002,-31.680002,inter_set_rest,6,5.0,41540.0,45031.0,88101.0,105541.0,38447.0,54297.0,38753.0,59397.0,24603.0,18966.0
2026-05-06 16:16:57.028606,712046,1609506480459667,4080372086,-0.240096,0.466528,0.833504,27.72875,-67.06875,22.995,-34.320004,-24.720001,-32.544003,inter_set_rest,6,5.0,41540.0,45031.0,88101.0,105541.0,38447.0,54297.0,38753.0,59397.0,24603.0,18966.0
2026-05-06 16:16:57.030884,712047,1609506480468592,4080380804,-0.247904,0.486048,0.862784,20.0025,-63.51625,18.99625,-35.072002,-25.912,-32.744003,inter_set_rest,6,5.0,41540.0,45031.0,88101.0,105541.0,38447.0,54297.0,38753.0,59397.0,24603.0,18966.0
2026-05-06 16:16:57.045548,712048,1609506480483332,4080395780,-0.247904,0.486048,0.862784,16.1175,-59.5175,18.41875,-35.072002,-25.912,-32.744003,inter_set_rest,6,5.0,41540.0,45031.0,88101.0,105541.0,38447.0,54297.0,38753.0,59397.0,24603.0,18966.0
2026-05-06 16:16:57.054925,712049,1609506480492305,4080404502,-0.281088,0.55632,0.884256,11.62,-57.40875,23.24,-35.904003,-24.856,-34.152,inter_set_rest,6,5.0,41540.0,45031.0,88101.0,105541.0,38447.0,54297.0,38753.0,59397.0,24603.0,18966.0
2026-05-06 16:16:57.088885,712050,1609506480507087,4080419828,-0.281088,0.55632,0.884256,11.1475,-56.90125,29.70625,-35.904003,-24.856,-34.152,inter_set_rest,6,5.0,41540.0,45031.0,88101.0,105541.0,38447.0,54297.0,38753.0,59397.0,24603.0,18966.0
2026-05-06 16:16:57.113894,712051,1609506480516036,4080428526,-0.230336,0.568032,0.85888,9.77375,-57.35625,32.2525,-36.960003,-23.608002,-35.416,inter_set_rest,6,5.0,41540.0,45031.0,88101.0,105541.0,38447.0,54297.0,38753.0,59397.0,24603.0,18966.0
2026-05-06 16:16:57.123726,712052,1609506480524947,4080437264,-0.230336,0.568032,0.85888,4.48875,-57.33875,31.29875,-36.960003,-23.608002,-35.416,inter_set_rest,6,5.0,41540.0,45031.0,88101.0,105541.0,38447.0,54297.0,38753.0,59397.0,24603.0,18966.0
2026-05-06 16:16:57.150980,712063,1609506480539847,4080452573,-0.173728,0.530944,0.823744,0.79625,-56.35,28.7,-37.600002,-23.144001,-35.768,inter_set_rest,6,5.0,43490.0,45476.0,88439.0,106695.0,39734.0,54697.0,38939.0,59778.0,25238.0,19170.0
2026-05-06 16:16:57.153820,712064,1609506480548805,4080461353,-0.15616,0.511424,0.948672,-0.55125,-55.64125,26.6,-38.408,-23.072,-36.872,inter_set_rest,6,5.0,43490.0,45476.0,88439.0,106695.0,39734.0,54697.0,38939.0,59778.0,25238.0,19170.0
2026-05-06 16:16:57.156188,712065,1609506480563476,4080474268,-0.15616,0.511424,0.948672,1.085,-57.435,25.795,-38.408,-23.072,-36.872,inter_set_rest,6,5.0,43490.0,45476.0,88439.0,106695.0,39734.0,54697.0,38939.0,59778.0,25238.0,19170.0
2026-05-06 16:16:57.158848,712066,1609506480572858,4080485062,-0.203008,0.56608,1.059936,4.55875,-62.18625,25.57625,-38.856003,-22.84,-37.656002,inter_set_rest,6,5.0,43490.0,45476.0,88439.0,106695.0,39734.0,54697.0,38939.0,59778.0,25238.0,19170.0
2026-05-06 16:16:57.161289,712067,1609506480581887,4080493782,-0.203008,0.56608,1.059936,17.3775,-70.14875,27.8075,-38.856003,-22.84,-37.656002,inter_set_rest,6,5.0,43490.0,45476.0,88439.0,106695.0,39734.0,54697.0,38939.0,59778.0,25238.0,19170.0
2026-05-06 16:16:57.166274,712068,1609506480596520,4080508760,-0.197152,0.5856,1.108736,34.1775,-79.66875,29.56625,-40.296,-26.064001,-37.576,inter_set_rest,6,5.0,43490.0,45476.0,88439.0,106695.0,39734.0,54697.0,38939.0,59778.0,25238.0,19170.0
2026-05-06 16:16:57.168963,712069,1609506480605500,4080517661,-0.197152,0.5856,1.108736,43.81125,-88.025,34.37,-40.296,-26.064001,-37.576,inter_set_rest,6,5.0,43490.0,45476.0,88439.0,106695.0,39734.0,54697.0,38939.0,59778.0,25238.0,19170.0
2026-05-06 16:16:57.175167,712070,1609506480614429,4080526423,-0.13664,0.691008,1.079456,58.485,-95.96125,43.2775,-41.432003,-24.6,-39.256,inter_set_rest,6,5.0,43490.0,45476.0,88439.0,106695.0,39734.0,54697.0,38939.0,59778.0,25238.0,19170.0
2026-05-06 16:16:57.192692,712071,1609506480629040,4080541407,-0.033184,0.837408,0.960384,74.165,-106.2075,55.04625,-42.816,-23.912,-41.528004,inter_set_rest,6,5.0,43490.0,45476.0,88439.0,106695.0,39734.0,54697.0,38939.0,59778.0,25238.0,19170.0
2026-05-06 16:16:57.201428,712072,1609506480638008,4080550238,-0.033184,0.837408,0.960384,77.11375,-115.91125,63.83125,-42.816,-23.912,-41.528004,inter_set_rest,6,5.0,43490.0,45476.0,88439.0,106695.0,39734.0,54697.0,38939.0,59778.0,25238.0,19170.0
2026-05-06 16:16:57.230272,712083,1609506480652643,4080565235,0.070272,0.962336,0.964288,66.115,-123.2,69.39625,-43.992,-23.136002,-44.888,inter_set_rest,6,5.0,46378.0,46428.0,89423.0,107749.0,41905.0,55610.0,39437.0,60078.0,26414.0,19613.0
2026-05-06 16:16:57.231193,712084,1609506480661786,4080574029,0.070272,0.962336,0.964288,44.65125,-127.35625,75.76625,-43.992,-23.136002,-44.888,inter_set_rest,6,5.0,46378.0,46428.0,89423.0,107749.0,41905.0,55610.0,39437.0,60078.0,26414.0,19613.0
2026-05-06 16:16:57.241422,712085,1609506480676320,4080588946,0.124928,0.903776,0.847168,13.57125,-127.05,82.74875,-44.992,-22.056002,-46.368004,inter_set_rest,6,5.0,46378.0,46428.0,89423.0,107749.0,41905.0,55610.0,39437.0,60078.0,26414.0,19613.0
2026-05-06 16:16:57.246383,712086,1609506480685244,4080597724,0.124928,0.903776,0.847168,-19.7575,-125.18625,83.99125,-44.992,-22.056002,-46.368004,inter_set_rest,6,5.0,46378.0,46428.0,89423.0,107749.0,41905.0,55610.0,39437.0,60078.0,26414.0,19613.0
2026-05-06 16:16:57.255102,712087,1609506480694213,4080606458,0.167872,0.765184,0.806176,-49.6825,-121.835,79.695,-46.04,-18.984001,-47.168003,inter_set_rest,6,5.0,46378.0,46428.0,89423.0,107749.0,41905.0,55610.0,39437.0,60078.0,26414.0,19613.0
2026-05-06 16:16:57.281415,712088,1609506480708759,4080621503,0.167872,0.765184,0.66368,-74.585,-122.2725,78.28625,-46.04,-18.984001,-47.168003,inter_set_rest,6,5.0,46378.0,46428.0,89423.0,107749.0,41905.0,55610.0,39437.0,60078.0,26414.0,19613.0
2026-05-06 16:16:57.283989,712089,1609506480717693,4080630235,0.212768,0.6832,0.66368,-95.935,-117.81,81.54125,-46.536003,-16.368,-48.944004,inter_set_rest,6,5.0,46378.0,46428.0,89423.0,107749.0,41905.0,55610.0,39437.0,60078.0,26414.0,19613.0
2026-05-06 16:16:57.292725,712090,1609506480732283,4080643106,0.2928,0.530944,0.60512,-115.08,-110.92375,84.44625,-46.632004,-14.856001,-50.600002,inter_set_rest,6,5.0,46378.0,46428.0,89423.0,107749.0,41905.0,55610.0,39437.0,60078.0,26414.0,19613.0
2026-05-06 16:16:57.326206,712101,1609506480742436,4080654143,0.2928,0.530944,0.60512,-134.82875,-103.635,78.42625,-46.632004,-14.856001,-50.600002,inter_set_rest,6,5.0,45530.0,45388.0,89519.0,108170.0,40967.0,54259.0,39290.0,60541.0,26159.0,19106.0
2026-05-06 16:16:57.330304,712102,1609506480751701,4080662953,0.281088,0.32208,0.505568,-157.68375,-93.98375,66.535,-46.976,-13.088,-51.688004,inter_set_rest,6,5.0,45530.0,45388.0,89519.0,108170.0,40967.0,54259.0,39290.0,60541.0,26159.0,19106.0
2026-05-06 16:16:57.333260,712103,1609506480766825,4080677927,0.281088,0.32208,0.505568,-183.085,-90.055,57.4,-46.976,-13.088,-51.688004,inter_set_rest,6,5.0,45530.0,45388.0,89519.0,108170.0,40967.0,54259.0,39290.0,60541.0,26159.0,19106.0
2026-05-06 16:16:57.365178,712104,1609506480776161,4080688668,0.296704,0.121024,0.56608,-200.8125,-85.75,51.33625,-47.152,-11.792001,-52.952003,inter_set_rest,6,5.0,45530.0,45388.0,89519.0,108170.0,40967.0,54259.0,39290.0,60541.0,26159.0,19106.0
2026-05-06 16:16:57.367602,712105,1609506480785070,4080697399,0.296704,0.121024,0.56608,-206.7275,-78.35625,46.06875,-47.152,-11.792001,-52.952003,inter_set_rest,6,5.0,45530.0,45388.0,89519.0,108170.0,40967.0,54259.0,39290.0,60541.0,26159.0,19106.0
2026-05-06 16:16:57.370241,712106,1609506480799597,4080712300,0.396256,-0.037088,0.579744,-197.33875,-69.72875,40.6875,-47.304,-10.296001,-53.664,inter_set_rest,6,5.0,45530.0,45388.0,89519.0,108170.0,40967.0,54259.0,39290.0,60541.0,26159.0,19106.0
2026-05-06 16:16:57.372691,712107,1609506480808527,4080720995,0.396256,-0.037088,0.579744,-175.84,-61.845,35.35,-47.304,-10.296001,-53.664,inter_set_rest,6,5.0,45530.0,45388.0,89519.0,108170.0,40967.0,54259.0,39290.0,60541.0,26159.0,19106.0
2026-05-06 16:16:57.387708,712108,1609506480823061,4080733858,0.42944,0.02928,0.6344,-148.3475,-56.74375,29.93375,-47.376003,-9.416,-55.128002,inter_set_rest,6,5.0,45530.0,45388.0,89519.0,108170.0,40967.0,54259.0,39290.0,60541.0,26159.0,19106.0
2026-05-06 16:16:57.396401,712109,1609506480832293,4080744676,0.327936,0.173728,0.661728,-115.59625,-51.975,21.44625,-47.704002,-8.608001,-55.464005,inter_set_rest,6,5.0,45530.0,45388.0,89519.0,108170.0,40967.0,54259.0,39290.0,60541.0,26159.0,19106.0
2026-05-06 16:16:57.429803,712120,1609506480841726,4080753367,0.327936,0.173728,0.661728,-87.255,-48.7375,13.67625,-47.704002,-8.608001,-55.464005,inter_set_rest,6,5.0,39827.0,42382.0,87359.0,93044.0,35447.0,50966.0,38165.0,52385.0,22943.0,17654.0
2026-05-06 16:16:57.455000,712121,1609506480856452,4080768326,0.220576,0.26352,0.6832,-69.76375,-45.4125,9.3275,-47.56,-8.84,-56.192,inter_set_rest,6,5.0,39827.0,42382.0,87359.0,93044.0,35447.0,50966.0,38165.0,52385.0,22943.0,17654.0
2026-05-06 16:16:57.480097,712122,1609506480865389,4080777106,0.220576,0.26352,0.6832,-58.75625,-42.90125,8.21625,-47.56,-8.84,-56.192,inter_set_rest,6,5.0,39827.0,42382.0,87359.0,93044.0,35447.0,50966.0,38165.0,52385.0,22943.0,17654.0
2026-05-06 16:16:57.496424,712123,1609506480880037,4080792227,0.18544,0.32208,0.718336,-45.14125,-41.86,9.89625,-47.600002,-8.864,-56.456,inter_set_rest,6,5.0,39827.0,42382.0,87359.0,93044.0,35447.0,50966.0,38165.0,52385.0,22943.0,17654.0
2026-05-06 16:16:57.498984,712124,1609506480888959,4080800947,0.18544,0.32208,0.718336,-32.6375,-41.64125,13.5975,-47.600002,-8.864,-56.456,inter_set_rest,6,5.0,39827.0,42382.0,87359.0,93044.0,35447.0,50966.0,38165.0,52385.0,22943.0,17654.0
2026-05-06 16:16:57.501397,712125,1609506480897887,4080809643,0.212768,0.365024,0.661728,-24.2025,-41.405,19.0575,-47.608,-7.944,-60.976,inter_set_rest,6,5.0,39827.0,42382.0,87359.0,93044.0,35447.0,50966.0,38165.0,52385.0,22943.0,17654.0
2026-05-06 16:16:57.503970,712126,1609506480912397,4080824586,0.261568,0.300608,0.593408,-26.32875,-38.40375,22.47,-47.328003,-7.536,-58.664,inter_set_rest,6,5.0,39827.0,42382.0,87359.0,93044.0,35447.0,50966.0,38165.0,52385.0,22943.0,17654.0
2026-05-06 16:16:57.506397,712127,1609506480921342,4080833297,0.261568,0.300608,0.593408,-37.1,-33.3375,21.3675,-47.328003,-7.536,-58.664,inter_set_rest,6,5.0,39827.0,42382.0,87359.0,93044.0,35447.0,50966.0,38165.0,52385.0,22943.0,17654.0
2026-05-06 16:16:57.511450,712128,1609506480935830,4080848218,0.265472,0.163968,0.56608,-47.285,-27.4925,16.91375,-47.840004,-7.432,-58.320004,inter_set_rest,6,5.0,39827.0,42382.0,87359.0,93044.0,35447.0,50966.0,38165.0,52385.0,22943.0,17654.0
2026-05-06 16:16:57.538856,712140,1609506480945319,4080857188,0.265472,0.163968,0.56608,-53.12125,-22.61875,12.8975,-47.840004,-7.432,-58.320004,inter_set_rest,6,5.0,39273.0,41546.0,87670.0,87485.0,35018.0,49941.0,38374.0,49519.0,22834.0,17308.0
2026-05-06 16:16:57.541122,712141,1609506480954347,4080866126,0.290848,0.076128,0.70272,-51.77375,-19.60875,10.98125,-47.488003,-8.928,-57.528004,inter_set_rest,6,5.0,39273.0,41546.0,87670.0,87485.0,35018.0,49941.0,38374.0,49519.0,22834.0,17308.0
2026-05-06 16:16:57.543607,712142,1609506480968893,4080881107,0.290848,0.076128,0.70272,-46.97,-16.82625,9.905,-47.488003,-8.928,-57.528004,inter_set_rest,6,5.0,39273.0,41546.0,87670.0,87485.0,35018.0,49941.0,38374.0,49519.0,22834.0,17308.0
2026-05-06 16:16:57.545881,712143,1609506480977926,4080889867,0.288896,0.05856,0.710528,-35.7525,-15.4525,9.00375,-47.600002,-8.368,-57.384003,inter_set_rest,6,5.0,39273.0,41546.0,87670.0,87485.0,35018.0,49941.0,38374.0,49519.0,22834.0,17308.0
2026-05-06 16:16:57.555143,712144,1609506480992513,4080904906,0.310368,0.080032,0.708576,-22.47,-14.74375,9.38875,-47.248,-6.856,-57.296,inter_set_rest,6,5.0,39273.0,41546.0,87670.0,87485.0,35018.0,49941.0,38374.0,49519.0,22834.0,17308.0
2026-05-06 16:16:57.563996,712145,1609506481001424,4080913616,0.310368,0.080032,0.708576,-15.05875,-13.1425,9.38,-47.248,-6.856,-57.296,inter_set_rest,6,5.0,39273.0,41546.0,87670.0,87485.0,35018.0,49941.0,38374.0,49519.0,22834.0,17308.0
2026-05-06 16:16:57.577598,712146,1609506481015946,4080928531,0.357216,0.066368,0.720288,-13.27375,-11.85625,7.1225,-47.376003,-6.480001,-59.112003,inter_set_rest,6,5.0,39273.0,41546.0,87670.0,87485.0,35018.0,49941.0,38374.0,49519.0,22834.0,17308.0
2026-05-06 16:16:57.586389,712147,1609506481024877,4080937229,0.357216,0.066368,0.720288,-10.2375,-10.22,4.15625,-47.376003,-6.480001,-59.112003,inter_set_rest,6,5.0,39273.0,41546.0,87670.0,87485.0,35018.0,49941.0,38374.0,49519.0,22834.0,17308.0
2026-05-06 16:16:57.596339,712148,1609506481033918,4080945961,0.396256,0.06832,0.700768,-8.54,-7.79625,3.815,-47.320004,-6.328,-59.032,inter_set_rest,6,5.0,39273.0,41546.0,87670.0,87485.0,35018.0,49941.0,38374.0,49519.0,22834.0,17308.0
2026-05-06 16:16:57.627568,712159,1609506481048543,4080960934,0.396256,0.06832,0.700768,-8.8725,-5.67875,5.0575,-47.320004,-6.328,-59.032,inter_set_rest,6,5.0,39309.0,41417.0,87479.0,85763.0,35097.0,49782.0,38266.0,48539.0,22859.0,17223.0
2026-05-06 16:16:57.629982,712160,1609506481057527,4080969730,0.4392,0.081984,0.71248,-6.9475,-3.325,2.8875,-47.616,-9.504001,-57.088,inter_set_rest,6,5.0,39309.0,41417.0,87479.0,85763.0,35097.0,49782.0,38266.0,48539.0,22859.0,17223.0
2026-05-06 16:16:57.632474,712161,1609506481072117,4080984722,0.445056,0.00976,0.651968,-2.3275,0.35875,-0.37625,-47.616,-9.504001,-55.952003,inter_set_rest,6,5.0,39309.0,41417.0,87479.0,85763.0,35097.0,49782.0,38266.0,48539.0,22859.0,17223.0
2026-05-06 16:16:57.651350,712162,1609506481081053,4080993469,0.445056,0.00976,0.651968,1.33875,5.005,-1.0325,-47.800003,-9.592,-55.952003,inter_set_rest,6,5.0,39309.0,41417.0,87479.0,85763.0,35097.0,49782.0,38266.0,48539.0,22859.0,17223.0
2026-05-06 16:16:57.653973,712163,1609506481090042,4081002193,0.445056,0.00976,0.651968,4.585,10.45625,-0.04375,-47.800003,-9.592,-55.952003,inter_set_rest,6,5.0,39309.0,41417.0,87479.0,85763.0,35097.0,49782.0,38266.0,48539.0,22859.0,17223.0
2026-05-06 16:16:57.667652,712164,1609506481104819,4081017129,0.388448,-0.003904,0.796416,3.35125,12.705,0.14875,-47.376003,-5.984,-60.008003,inter_set_rest,6,5.0,39309.0,41417.0,87479.0,85763.0,35097.0,49782.0,38266.0,48539.0,22859.0,17223.0
2026-05-06 16:16:57.676213,712165,1609506481113800,4081025868,0.349408,0.130784,0.96624,7.4375,11.66375,-0.49875,-47.448,-6.248,-59.248,inter_set_rest,6,5.0,39309.0,41417.0,87479.0,85763.0,35097.0,49782.0,38266.0,48539.0,22859.0,17223.0
2026-05-06 16:16:57.692492,712166,1609506481128297,4081040833,0.349408,0.130784,0.96624,12.74,7.455,0.02625,-47.448,-6.248,-59.248,inter_set_rest,6,5.0,39309.0,41417.0,87479.0,85763.0,35097.0,49782.0,38266.0,48539.0,22859.0,17223.0
2026-05-06 16:16:57.699451,712167,1609506481137203,4081049517,0.394304,0.247904,0.954528,11.8825,2.8525,2.35375,-47.224003,-6.312,-58.776,inter_set_rest,6,5.0,39309.0,41417.0,87479.0,85763.0,35097.0,49782.0,38266.0,48539.0,22859.0,17223.0
2026-05-06 16:16:57.727529,712178,1609506481152462,4081064753,0.394304,0.247904,0.876448,4.83,-0.98875,4.13875,-47.224003,-6.312,-58.776,inter_set_rest,6,5.0,39142.0,41293.0,87533.0,84327.0,35181.0,49604.0,38290.0,47812.0,22933.0,17196.0
2026-05-06 16:16:57.730014,712179,1609506481161542,4081073470,0.437248,0.115168,0.876448,-6.93875,-2.00375,1.60125,-47.432003,-7.872,-58.840004,inter_set_rest,6,5.0,39142.0,41293.0,87533.0,84327.0,35181.0,49604.0,38290.0,47812.0,22933.0,17196.0
2026-05-06 16:16:57.732573,712180,1609506481170463,4081082212,0.437248,0.115168,0.876448,-15.015,-2.03875,-3.4125,-47.432003,-7.872,-58.840004,inter_set_rest,6,5.0,39142.0,41293.0,87533.0,84327.0,35181.0,49604.0,38290.0,47812.0,22933.0,17196.0
2026-05-06 16:16:57.746216,712181,1609506481185001,4081097306,0.40992,-0.011712,0.899872,-11.935,-2.37125,-5.76625,-47.04,-6.352,-57.008003,inter_set_rest,6,5.0,39142.0,41293.0,87533.0,84327.0,35181.0,49604.0,38290.0,47812.0,22933.0,17196.0
2026-05-06 16:16:57.755173,712182,1609506481193991,4081106015,0.427488,0.017568,0.85888,1.12875,-2.8875,-4.865,-48.008003,-9.056001,-57.176003,inter_set_rest,6,5.0,39142.0,41293.0,87533.0,84327.0,35181.0,49604.0,38290.0,47812.0,22933.0,17196.0
2026-05-06 16:16:57.789836,712183,1609506481208518,4081120966,0.427488,0.017568,0.85888,13.51,-3.85,-3.57,-48.008003,-9.056001,-57.176003,inter_set_rest,6,5.0,39142.0,41293.0,87533.0,84327.0,35181.0,49604.0,38290.0,47812.0,22933.0,17196.0
2026-05-06 16:16:57.791659,712184,1609506481217469,4081129651,0.456768,0.1464,0.808128,18.5325,-3.71875,-3.28125,-47.424004,-6.592001,-58.896004,inter_set_rest,6,5.0,39142.0,41293.0,87533.0,84327.0,35181.0,49604.0,38290.0,47812.0,22933.0,17196.0
2026-05-06 16:16:57.793609,712185,1609506481226386,4081138599,0.456768,0.1464,0.808128,15.4525,-2.38,-4.97875,-47.424004,-6.592001,-58.896004,inter_set_rest,6,5.0,39142.0,41293.0,87533.0,84327.0,35181.0,49604.0,38290.0,47812.0,22933.0,17196.0
2026-05-06 16:16:57.818599,712186,1609506481240895,4081153525,0.447008,0.218624,0.935008,6.44,0.385,-6.895,-47.536003,-6.264,-59.048004,inter_set_rest,6,5.0,39142.0,41293.0,87533.0,84327.0,35181.0,49604.0,38290.0,47812.0,22933.0,17196.0
2026-05-06 16:16:57.881191,712197,1609506481249929,4081162345,0.447008,0.218624,0.935008,-6.615,-0.16625,-6.7725,-47.536003,-6.264,-59.048004,inter_set_rest,6,5.0,38734.0,41133.0,87824.0,83310.0,35476.0,49599.0,38391.0,47325.0,23088.0,17173.0
2026-05-06 16:16:57.883968,712198,1609506481264459,4081175335,0.40992,0.203008,0.962336,-16.45875,-2.05625,-4.76,-47.448,-6.64,-58.920002,inter_set_rest,6,5.0,38734.0,41133.0,87824.0,83310.0,35476.0,49599.0,38391.0,47325.0,23088.0,17173.0
2026-05-06 16:16:57.887525,712199,1609506481273923,4081186103,0.521184,0.101504,0.964288,-21.7175,-4.7425,-2.94875,-47.616,-6.68,-57.344,inter_set_rest,6,5.0,38734.0,41133.0,87824.0,83310.0,35476.0,49599.0,38391.0,47325.0,23088.0,17173.0
2026-05-06 16:16:57.888860,712200,1609506481282879,4081194826,0.521184,0.101504,0.964288,-27.825,-8.09375,-4.445,-47.616,-6.68,-57.344,inter_set_rest,6,5.0,38734.0,41133.0,87824.0,83310.0,35476.0,49599.0,38391.0,47325.0,23088.0,17173.0
2026-05-06 16:16:57.890990,712201,1609506481297371,4081209776,0.51728,0.0488,0.870592,-32.64625,-11.33125,-6.125,-47.216003,-5.896,-59.296,inter_set_rest,6,5.0,38734.0,41133.0,87824.0,83310.0,35476.0,49599.0,38391.0,47325.0,23088.0,17173.0
2026-05-06 16:16:57.893816,712202,1609506481306294,4081218629,0.51728,0.0488,0.870592,-35.13125,-13.3175,-3.22875,-47.216003,-5.896,-59.296,inter_set_rest,6,5.0,38734.0,41133.0,87824.0,83310.0,35476.0,49599.0,38391.0,47325.0,23088.0,17173.0
2026-05-06 16:16:57.896107,712203,1609506481320880,4081233582,0.499712,-0.042944,0.827648,-39.7075,-13.62375,-3.6575,-47.672,-8.320001,-59.696003,inter_set_rest,6,5.0,38734.0,41133.0,87824.0,83310.0,35476.0,49599.0,38391.0,47325.0,23088.0,17173.0
2026-05-06 16:16:57.898835,712204,1609506481329833,4081242398,0.499712,-0.042944,0.827648,-36.1725,-11.94375,-6.83375,-47.672,-8.320001,-59.696003,inter_set_rest,6,5.0,38734.0,41133.0,87824.0,83310.0,35476.0,49599.0,38391.0,47325.0,23088.0,17173.0
2026-05-06 16:16:57.932638,712215,1609506481344647,4081257461,0.544608,0.007808,0.847168,-26.241251,-10.325,-6.51,-47.376003,-6.520001,-59.888004,inter_set_rest,6,5.0,36281.0,39438.0,85762.0,81710.0,33710.0,48610.0,37519.0,46540.0,21884.0,16665.0
2026-05-06 16:16:57.935192,712216,1609506481353994,4081266242,0.544608,0.007808,0.7808,-17.3775,-8.68,-3.745,-47.376003,-6.520001,-55.792004,inter_set_rest,6,5.0,36281.0,39438.0,85762.0,81710.0,33710.0,48610.0,37519.0,46540.0,21884.0,16665.0
2026-05-06 16:16:57.937646,712217,1609506481362993,4081275028,0.530944,0.021472,0.7808,-16.28375,-6.71125,-4.4625,-48.08,-9.184,-56.960003,inter_set_rest,6,5.0,36281.0,39438.0,85762.0,81710.0,33710.0,48610.0,37519.0,46540.0,21884.0,16665.0
2026-05-06 16:16:57.940078,712218,1609506481377480,4081289929,0.50752,0.021472,0.714432,-18.4275,-5.18875,-8.2075,-47.688004,-9.704,-57.552002,inter_set_rest,6,5.0,36281.0,39438.0,85762.0,81710.0,33710.0,48610.0,37519.0,46540.0,21884.0,16665.0
2026-05-06 16:16:57.948991,712219,1609506481386495,4081298755,0.50752,0.021472,0.714432,-13.3,-2.625,-7.4725,-47.688004,-9.704,-57.552002,inter_set_rest,6,5.0,36281.0,39438.0,85762.0,81710.0,33710.0,48610.0,37519.0,46540.0,21884.0,16665.0
2026-05-06 16:16:57.962345,712220,1609506481400981,4081313670,0.511424,-0.001952,0.708576,-6.50125,1.32125,-8.88125,-47.632004,-6.456,-60.224003,inter_set_rest,6,5.0,36281.0,39438.0,85762.0,81710.0,33710.0,48610.0,37519.0,46540.0,21884.0,16665.0
2026-05-06 16:16:57.980547,712221,1609506481409889,4081322516,0.511424,-0.001952,0.708576,-4.24375,5.36375,-11.13875,-47.632004,-6.456,-60.224003,inter_set_rest,6,5.0,36281.0,39438.0,85762.0,81710.0,33710.0,48610.0,37519.0,46540.0,21884.0,16665.0
2026-05-06 16:16:58.004979,712222,1609506481418808,4081331217,0.357216,0.054656,0.83936,-9.52875,6.90375,-13.02875,-47.552002,-6.464,-59.904003,inter_set_rest,6,5.0,36281.0,39438.0,85762.0,81710.0,33710.0,48610.0,37519.0,46540.0,21884.0,16665.0
2026-05-06 16:16:58.007537,712223,1609506481433490,4081346184,0.357216,0.054656,0.83936,-15.32125,6.58875,-15.00625,-47.552002,-6.464,-59.904003,inter_set_rest,6,5.0,36281.0,39438.0,85762.0,81710.0,33710.0,48610.0,37519.0,46540.0,21884.0,16665.0
2026-05-06 16:16:58.012371,712224,1609506481442426,4081354898,0.329888,0.134688,0.833504,-16.14375,6.25625,-14.42,-47.744003,-6.672,-58.064003,inter_set_rest,6,5.0,36281.0,39438.0,85762.0,81710.0,33710.0,48610.0,37519.0,46540.0,21884.0,16665.0
2026-05-06 16:16:58.040153,712235,1609506481457000,4081367807,0.343552,0.13664,0.792512,-13.195,6.65,-12.22375,-47.736004,-8.88,-58.968002,inter_set_rest,6,5.0,36096.0,39145.0,85509.0,81181.0,33590.0,48585.0,37594.0,46320.0,21726.0,16630.0
2026-05-06 16:16:58.042655,712236,1609506481466309,4081378661,0.343552,0.13664,0.792512,-11.45375,6.85125,-8.77625,-47.736004,-8.88,-58.968002,inter_set_rest,6,5.0,36096.0,39145.0,85509.0,81181.0,33590.0,48585.0,37594.0,46320.0,21726.0,16630.0
2026-05-06 16:16:58.045185,712237,1609506481475332,4081387369,0.335744,0.031232,0.802272,-12.85375,8.2775,-7.86625,-47.736004,-9.088,-58.576004,inter_set_rest,6,5.0,36096.0,39145.0,85509.0,81181.0,33590.0,48585.0,37594.0,46320.0,21726.0,16630.0
2026-05-06 16:16:58.051300,712238,1609506481489852,4081402387,0.335744,0.031232,0.802272,-14.875,10.24625,-8.925,-47.712,-9.088,-58.576004,inter_set_rest,6,5.0,36096.0,39145.0,85509.0,81181.0,33590.0,48585.0,37594.0,46320.0,21726.0,16630.0
2026-05-06 16:16:58.060161,712239,1609506481498779,4081411091,0.333792,0.066368,0.769088,-7.32375,11.2,-6.11625,-47.256,-7.032001,-59.728004,inter_set_rest,6,5.0,36096.0,39145.0,85509.0,81181.0,33590.0,48585.0,37594.0,46320.0,21726.0,16630.0
2026-05-06 16:16:58.093871,712240,1609506481513299,4081425985,0.333792,0.066368,0.769088,1.42625,11.445,-2.2575,-47.256,-7.032001,-59.728004,inter_set_rest,6,5.0,36096.0,39145.0,85509.0,81181.0,33590.0,48585.0,37594.0,46320.0,21726.0,16630.0
2026-05-06 16:16:58.096155,712241,1609506481522276,4081434769,0.32208,0.11712,0.860832,4.4625,11.725,-0.21,-47.464,-7.856,-58.136,inter_set_rest,6,5.0,36096.0,39145.0,85509.0,81181.0,33590.0,48585.0,37594.0,46320.0,21726.0,16630.0
2026-05-06 16:16:58.098685,712242,1609506481536763,4081447679,0.267424,0.111264,0.882304,-0.37625,10.7975,0.88375,-47.208004,-7.04,-59.576004,inter_set_rest,6,5.0,36096.0,39145.0,85509.0,81181.0,33590.0,48585.0,37594.0,46320.0,21726.0,16630.0
2026-05-06 16:16:58.140113,712253,1609506481546498,4081458551,0.267424,0.111264,0.882304,-8.49625,8.25125,0.805,-47.208004,-7.04,-59.576004,inter_set_rest,6,5.0,35386.0,38387.0,85409.0,79453.0,32951.0,47888.0,37581.0,45347.0,21425.0,16411.0
2026-05-06 16:16:58.142629,712254,1609506481555497,4081467364,0.267424,0.031232,0.856928,-11.375,5.565,-0.06125,-47.208004,-7.04,-59.576004,inter_set_rest,6,5.0,35386.0,38387.0,85409.0,79453.0,32951.0,47888.0,37581.0,45347.0,21425.0,16411.0
2026-05-06 16:16:58.145025,712255,1609506481570097,4081482317,0.374784,0.031232,0.856928,-9.4675,4.235,-0.51625,-47.536003,-6.832,-60.032,inter_set_rest,6,5.0,35386.0,38387.0,85409.0,79453.0,32951.0,47888.0,37581.0,45347.0,21425.0,16411.0
2026-05-06 16:16:58.147410,712256,1609506481579042,4081491075,0.398208,0.007808,0.870592,-4.9875,3.66625,-0.16625,-47.416,-6.664001,-59.016003,inter_set_rest,6,5.0,35386.0,38387.0,85409.0,79453.0,32951.0,47888.0,37581.0,45347.0,21425.0,16411.0
2026-05-06 16:16:58.156256,712257,1609506481593552,4081506022,0.398208,0.007808,0.870592,0.35,3.05375,0.93625,-47.416,-6.664001,-59.016003,inter_set_rest,6,5.0,35386.0,38387.0,85409.0,79453.0,32951.0,47888.0,37581.0,45347.0,21425.0,16411.0
2026-05-06 16:16:58.165032,712258,1609506481602502,4081514727,0.386496,0.03904,0.890112,3.0625,2.625,0.46375,-47.36,-7.048,-58.184002,inter_set_rest,6,5.0,35386.0,38387.0,85409.0,79453.0,32951.0,47888.0,37581.0,45347.0,21425.0,16411.0
2026-05-06 16:16:58.190056,712259,1609506481611437,4081523413,0.386496,0.03904,0.890112,1.9775,1.995,-2.17875,-47.36,-7.048,-58.184002,inter_set_rest,6,5.0,35386.0,38387.0,85409.0,79453.0,32951.0,47888.0,37581.0,45347.0,21425.0,16411.0
2026-05-06 16:16:58.215110,712260,1609506481626073,4081538379,0.388448,0.00976,0.792512,-1.015,1.3475,-4.1125,-47.504,-7.08,-58.712,inter_set_rest,6,5.0,35386.0,38387.0,85409.0,79453.0,32951.0,47888.0,37581.0,45347.0,21425.0,16411.0
2026-05-06 16:16:58.221370,712261,1609506481634986,4081547091,0.388448,0.00976,0.792512,-5.2675,1.75875,-5.94125,-47.504,-7.08,-58.712,inter_set_rest,6,5.0,35386.0,38387.0,85409.0,79453.0,32951.0,47888.0,37581.0,45347.0,21425.0,16411.0
2026-05-06 16:16:58.251420,712272,1609506481649796,4081562142,0.450912,0.001952,0.84912,-4.0425,3.68375,-7.525,-48.000004,-8.56,-57.728004,inter_set_rest,6,5.0,35115.0,38242.0,85453.0,78662.0,32664.0,47759.0,37663.0,44833.0,21268.0,16374.0
2026-05-06 16:16:58.253982,712273,1609506481658840,4081570863,0.372832,0.060512,0.892064,0.32375,5.11875,-8.56625,-47.920002,-6.768,-58.760002,inter_set_rest,6,5.0,35115.0,38242.0,85453.0,78662.0,32664.0,47759.0,37663.0,44833.0,21268.0,16374.0
2026-05-06 16:16:58.257355,712274,1609506481667836,4081579675,0.372832,0.060512,0.892064,1.33,4.69,-8.70625,-47.920002,-6.768,-58.760002,inter_set_rest,6,5.0,35115.0,38242.0,85453.0,78662.0,32664.0,47759.0,37663.0,44833.0,21268.0,16374.0
2026-05-06 16:16:58.258661,712275,1609506481682470,4081594616,0.384544,0.083936,0.886208,2.56375,2.9925,-8.35625,-47.744003,-6.912,-58.904003,inter_set_rest,6,5.0,35115.0,38242.0,85453.0,78662.0,32664.0,47759.0,37663.0,44833.0,21268.0,16374.0
2026-05-06 16:16:58.261559,712276,1609506481691532,4081603363,0.384544,0.083936,0.886208,2.205,0.65625,-8.4525,-47.744003,-6.912,-58.904003,inter_set_rest,6,5.0,35115.0,38242.0,85453.0,78662.0,32664.0,47759.0,37663.0,44833.0,21268.0,16374.0
2026-05-06 16:16:58.269817,712277,1609506481706049,4081618277,0.396256,0.06832,0.835456,1.56625,-0.7525,-8.75,-47.312004,-7.440001,-58.896004,inter_set_rest,6,5.0,35115.0,38242.0,85453.0,78662.0,32664.0,47759.0,37663.0,44833.0,21268.0,16374.0
2026-05-06 16:16:58.276311,712278,1609506481715013,4081627002,0.396256,0.06832,0.835456,1.4525,-1.05,-8.68,-47.312004,-7.440001,-58.896004,inter_set_rest,6,5.0,35115.0,38242.0,85453.0,78662.0,32664.0,47759.0,37663.0,44833.0,21268.0,16374.0
2026-05-06 16:16:58.310135,712279,1609506481729470,4081641945,0.413824,0.0488,0.784704,1.84625,-0.90125,-8.3825,-47.840004,-9.416,-57.544003,inter_set_rest,6,5.0,35115.0,38242.0,85453.0,78662.0,32664.0,47759.0,37663.0,44833.0,21268.0,16374.0
2026-05-06 16:16:58.312533,712280,1609506481738420,4081650681,0.41968,0.044896,0.7808,1.0325,0.76125,-8.33,-47.296,-7.464,-58.208004,inter_set_rest,6,5.0,35115.0,38242.0,85453.0,78662.0,32664.0,47759.0,37663.0,44833.0,21268.0,16374.0
2026-05-06 16:16:58.344021,712291,1609506481748056,4081659768,0.41968,0.044896,0.7808,-0.945,3.40375,-9.1,-47.296,-7.464,-58.208004,inter_set_rest,6,5.0,35079.0,38264.0,85598.0,78118.0,32633.0,47807.0,37720.0,44536.0,21271.0,16394.0
2026-05-06 16:16:58.346377,712292,1609506481762649,4081674903,0.374784,0.044896,0.827648,-2.79125,6.1075,-11.05125,-47.728,-9.488001,-57.432003,inter_set_rest,6,5.0,35079.0,38264.0,85598.0,78118.0,32633.0,47807.0,37720.0,44536.0,21271.0,16394.0
2026-05-06 16:16:58.351750,712293,1609506481771664,4081683690,0.374784,0.044896,0.827648,-3.15875,7.56875,-11.33125,-47.728,-9.488001,-57.432003,inter_set_rest,6,5.0,35079.0,38264.0,85598.0,78118.0,32633.0,47807.0,37720.0,44536.0,21271.0,16394.0
2026-05-06 16:16:58.352136,712294,1609506481780759,4081692417,0.40992,0.074176,0.862784,-0.28,8.21625,-10.5525,-47.592003,-9.744,-57.272003,inter_set_rest,6,5.0,35079.0,38264.0,85598.0,78118.0,32633.0,47807.0,37720.0,44536.0,21271.0,16394.0
2026-05-06 16:16:58.359192,712295,1609506481795261,4081707378,0.40992,0.074176,0.862784,2.38,8.7675,-10.85875,-47.592003,-9.744,-57.272003,inter_set_rest,6,5.0,35079.0,38264.0,85598.0,78118.0,32633.0,47807.0,37720.0,44536.0,21271.0,16394.0
2026-05-06 16:16:58.366254,712296,1609506481804220,4081716174,0.392352,0.05856,0.778848,2.45,8.89,-11.45375,-47.296,-9.936001,-56.920002,inter_set_rest,6,5.0,35079.0,38264.0,85598.0,78118.0,32633.0,47807.0,37720.0,44536.0,21271.0,16394.0
2026-05-06 16:16:58.382292,712297,1609506481818737,4081731090,0.425536,0.066368,0.806176,3.70125,9.7475,-12.67,-47.792004,-8.104,-56.624004,inter_set_rest,6,5.0,35079.0,38264.0,85598.0,78118.0,32633.0,47807.0,37720.0,44536.0,21271.0,16394.0
2026-05-06 16:16:58.388892,712298,1609506481827645,4081739861,0.425536,0.066368,0.806176,4.94375,11.5325,-13.230001,-47.792004,-8.104,-56.624004,inter_set_rest,6,5.0,35079.0,38264.0,85598.0,78118.0,32633.0,47807.0,37720.0,44536.0,21271.0,16394.0
2026-05-06 16:16:58.403852,712299,1609506481842119,4081754795,0.407968,0.101504,0.835456,3.42125,13.125,-13.51,-47.760002,-9.328,-56.864002,inter_set_rest,6,5.0,35079.0,38264.0,85598.0,78118.0,32633.0,47807.0,37720.0,44536.0,21271.0,16394.0
2026-05-06 16:16:58.432683,712310,1609506481851237,4081763747,0.407968,0.101504,0.835456,2.31,14.542501,-14.35875,-47.760002,-9.328,-56.864002,inter_set_rest,6,5.0,35372.0,38472.0,85710.0,78127.0,32931.0,47997.0,37730.0,44431.0,21380.0,16464.0
2026-05-06 16:16:58.435131,712311,1609506481860333,4081772518,0.411872,0.10736,0.872544,3.815,15.417501,-14.1575,-47.488003,-8.176001,-57.744003,inter_set_rest,6,5.0,35372.0,38472.0,85710.0,78127.0,32931.0,47997.0,37730.0,44431.0,21380.0,16464.0
2026-05-06 16:16:58.441401,712312,1609506481874887,4081787476,0.411872,0.10736,0.872544,2.38,17.00125,-14.07875,-47.488003,-8.176001,-57.744003,inter_set_rest,6,5.0,35372.0,38472.0,85710.0,78127.0,32931.0,47997.0,37730.0,44431.0,21380.0,16464.0
2026-05-06 16:16:58.445123,712313,1609506481883854,4081796232,0.406016,0.103456,0.837408,0.9975,17.15,-13.62375,-47.368004,-8.776,-57.304,inter_set_rest,6,5.0,35372.0,38472.0,85710.0,78127.0,32931.0,47997.0,37730.0,44431.0,21380.0,16464.0
2026-05-06 16:16:58.461269,712314,1609506481898356,4081809120,0.417728,0.115168,0.913536,1.6275,17.0275,-11.5325,-47.368004,-8.776,-57.512,inter_set_rest,6,5.0,35372.0,38472.0,85710.0,78127.0,32931.0,47997.0,37730.0,44431.0,21380.0,16464.0
2026-05-06 16:16:58.469983,712315,1609506481907528,4081819853,0.417728,0.115168,0.913536,1.05875,17.36875,-10.823751,-47.72,-8.480001,-57.512,inter_set_rest,6,5.0,35372.0,38472.0,85710.0,78127.0,32931.0,47997.0,37730.0,44431.0,21380.0,16464.0
2026-05-06 16:16:58.481231,712316,1609506481921984,4081832753,0.40992,0.103456,0.903776,-1.6275,16.17,-10.66625,-47.696003,-9.792001,-55.752003,inter_set_rest,6,5.0,35372.0,38472.0,85710.0,78127.0,32931.0,47997.0,37730.0,44431.0,21380.0,16464.0
2026-05-06 16:16:58.492567,712317,1609506481931208,4081843593,0.40992,0.103456,0.903776,-4.52375,14.91875,-11.12125,-47.696003,-9.792001,-55.752003,inter_set_rest,6,5.0,35372.0,38472.0,85710.0,78127.0,32931.0,47997.0,37730.0,44431.0,21380.0,16464.0
2026-05-06 16:16:58.506383,712318,1609506481940142,4081852308,0.41968,0.064416,0.919392,-6.37875,13.3875,-11.83,-47.680004,-10.752001,-54.888004,inter_set_rest,6,5.0,35372.0,38472.0,85710.0,78127.0,32931.0,47997.0,37730.0,44431.0,21380.0,16464.0
2026-05-06 16:16:58.596278,712329,1609506481954904,4081867328,0.41968,0.064416,0.919392,-6.22125,12.005,-11.97875,-47.680004,-10.752001,-54.888004,inter_set_rest,6,5.0,34996.0,38316.0,85496.0,77654.0,32675.0,47835.0,37628.0,44121.0,21268.0,16374.0
2026-05-06 16:16:58.599005,712330,1609506481963909,4081876391,0.386496,0.10736,0.954528,-0.91,9.80875,-11.52375,-48.024002,-10.552,-55.88,inter_set_rest,6,5.0,34996.0,38316.0,85496.0,77654.0,32675.0,47835.0,37628.0,44121.0,21268.0,16374.0
2026-05-06 16:16:58.601380,712331,1609506481978423,4081889240,0.386496,0.10736,0.892064,5.53875,7.46375,-9.89625,-48.024002,-10.552,-55.88,inter_set_rest,6,5.0,34996.0,38316.0,85496.0,77654.0,32675.0,47835.0,37628.0,44121.0,21268.0,16374.0
2026-05-06 16:16:58.603975,712332,1609506481987678,4081900140,0.376736,0.12688,0.890112,8.89,4.935,-8.75875,-47.288002,-8.936001,-57.72,inter_set_rest,6,5.0,34996.0,38316.0,85496.0,77654.0,32675.0,47835.0,37628.0,44121.0,21268.0,16374.0
2026-05-06 16:16:58.606240,712333,1609506481996572,4081908862,0.376736,0.12688,0.890112,7.8925,2.485,-8.37375,-47.288002,-8.936001,-57.72,inter_set_rest,6,5.0,34996.0,38316.0,85496.0,77654.0,32675.0,47835.0,37628.0,44121.0,21268.0,16374.0
2026-05-06 16:16:58.608755,712334,1609506482011349,4081923777,0.3904,0.081984,0.866688,6.34375,1.3125,-8.6975,-47.704002,-9.096001,-56.520004,inter_set_rest,6,5.0,34996.0,38316.0,85496.0,77654.0,32675.0,47835.0,37628.0,44121.0,21268.0,16374.0
2026-05-06 16:16:58.611212,712335,1609506482020313,4081932517,0.363072,0.072224,0.831552,6.0375,0.07875,-8.636251,-47.776,-9.488001,-54.752003,inter_set_rest,6,5.0,34996.0,38316.0,85496.0,77654.0,32675.0,47835.0,37628.0,44121.0,21268.0,16374.0
2026-05-06 16:16:58.613816,712336,1609506482034854,4081947545,0.363072,0.072224,0.831552,7.25375,-0.21,-8.8725,-47.776,-9.488001,-54.752003,inter_set_rest,6,5.0,34996.0,38316.0,85496.0,77654.0,32675.0,47835.0,37628.0,44121.0,21268.0,16374.0
2026-05-06 16:16:58.616178,712337,1609506482043789,4081956272,0.31232,0.080032,0.769088,9.47625,0.07,-9.975,-47.312004,-9.928,-56.592003,inter_set_rest,6,5.0,34996.0,38316.0,85496.0,77654.0,32675.0,47835.0,37628.0,44121.0,21268.0,16374.0
2026-05-06 16:16:58.673920,712348,1609506482053042,4081965043,0.31232,0.080032,0.769088,11.76,1.33,-10.77125,-47.312004,-9.928,-56.592003,inter_set_rest,6,5.0,35247.0,38610.0,85659.0,77687.0,33074.0,47986.0,37744.0,44135.0,21505.0,16437.0
2026-05-06 16:16:58.676312,712349,1609506482067633,4081980052,0.296704,0.056608,0.763232,14.035,3.47375,-12.06625,-47.696003,-9.56,-56.368004,inter_set_rest,6,5.0,35247.0,38610.0,85659.0,77687.0,33074.0,47986.0,37744.0,44135.0,21505.0,16437.0
2026-05-06 16:16:58.678886,712350,1609506482076560,4081988776,0.296704,0.056608,0.763232,17.10625,6.09,-13.51,-47.696003,-9.56,-56.368004,inter_set_rest,6,5.0,35247.0,38610.0,85659.0,77687.0,33074.0,47986.0,37744.0,44135.0,21505.0,16437.0
2026-05-06 16:16:58.681364,712351,1609506482091208,4082003829,0.261568,0.035136,0.671488,23.24,10.29,-15.96875,-48.112003,-10.360001,-55.824,inter_set_rest,6,5.0,35247.0,38610.0,85659.0,77687.0,33074.0,47986.0,37744.0,44135.0,21505.0,16437.0
2026-05-06 16:16:58.683937,712352,1609506482100261,4082012636,0.242048,0.054656,0.5856,32.0775,15.21625,-17.955,-47.680004,-11.856001,-54.784004,inter_set_rest,6,5.0,35247.0,38610.0,85659.0,77687.0,33074.0,47986.0,37744.0,44135.0,21505.0,16437.0
2026-05-06 16:16:58.688939,712353,1609506482109266,4082021405,0.242048,0.054656,0.5856,38.2725,21.0875,-20.44875,-47.680004,-11.856001,-54.784004,inter_set_rest,6,5.0,35247.0,38610.0,85659.0,77687.0,33074.0,47986.0,37744.0,44135.0,21505.0,16437.0
2026-05-06 16:16:58.691383,712354,1609506482123875,4082036397,0.228384,0.083936,0.548512,43.49625,28.4725,-24.395,-47.488003,-12.096001,-54.304,inter_set_rest,6,5.0,35247.0,38610.0,85659.0,77687.0,33074.0,47986.0,37744.0,44135.0,21505.0,16437.0
2026-05-06 16:16:58.694000,712355,1609506482132871,4082045115,0.228384,0.083936,0.548512,47.22375,36.14625,-29.93375,-47.488003,-12.096001,-54.304,inter_set_rest,6,5.0,35247.0,38610.0,85659.0,77687.0,33074.0,47986.0,37744.0,44135.0,21505.0,16437.0
2026-05-06 16:16:58.752595,712366,1609506482147360,4082059986,0.230336,0.12688,0.368928,48.08125,46.03375,-34.86875,-47.448,-13.040001,-53.216003,inter_set_rest,6,5.0,35597.0,38855.0,86024.0,77583.0,33466.0,48136.0,37938.0,44054.0,21740.0,16521.0
2026-05-06 16:16:58.757635,712367,1609506482156429,4082068806,0.230336,0.12688,0.368928,49.0525,58.485,-39.9,-47.448,-13.040001,-53.216003,inter_set_rest,6,5.0,35597.0,38855.0,86024.0,77583.0,33466.0,48136.0,37938.0,44054.0,21740.0,16521.0
2026-05-06 16:16:58.762436,712368,1609506482170989,4082083762,0.206912,0.134688,0.431392,47.8625,71.715004,-46.92625,-47.088,-12.528001,-53.096,inter_set_rest,6,5.0,35597.0,38855.0,86024.0,77583.0,33466.0,48136.0,37938.0,44054.0,21740.0,16521.0
2026-05-06 16:16:58.765179,712369,1609506482179964,4082092465,0.206912,0.134688,0.509472,46.2,84.2275,-52.29875,-47.088,-12.528001,-53.096,inter_set_rest,6,5.0,35597.0,38855.0,86024.0,77583.0,33466.0,48136.0,37938.0,44054.0,21740.0,16521.0
2026-05-06 16:16:58.767653,712370,1609506482189059,4082101269,0.111264,0.163968,0.505568,44.93125,94.902504,-55.34375,-46.760002,-13.6,-53.160004,inter_set_rest,6,5.0,35597.0,38855.0,86024.0,77583.0,33466.0,48136.0,37938.0,44054.0,21740.0,16521.0
2026-05-06 16:16:58.770251,712371,1609506482203662,4082116214,0.08784,0.201056,0.618784,45.89375,103.1975,-60.03375,-46.2,-14.632001,-49.864002,inter_set_rest,6,5.0,35597.0,38855.0,86024.0,77583.0,33466.0,48136.0,37938.0,44054.0,21740.0,16521.0
2026-05-06 16:16:58.774001,712372,1609506482212599,4082124941,0.08784,0.201056,0.618784,45.465,108.15875,-66.59625,-46.2,-14.632001,-49.864002,inter_set_rest,6,5.0,35597.0,38855.0,86024.0,77583.0,33466.0,48136.0,37938.0,44054.0,21740.0,16521.0
2026-05-06 16:16:58.797463,712373,1609506482227208,4082139907,0.052704,0.199104,0.657824,44.61625,110.71375,-74.45375,-46.104004,-18.112001,-47.480003,inter_set_rest,6,5.0,35597.0,38855.0,86024.0,77583.0,33466.0,48136.0,37938.0,44054.0,21740.0,16521.0
2026-05-06 16:16:58.799862,712374,1609506482236138,4082148692,0.052704,0.199104,0.657824,51.21375,111.86,-82.88875,-46.104004,-18.112001,-47.480003,inter_set_rest,6,5.0,35597.0,38855.0,86024.0,77583.0,33466.0,48136.0,37938.0,44054.0,21740.0,16521.0
2026-05-06 16:16:58.806454,712375,1609506482245167,4082157400,0.046848,0.228384,0.6832,65.09125,112.5075,-91.76125,-44.744003,-18.224,-46.976,inter_set_rest,6,5.0,35597.0,38855.0,86024.0,77583.0,33466.0,48136.0,37938.0,44054.0,21740.0,16521.0
2026-05-06 16:16:58.835047,712386,1609506482259816,4082172422,0.046848,0.228384,0.6832,88.78625,113.085,-96.80125,-44.744003,-18.224,-46.976,inter_set_rest,6,5.0,36110.0,38768.0,86777.0,77065.0,33871.0,48094.0,38293.0,43754.0,22046.0,16521.0
2026-05-06 16:16:58.837531,712387,1609506482268825,4082181161,0.072224,0.366976,0.66368,118.48375,115.38625,-96.10125,-44.424004,-21.864,-45.864002,inter_set_rest,6,5.0,36110.0,38768.0,86777.0,77065.0,33871.0,48094.0,38293.0,43754.0,22046.0,16521.0
2026-05-06 16:16:58.843890,712388,1609506482283344,4082194203,0.001952,0.659776,0.755424,137.83,116.33125,-93.52,-43.416,-24.304,-43.36,inter_set_rest,6,5.0,36110.0,38768.0,86777.0,77065.0,33871.0,48094.0,38293.0,43754.0,22046.0,16521.0
2026-05-06 16:16:58.857600,712389,1609506482292712,4082205003,0.001952,0.659776,0.755424,140.00874,114.8525,-91.4725,-43.416,-24.304,-43.36,inter_set_rest,6,5.0,36110.0,38768.0,86777.0,77065.0,33871.0,48094.0,38293.0,43754.0,22046.0,16521.0
2026-05-06 16:16:58.866419,712390,1609506482301724,4082213766,-0.072224,0.769088,0.79056,132.50125,112.7525,-89.7925,-42.280003,-24.424002,-43.064003,inter_set_rest,6,5.0,36110.0,38768.0,86777.0,77065.0,33871.0,48094.0,38293.0,43754.0,22046.0,16521.0
2026-05-06 16:16:58.880183,712391,1609506482316263,4082228711,-0.072224,0.769088,0.79056,117.92375,112.06125,-90.9475,-42.280003,-24.424002,-43.064003,inter_set_rest,6,5.0,36110.0,38768.0,86777.0,77065.0,33871.0,48094.0,38293.0,43754.0,22046.0,16521.0
2026-05-06 16:16:58.886442,712392,1609506482325230,4082237440,-0.044896,0.767136,0.7808,103.11,113.54875,-94.5875,-40.936,-26.808,-41.008003,inter_set_rest,6,5.0,36110.0,38768.0,86777.0,77065.0,33871.0,48094.0,38293.0,43754.0,22046.0,16521.0
2026-05-06 16:16:58.926278,712393,1609506482339752,4082252372,-0.044896,0.767136,0.7808,88.41875,114.49375,-95.558754,-40.936,-26.808,-41.008003,inter_set_rest,6,5.0,36110.0,38768.0,86777.0,77065.0,33871.0,48094.0,38293.0,43754.0,22046.0,16521.0
2026-05-06 16:16:59.015030,712404,1609506482348684,4082261085,-0.025376,0.704672,0.778848,70.04375,117.08375,-93.695,-40.048,-29.936,-40.056004,inter_set_rest,6,5.0,37311.0,39386.0,88440.0,76517.0,34880.0,48610.0,39069.0,43428.0,22815.0,16801.0
2026-05-06 16:16:59.017508,712405,1609506482363259,4082275991,-0.076128,0.499712,0.903776,52.49125,123.375,-92.0675,-38.088,-29.592001,-40.280003,inter_set_rest,6,5.0,37311.0,39386.0,88440.0,76517.0,34880.0,48610.0,39069.0,43428.0,22815.0,16801.0
2026-05-06 16:16:59.020018,712406,1609506482372186,4082284777,-0.076128,0.499712,0.903776,36.5925,130.62,-93.1875,-38.088,-29.592001,-40.280003,inter_set_rest,6,5.0,37311.0,39386.0,88440.0,76517.0,34880.0,48610.0,39069.0,43428.0,22815.0,16801.0
2026-05-06 16:16:59.022530,712407,1609506482381153,4082293487,-0.076128,0.499712,0.903776,32.06,134.68001,-93.58125,-38.088,-29.592001,-40.280003,inter_set_rest,6,5.0,37311.0,39386.0,88440.0,76517.0,34880.0,48610.0,39069.0,43428.0,22815.0,16801.0
2026-05-06 16:16:59.025053,712408,1609506482395762,4082308478,-0.212768,0.51728,1.079456,30.66,134.505,-90.53625,-36.352,-30.672,-37.272003,inter_set_rest,6,5.0,37311.0,39386.0,88440.0,76517.0,34880.0,48610.0,39069.0,43428.0,22815.0,16801.0
2026-05-06 16:16:59.027519,712409,1609506482404732,4082317176,-0.382592,0.700768,1.136064,30.58125,131.7575,-84.06125,-34.464,-32.0,-36.608,inter_set_rest,6,5.0,37311.0,39386.0,88440.0,76517.0,34880.0,48610.0,39069.0,43428.0,22815.0,16801.0
2026-05-06 16:16:59.029933,712410,1609506482419226,4082330198,-0.382592,0.700768,1.136064,31.26375,127.5225,-78.5225,-34.464,-32.0,-36.608,inter_set_rest,6,5.0,37311.0,39386.0,88440.0,76517.0,34880.0,48610.0,39069.0,43428.0,22815.0,16801.0
2026-05-06 16:16:59.032584,712411,1609506482428648,4082341021,-0.327936,1.159488,1.15168,31.4125,123.62,-71.86375,-33.032,-34.256,-34.04,inter_set_rest,6,5.0,37311.0,39386.0,88440.0,76517.0,34880.0,48610.0,39069.0,43428.0,22815.0,16801.0
2026-05-06 16:16:59.035097,712412,1609506482437550,4082349728,-0.327936,1.159488,1.15168,30.598751,114.6775,-50.00625,-33.032,-34.256,-34.04,inter_set_rest,6,5.0,37311.0,39386.0,88440.0,76517.0,34880.0,48610.0,39069.0,43428.0,22815.0,16801.0
2026-05-06 16:16:59.063758,712423,1609506482452812,4082364742,-0.359168,0.89792,1.106784,2.5725,108.99875,-26.43375,-30.880001,-34.968002,-32.728,inter_set_rest,6,5.0,36597.0,38597.0,87342.0,78381.0,33703.0,47906.0,38529.0,44352.0,22189.0,16595.0
2026-05-06 16:16:59.066463,712424,1609506482461798,4082373490,-0.359168,0.89792,1.106784,-56.315,115.185,-47.1975,-30.880001,-34.968002,-32.728,inter_set_rest,6,5.0,36597.0,38597.0,87342.0,78381.0,33703.0,47906.0,38529.0,44352.0,22189.0,16595.0
2026-05-06 16:16:59.068958,712425,1609506482476504,4082388574,0.203008,0.271328,1.389824,-204.085,83.2475,-115.43,-27.472002,-28.632002,-32.440002,inter_set_rest,6,5.0,36597.0,38597.0,87342.0,78381.0,33703.0,47906.0,38529.0,44352.0,22189.0,16595.0
2026-05-06 16:16:59.071444,712426,1609506482485728,4082397324,-0.01952,-0.817888,1.1712,-43.26,143.1675,-99.02375,-27.776001,-28.28,-27.016,inter_set_rest,6,5.0,36597.0,38597.0,87342.0,78381.0,33703.0,47906.0,38529.0,44352.0,22189.0,16595.0
2026-05-06 16:16:59.073961,712427,1609506482494712,4082406229,-0.01952,-0.817888,1.1712,24.045,81.025,-30.616251,-27.776001,-28.28,-27.016,inter_set_rest,6,5.0,36597.0,38597.0,87342.0,78381.0,33703.0,47906.0,38529.0,44352.0,22189.0,16595.0
2026-05-06 16:16:59.078699,712428,1609506482509250,4082421229,-0.694912,0.630496,0.708576,-3.9725,83.22125,-1.9425,-26.776001,-31.536001,-28.152,inter_set_rest,6,5.0,36597.0,38597.0,87342.0,78381.0,33703.0,47906.0,38529.0,44352.0,22189.0,16595.0
2026-05-06 16:16:59.081216,712429,1609506482518293,4082429946,-0.694912,0.630496,0.708576,170.73875,67.69,-6.965,-26.776001,-31.536001,-28.152,inter_set_rest,6,5.0,36597.0,38597.0,87342.0,78381.0,33703.0,47906.0,38529.0,44352.0,22189.0,16595.0
2026-05-06 16:16:59.094989,712430,1609506482532763,4082444918,-0.772992,0.823744,0.558272,134.2775,66.05375,21.0,-25.04,-33.648003,-28.608002,inter_set_rest,6,5.0,36597.0,38597.0,87342.0,78381.0,33703.0,47906.0,38529.0,44352.0,22189.0,16595.0
2026-05-06 16:16:59.103842,712431,1609506482541832,4082453634,-0.772992,0.823744,0.558272,22.05875,78.30375,-21.41125,-25.04,-33.648003,-28.608002,inter_set_rest,6,5.0,36597.0,38597.0,87342.0,78381.0,33703.0,47906.0,38529.0,44352.0,22189.0,16595.0
2026-05-06 16:16:59.137495,712442,1609506482550768,4082462405,-0.769088,0.466528,1.163392,-14.6825,77.35875,-78.98625,-23.328001,-33.568,-27.896002,inter_set_rest,6,5.0,36116.0,39599.0,87305.0,78943.0,32992.0,48923.0,38296.0,44499.0,21454.0,16803.0
2026-05-06 16:16:59.140175,712443,1609506482566312,4082477406,-0.968192,0.845216,1.465952,-37.625,67.4975,-76.0375,-22.664001,-33.72,-26.808,inter_set_rest,6,5.0,36116.0,39599.0,87305.0,78943.0,32992.0,48923.0,38296.0,44499.0,21454.0,16803.0
2026-05-06 16:16:59.142664,712444,1609506482575588,4082488182,-0.968192,0.845216,1.465952,-21.428751,50.63625,-24.1325,-22.664001,-33.72,-26.808,inter_set_rest,6,5.0,36116.0,39599.0,87305.0,78943.0,32992.0,48923.0,38296.0,44499.0,21454.0,16803.0
2026-05-06 16:16:59.151402,712445,1609506482590127,4082501039,-0.7808,0.521184,0.919392,22.05875,35.93625,28.88375,-22.504002,-35.784,-26.12,inter_set_rest,6,5.0,36116.0,39599.0,87305.0,78943.0,32992.0,48923.0,38296.0,44499.0,21454.0,16803.0
2026-05-06 16:16:59.160160,712446,1609506482599480,4082511906,-0.7808,0.521184,0.919392,29.05,24.255,12.67875,-22.504002,-35.784,-26.12,inter_set_rest,6,5.0,36116.0,39599.0,87305.0,78943.0,32992.0,48923.0,38296.0,44499.0,21454.0,16803.0
2026-05-06 16:16:59.168892,712447,1609506482608444,4082520650,-0.54656,0.152256,0.792512,31.535,19.6875,-21.5775,-22.128,-35.968002,-27.800001,inter_set_rest,6,5.0,36116.0,39599.0,87305.0,78943.0,32992.0,48923.0,38296.0,44499.0,21454.0,16803.0
2026-05-06 16:16:59.194160,712448,1609506482622997,4082535580,-0.54656,0.152256,0.792512,39.36625,18.6375,-25.1825,-22.128,-35.968002,-27.800001,inter_set_rest,6,5.0,36116.0,39599.0,87305.0,78943.0,32992.0,48923.0,38296.0,44499.0,21454.0,16803.0
2026-05-06 16:16:59.196338,712449,1609506482631916,4082544280,-0.491904,0.2928,0.685152,48.37875,20.51,-2.5025,-22.112001,-35.392002,-28.680002,inter_set_rest,6,5.0,36116.0,39599.0,87305.0,78943.0,32992.0,48923.0,38296.0,44499.0,21454.0,16803.0
2026-05-06 16:16:59.210034,712450,1609506482646435,4082557225,-0.52704,0.618784,0.700768,51.2575,22.303751,18.585001,-21.872002,-35.480003,-28.032001,inter_set_rest,6,5.0,36116.0,39599.0,87305.0,78943.0,32992.0,48923.0,38296.0,44499.0,21454.0,16803.0
2026-05-06 16:16:59.237664,712461,1609506482655763,4082568056,-0.52704,0.618784,0.700768,40.8975,23.8175,23.625,-21.872002,-35.480003,-28.032001,inter_set_rest,6,5.0,37946.0,40179.0,87930.0,80095.0,34416.0,49455.0,38624.0,45029.0,22249.0,17058.0
2026-05-06 16:16:59.240198,712462,1609506482664870,4082576813,-0.630496,0.772992,0.618784,24.56125,24.92,17.272501,-22.136002,-38.888,-26.720001,inter_set_rest,6,5.0,37946.0,40179.0,87930.0,80095.0,34416.0,49455.0,38624.0,45029.0,22249.0,17058.0
2026-05-06 16:16:59.242648,712463,1609506482679398,4082591837,-0.630496,0.772992,0.618784,0.0175,26.67,8.37375,-22.136002,-38.888,-26.720001,inter_set_rest,6,5.0,37946.0,40179.0,87930.0,80095.0,34416.0,49455.0,38624.0,45029.0,22249.0,17058.0
2026-05-06 16:16:59.251442,712464,1609506482688314,4082600642,-0.657824,0.638304,0.554368,-24.1325,29.925,4.82125,-21.632002,-38.264,-26.568,inter_set_rest,6,5.0,37946.0,40179.0,87930.0,80095.0,34416.0,49455.0,38624.0,45029.0,22249.0,17058.0
2026-05-06 16:16:59.289477,712465,1609506482702836,4082613602,-0.657824,0.638304,0.554368,-40.6875,30.8875,5.67875,-21.632002,-38.264,-26.568,inter_set_rest,6,5.0,37946.0,40179.0,87930.0,80095.0,34416.0,49455.0,38624.0,45029.0,22249.0,17058.0
2026-05-06 16:16:59.312497,712466,1609506482712022,4082624362,-0.64416,0.54656,0.491904,-44.49375,27.536251,-3.26375,-21.12,-34.440002,-27.168001,inter_set_rest,6,5.0,37946.0,40179.0,87930.0,80095.0,34416.0,49455.0,38624.0,45029.0,22249.0,17058.0
2026-05-06 16:16:59.337640,712467,1609506482720973,4082633188,-0.64416,0.54656,0.491904,-41.3175,23.40625,4.64625,-21.12,-34.440002,-27.168001,inter_set_rest,6,5.0,37946.0,40179.0,87930.0,80095.0,34416.0,49455.0,38624.0,45029.0,22249.0,17058.0
2026-05-06 16:16:59.347692,712468,1609506482735569,4082648085,-0.587552,0.569984,0.544608,-37.1525,19.2325,20.615,-21.128,-34.0,-26.752,inter_set_rest,6,5.0,37946.0,40179.0,87930.0,80095.0,34416.0,49455.0,38624.0,45029.0,22249.0,17058.0
2026-05-06 16:16:59.350168,712469,1609506482744499,4082656779,-0.587552,0.50752,0.659776,-36.47,15.33875,26.99375,-21.128,-34.0,-26.752,inter_set_rest,6,5.0,37946.0,40179.0,87930.0,80095.0,34416.0,49455.0,38624.0,45029.0,22249.0,17058.0
2026-05-06 16:16:59.377417,712480,1609506482759159,4082671897,-0.564128,0.511424,0.659776,-38.78,10.50875,23.6775,-21.072,-33.184002,-26.720001,inter_set_rest,6,5.0,37025.0,39468.0,87215.0,80547.0,33593.0,48693.0,38361.0,45277.0,21783.0,16763.0
2026-05-06 16:16:59.380190,712481,1609506482768117,4082680700,-0.554368,0.386496,0.71248,-37.40625,7.315,15.5575,-21.384,-32.960003,-26.152,inter_set_rest,6,5.0,37025.0,39468.0,87215.0,80547.0,33593.0,48693.0,38361.0,45277.0,21783.0,16763.0
2026-05-06 16:16:59.385302,712482,1609506482777113,4082689370,-0.554368,0.386496,0.71248,-27.7025,2.765,8.8025,-21.384,-32.960003,-26.152,inter_set_rest,6,5.0,37025.0,39468.0,87215.0,80547.0,33593.0,48693.0,38361.0,45277.0,21783.0,16763.0
2026-05-06 16:16:59.386624,712483,1609506482791576,4082704366,-0.52704,0.394304,0.757376,-13.02,-3.6225,7.13125,-21.352001,-33.096,-26.648,inter_set_rest,6,5.0,37025.0,39468.0,87215.0,80547.0,33593.0,48693.0,38361.0,45277.0,21783.0,16763.0
2026-05-06 16:16:59.389777,712484,1609506482800561,4082713075,-0.52704,0.394304,0.757376,-0.07,-6.4925,6.965,-21.352001,-33.096,-26.648,inter_set_rest,6,5.0,37025.0,39468.0,87215.0,80547.0,33593.0,48693.0,38361.0,45277.0,21783.0,16763.0
2026-05-06 16:16:59.392482,712485,1609506482815171,4082725987,-0.528992,0.427488,0.77104,19.1275,-7.2975,6.95625,-21.464,-33.624,-26.848001,inter_set_rest,6,5.0,37025.0,39468.0,87215.0,80547.0,33593.0,48693.0,38361.0,45277.0,21783.0,16763.0
2026-05-06 16:16:59.395020,712486,1609506482824607,4082736805,-0.528992,0.427488,0.77104,34.99125,-9.47625,7.9275,-21.464,-33.624,-26.848001,inter_set_rest,6,5.0,37025.0,39468.0,87215.0,80547.0,33593.0,48693.0,38361.0,45277.0,21783.0,16763.0
2026-05-06 16:16:59.401270,712487,1609506482839108,4082751779,-0.558272,0.489952,0.72224,36.1025,-8.54,8.16375,-21.904001,-33.768,-27.872002,inter_set_rest,6,5.0,37025.0,39468.0,87215.0,80547.0,33593.0,48693.0,38361.0,45277.0,21783.0,16763.0
2026-05-06 16:16:59.410048,712488,1609506482848041,4082760485,-0.515328,0.501664,0.737856,28.49875,-9.275,8.81125,-22.064001,-34.288002,-27.528002,inter_set_rest,6,5.0,37025.0,39468.0,87215.0,80547.0,33593.0,48693.0,38361.0,45277.0,21783.0,16763.0
2026-05-06 16:16:59.441399,712499,1609506482857179,4082769307,-0.515328,0.501664,0.737856,17.35125,-10.59625,5.90625,-22.064001,-34.288002,-27.528002,inter_set_rest,6,5.0,36795.0,39510.0,87466.0,80503.0,33375.0,48697.0,38475.0,45165.0,21645.0,16738.0
2026-05-06 16:16:59.443982,712500,1609506482871885,4082784265,-0.499712,0.466528,0.700768,10.26375,-9.52875,-0.76125,-22.608002,-37.664,-25.952002,inter_set_rest,6,5.0,36795.0,39510.0,87466.0,80503.0,33375.0,48697.0,38475.0,45165.0,21645.0,16738.0
