pc_time,serial_num,sensor_ts,host_ts,ax,ay,az,gx,gy,gz,mx,my,mz,phase,rpe,weight_kg,ppg_a,ppg_b,ppg_c,ppg_d,ppg_e,ppg_f,ppg_g,ppg_h,ppg_i,ppg_j
2026-05-06 16:39:58.921653,972064,1609507862229562,5462140569,0.732,0.228384,0.573888,-10.3775,-5.7925,-14.245,-42.216003,4.656,-70.784004,concentric,4,5.0,29119.0,34017.0,90385.0,91248.0,25659.0,41772.0,39789.0,51445.0,17434.0,14201.0
2026-05-06 16:39:58.924341,972065,1609507862238751,5462151424,0.72224,0.275232,0.538752,-8.53125,-4.83875,-10.045,-41.928,2.72,-68.48801,concentric,4,5.0,29119.0,34017.0,90385.0,91248.0,25659.0,41772.0,39789.0,51445.0,17434.0,14201.0
2026-05-06 16:39:58.926813,972066,1609507862247721,5462160232,0.72224,0.275232,0.538752,-5.45125,-4.41875,-8.51375,-41.928,2.72,-68.48801,concentric,4,5.0,29119.0,34017.0,90385.0,91248.0,25659.0,41772.0,39789.0,51445.0,17434.0,14201.0
2026-05-06 16:39:58.929317,972067,1609507862262281,5462173100,0.687104,0.240096,0.480192,-4.99625,-4.54125,-8.86375,-42.088,1.584,-68.456,concentric,4,5.0,29119.0,34017.0,90385.0,91248.0,25659.0,41772.0,39789.0,51445.0,17434.0,14201.0
2026-05-06 16:39:58.931853,972068,1609507862271552,5462183857,0.687104,0.240096,0.480192,-4.13875,-4.27875,-6.99125,-42.088,1.584,-68.456,concentric,4,5.0,29119.0,34017.0,90385.0,91248.0,25659.0,41772.0,39789.0,51445.0,17434.0,14201.0
2026-05-06 16:39:58.934144,972069,1609507862286113,5462198824,0.6832,0.244,0.513376,0.07875,-5.41625,-4.0425,-41.976,5.112001,-70.664,concentric,4,5.0,29119.0,34017.0,90385.0,91248.0,25659.0,41772.0,39789.0,51445.0,17434.0,14201.0
2026-05-06 16:39:58.936787,972070,1609507862295032,5462207520,0.632448,0.265472,0.47824,2.7125,-6.51,-1.70625,-41.896004,5.368,-71.768005,concentric,4,5.0,29119.0,34017.0,90385.0,91248.0,25659.0,41772.0,39789.0,51445.0,17434.0,14201.0
2026-05-06 16:39:58.939292,972071,1609507862303973,5462216224,0.632448,0.265472,0.47824,0.84,-6.04625,-2.21375,-41.896004,5.368,-71.768005,concentric,4,5.0,29119.0,34017.0,90385.0,91248.0,25659.0,41772.0,39789.0,51445.0,17434.0,14201.0
2026-05-06 16:39:58.941789,972072,1609507862318533,5462231199,0.675392,0.27328,0.528992,3.6575,-5.13625,-2.40625,-41.960003,5.432,-70.912,concentric,4,5.0,29119.0,34017.0,90385.0,91248.0,25659.0,41772.0,39789.0,51445.0,17434.0,14201.0
2026-05-06 16:39:58.944356,972073,1609507862327451,5462239938,0.675392,0.27328,0.528992,5.635,-4.96125,-4.24375,-41.960003,5.432,-70.912,concentric,4,5.0,29119.0,34017.0,90385.0,91248.0,25659.0,41772.0,39789.0,51445.0,17434.0,14201.0
2026-05-06 16:39:58.974248,972084,1609507862342098,5462252995,0.651968,0.191296,0.495808,4.0425,-4.1475,-5.39875,-41.672,3.776,-69.44,concentric,4,5.0,29039.0,33920.0,90162.0,91067.0,25566.0,41703.0,39702.0,51391.0,17407.0,14173.0
2026-05-06 16:39:58.976727,972085,1609507862351766,5462263854,0.651968,0.191296,0.495808,5.67,-3.2025,-4.62875,-41.672,3.776,-69.44,concentric,4,5.0,29039.0,33920.0,90162.0,91067.0,25566.0,41703.0,39702.0,51391.0,17407.0,14173.0
2026-05-06 16:39:58.979253,972086,1609507862360722,5462272659,0.661728,0.279136,0.486048,9.8,-1.9775,-0.98875,-42.024002,3.6,-69.984,concentric,4,5.0,29039.0,33920.0,90162.0,91067.0,25566.0,41703.0,39702.0,51391.0,17407.0,14173.0
2026-05-06 16:39:58.993014,972087,1609507862375234,5462287657,0.677344,0.251808,0.552416,12.4075,-0.79625,0.0875,-42.024002,3.6,-68.672005,concentric,4,5.0,29039.0,33920.0,90162.0,91067.0,25566.0,41703.0,39702.0,51391.0,17407.0,14173.0
2026-05-06 16:39:59.001764,972088,1609507862384178,5462296348,0.679296,0.251808,0.552416,12.20625,1.3475,-0.48125,-42.000004,5.464,-68.672005,concentric,4,5.0,29039.0,33920.0,90162.0,91067.0,25566.0,41703.0,39702.0,51391.0,17407.0,14173.0
2026-05-06 16:39:59.015539,972089,1609507862398791,5462311254,0.70272,0.271328,0.519232,10.255,3.21125,-2.3975,-41.72,5.336,-70.600006,concentric,4,5.0,29039.0,33920.0,90162.0,91067.0,25566.0,41703.0,39702.0,51391.0,17407.0,14173.0
2026-05-06 16:39:59.024330,972090,1609507862407948,5462319996,0.70272,0.271328,0.519232,7.595,5.18875,-2.19625,-41.72,5.336,-70.600006,concentric,4,5.0,29039.0,33920.0,90162.0,91067.0,25566.0,41703.0,39702.0,51391.0,17407.0,14173.0
2026-05-06 16:39:59.034744,972091,1609507862416867,5462328747,0.759328,0.343552,0.521184,9.38875,6.25625,-2.5725,-41.776,2.728,-68.712006,concentric,4,5.0,29039.0,33920.0,90162.0,91067.0,25566.0,41703.0,39702.0,51391.0,17407.0,14173.0
2026-05-06 16:39:59.071554,972102,1609507862431826,5462343744,0.759328,0.343552,0.521184,10.386251,7.11375,-7.09625,-41.776,2.728,-68.712006,concentric,4,5.0,29005.0,33828.0,90195.0,91571.0,25548.0,41614.0,39713.0,51636.0,17372.0,14130.0
2026-05-06 16:39:59.074041,972103,1609507862441162,5462352517,0.749568,0.284992,0.540704,10.9025,8.67125,-12.17125,-42.224003,4.552,-69.90401,concentric,4,5.0,29005.0,33828.0,90195.0,91571.0,25548.0,41614.0,39713.0,51636.0,17372.0,14130.0
2026-05-06 16:39:59.076850,972104,1609507862455728,5462367551,0.749568,0.267424,0.571936,14.13125,10.955,-15.8025,-42.224003,4.552,-67.856,concentric,4,5.0,29005.0,33828.0,90195.0,91571.0,25548.0,41614.0,39713.0,51636.0,17372.0,14130.0
2026-05-06 16:39:59.079356,972105,1609507862464682,5462376293,0.769088,0.267424,0.571936,15.70625,12.55625,-16.94,-42.584003,1.72,-67.824005,concentric,4,5.0,29005.0,33828.0,90195.0,91571.0,25548.0,41614.0,39713.0,51636.0,17372.0,14130.0
2026-05-06 16:39:59.093055,972106,1609507862473621,5462385004,0.769088,0.267424,0.571936,13.95625,14.86625,-15.21625,-42.584003,1.72,-67.824005,concentric,4,5.0,29005.0,33828.0,90195.0,91571.0,25548.0,41614.0,39713.0,51636.0,17372.0,14130.0
2026-05-06 16:39:59.130765,972107,1609507862488148,5462399930,0.74176,0.298656,0.548512,9.345,16.94,-13.02,-41.968002,5.176,-69.848,concentric,4,5.0,29005.0,33828.0,90195.0,91571.0,25548.0,41614.0,39713.0,51636.0,17372.0,14130.0
2026-05-06 16:39:59.131182,972108,1609507862497052,5462408707,0.747616,0.244,0.460672,0.735,19.50375,-11.13,-42.216003,4.888,-69.632,concentric,4,5.0,29005.0,33828.0,90195.0,91571.0,25548.0,41614.0,39713.0,51636.0,17372.0,14130.0
2026-05-06 16:39:59.135459,972109,1609507862511532,5462423766,0.747616,0.244,0.460672,-5.075,20.23875,-8.86375,-42.216003,4.888,-69.632,concentric,4,5.0,29005.0,33828.0,90195.0,91571.0,25548.0,41614.0,39713.0,51636.0,17372.0,14130.0
2026-05-06 16:39:59.139764,972110,1609507862520551,5462432504,0.675392,0.310368,0.450912,0.69125,18.795,-5.34625,-42.448,4.808,-69.216,concentric,4,5.0,29005.0,33828.0,90195.0,91571.0,25548.0,41614.0,39713.0,51636.0,17372.0,14130.0
2026-05-06 16:39:59.171767,972121,1609507862535346,5462447498,0.675392,0.310368,0.450912,11.480001,17.14125,-0.81375,-42.448,4.808,-69.216,concentric,4,5.0,29114.0,33874.0,90067.0,91512.0,25611.0,41657.0,39637.0,51613.0,17444.0,14159.0
2026-05-06 16:39:59.174186,972122,1609507862544304,5462456232,0.66368,0.325984,0.488,16.178751,16.21375,0.49,-42.248,5.456,-68.512,concentric,4,5.0,29114.0,33874.0,90067.0,91512.0,25611.0,41657.0,39637.0,51613.0,17444.0,14159.0
2026-05-06 16:39:59.176880,972123,1609507862553375,5462465112,0.66368,0.325984,0.488,9.2575,15.2775,-0.63875,-42.248,5.456,-68.512,concentric,4,5.0,29114.0,33874.0,90067.0,91512.0,25611.0,41657.0,39637.0,51613.0,17444.0,14159.0
2026-05-06 16:39:59.185652,972124,1609507862567929,5462480111,0.65392,0.284992,0.464576,0.42,15.65375,0.9275,-42.488003,2.984,-68.44,concentric,4,5.0,29114.0,33874.0,90067.0,91512.0,25611.0,41657.0,39637.0,51613.0,17444.0,14159.0
2026-05-06 16:39:59.194419,972125,1609507862576848,5462488837,0.646112,0.296704,0.470432,-3.54375,15.54875,1.86375,-42.488003,3.456,-67.176,concentric,4,5.0,29114.0,33874.0,90067.0,91512.0,25611.0,41657.0,39637.0,51613.0,17444.0,14159.0
2026-05-06 16:39:59.207940,972126,1609507862591538,5462503884,0.646112,0.296704,0.470432,-3.64875,15.58375,3.52625,-42.536003,3.456,-67.176,concentric,4,5.0,29114.0,33874.0,90067.0,91512.0,25611.0,41657.0,39637.0,51613.0,17444.0,14159.0
2026-05-06 16:39:59.224603,972127,1609507862600503,5462512586,0.6344,0.279136,0.462624,-1.00625,16.31875,4.13875,-42.384003,5.08,-67.848,concentric,4,5.0,29114.0,33874.0,90067.0,91512.0,25611.0,41657.0,39637.0,51613.0,17444.0,14159.0
2026-05-06 16:39:59.224972,972128,1609507862609474,5462521300,0.6344,0.279136,0.462624,3.36,17.0275,3.75375,-42.384003,5.08,-67.848,concentric,4,5.0,29114.0,33874.0,90067.0,91512.0,25611.0,41657.0,39637.0,51613.0,17444.0,14159.0
2026-05-06 16:39:59.257988,972129,1609507862624003,5462536219,0.650016,0.284992,0.515328,5.85375,17.52625,3.22875,-42.784,5.656,-68.136,concentric,4,5.0,29114.0,33874.0,90067.0,91512.0,25611.0,41657.0,39637.0,51613.0,17444.0,14159.0
2026-05-06 16:39:59.318514,972140,1609507862633015,5462545004,0.650016,0.284992,0.515328,7.53375,17.815,2.84375,-42.784,5.656,-68.136,concentric,4,5.0,28958.0,33769.0,89898.0,91548.0,25456.0,41463.0,39548.0,51607.0,17349.0,14078.0
2026-05-06 16:39:59.318875,972141,1609507862647598,5462559993,0.632448,0.296704,0.50752,9.135,16.80875,3.22875,-42.408,5.552,-67.528,concentric,4,5.0,28958.0,33769.0,89898.0,91548.0,25456.0,41463.0,39548.0,51607.0,17349.0,14078.0
2026-05-06 16:39:59.320202,972142,1609507862656591,5462568721,0.632448,0.296704,0.50752,7.7525,15.18125,2.94875,-42.408,5.552,-67.528,concentric,4,5.0,28958.0,33769.0,89898.0,91548.0,25456.0,41463.0,39548.0,51607.0,17349.0,14078.0
2026-05-06 16:39:59.324638,972143,1609507862671114,5462583641,0.591456,0.259616,0.394304,2.61625,15.015,1.89,-42.856003,5.8,-67.376,concentric,4,5.0,28958.0,33769.0,89898.0,91548.0,25456.0,41463.0,39548.0,51607.0,17349.0,14078.0
2026-05-06 16:39:59.325597,972144,1609507862680207,5462592337,0.657824,0.279136,0.528992,0.07875,16.7475,0.95375,-42.432003,5.976,-67.048004,concentric,4,5.0,28958.0,33769.0,89898.0,91548.0,25456.0,41463.0,39548.0,51607.0,17349.0,14078.0
2026-05-06 16:39:59.327575,972145,1609507862689334,5462601138,0.657824,0.279136,0.528992,3.605,16.397501,3.6225,-42.432003,5.976,-67.048004,concentric,4,5.0,28958.0,33769.0,89898.0,91548.0,25456.0,41463.0,39548.0,51607.0,17349.0,14078.0
2026-05-06 16:39:59.330380,972146,1609507862703907,5462616185,0.669536,0.269376,0.4392,14.06125,13.64125,5.7225,-42.504,4.312,-65.624,concentric,4,5.0,28958.0,33769.0,89898.0,91548.0,25456.0,41463.0,39548.0,51607.0,17349.0,14078.0
2026-05-06 16:39:59.332812,972147,1609507862712857,5462624902,0.669536,0.269376,0.4392,27.57125,8.37375,8.07625,-42.504,4.312,-65.624,concentric,4,5.0,28958.0,33769.0,89898.0,91548.0,25456.0,41463.0,39548.0,51607.0,17349.0,14078.0
2026-05-06 16:39:59.345570,972148,1609507862727352,5462639895,0.651968,0.247904,0.550464,25.66375,3.9375,9.03,-42.408,5.92,-66.576004,concentric,4,5.0,28958.0,33769.0,89898.0,91548.0,25456.0,41463.0,39548.0,51607.0,17349.0,14078.0
2026-05-06 16:39:59.373121,972159,1609507862736427,5462649345,0.651968,0.247904,0.550464,7.74375,-0.0875,10.26375,-42.408,5.92,-66.576004,concentric,4,5.0,28964.0,33720.0,89697.0,91862.0,25471.0,41426.0,39422.0,51752.0,17359.0,14063.0
2026-05-06 16:39:59.375791,972160,1609507862745519,5462656366,0.640256,0.226432,0.445056,-10.4125,-2.415,12.17125,-42.36,6.032,-66.464005,concentric,4,5.0,28964.0,33720.0,89697.0,91862.0,25471.0,41426.0,39422.0,51752.0,17359.0,14063.0
2026-05-06 16:39:59.378150,972161,1609507862760554,5462671343,0.626592,0.255712,0.470432,-17.43,-4.515,13.90375,-42.256,6.976,-67.240005,concentric,4,5.0,28964.0,33720.0,89697.0,91862.0,25471.0,41426.0,39422.0,51752.0,17359.0,14063.0
2026-05-06 16:39:59.386923,972162,1609507862769845,5462682125,0.626592,0.255712,0.470432,-13.440001,-6.5625,19.25,-42.256,6.976,-67.240005,concentric,4,5.0,28964.0,33720.0,89697.0,91862.0,25471.0,41426.0,39422.0,51752.0,17359.0,14063.0
2026-05-06 16:39:59.400466,972163,1609507862784373,5462697085,0.632448,0.277184,0.421632,-9.96625,-7.7525,20.4925,-42.136,3.936,-65.088005,concentric,4,5.0,28964.0,33720.0,89697.0,91862.0,25471.0,41426.0,39422.0,51752.0,17359.0,14063.0
2026-05-06 16:39:59.409401,972164,1609507862793274,5462705814,0.632448,0.277184,0.421632,-4.33125,-9.730001,21.035,-42.136,3.936,-65.088005,concentric,4,5.0,28964.0,33720.0,89697.0,91862.0,25471.0,41426.0,39422.0,51752.0,17359.0,14063.0
2026-05-06 16:39:59.423067,972165,1609507862802203,5462714527,0.648064,0.247904,0.470432,4.76,-11.80375,20.6675,-41.24,7.496,-67.144005,concentric,4,5.0,28964.0,33720.0,89697.0,91862.0,25471.0,41426.0,39422.0,51752.0,17359.0,14063.0
2026-05-06 16:39:59.436735,972166,1609507862816712,5462727494,0.648064,0.247904,0.470432,6.46625,-14.65625,19.34625,-41.24,7.496,-67.144005,concentric,4,5.0,28964.0,33720.0,89697.0,91862.0,25471.0,41426.0,39422.0,51752.0,17359.0,14063.0
2026-05-06 16:39:59.446835,972167,1609507862826017,5462738298,0.618784,0.240096,0.489952,3.92875,-15.39125,18.41875,-41.704002,7.816001,-65.75201,concentric,4,5.0,28964.0,33720.0,89697.0,91862.0,25471.0,41426.0,39422.0,51752.0,17359.0,14063.0
2026-05-06 16:39:59.474193,972178,1609507862840595,5462751449,0.616832,0.265472,0.491904,-0.86625,-13.83375,16.73,-41.672,7.032001,-68.328,concentric,4,5.0,28939.0,33691.0,89535.0,91524.0,25420.0,41412.0,39376.0,51606.0,17344.0,14065.0
2026-05-06 16:39:59.476642,972179,1609507862849945,5462762299,0.616832,0.265472,0.491904,-6.85125,-11.31375,15.8725,-41.672,7.032001,-68.328,concentric,4,5.0,28939.0,33691.0,89535.0,91524.0,25420.0,41412.0,39376.0,51606.0,17344.0,14065.0
2026-05-06 16:39:59.479360,972180,1609507862858922,5462771020,0.638304,0.286944,0.501664,-6.7725,-9.14375,14.21,-41.672,6.960001,-67.192,concentric,4,5.0,28939.0,33691.0,89535.0,91524.0,25420.0,41412.0,39376.0,51606.0,17344.0,14065.0
2026-05-06 16:39:59.492885,972181,1609507862873502,5462785964,0.638304,0.286944,0.501664,-1.70625,-8.5925,13.95625,-41.448,6.960001,-67.192,concentric,4,5.0,28939.0,33691.0,89535.0,91524.0,25420.0,41412.0,39376.0,51606.0,17344.0,14065.0
2026-05-06 16:39:59.502479,972182,1609507862882458,5462794678,0.638304,0.25376,0.470432,2.2225,-7.875,12.11,-41.320004,7.312,-67.864006,concentric,4,5.0,28939.0,33691.0,89535.0,91524.0,25420.0,41412.0,39376.0,51606.0,17344.0,14065.0
2026-05-06 16:39:59.512930,972183,1609507862897038,5462809708,0.638304,0.25376,0.470432,1.61,-6.8425,10.1325,-41.320004,7.312,-67.864006,concentric,4,5.0,28939.0,33691.0,89535.0,91524.0,25420.0,41412.0,39376.0,51606.0,17344.0,14065.0
2026-05-06 16:39:59.526741,972184,1609507862905978,5462818437,0.564128,0.220576,0.460672,-1.82,-4.0775,8.75875,-41.440002,8.8,-65.72,concentric,4,5.0,28939.0,33691.0,89535.0,91524.0,25420.0,41412.0,39376.0,51606.0,17344.0,14065.0
2026-05-06 16:39:59.532970,972185,1609507862914960,5462827124,0.564128,0.220576,0.460672,-4.50625,0.1225,9.52875,-41.440002,8.8,-65.72,concentric,4,5.0,28939.0,33691.0,89535.0,91524.0,25420.0,41412.0,39376.0,51606.0,17344.0,14065.0
2026-05-06 16:39:59.549049,972186,1609507862929596,5462842172,0.591456,0.255712,0.407968,-5.2325,3.64,9.59,-41.576,9.480001,-67.384,concentric,4,5.0,28939.0,33691.0,89535.0,91524.0,25420.0,41412.0,39376.0,51606.0,17344.0,14065.0
2026-05-06 16:39:59.576634,972197,1609507862938699,5462850984,0.591456,0.255712,0.407968,-5.59125,6.5275,8.96875,-41.576,9.480001,-67.384,concentric,4,5.0,29104.0,33888.0,89780.0,91122.0,25626.0,41649.0,39472.0,51408.0,17458.0,14166.0
2026-05-06 16:39:59.579139,972198,1609507862953376,5462865944,0.610976,0.31232,0.42944,-6.48375,7.2275,8.5925,-41.424004,9.568001,-69.496,concentric,4,5.0,29104.0,33888.0,89780.0,91122.0,25626.0,41649.0,39472.0,51408.0,17458.0,14166.0
2026-05-06 16:39:59.581554,972199,1609507862962305,5462874664,0.591456,0.28304,0.44896,-7.56,7.30625,6.60625,-41.088,9.928,-67.208,concentric,4,5.0,29104.0,33888.0,89780.0,91122.0,25626.0,41649.0,39472.0,51408.0,17458.0,14166.0
2026-05-06 16:39:59.595472,972200,1609507862976859,5462887704,0.591456,0.28304,0.44896,-3.24625,6.71125,6.46625,-41.088,9.928,-67.208,concentric,4,5.0,29104.0,33888.0,89780.0,91122.0,25626.0,41649.0,39472.0,51408.0,17458.0,14166.0
2026-05-06 16:39:59.622922,972201,1609507862986129,5462898505,0.593408,0.267424,0.499712,-0.95375,6.09875,5.4775,-41.280003,10.240001,-67.456,concentric,4,5.0,29104.0,33888.0,89780.0,91122.0,25626.0,41649.0,39472.0,51408.0,17458.0,14166.0
2026-05-06 16:39:59.647901,972202,1609507862995074,5462907190,0.593408,0.267424,0.499712,-4.24375,5.38125,5.6,-41.280003,10.240001,-67.456,concentric,4,5.0,29104.0,33888.0,89780.0,91122.0,25626.0,41649.0,39472.0,51408.0,17458.0,14166.0
2026-05-06 16:39:59.670358,972203,1609507863009675,5462922083,0.626592,0.222528,0.421632,-11.795,3.3425,5.80125,-40.968002,9.92,-67.088005,concentric,4,5.0,29104.0,33888.0,89780.0,91122.0,25626.0,41649.0,39472.0,51408.0,17458.0,14166.0
2026-05-06 16:39:59.672772,972204,1609507863018571,5462930803,0.626592,0.222528,0.421632,-18.3925,2.625,6.8775,-40.968002,9.92,-67.088005,concentric,4,5.0,29104.0,33888.0,89780.0,91122.0,25626.0,41649.0,39472.0,51408.0,17458.0,14166.0
2026-05-06 16:39:59.700249,972215,1609507863033074,5462945763,0.62464,0.242048,0.454816,-19.0925,1.44375,10.85,-41.280003,10.888001,-68.22401,concentric,4,5.0,29090.0,33873.0,90077.0,91060.0,25581.0,41614.0,39656.0,51407.0,17443.0,14138.0
2026-05-06 16:39:59.705408,972216,1609507863042112,5462954526,0.636352,0.290848,0.40016,-19.25875,-0.98875,10.85,-40.888,8.472,-66.344,concentric,4,5.0,29090.0,33873.0,90077.0,91060.0,25581.0,41614.0,39656.0,51407.0,17443.0,14138.0
2026-05-06 16:39:59.705857,972217,1609507863051064,5462963234,0.636352,0.290848,0.40016,-21.5425,-3.675,9.93125,-40.888,8.472,-66.344,concentric,4,5.0,29090.0,33873.0,90077.0,91060.0,25581.0,41614.0,39656.0,51407.0,17443.0,14138.0
2026-05-06 16:39:59.707943,972218,1609507863065589,5462978158,0.648064,0.236192,0.447008,-20.44875,-6.1775,6.65875,-41.216003,10.584001,-67.840004,concentric,4,5.0,29090.0,33873.0,90077.0,91060.0,25581.0,41614.0,39656.0,51407.0,17443.0,14138.0
2026-05-06 16:39:59.710216,972219,1609507863074535,5462986954,0.648064,0.236192,0.447008,-15.9075,-8.82,3.36,-41.216003,10.584001,-67.840004,concentric,4,5.0,29090.0,33873.0,90077.0,91060.0,25581.0,41614.0,39656.0,51407.0,17443.0,14138.0
2026-05-06 16:39:59.712831,972220,1609507863089104,5462999972,0.66368,0.203008,0.540704,-13.93,-9.7825,1.225,-41.688004,10.424001,-67.568,concentric,4,5.0,29090.0,33873.0,90077.0,91060.0,25581.0,41614.0,39656.0,51407.0,17443.0,14138.0
2026-05-06 16:39:59.715105,972221,1609507863098440,5463010893,0.66368,0.203008,0.540704,-17.36875,-9.52,-0.60375,-41.688004,10.424001,-67.568,concentric,4,5.0,29090.0,33873.0,90077.0,91060.0,25581.0,41614.0,39656.0,51407.0,17443.0,14138.0
2026-05-06 16:39:59.724103,972222,1609507863107622,5463019613,0.681248,0.244,0.484096,-23.7475,-7.06125,-2.45,-41.624,11.168,-67.528,concentric,4,5.0,29090.0,33873.0,90077.0,91060.0,25581.0,41614.0,39656.0,51407.0,17443.0,14138.0
2026-05-06 16:39:59.768013,972223,1609507863122251,5463034663,0.667584,0.208864,0.528992,-23.275,-4.03375,-4.83875,-41.344,11.216001,-68.48801,concentric,4,5.0,29090.0,33873.0,90077.0,91060.0,25581.0,41614.0,39656.0,51407.0,17443.0,14138.0
2026-05-06 16:39:59.770654,972224,1609507863131207,5463043408,0.667584,0.208864,0.528992,-16.56375,-3.2375,-6.53625,-41.344,11.216001,-68.48801,concentric,4,5.0,29090.0,33873.0,90077.0,91060.0,25581.0,41614.0,39656.0,51407.0,17443.0,14138.0
2026-05-06 16:39:59.797852,972235,1609507863145845,5463058476,0.728096,0.236192,0.55632,-8.2775,-3.50875,-7.32375,-41.424004,10.664001,-68.0,concentric,4,5.0,29070.0,33905.0,90467.0,91176.0,25559.0,41617.0,39848.0,51446.0,17416.0,14146.0
2026-05-06 16:39:59.800349,972236,1609507863154770,5463067187,0.728096,0.236192,0.55632,-3.56125,-3.66625,-8.3475,-41.424004,10.664001,-68.0,concentric,4,5.0,29070.0,33905.0,90467.0,91176.0,25559.0,41617.0,39848.0,51446.0,17416.0,14146.0
2026-05-06 16:39:59.802934,972237,1609507863169271,5463080153,0.694912,0.208864,0.476288,-1.37375,-1.96,-9.24,-41.888,11.192,-68.12,concentric,4,5.0,29070.0,33905.0,90467.0,91176.0,25559.0,41617.0,39848.0,51446.0,17416.0,14146.0
2026-05-06 16:39:59.805494,972238,1609507863178609,5463090948,0.694912,0.208864,0.476288,-2.65125,0.8225,-14.0875,-41.888,11.192,-68.12,concentric,4,5.0,29070.0,33905.0,90467.0,91176.0,25559.0,41617.0,39848.0,51446.0,17416.0,14146.0
2026-05-06 16:39:59.807998,972239,1609507863187682,5463099750,0.732,0.325984,0.552416,-5.4775,2.6425,-16.975,-42.208,10.848001,-65.824005,concentric,4,5.0,29070.0,33905.0,90467.0,91176.0,25559.0,41617.0,39848.0,51446.0,17416.0,14146.0
2026-05-06 16:39:59.821552,972240,1609507863202385,5463114783,0.776896,0.33184,0.509472,3.0625,2.135,-15.225,-42.312,9.64,-64.736,concentric,4,5.0,29070.0,33905.0,90467.0,91176.0,25559.0,41617.0,39848.0,51446.0,17416.0,14146.0
2026-05-06 16:39:59.827998,972241,1609507863211356,5463123494,0.776896,0.33184,0.509472,7.1575,0.175,-20.43125,-42.312,9.64,-64.736,concentric,4,5.0,29070.0,33905.0,90467.0,91176.0,25559.0,41617.0,39848.0,51446.0,17416.0,14146.0
2026-05-06 16:39:59.861912,972242,1609507863225848,5463138422,0.759328,0.158112,0.532896,5.005,-0.315,-24.45625,-42.448,9.464001,-67.672005,concentric,4,5.0,29070.0,33905.0,90467.0,91176.0,25559.0,41617.0,39848.0,51446.0,17416.0,14146.0
2026-05-06 16:39:59.893424,972253,1609507863234779,5463147138,0.759328,0.158112,0.532896,4.12125,-0.875,-22.960001,-42.448,9.464001,-67.672005,concentric,4,5.0,29077.0,33886.0,90978.0,91093.0,25568.0,41541.0,40072.0,51393.0,17396.0,14091.0
2026-05-06 16:39:59.895095,972254,1609507863244163,5463155862,0.728096,0.38064,0.462624,9.17875,-1.93375,-17.87625,-42.544003,10.184,-67.256004,concentric,4,5.0,29077.0,33886.0,90978.0,91093.0,25568.0,41541.0,40072.0,51393.0,17396.0,14091.0
2026-05-06 16:39:59.897940,972255,1609507863258714,5463170876,0.728096,0.38064,0.462624,16.52875,-4.73375,-14.34125,-42.544003,10.184,-67.256004,concentric,4,5.0,29077.0,33886.0,90978.0,91093.0,25568.0,41541.0,40072.0,51393.0,17396.0,14091.0
2026-05-06 16:39:59.898947,972256,1609507863267827,5463179597,0.845216,0.363072,0.54656,22.05875,-8.54,-15.7675,-42.832,10.328,-67.336006,concentric,4,5.0,29077.0,33886.0,90978.0,91093.0,25568.0,41541.0,40072.0,51393.0,17396.0,14091.0
2026-05-06 16:39:59.901804,972257,1609507863282570,5463194539,0.786656,0.210816,0.589504,17.22875,-9.555,-20.93,-43.024002,10.536,-67.768005,concentric,4,5.0,29077.0,33886.0,90978.0,91093.0,25568.0,41541.0,40072.0,51393.0,17396.0,14091.0
2026-05-06 16:39:59.908161,972258,1609507863291578,5463203264,0.786656,0.210816,0.589504,7.84,-9.02125,-18.865,-43.024002,10.536,-67.768005,concentric,4,5.0,29077.0,33886.0,90978.0,91093.0,25568.0,41541.0,40072.0,51393.0,17396.0,14091.0
2026-05-06 16:39:59.916640,972259,1609507863300567,5463212105,0.786656,0.210816,0.589504,5.0225,-8.2775,-12.27625,-43.024002,10.536,-67.768005,concentric,4,5.0,29077.0,33886.0,90978.0,91093.0,25568.0,41541.0,40072.0,51393.0,17396.0,14091.0
2026-05-06 16:39:59.930523,972260,1609507863315050,5463227012,0.856928,0.335744,0.532896,6.7375,-7.37625,-7.56875,-43.032,9.208,-66.792,concentric,4,5.0,29077.0,33886.0,90978.0,91093.0,25568.0,41541.0,40072.0,51393.0,17396.0,14091.0
2026-05-06 16:39:59.944372,972261,1609507863323971,5463235747,0.884256,0.345504,0.495808,10.43875,-8.00625,-4.33125,-43.064003,8.256001,-66.416,concentric,4,5.0,29077.0,33886.0,90978.0,91093.0,25568.0,41541.0,40072.0,51393.0,17396.0,14091.0
2026-05-06 16:40:00.031639,972272,1609507863339068,5463250995,0.884256,0.345504,0.495808,12.99375,-12.06625,-5.495,-43.064003,8.256001,-66.416,concentric,4,5.0,29071.0,33833.0,91315.0,91358.0,25556.0,41495.0,40251.0,51496.0,17376.0,14058.0
2026-05-06 16:40:00.034164,972273,1609507863348061,5463259741,0.831552,0.2928,0.601216,7.16625,-15.75,-7.7525,-42.968002,10.264001,-67.376,concentric,4,5.0,29071.0,33833.0,91315.0,91358.0,25556.0,41495.0,40251.0,51496.0,17376.0,14058.0
2026-05-06 16:40:00.036681,972274,1609507863357081,5463268486,0.831552,0.2928,0.601216,2.3275,-17.325,-4.4275,-42.968002,10.264001,-67.376,concentric,4,5.0,29071.0,33833.0,91315.0,91358.0,25556.0,41495.0,40251.0,51496.0,17376.0,14058.0
2026-05-06 16:40:00.039052,972275,1609507863371615,5463283458,0.825696,0.37088,0.612928,5.67,-16.47625,-0.175,-43.432003,10.872001,-67.136,concentric,4,5.0,29071.0,33833.0,91315.0,91358.0,25556.0,41495.0,40251.0,51496.0,17376.0,14058.0
2026-05-06 16:40:00.041534,972276,1609507863380564,5463292174,0.825696,0.37088,0.612928,5.99375,-13.32625,-1.9775,-43.432003,10.872001,-67.136,concentric,4,5.0,29071.0,33833.0,91315.0,91358.0,25556.0,41495.0,40251.0,51496.0,17376.0,14058.0
2026-05-06 16:40:00.044000,972277,1609507863395013,5463307170,0.919392,0.212768,0.55632,2.275,-8.6275,-5.635,-43.256,9.176001,-66.288,concentric,4,5.0,29071.0,33833.0,91315.0,91358.0,25556.0,41495.0,40251.0,51496.0,17376.0,14058.0
2026-05-06 16:40:00.046536,972278,1609507863403885,5463315870,0.880352,0.275232,0.560224,2.8175,-5.81875,-5.5125,-43.408,10.728001,-67.968,concentric,4,5.0,29071.0,33833.0,91315.0,91358.0,25556.0,41495.0,40251.0,51496.0,17376.0,14058.0
2026-05-06 16:40:00.049141,972279,1609507863418409,5463330779,0.880352,0.275232,0.560224,4.62875,-4.80375,0.56875,-43.408,10.728001,-67.968,concentric,4,5.0,29071.0,33833.0,91315.0,91358.0,25556.0,41495.0,40251.0,51496.0,17376.0,14058.0
2026-05-06 16:40:00.051506,972280,1609507863427401,5463339482,0.880352,0.431392,0.56608,10.36875,-4.69875,7.665,-43.056004,9.280001,-66.648,concentric,4,5.0,29071.0,33833.0,91315.0,91358.0,25556.0,41495.0,40251.0,51496.0,17376.0,14058.0
2026-05-06 16:40:00.078916,972291,1609507863436697,5463348281,0.880352,0.431392,0.56608,11.6725,-5.25,4.06,-43.056004,9.280001,-66.648,concentric,4,5.0,29158.0,33902.0,91239.0,91508.0,25605.0,41592.0,40238.0,51541.0,17452.0,14117.0
2026-05-06 16:40:00.081617,972292,1609507863451551,5463363315,0.886208,0.288896,0.560224,7.56,-3.21125,-2.54625,-43.496002,8.288,-64.992004,concentric,4,5.0,29158.0,33902.0,91239.0,91508.0,25605.0,41592.0,40238.0,51541.0,17452.0,14117.0
2026-05-06 16:40:00.087994,972293,1609507863460555,5463372048,0.886208,0.288896,0.560224,8.4,-0.63,-5.25875,-43.496002,8.288,-64.992004,concentric,4,5.0,29158.0,33902.0,91239.0,91508.0,25605.0,41592.0,40238.0,51541.0,17452.0,14117.0
2026-05-06 16:40:00.090489,972294,1609507863475085,5463386994,0.91744,0.271328,0.562176,10.15875,-1.505,-6.4925,-43.624,7.344,-65.056,concentric,4,5.0,29158.0,33902.0,91239.0,91508.0,25605.0,41592.0,40238.0,51541.0,17452.0,14117.0
2026-05-06 16:40:00.104295,972295,1609507863484028,5463395788,0.874496,0.435296,0.54656,6.405,-2.68625,-5.5125,-43.536003,11.296001,-66.552,concentric,4,5.0,29158.0,33902.0,91239.0,91508.0,25605.0,41592.0,40238.0,51541.0,17452.0,14117.0
2026-05-06 16:40:00.110538,972296,1609507863492999,5463404525,0.874496,0.435296,0.54656,5.97625,-3.29,-2.75625,-43.536003,11.296001,-66.552,concentric,4,5.0,29158.0,33902.0,91239.0,91508.0,25605.0,41592.0,40238.0,51541.0,17452.0,14117.0
2026-05-06 16:40:00.124148,972297,1609507863507502,5463419429,0.890112,0.423584,0.571936,6.8075,-3.63125,-4.69875,-43.384003,11.096001,-67.216,concentric,4,5.0,29158.0,33902.0,91239.0,91508.0,25605.0,41592.0,40238.0,51541.0,17452.0,14117.0
2026-05-06 16:40:00.132970,972298,1609507863516474,5463428122,0.890112,0.423584,0.571936,5.41625,-1.6625,-8.5225,-43.384003,11.096001,-67.216,concentric,4,5.0,29158.0,33902.0,91239.0,91508.0,25605.0,41592.0,40238.0,51541.0,17452.0,14117.0
2026-05-06 16:40:00.146876,972299,1609507863530988,5463443000,0.95648,0.279136,0.62464,3.4125,-1.49625,-11.41875,-43.928,10.952001,-66.664,concentric,4,5.0,29158.0,33902.0,91239.0,91508.0,25605.0,41592.0,40238.0,51541.0,17452.0,14117.0
2026-05-06 16:40:00.177861,972310,1609507863540591,5463452171,0.95648,0.279136,0.62464,-5.39875,-1.7675,-14.69125,-43.928,10.952001,-66.664,concentric,4,5.0,29147.0,33888.0,91197.0,91650.0,25620.0,41546.0,40210.0,51614.0,17451.0,14096.0
2026-05-06 16:40:00.180553,972311,1609507863549653,5463460961,0.944768,0.388448,0.609024,-9.23125,-2.12625,-10.57,-43.976,8.968,-66.0,concentric,4,5.0,29147.0,33888.0,91197.0,91650.0,25620.0,41546.0,40210.0,51614.0,17451.0,14096.0
2026-05-06 16:40:00.182864,972312,1609507863564220,5463475834,0.977952,0.417728,0.6344,-7.28,-1.4525,-5.17125,-43.976,9.264001,-66.144005,concentric,4,5.0,29147.0,33888.0,91197.0,91650.0,25620.0,41546.0,40210.0,51614.0,17451.0,14096.0
2026-05-06 16:40:00.191874,972313,1609507863573222,5463484673,0.977952,0.417728,0.6344,-4.64625,-1.3825,-7.0525,-43.640003,9.264001,-66.144005,concentric,4,5.0,29147.0,33888.0,91197.0,91650.0,25620.0,41546.0,40210.0,51614.0,17451.0,14096.0
2026-05-06 16:40:00.208122,972314,1609507863587683,5463499599,0.981856,0.333792,0.599264,-4.43625,-1.44375,-8.88125,-43.536003,10.208,-66.96001,concentric,4,5.0,29147.0,33888.0,91197.0,91650.0,25620.0,41546.0,40210.0,51614.0,17451.0,14096.0
2026-05-06 16:40:00.214433,972315,1609507863596598,5463508285,0.981856,0.333792,0.599264,-7.175,-2.135,-9.17,-43.536003,10.208,-66.96001,concentric,4,5.0,29147.0,33888.0,91197.0,91650.0,25620.0,41546.0,40210.0,51614.0,17451.0,14096.0
2026-05-06 16:40:00.220715,972316,1609507863605560,5463517132,0.964288,0.33184,0.650016,-13.43125,-3.57,-8.49625,-43.496002,10.160001,-65.664,concentric,4,5.0,29147.0,33888.0,91197.0,91650.0,25620.0,41546.0,40210.0,51614.0,17451.0,14096.0
2026-05-06 16:40:00.236942,972317,1609507863620030,5463532087,0.964288,0.33184,0.650016,-17.98125,-4.0075,-6.2475,-43.496002,10.160001,-65.664,concentric,4,5.0,29147.0,33888.0,91197.0,91650.0,25620.0,41546.0,40210.0,51614.0,17451.0,14096.0
2026-05-06 16:40:00.245714,972318,1609507863629002,5463540792,0.962336,0.398208,0.65392,-17.64875,-2.485,-4.6025,-43.584003,9.576,-67.28001,concentric,4,5.0,29147.0,33888.0,91197.0,91650.0,25620.0,41546.0,40210.0,51614.0,17451.0,14096.0
2026-05-06 16:40:00.278975,972329,1609507863643848,5463555784,0.962336,0.398208,0.65392,-11.585,0.56875,-3.29,-43.584003,9.576,-67.28001,eccentric,4,5.0,28910.0,33702.0,91168.0,91730.0,25404.0,41347.0,40201.0,51653.0,17308.0,14005.0
2026-05-06 16:40:00.281574,972330,1609507863652946,5463564613,0.98576,0.298656,0.599264,-7.805,2.65125,-6.6675,-43.552002,10.152,-68.520004,eccentric,4,5.0,28910.0,33702.0,91168.0,91730.0,25404.0,41347.0,40201.0,51653.0,17308.0,14005.0
2026-05-06 16:40:00.284252,972331,1609507863667485,5463579605,0.919392,0.392352,0.59536,-7.28875,2.8,-9.14375,-43.616,9.496,-68.104004,eccentric,4,5.0,28910.0,33702.0,91168.0,91730.0,25404.0,41347.0,40201.0,51653.0,17308.0,14005.0
2026-05-06 16:40:00.294249,972332,1609507863676418,5463588297,0.919392,0.392352,0.59536,-7.60375,1.8025,-9.292501,-43.616,9.496,-68.104004,eccentric,4,5.0,28910.0,33702.0,91168.0,91730.0,25404.0,41347.0,40201.0,51653.0,17308.0,14005.0
2026-05-06 16:40:00.303037,972333,1609507863685392,5463597036,0.931104,0.36112,0.626592,-6.7725,0.4375,-8.155,-43.376003,9.464001,-69.920006,eccentric,4,5.0,28910.0,33702.0,91168.0,91730.0,25404.0,41347.0,40201.0,51653.0,17308.0,14005.0
2026-05-06 16:40:00.324385,972334,1609507863699861,5463611987,0.931104,0.36112,0.626592,-9.49375,0.62125,-10.3425,-43.376003,9.464001,-69.920006,eccentric,4,5.0,28910.0,33702.0,91168.0,91730.0,25404.0,41347.0,40201.0,51653.0,17308.0,14005.0
2026-05-06 16:40:00.326884,972335,1609507863708766,5463620709,0.940864,0.216672,0.622688,-11.19125,1.75875,-10.56125,-42.760002,8.896001,-66.832,eccentric,4,5.0,28910.0,33702.0,91168.0,91730.0,25404.0,41347.0,40201.0,51653.0,17308.0,14005.0
2026-05-06 16:40:00.359292,972336,1609507863723285,5463635639,0.940864,0.216672,0.622688,-7.37625,2.21375,-7.51625,-42.760002,8.896001,-66.832,eccentric,4,5.0,28910.0,33702.0,91168.0,91730.0,25404.0,41347.0,40201.0,51653.0,17308.0,14005.0
2026-05-06 16:40:00.384344,972337,1609507863732240,5463644338,0.853024,0.402112,0.626592,-4.13875,1.9775,-2.3275,-43.344,9.816001,-65.312004,eccentric,4,5.0,28910.0,33702.0,91168.0,91730.0,25404.0,41347.0,40201.0,51653.0,17308.0,14005.0
2026-05-06 16:40:00.474253,972348,1609507863741690,5463653357,0.853024,0.402112,0.626592,-1.855,3.185,0.07,-43.344,9.816001,-65.312004,eccentric,4,5.0,28903.0,33702.0,91049.0,91455.0,25351.0,41330.0,40119.0,51497.0,17269.0,13976.0
2026-05-06 16:40:00.476717,972349,1609507863756232,5463668354,0.833504,0.445056,0.564128,-2.1525,4.9525,-4.27875,-43.224003,9.256001,-67.624,eccentric,4,5.0,28903.0,33702.0,91049.0,91455.0,25351.0,41330.0,40119.0,51497.0,17269.0,13976.0
2026-05-06 16:40:00.479330,972350,1609507863765126,5463677053,0.833504,0.247904,0.56608,-5.88,6.25625,-11.40125,-43.224003,9.256001,-67.624,eccentric,4,5.0,28903.0,33702.0,91049.0,91455.0,25351.0,41330.0,40119.0,51497.0,17269.0,13976.0
2026-05-06 16:40:00.481874,972351,1609507863779613,5463692017,0.854976,0.247904,0.56608,-10.59625,7.18375,-13.055,-43.344,8.792001,-68.12,eccentric,4,5.0,28903.0,33702.0,91049.0,91455.0,25351.0,41330.0,40119.0,51497.0,17269.0,13976.0
2026-05-06 16:40:00.484351,972352,1609507863788606,5463700733,0.831552,0.284992,0.5368,-10.5175,5.87125,-11.40125,-43.264004,8.848001,-67.888,eccentric,4,5.0,28903.0,33702.0,91049.0,91455.0,25351.0,41330.0,40119.0,51497.0,17269.0,13976.0
2026-05-06 16:40:00.486762,972353,1609507863803347,5463715660,0.831552,0.284992,0.5368,-4.6375,3.5525,-6.18625,-43.264004,8.848001,-67.888,eccentric,4,5.0,28903.0,33702.0,91049.0,91455.0,25351.0,41330.0,40119.0,51497.0,17269.0,13976.0
2026-05-06 16:40:00.489317,972354,1609507863812309,5463724398,0.769088,0.435296,0.519232,1.4,0.805,-3.4825,-43.128002,8.776,-68.688,eccentric,4,5.0,28903.0,33702.0,91049.0,91455.0,25351.0,41330.0,40119.0,51497.0,17269.0,13976.0
2026-05-06 16:40:00.492032,972355,1609507863821233,5463733093,0.769088,0.435296,0.519232,2.86125,-0.63875,-6.5275,-43.128002,8.776,-68.688,eccentric,4,5.0,28903.0,33702.0,91049.0,91455.0,25351.0,41330.0,40119.0,51497.0,17269.0,13976.0
2026-05-06 16:40:00.494385,972356,1609507863835708,5463748007,0.763232,0.284992,0.489952,-1.225,-2.02125,-12.18,-42.68,8.384001,-68.4,eccentric,4,5.0,28903.0,33702.0,91049.0,91455.0,25351.0,41330.0,40119.0,51497.0,17269.0,13976.0
2026-05-06 16:40:00.524414,972367,1609507863844701,5463756764,0.763232,0.284992,0.489952,-8.8725,-2.345,-14.2625,-42.68,8.384001,-68.4,eccentric,4,5.0,28986.0,33788.0,91041.0,91037.0,25423.0,41379.0,40117.0,51277.0,17321.0,14026.0
2026-05-06 16:40:00.526967,972368,1609507863859235,5463771722,0.782752,0.269376,0.540704,-9.37125,-2.02125,-8.61875,-43.120003,4.952,-66.056,eccentric,4,5.0,28986.0,33788.0,91041.0,91037.0,25423.0,41379.0,40117.0,51277.0,17321.0,14026.0
2026-05-06 16:40:00.529412,972369,1609507863868207,5463780503,0.753472,0.277184,0.503616,-5.0575,-2.51125,-5.24125,-42.704002,6.312,-67.376,eccentric,4,5.0,28986.0,33788.0,91041.0,91037.0,25423.0,41379.0,40117.0,51277.0,17321.0,14026.0
2026-05-06 16:40:00.531919,972370,1609507863877178,5463789227,0.753472,0.277184,0.503616,-4.80375,-2.3275,-4.24375,-42.704002,6.312,-67.376,eccentric,4,5.0,28986.0,33788.0,91041.0,91037.0,25423.0,41379.0,40117.0,51277.0,17321.0,14026.0
2026-05-06 16:40:00.534465,972371,1609507863891888,5463804255,0.696864,0.333792,0.445056,-3.42125,-0.84875,-3.19375,-42.776,6.472,-67.54401,eccentric,4,5.0,28986.0,33788.0,91041.0,91037.0,25423.0,41379.0,40117.0,51277.0,17321.0,14026.0
2026-05-06 16:40:00.538760,972372,1609507863900868,5463813026,0.696864,0.333792,0.445056,-1.51375,-0.21,-2.975,-42.776,6.472,-67.54401,eccentric,4,5.0,28986.0,33788.0,91041.0,91037.0,25423.0,41379.0,40117.0,51277.0,17321.0,14026.0
2026-05-06 16:40:00.539204,972373,1609507863915383,5463827943,0.728096,0.240096,0.427488,-4.2,0.56875,-5.41625,-42.928,6.536,-67.504005,eccentric,4,5.0,28986.0,33788.0,91041.0,91037.0,25423.0,41379.0,40117.0,51277.0,17321.0,14026.0
2026-05-06 16:40:00.541693,972374,1609507863924317,5463836694,0.728096,0.240096,0.427488,-6.11625,0.23625,-6.0375,-42.928,6.536,-67.504005,eccentric,4,5.0,28986.0,33788.0,91041.0,91037.0,25423.0,41379.0,40117.0,51277.0,17321.0,14026.0
2026-05-06 16:40:00.555353,972375,1609507863938846,5463849615,0.730048,0.206912,0.501664,-1.39125,-1.14625,-2.38875,-42.352,7.864,-67.776,eccentric,4,5.0,28986.0,33788.0,91041.0,91037.0,25423.0,41379.0,40117.0,51277.0,17321.0,14026.0
2026-05-06 16:40:00.582934,972386,1609507863948538,5463860422,0.677344,0.300608,0.47824,5.85375,-2.38875,2.0825,-42.288002,5.592001,-65.608,eccentric,4,5.0,28968.0,33750.0,90979.0,90864.0,25449.0,41361.0,40055.0,51202.0,17340.0,14028.0
2026-05-06 16:40:00.585587,972387,1609507863957552,5463869192,0.677344,0.300608,0.47824,7.30625,-2.5025,5.06625,-42.288002,5.592001,-65.608,eccentric,4,5.0,28968.0,33750.0,90979.0,90864.0,25449.0,41361.0,40055.0,51202.0,17340.0,14028.0
2026-05-06 16:40:00.589391,972388,1609507863972079,5463884233,0.661728,0.281088,0.40992,0.665,-1.25125,4.29625,-42.416,4.496,-66.584,eccentric,4,5.0,28968.0,33750.0,90979.0,90864.0,25449.0,41361.0,40055.0,51202.0,17340.0,14028.0
2026-05-06 16:40:00.598129,972389,1609507863981188,5463893025,0.661728,0.281088,0.40992,-7.37625,-0.09625,1.7675,-42.416,4.496,-66.584,eccentric,4,5.0,28968.0,33750.0,90979.0,90864.0,25449.0,41361.0,40055.0,51202.0,17340.0,14028.0
2026-05-06 16:40:00.611943,972390,1609507863995688,5463908022,0.669536,0.162016,0.386496,-9.93125,-0.34125,0.2275,-42.008003,7.864,-69.07201,eccentric,4,5.0,28968.0,33750.0,90979.0,90864.0,25449.0,41361.0,40055.0,51202.0,17340.0,14028.0
2026-05-06 16:40:00.620677,972391,1609507864004578,5463916721,0.669536,0.162016,0.386496,-5.71375,-2.37125,3.08,-42.008003,7.864,-69.07201,eccentric,4,5.0,28968.0,33750.0,90979.0,90864.0,25449.0,41361.0,40055.0,51202.0,17340.0,14028.0
2026-05-06 16:40:00.632244,972392,1609507864013674,5463925482,0.648064,0.218624,0.427488,1.68,-5.355,7.7175,-41.712,8.288,-69.248,eccentric,4,5.0,28968.0,33750.0,90979.0,90864.0,25449.0,41361.0,40055.0,51202.0,17340.0,14028.0
2026-05-06 16:40:00.644707,972393,1609507864028214,5463940423,0.591456,0.333792,0.415776,3.6575,-7.0525,11.22625,-41.856003,7.912,-67.384,eccentric,4,5.0,28968.0,33750.0,90979.0,90864.0,25449.0,41361.0,40055.0,51202.0,17340.0,14028.0
2026-05-06 16:40:00.657974,972394,1609507864037180,5463949217,0.591456,0.333792,0.415776,2.79125,-7.1575,11.5675,-41.856003,7.912,-67.384,eccentric,4,5.0,28968.0,33750.0,90979.0,90864.0,25449.0,41361.0,40055.0,51202.0,17340.0,14028.0
2026-05-06 16:40:00.685551,972405,1609507864052071,5463964177,0.603168,0.245952,0.386496,0.55125,-5.845,6.79,-41.36,7.928001,-69.048004,eccentric,4,5.0,29015.0,33768.0,90720.0,90687.0,25508.0,41446.0,39959.0,51118.0,17398.0,14078.0
2026-05-06 16:40:00.688137,972406,1609507864061108,5463973129,0.603168,0.245952,0.386496,-0.98875,-3.535,2.12625,-41.36,7.928001,-69.048004,eccentric,4,5.0,29015.0,33768.0,90720.0,90687.0,25508.0,41446.0,39959.0,51118.0,17398.0,14078.0
2026-05-06 16:40:00.690695,972407,1609507864070040,5463981964,0.6344,0.158112,0.374784,0.83125,-2.33625,-1.05,-41.448,6.12,-68.336006,eccentric,4,5.0,29015.0,33768.0,90720.0,90687.0,25508.0,41446.0,39959.0,51118.0,17398.0,14078.0
2026-05-06 16:40:00.737947,972408,1609507864084701,5463996879,0.6344,0.158112,0.374784,4.4625,-2.6425,0.0175,-41.448,6.12,-68.336006,eccentric,4,5.0,29015.0,33768.0,90720.0,90687.0,25508.0,41446.0,39959.0,51118.0,17398.0,14078.0
2026-05-06 16:40:00.753004,972409,1609507864093719,5464005604,0.5856,0.240096,0.41968,2.79125,-3.0625,4.1825,-41.296,8.296001,-69.600006,eccentric,4,5.0,29015.0,33768.0,90720.0,90687.0,25508.0,41446.0,39959.0,51118.0,17398.0,14078.0
2026-05-06 16:40:00.755504,972410,1609507864108210,5464020526,0.52704,0.333792,0.388448,-1.3125,-3.08875,6.36125,-40.984,8.384001,-69.512,eccentric,4,5.0,29015.0,33768.0,90720.0,90687.0,25508.0,41446.0,39959.0,51118.0,17398.0,14078.0
2026-05-06 16:40:00.758037,972411,1609507864117146,5464029259,0.52704,0.333792,0.388448,-1.93375,-1.60125,5.6525,-40.984,8.384001,-69.512,eccentric,4,5.0,29015.0,33768.0,90720.0,90687.0,25508.0,41446.0,39959.0,51118.0,17398.0,14078.0
2026-05-06 16:40:00.760545,972412,1609507864131641,5464044170,0.55632,0.232288,0.37088,1.40875,1.33,2.45875,-40.784,8.128,-69.296005,eccentric,4,5.0,29015.0,33768.0,90720.0,90687.0,25508.0,41446.0,39959.0,51118.0,17398.0,14078.0
2026-05-06 16:40:00.788158,972423,1609507864141061,5464052902,0.55632,0.232288,0.37088,0.76125,4.75125,-2.94875,-40.784,8.128,-69.296005,eccentric,4,5.0,29000.0,33771.0,90582.0,90405.0,25489.0,41458.0,39920.0,51006.0,17408.0,14048.0
2026-05-06 16:40:00.793162,972424,1609507864150038,5464061789,0.601216,0.201056,0.372832,-2.72125,6.23,-4.83875,-40.440002,8.016001,-69.336006,eccentric,4,5.0,29000.0,33771.0,90582.0,90405.0,25489.0,41458.0,39920.0,51006.0,17408.0,14048.0
2026-05-06 16:40:00.795600,972425,1609507864164611,5464076777,0.601216,0.201056,0.372832,0.00875,5.8275,0.56875,-40.440002,8.016001,-69.336006,eccentric,4,5.0,29000.0,33771.0,90582.0,90405.0,25489.0,41458.0,39920.0,51006.0,17408.0,14048.0
2026-05-06 16:40:00.798199,972426,1609507864173614,5464085541,0.560224,0.247904,0.394304,1.30375,2.835,3.4125,-40.752003,8.04,-69.624,eccentric,4,5.0,29000.0,33771.0,90582.0,90405.0,25489.0,41458.0,39920.0,51006.0,17408.0,14048.0
2026-05-06 16:40:00.806917,972427,1609507864188184,5464100466,0.560224,0.310368,0.343552,-3.5525,2.1175,4.01625,-40.752003,8.04,-69.624,eccentric,4,5.0,29000.0,33771.0,90582.0,90405.0,25489.0,41458.0,39920.0,51006.0,17408.0,14048.0
2026-05-06 16:40:00.815628,972428,1609507864197117,5464109186,0.55632,0.304512,0.343552,-8.225,2.87,5.99375,-40.800003,8.248,-69.128006,eccentric,4,5.0,29000.0,33771.0,90582.0,90405.0,25489.0,41458.0,39920.0,51006.0,17408.0,14048.0
2026-05-06 16:40:00.821751,972429,1609507864206059,5464117952,0.55632,0.304512,0.343552,-9.94,4.13875,6.895,-40.800003,8.248,-69.128006,eccentric,4,5.0,29000.0,33771.0,90582.0,90405.0,25489.0,41458.0,39920.0,51006.0,17408.0,14048.0
2026-05-06 16:40:00.837824,972430,1609507864220568,5464132960,0.616832,0.240096,0.376736,-11.96125,5.03125,6.23875,-40.656002,7.888001,-68.096,eccentric,4,5.0,29000.0,33771.0,90582.0,90405.0,25489.0,41458.0,39920.0,51006.0,17408.0,14048.0
2026-05-06 16:40:00.846822,972431,1609507864229477,5464141681,0.616832,0.20496,0.417728,-11.2,5.03125,7.62125,-40.920002,6.712,-68.328,eccentric,4,5.0,29000.0,33771.0,90582.0,90405.0,25489.0,41458.0,39920.0,51006.0,17408.0,14048.0
2026-05-06 16:40:00.883134,972443,1609507864244650,5464156684,0.616832,0.20496,0.417728,-7.3675,3.29875,11.29625,-40.920002,6.712,-68.328,eccentric,4,5.0,28835.0,33599.0,90399.0,90314.0,25331.0,41266.0,39798.0,50957.0,17302.0,13987.0
2026-05-06 16:40:00.885651,972444,1609507864253831,5464165539,0.61488,0.251808,0.427488,-6.64125,1.91625,13.90375,-40.512,6.592001,-68.4,eccentric,4,5.0,28835.0,33599.0,90399.0,90314.0,25331.0,41266.0,39798.0,50957.0,17302.0,13987.0
2026-05-06 16:40:00.888177,972445,1609507864262787,5464174349,0.61488,0.251808,0.427488,-10.98125,1.9075,15.77625,-40.512,6.592001,-68.4,eccentric,4,5.0,28835.0,33599.0,90399.0,90314.0,25331.0,41266.0,39798.0,50957.0,17302.0,13987.0
2026-05-06 16:40:00.894270,972446,1609507864277391,5464189264,0.610976,0.271328,0.4392,-15.82,2.98375,16.12625,-40.448,7.304,-68.448006,eccentric,4,5.0,28835.0,33599.0,90399.0,90314.0,25331.0,41266.0,39798.0,50957.0,17302.0,13987.0
2026-05-06 16:40:00.903190,972447,1609507864286304,5464197971,0.610976,0.271328,0.4392,-16.9925,4.235,16.65125,-40.448,7.304,-68.448006,eccentric,4,5.0,28835.0,33599.0,90399.0,90314.0,25331.0,41266.0,39798.0,50957.0,17302.0,13987.0
2026-05-06 16:40:00.936746,972448,1609507864300811,5464212958,0.618784,0.259616,0.402112,-16.58125,4.66375,14.77,-40.08,8.568001,-68.616005,eccentric,4,5.0,28835.0,33599.0,90399.0,90314.0,25331.0,41266.0,39798.0,50957.0,17302.0,13987.0
2026-05-06 16:40:00.939255,972449,1609507864309715,5464221657,0.642208,0.208864,0.437248,-15.0675,4.0775,12.27625,-40.152,9.184,-69.568,eccentric,4,5.0,28835.0,33599.0,90399.0,90314.0,25331.0,41266.0,39798.0,50957.0,17302.0,13987.0
2026-05-06 16:40:00.941738,972450,1609507864318723,5464230437,0.642208,0.208864,0.437248,-13.18625,3.24625,11.76875,-40.152,9.184,-69.568,eccentric,4,5.0,28835.0,33599.0,90399.0,90314.0,25331.0,41266.0,39798.0,50957.0,17302.0,13987.0
2026-05-06 16:40:00.950476,972451,1609507864333342,5464245383,0.64416,0.238144,0.503616,-9.79125,2.38875,12.565,-39.928,9.64,-69.704,eccentric,4,5.0,28835.0,33599.0,90399.0,90314.0,25331.0,41266.0,39798.0,50957.0,17302.0,13987.0
2026-05-06 16:40:00.984426,972462,1609507864342430,5464254050,0.64416,0.238144,0.503616,-8.12875,2.94,12.81875,-39.928,9.64,-69.704,eccentric,4,5.0,28736.0,33549.0,90280.0,90561.0,25256.0,41226.0,39721.0,51066.0,17248.0,13953.0
2026-05-06 16:40:00.986918,972463,1609507864357050,5464268986,0.651968,0.27328,0.456768,-7.21,4.10375,12.04875,-40.152,9.384001,-70.4,eccentric,4,5.0,28736.0,33549.0,90280.0,90561.0,25256.0,41226.0,39721.0,51066.0,17248.0,13953.0
2026-05-06 16:40:00.989424,972464,1609507864365993,5464277909,0.651968,0.27328,0.456768,-10.823751,4.27875,8.2425,-40.152,9.384001,-70.4,eccentric,4,5.0,28736.0,33549.0,90280.0,90561.0,25256.0,41226.0,39721.0,51066.0,17248.0,13953.0
2026-05-06 16:40:00.998171,972465,1609507864380511,5464292945,0.681248,0.17568,0.460672,-16.49375,4.4625,4.375,-39.696003,9.256001,-69.624,eccentric,4,5.0,28736.0,33549.0,90280.0,90561.0,25256.0,41226.0,39721.0,51066.0,17248.0,13953.0
2026-05-06 16:40:01.007127,972466,1609507864389432,5464301672,0.681248,0.17568,0.470432,-17.1325,4.34,2.9925,-39.696003,9.256001,-69.624,eccentric,4,5.0,28736.0,33549.0,90280.0,90561.0,25256.0,41226.0,39721.0,51066.0,17248.0,13953.0
2026-05-06 16:40:01.016261,972467,1609507864398333,5464310359,0.69296,0.199104,0.470432,-11.1125,2.8875,4.87375,-39.728,7.664001,-69.75201,eccentric,4,5.0,28736.0,33549.0,90280.0,90561.0,25256.0,41226.0,39721.0,51066.0,17248.0,13953.0
2026-05-06 16:40:01.048130,972468,1609507864412879,5464325315,0.685152,0.210816,0.482144,-5.67,1.785,5.46875,-39.848003,8.448,-69.912,eccentric,4,5.0,28736.0,33549.0,90280.0,90561.0,25256.0,41226.0,39721.0,51066.0,17248.0,13953.0
2026-05-06 16:40:01.050395,972469,1609507864421841,5464334040,0.685152,0.210816,0.482144,-3.5525,1.68,5.775,-39.848003,8.448,-69.912,eccentric,4,5.0,28736.0,33549.0,90280.0,90561.0,25256.0,41226.0,39721.0,51066.0,17248.0,13953.0
2026-05-06 16:40:01.053155,972470,1609507864436328,5464348940,0.698816,0.208864,0.482144,-4.06875,2.555,3.75375,-39.792004,9.856001,-69.392006,eccentric,4,5.0,28736.0,33549.0,90280.0,90561.0,25256.0,41226.0,39721.0,51066.0,17248.0,13953.0
2026-05-06 16:40:01.131737,972481,1609507864445898,5464357944,0.698816,0.208864,0.482144,-4.69,2.65125,1.7675,-39.792004,9.856001,-69.392006,eccentric,4,5.0,28711.0,33556.0,90262.0,91011.0,25224.0,41190.0,39740.0,51332.0,17246.0,13977.0
2026-05-06 16:40:01.134324,972482,1609507864454888,5464366731,0.72224,0.163968,0.474336,-4.94375,1.89,0.63875,-39.456,7.928001,-68.48,eccentric,4,5.0,28711.0,33556.0,90262.0,91011.0,25224.0,41190.0,39740.0,51332.0,17246.0,13977.0
2026-05-06 16:40:01.136842,972483,1609507864469414,5464381714,0.72224,0.163968,0.474336,-4.5675,0.1925,0.3675,-39.456,7.928001,-68.48,eccentric,4,5.0,28711.0,33556.0,90262.0,91011.0,25224.0,41190.0,39740.0,51332.0,17246.0,13977.0
2026-05-06 16:40:01.139346,972484,1609507864478355,5464390432,0.726144,0.169824,0.51728,-0.105,-0.86625,2.44125,-39.664,10.080001,-70.192,eccentric,4,5.0,28711.0,33556.0,90262.0,91011.0,25224.0,41190.0,39740.0,51332.0,17246.0,13977.0
2026-05-06 16:40:01.144253,972485,1609507864492830,5464405333,0.698816,0.21472,0.505568,3.465,-2.2225,4.2875,-39.728,10.264001,-69.456,eccentric,4,5.0,28711.0,33556.0,90262.0,91011.0,25224.0,41190.0,39740.0,51332.0,17246.0,13977.0
2026-05-06 16:40:01.146892,972486,1609507864501945,5464414038,0.698816,0.21472,0.505568,1.9775,-2.2925,4.1825,-39.728,10.264001,-69.456,eccentric,4,5.0,28711.0,33556.0,90262.0,91011.0,25224.0,41190.0,39740.0,51332.0,17246.0,13977.0
2026-05-06 16:40:01.151868,972487,1609507864516449,5464428970,0.714432,0.20496,0.47824,1.42625,-1.75875,4.17375,-39.224003,10.312,-69.528,eccentric,4,5.0,28711.0,33556.0,90262.0,91011.0,25224.0,41190.0,39740.0,51332.0,17246.0,13977.0
2026-05-06 16:40:01.154403,972488,1609507864525377,5464437677,0.714432,0.20496,0.47824,0.42875,-1.4175,1.96875,-39.224003,10.312,-69.528,eccentric,4,5.0,28711.0,33556.0,90262.0,91011.0,25224.0,41190.0,39740.0,51332.0,17246.0,13977.0
2026-05-06 16:40:01.156901,972489,1609507864534435,5464446403,0.72224,0.142496,0.456768,-1.96875,-2.275,1.1025,-39.72,8.096001,-68.728004,eccentric,4,5.0,28711.0,33556.0,90262.0,91011.0,25224.0,41190.0,39740.0,51332.0,17246.0,13977.0
2026-05-06 16:40:01.184425,972500,1609507864549270,5464461444,0.72224,0.142496,0.456768,-1.33,-3.57,1.77625,-39.72,8.096001,-68.728004,eccentric,4,5.0,28754.0,33537.0,90282.0,91031.0,25295.0,41212.0,39747.0,51352.0,17285.0,13974.0
2026-05-06 16:40:01.186768,972501,1609507864558374,5464470315,0.72224,0.201056,0.503616,3.15,-4.83,3.885,-39.4,8.696,-68.8,eccentric,4,5.0,28754.0,33537.0,90282.0,91031.0,25295.0,41212.0,39747.0,51352.0,17285.0,13974.0
2026-05-06 16:40:01.189468,972502,1609507864572950,5464485291,0.71248,0.238144,0.511424,6.23,-5.27625,5.31125,-39.584003,8.696,-67.656006,eccentric,4,5.0,28754.0,33537.0,90282.0,91031.0,25295.0,41212.0,39747.0,51352.0,17285.0,13974.0
2026-05-06 16:40:01.202819,972503,1609507864582131,5464494008,0.71248,0.238144,0.511424,4.27,-4.73375,3.535,-39.584003,8.696,-67.656006,eccentric,4,5.0,28754.0,33537.0,90282.0,91031.0,25295.0,41212.0,39747.0,51352.0,17285.0,13974.0
2026-05-06 16:40:01.205510,972504,1609507864591158,5464502725,0.71248,0.193248,0.519232,-0.93625,-3.7975,-0.49875,-39.584003,8.696,-67.656006,eccentric,4,5.0,28754.0,33537.0,90282.0,91031.0,25295.0,41212.0,39747.0,51352.0,17285.0,13974.0
2026-05-06 16:40:01.239398,972505,1609507864605645,5464517641,0.732,0.193248,0.519232,-3.9725,-2.75625,-2.38,-39.320004,10.344001,-67.664,eccentric,4,5.0,28754.0,33537.0,90282.0,91031.0,25295.0,41212.0,39747.0,51352.0,17285.0,13974.0
2026-05-06 16:40:01.241880,972506,1609507864614588,5464526369,0.72224,0.171776,0.511424,-2.66875,-2.14375,-2.84375,-39.112003,10.632001,-69.816,eccentric,4,5.0,28754.0,33537.0,90282.0,91031.0,25295.0,41212.0,39747.0,51352.0,17285.0,13974.0
2026-05-06 16:40:01.248239,972507,1609507864629108,5464541278,0.72224,0.171776,0.511424,0.14,-1.89875,-2.415,-39.112003,10.632001,-69.816,eccentric,4,5.0,28754.0,33537.0,90282.0,91031.0,25295.0,41212.0,39747.0,51352.0,17285.0,13974.0
2026-05-06 16:40:01.255482,972508,1609507864638073,5464550109,0.714432,0.240096,0.501664,1.155,-1.25125,-0.455,-39.36,10.568001,-70.048004,eccentric,4,5.0,28754.0,33537.0,90282.0,91031.0,25295.0,41212.0,39747.0,51352.0,17285.0,13974.0
2026-05-06 16:40:01.288284,972519,1609507864647596,5464558975,0.714432,0.240096,0.501664,0.44625,-0.51625,-0.1225,-39.36,10.568001,-70.048004,eccentric,4,5.0,28811.0,33601.0,90232.0,90905.0,25337.0,41306.0,39746.0,51280.0,17335.0,14027.0
2026-05-06 16:40:01.288400,972520,1609507864662319,5464573951,0.720288,0.226432,0.505568,-1.505,-0.28875,-1.6275,-39.512,7.056,-67.184006,eccentric,4,5.0,28811.0,33601.0,90232.0,90905.0,25337.0,41306.0,39746.0,51280.0,17335.0,14027.0
2026-05-06 16:40:01.291793,972521,1609507864671313,5464582658,0.720288,0.226432,0.505568,-3.4125,-0.105,-4.1825,-39.512,7.056,-67.184006,eccentric,4,5.0,28811.0,33601.0,90232.0,90905.0,25337.0,41306.0,39746.0,51280.0,17335.0,14027.0
2026-05-06 16:40:01.301738,972522,1609507864685845,5464597613,0.724192,0.179584,0.542656,-3.71875,0.60375,-5.13625,-39.664,7.04,-68.48,eccentric,4,5.0,28811.0,33601.0,90232.0,90905.0,25337.0,41306.0,39746.0,51280.0,17335.0,14027.0
2026-05-06 16:40:01.310491,972523,1609507864694869,5464606352,0.724192,0.22448,0.484096,-1.18125,1.05875,-3.31625,-39.672,10.312,-70.008,eccentric,4,5.0,28811.0,33601.0,90232.0,90905.0,25337.0,41306.0,39746.0,51280.0,17335.0,14027.0
2026-05-06 16:40:01.319274,972524,1609507864703917,5464615073,0.724192,0.22448,0.484096,0.5425,0.84,-3.5525,-39.672,10.312,-70.008,eccentric,4,5.0,28811.0,33601.0,90232.0,90905.0,25337.0,41306.0,39746.0,51280.0,17335.0,14027.0
2026-05-06 16:40:01.353190,972525,1609507864718820,5464629983,0.726144,0.193248,0.47824,-1.365,0.77,-4.9175,-39.344,10.6,-69.464005,eccentric,4,5.0,28811.0,33601.0,90232.0,90905.0,25337.0,41306.0,39746.0,51280.0,17335.0,14027.0
2026-05-06 16:40:01.355714,972526,1609507864728190,5464640816,0.726144,0.193248,0.47824,-3.5,0.41125,-5.1275,-39.344,10.6,-69.464005,eccentric,4,5.0,28811.0,33601.0,90232.0,90905.0,25337.0,41306.0,39746.0,51280.0,17335.0,14027.0
2026-05-06 16:40:01.358188,972527,1609507864742667,5464653689,0.716384,0.220576,0.470432,-1.9075,-0.16625,-5.1275,-39.168003,10.160001,-69.44,eccentric,4,5.0,28811.0,33601.0,90232.0,90905.0,25337.0,41306.0,39746.0,51280.0,17335.0,14027.0
2026-05-06 16:40:01.389563,972538,1609507864752273,5464664562,0.716384,0.220576,0.470432,0.76125,-0.6125,-4.4975,-39.168003,10.160001,-69.44,eccentric,4,5.0,28697.0,33514.0,90067.0,90958.0,25241.0,41190.0,39638.0,51289.0,17248.0,13955.0
2026-05-06 16:40:01.391888,972539,1609507864761414,5464673327,0.74176,0.226432,0.532896,-0.70875,-0.6825,-5.99375,-39.368,8.392,-68.616005,eccentric,4,5.0,28697.0,33514.0,90067.0,90958.0,25241.0,41190.0,39638.0,51289.0,17248.0,13955.0
2026-05-06 16:40:01.394575,972540,1609507864775987,5464688288,0.726144,0.169824,0.450912,-3.21125,0.04375,-6.71125,-39.432003,8.008,-68.848,eccentric,4,5.0,28697.0,33514.0,90067.0,90958.0,25241.0,41190.0,39638.0,51289.0,17248.0,13955.0
2026-05-06 16:40:01.402983,972541,1609507864784957,5464697064,0.726144,0.169824,0.450912,-4.2175,-0.53375,-7.42875,-39.432003,8.008,-68.848,eccentric,4,5.0,28697.0,33514.0,90067.0,90958.0,25241.0,41190.0,39638.0,51289.0,17248.0,13955.0
2026-05-06 16:40:01.416557,972542,1609507864799453,5464712077,0.720288,0.26352,0.503616,-3.5875,-1.05875,-6.195,-39.368,9.984,-69.928,eccentric,4,5.0,28697.0,33514.0,90067.0,90958.0,25241.0,41190.0,39638.0,51289.0,17248.0,13955.0
2026-05-06 16:40:01.425284,972543,1609507864808394,5464720874,0.720288,0.26352,0.503616,-0.14875,-0.9975,-4.45375,-39.368,9.984,-69.928,eccentric,4,5.0,28697.0,33514.0,90067.0,90958.0,25241.0,41190.0,39638.0,51289.0,17248.0,13955.0
