pc_time,serial_num,sensor_ts,host_ts,ax,ay,az,gx,gy,gz,mx,my,mz,phase,rpe,weight_kg,ppg_a,ppg_b,ppg_c,ppg_d,ppg_e,ppg_f,ppg_g,ppg_h,ppg_i,ppg_j
2026-05-06 16:40:01.434299,972544,1609507864817352,5464729566,0.730048,0.259616,0.474336,0.6125,-1.225,-6.895,-39.424004,9.936001,-69.48,concentric,4,5.0,28697.0,33514.0,90067.0,90958.0,25241.0,41190.0,39638.0,51289.0,17248.0,13955.0
2026-05-06 16:40:01.459277,972545,1609507864831895,5464744629,0.730048,0.259616,0.474336,-2.45,-1.5925,-9.91375,-39.424004,9.936001,-69.48,concentric,4,5.0,28697.0,33514.0,90067.0,90958.0,25241.0,41190.0,39638.0,51289.0,17248.0,13955.0
2026-05-06 16:40:01.484164,972546,1609507864840819,5464753339,0.739808,0.228384,0.505568,-4.34,-1.4525,-10.52625,-39.616,9.992001,-68.768005,concentric,4,5.0,28697.0,33514.0,90067.0,90958.0,25241.0,41190.0,39638.0,51289.0,17248.0,13955.0
2026-05-06 16:40:01.526869,972557,1609507864855498,5464766485,0.739808,0.23424,0.450912,-3.43,-2.26625,-9.948751,-39.672,10.064,-69.536,concentric,4,5.0,28577.0,33428.0,90025.0,90562.0,25149.0,41085.0,39610.0,51117.0,17212.0,13919.0
2026-05-06 16:40:01.529410,972558,1609507864865123,5464777327,0.739808,0.23424,0.450912,-4.62,-2.765,-9.511251,-39.672,10.064,-69.536,concentric,4,5.0,28577.0,33428.0,90025.0,90562.0,25149.0,41085.0,39610.0,51117.0,17212.0,13919.0
2026-05-06 16:40:01.531930,972559,1609507864874082,5464786045,0.704672,0.220576,0.45872,-6.51,-2.73,-10.01875,-39.608,9.904,-68.8,concentric,4,5.0,28577.0,33428.0,90025.0,90562.0,25149.0,41085.0,39610.0,51117.0,17212.0,13919.0
2026-05-06 16:40:01.534204,972560,1609507864888577,5464800989,0.704672,0.220576,0.45872,-6.58875,-2.2225,-9.38875,-39.608,9.904,-68.8,concentric,4,5.0,28577.0,33428.0,90025.0,90562.0,25149.0,41085.0,39610.0,51117.0,17212.0,13919.0
2026-05-06 16:40:01.536884,972561,1609507864897570,5464809706,0.714432,0.25376,0.456768,-4.57625,-0.65625,-9.1175,-39.52,7.936,-68.36,concentric,4,5.0,28577.0,33428.0,90025.0,90562.0,25149.0,41085.0,39610.0,51117.0,17212.0,13919.0
2026-05-06 16:40:01.539386,972562,1609507864912085,5464824740,0.714432,0.25376,0.456768,-4.2,-0.07,-8.995,-39.52,7.936,-68.36,concentric,4,5.0,28577.0,33428.0,90025.0,90562.0,25149.0,41085.0,39610.0,51117.0,17212.0,13919.0
2026-05-06 16:40:01.541920,972563,1609507864921020,5464833460,0.739808,0.26352,0.499712,-5.73125,0.0875,-8.5925,-39.752003,7.992001,-69.312004,concentric,4,5.0,28577.0,33428.0,90025.0,90562.0,25149.0,41085.0,39610.0,51117.0,17212.0,13919.0
2026-05-06 16:40:01.550535,972564,1609507864935670,5464846491,0.732,0.212768,0.488,-5.92375,0.035,-8.68875,-39.68,9.200001,-69.192,concentric,4,5.0,28577.0,33428.0,90025.0,90562.0,25149.0,41085.0,39610.0,51117.0,17212.0,13919.0
2026-05-06 16:40:01.592905,972575,1609507864945095,5464857356,0.732,0.212768,0.488,-4.61125,-0.07,-9.17,-39.68,9.200001,-69.192,concentric,4,5.0,28548.0,33411.0,90106.0,90362.0,25126.0,41115.0,39690.0,51047.0,17183.0,13932.0
2026-05-06 16:40:01.595349,972576,1609507864954609,5464866113,0.747616,0.238144,0.51728,-3.99875,-0.02625,-8.32125,-40.08,9.464001,-69.248,concentric,4,5.0,28548.0,33411.0,90106.0,90362.0,25126.0,41115.0,39690.0,51047.0,17183.0,13932.0
2026-05-06 16:40:01.597729,972577,1609507864969130,5464881077,0.747616,0.238144,0.51728,-5.145,0.28875,-7.34125,-40.08,9.464001,-69.248,concentric,4,5.0,28548.0,33411.0,90106.0,90362.0,25126.0,41115.0,39690.0,51047.0,17183.0,13932.0
2026-05-06 16:40:01.600166,972578,1609507864978129,5464889830,0.75152,0.247904,0.499712,-7.42875,0.76125,-6.5975,-39.768,6.712,-67.416,concentric,4,5.0,28548.0,33411.0,90106.0,90362.0,25126.0,41115.0,39690.0,51047.0,17183.0,13932.0
2026-05-06 16:40:01.602891,972579,1609507864987129,5464898669,0.75152,0.247904,0.499712,-9.1525,0.60375,-6.685,-39.768,6.712,-67.416,concentric,4,5.0,28548.0,33411.0,90106.0,90362.0,25126.0,41115.0,39690.0,51047.0,17183.0,13932.0
2026-05-06 16:40:01.636854,972580,1609507865001690,5464913578,0.74176,0.212768,0.460672,-10.0275,0.04375,-7.035,-40.208,5.888001,-67.584,concentric,4,5.0,28548.0,33411.0,90106.0,90362.0,25126.0,41115.0,39690.0,51047.0,17183.0,13932.0
2026-05-06 16:40:01.639457,972581,1609507865010619,5464922417,0.74176,0.212768,0.460672,-9.835,-0.91875,-6.93,-40.208,5.888001,-67.584,concentric,4,5.0,28548.0,33411.0,90106.0,90362.0,25126.0,41115.0,39690.0,51047.0,17183.0,13932.0
2026-05-06 16:40:01.641892,972582,1609507865025117,5464937496,0.733952,0.208864,0.466528,-7.1225,-1.505,-5.985,-40.088,9.480001,-70.200005,concentric,4,5.0,28548.0,33411.0,90106.0,90362.0,25126.0,41115.0,39690.0,51047.0,17183.0,13932.0
2026-05-06 16:40:01.650625,972583,1609507865034078,5464946212,0.733952,0.208864,0.513376,-2.17875,-1.3825,-4.20875,-40.088,9.480001,-70.200005,concentric,4,5.0,28548.0,33411.0,90106.0,90362.0,25126.0,41115.0,39690.0,51047.0,17183.0,13932.0
2026-05-06 16:40:01.713104,972594,1609507865049081,5464961279,0.75152,0.230336,0.511424,-0.6475,-1.00625,-3.7625,-40.016003,9.472,-69.232,concentric,4,5.0,28533.0,33383.0,90168.0,90585.0,25114.0,41107.0,39680.0,51143.0,17189.0,13932.0
2026-05-06 16:40:01.715530,972595,1609507865058141,5464970050,0.749568,0.203008,0.472384,-2.38,-0.77,-5.06625,-40.128002,9.032001,-70.056,concentric,4,5.0,28533.0,33383.0,90168.0,90585.0,25114.0,41107.0,39680.0,51143.0,17189.0,13932.0
2026-05-06 16:40:01.718169,972596,1609507865067093,5464978759,0.749568,0.203008,0.472384,-5.53,-0.945,-5.08375,-40.128002,9.032001,-70.056,concentric,4,5.0,28533.0,33383.0,90168.0,90585.0,25114.0,41107.0,39680.0,51143.0,17189.0,13932.0
2026-05-06 16:40:01.720602,972597,1609507865081562,5464993711,0.757376,0.206912,0.474336,-4.38375,-1.68875,-4.725,-40.288002,9.248,-70.784004,concentric,4,5.0,28533.0,33383.0,90168.0,90585.0,25114.0,41107.0,39680.0,51143.0,17189.0,13932.0
2026-05-06 16:40:01.723099,972598,1609507865090607,5465002625,0.757376,0.206912,0.474336,-2.24875,-2.345,-3.92875,-40.288002,9.248,-70.784004,concentric,4,5.0,28533.0,33383.0,90168.0,90585.0,25114.0,41107.0,39680.0,51143.0,17189.0,13932.0
2026-05-06 16:40:01.725432,972599,1609507865105249,5465017613,0.739808,0.193248,0.49776,-0.69125,-2.065,-4.17375,-40.024002,6.792,-68.54401,concentric,4,5.0,28533.0,33383.0,90168.0,90585.0,25114.0,41107.0,39680.0,51143.0,17189.0,13932.0
2026-05-06 16:40:01.731863,972600,1609507865114219,5465026358,0.739808,0.193248,0.49776,-0.6125,-2.1525,-5.635,-40.024002,6.792,-68.54401,concentric,4,5.0,28533.0,33383.0,90168.0,90585.0,25114.0,41107.0,39680.0,51143.0,17189.0,13932.0
2026-05-06 16:40:01.740651,972601,1609507865123157,5465035103,0.716384,0.208864,0.523136,-1.05875,-1.61,-6.195,-39.784,8.92,-69.36,concentric,4,5.0,28533.0,33383.0,90168.0,90585.0,25114.0,41107.0,39680.0,51143.0,17189.0,13932.0
2026-05-06 16:40:01.754431,972602,1609507865137640,5465050035,0.755424,0.228384,0.513376,-0.56,-0.91,-5.4075,-40.032,9.080001,-69.96001,concentric,4,5.0,28533.0,33383.0,90168.0,90585.0,25114.0,41107.0,39680.0,51143.0,17189.0,13932.0
2026-05-06 16:40:01.787976,972613,1609507865147022,5465058801,0.755424,0.228384,0.513376,-1.05875,-0.42875,-6.23,-40.032,9.080001,-69.96001,concentric,4,5.0,28572.0,33422.0,90036.0,90614.0,25166.0,41128.0,39639.0,51171.0,17224.0,13968.0
2026-05-06 16:40:01.790500,972614,1609507865161620,5465073848,0.726144,0.183488,0.493856,-1.91625,-0.51625,-7.67375,-40.280003,8.968,-70.0,concentric,4,5.0,28572.0,33422.0,90036.0,90614.0,25166.0,41128.0,39639.0,51171.0,17224.0,13968.0
2026-05-06 16:40:01.795530,972615,1609507865170660,5465082675,0.726144,0.183488,0.493856,-0.245,-0.7875,-7.53375,-40.280003,8.968,-70.0,concentric,4,5.0,28572.0,33422.0,90036.0,90614.0,25166.0,41128.0,39639.0,51171.0,17224.0,13968.0
2026-05-06 16:40:01.798105,972616,1609507865179631,5465091411,0.706624,0.173728,0.521184,1.18125,-0.51625,-6.97375,-40.0,8.616,-69.528,concentric,4,5.0,28572.0,33422.0,90036.0,90614.0,25166.0,41128.0,39639.0,51171.0,17224.0,13968.0
2026-05-06 16:40:01.820567,972617,1609507865194147,5465106318,0.706624,0.173728,0.521184,1.82875,0.58625,-6.4575,-40.0,8.616,-69.528,concentric,4,5.0,28572.0,33422.0,90036.0,90614.0,25166.0,41128.0,39639.0,51171.0,17224.0,13968.0
2026-05-06 16:40:01.845636,972618,1609507865203099,5465115046,0.716384,0.199104,0.489952,1.88125,1.0325,-5.88,-40.336002,9.224,-68.608,concentric,4,5.0,28572.0,33422.0,90036.0,90614.0,25166.0,41128.0,39639.0,51171.0,17224.0,13968.0
2026-05-06 16:40:01.859041,972619,1609507865217603,5465129962,0.704672,0.21472,0.435296,2.82625,1.11125,-6.0025,-40.144,8.84,-69.648,concentric,4,5.0,28572.0,33422.0,90036.0,90614.0,25166.0,41128.0,39639.0,51171.0,17224.0,13968.0
2026-05-06 16:40:01.859175,972620,1609507865226494,5465138697,0.704672,0.21472,0.435296,3.43875,0.32375,-6.37,-40.144,8.84,-69.648,concentric,4,5.0,28572.0,33422.0,90036.0,90614.0,25166.0,41128.0,39639.0,51171.0,17224.0,13968.0
2026-05-06 16:40:01.862039,972621,1609507865240981,5465153635,0.6832,0.17568,0.466528,1.8025,-0.56875,-7.74375,-39.928,8.08,-69.008,concentric,4,5.0,28572.0,33422.0,90036.0,90614.0,25166.0,41128.0,39639.0,51171.0,17224.0,13968.0
2026-05-06 16:40:01.889357,972632,1609507865250802,5465162627,0.6832,0.17568,0.466528,-0.805,-1.0325,-9.9575,-39.928,8.08,-69.008,concentric,4,5.0,28548.0,33450.0,89922.0,90700.0,25163.0,41177.0,39620.0,51199.0,17250.0,13970.0
2026-05-06 16:40:01.891854,972633,1609507865259987,5465171427,0.681248,0.20496,0.466528,-0.9975,0.46375,-8.23375,-40.696003,6.704001,-68.28001,concentric,4,5.0,28548.0,33450.0,89922.0,90700.0,25163.0,41177.0,39620.0,51199.0,17250.0,13970.0
2026-05-06 16:40:01.894424,972634,1609507865274701,5465186370,0.681248,0.20496,0.466528,3.47375,-0.02625,-9.4675,-40.696003,6.704001,-68.28001,concentric,4,5.0,28548.0,33450.0,89922.0,90700.0,25163.0,41177.0,39620.0,51199.0,17250.0,13970.0
2026-05-06 16:40:01.900459,972635,1609507865283836,5465195097,0.671488,0.167872,0.407968,0.3325,-0.09625,-10.85875,-40.440002,7.144001,-67.08,concentric,4,5.0,28548.0,33450.0,89922.0,90700.0,25163.0,41177.0,39620.0,51199.0,17250.0,13970.0
2026-05-06 16:40:01.909222,972636,1609507865292874,5465203812,0.671488,0.167872,0.407968,-1.6625,-0.77,-10.98125,-40.440002,7.144001,-67.08,concentric,4,5.0,28548.0,33450.0,89922.0,90700.0,25163.0,41177.0,39620.0,51199.0,17250.0,13970.0
2026-05-06 16:40:01.922971,972637,1609507865307807,5465218768,0.6344,0.162016,0.392352,-0.42,-1.7675,-10.29,-40.84,8.440001,-69.624,concentric,4,5.0,28548.0,33450.0,89922.0,90700.0,25163.0,41177.0,39620.0,51199.0,17250.0,13970.0
2026-05-06 16:40:01.936713,972638,1609507865317201,5465229575,0.628544,0.251808,0.415776,2.89625,-1.16375,-7.28875,-40.568,7.792,-68.90401,concentric,4,5.0,28548.0,33450.0,89922.0,90700.0,25163.0,41177.0,39620.0,51199.0,17250.0,13970.0
2026-05-06 16:40:01.950355,972639,1609507865331767,5465244489,0.628544,0.251808,0.415776,7.2625,-0.88375,-6.055,-40.568,7.792,-68.90401,concentric,4,5.0,28548.0,33450.0,89922.0,90700.0,25163.0,41177.0,39620.0,51199.0,17250.0,13970.0
2026-05-06 16:40:01.957802,972640,1609507865340695,5465253225,0.657824,0.183488,0.47824,8.09375,-0.23625,-8.33,-40.440002,6.56,-68.920006,concentric,4,5.0,28548.0,33450.0,89922.0,90700.0,25163.0,41177.0,39620.0,51199.0,17250.0,13970.0
2026-05-06 16:40:01.989376,972651,1609507865350177,5465262033,0.657824,0.183488,0.47824,3.98125,0.30625,-11.5325,-40.440002,6.56,-68.920006,concentric,4,5.0,28541.0,33425.0,89769.0,90357.0,25138.0,41129.0,39507.0,50997.0,17209.0,13948.0
2026-05-06 16:40:01.991858,972652,1609507865364770,5465277180,0.628544,0.210816,0.437248,1.4525,0.0175,-10.47375,-40.440002,8.288,-69.792,concentric,4,5.0,28541.0,33425.0,89769.0,90357.0,25138.0,41129.0,39507.0,50997.0,17209.0,13948.0
2026-05-06 16:40:01.994384,972653,1609507865373753,5465285948,0.628544,0.210816,0.437248,1.09375,-0.49875,-8.68,-40.440002,8.288,-69.792,concentric,4,5.0,28541.0,33425.0,89769.0,90357.0,25138.0,41129.0,39507.0,50997.0,17209.0,13948.0
2026-05-06 16:40:02.008115,972654,1609507865388323,5465300840,0.601216,0.240096,0.41968,3.255,-0.16625,-7.88375,-40.424004,8.512,-69.28001,concentric,4,5.0,28541.0,33425.0,89769.0,90357.0,25138.0,41129.0,39507.0,50997.0,17209.0,13948.0
2026-05-06 16:40:02.014381,972655,1609507865397253,5465309548,0.632448,0.12688,0.423584,3.99,-0.455,-9.073751,-40.424004,8.512,-69.672005,concentric,4,5.0,28541.0,33425.0,89769.0,90357.0,25138.0,41129.0,39507.0,50997.0,17209.0,13948.0
2026-05-06 16:40:02.022995,972656,1609507865406180,5465318276,0.632448,0.12688,0.423584,1.3475,-0.5075,-10.6225,-40.016003,8.208,-69.672005,concentric,4,5.0,28541.0,33425.0,89769.0,90357.0,25138.0,41129.0,39507.0,50997.0,17209.0,13948.0
2026-05-06 16:40:02.056774,972657,1609507865420752,5465333194,0.6344,0.158112,0.445056,0.84,-1.4,-7.51625,-40.664,7.016,-68.456,concentric,4,5.0,28541.0,33425.0,89769.0,90357.0,25138.0,41129.0,39507.0,50997.0,17209.0,13948.0
2026-05-06 16:40:02.059276,972658,1609507865429704,5465341866,0.6344,0.158112,0.445056,-0.42875,-3.3425,-5.11,-40.664,7.016,-68.456,concentric,4,5.0,28541.0,33425.0,89769.0,90357.0,25138.0,41129.0,39507.0,50997.0,17209.0,13948.0
2026-05-06 16:40:02.061753,972659,1609507865444254,5465356768,0.601216,0.2928,0.347456,-2.8175,-4.7775,-2.94,-40.448,8.272,-70.504005,concentric,4,5.0,28541.0,33425.0,89769.0,90357.0,25138.0,41129.0,39507.0,50997.0,17209.0,13948.0
2026-05-06 16:40:02.089012,972670,1609507865453518,5465365830,0.601216,0.2928,0.347456,-2.51125,-5.1975,-3.5,-40.448,8.272,-70.504005,concentric,4,5.0,28575.0,33432.0,89583.0,90519.0,25155.0,41149.0,39414.0,51050.0,17239.0,13969.0
2026-05-06 16:40:02.091551,972671,1609507865462606,5465374638,0.642208,0.236192,0.40992,3.5525,-7.0,-5.24125,-40.752003,6.28,-68.352005,concentric,4,5.0,28575.0,33432.0,89583.0,90519.0,25155.0,41149.0,39414.0,51050.0,17239.0,13969.0
2026-05-06 16:40:02.094015,972672,1609507865477120,5465389603,0.642208,0.236192,0.40992,6.3,-8.925,-10.4475,-40.752003,6.28,-68.352005,concentric,4,5.0,28575.0,33432.0,89583.0,90519.0,25155.0,41149.0,39414.0,51050.0,17239.0,13969.0
2026-05-06 16:40:02.103160,972673,1609507865486089,5465398343,0.6344,0.11712,0.501664,7.42,-10.3425,-8.6625,-40.552002,6.776001,-67.16801,concentric,4,5.0,28575.0,33432.0,89583.0,90519.0,25155.0,41149.0,39414.0,51050.0,17239.0,13969.0
2026-05-06 16:40:02.126902,972674,1609507865500665,5465413288,0.593408,0.218624,0.368928,7.58625,-11.917501,-4.64625,-40.856003,7.08,-68.54401,concentric,4,5.0,28575.0,33432.0,89583.0,90519.0,25155.0,41149.0,39414.0,51050.0,17239.0,13969.0
2026-05-06 16:40:02.129438,972675,1609507865509608,5465421982,0.593408,0.218624,0.368928,4.29625,-10.77125,-2.17875,-40.856003,7.08,-68.54401,concentric,4,5.0,28575.0,33432.0,89583.0,90519.0,25155.0,41149.0,39414.0,51050.0,17239.0,13969.0
2026-05-06 16:40:02.143271,972676,1609507865524155,5465434909,0.646112,0.228384,0.388448,2.80875,-9.82625,-0.49875,-40.864002,4.752,-67.69601,concentric,4,5.0,28575.0,33432.0,89583.0,90519.0,25155.0,41149.0,39414.0,51050.0,17239.0,13969.0
2026-05-06 16:40:02.149107,972677,1609507865533471,5465445729,0.646112,0.228384,0.388448,0.84,-9.42375,-3.61375,-40.864002,4.752,-67.69601,concentric,4,5.0,28575.0,33432.0,89583.0,90519.0,25155.0,41149.0,39414.0,51050.0,17239.0,13969.0
2026-05-06 16:40:02.163015,972678,1609507865542564,5465454456,0.597312,0.279136,0.445056,1.77625,-8.505,-3.99875,-40.848003,8.832001,-69.912,concentric,4,5.0,28575.0,33432.0,89583.0,90519.0,25155.0,41149.0,39414.0,51050.0,17239.0,13969.0
2026-05-06 16:40:02.247969,972689,1609507865557260,5465469626,0.597312,0.279136,0.445056,6.125,-8.47,-3.45625,-40.848003,8.832001,-69.912,concentric,4,5.0,28444.0,33366.0,89606.0,90512.0,25063.0,41068.0,39456.0,51107.0,17195.0,13935.0
2026-05-06 16:40:02.250397,972690,1609507865566258,5465478350,0.646112,0.347456,0.445056,9.5725,-8.435,-5.20625,-40.672,8.336,-69.392006,concentric,4,5.0,28444.0,33366.0,89606.0,90512.0,25063.0,41068.0,39456.0,51107.0,17195.0,13935.0
2026-05-06 16:40:02.252850,972691,1609507865580748,5465493262,0.67344,0.255712,0.407968,8.96,-7.88375,-9.4325,-41.36,8.352,-70.088005,concentric,4,5.0,28444.0,33366.0,89606.0,90512.0,25063.0,41068.0,39456.0,51107.0,17195.0,13935.0
2026-05-06 16:40:02.255241,972692,1609507865589735,5465501967,0.67344,0.255712,0.407968,3.4475,-6.65,-14.37625,-41.36,8.352,-70.088005,concentric,4,5.0,28444.0,33366.0,89606.0,90512.0,25063.0,41068.0,39456.0,51107.0,17195.0,13935.0
2026-05-06 16:40:02.257789,972693,1609507865598673,5465510691,0.67344,0.245952,0.456768,-2.45875,-4.76,-14.18375,-41.36,8.352,-70.088005,concentric,4,5.0,28444.0,33366.0,89606.0,90512.0,25063.0,41068.0,39456.0,51107.0,17195.0,13935.0
2026-05-06 16:40:02.260246,972694,1609507865613362,5465525751,0.67344,0.245952,0.456768,-4.41,-3.0975,-12.04875,-41.384003,8.336,-70.0,concentric,4,5.0,28444.0,33366.0,89606.0,90512.0,25063.0,41068.0,39456.0,51107.0,17195.0,13935.0
2026-05-06 16:40:02.265086,972695,1609507865622270,5465534437,0.642208,0.284992,0.388448,-6.3175,-1.33875,-10.5525,-41.392002,8.784,-69.76,concentric,4,5.0,28444.0,33366.0,89606.0,90512.0,25063.0,41068.0,39456.0,51107.0,17195.0,13935.0
2026-05-06 16:40:02.267845,972696,1609507865636901,5465549421,0.642208,0.284992,0.388448,-5.3025,1.68875,-7.595,-41.392002,8.784,-69.76,concentric,4,5.0,28444.0,33366.0,89606.0,90512.0,25063.0,41068.0,39456.0,51107.0,17195.0,13935.0
2026-05-06 16:40:02.272816,972697,1609507865645862,5465558175,0.704672,0.294752,0.4392,-3.14125,3.38625,-6.02875,-41.752003,6.776001,-68.616005,concentric,4,5.0,28444.0,33366.0,89606.0,90512.0,25063.0,41068.0,39456.0,51107.0,17195.0,13935.0
2026-05-06 16:40:02.330043,972708,1609507865654988,5465567018,0.704672,0.294752,0.4392,-1.3825,4.2525,-6.44875,-41.752003,6.776001,-68.616005,concentric,4,5.0,28452.0,33373.0,89997.0,90421.0,25079.0,41107.0,39623.0,51067.0,17206.0,13945.0
2026-05-06 16:40:02.330297,972709,1609507865669739,5465582078,0.720288,0.310368,0.42944,0.2975,3.45625,-6.1425,-41.808002,5.960001,-67.448006,concentric,4,5.0,28452.0,33373.0,89997.0,90421.0,25079.0,41107.0,39623.0,51067.0,17206.0,13945.0
2026-05-06 16:40:02.332648,972710,1609507865678740,5465590776,0.720288,0.310368,0.42944,1.40875,1.085,-3.31625,-41.808002,5.960001,-67.448006,concentric,4,5.0,28452.0,33373.0,89997.0,90421.0,25079.0,41107.0,39623.0,51067.0,17206.0,13945.0
2026-05-06 16:40:02.335465,972711,1609507865693243,5465605767,0.698816,0.288896,0.486048,-5.8975,-0.25375,-2.45,-42.24,5.104,-65.088005,concentric,4,5.0,28452.0,33373.0,89997.0,90421.0,25079.0,41107.0,39623.0,51067.0,17206.0,13945.0
2026-05-06 16:40:02.337984,972712,1609507865702165,5465614472,0.6344,0.284992,0.456768,-16.345,0.77875,-2.33625,-41.808002,9.392,-69.552,concentric,4,5.0,28452.0,33373.0,89997.0,90421.0,25079.0,41107.0,39623.0,51067.0,17206.0,13945.0
2026-05-06 16:40:02.340439,972713,1609507865716760,5465629428,0.6344,0.284992,0.456768,-22.505,3.40375,0.32375,-41.808002,9.392,-69.552,concentric,4,5.0,28452.0,33373.0,89997.0,90421.0,25079.0,41107.0,39623.0,51067.0,17206.0,13945.0
2026-05-06 16:40:02.343041,972714,1609507865725689,5465638187,0.698816,0.245952,0.450912,-25.12125,4.89125,2.37125,-42.256,7.264,-68.448006,concentric,4,5.0,28452.0,33373.0,89997.0,90421.0,25079.0,41107.0,39623.0,51067.0,17206.0,13945.0
2026-05-06 16:40:02.351758,972715,1609507865734757,5465646908,0.698816,0.245952,0.450912,-26.1275,4.9,2.1875,-42.256,7.264,-68.448006,concentric,4,5.0,28452.0,33373.0,89997.0,90421.0,25079.0,41107.0,39623.0,51067.0,17206.0,13945.0
2026-05-06 16:40:02.393214,972726,1609507865749248,5465661858,0.732,0.142496,0.42944,-20.772501,1.89,5.8625,-41.920002,9.472,-68.784004,concentric,4,5.0,28677.0,33524.0,90370.0,90287.0,25263.0,41269.0,39858.0,51011.0,17314.0,14010.0
2026-05-06 16:40:02.395682,972727,1609507865758288,5465670602,0.732,0.142496,0.42944,-14.4725,-3.045,11.15625,-41.920002,9.472,-68.784004,concentric,4,5.0,28677.0,33524.0,90370.0,90287.0,25263.0,41269.0,39858.0,51011.0,17314.0,14010.0
2026-05-06 16:40:02.398184,972728,1609507865772938,5465685684,0.681248,0.325984,0.427488,-7.21875,-7.32375,16.0125,-42.000004,7.896,-69.056,concentric,4,5.0,28677.0,33524.0,90370.0,90287.0,25263.0,41269.0,39858.0,51011.0,17314.0,14010.0
2026-05-06 16:40:02.400463,972729,1609507865781961,5465694507,0.630496,0.359168,0.433344,-6.76375,-8.70625,14.7,-42.112003,7.920001,-68.68,concentric,4,5.0,28677.0,33524.0,90370.0,90287.0,25263.0,41269.0,39858.0,51011.0,17314.0,14010.0
2026-05-06 16:40:02.412006,972730,1609507865790968,5465703244,0.630496,0.359168,0.433344,-14.4025,-6.27375,6.88625,-42.112003,7.920001,-68.68,concentric,4,5.0,28677.0,33524.0,90370.0,90287.0,25263.0,41269.0,39858.0,51011.0,17314.0,14010.0
2026-05-06 16:40:02.427547,972731,1609507865805531,5465718169,0.817888,0.199104,0.49776,-15.26,-4.34,1.33,-41.744003,8.344001,-68.888,concentric,4,5.0,28677.0,33524.0,90370.0,90287.0,25263.0,41269.0,39858.0,51011.0,17314.0,14010.0
2026-05-06 16:40:02.435384,972732,1609507865814488,5465726941,0.817888,0.199104,0.49776,-10.85875,-5.20625,-2.37125,-41.744003,8.344001,-68.888,concentric,4,5.0,28677.0,33524.0,90370.0,90287.0,25263.0,41269.0,39858.0,51011.0,17314.0,14010.0
2026-05-06 16:40:02.444029,972733,1609507865828990,5465739932,0.782752,0.193248,0.466528,-7.83125,-8.715,-2.0125,-41.968002,10.272,-69.296005,concentric,4,5.0,28677.0,33524.0,90370.0,90287.0,25263.0,41269.0,39858.0,51011.0,17314.0,14010.0
2026-05-06 16:40:02.458024,972734,1609507865838381,5465750742,0.782752,0.193248,0.466528,-0.9625,-12.43375,2.2925,-41.968002,10.272,-69.296005,concentric,4,5.0,28677.0,33524.0,90370.0,90287.0,25263.0,41269.0,39858.0,51011.0,17314.0,14010.0
2026-05-06 16:40:02.464364,972735,1609507865847295,5465759448,0.714432,0.244,0.538752,0.455,-10.59625,0.7875,-42.264004,10.184,-70.69601,concentric,4,5.0,28677.0,33524.0,90370.0,90287.0,25263.0,41269.0,39858.0,51011.0,17314.0,14010.0
2026-05-06 16:40:02.491980,972746,1609507865862003,5465774492,0.788608,0.2928,0.548512,-4.6025,-5.8275,-2.275,-42.248,7.032001,-67.888,concentric,4,5.0,28471.0,33411.0,90487.0,90620.0,25102.0,41139.0,39913.0,51134.0,17201.0,13940.0
2026-05-06 16:40:02.494422,972747,1609507865871007,5465783210,0.788608,0.2928,0.548512,-8.58375,-0.42875,-4.1825,-42.248,7.032001,-67.888,concentric,4,5.0,28471.0,33411.0,90487.0,90620.0,25102.0,41139.0,39913.0,51134.0,17201.0,13940.0
2026-05-06 16:40:02.503067,972748,1609507865885689,5465798209,0.866688,0.339648,0.550464,-11.042501,3.08,-8.58375,-42.376003,6.68,-68.16,concentric,4,5.0,28471.0,33411.0,90487.0,90620.0,25102.0,41139.0,39913.0,51134.0,17201.0,13940.0
2026-05-06 16:40:02.511983,972749,1609507865894621,5465806897,0.866688,0.339648,0.550464,-5.08375,2.8175,-12.5825,-42.376003,6.68,-68.16,concentric,4,5.0,28471.0,33411.0,90487.0,90620.0,25102.0,41139.0,39913.0,51134.0,17201.0,13940.0
2026-05-06 16:40:02.525503,972750,1609507865909127,5465821841,0.825696,0.417728,0.550464,7.23625,0.67375,-14.83125,-42.72,10.408001,-69.496,concentric,4,5.0,28471.0,33411.0,90487.0,90620.0,25102.0,41139.0,39913.0,51134.0,17201.0,13940.0
2026-05-06 16:40:02.534377,972751,1609507865918057,5465830588,0.825696,0.417728,0.550464,14.91875,-0.2975,-18.29625,-42.72,10.408001,-69.496,concentric,4,5.0,28471.0,33411.0,90487.0,90620.0,25102.0,41139.0,39913.0,51134.0,17201.0,13940.0
2026-05-06 16:40:02.559322,972752,1609507865926971,5465839289,0.704672,0.148352,0.472384,10.3775,1.715,-24.91125,-42.816,10.120001,-69.36,concentric,4,5.0,28471.0,33411.0,90487.0,90620.0,25102.0,41139.0,39913.0,51134.0,17201.0,13940.0
2026-05-06 16:40:02.584196,972753,1609507865941533,5465854205,0.876448,0.324032,0.501664,-4.45375,5.005,-33.285,-44.864002,9.968,-70.192,concentric,4,5.0,28471.0,33411.0,90487.0,90620.0,25102.0,41139.0,39913.0,51134.0,17201.0,13940.0
2026-05-06 16:40:02.617972,972764,1609507865950468,5465862934,0.876448,0.324032,0.501664,-5.39875,3.6925,-22.35625,-43.2,9.968,-70.192,concentric,4,5.0,28539.0,33457.0,90694.0,90313.0,25153.0,41188.0,40036.0,50970.0,17221.0,13972.0
2026-05-06 16:40:02.620322,972765,1609507865965122,5465875971,0.856928,0.329888,0.470432,1.7675,-0.0875,-15.4875,-43.448,9.704,-69.600006,concentric,4,5.0,28539.0,33457.0,90694.0,90313.0,25153.0,41188.0,40036.0,50970.0,17221.0,13972.0
2026-05-06 16:40:02.622712,972766,1609507865974421,5465886794,0.856928,0.329888,0.470432,-0.6125,-2.98375,-18.366251,-43.448,9.704,-69.600006,concentric,4,5.0,28539.0,33457.0,90694.0,90313.0,25153.0,41188.0,40036.0,50970.0,17221.0,13972.0
2026-05-06 16:40:02.625403,972767,1609507865983486,5465895537,0.854976,0.365024,0.603168,6.195,-3.6575,-18.585001,-43.632004,9.672001,-68.64001,concentric,4,5.0,28539.0,33457.0,90694.0,90313.0,25153.0,41188.0,40036.0,50970.0,17221.0,13972.0
2026-05-06 16:40:02.627988,972768,1609507865998141,5465910492,0.854976,0.365024,0.603168,15.68875,-3.85875,-17.10625,-43.632004,9.672001,-68.64001,concentric,4,5.0,28539.0,33457.0,90694.0,90313.0,25153.0,41188.0,40036.0,50970.0,17221.0,13972.0
2026-05-06 16:40:02.630454,972769,1609507866007174,5465919262,0.911584,0.281088,0.591456,13.53625,-0.91875,-15.07625,-43.792004,6.920001,-66.848,concentric,4,5.0,28539.0,33457.0,90694.0,90313.0,25153.0,41188.0,40036.0,50970.0,17221.0,13972.0
2026-05-06 16:40:02.639232,972770,1609507866021721,5465934326,0.911584,0.171776,0.569984,0.805,0.525,-14.84875,-43.792004,6.920001,-68.896,concentric,4,5.0,28539.0,33457.0,90694.0,90313.0,25153.0,41188.0,40036.0,50970.0,17221.0,13972.0
2026-05-06 16:40:02.647943,972771,1609507866030671,5465943076,0.903776,0.171776,0.569984,-8.58375,-0.41125,-10.80625,-43.832,6.432,-68.216,concentric,4,5.0,28539.0,33457.0,90694.0,90313.0,25153.0,41188.0,40036.0,50970.0,17221.0,13972.0
2026-05-06 16:40:02.661808,972772,1609507866045202,5465956075,0.796416,0.425536,0.54656,-3.71,-2.7825,-0.28875,-43.576,9.400001,-69.200005,concentric,4,5.0,28539.0,33457.0,90694.0,90313.0,25153.0,41188.0,40036.0,50970.0,17221.0,13972.0
2026-05-06 16:40:02.693155,972783,1609507866055024,5465967185,0.796416,0.425536,0.54656,4.99625,-2.35375,3.3075,-43.576,9.400001,-69.200005,concentric,4,5.0,28616.0,33544.0,91020.0,90404.0,25222.0,41291.0,40182.0,50994.0,17243.0,14022.0
2026-05-06 16:40:02.695644,972784,1609507866064167,5465975938,0.831552,0.445056,0.61488,8.1025,0.665,-0.63875,-44.056004,7.04,-67.936005,concentric,4,5.0,28616.0,33544.0,91020.0,90404.0,25222.0,41291.0,40182.0,50994.0,17243.0,14022.0
2026-05-06 16:40:02.698223,972785,1609507866078735,5465990863,0.831552,0.445056,0.61488,9.23125,4.06875,-5.69625,-44.056004,7.04,-67.936005,concentric,4,5.0,28616.0,33544.0,91020.0,90404.0,25222.0,41291.0,40182.0,50994.0,17243.0,14022.0
2026-05-06 16:40:02.709151,972786,1609507866087679,5465999631,0.903776,0.179584,0.548512,2.10875,7.0875,-10.78875,-43.936,7.592001,-67.54401,concentric,4,5.0,28616.0,33544.0,91020.0,90404.0,25222.0,41291.0,40182.0,50994.0,17243.0,14022.0
2026-05-06 16:40:02.712858,972787,1609507866096727,5466008347,0.903776,0.179584,0.548512,-5.92375,6.58,-9.77375,-43.936,7.592001,-67.54401,concentric,4,5.0,28616.0,33544.0,91020.0,90404.0,25222.0,41291.0,40182.0,50994.0,17243.0,14022.0
2026-05-06 16:40:02.732811,972788,1609507866111283,5466023293,0.823744,0.345504,0.525088,-2.73,2.93125,-2.84375,-44.088,9.952001,-68.69601,concentric,4,5.0,28616.0,33544.0,91020.0,90404.0,25222.0,41291.0,40182.0,50994.0,17243.0,14022.0
2026-05-06 16:40:02.739290,972789,1609507866120209,5466031978,0.823744,0.345504,0.525088,7.83125,-0.7175,2.38875,-44.088,9.952001,-68.69601,concentric,4,5.0,28616.0,33544.0,91020.0,90404.0,25222.0,41291.0,40182.0,50994.0,17243.0,14022.0
2026-05-06 16:40:02.750558,972790,1609507866134735,5466046936,0.792512,0.46848,0.569984,11.261251,-1.4,-5.81875,-44.144,10.048,-68.72,concentric,4,5.0,28616.0,33544.0,91020.0,90404.0,25222.0,41291.0,40182.0,50994.0,17243.0,14022.0
2026-05-06 16:40:02.759413,972791,1609507866143722,5466055662,0.856928,0.359168,0.534848,2.58125,0.9975,-16.8175,-44.088,9.288,-71.384,concentric,4,5.0,28616.0,33544.0,91020.0,90404.0,25222.0,41291.0,40182.0,50994.0,17243.0,14022.0
2026-05-06 16:40:02.793168,972802,1609507866158438,5466070716,0.856928,0.359168,0.534848,-1.88125,3.70125,-19.0925,-44.088,9.288,-71.384,concentric,4,5.0,28803.0,33631.0,91010.0,90761.0,25367.0,41367.0,40163.0,51153.0,17358.0,14074.0
2026-05-06 16:40:02.795860,972803,1609507866167389,5466079567,0.90768,0.269376,0.534848,-1.9075,3.64875,-20.72875,-44.696003,8.728001,-68.32,concentric,4,5.0,28803.0,33631.0,91010.0,90761.0,25367.0,41367.0,40163.0,51153.0,17358.0,14074.0
2026-05-06 16:40:02.798558,972804,1609507866176390,5466088343,0.90768,0.269376,0.534848,-0.79625,0.86625,-19.005,-44.696003,8.728001,-68.32,concentric,4,5.0,28803.0,33631.0,91010.0,90761.0,25367.0,41367.0,40163.0,51153.0,17358.0,14074.0
2026-05-06 16:40:02.811706,972805,1609507866190947,5466103257,0.8784,0.488,0.61488,1.26875,-2.66,-16.835001,-44.552002,9.144,-68.632,concentric,4,5.0,28803.0,33631.0,91010.0,90761.0,25367.0,41367.0,40163.0,51153.0,17358.0,14074.0
2026-05-06 16:40:02.815225,972806,1609507866199890,5466111969,0.8784,0.488,0.61488,2.2575,-2.5025,-16.37125,-44.552002,9.144,-68.632,concentric,4,5.0,28803.0,33631.0,91010.0,90761.0,25367.0,41367.0,40163.0,51153.0,17358.0,14074.0
2026-05-06 16:40:02.849320,972807,1609507866214479,5466126955,0.870592,0.513376,0.616832,2.2575,-0.805,-19.215,-44.840004,4.936,-67.256004,concentric,4,5.0,28803.0,33631.0,91010.0,90761.0,25367.0,41367.0,40163.0,51153.0,17358.0,14074.0
2026-05-06 16:40:02.851898,972808,1609507866223382,5466135687,0.993568,0.236192,0.597312,-4.71625,1.225,-25.41,-44.840004,9.032001,-68.424,concentric,4,5.0,28803.0,33631.0,91010.0,90761.0,25367.0,41367.0,40163.0,51153.0,17358.0,14074.0
2026-05-06 16:40:02.857924,972809,1609507866232307,5466144407,0.993568,0.236192,0.597312,-10.47375,1.6975,-26.25,-45.112003,8.456,-68.424,eccentric,4,5.0,28803.0,33631.0,91010.0,90761.0,25367.0,41367.0,40163.0,51153.0,17358.0,14074.0
2026-05-06 16:40:02.864174,972810,1609507866246908,5466159414,0.929152,0.363072,0.628544,-8.1375,-0.60375,-20.69375,-44.928,6.656,-66.984,eccentric,4,5.0,28803.0,33631.0,91010.0,90761.0,25367.0,41367.0,40163.0,51153.0,17358.0,14074.0
2026-05-06 16:40:02.896062,972821,1609507866256468,5466168350,0.929152,0.363072,0.628544,-1.02375,-3.185,-9.9575,-44.928,6.656,-66.984,eccentric,4,5.0,28747.0,33591.0,91213.0,90973.0,25314.0,41300.0,40288.0,51293.0,17304.0,14037.0
2026-05-06 16:40:02.897669,972822,1609507866271098,5466183307,0.890112,0.589504,0.61488,6.23,-3.3075,-3.4825,-44.992,7.016,-65.184006,eccentric,4,5.0,28747.0,33591.0,91213.0,90973.0,25314.0,41300.0,40288.0,51293.0,17304.0,14037.0
2026-05-06 16:40:02.900485,972823,1609507866280058,5466192053,0.890112,0.589504,0.61488,3.36,-0.97125,-8.46125,-44.992,7.016,-65.184006,eccentric,4,5.0,28747.0,33591.0,91213.0,90973.0,25314.0,41300.0,40288.0,51293.0,17304.0,14037.0
2026-05-06 16:40:02.930515,972824,1609507866289047,5466200774,0.958432,0.35136,0.552416,-6.67625,1.1725,-15.3825,-44.944,5.968,-67.424,eccentric,4,5.0,28747.0,33591.0,91213.0,90973.0,25314.0,41300.0,40288.0,51293.0,17304.0,14037.0
2026-05-06 16:40:02.968148,972825,1609507866303652,5466215740,0.958432,0.35136,0.560224,-11.41,0.23625,-14.3675,-44.944,5.968,-67.424,eccentric,4,5.0,28747.0,33591.0,91213.0,90973.0,25314.0,41300.0,40288.0,51293.0,17304.0,14037.0
2026-05-06 16:40:02.991831,972826,1609507866312567,5466224460,0.974048,0.259616,0.560224,-8.49625,-2.66875,-7.07,-44.888,8.240001,-68.54401,eccentric,4,5.0,28747.0,33591.0,91213.0,90973.0,25314.0,41300.0,40288.0,51293.0,17304.0,14037.0
2026-05-06 16:40:02.994272,972827,1609507866327064,5466239449,0.903776,0.52704,0.593408,-4.27875,-5.6175,1.435,-44.824,8.304001,-69.04,eccentric,4,5.0,28747.0,33591.0,91213.0,90973.0,25314.0,41300.0,40288.0,51293.0,17304.0,14037.0
2026-05-06 16:40:02.996742,972828,1609507866336013,5466248148,0.903776,0.52704,0.593408,-1.715,-5.67,8.05875,-44.824,8.304001,-69.04,eccentric,4,5.0,28747.0,33591.0,91213.0,90973.0,25314.0,41300.0,40288.0,51293.0,17304.0,14037.0
2026-05-06 16:40:02.999189,972829,1609507866350503,5466263016,0.90768,0.456768,0.56608,-2.9575,-4.725,5.8975,-44.416,7.8,-68.80801,eccentric,4,5.0,28747.0,33591.0,91213.0,90973.0,25314.0,41300.0,40288.0,51293.0,17304.0,14037.0
2026-05-06 16:40:03.026945,972840,1609507866359733,5466271817,0.90768,0.456768,0.56608,-5.27625,-2.6425,-1.3825,-44.416,7.8,-68.80801,eccentric,4,5.0,28701.0,33552.0,91318.0,90897.0,25283.0,41274.0,40328.0,51218.0,17297.0,14031.0
2026-05-06 16:40:03.029408,972841,1609507866368637,5466280721,0.903776,0.33184,0.59536,-1.40875,-2.65125,-4.69875,-44.664,7.84,-69.12,eccentric,4,5.0,28701.0,33552.0,91318.0,90897.0,25283.0,41274.0,40328.0,51218.0,17297.0,14031.0
2026-05-06 16:40:03.031966,972842,1609507866383236,5466295668,0.903776,0.33184,0.59536,2.3625,-4.27,-3.185,-44.664,7.84,-69.12,eccentric,4,5.0,28701.0,33552.0,91318.0,90897.0,25283.0,41274.0,40328.0,51218.0,17297.0,14031.0
2026-05-06 16:40:03.034408,972843,1609507866392270,5466304593,0.872544,0.411872,0.55632,-0.70875,-4.0425,-0.02625,-44.480003,7.512001,-68.048004,eccentric,4,5.0,28701.0,33552.0,91318.0,90897.0,25283.0,41274.0,40328.0,51218.0,17297.0,14031.0
2026-05-06 16:40:03.036883,972844,1609507866406912,5466319638,0.851072,0.488,0.519232,-7.14875,-2.19625,0.07,-44.568,7.76,-69.22401,eccentric,4,5.0,28701.0,33552.0,91318.0,90897.0,25283.0,41274.0,40328.0,51218.0,17297.0,14031.0
2026-05-06 16:40:03.039412,972845,1609507866415937,5466328369,0.851072,0.488,0.519232,-6.37,-0.65625,0.27125,-44.568,7.76,-69.22401,eccentric,4,5.0,28701.0,33552.0,91318.0,90897.0,25283.0,41274.0,40328.0,51218.0,17297.0,14031.0
2026-05-06 16:40:03.041879,972846,1609507866424971,5466337083,0.862784,0.36112,0.56608,-2.70375,0.595,-5.3025,-44.568,7.76,-68.8,eccentric,4,5.0,28701.0,33552.0,91318.0,90897.0,25283.0,41274.0,40328.0,51218.0,17297.0,14031.0
2026-05-06 16:40:03.055451,972847,1609507866439522,5466352069,0.862784,0.36112,0.56608,-0.735,0.48125,-8.82875,-44.584003,7.472,-68.8,eccentric,4,5.0,28701.0,33552.0,91318.0,90897.0,25283.0,41274.0,40328.0,51218.0,17297.0,14031.0
2026-05-06 16:40:03.064410,972848,1609507866448442,5466360829,0.843264,0.3904,0.530944,2.24,-0.98875,-8.18125,-44.168003,7.504,-69.312004,eccentric,4,5.0,28701.0,33552.0,91318.0,90897.0,25283.0,41274.0,40328.0,51218.0,17297.0,14031.0
2026-05-06 16:40:03.095495,972859,1609507866463538,5466375822,0.843264,0.3904,0.530944,0.0875,-1.645,-4.7775,-44.168003,7.504,-69.312004,eccentric,4,5.0,28686.0,33572.0,91272.0,90595.0,25272.0,41278.0,40309.0,51082.0,17258.0,14018.0
2026-05-06 16:40:03.097956,972860,1609507866472683,5466384648,0.856928,0.411872,0.530944,-5.15375,-1.4,-3.31625,-44.136,5.456,-67.872,eccentric,4,5.0,28686.0,33572.0,91272.0,90595.0,25272.0,41278.0,40309.0,51082.0,17258.0,14018.0
2026-05-06 16:40:03.100500,972861,1609507866481712,5466393455,0.856928,0.411872,0.530944,-9.49375,-0.30625,-5.62625,-44.136,5.456,-67.872,eccentric,4,5.0,28686.0,33572.0,91272.0,90595.0,25272.0,41278.0,40309.0,51082.0,17258.0,14018.0
2026-05-06 16:40:03.114017,972862,1609507866496225,5466408354,0.831552,0.327936,0.486048,-11.2875,0.23625,-7.2625,-43.992,6.216,-69.816,eccentric,4,5.0,28686.0,33572.0,91272.0,90595.0,25272.0,41278.0,40309.0,51082.0,17258.0,14018.0
2026-05-06 16:40:03.123136,972863,1609507866505221,5466417128,0.831552,0.398208,0.540704,-4.025,-0.0175,-4.55,-43.992,6.216,-69.816,eccentric,4,5.0,28686.0,33572.0,91272.0,90595.0,25272.0,41278.0,40309.0,51082.0,17258.0,14018.0
2026-05-06 16:40:03.136914,972864,1609507866519725,5466432050,0.806176,0.398208,0.540704,3.185,-0.32375,-4.31375,-44.04,5.064,-69.064,eccentric,4,5.0,28686.0,33572.0,91272.0,90595.0,25272.0,41278.0,40309.0,51082.0,17258.0,14018.0
2026-05-06 16:40:03.145548,972865,1609507866528629,5466440766,0.806176,0.3416,0.542656,3.465,1.18125,-4.9,-43.752003,6.704001,-69.48801,eccentric,4,5.0,28686.0,33572.0,91272.0,90595.0,25272.0,41278.0,40309.0,51082.0,17258.0,14018.0
2026-05-06 16:40:03.173007,972866,1609507866543141,5466455671,0.806176,0.3416,0.542656,-0.735,2.59875,-6.23875,-43.752003,6.704001,-69.48801,eccentric,4,5.0,28686.0,33572.0,91272.0,90595.0,25272.0,41278.0,40309.0,51082.0,17258.0,14018.0
2026-05-06 16:40:03.175509,972867,1609507866552093,5466464400,0.804224,0.290848,0.489952,-5.36375,4.61125,-4.9875,-43.472004,6.672,-69.656006,eccentric,4,5.0,28686.0,33572.0,91272.0,90595.0,25272.0,41278.0,40309.0,51082.0,17258.0,14018.0
2026-05-06 16:40:03.203029,972878,1609507866561122,5466473181,0.804224,0.290848,0.489952,-3.35125,4.4275,-1.6625,-43.472004,6.672,-69.656006,eccentric,4,5.0,28751.0,33621.0,91184.0,90379.0,25331.0,41315.0,40289.0,50966.0,17319.0,14031.0
2026-05-06 16:40:03.205542,972879,1609507866575780,5466488126,0.739808,0.36112,0.460672,0.9975,3.14125,0.84875,-43.408,6.6,-69.48,eccentric,4,5.0,28751.0,33621.0,91184.0,90379.0,25331.0,41315.0,40289.0,50966.0,17319.0,14031.0
2026-05-06 16:40:03.207864,972880,1609507866584721,5466496897,0.739808,0.36112,0.460672,2.5725,1.855,1.5575,-43.408,6.6,-69.48,eccentric,4,5.0,28751.0,33621.0,91184.0,90379.0,25331.0,41315.0,40289.0,50966.0,17319.0,14031.0
2026-05-06 16:40:03.216838,972881,1609507866599291,5466511897,0.72224,0.376736,0.456768,4.76,1.54,0.035,-43.128002,6.552001,-67.864006,eccentric,4,5.0,28751.0,33621.0,91184.0,90379.0,25331.0,41315.0,40289.0,50966.0,17319.0,14031.0
2026-05-06 16:40:03.225672,972882,1609507866608210,5466520615,0.70272,0.2928,0.460672,5.22375,1.435,-2.275,-43.224003,6.376,-69.424,eccentric,4,5.0,28751.0,33621.0,91184.0,90379.0,25331.0,41315.0,40289.0,50966.0,17319.0,14031.0
2026-05-06 16:40:03.239275,972883,1609507866622716,5466533478,0.70272,0.2928,0.460672,1.28625,3.115,-1.9425,-43.224003,6.376,-69.424,eccentric,4,5.0,28751.0,33621.0,91184.0,90379.0,25331.0,41315.0,40289.0,50966.0,17319.0,14031.0
2026-05-06 16:40:03.248217,972884,1609507866632055,5466544249,0.706624,0.230336,0.445056,-4.24375,4.13,1.2775,-42.784,6.384,-69.75201,eccentric,4,5.0,28751.0,33621.0,91184.0,90379.0,25331.0,41315.0,40289.0,50966.0,17319.0,14031.0
2026-05-06 16:40:03.258573,972885,1609507866641047,5466552951,0.706624,0.230336,0.445056,-7.81375,4.36625,4.17375,-42.784,6.384,-69.75201,eccentric,4,5.0,28751.0,33621.0,91184.0,90379.0,25331.0,41315.0,40289.0,50966.0,17319.0,14031.0
2026-05-06 16:40:03.352791,972897,1609507866655714,5466567825,0.650016,0.345504,0.433344,-8.1375,3.4475,7.77,-42.504,6.632,-69.792,eccentric,4,5.0,28730.0,33576.0,90960.0,90166.0,25319.0,41313.0,40163.0,50847.0,17336.0,14066.0
2026-05-06 16:40:03.357170,972898,1609507866664765,5466576644,0.650016,0.345504,0.433344,-5.565,1.51375,8.855001,-42.504,6.632,-69.792,eccentric,4,5.0,28730.0,33576.0,90960.0,90166.0,25319.0,41313.0,40163.0,50847.0,17336.0,14066.0
2026-05-06 16:40:03.358378,972899,1609507866679273,5466591557,0.638304,0.337696,0.337696,-1.18125,-0.56875,6.1425,-42.448,6.960001,-69.912,eccentric,4,5.0,28730.0,33576.0,90960.0,90166.0,25319.0,41313.0,40163.0,50847.0,17336.0,14066.0
2026-05-06 16:40:03.360372,972900,1609507866688164,5466600274,0.620736,0.191296,0.443104,0.7875,-1.1375,1.77625,-42.56,6.544,-70.16801,eccentric,4,5.0,28730.0,33576.0,90960.0,90166.0,25319.0,41313.0,40163.0,50847.0,17336.0,14066.0
2026-05-06 16:40:03.362995,972901,1609507866697177,5466609127,0.620736,0.191296,0.443104,0.2275,-0.42,1.60125,-42.56,6.544,-70.16801,eccentric,4,5.0,28730.0,33576.0,90960.0,90166.0,25319.0,41313.0,40163.0,50847.0,17336.0,14066.0
2026-05-06 16:40:03.365288,972902,1609507866711699,5466624041,0.640256,0.247904,0.456768,0.07,0.91875,4.73375,-42.408,7.064,-69.75201,eccentric,4,5.0,28730.0,33576.0,90960.0,90166.0,25319.0,41313.0,40163.0,50847.0,17336.0,14066.0
2026-05-06 16:40:03.367980,972903,1609507866720670,5466632798,0.640256,0.247904,0.456768,-1.26875,1.47,7.86625,-42.408,7.064,-69.75201,eccentric,4,5.0,28730.0,33576.0,90960.0,90166.0,25319.0,41313.0,40163.0,50847.0,17336.0,14066.0
2026-05-06 16:40:03.370464,972904,1609507866735443,5466647763,0.603168,0.288896,0.35136,-2.0125,1.67125,8.995,-42.552002,3.328,-67.776,eccentric,4,5.0,28730.0,33576.0,90960.0,90166.0,25319.0,41313.0,40163.0,50847.0,17336.0,14066.0
2026-05-06 16:40:03.372982,972905,1609507866744493,5466656521,0.603168,0.288896,0.35136,0.945,0.9275,9.09125,-42.552002,3.328,-67.776,eccentric,4,5.0,28730.0,33576.0,90960.0,90166.0,25319.0,41313.0,40163.0,50847.0,17336.0,14066.0
2026-05-06 16:40:03.379272,972906,1609507866753439,5466665303,0.587552,0.230336,0.374784,3.71875,-0.74375,6.99125,-41.976,5.184,-68.656006,eccentric,4,5.0,28730.0,33576.0,90960.0,90166.0,25319.0,41313.0,40163.0,50847.0,17336.0,14066.0
2026-05-06 16:40:03.406866,972917,1609507866768114,5466680405,0.583648,0.230336,0.406016,4.4275,-0.5775,5.73125,-41.816,6.768,-73.952,eccentric,4,5.0,28745.0,33566.0,90848.0,89964.0,25329.0,41311.0,40095.0,50777.0,17356.0,14050.0
2026-05-06 16:40:03.409384,972918,1609507866777130,5466689283,0.583648,0.230336,0.406016,4.54125,-0.95375,6.4925,-41.816,6.768,-73.952,eccentric,4,5.0,28745.0,33566.0,90848.0,89964.0,25329.0,41311.0,40095.0,50777.0,17356.0,14050.0
2026-05-06 16:40:03.411841,972919,1609507866791726,5466704242,0.55632,0.244,0.353312,2.6775,0.0525,6.65875,-41.568,5.392,-69.024,eccentric,4,5.0,28745.0,33566.0,90848.0,89964.0,25329.0,41311.0,40095.0,50777.0,17356.0,14050.0
2026-05-06 16:40:03.418151,972920,1609507866800664,5466713026,0.55632,0.244,0.353312,1.05875,0.69125,6.81625,-41.568,5.392,-69.024,eccentric,4,5.0,28745.0,33566.0,90848.0,89964.0,25329.0,41311.0,40095.0,50777.0,17356.0,14050.0
2026-05-06 16:40:03.432001,972921,1609507866815157,5466725921,0.540704,0.216672,0.288896,0.06125,0.30625,4.75125,-41.712,7.104001,-70.456,eccentric,4,5.0,28745.0,33566.0,90848.0,89964.0,25329.0,41311.0,40095.0,50777.0,17356.0,14050.0
2026-05-06 16:40:03.445775,972922,1609507866824506,5466736703,0.540704,0.216672,0.288896,4.34875,-0.2625,6.405,-41.712,7.104001,-70.456,eccentric,4,5.0,28745.0,33566.0,90848.0,89964.0,25329.0,41311.0,40095.0,50777.0,17356.0,14050.0
2026-05-06 16:40:03.457441,972923,1609507866833427,5466745417,0.532896,0.259616,0.359168,9.70375,-1.085,8.82,-41.216003,7.048,-70.184006,eccentric,4,5.0,28745.0,33566.0,90848.0,89964.0,25329.0,41311.0,40095.0,50777.0,17356.0,14050.0
2026-05-06 16:40:03.465354,972924,1609507866847929,5466760307,0.544608,0.23424,0.398208,7.735,-0.51625,7.1225,-41.216003,7.048,-71.232,eccentric,4,5.0,28745.0,33566.0,90848.0,89964.0,25329.0,41311.0,40095.0,50777.0,17356.0,14050.0
2026-05-06 16:40:03.500557,972935,1609507866856893,5466769049,0.544608,0.23424,0.398208,3.955,1.89875,8.44375,-41.152,7.216001,-71.232,eccentric,4,5.0,28666.0,33524.0,90641.0,89505.0,25284.0,41281.0,39990.0,50570.0,17329.0,14032.0
2026-05-06 16:40:03.503148,972936,1609507866871508,5466784089,0.548512,0.279136,0.345504,4.20875,4.03375,11.27,-41.224003,3.76,-67.448006,eccentric,4,5.0,28666.0,33524.0,90641.0,89505.0,25284.0,41281.0,39990.0,50570.0,17329.0,14032.0
2026-05-06 16:40:03.505580,972937,1609507866880480,5466792817,0.548512,0.279136,0.345504,5.85375,4.40125,12.25,-41.224003,3.76,-67.448006,eccentric,4,5.0,28666.0,33524.0,90641.0,89505.0,25284.0,41281.0,39990.0,50570.0,17329.0,14032.0
2026-05-06 16:40:03.508165,972938,1609507866889404,5466801628,0.59536,0.244,0.290848,6.67625,4.2525,11.9875,-40.736,7.736001,-69.832,eccentric,4,5.0,28666.0,33524.0,90641.0,89505.0,25284.0,41281.0,39990.0,50570.0,17329.0,14032.0
2026-05-06 16:40:03.521897,972939,1609507866903946,5466816567,0.59536,0.244,0.290848,3.56125,3.64,11.03375,-40.736,7.736001,-69.832,eccentric,4,5.0,28666.0,33524.0,90641.0,89505.0,25284.0,41281.0,39990.0,50570.0,17329.0,14032.0
2026-05-06 16:40:03.530646,972940,1609507866912961,5466825300,0.593408,0.206912,0.398208,-1.12,2.8525,11.64625,-40.760002,7.72,-70.0,eccentric,4,5.0,28666.0,33524.0,90641.0,89505.0,25284.0,41281.0,39990.0,50570.0,17329.0,14032.0
2026-05-06 16:40:03.544185,972941,1609507866927464,5466838221,0.593408,0.206912,0.398208,-4.48875,3.7275,14.7875,-40.760002,7.72,-70.0,eccentric,4,5.0,28666.0,33524.0,90641.0,89505.0,25284.0,41281.0,39990.0,50570.0,17329.0,14032.0
2026-05-06 16:40:03.552759,972942,1609507866936682,5466849107,0.571936,0.329888,0.382592,-3.40375,4.73375,19.25875,-40.744003,7.984,-69.864006,eccentric,4,5.0,28666.0,33524.0,90641.0,89505.0,25284.0,41281.0,39990.0,50570.0,17329.0,14032.0
2026-05-06 16:40:03.561744,972943,1609507866945656,5466857865,0.571936,0.329888,0.382592,-2.4675,6.71125,19.22375,-40.744003,7.984,-69.864006,eccentric,4,5.0,28666.0,33524.0,90641.0,89505.0,25284.0,41281.0,39990.0,50570.0,17329.0,14032.0
2026-05-06 16:40:03.629401,972954,1609507866960686,5466872826,0.609024,0.296704,0.372832,-3.77125,6.44,14.62125,-40.576,7.728,-69.568,eccentric,4,5.0,28545.0,33440.0,90488.0,89613.0,25165.0,41196.0,39893.0,50586.0,17251.0,13971.0
2026-05-06 16:40:03.633464,972955,1609507866969684,5466881745,0.61488,0.226432,0.40016,-3.92875,4.89125,10.7625,-40.592003,6.920001,-67.768005,eccentric,4,5.0,28545.0,33440.0,90488.0,89613.0,25165.0,41196.0,39893.0,50586.0,17251.0,13971.0
2026-05-06 16:40:03.634150,972956,1609507866984151,5466896710,0.61488,0.226432,0.40016,-2.345,3.535,9.82625,-40.592003,6.920001,-67.768005,eccentric,4,5.0,28545.0,33440.0,90488.0,89613.0,25165.0,41196.0,39893.0,50586.0,17251.0,13971.0
2026-05-06 16:40:03.636569,972957,1609507866993059,5466905423,0.618784,0.286944,0.40992,-3.63125,2.54625,10.22875,-40.416,8.240001,-69.344,eccentric,4,5.0,28545.0,33440.0,90488.0,89613.0,25165.0,41196.0,39893.0,50586.0,17251.0,13971.0
2026-05-06 16:40:03.639688,972958,1609507867007730,5466920443,0.618784,0.286944,0.40992,-7.07,2.24,11.31375,-40.416,8.240001,-69.344,eccentric,4,5.0,28545.0,33440.0,90488.0,89613.0,25165.0,41196.0,39893.0,50586.0,17251.0,13971.0
2026-05-06 16:40:03.664245,972959,1609507867016853,5466929163,0.6344,0.316224,0.437248,-11.78625,2.40625,8.68875,-40.208,8.544001,-71.352005,eccentric,4,5.0,28545.0,33440.0,90488.0,89613.0,25165.0,41196.0,39893.0,50586.0,17251.0,13971.0
2026-05-06 16:40:03.689354,972960,1609507867025845,5466937877,0.6344,0.316224,0.437248,-10.70125,1.855,7.245,-40.208,8.544001,-71.352005,eccentric,4,5.0,28545.0,33440.0,90488.0,89613.0,25165.0,41196.0,39893.0,50586.0,17251.0,13971.0
2026-05-06 16:40:03.703161,972961,1609507867040334,5466952796,0.671488,0.271328,0.435296,-8.9075,0.39375,2.38,-39.704002,8.016001,-69.90401,eccentric,4,5.0,28545.0,33440.0,90488.0,89613.0,25165.0,41196.0,39893.0,50586.0,17251.0,13971.0
2026-05-06 16:40:03.705693,972962,1609507867049250,5466961522,0.671488,0.218624,0.433344,-8.3475,-0.665,-0.455,-39.704002,8.016001,-67.856,eccentric,4,5.0,28545.0,33440.0,90488.0,89613.0,25165.0,41196.0,39893.0,50586.0,17251.0,13971.0
2026-05-06 16:40:03.734005,972973,1609507867063952,5466974977,0.677344,0.218624,0.433344,-9.2225,-1.575,-0.6825,-40.336002,8.336,-68.048004,eccentric,4,5.0,28414.0,33350.0,90485.0,89957.0,25051.0,41099.0,39906.0,50801.0,17192.0,13941.0
2026-05-06 16:40:03.736055,972974,1609507867073391,5466985785,0.704672,0.251808,0.505568,-10.815,-0.88375,0.88375,-40.120003,8.592,-69.816,eccentric,4,5.0,28414.0,33350.0,90485.0,89957.0,25051.0,41099.0,39906.0,50801.0,17192.0,13941.0
2026-05-06 16:40:03.737794,972975,1609507867082393,5466994500,0.704672,0.251808,0.505568,-10.78875,0.315,2.135,-40.120003,8.592,-69.816,eccentric,4,5.0,28414.0,33350.0,90485.0,89957.0,25051.0,41099.0,39906.0,50801.0,17192.0,13941.0
2026-05-06 16:40:03.740505,972976,1609507867096954,5467009461,0.72224,0.222528,0.482144,-12.76625,1.085,0.6825,-40.2,9.080001,-70.464005,eccentric,4,5.0,28414.0,33350.0,90485.0,89957.0,25051.0,41099.0,39906.0,50801.0,17192.0,13941.0
2026-05-06 16:40:03.742964,972977,1609507867105904,5467018243,0.72224,0.222528,0.482144,-10.28125,1.26875,2.59875,-40.2,9.080001,-70.464005,eccentric,4,5.0,28414.0,33350.0,90485.0,89957.0,25051.0,41099.0,39906.0,50801.0,17192.0,13941.0
2026-05-06 16:40:03.745490,972978,1609507867120571,5467033167,0.72224,0.247904,0.47824,-5.59125,-0.62125,1.8375,-40.312,6.624001,-68.496,eccentric,4,5.0,28414.0,33350.0,90485.0,89957.0,25051.0,41099.0,39906.0,50801.0,17192.0,13941.0
2026-05-06 16:40:03.748050,972979,1609507867129533,5467041928,0.72224,0.247904,0.466528,-4.33125,-1.74125,1.0325,-40.312,6.624001,-68.496,eccentric,4,5.0,28414.0,33350.0,90485.0,89957.0,25051.0,41099.0,39906.0,50801.0,17192.0,13941.0
2026-05-06 16:40:03.754353,972980,1609507867138493,5467050709,0.714432,0.218624,0.466528,-6.23,-2.84375,0.23625,-39.832,6.776001,-71.232,eccentric,4,5.0,28414.0,33350.0,90485.0,89957.0,25051.0,41099.0,39906.0,50801.0,17192.0,13941.0
2026-05-06 16:40:03.788175,972981,1609507867153008,5467065660,0.716384,0.20496,0.501664,-7.8225,-3.31625,-0.20125,-39.88,8.936001,-70.0,eccentric,4,5.0,28414.0,33350.0,90485.0,89957.0,25051.0,41099.0,39906.0,50801.0,17192.0,13941.0
2026-05-06 16:40:03.820858,972992,1609507867162031,5467074460,0.716384,0.20496,0.501664,-5.985,-3.4125,2.33625,-39.88,8.936001,-70.0,eccentric,4,5.0,28423.0,33363.0,90569.0,90140.0,25086.0,41082.0,39956.0,50892.0,17218.0,13949.0
2026-05-06 16:40:03.821304,972993,1609507867176674,5467089408,0.691008,0.261568,0.423584,-4.1125,-4.095,2.79125,-39.824,9.056001,-69.952,eccentric,4,5.0,28423.0,33363.0,90569.0,90140.0,25086.0,41082.0,39956.0,50892.0,17218.0,13949.0
2026-05-06 16:40:03.822966,972994,1609507867185773,5467098191,0.691008,0.261568,0.423584,-2.91375,-4.445,2.19625,-39.824,9.056001,-69.952,eccentric,4,5.0,28423.0,33363.0,90569.0,90140.0,25086.0,41082.0,39956.0,50892.0,17218.0,13949.0
2026-05-06 16:40:03.825401,972995,1609507867194782,5467107016,0.733952,0.251808,0.47824,-0.1575,-4.69875,-0.105,-39.704002,8.472,-70.192,eccentric,4,5.0,28423.0,33363.0,90569.0,90140.0,25086.0,41082.0,39956.0,50892.0,17218.0,13949.0
2026-05-06 16:40:03.829985,972996,1609507867209293,5467121964,0.733952,0.251808,0.47824,0.49875,-4.13,-3.26375,-39.704002,8.472,-70.192,eccentric,4,5.0,28423.0,33363.0,90569.0,90140.0,25086.0,41082.0,39956.0,50892.0,17218.0,13949.0
2026-05-06 16:40:03.836833,972997,1609507867218511,5467130734,0.72224,0.210816,0.46848,-0.58625,-3.64,-4.41875,-40.072002,8.280001,-71.84801,eccentric,4,5.0,28423.0,33363.0,90569.0,90140.0,25086.0,41082.0,39956.0,50892.0,17218.0,13949.0
2026-05-06 16:40:03.850646,972998,1609507867233047,5467144521,0.694912,0.222528,0.460672,-3.8675,-2.8875,-6.04625,-40.096,8.664001,-70.328,eccentric,4,5.0,28423.0,33363.0,90569.0,90140.0,25086.0,41082.0,39956.0,50892.0,17218.0,13949.0
2026-05-06 16:40:03.859356,972999,1609507867241977,5467153256,0.694912,0.222528,0.460672,-5.2325,-1.51375,-6.2125,-40.096,8.664001,-70.328,eccentric,4,5.0,28423.0,33363.0,90569.0,90140.0,25086.0,41082.0,39956.0,50892.0,17218.0,13949.0
2026-05-06 16:40:03.873202,973000,1609507867256506,5467168340,0.733952,0.320128,0.491904,-0.4725,-0.07,-4.27,-40.248,6.976,-69.096,eccentric,4,5.0,28423.0,33363.0,90569.0,90140.0,25086.0,41082.0,39956.0,50892.0,17218.0,13949.0
2026-05-06 16:40:03.900499,973011,1609507867265524,5467177151,0.733952,0.320128,0.491904,3.80625,0.3325,-5.87125,-40.248,6.976,-69.096,eccentric,4,5.0,28488.0,33380.0,90474.0,90149.0,25140.0,41109.0,39899.0,50895.0,17274.0,13976.0
2026-05-06 16:40:03.903010,973012,1609507867274505,5467185950,0.735904,0.242048,0.489952,3.5175,0.18375,-8.67125,-39.944,7.64,-69.144005,eccentric,4,5.0,28488.0,33380.0,90474.0,90149.0,25140.0,41109.0,39899.0,50895.0,17274.0,13976.0
2026-05-06 16:40:03.905481,973013,1609507867289249,5467200955,0.735904,0.242048,0.489952,-1.4525,0.805,-11.8125,-39.944,7.64,-69.144005,eccentric,4,5.0,28488.0,33380.0,90474.0,90149.0,25140.0,41109.0,39899.0,50895.0,17274.0,13976.0
2026-05-06 16:40:03.914363,973014,1609507867298408,5467209735,0.728096,0.238144,0.489952,-4.2,0.3675,-11.59375,-40.344,6.312,-69.07201,eccentric,4,5.0,28488.0,33380.0,90474.0,90149.0,25140.0,41109.0,39899.0,50895.0,17274.0,13976.0
2026-05-06 16:40:03.948126,973015,1609507867312981,5467224729,0.747616,0.257664,0.488,-3.605,-0.6125,-8.54875,-40.08,8.624001,-69.648,eccentric,4,5.0,28488.0,33380.0,90474.0,90149.0,25140.0,41109.0,39899.0,50895.0,17274.0,13976.0
2026-05-06 16:40:03.950565,973016,1609507867321909,5467233415,0.747616,0.257664,0.488,-2.7825,-1.33,-6.9125,-40.08,8.624001,-69.648,eccentric,4,5.0,28488.0,33380.0,90474.0,90149.0,25140.0,41109.0,39899.0,50895.0,17274.0,13976.0
2026-05-06 16:40:03.953129,973017,1609507867330829,5467242201,0.747616,0.257664,0.488,-2.38875,-0.8925,-5.39875,-40.08,8.624001,-69.648,eccentric,4,5.0,28488.0,33380.0,90474.0,90149.0,25140.0,41109.0,39899.0,50895.0,17274.0,13976.0
2026-05-06 16:40:03.966961,973018,1609507867345334,5467257103,0.726144,0.261568,0.44896,-4.585,-0.28,-5.495,-40.016003,8.072001,-72.056,eccentric,4,5.0,28488.0,33380.0,90474.0,90149.0,25140.0,41109.0,39899.0,50895.0,17274.0,13976.0
2026-05-06 16:40:03.969419,973019,1609507867354254,5467265980,0.747616,0.277184,0.464576,-5.22375,-0.14875,-4.2875,-39.864002,8.808001,-70.392006,eccentric,4,5.0,28488.0,33380.0,90474.0,90149.0,25140.0,41109.0,39899.0,50895.0,17274.0,13976.0
2026-05-06 16:40:04.000484,973030,1609507867368837,5467281168,0.747616,0.277184,0.464576,-3.6575,-0.9275,-4.095,-39.864002,8.808001,-70.392006,eccentric,4,5.0,28448.0,33315.0,90331.0,90180.0,25098.0,41052.0,39844.0,50906.0,17254.0,13938.0
2026-05-06 16:40:04.003131,973031,1609507867377805,5467289941,0.735904,0.261568,0.472384,-3.36875,-2.09125,-5.76625,-40.552002,4.848,-67.864006,eccentric,4,5.0,28448.0,33315.0,90331.0,90180.0,25098.0,41052.0,39844.0,50906.0,17254.0,13938.0
