pc_time,serial_num,sensor_ts,host_ts,ax,ay,az,gx,gy,gz,mx,my,mz,phase,rpe,weight_kg,ppg_a,ppg_b,ppg_c,ppg_d,ppg_e,ppg_f,ppg_g,ppg_h,ppg_i,ppg_j
2026-05-06 16:40:12.051577,974543,1609507875408194,5475320959,0.772992,0.218624,0.489952,1.32125,0.5775,-3.885,-39.280003,9.776,-70.856,concentric,4,5.0,26486.0,31671.0,88069.0,88331.0,23246.0,39161.0,38573.0,49802.0,16092.0,13127.0
2026-05-06 16:40:12.054337,974544,1609507875417196,5475329815,0.743712,0.162016,0.46848,1.8725,-0.2275,-4.92625,-39.312,8.232,-71.520004,concentric,4,5.0,26486.0,31671.0,88069.0,88331.0,23246.0,39161.0,38573.0,49802.0,16092.0,13127.0
2026-05-06 16:40:12.056862,974545,1609507875431897,5475342816,0.735904,0.218624,0.480192,2.1,-0.875,-3.465,-39.480003,6.488,-69.608,concentric,4,5.0,26486.0,31671.0,88069.0,88331.0,23246.0,39161.0,38573.0,49802.0,16092.0,13127.0
2026-05-06 16:40:12.059355,974546,1609507875441384,5475353630,0.735904,0.218624,0.480192,1.79375,-0.02625,-2.21375,-39.480003,6.488,-69.608,concentric,4,5.0,26486.0,31671.0,88069.0,88331.0,23246.0,39161.0,38573.0,49802.0,16092.0,13127.0
2026-05-06 16:40:12.068008,974547,1609507875450458,5475362398,0.735904,0.23424,0.503616,1.70625,1.30375,-1.05,-39.480003,6.488,-73.704,concentric,4,5.0,26486.0,31671.0,88069.0,88331.0,23246.0,39161.0,38573.0,49802.0,16092.0,13127.0
2026-05-06 16:40:12.086753,974548,1609507875465001,5475377377,0.75152,0.23424,0.503616,1.61875,1.35625,-2.96625,-39.192,8.328,-73.72,concentric,4,5.0,26486.0,31671.0,88069.0,88331.0,23246.0,39161.0,38573.0,49802.0,16092.0,13127.0
2026-05-06 16:40:12.090441,974549,1609507875473916,5475386055,0.74176,0.17568,0.47824,2.0475,0.735,-4.865,-39.120003,9.84,-71.08,concentric,4,5.0,26486.0,31671.0,88069.0,88331.0,23246.0,39161.0,38573.0,49802.0,16092.0,13127.0
2026-05-06 16:40:12.118009,974550,1609507875488568,5475400953,0.74176,0.17568,0.47824,2.24875,0.7,-5.215,-39.120003,9.84,-71.08,concentric,4,5.0,26486.0,31671.0,88069.0,88331.0,23246.0,39161.0,38573.0,49802.0,16092.0,13127.0
2026-05-06 16:40:12.143135,974551,1609507875497646,5475409701,0.739808,0.23424,0.491904,1.98625,1.23375,-3.31625,-39.256,9.936001,-70.368004,concentric,4,5.0,26486.0,31671.0,88069.0,88331.0,23246.0,39161.0,38573.0,49802.0,16092.0,13127.0
2026-05-06 16:40:12.155631,974552,1609507875506589,5475418410,0.739808,0.23424,0.491904,1.5575,2.24,-2.0125,-39.256,9.936001,-70.368004,concentric,4,5.0,26486.0,31671.0,88069.0,88331.0,23246.0,39161.0,38573.0,49802.0,16092.0,13127.0
2026-05-06 16:40:12.185481,974564,1609507875521159,5475433392,0.745664,0.220576,0.482144,0.88375,3.395,-3.8325,-39.384003,9.536,-70.864006,concentric,4,5.0,26611.0,31695.0,87949.0,88628.0,23367.0,39204.0,38517.0,49926.0,16200.0,13134.0
2026-05-06 16:40:12.187900,974565,1609507875530159,5475442070,0.745664,0.220576,0.482144,-0.67375,3.605,-6.1775,-39.384003,9.536,-70.864006,concentric,4,5.0,26611.0,31695.0,87949.0,88628.0,23367.0,39204.0,38517.0,49926.0,16200.0,13134.0
2026-05-06 16:40:12.191302,974566,1609507875544653,5475457050,0.74176,0.203008,0.489952,-0.13125,2.975,-6.71125,-39.408,9.816001,-68.928,concentric,4,5.0,26611.0,31695.0,87949.0,88628.0,23367.0,39204.0,38517.0,49926.0,16200.0,13134.0
2026-05-06 16:40:12.194842,974567,1609507875553623,5475465762,0.726144,0.226432,0.480192,1.91625,1.60125,-5.34625,-40.04,7.76,-68.832,concentric,4,5.0,26611.0,31695.0,87949.0,88628.0,23367.0,39204.0,38517.0,49926.0,16200.0,13134.0
2026-05-06 16:40:12.195323,974568,1609507875562569,5475474667,0.726144,0.226432,0.480192,3.78875,0.70875,-4.26125,-40.04,7.76,-68.832,concentric,4,5.0,26611.0,31695.0,87949.0,88628.0,23367.0,39204.0,38517.0,49926.0,16200.0,13134.0
2026-05-06 16:40:12.197811,974569,1609507875577089,5475489705,0.720288,0.197152,0.480192,1.77625,1.3475,-4.55,-39.704002,6.784,-68.72,concentric,4,5.0,26611.0,31695.0,87949.0,88628.0,23367.0,39204.0,38517.0,49926.0,16200.0,13134.0
2026-05-06 16:40:12.204220,974570,1609507875586203,5475498431,0.720288,0.197152,0.480192,-3.35125,2.5375,-5.36375,-39.704002,6.784,-68.72,concentric,4,5.0,26611.0,31695.0,87949.0,88628.0,23367.0,39204.0,38517.0,49926.0,16200.0,13134.0
2026-05-06 16:40:12.218030,974571,1609507875600869,5475513414,0.706624,0.148352,0.42944,-6.4925,3.6575,-5.39,-39.320004,9.712001,-70.872,concentric,4,5.0,26611.0,31695.0,87949.0,88628.0,23367.0,39204.0,38517.0,49926.0,16200.0,13134.0
2026-05-06 16:40:12.249046,974582,1609507875610349,5475522180,0.706624,0.148352,0.42944,-6.43125,4.29625,-4.6725,-39.320004,9.712001,-70.872,concentric,4,5.0,26686.0,31771.0,87930.0,88712.0,23434.0,39266.0,38532.0,49976.0,16237.0,13209.0
2026-05-06 16:40:12.251517,974583,1609507875619496,5475531002,0.69296,0.255712,0.4392,-3.71,4.90875,-2.54625,-39.464,9.216001,-70.976006,concentric,4,5.0,26686.0,31771.0,87930.0,88712.0,23434.0,39266.0,38532.0,49976.0,16237.0,13209.0
2026-05-06 16:40:12.254034,974584,1609507875634016,5475545975,0.69296,0.279136,0.484096,-0.77875,4.1125,-2.765,-39.600002,9.848001,-70.248,concentric,4,5.0,26686.0,31771.0,87930.0,88712.0,23434.0,39266.0,38532.0,49976.0,16237.0,13209.0
2026-05-06 16:40:12.260269,974585,1609507875642992,5475554760,0.69296,0.279136,0.484096,-1.715,3.9375,-5.5475,-39.600002,9.848001,-70.248,concentric,4,5.0,26686.0,31771.0,87930.0,88712.0,23434.0,39266.0,38532.0,49976.0,16237.0,13209.0
2026-05-06 16:40:12.277158,974586,1609507875657469,5475569651,0.669536,0.169824,0.44896,-2.9925,4.2875,-7.65625,-39.504,7.72,-69.28001,concentric,4,5.0,26686.0,31771.0,87930.0,88712.0,23434.0,39266.0,38532.0,49976.0,16237.0,13209.0
2026-05-06 16:40:12.284872,974587,1609507875666456,5475578547,0.669536,0.169824,0.44896,-2.485,3.77125,-8.645,-39.504,7.72,-69.28001,concentric,4,5.0,26686.0,31771.0,87930.0,88712.0,23434.0,39266.0,38532.0,49976.0,16237.0,13209.0
2026-05-06 16:40:12.316722,974588,1609507875680985,5475593509,0.679296,0.150304,0.41968,-1.3125,3.3075,-6.99125,-39.72,9.776,-70.712006,concentric,4,5.0,26686.0,31771.0,87930.0,88712.0,23434.0,39266.0,38532.0,49976.0,16237.0,13209.0
2026-05-06 16:40:12.319134,974589,1609507875690012,5475602209,0.679296,0.150304,0.41968,-2.45875,2.51125,-4.73375,-39.72,9.776,-70.712006,concentric,4,5.0,26686.0,31771.0,87930.0,88712.0,23434.0,39266.0,38532.0,49976.0,16237.0,13209.0
2026-05-06 16:40:12.324100,974590,1609507875698962,5475610907,0.655872,0.152256,0.374784,-6.13375,0.16625,-3.75375,-39.712,9.72,-70.736,concentric,4,5.0,26686.0,31771.0,87930.0,88712.0,23434.0,39266.0,38532.0,49976.0,16237.0,13209.0
2026-05-06 16:40:12.351594,974601,1609507875713652,5475624974,0.620736,0.197152,0.382592,-10.675,-1.3825,-2.44125,-39.352,8.936001,-70.184006,concentric,4,5.0,26740.0,31816.0,87790.0,88579.0,23500.0,39363.0,38470.0,49905.0,16293.0,13223.0
2026-05-06 16:40:12.354142,974602,1609507875722704,5475633799,0.620736,0.197152,0.382592,-13.57125,-0.91875,-3.01,-39.352,8.936001,-70.184006,concentric,4,5.0,26740.0,31816.0,87790.0,88579.0,23500.0,39363.0,38470.0,49905.0,16293.0,13223.0
2026-05-06 16:40:12.356554,974603,1609507875737550,5475648812,0.6344,0.17568,0.445056,-11.05125,0.95375,-3.08875,-40.256,6.528,-68.48801,concentric,4,5.0,26740.0,31816.0,87790.0,88579.0,23500.0,39363.0,38470.0,49905.0,16293.0,13223.0
2026-05-06 16:40:12.365474,974604,1609507875747017,5475659638,0.6344,0.17568,0.445056,-6.7025,1.995,-5.285,-40.256,6.528,-68.48801,concentric,4,5.0,26740.0,31816.0,87790.0,88579.0,23500.0,39363.0,38470.0,49905.0,16293.0,13223.0
2026-05-06 16:40:12.374035,974605,1609507875756035,5475668356,0.638304,0.144448,0.384544,-4.69875,2.17,-7.1925,-39.712,9.336,-70.616005,concentric,4,5.0,26740.0,31816.0,87790.0,88579.0,23500.0,39363.0,38470.0,49905.0,16293.0,13223.0
2026-05-06 16:40:12.412996,974606,1609507875770606,5475683288,0.638304,0.144448,0.384544,-4.75125,-0.28875,-7.28875,-39.712,9.336,-70.616005,concentric,4,5.0,26740.0,31816.0,87790.0,88579.0,23500.0,39363.0,38470.0,49905.0,16293.0,13223.0
2026-05-06 16:40:12.415342,974607,1609507875779595,5475692023,0.610976,0.177632,0.388448,-2.7825,-3.0975,-6.34375,-39.808002,9.568001,-70.64001,concentric,4,5.0,26740.0,31816.0,87790.0,88579.0,23500.0,39363.0,38470.0,49905.0,16293.0,13223.0
2026-05-06 16:40:12.418122,974608,1609507875794079,5475704979,0.620736,0.148352,0.452864,-0.2275,-4.7425,-6.44875,-39.864002,9.360001,-70.448006,concentric,4,5.0,26740.0,31816.0,87790.0,88579.0,23500.0,39363.0,38470.0,49905.0,16293.0,13223.0
2026-05-06 16:40:12.420582,974609,1609507875803408,5475715760,0.620736,0.148352,0.452864,0.91,-3.92875,-8.435,-39.864002,9.360001,-70.448006,concentric,4,5.0,26740.0,31816.0,87790.0,88579.0,23500.0,39363.0,38470.0,49905.0,16293.0,13223.0
2026-05-06 16:40:12.455702,974620,1609507875812570,5475724524,0.620736,0.148352,0.452864,-1.0675,-1.23375,-9.66,-39.864002,9.360001,-70.448006,concentric,4,5.0,26756.0,31885.0,87804.0,88550.0,23522.0,39454.0,38454.0,49891.0,16293.0,13263.0
2026-05-06 16:40:12.458169,974621,1609507875827164,5475739560,0.6344,0.199104,0.450912,-5.88,1.3825,-10.745,-39.912003,8.088,-69.144005,concentric,4,5.0,26756.0,31885.0,87804.0,88550.0,23522.0,39454.0,38454.0,49891.0,16293.0,13263.0
2026-05-06 16:40:12.460743,974622,1609507875836193,5475748265,0.667584,0.201056,0.435296,-8.085,2.70375,-12.6875,-40.112003,7.328001,-69.37601,concentric,4,5.0,26756.0,31885.0,87804.0,88550.0,23522.0,39454.0,38454.0,49891.0,16293.0,13263.0
2026-05-06 16:40:12.485552,974623,1609507875850771,5475763234,0.667584,0.201056,0.435296,-4.59375,2.345,-15.82875,-40.112003,7.328001,-69.37601,concentric,4,5.0,26756.0,31885.0,87804.0,88550.0,23522.0,39454.0,38454.0,49891.0,16293.0,13263.0
2026-05-06 16:40:12.510639,974624,1609507875859744,5475771928,0.64416,0.183488,0.462624,4.6375,1.54875,-16.28375,-40.480003,9.096001,-69.96001,concentric,4,5.0,26756.0,31885.0,87804.0,88550.0,23522.0,39454.0,38454.0,49891.0,16293.0,13263.0
2026-05-06 16:40:12.535532,974625,1609507875868703,5475780685,0.64416,0.183488,0.462624,12.38125,0.8575,-17.115,-40.480003,9.096001,-69.96001,concentric,4,5.0,26756.0,31885.0,87804.0,88550.0,23522.0,39454.0,38454.0,49891.0,16293.0,13263.0
2026-05-06 16:40:12.537894,974626,1609507875883198,5475795628,0.640256,0.158112,0.45872,14.48125,1.95125,-17.3425,-40.824,8.96,-69.976006,concentric,4,5.0,26756.0,31885.0,87804.0,88550.0,23522.0,39454.0,38454.0,49891.0,16293.0,13263.0
2026-05-06 16:40:12.569025,974627,1609507875892099,5475804325,0.640256,0.158112,0.45872,13.3525,3.815,-18.7075,-40.824,8.96,-69.976006,concentric,4,5.0,26756.0,31885.0,87804.0,88550.0,23522.0,39454.0,38454.0,49891.0,16293.0,13263.0
2026-05-06 16:40:12.569465,974628,1609507875906639,5475819270,0.646112,0.181536,0.433344,11.2,5.355,-19.31125,-40.904003,8.904,-68.928,concentric,4,5.0,26756.0,31885.0,87804.0,88550.0,23522.0,39454.0,38454.0,49891.0,16293.0,13263.0
2026-05-06 16:40:12.595567,974639,1609507875915708,5475828078,0.704672,0.158112,0.398208,10.0275,5.67,-18.095,-40.728,8.096001,-69.584,concentric,4,5.0,26632.0,31731.0,87812.0,88937.0,23405.0,39254.0,38485.0,50128.0,16243.0,13186.0
2026-05-06 16:40:12.597830,974640,1609507875924695,5475836833,0.704672,0.158112,0.398208,9.3625,5.6175,-17.40375,-40.728,8.096001,-69.584,concentric,4,5.0,26632.0,31731.0,87812.0,88937.0,23405.0,39254.0,38485.0,50128.0,16243.0,13186.0
2026-05-06 16:40:12.600354,974641,1609507875939212,5475851800,0.667584,0.22448,0.456768,13.58875,5.46875,-11.73375,-40.928,8.92,-69.840004,concentric,4,5.0,26632.0,31731.0,87812.0,88937.0,23405.0,39254.0,38485.0,50128.0,16243.0,13186.0
2026-05-06 16:40:12.602871,974642,1609507875948290,5475860492,0.667584,0.22448,0.456768,14.48125,5.94125,-7.5425,-40.928,8.92,-69.840004,concentric,4,5.0,26632.0,31731.0,87812.0,88937.0,23405.0,39254.0,38485.0,50128.0,16243.0,13186.0
2026-05-06 16:40:12.605303,974643,1609507875962817,5475875444,0.638304,0.30256,0.441152,8.8025,7.09625,-9.56375,-41.600002,9.064,-69.456,concentric,4,5.0,26632.0,31731.0,87812.0,88937.0,23405.0,39254.0,38485.0,50128.0,16243.0,13186.0
2026-05-06 16:40:12.607828,974644,1609507875971924,5475884199,0.638304,0.30256,0.441152,1.3825,7.44625,-13.13375,-41.600002,9.064,-69.456,concentric,4,5.0,26632.0,31731.0,87812.0,88937.0,23405.0,39254.0,38485.0,50128.0,16243.0,13186.0
2026-05-06 16:40:12.610404,974645,1609507875986425,5475897182,0.710528,0.259616,0.392352,1.30375,5.495,-15.3825,-41.280003,6.768,-68.01601,concentric,4,5.0,26632.0,31731.0,87812.0,88937.0,23405.0,39254.0,38485.0,50128.0,16243.0,13186.0
2026-05-06 16:40:12.613130,974646,1609507875995655,5475907998,0.747616,0.099552,0.435296,3.70125,1.42625,-16.397501,-41.336002,7.000001,-68.056,concentric,4,5.0,26632.0,31731.0,87812.0,88937.0,23405.0,39254.0,38485.0,50128.0,16243.0,13186.0
2026-05-06 16:40:12.626865,974647,1609507876004590,5475916738,0.747616,0.099552,0.435296,5.95875,-2.73,-9.975,-41.336002,7.000001,-68.056,concentric,4,5.0,26632.0,31731.0,87812.0,88937.0,23405.0,39254.0,38485.0,50128.0,16243.0,13186.0
2026-05-06 16:40:12.656951,974658,1609507876019175,5475931745,0.630496,0.325984,0.396256,6.02875,-6.71125,0.245,-41.632004,8.776,-69.12,concentric,4,5.0,26594.0,31683.0,87886.0,88737.0,23367.0,39199.0,38489.0,49981.0,16210.0,13152.0
2026-05-06 16:40:12.659439,974659,1609507876028171,5475940539,0.630496,0.325984,0.396256,5.45125,-8.4525,7.91875,-41.632004,8.776,-69.12,concentric,4,5.0,26594.0,31683.0,87886.0,88737.0,23367.0,39199.0,38489.0,49981.0,16210.0,13152.0
2026-05-06 16:40:12.661928,974660,1609507876042723,5475953505,0.665632,0.423584,0.404064,-0.39375,-8.05875,5.5125,-41.856003,7.176,-68.136,concentric,4,5.0,26594.0,31683.0,87886.0,88737.0,23367.0,39199.0,38489.0,49981.0,16210.0,13152.0
2026-05-06 16:40:12.674045,974661,1609507876052061,5475964314,0.665632,0.423584,0.404064,-7.0,-7.21,-1.16375,-41.856003,7.176,-68.136,concentric,4,5.0,26594.0,31683.0,87886.0,88737.0,23367.0,39199.0,38489.0,49981.0,16210.0,13152.0
2026-05-06 16:40:12.676648,974662,1609507876061102,5475973054,0.720288,0.269376,0.472384,-2.8175,-8.155,-5.215,-41.952003,8.944,-68.496,concentric,4,5.0,26594.0,31683.0,87886.0,88737.0,23367.0,39199.0,38489.0,49981.0,16210.0,13152.0
2026-05-06 16:40:12.710497,974663,1609507876075612,5475988000,0.769088,0.152256,0.554368,3.3775,-11.917501,-4.6375,-41.480003,9.352,-67.288,concentric,4,5.0,26594.0,31683.0,87886.0,88737.0,23367.0,39199.0,38489.0,49981.0,16210.0,13152.0
2026-05-06 16:40:12.713124,974664,1609507876084549,5475996716,0.769088,0.152256,0.554368,1.435,-12.85375,3.5175,-41.480003,9.352,-67.288,concentric,4,5.0,26594.0,31683.0,87886.0,88737.0,23367.0,39199.0,38489.0,49981.0,16210.0,13152.0
2026-05-06 16:40:12.715462,974665,1609507876099182,5476011740,0.685152,0.22448,0.521184,-8.40875,-11.54125,12.81,-41.68,10.056001,-69.744,concentric,4,5.0,26594.0,31683.0,87886.0,88737.0,23367.0,39199.0,38489.0,49981.0,16210.0,13152.0
2026-05-06 16:40:12.729358,974666,1609507876108141,5476020465,0.685152,0.22448,0.521184,-18.83,-8.14625,17.6575,-41.68,10.056001,-69.744,concentric,4,5.0,26594.0,31683.0,87886.0,88737.0,23367.0,39199.0,38489.0,49981.0,16210.0,13152.0
2026-05-06 16:40:12.760515,974677,1609507876117349,5476029317,0.632448,0.482144,0.345504,-26.425,-3.9375,15.575,-41.864002,10.048,-69.552,concentric,4,5.0,26576.0,31730.0,88187.0,88882.0,23378.0,39292.0,38676.0,50032.0,16202.0,13189.0
2026-05-06 16:40:12.763017,974678,1609507876131996,5476044373,0.632448,0.482144,0.345504,-20.81625,0.04375,11.375,-41.864002,10.048,-69.552,concentric,4,5.0,26576.0,31730.0,88187.0,88882.0,23378.0,39292.0,38676.0,50032.0,16202.0,13189.0
2026-05-06 16:40:12.764930,974679,1609507876140929,5476053080,0.75152,0.421632,0.493856,-8.49625,0.07,1.225,-41.368004,8.240001,-68.288,concentric,4,5.0,26576.0,31730.0,88187.0,88882.0,23378.0,39292.0,38676.0,50032.0,16202.0,13189.0
2026-05-06 16:40:12.774224,974680,1609507876155457,5476067990,0.75152,0.171776,0.552416,-7.0,-0.23625,-9.52875,-41.368004,8.240001,-68.288,concentric,4,5.0,26576.0,31730.0,88187.0,88882.0,23378.0,39292.0,38676.0,50032.0,16202.0,13189.0
2026-05-06 16:40:12.780494,974681,1609507876164429,5476076699,0.774944,0.179584,0.552416,-5.0575,-0.81375,-9.511251,-41.656002,8.352,-68.72,concentric,4,5.0,26576.0,31730.0,88187.0,88882.0,23378.0,39292.0,38676.0,50032.0,16202.0,13189.0
2026-05-06 16:40:12.794367,974682,1609507876178903,5476089719,0.730048,0.128832,0.552416,-11.2525,-1.58375,-8.96,-41.896004,10.056001,-69.744,concentric,4,5.0,26576.0,31730.0,88187.0,88882.0,23378.0,39292.0,38676.0,50032.0,16202.0,13189.0
2026-05-06 16:40:12.808155,974683,1609507876188202,5476100506,0.730048,0.128832,0.552416,-25.7425,0.00875,-7.56,-41.896004,10.056001,-69.744,concentric,4,5.0,26576.0,31730.0,88187.0,88882.0,23378.0,39292.0,38676.0,50032.0,16202.0,13189.0
2026-05-06 16:40:12.814379,974684,1609507876197267,5476109341,0.763232,0.298656,0.421632,-32.96125,3.5875,-4.6025,-42.160004,10.288,-71.776,concentric,4,5.0,26576.0,31730.0,88187.0,88882.0,23378.0,39292.0,38676.0,50032.0,16202.0,13189.0
2026-05-06 16:40:12.901864,974695,1609507876211787,5476124282,0.763232,0.298656,0.421632,-28.7,5.06625,-4.795,-42.160004,10.288,-71.776,concentric,4,5.0,26384.0,31632.0,88502.0,89062.0,23178.0,39181.0,38803.0,50139.0,16068.0,13139.0
2026-05-06 16:40:12.904355,974696,1609507876221393,5476133174,0.798368,0.33184,0.503616,-20.615,4.96125,-7.455,-42.376003,9.848001,-69.288,concentric,4,5.0,26384.0,31632.0,88502.0,89062.0,23178.0,39181.0,38803.0,50139.0,16068.0,13139.0
2026-05-06 16:40:12.906813,974697,1609507876230434,5476141867,0.798368,0.33184,0.503616,-11.68125,3.22875,-7.175,-42.376003,9.848001,-69.288,concentric,4,5.0,26384.0,31632.0,88502.0,89062.0,23178.0,39181.0,38803.0,50139.0,16068.0,13139.0
2026-05-06 16:40:12.909328,974698,1609507876244954,5476156843,0.794464,0.28304,0.583648,-9.6425,1.3825,-8.61,-42.608,9.976001,-69.392006,concentric,4,5.0,26384.0,31632.0,88502.0,89062.0,23178.0,39181.0,38803.0,50139.0,16068.0,13139.0
2026-05-06 16:40:12.911851,974699,1609507876253866,5476165553,0.794464,0.28304,0.583648,-18.40125,2.5725,-14.18375,-42.608,9.976001,-69.392006,concentric,4,5.0,26384.0,31632.0,88502.0,89062.0,23178.0,39181.0,38803.0,50139.0,16068.0,13139.0
2026-05-06 16:40:12.914368,974700,1609507876268372,5476180519,0.79056,0.111264,0.49776,-23.2225,4.76875,-16.7825,-42.648003,9.336,-69.512,concentric,4,5.0,26384.0,31632.0,88502.0,89062.0,23178.0,39181.0,38803.0,50139.0,16068.0,13139.0
2026-05-06 16:40:12.916630,974701,1609507876277469,5476189221,0.833504,0.240096,0.523136,-27.02,9.66875,-22.00625,-43.104004,9.392,-69.984,concentric,4,5.0,26384.0,31632.0,88502.0,89062.0,23178.0,39181.0,38803.0,50139.0,16068.0,13139.0
2026-05-06 16:40:12.921861,974702,1609507876292195,5476204181,0.833504,0.240096,0.523136,-20.1425,13.9475,-18.865,-43.104004,9.392,-69.984,concentric,4,5.0,26384.0,31632.0,88502.0,89062.0,23178.0,39181.0,38803.0,50139.0,16068.0,13139.0
2026-05-06 16:40:12.924370,974703,1609507876301254,5476212968,0.767136,0.357216,0.540704,-1.645,13.8425,-12.136251,-43.128002,9.424001,-68.936005,concentric,4,5.0,26384.0,31632.0,88502.0,89062.0,23178.0,39181.0,38803.0,50139.0,16068.0,13139.0
2026-05-06 16:40:12.926941,974704,1609507876310195,5476221705,0.767136,0.357216,0.540704,-1.925,14.93625,-17.73625,-43.128002,9.424001,-68.936005,concentric,4,5.0,26384.0,31632.0,88502.0,89062.0,23178.0,39181.0,38803.0,50139.0,16068.0,13139.0
2026-05-06 16:40:12.962666,974715,1609507876324783,5476236820,0.81008,0.167872,0.579744,-7.93625,15.33875,-20.772501,-43.464,7.936,-67.792,concentric,4,5.0,26508.0,31789.0,88705.0,89032.0,23290.0,39328.0,38910.0,50107.0,16138.0,13208.0
2026-05-06 16:40:12.964265,974716,1609507876333727,5476245573,0.81008,0.167872,0.579744,-8.4,14.1925,-20.64125,-43.464,7.936,-67.792,concentric,4,5.0,26508.0,31789.0,88705.0,89032.0,23290.0,39328.0,38910.0,50107.0,16138.0,13208.0
2026-05-06 16:40:12.966553,974717,1609507876348275,5476260506,0.837408,0.212768,0.523136,-7.88375,12.495,-17.57,-44.2,7.312,-67.688,concentric,4,5.0,26508.0,31789.0,88705.0,89032.0,23290.0,39328.0,38910.0,50107.0,16138.0,13208.0
2026-05-06 16:40:12.973028,974718,1609507876357302,5476269175,0.784704,0.310368,0.519232,-8.225,11.19125,-14.7175,-44.2,7.312,-69.32,concentric,4,5.0,26508.0,31789.0,88705.0,89032.0,23290.0,39328.0,38910.0,50107.0,16138.0,13208.0
2026-05-06 16:40:12.986617,974719,1609507876366255,5476277884,0.784704,0.310368,0.519232,-5.45125,9.7125,-12.31125,-43.960003,7.440001,-69.32,concentric,4,5.0,26508.0,31789.0,88705.0,89032.0,23290.0,39328.0,38910.0,50107.0,16138.0,13208.0
2026-05-06 16:40:13.000521,974720,1609507876380829,5476292756,0.833504,0.286944,0.568032,0.5075,6.0375,-12.67,-44.424004,6.696,-67.304,concentric,4,5.0,26508.0,31789.0,88705.0,89032.0,23290.0,39328.0,38910.0,50107.0,16138.0,13208.0
2026-05-06 16:40:13.006823,974721,1609507876389958,5476301475,0.833504,0.286944,0.568032,0.315,1.96,-14.49,-44.424004,6.696,-67.304,concentric,4,5.0,26508.0,31789.0,88705.0,89032.0,23290.0,39328.0,38910.0,50107.0,16138.0,13208.0
2026-05-06 16:40:13.026898,974722,1609507876404447,5476316407,0.837408,0.187392,0.530944,-0.46375,-3.87625,-15.5575,-44.472004,6.480001,-66.336006,concentric,4,5.0,26508.0,31789.0,88705.0,89032.0,23290.0,39328.0,38910.0,50107.0,16138.0,13208.0
2026-05-06 16:40:13.056631,974733,1609507876413393,5476325086,0.837408,0.187392,0.530944,0.84,-8.4875,-14.385,-44.472004,6.480001,-66.336006,concentric,4,5.0,26407.0,31698.0,88855.0,88855.0,23184.0,39236.0,38976.0,50048.0,16045.0,13156.0
2026-05-06 16:40:13.059042,974734,1609507876422948,5476333876,0.821792,0.306464,0.54656,3.57875,-10.50875,-9.47625,-44.656002,4.832,-66.28001,concentric,4,5.0,26407.0,31698.0,88855.0,88855.0,23184.0,39236.0,38976.0,50048.0,16045.0,13156.0
2026-05-06 16:40:13.061508,974735,1609507876438081,5476348860,0.81008,0.325984,0.622688,5.74875,-11.55,-7.21875,-44.656002,5.128,-64.952,concentric,4,5.0,26407.0,31698.0,88855.0,88855.0,23184.0,39236.0,38976.0,50048.0,16045.0,13156.0
2026-05-06 16:40:13.064085,974736,1609507876447304,5476359739,0.81008,0.325984,0.622688,6.8425,-11.19125,-8.70625,-44.464,5.128,-64.952,concentric,4,5.0,26407.0,31698.0,88855.0,88855.0,23184.0,39236.0,38976.0,50048.0,16045.0,13156.0
2026-05-06 16:40:13.077998,974737,1609507876461897,5476372715,0.80032,0.30256,0.589504,5.48625,-10.465,-8.9775,-44.576,8.776,-68.672005,concentric,4,5.0,26407.0,31698.0,88855.0,88855.0,23184.0,39236.0,38976.0,50048.0,16045.0,13156.0
2026-05-06 16:40:13.091820,974738,1609507876471172,5476383480,0.80032,0.30256,0.589504,6.0725,-9.66,-8.46125,-44.576,8.776,-68.672005,concentric,4,5.0,26407.0,31698.0,88855.0,88855.0,23184.0,39236.0,38976.0,50048.0,16045.0,13156.0
2026-05-06 16:40:13.098057,974739,1609507876480164,5476392173,0.835456,0.279136,0.577792,6.5275,-9.1875,-10.1325,-44.392002,8.784,-68.600006,concentric,4,5.0,26407.0,31698.0,88855.0,88855.0,23184.0,39236.0,38976.0,50048.0,16045.0,13156.0
2026-05-06 16:40:13.111877,974740,1609507876494686,5476407112,0.835456,0.279136,0.577792,8.7675,-6.90375,-9.72125,-44.392002,8.784,-68.600006,concentric,4,5.0,26407.0,31698.0,88855.0,88855.0,23184.0,39236.0,38976.0,50048.0,16045.0,13156.0
2026-05-06 16:40:13.120633,974741,1609507876503608,5476415813,0.813984,0.42944,0.708576,18.08625,-4.0775,-7.39375,-44.736004,8.320001,-68.616005,concentric,4,5.0,26407.0,31698.0,88855.0,88855.0,23184.0,39236.0,38976.0,50048.0,16045.0,13156.0
2026-05-06 16:40:13.161841,974752,1609507876518278,5476430863,0.813984,0.279136,0.650016,19.1625,-0.0875,-9.23125,-44.736004,8.320001,-68.616005,concentric,4,5.0,26431.0,31768.0,88926.0,88756.0,23242.0,39302.0,39011.0,49931.0,16100.0,13183.0
2026-05-06 16:40:13.164364,974753,1609507876527299,5476439608,0.84912,0.279136,0.650016,7.69125,5.67,-12.99375,-44.776,7.656,-68.568,concentric,4,5.0,26431.0,31768.0,88926.0,88756.0,23242.0,39302.0,39011.0,49931.0,16100.0,13183.0
2026-05-06 16:40:13.166698,974754,1609507876536305,5476448339,0.84912,0.279136,0.650016,-0.62125,9.7125,-13.011251,-44.776,7.656,-68.568,concentric,4,5.0,26431.0,31768.0,88926.0,88756.0,23242.0,39302.0,39011.0,49931.0,16100.0,13183.0
2026-05-06 16:40:13.169259,974755,1609507876550872,5476463298,0.890112,0.300608,0.521184,2.4325,11.83,-7.8225,-44.976,6.344,-67.328,concentric,4,5.0,26431.0,31768.0,88926.0,88756.0,23242.0,39302.0,39011.0,49931.0,16100.0,13183.0
2026-05-06 16:40:13.178037,974756,1609507876559913,5476472049,0.823744,0.366976,0.581696,8.05875,10.92875,-7.735,-44.952003,8.536,-69.384,concentric,4,5.0,26431.0,31768.0,88926.0,88756.0,23242.0,39302.0,39011.0,49931.0,16100.0,13183.0
2026-05-06 16:40:13.207862,974757,1609507876574404,5476487049,0.823744,0.366976,0.581696,10.68375,9.80875,-6.58875,-44.952003,8.536,-69.384,eccentric,4,5.0,26431.0,31768.0,88926.0,88756.0,23242.0,39302.0,39011.0,49931.0,16100.0,13183.0
2026-05-06 16:40:13.230680,974758,1609507876583322,5476495741,0.837408,0.433344,0.552416,13.405,8.58375,-6.27375,-45.24,8.128,-67.608,eccentric,4,5.0,26431.0,31768.0,88926.0,88756.0,23242.0,39302.0,39011.0,49931.0,16100.0,13183.0
2026-05-06 16:40:13.255629,974759,1609507876597929,5476508684,0.837408,0.433344,0.552416,14.6825,6.405,-6.85125,-45.24,8.128,-67.608,eccentric,4,5.0,26431.0,31768.0,88926.0,88756.0,23242.0,39302.0,39011.0,49931.0,16100.0,13183.0
2026-05-06 16:40:13.271920,974760,1609507876607098,5476519420,0.950624,0.314272,0.587552,7.665,2.4675,-10.823751,-45.112003,8.488001,-67.672005,eccentric,4,5.0,26431.0,31768.0,88926.0,88756.0,23242.0,39302.0,39011.0,49931.0,16100.0,13183.0
2026-05-06 16:40:13.299249,974771,1609507876616217,5476528212,0.950624,0.314272,0.587552,4.865,-3.07125,-10.386251,-45.112003,8.488001,-67.672005,eccentric,4,5.0,26367.0,31662.0,89016.0,89009.0,23157.0,39163.0,39063.0,50069.0,16032.0,13136.0
2026-05-06 16:40:13.301897,974772,1609507876630936,5476543184,0.886208,0.374784,0.62464,5.46875,-9.1,-6.195,-45.144,8.112,-67.824005,eccentric,4,5.0,26367.0,31662.0,89016.0,89009.0,23157.0,39163.0,39063.0,50069.0,16032.0,13136.0
2026-05-06 16:40:13.304420,974773,1609507876639833,5476551903,0.841312,0.421632,0.560224,7.3325,-12.10125,-1.96875,-45.208004,8.384001,-68.128006,eccentric,4,5.0,26367.0,31662.0,89016.0,89009.0,23157.0,39163.0,39063.0,50069.0,16032.0,13136.0
2026-05-06 16:40:13.306966,974774,1609507876654400,5476566813,0.841312,0.421632,0.560224,6.04625,-11.33125,-2.905,-45.208004,8.384001,-68.128006,eccentric,4,5.0,26367.0,31662.0,89016.0,89009.0,23157.0,39163.0,39063.0,50069.0,16032.0,13136.0
2026-05-06 16:40:13.309416,974775,1609507876663312,5476575548,0.944768,0.244,0.61488,0.7,-8.365,-5.99375,-45.024002,8.056001,-67.920006,eccentric,4,5.0,26367.0,31662.0,89016.0,89009.0,23157.0,39163.0,39063.0,50069.0,16032.0,13136.0
2026-05-06 16:40:13.311908,974776,1609507876672307,5476584362,0.944768,0.244,0.61488,-4.3225,-6.44875,-6.1425,-45.024002,8.056001,-67.920006,eccentric,4,5.0,26367.0,31662.0,89016.0,89009.0,23157.0,39163.0,39063.0,50069.0,16032.0,13136.0
2026-05-06 16:40:13.316698,974777,1609507876686872,5476599386,0.925248,0.41968,0.655872,-2.52875,-6.8775,-1.04125,-45.256,6.168,-65.496,eccentric,4,5.0,26367.0,31662.0,89016.0,89009.0,23157.0,39163.0,39063.0,50069.0,16032.0,13136.0
2026-05-06 16:40:13.319147,974778,1609507876695826,5476608078,0.925248,0.41968,0.655872,2.87,-8.636251,3.7275,-45.256,6.168,-65.496,eccentric,4,5.0,26367.0,31662.0,89016.0,89009.0,23157.0,39163.0,39063.0,50069.0,16032.0,13136.0
2026-05-06 16:40:13.328047,974779,1609507876710388,5476623086,0.901824,0.411872,0.562176,4.03375,-9.14375,3.08875,-44.960003,6.416,-67.408005,eccentric,4,5.0,26367.0,31662.0,89016.0,89009.0,23157.0,39163.0,39063.0,50069.0,16032.0,13136.0
2026-05-06 16:40:13.355476,974790,1609507876719539,5476631857,0.901824,0.411872,0.591456,-1.0325,-7.28,-0.315,-44.960003,6.416,-67.408005,eccentric,4,5.0,26363.0,31645.0,89032.0,89011.0,23138.0,39159.0,39058.0,50067.0,16039.0,13147.0
2026-05-06 16:40:13.363001,974791,1609507876728531,5476640696,0.862784,0.25376,0.591456,-5.495,-3.75375,-1.9775,-44.856003,7.856,-68.336006,eccentric,4,5.0,26363.0,31645.0,89032.0,89011.0,23138.0,39159.0,39058.0,50067.0,16039.0,13147.0
2026-05-06 16:40:13.365314,974792,1609507876743126,5476655614,0.909632,0.368928,0.513376,-6.32625,-1.925,0.06125,-45.072002,8.352,-68.312004,eccentric,4,5.0,26363.0,31645.0,89032.0,89011.0,23138.0,39159.0,39058.0,50067.0,16039.0,13147.0
2026-05-06 16:40:13.371818,974793,1609507876752153,5476664344,0.909632,0.368928,0.513376,-3.52625,-1.88125,1.89875,-45.072002,8.352,-68.312004,eccentric,4,5.0,26363.0,31645.0,89032.0,89011.0,23138.0,39159.0,39058.0,50067.0,16039.0,13147.0
2026-05-06 16:40:13.385545,974794,1609507876766657,5476679345,0.882304,0.392352,0.542656,-2.975,-3.47375,2.10875,-44.816,6.816001,-67.704,eccentric,4,5.0,26363.0,31645.0,89032.0,89011.0,23138.0,39159.0,39058.0,50067.0,16039.0,13147.0
2026-05-06 16:40:13.394273,974795,1609507876775570,5476688038,0.882304,0.392352,0.542656,-2.42375,-4.34875,1.96,-44.816,6.816001,-67.704,eccentric,4,5.0,26363.0,31645.0,89032.0,89011.0,23138.0,39159.0,39058.0,50067.0,16039.0,13147.0
2026-05-06 16:40:13.408049,974796,1609507876790048,5476700904,0.831552,0.288896,0.544608,-2.9225,-4.76,-0.69125,-44.408,8.136001,-68.576004,eccentric,4,5.0,26363.0,31645.0,89032.0,89011.0,23138.0,39159.0,39058.0,50067.0,16039.0,13147.0
2026-05-06 16:40:13.416807,974797,1609507876799323,5476711689,0.831552,0.288896,0.544608,-5.32,-2.98375,-2.89625,-44.408,8.136001,-68.576004,eccentric,4,5.0,26363.0,31645.0,89032.0,89011.0,23138.0,39159.0,39058.0,50067.0,16039.0,13147.0
2026-05-06 16:40:13.425635,974798,1609507876808277,5476720407,0.841312,0.398208,0.57584,-6.5975,-1.12,-1.89,-44.528004,8.152,-68.408005,eccentric,4,5.0,26363.0,31645.0,89032.0,89011.0,23138.0,39159.0,39058.0,50067.0,16039.0,13147.0
2026-05-06 16:40:13.456688,974809,1609507876823066,5476735435,0.88816,0.349408,0.587552,-2.35375,0.5775,-0.3675,-44.2,7.64,-68.8,eccentric,4,5.0,26315.0,31607.0,88886.0,88892.0,23111.0,39158.0,39022.0,50031.0,16015.0,13116.0
2026-05-06 16:40:13.461799,974810,1609507876832097,5476744187,0.88816,0.349408,0.587552,-2.42375,0.21,-3.00125,-44.2,7.64,-68.8,eccentric,4,5.0,26315.0,31607.0,88886.0,88892.0,23111.0,39158.0,39022.0,50031.0,16015.0,13116.0
2026-05-06 16:40:13.464269,974811,1609507876846611,5476759154,0.812032,0.30256,0.484096,-5.60875,-0.2275,-4.48875,-44.280003,6.304,-67.928,eccentric,4,5.0,26315.0,31607.0,88886.0,88892.0,23111.0,39158.0,39022.0,50031.0,16015.0,13116.0
2026-05-06 16:40:13.473068,974812,1609507876855578,5476767884,0.812032,0.30256,0.484096,-6.02875,-0.00875,-3.0625,-44.280003,6.304,-67.928,eccentric,4,5.0,26315.0,31607.0,88886.0,88892.0,23111.0,39158.0,39022.0,50031.0,16015.0,13116.0
2026-05-06 16:40:13.481954,974813,1609507876864487,5476776662,0.833504,0.378688,0.581696,-6.71125,1.16375,-2.87875,-44.280003,6.344,-68.976006,eccentric,4,5.0,26315.0,31607.0,88886.0,88892.0,23111.0,39158.0,39022.0,50031.0,16015.0,13116.0
2026-05-06 16:40:13.515488,974814,1609507876878982,5476791529,0.833504,0.378688,0.581696,-7.2275,2.14375,-1.25125,-44.280003,6.344,-68.976006,eccentric,4,5.0,26315.0,31607.0,88886.0,88892.0,23111.0,39158.0,39022.0,50031.0,16015.0,13116.0
2026-05-06 16:40:13.518156,974815,1609507876887882,5476800423,0.85888,0.304512,0.552416,-6.5975,3.01,-1.47875,-44.432003,7.296001,-68.688,eccentric,4,5.0,26315.0,31607.0,88886.0,88892.0,23111.0,39158.0,39022.0,50031.0,16015.0,13116.0
2026-05-06 16:40:13.520680,974816,1609507876902554,5476813371,0.815936,0.31232,0.486048,-6.8075,3.52625,-2.6075,-43.816,7.864,-70.576004,eccentric,4,5.0,26315.0,31607.0,88886.0,88892.0,23111.0,39158.0,39022.0,50031.0,16015.0,13116.0
2026-05-06 16:40:13.530704,974817,1609507876911916,5476824143,0.815936,0.31232,0.486048,-4.50625,2.73,0.315,-43.816,7.864,-70.576004,eccentric,4,5.0,26315.0,31607.0,88886.0,88892.0,23111.0,39158.0,39022.0,50031.0,16015.0,13116.0
2026-05-06 16:40:13.556826,974828,1609507876926556,5476839182,0.7808,0.333792,0.50752,-0.98875,1.3475,3.885,-43.648003,7.072001,-68.816,eccentric,4,5.0,26234.0,31554.0,88834.0,88625.0,23059.0,39055.0,38963.0,49870.0,15974.0,13100.0
2026-05-06 16:40:13.561855,974829,1609507876935562,5476847914,0.7808,0.333792,0.50752,-4.5325,0.6825,3.36875,-43.648003,7.072001,-68.816,eccentric,4,5.0,26234.0,31554.0,88834.0,88625.0,23059.0,39055.0,38963.0,49870.0,15974.0,13100.0
2026-05-06 16:40:13.586912,974830,1609507876944549,5476856741,0.792512,0.271328,0.554368,-8.505,0.11375,3.7625,-43.656002,7.168,-69.176,eccentric,4,5.0,26234.0,31554.0,88834.0,88625.0,23059.0,39055.0,38963.0,49870.0,15974.0,13100.0
2026-05-06 16:40:13.611971,974831,1609507876959039,5476871661,0.792512,0.271328,0.554368,-7.175,-0.34125,7.1575,-43.656002,7.168,-69.176,eccentric,4,5.0,26234.0,31554.0,88834.0,88625.0,23059.0,39055.0,38963.0,49870.0,15974.0,13100.0
2026-05-06 16:40:13.624728,974832,1609507876967954,5476880489,0.784704,0.275232,0.5368,-5.4425,-0.91875,8.925,-43.456,7.352,-68.848,eccentric,4,5.0,26234.0,31554.0,88834.0,88625.0,23059.0,39055.0,38963.0,49870.0,15974.0,13100.0
2026-05-06 16:40:13.626709,974833,1609507876982489,5476893358,0.765184,0.298656,0.491904,-5.87125,-0.35875,10.63125,-43.04,7.512001,-68.840004,eccentric,4,5.0,26234.0,31554.0,88834.0,88625.0,23059.0,39055.0,38963.0,49870.0,15974.0,13100.0
2026-05-06 16:40:13.633706,974834,1609507876991798,5476904137,0.765184,0.298656,0.491904,-2.24,0.07,12.53875,-43.04,7.512001,-68.840004,eccentric,4,5.0,26234.0,31554.0,88834.0,88625.0,23059.0,39055.0,38963.0,49870.0,15974.0,13100.0
2026-05-06 16:40:13.633793,974835,1609507877000865,5476912880,0.765184,0.298656,0.491904,-0.30625,0.1575,11.1475,-43.04,7.512001,-68.840004,eccentric,4,5.0,26234.0,31554.0,88834.0,88625.0,23059.0,39055.0,38963.0,49870.0,15974.0,13100.0
2026-05-06 16:40:13.659310,974846,1609507877015344,5476928205,0.753472,0.230336,0.49776,-1.3125,0.77875,10.78875,-42.84,7.064,-68.192,eccentric,4,5.0,26237.0,31513.0,88669.0,88607.0,23009.0,39010.0,38872.0,49869.0,15969.0,13077.0
2026-05-06 16:40:13.661820,974847,1609507877024361,5476937053,0.747616,0.230336,0.52704,-1.98625,0.56875,10.73625,-42.912003,6.168,-68.408005,eccentric,4,5.0,26237.0,31513.0,88669.0,88607.0,23009.0,39010.0,38872.0,49869.0,15969.0,13077.0
2026-05-06 16:40:13.664401,974848,1609507877038995,5476949958,0.747616,0.230336,0.52704,-2.24875,0.62125,12.845,-42.912003,6.168,-68.408005,eccentric,4,5.0,26237.0,31513.0,88669.0,88607.0,23009.0,39010.0,38872.0,49869.0,15969.0,13077.0
2026-05-06 16:40:13.666744,974849,1609507877048506,5476960775,0.737856,0.220576,0.532896,-2.70375,0.455,14.14875,-42.552002,6.152,-68.4,eccentric,4,5.0,26237.0,31513.0,88669.0,88607.0,23009.0,39010.0,38872.0,49869.0,15969.0,13077.0
2026-05-06 16:40:13.675626,974850,1609507877057632,5476969574,0.737856,0.220576,0.532896,-1.95125,1.26,14.385,-42.552002,6.152,-68.4,eccentric,4,5.0,26237.0,31513.0,88669.0,88607.0,23009.0,39010.0,38872.0,49869.0,15969.0,13077.0
2026-05-06 16:40:13.689411,974851,1609507877072148,5476984546,0.687104,0.240096,0.450912,0.76125,2.275,14.58625,-42.36,8.408,-69.328,eccentric,4,5.0,26237.0,31513.0,88669.0,88607.0,23009.0,39010.0,38872.0,49869.0,15969.0,13077.0
2026-05-06 16:40:13.703138,974852,1609507877081103,5476993277,0.687104,0.240096,0.450912,0.35,2.87875,13.15125,-42.36,8.408,-69.328,eccentric,4,5.0,26237.0,31513.0,88669.0,88607.0,23009.0,39010.0,38872.0,49869.0,15969.0,13077.0
2026-05-06 16:40:13.711902,974853,1609507877095675,5477008221,0.69296,0.208864,0.423584,-5.27625,2.9925,11.61125,-42.144,7.008,-67.08,eccentric,4,5.0,26237.0,31513.0,88669.0,88607.0,23009.0,39010.0,38872.0,49869.0,15969.0,13077.0
2026-05-06 16:40:13.725587,974854,1609507877104621,5477017055,0.679296,0.191296,0.441152,-3.2375,1.88125,11.31375,-42.216003,4.696,-66.152,eccentric,4,5.0,26237.0,31513.0,88669.0,88607.0,23009.0,39010.0,38872.0,49869.0,15969.0,13077.0
2026-05-06 16:40:13.731790,974855,1609507877113543,5477025754,0.679296,0.191296,0.441152,2.8525,-1.23375,11.61125,-42.216003,4.696,-66.152,eccentric,4,5.0,26237.0,31513.0,88669.0,88607.0,23009.0,39010.0,38872.0,49869.0,15969.0,13077.0
2026-05-06 16:40:13.759265,974866,1609507877128152,5477040813,0.665632,0.242048,0.460672,5.83625,-2.9575,11.515,-41.640003,6.072001,-68.472,eccentric,4,5.0,26186.0,31443.0,88533.0,88608.0,22958.0,38956.0,38809.0,49897.0,15935.0,13061.0
2026-05-06 16:40:13.761775,974867,1609507877137135,5477049588,0.665632,0.242048,0.460672,6.23,-4.095,11.71625,-41.640003,6.072001,-68.472,eccentric,4,5.0,26186.0,31443.0,88533.0,88608.0,22958.0,38956.0,38809.0,49897.0,15935.0,13061.0
2026-05-06 16:40:13.770570,974868,1609507877151737,5477064484,0.626592,0.230336,0.404064,1.95125,-3.64875,9.86125,-41.656002,6.432,-68.80801,eccentric,4,5.0,26186.0,31443.0,88533.0,88608.0,22958.0,38956.0,38809.0,49897.0,15935.0,13061.0
2026-05-06 16:40:13.779284,974869,1609507877160842,5477073208,0.626592,0.230336,0.404064,-1.61,-3.14125,6.5625,-41.656002,6.432,-68.80801,eccentric,4,5.0,26186.0,31443.0,88533.0,88608.0,22958.0,38956.0,38809.0,49897.0,15935.0,13061.0
2026-05-06 16:40:13.793132,974870,1609507877175355,5477086111,0.661728,0.134688,0.404064,-2.7825,-3.19375,4.17375,-41.464,8.480001,-66.872,eccentric,4,5.0,26186.0,31443.0,88533.0,88608.0,22958.0,38956.0,38809.0,49897.0,15935.0,13061.0
2026-05-06 16:40:13.805948,974871,1609507877184537,5477097048,0.661728,0.17568,0.445056,-0.84,-4.59375,5.8275,-41.072002,7.592001,-68.32,eccentric,4,5.0,26186.0,31443.0,88533.0,88608.0,22958.0,38956.0,38809.0,49897.0,15935.0,13061.0
2026-05-06 16:40:13.815544,974872,1609507877193520,5477105749,0.661728,0.17568,0.445056,2.00375,-7.04375,8.40875,-41.072002,7.592001,-68.32,eccentric,4,5.0,26186.0,31443.0,88533.0,88608.0,22958.0,38956.0,38809.0,49897.0,15935.0,13061.0
2026-05-06 16:40:13.845641,974873,1609507877208078,5477120849,0.622688,0.232288,0.421632,1.82875,-8.12,9.3275,-41.184002,7.144001,-69.07201,eccentric,4,5.0,26186.0,31443.0,88533.0,88608.0,22958.0,38956.0,38809.0,49897.0,15935.0,13061.0
2026-05-06 16:40:13.873136,974884,1609507877217007,5477129512,0.622688,0.232288,0.421632,-2.17,-7.9625,7.86625,-41.184002,7.144001,-69.07201,eccentric,4,5.0,26122.0,31413.0,88406.0,88326.0,22917.0,38913.0,38740.0,49773.0,15915.0,13051.0
2026-05-06 16:40:13.875562,974885,1609507877231601,5477142442,0.599264,0.20496,0.402112,-4.83,-7.23625,5.4425,-41.048,8.456,-70.584,eccentric,4,5.0,26122.0,31413.0,88406.0,88326.0,22917.0,38913.0,38740.0,49773.0,15915.0,13051.0
2026-05-06 16:40:13.878091,974886,1609507877241091,5477153666,0.599264,0.20496,0.402112,-2.33625,-6.57125,4.3925,-41.048,8.456,-70.584,eccentric,4,5.0,26122.0,31413.0,88406.0,88326.0,22917.0,38913.0,38740.0,49773.0,15915.0,13051.0
2026-05-06 16:40:13.883123,974887,1609507877250028,5477162456,0.661728,0.160064,0.421632,-0.1225,-6.895,2.80875,-40.992,7.136,-68.104004,eccentric,4,5.0,26122.0,31413.0,88406.0,88326.0,22917.0,38913.0,38740.0,49773.0,15915.0,13051.0
2026-05-06 16:40:13.885552,974888,1609507877264551,5477175353,0.610976,0.187392,0.41968,-1.295,-6.79875,3.85875,-40.920002,6.264,-67.72,eccentric,4,5.0,26122.0,31413.0,88406.0,88326.0,22917.0,38913.0,38740.0,49773.0,15915.0,13051.0
2026-05-06 16:40:13.891890,974889,1609507877273967,5477186225,0.610976,0.187392,0.41968,-3.56125,-7.28875,5.145,-40.920002,6.264,-67.72,eccentric,4,5.0,26122.0,31413.0,88406.0,88326.0,22917.0,38913.0,38740.0,49773.0,15915.0,13051.0
2026-05-06 16:40:13.908109,974890,1609507877288536,5477201224,0.583648,0.236192,0.366976,-5.5475,-6.97375,5.005,-40.368,9.296001,-70.928,eccentric,4,5.0,26122.0,31413.0,88406.0,88326.0,22917.0,38913.0,38740.0,49773.0,15915.0,13051.0
2026-05-06 16:40:13.914221,974891,1609507877297451,5477209941,0.583648,0.236192,0.366976,-5.20625,-6.6325,4.795,-40.368,9.296001,-70.928,eccentric,4,5.0,26122.0,31413.0,88406.0,88326.0,22917.0,38913.0,38740.0,49773.0,15915.0,13051.0
2026-05-06 16:40:13.928002,974892,1609507877306393,5477218705,0.622688,0.152256,0.376736,-4.4975,-5.32875,2.73875,-40.432003,9.320001,-70.72,eccentric,4,5.0,26122.0,31413.0,88406.0,88326.0,22917.0,38913.0,38740.0,49773.0,15915.0,13051.0
2026-05-06 16:40:14.015385,974903,1609507877321469,5477234151,0.622688,0.152256,0.376736,-3.45625,-4.87375,1.79375,-40.432003,9.320001,-70.72,eccentric,4,5.0,26114.0,31419.0,88238.0,87949.0,22912.0,38916.0,38702.0,49605.0,15924.0,13038.0
2026-05-06 16:40:14.017985,974904,1609507877330572,5477242910,0.616832,0.160064,0.44896,-3.12375,-4.655,3.08875,-40.056004,9.096001,-70.64001,eccentric,4,5.0,26114.0,31419.0,88238.0,87949.0,22912.0,38916.0,38702.0,49605.0,15924.0,13038.0
2026-05-06 16:40:14.020489,974905,1609507877345049,5477255819,0.599264,0.251808,0.404064,-4.48,-4.235,5.775,-40.088,9.168,-71.264,eccentric,4,5.0,26114.0,31419.0,88238.0,87949.0,22912.0,38916.0,38702.0,49605.0,15924.0,13038.0
2026-05-06 16:40:14.023019,974906,1609507877354230,5477266647,0.599264,0.251808,0.404064,-6.39625,-2.485,8.1375,-40.088,9.168,-71.264,eccentric,4,5.0,26114.0,31419.0,88238.0,87949.0,22912.0,38916.0,38702.0,49605.0,15924.0,13038.0
2026-05-06 16:40:14.025440,974907,1609507877363253,5477275352,0.599264,0.251808,0.404064,-9.3625,-0.8225,6.99125,-40.088,9.168,-71.264,eccentric,4,5.0,26114.0,31419.0,88238.0,87949.0,22912.0,38916.0,38702.0,49605.0,15924.0,13038.0
2026-05-06 16:40:14.028074,974908,1609507877377758,5477290307,0.642208,0.173728,0.413824,-9.695,-0.18375,4.1825,-39.896004,9.336,-70.352005,eccentric,4,5.0,26114.0,31419.0,88238.0,87949.0,22912.0,38916.0,38702.0,49605.0,15924.0,13038.0
2026-05-06 16:40:14.030581,974909,1609507877386770,5477299078,0.636352,0.20496,0.411872,-7.84,0.00875,4.655,-39.808002,7.84,-70.856,eccentric,4,5.0,26114.0,31419.0,88238.0,87949.0,22912.0,38916.0,38702.0,49605.0,15924.0,13038.0
2026-05-06 16:40:14.033168,974910,1609507877401535,5477314043,0.636352,0.20496,0.411872,-4.76875,0.3675,6.825,-39.808002,7.84,-70.856,eccentric,4,5.0,26114.0,31419.0,88238.0,87949.0,22912.0,38916.0,38702.0,49605.0,15924.0,13038.0
2026-05-06 16:40:14.038142,974911,1609507877410505,5477322752,0.61488,0.181536,0.421632,-5.74875,0.525,7.0175,-39.752003,9.272,-71.136,eccentric,4,5.0,26114.0,31419.0,88238.0,87949.0,22912.0,38916.0,38702.0,49605.0,15924.0,13038.0
2026-05-06 16:40:14.065526,974922,1609507877419976,5477331503,0.61488,0.181536,0.421632,-7.945,1.05,7.56875,-39.752003,9.272,-71.136,eccentric,4,5.0,25971.0,31292.0,88118.0,87834.0,22801.0,38792.0,38577.0,49505.0,15828.0,12970.0
2026-05-06 16:40:14.068024,974923,1609507877434745,5477346509,0.6344,0.179584,0.425536,-11.89125,2.21375,7.525,-39.528004,8.952001,-70.768005,eccentric,4,5.0,25971.0,31292.0,88118.0,87834.0,22801.0,38792.0,38577.0,49505.0,15828.0,12970.0
2026-05-06 16:40:14.070672,974924,1609507877443769,5477355380,0.6344,0.179584,0.425536,-13.658751,3.7275,8.4875,-39.528004,8.952001,-70.768005,eccentric,4,5.0,25971.0,31292.0,88118.0,87834.0,22801.0,38792.0,38577.0,49505.0,15828.0,12970.0
2026-05-06 16:40:14.076886,974925,1609507877458368,5477370323,0.659776,0.216672,0.42944,-12.92375,3.675,8.75875,-39.152,9.360001,-71.176,eccentric,4,5.0,25971.0,31292.0,88118.0,87834.0,22801.0,38792.0,38577.0,49505.0,15828.0,12970.0
2026-05-06 16:40:14.083163,974926,1609507877467322,5477379088,0.6832,0.177632,0.423584,-12.46,3.6225,8.02375,-39.688004,9.280001,-70.880005,eccentric,4,5.0,25971.0,31292.0,88118.0,87834.0,22801.0,38792.0,38577.0,49505.0,15828.0,12970.0
2026-05-06 16:40:14.093082,974927,1609507877476234,5477387819,0.6832,0.177632,0.423584,-12.50375,3.36,6.37875,-39.688004,9.280001,-70.880005,eccentric,4,5.0,25971.0,31292.0,88118.0,87834.0,22801.0,38792.0,38577.0,49505.0,15828.0,12970.0
2026-05-06 16:40:14.126756,974928,1609507877490724,5477402730,0.665632,0.169824,0.41968,-9.96625,3.85875,5.60875,-39.512,9.88,-71.28001,eccentric,4,5.0,25971.0,31292.0,88118.0,87834.0,22801.0,38792.0,38577.0,49505.0,15828.0,12970.0
2026-05-06 16:40:14.129404,974929,1609507877499637,5477411472,0.665632,0.169824,0.41968,-9.1875,3.745,5.145,-39.512,9.88,-71.28001,eccentric,4,5.0,25971.0,31292.0,88118.0,87834.0,22801.0,38792.0,38577.0,49505.0,15828.0,12970.0
2026-05-06 16:40:14.131654,974930,1609507877514189,5477426388,0.67344,0.183488,0.445056,-9.65125,3.91125,4.9175,-39.224003,9.368,-71.024,eccentric,4,5.0,25971.0,31292.0,88118.0,87834.0,22801.0,38792.0,38577.0,49505.0,15828.0,12970.0
2026-05-06 16:40:14.165504,974941,1609507877524078,5477435464,0.67344,0.183488,0.445056,-9.37125,4.13,4.8475,-39.224003,9.368,-71.024,eccentric,4,5.0,25911.0,31232.0,88035.0,88073.0,22723.0,38707.0,38558.0,49670.0,15788.0,12947.0
2026-05-06 16:40:14.168157,974942,1609507877533421,5477444252,0.6832,0.183488,0.44896,-11.1125,4.76,3.7275,-39.392002,7.216001,-69.90401,eccentric,4,5.0,25911.0,31232.0,88035.0,88073.0,22723.0,38707.0,38558.0,49670.0,15788.0,12947.0
2026-05-06 16:40:14.170636,974943,1609507877548354,5477459272,0.708576,0.154208,0.447008,-12.71375,4.9875,3.29,-39.616,8.184,-69.936005,eccentric,4,5.0,25911.0,31232.0,88035.0,88073.0,22723.0,38707.0,38558.0,49670.0,15788.0,12947.0
2026-05-06 16:40:14.176920,974944,1609507877557730,5477470097,0.708576,0.154208,0.447008,-11.62,4.9,3.36875,-39.616,8.184,-69.936005,eccentric,4,5.0,25911.0,31232.0,88035.0,88073.0,22723.0,38707.0,38558.0,49670.0,15788.0,12947.0
2026-05-06 16:40:14.184175,974945,1609507877566684,5477478841,0.718336,0.152256,0.4392,-7.49875,4.34,4.725,-39.256,10.088,-73.288,eccentric,4,5.0,25911.0,31232.0,88035.0,88073.0,22723.0,38707.0,38558.0,49670.0,15788.0,12947.0
2026-05-06 16:40:14.198023,974946,1609507877581188,5477493873,0.718336,0.152256,0.4392,-5.4775,4.025,4.96125,-39.256,10.088,-73.288,eccentric,4,5.0,25911.0,31232.0,88035.0,88073.0,22723.0,38707.0,38558.0,49670.0,15788.0,12947.0
2026-05-06 16:40:14.206722,974947,1609507877590094,5477502645,0.70272,0.1952,0.45872,-4.13,3.43875,5.48625,-38.944,9.952001,-70.728004,eccentric,4,5.0,25911.0,31232.0,88035.0,88073.0,22723.0,38707.0,38558.0,49670.0,15788.0,12947.0
2026-05-06 16:40:14.223074,974948,1609507877604704,5477515586,0.70272,0.1952,0.45872,-4.38375,3.14125,5.43375,-38.944,9.952001,-70.728004,eccentric,4,5.0,25911.0,31232.0,88035.0,88073.0,22723.0,38707.0,38558.0,49670.0,15788.0,12947.0
2026-05-06 16:40:14.234406,974949,1609507877614142,5477526355,0.718336,0.181536,0.476288,-5.50375,3.33375,3.5,-39.392002,8.0,-72.0,eccentric,4,5.0,25911.0,31232.0,88035.0,88073.0,22723.0,38707.0,38558.0,49670.0,15788.0,12947.0
2026-05-06 16:40:14.266980,974960,1609507877623279,5477535150,0.718336,0.181536,0.476288,-6.25625,3.6925,2.09125,-39.392002,8.0,-72.0,eccentric,4,5.0,25864.0,31179.0,88045.0,88222.0,22690.0,38666.0,38567.0,49772.0,15781.0,12944.0
2026-05-06 16:40:14.269402,974961,1609507877637965,5477550293,0.753472,0.144448,0.476288,-3.4475,2.7825,2.4325,-38.984,9.744,-70.872,eccentric,4,5.0,25864.0,31179.0,88045.0,88222.0,22690.0,38666.0,38567.0,49772.0,15781.0,12944.0
2026-05-06 16:40:14.275042,974962,1609507877646897,5477559042,0.733952,0.179584,0.511424,-1.67125,2.03,2.56375,-38.984,10.368,-70.920006,eccentric,4,5.0,25864.0,31179.0,88045.0,88222.0,22690.0,38666.0,38567.0,49772.0,15781.0,12944.0
2026-05-06 16:40:14.283772,974963,1609507877661524,5477574049,0.733952,0.179584,0.511424,0.09625,1.3475,3.01,-39.224003,10.368,-70.920006,eccentric,4,5.0,25864.0,31179.0,88045.0,88222.0,22690.0,38666.0,38567.0,49772.0,15781.0,12944.0
2026-05-06 16:40:14.287220,974964,1609507877670476,5477582850,0.730048,0.169824,0.491904,-0.07,0.44625,1.6625,-39.072002,10.424001,-70.688,eccentric,4,5.0,25864.0,31179.0,88045.0,88222.0,22690.0,38666.0,38567.0,49772.0,15781.0,12944.0
2026-05-06 16:40:14.321838,974965,1609507877685060,5477597769,0.730048,0.169824,0.491904,-3.115,0.945,-0.04375,-39.072002,10.424001,-70.688,eccentric,4,5.0,25864.0,31179.0,88045.0,88222.0,22690.0,38666.0,38567.0,49772.0,15781.0,12944.0
2026-05-06 16:40:14.346993,974966,1609507877693987,5477606516,0.737856,0.13664,0.501664,-3.63125,0.9275,-1.015,-39.216003,10.216001,-70.888,eccentric,4,5.0,25864.0,31179.0,88045.0,88222.0,22690.0,38666.0,38567.0,49772.0,15781.0,12944.0
2026-05-06 16:40:14.362788,974967,1609507877703003,5477615242,0.737856,0.13664,0.501664,-1.61,1.2075,-1.085,-39.216003,10.216001,-70.888,eccentric,4,5.0,25864.0,31179.0,88045.0,88222.0,22690.0,38666.0,38567.0,49772.0,15781.0,12944.0
2026-05-06 16:40:14.363167,974968,1609507877717491,5477630254,0.72224,0.169824,0.47824,1.61,1.3475,-0.11375,-38.800003,10.576,-70.616005,eccentric,4,5.0,25864.0,31179.0,88045.0,88222.0,22690.0,38666.0,38567.0,49772.0,15781.0,12944.0
2026-05-06 16:40:14.390325,974979,1609507877726647,5477639019,0.72224,0.169824,0.47824,2.98375,1.12875,-0.42,-38.800003,10.576,-70.616005,eccentric,4,5.0,25886.0,31232.0,88097.0,88239.0,22723.0,38724.0,38581.0,49764.0,15793.0,12951.0
2026-05-06 16:40:14.392996,974980,1609507877741176,5477651957,0.710528,0.199104,0.447008,3.56125,0.91875,-1.4525,-39.224003,10.472,-70.768005,eccentric,4,5.0,25886.0,31232.0,88097.0,88239.0,22723.0,38724.0,38581.0,49764.0,15793.0,12951.0
2026-05-06 16:40:14.395469,974981,1609507877750369,5477662758,0.739808,0.124928,0.493856,3.19375,0.37625,-5.31125,-38.968002,10.440001,-70.768005,eccentric,4,5.0,25886.0,31232.0,88097.0,88239.0,22723.0,38724.0,38581.0,49764.0,15793.0,12951.0
2026-05-06 16:40:14.398059,974982,1609507877759607,5477671707,0.739808,0.124928,0.493856,1.7325,-0.21875,-6.41375,-38.968002,10.440001,-70.768005,eccentric,4,5.0,25886.0,31232.0,88097.0,88239.0,22723.0,38724.0,38581.0,49764.0,15793.0,12951.0
2026-05-06 16:40:14.400555,974983,1609507877774354,5477686792,0.72224,0.152256,0.480192,3.98125,-1.54875,-5.08375,-39.112003,10.208,-68.968,eccentric,4,5.0,25886.0,31232.0,88097.0,88239.0,22723.0,38724.0,38581.0,49764.0,15793.0,12951.0
2026-05-06 16:40:14.403055,974984,1609507877783411,5477695537,0.72224,0.152256,0.480192,5.25875,-2.37125,-3.22,-39.112003,10.208,-68.968,eccentric,4,5.0,25886.0,31232.0,88097.0,88239.0,22723.0,38724.0,38581.0,49764.0,15793.0,12951.0
2026-05-06 16:40:14.418029,974985,1609507877797959,5477710492,0.704672,0.216672,0.509472,4.9175,-2.40625,-2.09125,-39.168003,10.048,-70.504005,eccentric,4,5.0,25886.0,31232.0,88097.0,88239.0,22723.0,38724.0,38581.0,49764.0,15793.0,12951.0
2026-05-06 16:40:14.426776,974986,1609507877806882,5477719175,0.704672,0.216672,0.509472,5.25875,-1.89,-3.92,-39.168003,10.048,-70.504005,eccentric,4,5.0,25886.0,31232.0,88097.0,88239.0,22723.0,38724.0,38581.0,49764.0,15793.0,12951.0
2026-05-06 16:40:14.433135,974987,1609507877815809,5477727991,0.730048,0.16592,0.489952,4.27,-1.2075,-5.775,-39.176003,10.64,-68.984,eccentric,4,5.0,25886.0,31232.0,88097.0,88239.0,22723.0,38724.0,38581.0,49764.0,15793.0,12951.0
2026-05-06 16:40:14.491776,974999,1609507877830829,5477743477,0.74176,0.140544,0.46848,2.35375,-0.91875,-7.35875,-39.024002,10.128,-70.928,eccentric,4,5.0,25934.0,31254.0,87990.0,88158.0,22772.0,38753.0,38562.0,49723.0,15836.0,12970.0
2026-05-06 16:40:14.494367,975000,1609507877839905,5477752246,0.74176,0.140544,0.46848,4.1475,-1.5575,-5.57375,-39.024002,10.128,-70.928,eccentric,4,5.0,25934.0,31254.0,87990.0,88158.0,22772.0,38753.0,38562.0,49723.0,15836.0,12970.0
2026-05-06 16:40:14.496809,975001,1609507877854478,5477767229,0.720288,0.242048,0.45872,6.50125,-2.2925,-3.71875,-38.936,8.608001,-69.560005,eccentric,4,5.0,25934.0,31254.0,87990.0,88158.0,22772.0,38753.0,38562.0,49723.0,15836.0,12970.0
2026-05-06 16:40:14.499329,975002,1609507877863428,5477775944,0.720288,0.242048,0.45872,4.865,-2.2575,-3.92,-38.936,8.608001,-69.560005,eccentric,4,5.0,25934.0,31254.0,87990.0,88158.0,22772.0,38753.0,38562.0,49723.0,15836.0,12970.0
2026-05-06 16:40:14.504408,975003,1609507877872379,5477784636,0.728096,0.201056,0.474336,-1.32125,-1.89,-7.105,-39.464,10.424001,-70.552,eccentric,4,5.0,25934.0,31254.0,87990.0,88158.0,22772.0,38753.0,38562.0,49723.0,15836.0,12970.0
2026-05-06 16:40:14.506901,975004,1609507877886906,5477799601,0.728096,0.201056,0.474336,-3.0625,-0.91,-8.89875,-39.464,10.424001,-70.552,eccentric,4,5.0,25934.0,31254.0,87990.0,88158.0,22772.0,38753.0,38562.0,49723.0,15836.0,12970.0
