pc_time,serial_num,sensor_ts,host_ts,ax,ay,az,gx,gy,gz,mx,my,mz,phase,rpe,weight_kg,ppg_a,ppg_b,ppg_c,ppg_d,ppg_e
2026-04-14 17:08:44.730564,93255,1609504018461069,1618430993,0.821792,-0.134688,-0.417728,-7.00875,57.732502,-3.78,-19.248001,-11.808001,-14.552001,eccentric,0,3.0,52954.0,218682.0,117080.0,215145.0,128495.0
2026-04-14 17:08:44.732533,93256,1609504018470125,1618439718,0.960384,-0.085888,-0.499712,-5.0925,54.355,-8.5225,-19.272001,-11.568001,-14.616001,eccentric,0,3.0,52954.0,218682.0,117080.0,215145.0,128495.0
2026-04-14 17:08:44.735121,93257,1609504018484637,1618454762,0.960384,-0.085888,-0.499712,-11.2875,57.951252,-21.35,-19.272001,-11.568001,-14.616001,eccentric,0,3.0,52954.0,218682.0,117080.0,215145.0,128495.0
2026-04-14 17:08:44.748908,93258,1609504018493565,1618463502,0.899872,-0.167872,-0.40992,-9.91375,61.32875,-26.4425,-19.448002,-11.576,-12.816001,eccentric,0,3.0,52954.0,218682.0,117080.0,215145.0,128495.0
2026-04-14 17:08:44.761717,93259,1609504018508066,1618478370,0.899872,-0.1952,-0.197152,-8.28625,65.72125,-24.66625,-19.448002,-11.576,-12.816001,eccentric,0,3.0,52954.0,218682.0,117080.0,215145.0,128495.0
2026-04-14 17:08:44.768989,93260,1609504018517040,1618487032,0.874496,-0.1952,-0.197152,-0.665,61.845,-29.39125,-20.224,-11.168,-12.992001,eccentric,0,3.0,52954.0,218682.0,117080.0,215145.0,128495.0
2026-04-14 17:08:44.776329,93261,1609504018525991,1618495770,0.874496,-0.1952,-0.197152,5.78375,59.82375,-24.36,-20.224,-11.168,-12.992001,eccentric,0,3.0,52954.0,218682.0,117080.0,215145.0,128495.0
2026-04-14 17:08:44.794324,93262,1609504018540483,1618510636,0.911584,-0.091744,-0.384544,11.15625,57.260002,-28.70875,-19.960001,-11.400001,-14.056001,eccentric,0,3.0,52954.0,218682.0,117080.0,215145.0,128495.0
2026-04-14 17:08:44.801662,93263,1609504018549395,1618519373,1.001376,-0.128832,-0.441152,7.56,56.56875,-32.61125,-20.584002,-11.320001,-11.008,eccentric,0,3.0,52954.0,218682.0,117080.0,215145.0,128495.0
2026-04-14 17:08:44.830250,93274,1609504018564032,1618534355,1.001376,-0.128832,-0.441152,1.6625,54.73125,-32.48,-20.584002,-11.320001,-11.008,eccentric,0,3.0,57607.0,235023.0,123901.0,228983.0,135984.0
2026-04-14 17:08:44.832891,93275,1609504018572978,1618543108,1.061888,-0.17568,-0.21472,1.3125,53.31375,-30.45875,-20.896002,-10.816001,-11.960001,eccentric,0,3.0,57607.0,235023.0,123901.0,228983.0,135984.0
2026-04-14 17:08:44.836483,93276,1609504018587526,1618555964,1.061888,-0.17568,-0.21472,5.92375,48.57125,-29.81125,-20.896002,-10.816001,-11.960001,eccentric,0,3.0,57607.0,235023.0,123901.0,228983.0,135984.0
2026-04-14 17:08:44.847859,93277,1609504018596767,1618566696,1.079456,-0.1952,-0.394304,6.36125,45.07125,-29.25125,-20.856,-11.072001,-11.224001,eccentric,0,3.0,57607.0,235023.0,123901.0,228983.0,135984.0
2026-04-14 17:08:44.857810,93278,1609504018605713,1618575402,1.079456,-0.1952,-0.394304,8.46125,40.18,-28.37625,-20.856,-11.072001,-11.224001,eccentric,0,3.0,57607.0,235023.0,123901.0,228983.0,135984.0
2026-04-14 17:08:44.885258,93279,1609504018620188,1618590348,1.233664,-0.160064,-0.265472,7.81375,35.7,-26.67,-20.904001,-11.008,-11.984,eccentric,0,3.0,57607.0,235023.0,123901.0,228983.0,135984.0
2026-04-14 17:08:44.910196,93280,1609504018629123,1618599032,1.13216,-0.0976,-0.189344,2.765,31.928751,-26.005,-20.904001,-10.688001,-11.792001,eccentric,0,3.0,57607.0,235023.0,123901.0,228983.0,135984.0
2026-04-14 17:08:44.935433,93281,1609504018643642,1618613937,1.13216,-0.0976,-0.189344,-0.595,28.9975,-25.795,-21.864,-10.688001,-11.792001,eccentric,0,3.0,57607.0,235023.0,123901.0,228983.0,135984.0
2026-04-14 17:08:44.988811,93292,1609504018652548,1618622930,1.198528,-0.177632,-0.238144,3.2725,24.395,-27.65875,-21.072,-11.120001,-11.472,eccentric,0,3.0,71334.0,258443.0,143324.0,249126.0,156397.0
2026-04-14 17:08:44.990233,93293,1609504018661563,1618631638,1.198528,-0.177632,-0.238144,6.13375,20.22125,-24.71875,-21.072,-11.120001,-11.472,eccentric,0,3.0,71334.0,258443.0,143324.0,249126.0,156397.0
2026-04-14 17:08:44.992667,93294,1609504018676038,1618644452,1.124352,-0.10736,-0.171776,14.81375,19.80125,-22.575,-20.992,-10.92,-12.584001,eccentric,0,3.0,71334.0,258443.0,143324.0,249126.0,156397.0
2026-04-14 17:08:44.996133,93295,1609504018685277,1618655221,1.124352,-0.10736,-0.171776,21.1575,18.165,-22.77625,-20.992,-10.92,-12.584001,eccentric,0,3.0,71334.0,258443.0,143324.0,249126.0,156397.0
2026-04-14 17:08:44.998899,93296,1609504018699761,1618668153,1.085312,-0.072224,-0.372832,20.95625,17.01875,-18.41875,-20.808,-10.784,-11.400001,eccentric,0,3.0,71334.0,258443.0,143324.0,249126.0,156397.0
2026-04-14 17:08:45.000579,93297,1609504018709014,1618678908,1.085312,-0.072224,-0.345504,14.42,16.12625,-16.4325,-20.808,-10.784,-11.400001,eccentric,0,3.0,71334.0,258443.0,143324.0,249126.0,156397.0
2026-04-14 17:08:45.002812,93298,1609504018723517,1618693788,1.026752,-0.044896,-0.345504,8.89,15.37375,-14.2975,-20.832,-11.064,-13.896001,eccentric,0,3.0,71334.0,258443.0,143324.0,249126.0,156397.0
2026-04-14 17:08:45.005307,93299,1609504018732514,1618702493,1.075552,-0.101504,-0.109312,3.42125,13.335,-10.5525,-21.128,-11.104,-12.240001,eccentric,0,3.0,71334.0,258443.0,143324.0,249126.0,156397.0
2026-04-14 17:08:45.007683,93300,1609504018741435,1618711187,1.075552,-0.101504,-0.109312,6.92125,10.94625,-5.38125,-21.128,-11.104,-12.240001,eccentric,0,3.0,71334.0,258443.0,143324.0,249126.0,156397.0
2026-04-14 17:08:45.035665,93311,1609504018756238,1618726127,0.976,-0.025376,-0.247904,13.615,9.45875,-3.6225,-19.864,-11.248,-12.016001,eccentric,0,3.0,76058.0,264219.0,150453.0,254439.0,163555.0
2026-04-14 17:08:45.038170,93312,1609504018765260,1618734865,0.976,-0.025376,-0.247904,14.37625,7.79625,-5.13625,-19.864,-11.248,-12.016001,eccentric,0,3.0,76058.0,264219.0,150453.0,254439.0,163555.0
2026-04-14 17:08:45.040290,93313,1609504018779801,1618749868,0.89792,-0.01952,-0.265472,8.72375,6.71125,-4.13875,-20.304,-11.52,-12.384001,eccentric,0,3.0,76058.0,264219.0,150453.0,254439.0,163555.0
2026-04-14 17:08:45.043166,93314,1609504018788729,1618758595,0.89792,-0.01952,-0.265472,3.99,6.6675,-1.95125,-20.304,-11.52,-12.384001,eccentric,0,3.0,76058.0,264219.0,150453.0,254439.0,163555.0
2026-04-14 17:08:45.059417,93315,1609504018797707,1618767302,0.96624,-0.003904,-0.08784,0.42875,6.37875,-2.24,-20.256,-11.240001,-12.000001,eccentric,0,3.0,76058.0,264219.0,150453.0,254439.0,163555.0
2026-04-14 17:08:45.069167,93316,1609504018812206,1618782206,0.886208,-0.013664,-0.052704,-2.58125,6.65875,-2.975,-20.944,-11.104,-11.936001,eccentric,0,3.0,76058.0,264219.0,150453.0,254439.0,163555.0
2026-04-14 17:08:45.071670,93317,1609504018821110,1618790895,0.886208,-0.013664,-0.052704,-5.25,6.86,-2.8525,-20.944,-11.104,-11.936001,eccentric,0,3.0,76058.0,264219.0,150453.0,254439.0,163555.0
2026-04-14 17:08:45.087579,93318,1609504018835593,1618805760,0.88816,-0.040992,-0.074176,-6.6325,7.1925,-0.53375,-20.560001,-11.240001,-11.768001,eccentric,0,3.0,76058.0,264219.0,150453.0,254439.0,163555.0
2026-04-14 17:08:45.096467,93319,1609504018844504,1618814436,0.88816,-0.040992,-0.074176,-5.53875,8.47875,0.20125,-20.560001,-11.240001,-11.768001,eccentric,0,3.0,76058.0,264219.0,150453.0,254439.0,163555.0
2026-04-14 17:08:45.131671,93330,1609504018859259,1618829369,0.817888,-0.003904,-0.091744,-3.5175,8.54875,0.42,-20.12,-11.344001,-12.048,eccentric,0,3.0,73669.0,262759.0,147622.0,253104.0,160624.0
2026-04-14 17:08:45.134169,93331,1609504018868284,1618838160,0.817888,-0.003904,-0.091744,-0.18375,7.245,1.0325,-20.12,-11.344001,-12.048,eccentric,0,3.0,73669.0,262759.0,147622.0,253104.0,160624.0
2026-04-14 17:08:45.136642,93332,1609504018877229,1618846865,0.880352,-0.011712,-0.177632,-1.75875,6.44875,0.69125,-21.136002,-10.928,-10.928,eccentric,0,3.0,73669.0,262759.0,147622.0,253104.0,160624.0
2026-04-14 17:08:45.144055,93333,1609504018891786,1618861722,0.903776,-0.091744,-0.203008,-6.265,6.5275,1.12,-21.04,-11.232,-10.952001,eccentric,0,3.0,73669.0,262759.0,147622.0,253104.0,160624.0
2026-04-14 17:08:45.151573,93334,1609504018900740,1618870478,0.903776,-0.091744,-0.203008,-10.2375,6.2475,1.295,-21.04,-11.232,-10.952001,eccentric,0,3.0,73669.0,262759.0,147622.0,253104.0,160624.0
2026-04-14 17:08:45.166670,93335,1609504018915228,1618885359,0.948672,-0.066368,-0.0976,-11.2875,5.3375,1.54,-20.04,-11.584001,-11.728001,eccentric,0,3.0,73669.0,262759.0,147622.0,253104.0,160624.0
2026-04-14 17:08:45.175956,93336,1609504018924183,1618894017,0.948672,-0.066368,-0.0976,-11.27875,4.01625,2.82625,-20.04,-11.584001,-11.728001,eccentric,0,3.0,73669.0,262759.0,147622.0,253104.0,160624.0
2026-04-14 17:08:45.185321,93337,1609504018933182,1618902704,0.919392,-0.081984,-0.199104,-11.5325,2.33625,4.41,-21.320002,-11.056001,-10.296001,eccentric,0,3.0,73669.0,262759.0,147622.0,253104.0,160624.0
2026-04-14 17:08:45.197919,93338,1609504018947654,1618917601,0.919392,-0.081984,-0.199104,-11.06875,0.13125,4.1475,-21.320002,-11.056001,-10.296001,eccentric,0,3.0,73669.0,262759.0,147622.0,253104.0,160624.0
2026-04-14 17:08:45.252705,93349,1609504018957126,1618926766,0.987712,-0.130784,-0.261568,-9.5725,-1.26875,3.9375,-20.432001,-11.392,-11.856001,eccentric,0,3.0,77838.0,265446.0,153027.0,255041.0,166135.0
2026-04-14 17:08:45.280427,93350,1609504018971745,1618941665,0.999424,-0.122976,-0.238144,-6.34375,-2.695,4.55,-21.272001,-11.272,-9.936001,eccentric,0,3.0,77838.0,265446.0,153027.0,255041.0,166135.0
2026-04-14 17:08:45.282873,93351,1609504018980736,1618950371,0.999424,-0.122976,-0.238144,-3.08,-4.43625,4.10375,-21.272001,-11.272,-9.936001,eccentric,0,3.0,77838.0,265446.0,153027.0,255041.0,166135.0
2026-04-14 17:08:45.285442,93352,1609504018989678,1618959067,0.999424,-0.122976,-0.238144,-3.63125,-6.0725,5.0925,-21.272001,-11.272,-9.936001,eccentric,0,3.0,77838.0,265446.0,153027.0,255041.0,166135.0
2026-04-14 17:08:45.305460,93353,1609504019004526,1618974370,0.999424,-0.13664,-0.017568,-4.095,-7.1925,6.51875,-21.936,-10.624001,-7.744,eccentric,0,3.0,77838.0,265446.0,153027.0,255041.0,166135.0
2026-04-14 17:08:45.307708,93354,1609504019013445,1618983058,1.042368,-0.1464,-0.230336,0.13125,-8.4875,7.8225,-21.984001,-11.216001,-10.912001,eccentric,0,3.0,77838.0,265446.0,153027.0,255041.0,166135.0
2026-04-14 17:08:45.310692,93355,1609504019027891,1618997943,1.042368,-0.1464,-0.230336,4.9175,-10.35125,9.49375,-21.984001,-11.216001,-10.912001,eccentric,0,3.0,77838.0,265446.0,153027.0,255041.0,166135.0
2026-04-14 17:08:45.313242,93356,1609504019036802,1619006638,1.038464,-0.085888,-0.085888,8.18125,-11.59375,8.88125,-21.12,-10.528001,-10.6,eccentric,0,3.0,77838.0,265446.0,153027.0,255041.0,166135.0
2026-04-14 17:08:45.315407,93357,1609504019052011,1619021717,0.923296,-0.085888,-0.269376,7.49875,-12.67,8.015,-21.12,-10.848001,-12.544001,eccentric,0,3.0,77838.0,265446.0,153027.0,255041.0,166135.0
2026-04-14 17:08:45.342712,93368,1609504019061865,1619030688,0.923296,-0.085888,-0.269376,4.06,-13.93875,8.96875,-21.216002,-10.848001,-12.544001,eccentric,0,3.0,73940.0,261641.0,147679.0,252209.0,160758.0
2026-04-14 17:08:45.345146,93369,1609504019071314,1619041555,0.923296,-0.085888,-0.23424,3.50875,-14.875,9.73875,-21.216002,-10.848001,-12.544001,eccentric,0,3.0,73940.0,261641.0,147679.0,252209.0,160758.0
2026-04-14 17:08:45.347901,93370,1609504019080270,1619050271,0.983808,-0.15616,-0.23424,3.33375,-15.2075,8.9775,-21.216002,-11.096001,-9.928,eccentric,0,3.0,73940.0,261641.0,147679.0,252209.0,160758.0
2026-04-14 17:08:45.350501,93371,1609504019094735,1619063109,1.003328,-0.122976,-0.1952,5.80125,-14.6475,7.84,-21.552002,-10.832001,-11.144,eccentric,0,3.0,73940.0,261641.0,147679.0,252209.0,160758.0
2026-04-14 17:08:45.360818,93372,1609504019103905,1619073843,1.003328,-0.122976,-0.1952,8.5225,-14.70875,6.3,-21.552002,-10.832001,-11.144,eccentric,0,3.0,73940.0,261641.0,147679.0,252209.0,160758.0
2026-04-14 17:08:45.369061,93373,1609504019118412,1619086774,0.96624,-0.140544,-0.33184,7.11375,-14.67375,6.1075,-20.712002,-11.120001,-12.528001,eccentric,0,3.0,73940.0,261641.0,147679.0,252209.0,160758.0
2026-04-14 17:08:45.380402,93374,1609504019127626,1619097546,0.96624,-0.140544,-0.33184,4.83,-15.3125,6.97375,-20.712002,-11.120001,-12.528001,eccentric,0,3.0,73940.0,261641.0,147679.0,252209.0,160758.0
2026-04-14 17:08:45.394021,93375,1609504019142130,1619112427,0.942816,-0.132736,-0.363072,0.4025,-16.6775,7.1225,-20.376001,-11.440001,-12.080001,eccentric,0,3.0,73940.0,261641.0,147679.0,252209.0,160758.0
2026-04-14 17:08:45.404083,93376,1609504019151055,1619121101,0.942816,-0.132736,-0.363072,-1.855,-16.91375,7.035,-20.376001,-11.440001,-12.080001,eccentric,0,3.0,73940.0,261641.0,147679.0,252209.0,160758.0
2026-04-14 17:08:45.434094,93387,1609504019160476,1619129940,0.989664,-0.08784,-0.15616,-3.7275,-16.415,5.85375,-20.552,-11.064,-12.528001,eccentric,0,3.0,81578.0,262025.0,157596.0,252929.0,171723.0
2026-04-14 17:08:45.436584,93388,1609504019175004,1619144916,0.976,-0.17568,-0.226432,-6.195,-15.44375,4.31375,-21.28,-10.808001,-10.712001,eccentric,0,3.0,81578.0,262025.0,157596.0,252929.0,171723.0
2026-04-14 17:08:45.439008,93389,1609504019183920,1619153602,0.976,-0.17568,-0.226432,-6.1075,-15.435,3.815,-21.28,-10.808001,-10.712001,eccentric,0,3.0,81578.0,262025.0,157596.0,252929.0,171723.0
2026-04-14 17:08:45.450265,93390,1609504019198392,1619168448,0.99552,-0.162016,-0.257664,-5.41625,-16.3275,3.99875,-21.832,-10.864,-10.376,eccentric,0,3.0,81578.0,262025.0,157596.0,252929.0,171723.0
2026-04-14 17:08:45.457563,93391,1609504019207312,1619177134,0.99552,-0.162016,-0.257664,-4.2525,-17.0275,5.97625,-21.832,-10.864,-10.376,eccentric,0,3.0,81578.0,262025.0,157596.0,252929.0,171723.0
2026-04-14 17:08:45.467805,93392,1609504019216213,1619185823,1.110688,-0.169824,-0.378688,-3.5875,-17.82375,8.1375,-21.224,-11.344001,-12.408001,eccentric,0,3.0,81578.0,262025.0,157596.0,252929.0,171723.0
2026-04-14 17:08:45.484086,93393,1609504019230691,1619200690,1.110688,-0.169824,-0.378688,-5.50375,-17.885,8.68,-21.224,-11.344001,-12.408001,eccentric,0,3.0,81578.0,262025.0,157596.0,252929.0,171723.0
2026-04-14 17:08:45.491502,93394,1609504019239613,1619209382,1.065792,-0.128832,-0.245952,-8.636251,-17.85875,8.82875,-20.232,-11.6,-12.408001,eccentric,0,3.0,81578.0,262025.0,157596.0,252929.0,171723.0
2026-04-14 17:08:45.525367,93395,1609504019254110,1619224273,1.091168,-0.232288,-0.353312,-12.27625,-16.625,9.695,-20.400002,-11.568001,-12.016001,eccentric,0,3.0,81578.0,262025.0,157596.0,252929.0,171723.0
2026-04-14 17:08:45.554002,93406,1609504019263151,1619233014,1.091168,-0.232288,-0.353312,-11.2525,-15.56625,10.94625,-20.400002,-11.568001,-12.016001,eccentric,0,3.0,87780.0,259391.0,164510.0,250081.0,179500.0
2026-04-14 17:08:45.555342,93407,1609504019277623,1619247894,1.100928,-0.163968,-0.404064,-6.2825,-15.505,11.17375,-20.352001,-11.496,-11.72,eccentric,0,3.0,87780.0,259391.0,164510.0,250081.0,179500.0
2026-04-14 17:08:45.557614,93408,1609504019286654,1619256602,1.100928,-0.163968,-0.404064,1.00625,-16.38,16.0125,-20.352001,-11.496,-11.72,eccentric,0,3.0,87780.0,259391.0,164510.0,250081.0,179500.0
2026-04-14 17:08:45.560410,93409,1609504019295569,1619265301,1.071648,-0.18544,-0.314272,-1.015,-12.1975,15.75875,-20.984001,-11.784,-11.232,eccentric,0,3.0,87780.0,259391.0,164510.0,250081.0,179500.0
2026-04-14 17:08:45.563053,93410,1609504019310123,1619280195,1.071648,-0.18544,-0.314272,-1.14625,-11.03375,13.48375,-20.984001,-11.784,-11.232,eccentric,0,3.0,87780.0,259391.0,164510.0,250081.0,179500.0
2026-04-14 17:08:45.568813,93411,1609504019319122,1619288944,1.145824,-0.191296,-0.228384,0.14875,-8.39125,15.155,-21.104,-11.744,-11.272,eccentric,0,3.0,87780.0,259391.0,164510.0,250081.0,179500.0
2026-04-14 17:08:45.585574,93412,1609504019333683,1619303888,0.999424,-0.158112,-0.411872,4.4275,-7.53375,15.785,-21.104,-12.176001,-13.240001,eccentric,0,3.0,87780.0,259391.0,164510.0,250081.0,179500.0
2026-04-14 17:08:45.631096,93413,1609504019342536,1619312557,0.999424,-0.158112,-0.411872,6.9825,-8.05875,13.825,-19.944,-12.176001,-13.240001,eccentric,0,3.0,87780.0,259391.0,164510.0,250081.0,179500.0
2026-04-14 17:08:45.633220,93414,1609504019357000,1619325378,1.069696,-0.124928,-0.181536,6.16875,-9.14375,15.2075,-20.968,-11.52,-10.960001,eccentric,0,3.0,87780.0,259391.0,164510.0,250081.0,179500.0
2026-04-14 17:08:45.683291,93425,1609504019366237,1619336127,1.069696,-0.124928,-0.181536,2.0475,-10.26375,15.26,-20.968,-11.52,-10.960001,eccentric,0,3.0,76378.0,251400.0,150282.0,243347.0,164160.0
2026-04-14 17:08:45.685763,93426,1609504019375141,1619344819,1.079456,-0.142496,-0.140544,-2.65125,-9.6775,14.62125,-21.36,-11.672001,-10.768001,eccentric,0,3.0,76378.0,251400.0,150282.0,243347.0,164160.0
2026-04-14 17:08:45.688246,93427,1609504019389748,1619359755,1.079456,-0.142496,-0.140544,-4.2875,-7.21,14.07,-21.36,-11.672001,-10.768001,eccentric,0,3.0,76378.0,251400.0,150282.0,243347.0,164160.0
2026-04-14 17:08:45.690258,93428,1609504019398655,1619368428,1.085312,-0.183488,-0.245952,-3.6225,-4.31375,11.40125,-21.736002,-12.024,-10.416,eccentric,0,3.0,76378.0,251400.0,150282.0,243347.0,164160.0
2026-04-14 17:08:45.692619,93429,1609504019413125,1619383275,1.085312,-0.183488,-0.245952,-3.7975,-1.5225,10.9025,-21.736002,-12.024,-10.416,eccentric,0,3.0,76378.0,251400.0,150282.0,243347.0,164160.0
2026-04-14 17:08:45.695660,93430,1609504019422258,1619391977,0.987712,-0.11712,-0.310368,-5.43375,-0.2625,9.7125,-19.992,-12.624001,-10.984,eccentric,0,3.0,76378.0,251400.0,150282.0,243347.0,164160.0
2026-04-14 17:08:45.698146,93431,1609504019431192,1619400670,0.987712,-0.11712,-0.310368,-9.4675,1.44375,8.91625,-19.992,-12.624001,-10.984,eccentric,0,3.0,76378.0,251400.0,150282.0,243347.0,164160.0
2026-04-14 17:08:45.700669,93432,1609504019445746,1619415600,0.974048,-0.15616,-0.376736,-10.0275,4.97875,8.88125,-21.176,-12.056001,-11.016001,eccentric,0,3.0,76378.0,251400.0,150282.0,243347.0,164160.0
2026-04-14 17:08:45.706931,93433,1609504019454687,1619424297,1.003328,-0.150304,-0.158112,-10.47375,7.90125,7.67375,-20.856,-12.68,-10.944,eccentric,0,3.0,76378.0,251400.0,150282.0,243347.0,164160.0
2026-04-14 17:08:45.734054,93444,1609504019469255,1619439342,1.003328,-0.150304,-0.158112,-11.2875,10.94625,6.4925,-20.856,-12.68,-10.944,eccentric,0,3.0,72041.0,246049.0,144569.0,238488.0,157955.0
2026-04-14 17:08:45.736353,93445,1609504019478268,1619448025,1.091168,-0.171776,-0.21472,-10.08875,12.74,5.775,-20.416,-13.280001,-10.656,eccentric,0,3.0,72041.0,246049.0,144569.0,238488.0,157955.0
2026-04-14 17:08:45.743837,93446,1609504019492765,1619462972,1.091168,-0.171776,-0.21472,-10.15,11.585,5.3725,-20.416,-13.280001,-10.656,eccentric,0,3.0,72041.0,246049.0,144569.0,238488.0,157955.0
2026-04-14 17:08:45.754329,93447,1609504019501713,1619471665,1.052128,-0.07808,-0.144448,-10.26375,12.7225,6.30875,-20.968,-13.208,-13.056001,eccentric,0,3.0,72041.0,246049.0,144569.0,238488.0,157955.0
2026-04-14 17:08:45.761837,93448,1609504019510675,1619480351,1.052128,-0.07808,-0.144448,-11.3575,16.00375,5.62625,-20.968,-13.208,-13.056001,eccentric,0,3.0,72041.0,246049.0,144569.0,238488.0,157955.0
2026-04-14 17:08:45.776898,93449,1609504019525170,1619495219,1.042368,-0.197152,-0.197152,-8.5575,17.9025,2.5025,-20.264002,-13.688001,-11.528001,eccentric,0,3.0,72041.0,246049.0,144569.0,238488.0,157955.0
2026-04-14 17:08:45.788198,93450,1609504019534108,1619503892,1.042368,-0.197152,-0.197152,-3.325,17.3775,-2.54625,-20.264002,-13.688001,-11.528001,eccentric,0,3.0,72041.0,246049.0,144569.0,238488.0,157955.0
2026-04-14 17:08:45.799496,93451,1609504019548596,1619518839,1.03456,-0.158112,-0.230336,3.0275,14.23625,-6.36125,-20.144001,-14.128,-11.368001,eccentric,0,3.0,72041.0,246049.0,144569.0,238488.0,157955.0
2026-04-14 17:08:45.838177,93462,1609504019557512,1619527736,1.046272,-0.080032,-0.152256,2.52,12.8275,-6.7025,-20.912,-14.112,-9.160001,eccentric,0,3.0,62601.0,242551.0,131335.0,235349.0,143745.0
2026-04-14 17:08:45.840274,93463,1609504019572036,1619540585,1.046272,-0.080032,-0.152256,1.00625,16.9575,-6.57125,-20.912,-14.112,-9.160001,eccentric,0,3.0,62601.0,242551.0,131335.0,235349.0,143745.0
2026-04-14 17:08:45.842798,93464,1609504019581573,1619551424,0.880352,-0.162016,-0.269376,0.0525,20.895,-10.73625,-20.088001,-14.816001,-10.72,eccentric,0,3.0,62601.0,242551.0,131335.0,235349.0,143745.0
2026-04-14 17:08:45.845297,93465,1609504019590508,1619560161,0.880352,-0.162016,-0.269376,5.985,24.185,-16.8875,-20.088001,-14.816001,-10.72,eccentric,0,3.0,62601.0,242551.0,131335.0,235349.0,143745.0
2026-04-14 17:08:45.856921,93466,1609504019605048,1619575024,0.880352,-0.15616,-0.040992,11.99625,27.055,-27.9125,-20.056002,-15.456,-10.592001,eccentric,0,3.0,62601.0,242551.0,131335.0,235349.0,143745.0
2026-04-14 17:08:45.864415,93467,1609504019614053,1619583776,0.880352,-0.15616,-0.040992,11.12125,23.24,-30.135,-20.056002,-15.456,-10.592001,eccentric,0,3.0,62601.0,242551.0,131335.0,235349.0,143745.0
2026-04-14 17:08:45.879477,93468,1609504019628527,1619598716,0.845216,-0.023424,-0.199104,6.23875,23.6425,-16.9925,-20.104,-15.56,-10.464001,eccentric,0,3.0,62601.0,242551.0,131335.0,235349.0,143745.0
2026-04-14 17:08:45.890344,93469,1609504019637422,1619607376,0.77104,-0.001952,-0.10736,-4.90875,26.87125,-15.68875,-20.560001,-15.720001,-9.280001,eccentric,0,3.0,62601.0,242551.0,131335.0,235349.0,143745.0
2026-04-14 17:08:45.897921,93470,1609504019646359,1619616039,0.77104,-0.001952,-0.10736,-7.77,30.905,-22.95125,-20.560001,-15.720001,-9.280001,eccentric,0,3.0,62601.0,242551.0,131335.0,235349.0,143745.0
2026-04-14 17:08:45.936369,93481,1609504019661068,1619630962,0.841312,-0.15616,-0.021472,-3.26375,30.616251,-29.6275,-19.672,-16.408,-9.408,eccentric,0,3.0,56698.0,237744.0,122715.0,231389.0,134461.0
2026-04-14 17:08:45.938853,93482,1609504019670044,1619639759,0.841312,-0.15616,-0.021472,2.0475,28.5075,-29.225,-19.672,-16.408,-9.408,eccentric,0,3.0,56698.0,237744.0,122715.0,231389.0,134461.0
2026-04-14 17:08:45.941317,93483,1609504019684641,1619654633,0.749568,-0.081984,-0.154208,4.1125,29.98625,-23.7475,-20.6,-16.536001,-9.136001,eccentric,0,3.0,56698.0,237744.0,122715.0,231389.0,134461.0
2026-04-14 17:08:45.944058,93484,1609504019693724,1619663382,0.749568,-0.081984,-0.154208,2.4675,31.9375,-19.7225,-20.6,-16.536001,-9.136001,eccentric,0,3.0,56698.0,237744.0,122715.0,231389.0,134461.0
2026-04-14 17:08:45.960483,93485,1609504019708191,1619678255,0.691008,-0.035136,-0.163968,1.9425,34.7375,-18.06875,-20.832,-17.52,-9.84,eccentric,0,3.0,56698.0,237744.0,122715.0,231389.0,134461.0
2026-04-14 17:08:45.989014,93486,1609504019717102,1619686954,0.659776,0.03904,-0.230336,3.64,35.27125,-18.2,-20.320002,-17.224,-10.200001,eccentric,0,3.0,56698.0,237744.0,122715.0,231389.0,134461.0
2026-04-14 17:08:45.991371,93487,1609504019726077,1619695612,0.659776,0.03904,-0.230336,7.98875,33.15375,-17.885,-20.320002,-17.224,-10.200001,eccentric,0,3.0,56698.0,237744.0,122715.0,231389.0,134461.0
2026-04-14 17:08:45.993895,93488,1609504019740520,1619710507,0.772992,0.003904,0.089792,6.265,31.710001,-17.14125,-19.776001,-17.808,-9.032001,eccentric,0,3.0,56698.0,237744.0,122715.0,231389.0,134461.0
2026-04-14 17:08:46.020346,93489,1609504019749446,1619719204,0.772992,0.003904,0.089792,-5.10125,31.15875,-14.035,-19.776001,-17.808,-9.032001,eccentric,0,3.0,56698.0,237744.0,122715.0,231389.0,134461.0
2026-04-14 17:08:46.057568,93500,1609504019764147,1619734154,0.864736,-0.17568,-0.023424,-12.46,33.38125,-14.30625,-20.52,-17.84,-6.952,concentric,0,3.0,61329.0,251672.0,129462.0,242903.0,141237.0
2026-04-14 17:08:46.060116,93501,1609504019773188,1619742813,0.864736,-0.17568,-0.023424,-14.752501,36.02375,-15.00625,-20.52,-17.84,-6.952,concentric,0,3.0,61329.0,251672.0,129462.0,242903.0,141237.0
2026-04-14 17:08:46.062685,93502,1609504019782135,1619751570,0.847168,-0.089792,-0.2928,-5.57375,37.45,-12.4075,-21.480001,-17.888,-6.744,concentric,0,3.0,61329.0,251672.0,129462.0,242903.0,141237.0
2026-04-14 17:08:46.065329,93503,1609504019796665,1619766515,0.854976,0.013664,0.101504,1.3125,37.8,-14.035,-21.480001,-18.232,-7.416,concentric,0,3.0,61329.0,251672.0,129462.0,242903.0,141237.0
2026-04-14 17:08:46.067798,93504,1609504019805643,1619775202,0.854976,0.013664,0.101504,-2.7475,37.93125,-15.12875,-21.096,-18.232,-7.416,concentric,0,3.0,61329.0,251672.0,129462.0,242903.0,141237.0
2026-04-14 17:08:46.073932,93505,1609504019820132,1619790180,0.747616,-0.064416,0.052704,-6.58,41.326252,-14.0525,-20.576,-18.720001,-6.744,concentric,0,3.0,61329.0,251672.0,129462.0,242903.0,141237.0
2026-04-14 17:08:46.080251,93506,1609504019829045,1619798895,0.747616,-0.064416,0.052704,-8.995,44.75625,-19.460001,-20.576,-18.720001,-6.744,concentric,0,3.0,61329.0,251672.0,129462.0,242903.0,141237.0
2026-04-14 17:08:46.095264,93507,1609504019843531,1619813771,0.718336,-0.099552,-0.02928,-2.75625,45.92875,-25.89125,-20.536001,-19.032001,-6.76,concentric,0,3.0,61329.0,251672.0,129462.0,242903.0,141237.0
2026-04-14 17:08:46.105522,93508,1609504019852507,1619822410,0.718336,-0.099552,-0.02928,2.905,44.59875,-26.9325,-20.536001,-19.032001,-6.76,concentric,0,3.0,61329.0,251672.0,129462.0,242903.0,141237.0
2026-04-14 17:08:46.164071,93519,1609504019862003,1619831653,0.815936,-0.191296,-0.22448,7.4375,40.9675,-24.73625,-19.376001,-19.528002,-5.832,concentric,0,3.0,78956.0,272065.0,153901.0,259328.0,166587.0
2026-04-14 17:08:46.166644,93520,1609504019876565,1619846618,0.815936,-0.191296,0.169824,5.39,37.93125,-18.725,-19.376001,-19.528002,-5.832,concentric,0,3.0,78956.0,272065.0,153901.0,259328.0,166587.0
2026-04-14 17:08:46.169083,93521,1609504019885594,1619855396,0.796416,-0.113216,0.169824,-0.98875,36.89875,-10.15875,-20.352001,-20.152,-6.096,concentric,0,3.0,78956.0,272065.0,153901.0,259328.0,166587.0
2026-04-14 17:08:46.171663,93522,1609504019900062,1619870278,0.642208,0.0,0.142496,-3.31625,39.7075,-7.88375,-20.36,-20.312,-5.64,concentric,0,3.0,78956.0,272065.0,153901.0,259328.0,166587.0
2026-04-14 17:08:46.174071,93523,1609504019908959,1619878919,0.642208,0.0,0.142496,-7.39375,44.75625,-13.48375,-20.36,-20.312,-5.64,concentric,0,3.0,78956.0,272065.0,153901.0,259328.0,166587.0
2026-04-14 17:08:46.176653,93524,1609504019923582,1619893802,0.687104,-0.206912,-0.171776,-7.72625,48.23875,-21.09625,-20.336,-20.296001,-5.296001,concentric,0,3.0,78956.0,272065.0,153901.0,259328.0,166587.0
2026-04-14 17:08:46.182891,93525,1609504019932606,1619902527,0.687104,-0.206912,-0.171776,-2.2225,46.06,-24.9375,-20.336,-20.296001,-5.296001,concentric,0,3.0,78956.0,272065.0,153901.0,259328.0,166587.0
2026-04-14 17:08:46.194162,93526,1609504019941703,1619911220,0.620736,-0.066368,-0.122976,9.17875,40.0925,-23.51125,-19.776001,-20.504002,-6.616,concentric,0,3.0,78956.0,272065.0,153901.0,259328.0,166587.0
2026-04-14 17:08:46.208214,93527,1609504019956233,1619926094,0.620736,-0.066368,-0.122976,16.68625,34.5275,-19.7925,-19.776001,-20.504002,-6.616,concentric,0,3.0,78956.0,272065.0,153901.0,259328.0,166587.0
2026-04-14 17:08:46.239473,93538,1609504019965294,1619934865,0.704672,-0.070272,0.183488,10.08,30.9925,-13.755,-19.896002,-20.856,-6.776001,concentric,0,3.0,93824.0,286487.0,172438.0,272195.0,186343.0
2026-04-14 17:08:46.241633,93539,1609504019979947,1619949838,0.640256,-0.11712,-0.052704,2.75625,28.28,-12.74,-21.04,-20.784,-4.104,concentric,0,3.0,93824.0,286487.0,172438.0,272195.0,186343.0
2026-04-14 17:08:46.244086,93540,1609504019988896,1619958537,0.640256,-0.11712,-0.052704,5.18875,28.27125,-13.57125,-21.04,-20.784,-4.104,concentric,0,3.0,93824.0,286487.0,172438.0,272195.0,186343.0
2026-04-14 17:08:46.249103,93541,1609504019997789,1619967208,0.757376,-0.171776,-0.070272,8.715,26.92375,-16.397501,-21.04,-20.784,-5.712,concentric,0,3.0,93824.0,286487.0,172438.0,272195.0,186343.0
2026-04-14 17:08:46.263261,93542,1609504020012333,1619982115,0.757376,-0.171776,-0.070272,11.7775,23.905,-14.971251,-20.552,-20.976002,-5.712,concentric,0,3.0,93824.0,286487.0,172438.0,272195.0,186343.0
2026-04-14 17:08:46.273241,93543,1609504020021260,1619990825,0.696864,-0.0976,-0.033184,9.8525,20.39625,-9.5725,-19.496,-21.36,-5.952,concentric,0,3.0,93824.0,286487.0,172438.0,272195.0,186343.0
2026-04-14 17:08:46.289447,93544,1609504020035776,1620005701,0.696864,-0.0976,-0.033184,8.84625,15.785,-5.145,-19.496,-21.36,-5.952,concentric,0,3.0,93824.0,286487.0,172438.0,272195.0,186343.0
2026-04-14 17:08:46.296950,93545,1609504020044707,1620014376,0.75152,-0.091744,-0.091744,6.965,13.74625,-1.79375,-18.992,-21.992,-4.032,concentric,0,3.0,93824.0,286487.0,172438.0,272195.0,186343.0
2026-04-14 17:08:46.313895,93546,1609504020059224,1620029305,0.825696,-0.212768,-0.111264,5.45125,12.355001,-2.68625,-19.632002,-21.288,-2.856,concentric,0,3.0,93824.0,286487.0,172438.0,272195.0,186343.0
2026-04-14 17:08:46.391620,93557,1609504020068203,1620038044,0.825696,-0.212768,-0.111264,5.83625,10.94625,-2.65125,-19.632002,-21.288,-2.856,concentric,0,3.0,98383.0,296751.0,178036.0,282116.0,192028.0
2026-04-14 17:08:46.394487,93558,1609504020077181,1620046748,0.825696,-0.212768,-0.111264,12.075,9.03875,-1.2775,-19.632002,-21.288,-2.856,concentric,0,3.0,98383.0,296751.0,178036.0,282116.0,192028.0
2026-04-14 17:08:46.396972,93559,1609504020091687,1620061644,0.825696,-0.124928,-0.11712,17.7975,6.6675,1.3475,-20.216002,-20.872002,-7.744,concentric,0,3.0,98383.0,296751.0,178036.0,282116.0,192028.0
2026-04-14 17:08:46.399485,93560,1609504020100589,1620070341,0.903776,-0.103456,0.021472,17.3075,4.08625,5.45125,-19.656,-21.448002,-6.032,concentric,0,3.0,98383.0,296751.0,178036.0,282116.0,192028.0
2026-04-14 17:08:46.401944,93561,1609504020115094,1620085196,0.903776,-0.103456,0.021472,6.8775,3.68375,9.09125,-19.656,-21.448002,-6.032,concentric,0,3.0,98383.0,296751.0,178036.0,282116.0,192028.0
2026-04-14 17:08:46.404137,93562,1609504020124019,1620093864,0.8784,-0.16592,0.142496,-4.68125,3.9025,10.4125,-19.832,-21.264002,-5.808,concentric,0,3.0,98383.0,296751.0,178036.0,282116.0,192028.0
2026-04-14 17:08:46.418326,93563,1609504020138542,1620108816,0.847168,-0.179584,-0.017568,-4.375,3.15875,10.40375,-19.832,-21.264002,-5.808,concentric,0,3.0,98383.0,296751.0,178036.0,282116.0,192028.0
2026-04-14 17:08:46.418468,93564,1609504020147447,1620117497,0.853024,-0.179584,-0.017568,2.82625,2.1525,8.91625,-19.480001,-21.832,-5.864,concentric,0,3.0,98383.0,296751.0,178036.0,282116.0,192028.0
2026-04-14 17:08:46.418536,93565,1609504020156417,1620126199,0.853024,-0.179584,-0.017568,6.22125,0.28,8.09375,-19.480001,-21.832,-5.864,concentric,0,3.0,98383.0,296751.0,178036.0,282116.0,192028.0
2026-04-14 17:08:46.439103,93576,1609504020171601,1620141766,0.899872,-0.11712,0.031232,10.03625,-1.70625,8.225,-19.84,-21.144001,-6.152,concentric,0,3.0,100631.0,304674.0,181070.0,289716.0,195241.0
2026-04-14 17:08:46.441451,93577,1609504020180590,1620150467,0.915488,-0.15616,0.197152,10.6575,-3.7275,7.44625,-19.904001,-21.256,-5.952,concentric,0,3.0,100631.0,304674.0,181070.0,289716.0,195241.0
2026-04-14 17:08:46.446596,93578,1609504020195134,1620165407,0.915488,-0.15616,0.197152,3.78875,-4.235,9.52,-19.904001,-21.256,-5.952,concentric,0,3.0,100631.0,304674.0,181070.0,289716.0,195241.0
2026-04-14 17:08:46.455469,93579,1609504020204093,1620174106,0.88816,-0.163968,0.074176,-0.84,-4.585,10.36875,-19.952002,-21.152,-6.520001,concentric,0,3.0,100631.0,304674.0,181070.0,289716.0,195241.0
2026-04-14 17:08:46.465506,93580,1609504020213055,1620182817,0.88816,-0.163968,0.074176,0.11375,-5.36375,9.73875,-19.952002,-21.152,-6.520001,concentric,0,3.0,100631.0,304674.0,181070.0,289716.0,195241.0
2026-04-14 17:08:46.479371,93581,1609504020227512,1620197700,0.85888,-0.197152,-0.060512,1.3825,-6.41375,9.3625,-19.848001,-21.048,-6.28,concentric,0,3.0,100631.0,304674.0,181070.0,289716.0,195241.0
2026-04-14 17:08:46.486677,93582,1609504020236449,1620206426,0.85888,-0.197152,-0.060512,0.16625,-8.84625,8.74125,-19.848001,-21.048,-6.28,concentric,0,3.0,100631.0,304674.0,181070.0,289716.0,195241.0
2026-04-14 17:08:46.500230,93583,1609504020250914,1620219346,0.853024,-0.0976,0.025376,1.70625,-11.8475,8.645,-20.336,-21.128,-5.76,concentric,0,3.0,100631.0,304674.0,181070.0,289716.0,195241.0
2026-04-14 17:08:46.511298,93584,1609504020260125,1620230115,0.895968,-0.160064,0.080032,4.6025,-13.8425,7.56875,-20.552,-20.832,-2.296,concentric,0,3.0,100631.0,304674.0,181070.0,289716.0,195241.0
2026-04-14 17:08:46.539170,93595,1609504020269095,1620238890,0.895968,-0.160064,0.080032,-1.8725,-13.886251,6.85125,-20.552,-20.832,-2.296,concentric,0,3.0,98808.0,307693.0,178885.0,292619.0,192779.0
2026-04-14 17:08:46.541543,93596,1609504020283687,1620253827,0.950624,-0.183488,0.080032,-6.335,-12.18,6.36125,-20.84,-20.448002,-5.576,concentric,0,3.0,98808.0,307693.0,178885.0,292619.0,192779.0
2026-04-14 17:08:46.544067,93597,1609504020292608,1620262524,0.950624,-0.183488,0.080032,-5.39875,-9.72125,3.7275,-20.84,-20.448002,-5.576,concentric,0,3.0,98808.0,307693.0,178885.0,292619.0,192779.0
2026-04-14 17:08:46.559151,93598,1609504020307099,1620277406,0.853024,-0.113216,0.013664,-4.1475,-8.04125,1.28625,-21.056002,-20.808,-6.104,concentric,0,3.0,98808.0,307693.0,178885.0,292619.0,192779.0
2026-04-14 17:08:46.569153,93599,1609504020316034,1620286074,0.853024,-0.113216,0.013664,-4.01625,-7.63875,-1.00625,-21.056002,-20.808,-6.104,concentric,0,3.0,98808.0,307693.0,178885.0,292619.0,192779.0
2026-04-14 17:08:46.580492,93600,1609504020330519,1620298932,0.899872,-0.163968,-0.02928,-5.5475,-8.11125,-2.93125,-20.2,-21.432001,-6.448,concentric,0,3.0,98808.0,307693.0,178885.0,292619.0,192779.0
2026-04-14 17:08:46.591856,93601,1609504020339751,1620309660,0.899872,-0.163968,0.037088,-5.90625,-8.26875,-4.41875,-20.2,-21.432001,-4.4,concentric,0,3.0,98808.0,307693.0,178885.0,292619.0,192779.0
2026-04-14 17:08:46.601753,93602,1609504020348708,1620318367,0.872544,-0.163968,0.037088,-5.88,-8.8375,-5.005,-20.328001,-21.088001,-6.096,concentric,0,3.0,98808.0,307693.0,178885.0,292619.0,192779.0
2026-04-14 17:08:46.640360,93613,1609504020363171,1620333281,0.84912,-0.095648,-0.007808,-4.26125,-9.730001,-5.1275,-20.104,-21.256,-6.6,concentric,0,3.0,94778.0,306048.0,173793.0,290996.0,187338.0
2026-04-14 17:08:46.643249,93614,1609504020372629,1620342133,0.84912,-0.095648,-0.007808,-5.46875,-10.01,-6.06375,-20.104,-21.256,-6.6,concentric,0,3.0,94778.0,306048.0,173793.0,290996.0,187338.0
2026-04-14 17:08:46.645742,93615,1609504020387177,1620357060,0.880352,-0.154208,-0.025376,-10.2025,-9.275,-6.57125,-20.048,-21.328001,-6.64,concentric,0,3.0,94778.0,306048.0,173793.0,290996.0,187338.0
2026-04-14 17:08:46.648252,93616,1609504020396107,1620365741,0.880352,-0.154208,-0.025376,-11.2875,-8.8025,-8.58375,-20.048,-21.328001,-6.64,concentric,0,3.0,94778.0,306048.0,173793.0,290996.0,187338.0
2026-04-14 17:08:46.659434,93617,1609504020405132,1620374466,0.931104,-0.134688,0.046848,-9.19625,-8.155,-9.86125,-19.976002,-21.376001,-6.688,concentric,0,3.0,94778.0,306048.0,173793.0,290996.0,187338.0
2026-04-14 17:08:46.670725,93618,1609504020419615,1620389462,0.931104,-0.134688,0.046848,-5.285,-8.81125,-10.08,-19.976002,-21.376001,-6.688,concentric,0,3.0,94778.0,306048.0,173793.0,290996.0,187338.0
2026-04-14 17:08:46.679467,93619,1609504020428518,1620398131,0.950624,-0.089792,0.105408,-2.94,-9.835,-11.042501,-20.240002,-21.376001,-8.032001,concentric,0,3.0,94778.0,306048.0,173793.0,290996.0,187338.0
2026-04-14 17:08:46.694704,93620,1609504020442970,1620412993,0.854976,-0.12688,-0.089792,-4.83,-10.4825,-10.8325,-20.048,-21.552002,-6.632,concentric,0,3.0,94778.0,306048.0,173793.0,290996.0,187338.0
2026-04-14 17:08:46.723867,93621,1609504020451903,1620421691,0.854976,-0.12688,-0.089792,-8.645,-10.89375,-10.185,-20.048,-21.552002,-6.632,concentric,0,3.0,94778.0,306048.0,173793.0,290996.0,187338.0
2026-04-14 17:08:46.826967,93632,1609504020466592,1620435024,0.85888,-0.113216,-0.007808,-9.61625,-11.0075,-8.82,-20.624,-21.368002,-5.76,concentric,0,3.0,88439.0,299828.0,165708.0,285177.0,178810.0
2026-04-14 17:08:46.829057,93633,1609504020475858,1620445786,0.85888,-0.113216,-0.007808,-8.015,-10.57875,-6.7725,-20.624,-21.368002,-5.76,concentric,0,3.0,88439.0,299828.0,165708.0,285177.0,178810.0
2026-04-14 17:08:46.831952,93634,1609504020484879,1620454469,0.96624,-0.103456,0.001952,-6.29125,-11.1825,-5.53,-20.68,-21.304,-6.504,concentric,0,3.0,88439.0,299828.0,165708.0,285177.0,178810.0
2026-04-14 17:08:46.834444,93635,1609504020499346,1620469346,0.96624,-0.103456,0.001952,-5.50375,-12.0225,-5.62625,-20.68,-21.304,-6.504,concentric,0,3.0,88439.0,299828.0,165708.0,285177.0,178810.0
2026-04-14 17:08:46.836969,93636,1609504020508361,1620478037,0.882304,-0.056608,-0.119072,-5.915,-13.04625,-5.8975,-19.92,-21.376001,-6.472,concentric,0,3.0,88439.0,299828.0,165708.0,285177.0,178810.0
2026-04-14 17:08:46.839328,93637,1609504020522832,1620492924,0.977952,-0.081984,0.050752,-6.335,-13.685,-6.32625,-19.640001,-21.304,-7.312,concentric,0,3.0,88439.0,299828.0,165708.0,285177.0,178810.0
2026-04-14 17:08:46.842010,93638,1609504020531765,1620501611,0.977952,-0.081984,0.050752,-6.3875,-13.58875,-6.25625,-19.640001,-21.304,-7.312,concentric,0,3.0,88439.0,299828.0,165708.0,285177.0,178810.0
2026-04-14 17:08:46.844475,93639,1609504020540678,1620510303,0.977952,-0.081984,-0.091744,-5.6525,-12.73125,-6.22125,-19.640001,-21.304,-7.312,concentric,0,3.0,88439.0,299828.0,165708.0,285177.0,178810.0
2026-04-14 17:08:46.847000,93640,1609504020555158,1620525156,0.948672,-0.142496,-0.091744,-5.635,-12.0225,-5.8275,-19.688002,-21.064001,-6.848001,concentric,0,3.0,88439.0,299828.0,165708.0,285177.0,178810.0
2026-04-14 17:08:46.876410,93651,1609504020564127,1620533834,0.968192,-0.103456,0.025376,-3.92875,-11.655,-4.1475,-19.648,-21.392,-7.168,concentric,0,3.0,86684.0,297012.0,163420.0,282607.0,176470.0
2026-04-14 17:08:46.881682,93652,1609504020578719,1620548837,0.968192,-0.103456,0.025376,-1.91625,-11.7075,-2.485,-19.648,-21.392,-7.168,concentric,0,3.0,86684.0,297012.0,163420.0,282607.0,176470.0
2026-04-14 17:08:46.881764,93653,1609504020587619,1620557525,0.935008,-0.040992,0.066368,-2.205,-12.136251,-1.1725,-19.336,-21.36,-7.128,concentric,0,3.0,86684.0,297012.0,163420.0,282607.0,176470.0
2026-04-14 17:08:46.884016,93654,1609504020602142,1620572425,0.8296,-0.042944,-0.074176,-4.34875,-12.73125,-0.91875,-19.392,-21.544,-6.976,concentric,0,3.0,86684.0,297012.0,163420.0,282607.0,176470.0
2026-04-14 17:08:46.886518,93655,1609504020611203,1620581145,0.8296,-0.042944,-0.074176,-6.69375,-12.775,-1.46125,-19.392,-21.544,-6.976,concentric,0,3.0,86684.0,297012.0,163420.0,282607.0,176470.0
2026-04-14 17:08:46.889361,93656,1609504020620125,1620589844,0.8296,-0.042944,-0.074176,-6.5275,-13.7725,-2.065,-19.392,-21.544,-6.976,concentric,0,3.0,86684.0,297012.0,163420.0,282607.0,176470.0
2026-04-14 17:08:46.891813,93657,1609504020634679,1620604725,0.899872,-0.103456,-0.064416,-3.815,-14.74375,-2.24,-19.552,-21.448002,-6.144,concentric,0,3.0,86684.0,297012.0,163420.0,282607.0,176470.0
2026-04-14 17:08:46.896845,93658,1609504020643689,1620613457,0.892064,-0.099552,0.017568,-0.98875,-15.295,-2.54625,-19.464,-21.296001,-6.016,concentric,0,3.0,86684.0,297012.0,163420.0,282607.0,176470.0
2026-04-14 17:08:46.910629,93659,1609504020658175,1620628343,0.892064,-0.099552,0.017568,1.6975,-15.81125,-2.205,-19.464,-21.296001,-6.016,concentric,0,3.0,86684.0,297012.0,163420.0,282607.0,176470.0
2026-04-14 17:08:46.940444,93670,1609504020667688,1620637065,0.778848,-0.060512,-0.103456,2.26625,-16.616251,-1.74125,-20.232,-20.832,-6.688,concentric,0,3.0,82122.0,291229.0,157518.0,277320.0,170206.0
2026-04-14 17:08:46.943188,93671,1609504020676777,1620645836,0.778848,-0.060512,-0.103456,1.3125,-17.28125,0.00875,-20.232,-20.832,-6.688,concentric,0,3.0,82122.0,291229.0,157518.0,277320.0,170206.0
2026-04-14 17:08:46.945729,93672,1609504020691306,1620660748,0.767136,-0.08784,-0.177632,-0.175,-18.85625,1.5575,-20.528002,-21.072,-8.04,concentric,0,3.0,82122.0,291229.0,157518.0,277320.0,170206.0
2026-04-14 17:08:46.951943,93673,1609504020700235,1620669520,0.767136,-0.08784,-0.177632,-0.67375,-21.18375,3.7975,-20.528002,-21.072,-8.04,concentric,0,3.0,82122.0,291229.0,157518.0,277320.0,170206.0
2026-04-14 17:08:46.967270,93674,1609504020714719,1620684480,0.743712,-0.0976,-0.035136,-2.415,-24.7275,5.17125,-19.472,-21.168001,-8.568001,concentric,0,3.0,82122.0,291229.0,157518.0,277320.0,170206.0
2026-04-14 17:08:46.978074,93675,1609504020723653,1620693191,0.743712,-0.08784,0.013664,-2.09125,-28.5775,7.0175,-19.592001,-21.168001,-8.8,concentric,0,3.0,82122.0,291229.0,157518.0,277320.0,170206.0
2026-04-14 17:08:46.990290,93676,1609504020738142,1620708039,0.743712,-0.08784,0.013664,0.1925,-31.94625,9.03875,-19.592001,-21.168001,-8.8,concentric,0,3.0,82122.0,291229.0,157518.0,277320.0,170206.0
2026-04-14 17:08:46.998073,93677,1609504020747050,1620716676,0.74176,-0.111264,-0.109312,1.23375,-34.965,10.395,-19.896002,-20.52,-7.576,concentric,0,3.0,82122.0,291229.0,157518.0,277320.0,170206.0
2026-04-14 17:08:47.007084,93678,1609504020756020,1620725377,0.74176,-0.111264,-0.109312,1.4175,-35.95375,11.87375,-19.896002,-20.52,-7.576,concentric,0,3.0,82122.0,291229.0,157518.0,277320.0,170206.0
2026-04-14 17:08:47.044515,93689,1609504020770707,1620740771,0.749568,-0.121024,-0.064416,0.49875,-37.1525,13.67625,-21.320002,-20.144001,-6.888001,concentric,0,3.0,63706.0,265039.0,132252.0,254651.0,144208.0
2026-04-14 17:08:47.046884,93690,1609504020779700,1620749497,0.749568,-0.121024,-0.064416,-2.40625,-38.885,13.615,-21.320002,-20.144001,-6.888001,concentric,0,3.0,63706.0,265039.0,132252.0,254651.0,144208.0
2026-04-14 17:08:47.049456,93691,1609504020794220,1620764378,0.747616,-0.173728,-0.05856,-4.1825,-41.22125,15.4525,-21.528002,-19.832,-7.576,concentric,0,3.0,63706.0,265039.0,132252.0,254651.0,144208.0
2026-04-14 17:08:47.054477,93692,1609504020803156,1620773070,0.671488,-0.154208,-0.124928,-3.605,-45.49125,18.92625,-20.832,-20.160002,-9.216001,concentric,0,3.0,63706.0,265039.0,132252.0,254651.0,144208.0
2026-04-14 17:08:47.091570,93693,1609504020817628,1620787935,0.671488,-0.154208,-0.124928,-3.52625,-50.75,20.8775,-20.832,-20.160002,-9.216001,concentric,0,3.0,63706.0,265039.0,132252.0,254651.0,144208.0
2026-04-14 17:08:47.117316,93694,1609504020826555,1620796605,0.675392,-0.12688,-0.20496,-2.8,-52.85,23.58125,-20.472,-19.616001,-9.816001,concentric,0,3.0,63706.0,265039.0,132252.0,254651.0,144208.0
2026-04-14 17:08:47.123985,93695,1609504020835499,1620805265,0.675392,-0.12688,-0.20496,-0.48125,-53.24375,25.095,-20.472,-19.616001,-9.816001,concentric,0,3.0,63706.0,265039.0,132252.0,254651.0,144208.0
2026-04-14 17:08:47.127010,93696,1609504020849979,1620820209,0.6832,-0.103456,-0.290848,1.75,-54.39,23.68625,-21.104,-19.664001,-9.184,concentric,0,3.0,63706.0,265039.0,132252.0,254651.0,144208.0
2026-04-14 17:08:47.128954,93697,1609504020858872,1620828885,0.6832,-0.103456,-0.290848,2.24875,-55.44,22.3475,-21.104,-19.664001,-9.184,concentric,0,3.0,63706.0,265039.0,132252.0,254651.0,144208.0
2026-04-14 17:08:47.159101,93708,1609504020873427,1620841819,0.825696,-0.095648,-0.249856,-6.83375,-56.00875,21.7,-21.208,-19.216002,-9.272,concentric,0,3.0,71558.0,251568.0,145375.0,244211.0,156393.0
2026-04-14 17:08:47.159595,93709,1609504020882656,1620852605,0.825696,-0.095648,-0.249856,-18.69875,-57.33,21.9625,-21.208,-19.216002,-9.272,concentric,0,3.0,71558.0,251568.0,145375.0,244211.0,156393.0
2026-04-14 17:08:47.161475,93710,1609504020891607,1620861310,0.845216,-0.124928,-0.031232,-21.70875,-56.6825,25.865,-21.088001,-19.320002,-10.6,concentric,0,3.0,71558.0,251568.0,145375.0,244211.0,156393.0
2026-04-14 17:08:47.169052,93711,1609504020906170,1620876243,0.737856,-0.257664,-0.30256,-29.1375,-52.8325,25.05125,-20.224,-18.808,-10.864,concentric,0,3.0,71558.0,251568.0,145375.0,244211.0,156393.0
2026-04-14 17:08:47.169438,93712,1609504020915164,1620884937,0.737856,-0.257664,-0.30256,-27.9825,-50.89875,28.7525,-20.224,-18.808,-10.864,concentric,0,3.0,71558.0,251568.0,145375.0,244211.0,156393.0
2026-04-14 17:08:47.185550,93713,1609504020929674,1620899801,0.817888,-0.201056,-0.222528,-22.12,-48.8425,29.4175,-20.528002,-18.688002,-10.992001,concentric,0,3.0,71558.0,251568.0,145375.0,244211.0,156393.0
2026-04-14 17:08:47.191596,93714,1609504020938573,1620908463,0.817888,-0.201056,-0.222528,-22.2425,-50.61,25.9875,-20.528002,-18.688002,-10.992001,concentric,0,3.0,71558.0,251568.0,145375.0,244211.0,156393.0
2026-04-14 17:08:47.204438,93715,1609504020953069,1620923418,0.833504,-0.122976,-0.240096,-16.52,-52.89375,22.60125,-20.160002,-18.384,-9.896001,concentric,0,3.0,71558.0,251568.0,145375.0,244211.0,156393.0
2026-04-14 17:08:47.214488,93716,1609504020962001,1620932083,0.833504,-0.122976,-0.240096,-15.30375,-52.955,20.85125,-20.160002,-18.384,-9.896001,concentric,0,3.0,71558.0,251568.0,145375.0,244211.0,156393.0
2026-04-14 17:08:47.241865,93727,1609504020971173,1620940846,0.837408,-0.245952,-0.32208,-21.0525,-50.89875,21.00875,-20.304,-18.232,-11.440001,concentric,0,3.0,87639.0,250952.0,164092.0,242358.0,176590.0
2026-04-14 17:08:47.244499,93728,1609504020985691,1620955730,0.747616,-0.244,-0.345504,-14.35,-43.995,21.18375,-20.192001,-17.800001,-12.000001,concentric,0,3.0,87639.0,250952.0,164092.0,242358.0,176590.0
2026-04-14 17:08:47.246951,93729,1609504020994706,1620964474,0.747616,-0.244,-0.345504,-0.4375,-41.2475,19.32875,-20.192001,-17.800001,-12.000001,concentric,0,3.0,87639.0,250952.0,164092.0,242358.0,176590.0
2026-04-14 17:08:47.262718,93730,1609504021009198,1620979363,0.81984,-0.154208,-0.240096,14.2275,-40.67875,17.10625,-20.384,-17.544,-12.480001,concentric,0,3.0,87639.0,250952.0,164092.0,242358.0,176590.0
2026-04-14 17:08:47.269356,93731,1609504021018133,1620988064,0.81984,-0.154208,-0.240096,20.57125,-41.86875,15.408751,-20.384,-17.544,-12.480001,concentric,0,3.0,87639.0,250952.0,164092.0,242358.0,176590.0
2026-04-14 17:08:47.285634,93732,1609504021032618,1621002975,0.89792,-0.152256,-0.230336,14.79625,-44.695,13.440001,-20.104,-17.184,-12.488001,concentric,0,3.0,87639.0,250952.0,164092.0,242358.0,176590.0
2026-04-14 17:08:47.294309,93733,1609504021041543,1621011638,0.89792,-0.152256,-0.230336,7.3675,-42.035,15.28625,-20.104,-17.184,-12.488001,concentric,0,3.0,87639.0,250952.0,164092.0,242358.0,176590.0
2026-04-14 17:08:47.303221,93734,1609504021050489,1621020282,0.774944,-0.119072,-0.173728,6.29125,-35.93625,14.971251,-20.208,-16.952002,-11.72,concentric,0,3.0,87639.0,250952.0,164092.0,242358.0,176590.0
2026-04-14 17:08:47.317911,93735,1609504021064968,1621035195,0.71248,-0.216672,-0.28304,3.3075,-32.795002,11.2175,-20.704,-16.92,-12.176001,concentric,0,3.0,87639.0,250952.0,164092.0,242358.0,176590.0
2026-04-14 17:08:47.347303,93746,1609504021073996,1621043945,0.71248,-0.216672,-0.28304,1.96875,-30.5725,12.5825,-20.704,-16.92,-12.176001,concentric,0,3.0,77770.0,236882.0,151035.0,230859.0,161001.0
2026-04-14 17:08:47.347728,93747,1609504021088521,1621056872,0.75152,-0.16592,-0.247904,-0.11375,-33.41625,13.335,-20.936,-16.424002,-12.728001,concentric,0,3.0,77770.0,236882.0,151035.0,230859.0,161001.0
2026-04-14 17:08:47.350450,93748,1609504021097817,1621067666,0.75152,-0.16592,-0.247904,2.47625,-32.76875,13.440001,-20.936,-16.424002,-12.728001,concentric,0,3.0,77770.0,236882.0,151035.0,230859.0,161001.0
2026-04-14 17:08:47.359604,93749,1609504021106793,1621076349,0.724192,-0.154208,-0.298656,5.88875,-31.77125,10.21125,-20.056002,-15.800001,-13.704,concentric,0,3.0,77770.0,236882.0,151035.0,230859.0,161001.0
2026-04-14 17:08:47.371970,93750,1609504021121313,1621091314,0.724192,-0.154208,-0.298656,2.75625,-33.0225,12.34625,-20.056002,-15.800001,-13.704,concentric,0,3.0,77770.0,236882.0,151035.0,230859.0,161001.0
2026-04-14 17:08:47.381994,93751,1609504021130245,1621099988,0.759328,-0.228384,-0.365024,2.8175,-31.29,10.85,-20.2,-15.68,-13.488001,concentric,0,3.0,77770.0,236882.0,151035.0,230859.0,161001.0
2026-04-14 17:08:47.396929,93752,1609504021144711,1621114902,0.759328,-0.138592,-0.347456,4.9,-29.61,6.88625,-20.2,-15.68,-13.488001,concentric,0,3.0,77770.0,236882.0,151035.0,230859.0,161001.0
2026-04-14 17:08:47.405718,93753,1609504021153670,1621123578,0.700768,-0.138592,-0.347456,-2.19625,-33.075,13.265,-19.768002,-15.032001,-14.296001,concentric,0,3.0,77770.0,236882.0,151035.0,230859.0,161001.0
