pc_time,serial_num,sensor_ts,host_ts,ax,ay,az,gx,gy,gz,mx,my,mz,phase,rpe,weight_kg,ppg_a,ppg_b,ppg_c,ppg_d,ppg_e
2026-04-14 17:08:47.520234,93764,1609504021168406,1621138886,0.769088,-0.339648,-0.40016,-8.19,-31.33375,16.51125,-20.208,-15.216001,-14.088,eccentric,0,3.0,90938.0,236752.0,167211.0,231339.0,179144.0
2026-04-14 17:08:47.521848,93765,1609504021177503,1621147604,0.769088,-0.339648,-0.40016,-15.2425,-33.635,12.53875,-20.208,-15.216001,-14.088,eccentric,0,3.0,90938.0,236752.0,167211.0,231339.0,179144.0
2026-04-14 17:08:47.526302,93766,1609504021186436,1621156290,0.95648,-0.267424,-0.306464,-12.67,-33.04875,12.8625,-21.496,-14.280001,-15.080001,eccentric,0,3.0,90938.0,236752.0,167211.0,231339.0,179144.0
2026-04-14 17:08:47.539924,93767,1609504021200997,1621171152,0.95648,-0.267424,-0.306464,-10.24625,-27.125,2.5725,-21.496,-14.280001,-15.080001,eccentric,0,3.0,90938.0,236752.0,167211.0,231339.0,179144.0
2026-04-14 17:08:47.542467,93768,1609504021209900,1621179914,0.866688,-0.277184,-0.304512,-9.948751,-31.21125,-0.76125,-21.184002,-14.496,-13.432001,eccentric,0,3.0,90938.0,236752.0,167211.0,231339.0,179144.0
2026-04-14 17:08:47.543920,93769,1609504021224366,1621192762,0.866688,-0.277184,-0.304512,-7.8925,-28.56,11.73375,-21.184002,-14.496,-13.432001,eccentric,0,3.0,90938.0,236752.0,167211.0,231339.0,179144.0
2026-04-14 17:08:47.545394,93770,1609504021233583,1621203522,0.882304,-0.288896,-0.3904,-9.073751,-26.7925,20.0375,-20.504002,-13.888001,-13.864,eccentric,0,3.0,90938.0,236752.0,167211.0,231339.0,179144.0
2026-04-14 17:08:47.545762,93771,1609504021242498,1621212178,0.882304,-0.288896,-0.3904,-20.6325,-24.21125,8.085,-20.504002,-13.888001,-13.864,eccentric,0,3.0,90938.0,236752.0,167211.0,231339.0,179144.0
2026-04-14 17:08:47.545867,93772,1609504021257031,1621227055,0.913536,-0.2928,-0.49776,-25.99625,-26.76625,4.13875,-20.488,-13.952001,-13.76,eccentric,0,3.0,90938.0,236752.0,167211.0,231339.0,179144.0
2026-04-14 17:08:47.545947,93773,1609504021265983,1621235865,0.876448,-0.324032,-0.521184,-26.880001,-20.92125,11.19125,-20.880001,-13.8,-13.192,eccentric,0,3.0,90938.0,236752.0,167211.0,231339.0,179144.0
2026-04-14 17:08:47.569023,93784,1609504021280581,1621250772,0.876448,-0.324032,-0.521184,-27.44875,-19.01375,9.975,-20.880001,-13.8,-13.192,eccentric,0,3.0,99489.0,242669.0,176812.0,235450.0,190295.0
2026-04-14 17:08:47.571493,93785,1609504021289540,1621259506,0.847168,-0.269376,-0.482144,-18.59375,-14.980001,7.665,-20.696001,-13.64,-14.952001,eccentric,0,3.0,99489.0,242669.0,176812.0,235450.0,190295.0
2026-04-14 17:08:47.573915,93786,1609504021304169,1621274478,0.847168,-0.269376,-0.482144,-5.355,-10.73625,5.7575,-20.696001,-13.64,-14.952001,eccentric,0,3.0,99489.0,242669.0,176812.0,235450.0,190295.0
2026-04-14 17:08:47.576538,93787,1609504021313105,1621283226,0.827648,-0.226432,-0.587552,3.885,-10.01875,1.155,-19.888,-12.952001,-15.544001,eccentric,0,3.0,99489.0,242669.0,176812.0,235450.0,190295.0
2026-04-14 17:08:47.579081,93788,1609504021322040,1621291906,0.827648,-0.226432,-0.587552,4.03375,-9.45,0.945,-19.888,-12.952001,-15.544001,eccentric,0,3.0,99489.0,242669.0,176812.0,235450.0,190295.0
2026-04-14 17:08:47.587816,93789,1609504021336579,1621306791,0.960384,-0.275232,-0.513376,-3.21125,-9.59875,1.5225,-19.28,-12.568001,-15.264001,eccentric,0,3.0,99489.0,242669.0,176812.0,235450.0,190295.0
2026-04-14 17:08:47.596548,93790,1609504021345502,1621315468,0.960384,-0.275232,-0.513376,-8.93375,-7.35,-0.9625,-19.28,-12.568001,-15.264001,eccentric,0,3.0,99489.0,242669.0,176812.0,235450.0,190295.0
2026-04-14 17:08:47.612896,93791,1609504021359989,1621328365,0.880352,-0.20496,-0.372832,-7.23625,-1.2075,-4.55875,-19.488,-12.464001,-16.560001,eccentric,0,3.0,99489.0,242669.0,176812.0,235450.0,190295.0
2026-04-14 17:08:47.643963,93802,1609504021369532,1621339100,0.80032,-0.183488,-0.38064,-3.17625,5.3375,-7.16625,-20.736,-11.976001,-13.248001,eccentric,0,3.0,75154.0,231247.0,145941.0,227057.0,156294.0
2026-04-14 17:08:47.646469,93803,1609504021378678,1621347822,0.80032,-0.183488,-0.38064,-1.2425,8.04125,-9.205,-20.736,-11.976001,-13.248001,eccentric,0,3.0,75154.0,231247.0,145941.0,227057.0,156294.0
2026-04-14 17:08:47.649049,93804,1609504021393181,1621362756,0.944768,-0.150304,-0.327936,-8.26,5.15375,-10.4125,-19.552,-12.232,-16.288,eccentric,0,3.0,75154.0,231247.0,145941.0,227057.0,156294.0
2026-04-14 17:08:47.652801,93805,1609504021402115,1621371443,0.944768,-0.150304,-0.327936,-22.72375,5.22375,-8.6975,-19.552,-12.232,-16.288,eccentric,0,3.0,75154.0,231247.0,145941.0,227057.0,156294.0
2026-04-14 17:08:47.667962,93806,1609504021416571,1621386325,1.018944,-0.27328,-0.343552,-29.925,11.165,-6.15125,-19.408,-12.112,-14.824,eccentric,0,3.0,75154.0,231247.0,145941.0,227057.0,156294.0
2026-04-14 17:08:47.675468,93807,1609504021425502,1621395034,1.018944,-0.27328,-0.343552,-32.76875,17.57875,-11.6725,-19.408,-12.112,-14.824,eccentric,0,3.0,75154.0,231247.0,145941.0,227057.0,156294.0
2026-04-14 17:08:47.691539,93808,1609504021439955,1621409892,0.931104,-0.226432,-0.320128,-30.345,22.47875,-17.955,-19.104,-11.992001,-15.728001,eccentric,0,3.0,75154.0,231247.0,145941.0,227057.0,156294.0
2026-04-14 17:08:47.701673,93809,1609504021448879,1621418662,0.851072,-0.191296,-0.404064,-30.2925,24.5875,-18.89125,-19.592001,-11.888001,-13.848001,eccentric,0,3.0,75154.0,231247.0,145941.0,227057.0,156294.0
2026-04-14 17:08:47.709165,93810,1609504021457805,1621427348,0.851072,-0.191296,-0.404064,-29.435,23.695,-15.9425,-19.592001,-11.888001,-13.848001,eccentric,0,3.0,75154.0,231247.0,145941.0,227057.0,156294.0
2026-04-14 17:08:47.744120,93821,1609504021472821,1621442523,0.874496,-0.124928,-0.558272,-32.2525,22.63625,-12.66125,-20.144001,-11.552001,-13.696001,eccentric,0,3.0,71144.0,227217.0,140900.0,223873.0,151343.0
2026-04-14 17:08:47.746677,93822,1609504021481849,1621451290,0.874496,-0.124928,-0.558272,-37.12625,24.64875,-12.97625,-20.144001,-11.552001,-13.696001,eccentric,0,3.0,71144.0,227217.0,140900.0,223873.0,151343.0
2026-04-14 17:08:47.749168,93823,1609504021496391,1621466183,0.876448,-0.080032,-0.441152,-46.13,29.42625,-16.09125,-20.368,-11.56,-13.168,eccentric,0,3.0,71144.0,227217.0,140900.0,223873.0,151343.0
2026-04-14 17:08:47.756692,93824,1609504021505416,1621474870,0.876448,-0.080032,-0.441152,-54.22375,33.29375,-21.02625,-20.368,-11.56,-13.168,eccentric,0,3.0,71144.0,227217.0,140900.0,223873.0,151343.0
2026-04-14 17:08:47.764487,93825,1609504021514363,1621483623,0.854976,-0.115168,-0.441152,-55.93875,37.37125,-23.79125,-19.632002,-12.208,-14.200001,eccentric,0,3.0,71144.0,227217.0,140900.0,223873.0,151343.0
2026-04-14 17:08:47.780196,93826,1609504021528844,1621498563,0.935008,-0.216672,-0.318176,-53.75125,40.11875,-25.6725,-19.408,-12.112,-13.336,eccentric,0,3.0,71144.0,227217.0,140900.0,223873.0,151343.0
2026-04-14 17:08:47.789180,93827,1609504021537772,1621507240,0.935008,-0.216672,-0.318176,-48.08125,40.495,-27.4925,-19.408,-12.112,-13.336,eccentric,0,3.0,71144.0,227217.0,140900.0,223873.0,151343.0
2026-04-14 17:08:47.826325,93828,1609504021552269,1621522134,0.827648,-0.173728,-0.562176,-38.2725,43.1025,-27.27375,-19.880001,-11.576,-12.176001,eccentric,0,3.0,71144.0,227217.0,140900.0,223873.0,151343.0
2026-04-14 17:08:47.851580,93829,1609504021561173,1621530790,0.827648,-0.173728,-0.562176,-24.57875,45.7275,-25.94375,-19.880001,-11.576,-12.176001,eccentric,0,3.0,71144.0,227217.0,140900.0,223873.0,151343.0
2026-04-14 17:08:47.889125,93841,1609504021575784,1621545791,0.892064,-0.152256,-0.386496,-13.37875,47.24125,-24.43875,-21.456001,-11.704,-11.112,eccentric,0,3.0,59034.0,222429.0,124530.0,219323.0,134568.0
2026-04-14 17:08:47.891554,93842,1609504021584699,1621554497,0.892064,-0.152256,-0.386496,-4.1125,51.49375,-22.79375,-21.456001,-11.704,-11.112,eccentric,0,3.0,59034.0,222429.0,124530.0,219323.0,134568.0
2026-04-14 17:08:47.894204,93843,1609504021593650,1621563185,0.860832,0.005856,-0.525088,1.3825,56.98,-23.03875,-21.696001,-11.648001,-11.896001,eccentric,0,3.0,59034.0,222429.0,124530.0,219323.0,134568.0
2026-04-14 17:08:47.896699,93844,1609504021608122,1621578069,0.88816,-0.017568,-0.376736,1.155,60.4275,-26.4775,-20.688002,-11.496,-11.200001,eccentric,0,3.0,59034.0,222429.0,124530.0,219323.0,134568.0
2026-04-14 17:08:47.899166,93845,1609504021617033,1621586755,0.88816,-0.017568,-0.376736,-5.94125,59.010002,-30.91375,-20.688002,-11.496,-11.200001,eccentric,0,3.0,59034.0,222429.0,124530.0,219323.0,134568.0
2026-04-14 17:08:47.901698,93846,1609504021631575,1621601665,0.974048,-0.187392,-0.445056,-19.678751,57.33,-37.87,-20.616001,-11.616,-11.392,eccentric,0,3.0,59034.0,222429.0,124530.0,219323.0,134568.0
2026-04-14 17:08:47.904214,93847,1609504021640561,1621610379,0.974048,-0.187392,-0.445056,-26.99375,56.81375,-44.17875,-20.616001,-11.616,-11.392,eccentric,0,3.0,59034.0,222429.0,124530.0,219323.0,134568.0
2026-04-14 17:08:47.908256,93848,1609504021655093,1621625271,1.032608,-0.10736,-0.271328,-28.74375,54.95875,-40.71375,-20.296001,-11.6,-10.872001,eccentric,0,3.0,59034.0,222429.0,124530.0,219323.0,134568.0
2026-04-14 17:08:47.917099,93849,1609504021664038,1621633931,1.032608,-0.10736,-0.271328,-15.0675,56.83125,-37.7125,-20.296001,-11.6,-10.872001,eccentric,0,3.0,59034.0,222429.0,124530.0,219323.0,134568.0
2026-04-14 17:08:47.949050,93860,1609504021673106,1621642714,1.030656,-0.027328,-0.32208,-9.00375,51.94,-47.43375,-20.064001,-12.112,-11.824,eccentric,0,3.0,52096.0,226954.0,115035.0,222713.0,125064.0
2026-04-14 17:08:47.951499,93861,1609504021687741,1621657611,1.030656,-0.027328,-0.32208,-3.22,46.71625,-45.45625,-20.064001,-12.112,-11.824,eccentric,0,3.0,52096.0,226954.0,115035.0,222713.0,125064.0
2026-04-14 17:08:47.953908,93862,1609504021696686,1621666326,1.056032,0.027328,-0.357216,-6.1075,43.91625,-40.41625,-20.344002,-11.960001,-10.944,eccentric,0,3.0,52096.0,226954.0,115035.0,222713.0,125064.0
2026-04-14 17:08:47.961684,93863,1609504021711244,1621681261,1.108736,-0.08784,-0.230336,-10.955,41.46625,-40.46,-19.880001,-11.936001,-11.280001,eccentric,0,3.0,52096.0,226954.0,115035.0,222713.0,125064.0
2026-04-14 17:08:47.971568,93864,1609504021720336,1621689949,1.108736,-0.08784,-0.230336,-14.44625,42.245,-42.51625,-19.880001,-11.936001,-11.280001,eccentric,0,3.0,52096.0,226954.0,115035.0,222713.0,125064.0
2026-04-14 17:08:47.981641,93865,1609504021729300,1621698701,1.10288,-0.064416,-0.388448,-8.18125,41.86875,-44.45875,-19.84,-12.408001,-11.568001,eccentric,0,3.0,52096.0,226954.0,115035.0,222713.0,125064.0
2026-04-14 17:08:47.995750,93866,1609504021743773,1621713558,1.10288,-0.064416,-0.388448,-3.2025,39.445,-40.53,-19.84,-12.408001,-11.568001,eccentric,0,3.0,52096.0,226954.0,115035.0,222713.0,125064.0
2026-04-14 17:08:48.005212,93867,1609504021752707,1621722223,1.167296,-0.046848,-0.3416,4.095,35.2975,-38.4125,-19.944,-12.240001,-9.976001,eccentric,0,3.0,52096.0,226954.0,115035.0,222713.0,125064.0
2026-04-14 17:08:48.018077,93868,1609504021767169,1621737191,1.167296,-0.046848,-0.3416,5.88875,31.70125,-36.3825,-19.944,-12.240001,-9.976001,eccentric,0,3.0,52096.0,226954.0,115035.0,222713.0,125064.0
2026-04-14 17:08:48.048907,93879,1609504021776235,1621746219,1.124352,0.0488,-0.304512,3.99,29.2775,-32.138752,-20.592001,-12.264001,-10.400001,eccentric,0,3.0,56748.0,244296.0,122330.0,237203.0,133972.0
2026-04-14 17:08:48.051435,93880,1609504021790788,1621761126,1.147776,-0.072224,-0.17568,-0.67375,26.90625,-29.56625,-19.480001,-12.400001,-12.112,eccentric,0,3.0,56748.0,244296.0,122330.0,237203.0,133972.0
2026-04-14 17:08:48.053914,93881,1609504021799710,1621769842,1.147776,-0.072224,-0.17568,-4.8475,23.14375,-30.33625,-19.480001,-12.400001,-12.112,eccentric,0,3.0,56748.0,244296.0,122330.0,237203.0,133972.0
2026-04-14 17:08:48.081949,93882,1609504021808734,1621778558,1.147776,-0.072224,-0.240096,0.74375,19.215,-24.42125,-19.480001,-12.400001,-12.112,eccentric,0,3.0,56748.0,244296.0,122330.0,237203.0,133972.0
2026-04-14 17:08:48.094423,93883,1609504021823238,1621793433,1.079456,0.011712,-0.240096,8.56625,15.60125,-20.7375,-19.784,-12.688001,-10.072001,eccentric,0,3.0,56748.0,244296.0,122330.0,237203.0,133972.0
2026-04-14 17:08:48.095038,93884,1609504021832106,1621802096,1.040416,0.025376,-0.36112,18.69,12.0925,-21.67375,-19.400002,-12.352,-10.304001,eccentric,0,3.0,56748.0,244296.0,122330.0,237203.0,133972.0
2026-04-14 17:08:48.096414,93885,1609504021846577,1621814928,1.040416,0.025376,-0.36112,19.075,9.8875,-21.93625,-19.400002,-12.352,-10.304001,eccentric,0,3.0,56748.0,244296.0,122330.0,237203.0,133972.0
2026-04-14 17:08:48.107596,93886,1609504021855754,1621825720,1.028704,0.128832,-0.154208,18.06875,8.89,-16.94875,-19.68,-12.504001,-9.904,eccentric,0,3.0,56748.0,244296.0,122330.0,237203.0,133972.0
2026-04-14 17:08:48.120587,93887,1609504021870246,1621838611,0.987712,-0.007808,-0.316224,16.38,8.96,-14.315001,-19.904001,-12.696001,-10.904,eccentric,0,3.0,56748.0,244296.0,122330.0,237203.0,133972.0
2026-04-14 17:08:48.150725,93898,1609504021879667,1621849465,0.987712,-0.007808,-0.316224,12.31125,10.01,-12.95,-19.904001,-12.696001,-10.904,eccentric,0,3.0,61646.0,256066.0,128908.0,247331.0,141298.0
2026-04-14 17:08:48.153034,93899,1609504021888678,1621858169,0.987712,-0.007808,-0.316224,8.89875,10.68375,-8.12,-19.904001,-12.696001,-10.904,eccentric,0,3.0,61646.0,256066.0,128908.0,247331.0,141298.0
2026-04-14 17:08:48.155722,93900,1609504021903172,1621873052,0.944768,-0.015616,-0.232288,11.34875,10.56125,-4.24375,-19.984001,-12.728001,-10.72,eccentric,0,3.0,61646.0,256066.0,128908.0,247331.0,141298.0
2026-04-14 17:08:48.162836,93901,1609504021912180,1621881798,0.872544,0.101504,-0.115168,20.3,11.13875,-2.275,-19.560001,-12.232,-10.688001,eccentric,0,3.0,61646.0,256066.0,128908.0,247331.0,141298.0
2026-04-14 17:08:48.200632,93902,1609504021926742,1621896705,0.872544,0.101504,-0.115168,24.87625,12.22375,-1.8375,-19.560001,-12.232,-10.688001,eccentric,0,3.0,61646.0,256066.0,128908.0,247331.0,141298.0
2026-04-14 17:08:48.216812,93903,1609504021935652,1621905382,0.915488,0.03904,-0.134688,20.25625,14.39375,-0.74375,-19.488,-12.984,-9.96,eccentric,0,3.0,61646.0,256066.0,128908.0,247331.0,141298.0
2026-04-14 17:08:48.219056,93904,1609504021944582,1621914042,0.915488,0.03904,-0.134688,14.1575,16.59,1.75875,-19.488,-12.984,-9.96,eccentric,0,3.0,61646.0,256066.0,128908.0,247331.0,141298.0
2026-04-14 17:08:48.221869,93905,1609504021959056,1621928925,0.84912,0.040992,-0.140544,11.725,16.80875,2.24,-20.928001,-12.296001,-8.816,eccentric,0,3.0,61646.0,256066.0,128908.0,247331.0,141298.0
2026-04-14 17:08:48.223974,93906,1609504021968008,1621937574,0.84912,0.040992,-0.140544,11.76875,16.47625,2.0475,-20.928001,-12.296001,-8.816,eccentric,0,3.0,61646.0,256066.0,128908.0,247331.0,141298.0
2026-04-14 17:08:48.257730,93917,1609504021982608,1621952626,0.866688,-0.001952,-0.18544,12.2675,15.68,1.58375,-21.320002,-11.992001,-8.056001,eccentric,0,3.0,64269.0,263187.0,132852.0,253404.0,145253.0
2026-04-14 17:08:48.260475,93918,1609504021991578,1621961324,0.85888,-0.017568,-0.18544,11.8475,14.2625,0.805,-21.192001,-12.512001,-7.672,eccentric,0,3.0,64269.0,263187.0,132852.0,253404.0,145253.0
2026-04-14 17:08:48.263283,93919,1609504022006079,1621976224,0.85888,-0.017568,-0.18544,10.85,13.51,0.91875,-21.192001,-12.512001,-7.672,eccentric,0,3.0,64269.0,263187.0,132852.0,253404.0,145253.0
2026-04-14 17:08:48.266867,93920,1609504022015123,1621984928,0.827648,0.037088,-0.179584,11.64625,12.71375,1.56625,-19.872002,-12.584001,-10.472,eccentric,0,3.0,64269.0,263187.0,132852.0,253404.0,145253.0
2026-04-14 17:08:48.273963,93921,1609504022024101,1621993635,0.827648,0.037088,-0.179584,10.85,12.15375,-0.0175,-19.872002,-12.584001,-10.472,eccentric,0,3.0,64269.0,263187.0,132852.0,253404.0,145253.0
2026-04-14 17:08:48.294212,93922,1609504022038582,1622008580,0.935008,-0.001952,-0.148352,9.02125,11.01625,-1.02375,-20.584002,-12.408001,-9.328,eccentric,0,3.0,64269.0,263187.0,132852.0,253404.0,145253.0
2026-04-14 17:08:48.301102,93923,1609504022047488,1622017254,0.935008,-0.001952,-0.148352,7.30625,9.3275,-0.95375,-20.584002,-12.408001,-9.328,eccentric,0,3.0,64269.0,263187.0,132852.0,253404.0,145253.0
2026-04-14 17:08:48.314423,93924,1609504022061983,1622032123,0.93696,-0.037088,-0.1464,5.69625,8.198751,-0.86625,-19.808,-12.136001,-10.216001,eccentric,0,3.0,64269.0,263187.0,132852.0,253404.0,145253.0
2026-04-14 17:08:48.323334,93925,1609504022070927,1622040794,0.913536,-0.011712,-0.181536,7.2275,7.63,-0.00875,-19.808,-12.120001,-9.96,eccentric,0,3.0,64269.0,263187.0,132852.0,253404.0,145253.0
2026-04-14 17:08:48.352878,93936,1609504022085451,1622055768,0.913536,-0.011712,-0.181536,7.665,6.9475,0.6825,-20.392,-12.120001,-9.96,eccentric,0,3.0,63986.0,262543.0,132463.0,252560.0,144792.0
2026-04-14 17:08:48.355365,93937,1609504022094408,1622064544,0.993568,0.007808,0.01952,9.9225,5.60875,2.275,-20.648,-12.368001,-9.360001,eccentric,0,3.0,63986.0,262543.0,132463.0,252560.0,144792.0
2026-04-14 17:08:48.357750,93938,1609504022103354,1622073230,0.993568,0.007808,0.01952,7.04375,3.885,2.52875,-20.648,-12.368001,-9.360001,eccentric,0,3.0,63986.0,262543.0,132463.0,252560.0,144792.0
2026-04-14 17:08:48.369020,93939,1609504022117912,1622088120,1.022848,-0.066368,-0.259616,3.885,1.16375,3.71,-20.84,-12.248,-9.648001,eccentric,0,3.0,63986.0,262543.0,132463.0,252560.0,144792.0
2026-04-14 17:08:48.379527,93940,1609504022126900,1622096819,1.022848,-0.066368,-0.259616,3.15875,-1.6975,4.59375,-20.84,-12.248,-9.648001,eccentric,0,3.0,63986.0,262543.0,132463.0,252560.0,144792.0
2026-04-14 17:08:48.395300,93941,1609504022141406,1622111742,0.999424,-0.0488,-0.26352,4.34875,-4.165,5.81,-19.880001,-12.192,-9.488001,eccentric,0,3.0,63986.0,262543.0,132463.0,252560.0,144792.0
2026-04-14 17:08:48.402122,93942,1609504022150356,1622120449,0.999424,-0.0488,-0.26352,5.18875,-5.81875,7.4375,-19.880001,-12.192,-9.488001,eccentric,0,3.0,63986.0,262543.0,132463.0,252560.0,144792.0
2026-04-14 17:08:48.414327,93943,1609504022164869,1622133286,1.057984,-0.074176,-0.216672,5.74875,-7.63,9.14375,-21.032001,-12.096001,-7.448,eccentric,0,3.0,63986.0,262543.0,132463.0,252560.0,144792.0
2026-04-14 17:08:48.456706,93954,1609504022174649,1622144270,1.003328,-0.007808,-0.115168,5.495,-10.15,9.7825,-19.960001,-12.184001,-11.000001,eccentric,0,3.0,63960.0,260650.0,132356.0,251014.0,144679.0
2026-04-14 17:08:48.458971,93955,1609504022183676,1622153090,1.003328,-0.007808,-0.115168,5.635,-11.75125,11.55,-19.960001,-12.184001,-11.000001,eccentric,0,3.0,63960.0,260650.0,132356.0,251014.0,144679.0
2026-04-14 17:08:48.461770,93956,1609504022198223,1622168054,1.077504,-0.050752,-0.220576,7.245,-14.49,10.815,-19.912,-12.472,-12.424001,eccentric,0,3.0,63960.0,260650.0,132356.0,251014.0,144679.0
2026-04-14 17:08:48.464512,93957,1609504022207174,1622176726,1.077504,-0.050752,-0.220576,7.65625,-16.835001,11.62,-19.912,-12.472,-12.424001,eccentric,0,3.0,63960.0,260650.0,132356.0,251014.0,144679.0
2026-04-14 17:08:48.469198,93958,1609504022216126,1622185433,1.114592,-0.115168,-0.230336,7.09625,-19.46875,13.71125,-19.68,-12.032001,-11.064,eccentric,0,3.0,63960.0,260650.0,132356.0,251014.0,144679.0
2026-04-14 17:08:48.486392,93959,1609504022230643,1622200352,1.114592,-0.115168,-0.230336,4.7075,-23.8525,14.1575,-19.68,-12.032001,-11.064,eccentric,0,3.0,63960.0,260650.0,132356.0,251014.0,144679.0
2026-04-14 17:08:48.490179,93960,1609504022239624,1622209035,1.145824,-0.042944,-0.015616,3.1325,-28.105,16.1875,-20.072,-12.200001,-11.384001,eccentric,0,3.0,63960.0,260650.0,132356.0,251014.0,144679.0
2026-04-14 17:08:48.506041,93961,1609504022254104,1622223910,1.194624,-0.06832,-0.122976,0.41125,-30.66875,16.80875,-20.624,-12.352,-10.128,eccentric,0,3.0,63960.0,260650.0,132356.0,251014.0,144679.0
2026-04-14 17:08:48.515022,93962,1609504022263100,1622232592,1.194624,-0.06832,-0.122976,-7.06125,-33.74,20.43125,-20.624,-12.352,-10.128,eccentric,0,3.0,63960.0,260650.0,132356.0,251014.0,144679.0
2026-04-14 17:08:48.594326,93973,1609504022277910,1622247517,1.218048,-0.062464,-0.1464,-8.0325,-33.41625,25.92625,-19.992,-12.176001,-11.272,eccentric,0,3.0,63423.0,249850.0,132294.0,242037.0,144338.0
2026-04-14 17:08:48.596825,93974,1609504022286881,1622256304,1.218048,-0.062464,-0.1464,-8.225,-32.83,21.07,-19.992,-12.176001,-11.272,eccentric,0,3.0,63423.0,249850.0,132294.0,242037.0,144338.0
2026-04-14 17:08:48.599346,93975,1609504022295812,1622264985,1.13216,-0.093696,-0.124928,-10.31625,-32.9525,19.6,-20.960001,-11.84,-10.400001,eccentric,0,3.0,63423.0,249850.0,132294.0,242037.0,144338.0
2026-04-14 17:08:48.601853,93976,1609504022310274,1622279829,1.13216,-0.093696,-0.124928,-13.5275,-32.8125,20.95625,-20.960001,-11.84,-10.400001,eccentric,0,3.0,63423.0,249850.0,132294.0,242037.0,144338.0
2026-04-14 17:08:48.603867,93977,1609504022319193,1622288572,1.057984,-0.144448,-0.324032,-14.3325,-33.8275,23.10875,-20.608002,-11.992001,-10.424001,eccentric,0,3.0,63423.0,249850.0,132294.0,242037.0,144338.0
2026-04-14 17:08:48.606450,93978,1609504022333671,1622303422,1.22976,-0.189344,-0.441152,-13.09875,-34.2475,26.39,-20.616001,-11.848001,-8.112,eccentric,0,3.0,63423.0,249850.0,132294.0,242037.0,144338.0
2026-04-14 17:08:48.609349,93979,1609504022342595,1622312104,1.22976,-0.189344,-0.441152,-10.05375,-34.895,31.185,-20.616001,-11.848001,-8.112,eccentric,0,3.0,63423.0,249850.0,132294.0,242037.0,144338.0
2026-04-14 17:08:48.611865,93980,1609504022357168,1622327018,1.196576,-0.06832,-0.206912,-6.615,-32.0775,40.78375,-21.088001,-11.984,-9.112,eccentric,0,3.0,63423.0,249850.0,132294.0,242037.0,144338.0
2026-04-14 17:08:48.618073,93981,1609504022366133,1622335792,1.196576,-0.06832,-0.206912,-8.0325,-25.52375,39.1475,-21.088001,-11.984,-9.112,eccentric,0,3.0,63423.0,249850.0,132294.0,242037.0,144338.0
2026-04-14 17:08:48.649468,93992,1609504022375129,1622344520,1.126304,-0.115168,-0.240096,-10.9725,-25.54125,33.46,-19.608002,-12.256001,-11.240001,eccentric,0,3.0,65288.0,244578.0,134787.0,236688.0,146641.0
2026-04-14 17:08:48.651787,93993,1609504022389692,1622359485,1.126304,-0.115168,-0.240096,-15.627501,-28.595,31.64875,-19.608002,-12.256001,-11.240001,eccentric,0,3.0,65288.0,244578.0,134787.0,236688.0,146641.0
2026-04-14 17:08:48.654499,93994,1609504022398634,1622368249,1.089216,-0.163968,-0.474336,-18.41875,-29.61875,36.19,-21.032001,-11.912001,-10.448001,eccentric,0,3.0,65288.0,244578.0,134787.0,236688.0,146641.0
2026-04-14 17:08:48.666986,93995,1609504022413139,1622383137,1.1224,-0.101504,-0.480192,-13.8075,-30.24,38.115,-18.984001,-12.176001,-11.736001,eccentric,0,3.0,65288.0,244578.0,134787.0,236688.0,146641.0
2026-04-14 17:08:48.673204,93996,1609504022422132,1622391816,1.1224,-0.101504,-0.480192,-8.02375,-30.3275,37.26625,-19.768002,-12.176001,-11.736001,eccentric,0,3.0,65288.0,244578.0,134787.0,236688.0,146641.0
2026-04-14 17:08:48.683859,93997,1609504022431108,1622400506,1.1224,-0.101504,-0.480192,-1.82875,-26.94125,37.28375,-19.768002,-12.176001,-11.736001,eccentric,0,3.0,65288.0,244578.0,134787.0,236688.0,146641.0
2026-04-14 17:08:48.696860,93998,1609504022445651,1622415365,1.079456,-0.023424,-0.415776,1.295,-24.28125,34.53625,-19.76,-12.120001,-11.568001,eccentric,0,3.0,65288.0,244578.0,134787.0,236688.0,146641.0
2026-04-14 17:08:48.728151,93999,1609504022454606,1622424148,1.079456,-0.128832,-0.144448,6.02875,-22.505,28.79625,-20.92,-12.456,-9.936001,eccentric,0,3.0,65288.0,244578.0,134787.0,236688.0,146641.0
2026-04-14 17:08:48.730771,94000,1609504022469078,1622439025,1.079456,-0.128832,-0.144448,6.4575,-20.4225,21.735,-20.92,-12.456,-9.936001,eccentric,0,3.0,65288.0,244578.0,134787.0,236688.0,146641.0
2026-04-14 17:08:48.757842,94011,1609504022478520,1622448052,1.007232,-0.0488,-0.220576,8.225,-16.96625,19.69625,-20.376001,-12.160001,-10.552,eccentric,0,3.0,50357.0,226253.0,112533.0,221968.0,122266.0
2026-04-14 17:08:48.760535,94012,1609504022493128,1622462995,1.007232,0.013664,-0.142496,12.2675,-14.735,19.678751,-20.376001,-12.160001,-10.552,eccentric,0,3.0,50357.0,226253.0,112533.0,221968.0,122266.0
2026-04-14 17:08:48.763234,94013,1609504022502164,1622471763,1.03456,0.013664,-0.142496,10.01,-12.32875,16.12625,-20.496,-12.6,-10.912001,eccentric,0,3.0,50357.0,226253.0,112533.0,221968.0,122266.0
2026-04-14 17:08:48.768245,94014,1609504022511094,1622480466,1.03456,0.013664,-0.142496,5.32,-8.46125,13.895,-20.496,-12.6,-10.912001,eccentric,0,3.0,50357.0,226253.0,112533.0,221968.0,122266.0
2026-04-14 17:08:48.777454,94015,1609504022525660,1622495432,1.01504,-0.081984,-0.257664,-2.09125,-5.04,11.78625,-20.6,-12.768001,-10.176001,eccentric,0,3.0,50357.0,226253.0,112533.0,221968.0,122266.0
2026-04-14 17:08:48.786659,94016,1609504022534627,1622504108,0.870592,-0.10736,-0.335744,-5.80125,-2.52875,10.00125,-19.888,-13.456,-11.392,eccentric,0,3.0,50357.0,226253.0,112533.0,221968.0,122266.0
2026-04-14 17:08:48.799398,94017,1609504022549096,1622518927,0.870592,-0.10736,-0.335744,-8.9075,-1.295,7.9625,-19.888,-13.456,-11.392,eccentric,0,3.0,50357.0,226253.0,112533.0,221968.0,122266.0
2026-04-14 17:08:48.810606,94018,1609504022558030,1622527614,0.9272,-0.093696,-0.212768,-7.0175,-0.58625,7.28,-20.136002,-13.72,-10.72,eccentric,0,3.0,50357.0,226253.0,112533.0,221968.0,122266.0
2026-04-14 17:08:48.818121,94019,1609504022566961,1622536282,0.9272,-0.093696,-0.212768,-5.6,0.875,5.5825,-20.136002,-13.72,-10.72,eccentric,0,3.0,50357.0,226253.0,112533.0,221968.0,122266.0
2026-04-14 17:08:48.850685,94030,1609504022581498,1622551213,0.95648,-0.12688,-0.316224,-4.865,2.35375,2.82625,-21.160002,-13.816001,-9.792001,eccentric,0,3.0,51290.0,229441.0,113975.0,224578.0,124077.0
2026-04-14 17:08:48.852839,94031,1609504022590480,1622559991,0.95648,-0.12688,-0.316224,-5.9675,5.565,0.4375,-21.160002,-13.816001,-9.792001,eccentric,0,3.0,51290.0,229441.0,113975.0,224578.0,124077.0
2026-04-14 17:08:48.856931,94032,1609504022604973,1622574904,0.892064,-0.095648,-0.1952,-7.91,8.39125,-4.585,-21.032001,-14.584001,-9.624001,eccentric,0,3.0,51290.0,229441.0,113975.0,224578.0,124077.0
2026-04-14 17:08:48.866465,94033,1609504022613940,1622583625,0.892064,-0.183488,-0.210816,-1.2775,10.4125,-11.480001,-21.032001,-14.584001,-9.624001,eccentric,0,3.0,51290.0,229441.0,113975.0,224578.0,124077.0
2026-04-14 17:08:48.880551,94034,1609504022628455,1622598514,0.870592,-0.183488,-0.210816,1.49625,9.4675,-17.115,-19.648,-14.976001,-8.04,eccentric,0,3.0,51290.0,229441.0,113975.0,224578.0,124077.0
2026-04-14 17:08:48.890286,94035,1609504022637384,1622607187,0.806176,-0.15616,-0.052704,2.47625,9.47625,-9.835,-19.744001,-15.288001,-9.904,eccentric,0,3.0,51290.0,229441.0,113975.0,224578.0,124077.0
2026-04-14 17:08:48.896966,94036,1609504022646316,1622615888,0.806176,-0.15616,-0.052704,6.9825,9.8525,-6.545,-19.744001,-15.288001,-9.904,eccentric,0,3.0,51290.0,229441.0,113975.0,224578.0,124077.0
2026-04-14 17:08:48.929453,94037,1609504022660832,1622630809,0.759328,-0.089792,-0.261568,12.6175,11.7425,-6.92125,-20.432001,-15.312,-10.0,eccentric,0,3.0,51290.0,229441.0,113975.0,224578.0,124077.0
2026-04-14 17:08:48.954516,94038,1609504022669733,1622639471,0.759328,-0.089792,-0.261568,11.01625,16.31875,-13.76375,-20.432001,-15.312,-10.0,eccentric,0,3.0,51290.0,229441.0,113975.0,224578.0,124077.0
2026-04-14 17:08:49.012739,94049,1609504022684229,1622654404,0.767136,-0.040992,-0.206912,5.6525,18.87375,-20.62375,-20.52,-16.224,-9.576,eccentric,0,3.0,52525.0,238812.0,115590.0,232788.0,125933.0
2026-04-14 17:08:49.013876,94050,1609504022693174,1622663104,0.767136,-0.040992,-0.206912,2.03,21.13125,-23.9925,-20.52,-16.224,-9.576,eccentric,0,3.0,52525.0,238812.0,115590.0,232788.0,125933.0
2026-04-14 17:08:49.016352,94051,1609504022707656,1622677989,0.83936,-0.10736,-0.091744,0.4025,18.62875,-28.13125,-20.616001,-16.376001,-7.848001,eccentric,0,3.0,52525.0,238812.0,115590.0,232788.0,125933.0
2026-04-14 17:08:49.018895,94052,1609504022716568,1622686649,0.732,-0.148352,-0.343552,-1.46125,19.32875,-19.285,-20.368,-16.976002,-10.784,eccentric,0,3.0,52525.0,238812.0,115590.0,232788.0,125933.0
2026-04-14 17:08:49.023929,94053,1609504022725476,1622695309,0.732,-0.148352,-0.343552,-2.2575,20.41375,-17.00125,-20.368,-16.976002,-10.784,eccentric,0,3.0,52525.0,238812.0,115590.0,232788.0,125933.0
2026-04-14 17:08:49.024222,94054,1609504022739930,1622710207,0.75152,-0.10736,-0.325984,2.87,19.005,-22.33,-20.240002,-16.896,-7.960001,eccentric,0,3.0,52525.0,238812.0,115590.0,232788.0,125933.0
2026-04-14 17:08:49.026357,94055,1609504022748873,1622718970,0.75152,-0.10736,-0.325984,8.1025,17.5175,-21.1575,-20.240002,-16.896,-7.960001,eccentric,0,3.0,52525.0,238812.0,115590.0,232788.0,125933.0
2026-04-14 17:08:49.029022,94056,1609504022763393,1622731840,0.778848,-0.046848,-0.025376,5.57375,16.98375,-19.74,-20.808,-17.44,-7.744,eccentric,0,3.0,52525.0,238812.0,115590.0,232788.0,125933.0
2026-04-14 17:08:49.031472,94057,1609504022772694,1622742597,0.778848,-0.046848,-0.025376,4.3925,17.4825,-20.02875,-20.808,-17.44,-7.744,eccentric,0,3.0,52525.0,238812.0,115590.0,232788.0,125933.0
2026-04-14 17:08:49.058879,94068,1609504022787290,1622755877,0.821792,-0.150304,0.013664,-1.54875,20.53625,-16.38,-21.480001,-17.904001,-8.992001,eccentric,0,3.0,62282.0,268309.0,130105.0,257123.0,141512.0
2026-04-14 17:08:49.062451,94069,1609504022796822,1622766675,0.80032,-0.134688,-0.173728,-5.25875,25.06,-10.7275,-20.296001,-17.672,-8.712001,eccentric,0,3.0,62282.0,268309.0,130105.0,257123.0,141512.0
2026-04-14 17:08:49.065256,94070,1609504022805782,1622775392,0.80032,-0.134688,-0.173728,2.49375,26.60875,-11.12125,-20.296001,-17.672,-8.712001,eccentric,0,3.0,62282.0,268309.0,130105.0,257123.0,141512.0
2026-04-14 17:08:49.076912,94071,1609504022820251,1622790324,0.808128,-0.081984,-0.037088,13.09,26.145,-13.3,-20.320002,-18.544,-8.368,eccentric,0,3.0,62282.0,268309.0,130105.0,257123.0,141512.0
2026-04-14 17:08:49.081871,94072,1609504022829170,1622799002,0.808128,-0.081984,-0.037088,17.07125,25.62,-11.5675,-20.320002,-18.544,-8.368,eccentric,0,3.0,62282.0,268309.0,130105.0,257123.0,141512.0
2026-04-14 17:08:49.098214,94073,1609504022843670,1622813866,0.872544,-0.150304,-0.005856,16.178751,26.36375,-7.67375,-19.856,-19.064001,-9.088,eccentric,0,3.0,62282.0,268309.0,130105.0,257123.0,141512.0
2026-04-14 17:08:49.104478,94074,1609504022852629,1622822581,0.872544,-0.150304,-0.005856,4.0775,28.98875,-6.60625,-19.856,-19.064001,-9.088,eccentric,0,3.0,62282.0,268309.0,130105.0,257123.0,141512.0
2026-04-14 17:08:49.113227,94075,1609504022861554,1622831258,0.788608,-0.085888,0.076128,-0.735,32.68125,-3.73625,-20.584002,-18.68,-8.360001,eccentric,0,3.0,62282.0,268309.0,130105.0,257123.0,141512.0
2026-04-14 17:08:49.152875,94086,1609504022876037,1622846099,0.718336,-0.23424,-0.03904,2.24,37.52875,-8.6625,-18.536001,-19.344002,-9.264001,eccentric,0,3.0,86539.0,291350.0,163282.0,276424.0,176327.0
2026-04-14 17:08:49.155434,94087,1609504022885033,1622854816,0.718336,-0.23424,-0.03904,0.97125,38.9025,-11.75125,-20.400002,-19.344002,-9.264001,eccentric,0,3.0,86539.0,291350.0,163282.0,276424.0,176327.0
2026-04-14 17:08:49.157778,94088,1609504022899525,1622869792,0.81008,-0.191296,0.060512,7.44625,36.75,-9.4325,-20.864,-19.448002,-7.512001,eccentric,0,3.0,86539.0,291350.0,163282.0,276424.0,176327.0
2026-04-14 17:08:49.160372,94089,1609504022908423,1622878479,0.81008,-0.191296,0.060512,9.80875,35.58625,-9.8875,-20.864,-19.448002,-7.512001,eccentric,0,3.0,86539.0,291350.0,163282.0,276424.0,176327.0
2026-04-14 17:08:49.175331,94090,1609504022922930,1622891309,0.784704,-0.109312,-0.042944,8.04125,35.63,-4.7075,-20.968,-19.52,-7.032001,eccentric,0,3.0,86539.0,291350.0,163282.0,276424.0,176327.0
2026-04-14 17:08:49.184132,94091,1609504022932138,1622902064,0.784704,-0.109312,-0.042944,-1.2775,37.49375,-11.48875,-20.968,-19.52,-7.032001,eccentric,0,3.0,86539.0,291350.0,163282.0,276424.0,176327.0
2026-04-14 17:08:49.194140,94092,1609504022941126,1622910746,0.661728,-0.148352,-0.162016,-8.8375,38.0275,-16.065,-19.944,-20.048,-8.232,eccentric,0,3.0,86539.0,291350.0,163282.0,276424.0,176327.0
2026-04-14 17:08:49.206754,94093,1609504022955619,1622925646,0.661728,-0.148352,-0.162016,-4.99625,35.2975,-19.32,-19.944,-20.048,-8.232,eccentric,0,3.0,86539.0,291350.0,163282.0,276424.0,176327.0
2026-04-14 17:08:49.215487,94094,1609504022964572,1622934329,0.72224,-0.294752,-0.121024,-0.28875,30.66875,-25.83875,-20.872002,-20.2,-9.624001,eccentric,0,3.0,86539.0,291350.0,163282.0,276424.0,176327.0
2026-04-14 17:08:49.251638,94105,1609504022979252,1622949215,0.716384,-0.072224,-0.091744,6.55375,26.66125,-20.44875,-20.04,-20.536001,-7.968,eccentric,0,3.0,106383.0,300351.0,187145.0,284012.0,202090.0
2026-04-14 17:08:49.254213,94106,1609504022988287,1622958009,0.716384,-0.072224,-0.091744,9.6425,25.8825,-18.29625,-20.04,-20.536001,-7.968,eccentric,0,3.0,106383.0,300351.0,187145.0,284012.0,202090.0
2026-04-14 17:08:49.258083,94107,1609504022997189,1622966716,0.757376,-0.122976,0.005856,0.90125,30.42375,-21.6825,-19.776001,-20.952002,-7.512001,eccentric,0,3.0,106383.0,300351.0,187145.0,284012.0,202090.0
2026-04-14 17:08:49.265347,94108,1609504023011701,1622981610,0.757376,-0.122976,0.005856,-6.60625,34.545002,-22.8025,-19.776001,-20.952002,-7.512001,eccentric,0,3.0,106383.0,300351.0,187145.0,284012.0,202090.0
2026-04-14 17:08:49.272620,94109,1609504023020657,1622990304,0.609024,-0.189344,-0.245952,-7.525,35.3675,-25.5675,-19.400002,-20.824001,-7.336,eccentric,0,3.0,106383.0,300351.0,187145.0,284012.0,202090.0
2026-04-14 17:08:49.297918,94110,1609504023035144,1623005204,0.609024,-0.189344,-0.245952,-3.36,31.692501,-25.55875,-19.400002,-20.824001,-7.336,eccentric,0,3.0,106383.0,300351.0,187145.0,284012.0,202090.0
2026-04-14 17:08:49.322976,94111,1609504023044067,1623013885,0.732,-0.242048,-0.007808,-0.11375,26.8625,-23.87,-19.728,-20.808,-4.536,eccentric,0,3.0,106383.0,300351.0,187145.0,284012.0,202090.0
2026-04-14 17:08:49.338211,94112,1609504023058536,1623028758,0.753472,-0.025376,-0.01952,5.425,25.31375,-18.69,-20.496,-21.424002,-6.704001,eccentric,0,3.0,106383.0,300351.0,187145.0,284012.0,202090.0
2026-04-14 17:08:49.340422,94113,1609504023067447,1623037412,0.753472,-0.025376,-0.01952,10.6225,26.66125,-16.66875,-20.496,-21.424002,-6.704001,eccentric,0,3.0,106383.0,300351.0,187145.0,284012.0,202090.0
2026-04-14 17:08:49.365621,94114,1609504023076354,1623046091,0.753472,-0.025376,-0.01952,0.9625,28.44625,-19.41625,-20.496,-21.424002,-6.704001,eccentric,0,3.0,106383.0,300351.0,187145.0,284012.0,202090.0
2026-04-14 17:08:49.405434,94125,1609504023090863,1623060997,0.815936,-0.212768,-0.066368,0.84,29.25125,-20.78125,-19.864,-21.688002,-7.608,eccentric,0,3.0,112563.0,306709.0,193906.0,289879.0,209241.0
2026-04-14 17:08:49.407750,94126,1609504023099803,1623069666,0.726144,-0.128832,-0.163968,8.58375,25.935,-22.4,-19.288,-21.904001,-7.08,eccentric,0,3.0,112563.0,306709.0,193906.0,289879.0,209241.0
2026-04-14 17:08:49.410779,94127,1609504023114278,1623084568,0.726144,-0.128832,-0.163968,11.57625,20.1075,-20.93,-19.288,-21.904001,-7.08,eccentric,0,3.0,112563.0,306709.0,193906.0,289879.0,209241.0
2026-04-14 17:08:49.412680,94128,1609504023123390,1623093266,0.79056,-0.187392,-0.064416,7.91,14.3325,-18.0425,-18.848001,-22.048,-7.08,eccentric,0,3.0,112563.0,306709.0,193906.0,289879.0,209241.0
2026-04-14 17:08:49.415241,94129,1609504023137881,1623108161,0.853024,-0.085888,0.040992,5.0225,10.87625,-14.07,-19.04,-21.792002,-4.872,eccentric,0,3.0,112563.0,306709.0,193906.0,289879.0,209241.0
2026-04-14 17:08:49.418253,94130,1609504023146805,1623116841,0.853024,-0.085888,0.040992,5.95875,10.61375,-10.57875,-19.04,-21.792002,-4.872,eccentric,0,3.0,112563.0,306709.0,193906.0,289879.0,209241.0
2026-04-14 17:08:49.420746,94131,1609504023155803,1623125565,0.853024,-0.085888,0.040992,2.1525,12.74875,-10.045,-19.04,-21.792002,-4.872,eccentric,0,3.0,112563.0,306709.0,193906.0,289879.0,209241.0
2026-04-14 17:08:49.423297,94132,1609504023170318,1623140499,0.759328,-0.16592,-0.160064,3.89375,14.533751,-9.87,-19.256,-21.76,-7.272,eccentric,0,3.0,112563.0,306709.0,193906.0,289879.0,209241.0
2026-04-14 17:08:49.453760,94143,1609504023179502,1623149216,0.856928,-0.105408,-0.203008,15.4,13.39625,-10.745,-19.184,-22.44,-7.952,eccentric,0,3.0,114598.0,309433.0,196455.0,292474.0,211917.0
2026-04-14 17:08:49.458595,94144,1609504023194183,1623164155,0.856928,-0.105408,-0.203008,22.88125,10.185,-11.13,-19.184,-22.44,-7.952,eccentric,0,3.0,114598.0,309433.0,196455.0,292474.0,211917.0
2026-04-14 17:08:49.462338,94145,1609504023203229,1623172857,0.958432,-0.201056,-0.003904,19.74,6.67625,-8.51375,-19.624,-21.672,-5.976,eccentric,0,3.0,114598.0,309433.0,196455.0,292474.0,211917.0
2026-04-14 17:08:49.470077,94146,1609504023217737,1623187763,0.958432,-0.113216,0.01952,11.795,3.78,-4.40125,-19.624,-21.672,-5.976,eccentric,0,3.0,114598.0,309433.0,196455.0,292474.0,211917.0
2026-04-14 17:08:49.478157,94147,1609504023226643,1623196440,0.970144,-0.113216,0.01952,9.00375,1.30375,-0.13125,-18.896002,-22.160002,-6.592001,eccentric,0,3.0,114598.0,309433.0,196455.0,292474.0,211917.0
2026-04-14 17:08:49.488124,94148,1609504023235659,1623205062,0.970144,-0.113216,0.01952,9.98375,-0.175,2.14375,-18.896002,-22.160002,-6.592001,eccentric,0,3.0,114598.0,309433.0,196455.0,292474.0,211917.0
2026-04-14 17:08:49.502873,94149,1609504023250129,1623219943,0.894016,-0.081984,0.050752,7.69125,0.23625,1.3825,-19.504002,-21.816002,-6.344,eccentric,0,3.0,114598.0,309433.0,196455.0,292474.0,211917.0
2026-04-14 17:08:49.510816,94150,1609504023259029,1623228643,0.837408,-0.066368,-0.0976,9.26625,-0.1225,0.14875,-19.640001,-21.632002,-6.696,eccentric,0,3.0,114598.0,309433.0,196455.0,292474.0,211917.0
2026-04-14 17:08:49.525749,94151,1609504023273511,1623243495,0.837408,-0.066368,-0.0976,14.4375,-1.81125,-1.4525,-19.640001,-21.632002,-6.696,eccentric,0,3.0,114598.0,309433.0,196455.0,292474.0,211917.0
2026-04-14 17:08:49.553960,94162,1609504023283022,1623252485,0.864736,-0.076128,0.060512,16.625,-4.76,-2.79125,-19.12,-21.952002,-7.472,eccentric,0,3.0,113694.0,312300.0,195607.0,295278.0,210880.0
2026-04-14 17:08:49.556858,94163,1609504023292030,1623261242,0.864736,-0.076128,0.060512,12.67,-6.7025,-2.2225,-19.12,-21.952002,-7.472,eccentric,0,3.0,113694.0,312300.0,195607.0,295278.0,210880.0
2026-04-14 17:08:49.559353,94164,1609504023306534,1623276106,0.91744,-0.121024,0.025376,6.3,-7.735,-0.84875,-19.160002,-21.736002,-7.624001,eccentric,0,3.0,113694.0,312300.0,195607.0,295278.0,210880.0
2026-04-14 17:08:49.566396,94165,1609504023315483,1623284795,0.91744,-0.121024,0.025376,3.5525,-8.575,-0.4025,-19.160002,-21.736002,-7.624001,concentric,0,3.0,113694.0,312300.0,195607.0,295278.0,210880.0
2026-04-14 17:08:49.581468,94166,1609504023329968,1623299692,0.860832,-0.072224,-0.122976,4.90875,-10.115,-0.91875,-19.416,-21.608002,-6.888001,concentric,0,3.0,113694.0,312300.0,195607.0,295278.0,210880.0
2026-04-14 17:08:49.590194,94167,1609504023338873,1623308386,0.91744,-0.042944,0.142496,4.2875,-11.8125,-2.31,-19.416,-21.536001,-6.784,concentric,0,3.0,113694.0,312300.0,195607.0,295278.0,210880.0
2026-04-14 17:08:49.605639,94168,1609504023353353,1623323359,0.91744,-0.042944,0.142496,6.8425,-13.08125,-4.305,-19.44,-21.536001,-6.784,concentric,0,3.0,113694.0,312300.0,195607.0,295278.0,210880.0
2026-04-14 17:08:49.615558,94169,1609504023362275,1623332058,0.90768,-0.046848,0.144448,8.49625,-13.69375,-6.9825,-18.736,-21.960001,-8.096001,concentric,0,3.0,113694.0,312300.0,195607.0,295278.0,210880.0
2026-04-14 17:08:49.621860,94170,1609504023371184,1623340773,0.90768,-0.046848,0.144448,5.45125,-12.495,-7.55125,-18.736,-21.960001,-8.096001,concentric,0,3.0,113694.0,312300.0,195607.0,295278.0,210880.0
2026-04-14 17:08:49.710606,94181,1609504023385858,1623355760,0.919392,-0.025376,0.140544,1.4875,-10.1325,-7.81375,-18.84,-21.792002,-8.096001,concentric,0,3.0,106791.0,312483.0,187536.0,295531.0,202443.0
2026-04-14 17:08:49.713238,94182,1609504023394919,1623364448,0.919392,-0.025376,0.140544,-3.73625,-6.79,-9.4675,-18.84,-21.792002,-8.096001,concentric,0,3.0,106791.0,312483.0,187536.0,295531.0,202443.0
2026-04-14 17:08:49.715749,94183,1609504023409421,1623379413,0.8784,-0.101504,-0.072224,-5.6875,-4.27875,-10.5175,-19.496,-21.656,-6.864,concentric,0,3.0,106791.0,312483.0,187536.0,295531.0,202443.0
2026-04-14 17:08:49.718252,94184,1609504023418318,1623388101,0.8784,-0.101504,-0.072224,-2.4675,-3.61375,-10.9725,-19.496,-21.656,-6.864,concentric,0,3.0,106791.0,312483.0,187536.0,295531.0,202443.0
2026-04-14 17:08:49.720646,94185,1609504023432767,1623402966,0.929152,-0.080032,-0.121024,-1.155,-5.005,-11.5325,-19.816002,-21.632002,-7.816001,concentric,0,3.0,106791.0,312483.0,187536.0,295531.0,202443.0
2026-04-14 17:08:49.723210,94186,1609504023441685,1623411650,0.96624,-0.070272,-0.03904,-2.52875,-7.32375,-11.73375,-19.304,-21.688002,-7.04,concentric,0,3.0,106791.0,312483.0,187536.0,295531.0,202443.0
2026-04-14 17:08:49.727148,94187,1609504023450588,1623420311,0.96624,-0.070272,-0.03904,-5.99375,-8.9425,-11.01625,-19.304,-21.688002,-7.04,concentric,0,3.0,106791.0,312483.0,187536.0,295531.0,202443.0
2026-04-14 17:08:49.727716,94188,1609504023465156,1623435236,0.90768,-0.10736,-0.169824,-10.29,-10.28125,-10.2025,-19.28,-21.848001,-7.872,concentric,0,3.0,106791.0,312483.0,187536.0,295531.0,202443.0
2026-04-14 17:08:49.730302,94189,1609504023474182,1623443955,0.90768,-0.10736,-0.169824,-12.59125,-11.83,-9.14375,-19.28,-21.848001,-7.872,concentric,0,3.0,106791.0,312483.0,187536.0,295531.0,202443.0
2026-04-14 17:08:49.760342,94200,1609504023488694,1623458886,0.835456,-0.0488,-0.074176,-10.7275,-12.775,-8.575,-18.384,-22.048,-8.128,concentric,0,3.0,101352.0,310058.0,180800.0,293205.0,195454.0
2026-04-14 17:08:49.763205,94201,1609504023497653,1623467730,0.835456,-0.0488,-0.074176,-7.9975,-13.2125,-7.62125,-18.384,-22.048,-8.128,concentric,0,3.0,101352.0,310058.0,180800.0,293205.0,195454.0
2026-04-14 17:08:49.765723,94202,1609504023506577,1623476435,0.91744,-0.052704,0.03904,-7.315,-13.67625,-6.13375,-18.464,-22.184002,-8.816,concentric,0,3.0,101352.0,310058.0,180800.0,293205.0,195454.0
2026-04-14 17:08:49.773091,94203,1609504023521075,1623491348,0.864736,-0.042944,-0.1952,-8.3125,-14.105001,-4.89125,-18.248001,-21.832,-6.88,concentric,0,3.0,101352.0,310058.0,180800.0,293205.0,195454.0
2026-04-14 17:08:49.783273,94204,1609504023530066,1623500045,0.864736,-0.042944,-0.1952,-10.9025,-14.14875,-2.84375,-18.248001,-21.832,-6.88,concentric,0,3.0,101352.0,310058.0,180800.0,293205.0,195454.0
2026-04-14 17:08:49.801606,94205,1609504023544594,1623514926,0.860832,-0.070272,-0.242048,-13.48375,-13.78125,-1.6975,-18.376001,-22.176,-8.008,concentric,0,3.0,101352.0,310058.0,180800.0,293205.0,195454.0
2026-04-14 17:08:49.804527,94206,1609504023553544,1623523695,0.860832,-0.070272,-0.242048,-14.175,-13.71125,-1.05,-18.376001,-22.176,-8.008,concentric,0,3.0,101352.0,310058.0,180800.0,293205.0,195454.0
2026-04-14 17:08:49.820517,94207,1609504023568009,1623536544,0.880352,-0.013664,-0.011712,-10.56125,-14.4025,-0.74375,-19.856,-21.2,-7.472,concentric,0,3.0,101352.0,310058.0,180800.0,293205.0,195454.0
2026-04-14 17:08:49.830297,94208,1609504023577344,1623547276,0.880352,-0.013664,-0.011712,-8.785,-15.44375,-0.27125,-19.856,-21.2,-7.472,concentric,0,3.0,101352.0,310058.0,180800.0,293205.0,195454.0
2026-04-14 17:08:49.857727,94219,1609504023586423,1623556177,0.856928,-0.01952,0.001952,-9.2575,-16.65125,0.90125,-18.12,-21.904001,-8.64,concentric,0,3.0,96170.0,305952.0,174506.0,289383.0,188849.0
2026-04-14 17:08:49.862913,94220,1609504023600908,1623571124,0.802272,-0.06832,-0.218624,-9.75625,-18.10375,2.65125,-18.712002,-22.144001,-7.696001,concentric,0,3.0,96170.0,305952.0,174506.0,289383.0,188849.0
2026-04-14 17:08:49.865424,94221,1609504023609852,1623579811,0.802272,-0.06832,-0.218624,-9.91375,-19.88,4.62,-18.712002,-22.144001,-7.696001,concentric,0,3.0,96170.0,305952.0,174506.0,289383.0,188849.0
2026-04-14 17:08:49.874116,94222,1609504023624336,1623592693,0.782752,-0.056608,-0.124928,-10.05375,-22.23375,6.23875,-18.176,-21.912,-7.936,concentric,0,3.0,96170.0,305952.0,174506.0,289383.0,188849.0
2026-04-14 17:08:49.885552,94223,1609504023633487,1623603429,0.782752,-0.056608,-0.124928,-10.17625,-24.56125,7.88375,-18.176,-21.912,-7.936,concentric,0,3.0,96170.0,305952.0,174506.0,289383.0,188849.0
2026-04-14 17:08:49.894341,94224,1609504023642445,1623612140,0.724192,-0.070272,-0.128832,-9.72125,-27.16875,9.3275,-19.232,-21.568,-9.52,concentric,0,3.0,96170.0,305952.0,174506.0,289383.0,188849.0
2026-04-14 17:08:49.908140,94225,1609504023656989,1623627047,0.724192,-0.070272,-0.128832,-9.1,-29.93375,12.792501,-19.232,-21.568,-9.52,concentric,0,3.0,96170.0,305952.0,174506.0,289383.0,188849.0
2026-04-14 17:08:49.921095,94226,1609504023665938,1623635775,0.687104,-0.056608,-0.15616,-7.35875,-32.50625,14.752501,-19.384,-21.352001,-9.048,concentric,0,3.0,96170.0,305952.0,174506.0,289383.0,188849.0
2026-04-14 17:08:49.956564,94237,1609504023680435,1623650682,0.687104,-0.056608,-0.171776,-5.27625,-34.965,14.56,-19.384,-21.352001,-9.048,concentric,0,3.0,78548.0,292691.0,152195.0,277738.0,165154.0
2026-04-14 17:08:49.959212,94238,1609504023689371,1623659447,0.612928,-0.07808,-0.171776,-6.16,-37.38,14.90125,-18.400002,-21.792002,-10.928,concentric,0,3.0,78548.0,292691.0,152195.0,277738.0,165154.0
2026-04-14 17:08:49.961706,94239,1609504023703850,1623672398,0.69296,-0.103456,-0.267424,-8.61,-39.90875,16.7825,-18.544,-21.272001,-9.016001,concentric,0,3.0,78548.0,292691.0,152195.0,277738.0,165154.0
2026-04-14 17:08:49.965518,94240,1609504023713241,1623683185,0.69296,-0.103456,-0.267424,-10.64,-41.5625,17.3775,-18.544,-21.272001,-9.016001,concentric,0,3.0,78548.0,292691.0,152195.0,277738.0,165154.0
2026-04-14 17:08:49.972748,94241,1609504023722156,1623691891,0.618784,-0.011712,-0.1952,-13.69375,-42.02625,18.8125,-19.448002,-20.256,-6.608,concentric,0,3.0,78548.0,292691.0,152195.0,277738.0,165154.0
2026-04-14 17:08:50.007851,94242,1609504023736646,1623706789,0.618784,-0.011712,-0.1952,-13.055,-42.1925,19.20625,-19.448002,-20.256,-6.608,concentric,0,3.0,78548.0,292691.0,152195.0,277738.0,165154.0
2026-04-14 17:08:50.012194,94243,1609504023745624,1623715460,0.6832,-0.105408,-0.080032,-12.43375,-42.91,15.42625,-19.504002,-20.488,-9.032001,concentric,0,3.0,78548.0,292691.0,152195.0,277738.0,165154.0
2026-04-14 17:08:50.035402,94244,1609504023760095,1623730344,0.6832,-0.105408,-0.080032,-12.355001,-44.9575,15.365,-19.504002,-20.488,-9.032001,concentric,0,3.0,78548.0,292691.0,152195.0,277738.0,165154.0
2026-04-14 17:08:50.060477,94245,1609504023769030,1623739067,0.607072,-0.140544,-0.191296,-10.94625,-47.775,18.66375,-20.400002,-19.76,-9.288,concentric,0,3.0,78548.0,292691.0,152195.0,277738.0,165154.0
2026-04-14 17:08:50.110613,94256,1609504023783794,1623753989,0.804224,-0.109312,-0.242048,-7.0875,-49.3325,24.928751,-19.720001,-19.952002,-9.296001,concentric,0,3.0,53521.0,258446.0,118013.0,248191.0,126852.0
2026-04-14 17:08:50.112612,94257,1609504023792836,1623762725,0.804224,-0.109312,-0.242048,-4.655,-52.43,28.9275,-19.720001,-19.952002,-9.296001,concentric,0,3.0,53521.0,258446.0,118013.0,248191.0,126852.0
2026-04-14 17:08:50.120702,94258,1609504023801727,1623771384,0.747616,-0.052704,-0.091744,-2.485,-54.5825,27.2825,-19.720001,-19.76,-9.888001,concentric,0,3.0,53521.0,258446.0,118013.0,248191.0,126852.0
2026-04-14 17:08:50.123235,94259,1609504023816219,1623786248,0.747616,-0.052704,-0.091744,1.51375,-54.06625,26.075,-19.640001,-19.76,-9.888001,concentric,0,3.0,53521.0,258446.0,118013.0,248191.0,126852.0
2026-04-14 17:08:50.125642,94260,1609504023825214,1623794915,0.70272,-0.10736,-0.275232,5.355,-53.41875,23.49375,-19.944,-19.096,-10.208,concentric,0,3.0,53521.0,258446.0,118013.0,248191.0,126852.0
2026-04-14 17:08:50.128092,94261,1609504023839677,1623809819,0.70272,-0.10736,-0.275232,5.71375,-55.107502,21.6125,-19.944,-19.096,-10.208,concentric,0,3.0,53521.0,258446.0,118013.0,248191.0,126852.0
2026-04-14 17:08:50.130359,94262,1609504023848604,1623818527,0.817888,-0.193248,-0.427488,-0.44625,-57.21625,23.205,-19.68,-19.048,-10.328,concentric,0,3.0,53521.0,258446.0,118013.0,248191.0,126852.0
2026-04-14 17:08:50.133185,94263,1609504023857677,1623827266,0.817888,-0.193248,-0.427488,-7.5425,-58.07375,25.795,-19.68,-19.048,-10.328,concentric,0,3.0,53521.0,258446.0,118013.0,248191.0,126852.0
2026-04-14 17:08:50.135657,94264,1609504023872186,1623842151,0.890112,-0.132736,-0.279136,-11.305,-53.445,32.515,-20.008001,-18.768002,-11.76,concentric,0,3.0,53521.0,258446.0,118013.0,248191.0,126852.0
2026-04-14 17:08:50.138150,94265,1609504023881117,1623850832,0.890112,-0.132736,-0.279136,-7.09625,-48.18625,31.70125,-20.008001,-18.768002,-11.76,concentric,0,3.0,53521.0,258446.0,118013.0,248191.0,126852.0
2026-04-14 17:08:50.165766,94276,1609504023895718,1623865773,0.81984,-0.027328,-0.296704,-10.36,-41.6675,23.6775,-19.112001,-18.264,-12.456,concentric,0,3.0,50506.0,236654.0,112730.0,232249.0,122651.0
2026-04-14 17:08:50.168232,94277,1609504023904657,1623874485,0.681248,-0.189344,-0.423584,-8.155,-32.64625,18.47125,-19.28,-18.136002,-12.552001,concentric,0,3.0,50506.0,236654.0,112730.0,232249.0,122651.0
2026-04-14 17:08:50.170769,94278,1609504023919135,1623889488,0.681248,-0.189344,-0.423584,-6.97375,-29.4525,13.90375,-19.28,-18.136002,-12.552001,concentric,0,3.0,50506.0,236654.0,112730.0,232249.0,122651.0
2026-04-14 17:08:50.181046,94279,1609504023928093,1623898168,0.747616,-0.1952,-0.378688,-1.96,-31.8675,14.385,-19.144001,-18.112001,-12.472,concentric,0,3.0,50506.0,236654.0,112730.0,232249.0,122651.0
2026-04-14 17:08:50.189531,94280,1609504023937108,1623906851,0.747616,-0.1952,-0.378688,-0.1575,-34.3875,18.66375,-19.144001,-18.112001,-12.472,concentric,0,3.0,50506.0,236654.0,112730.0,232249.0,122651.0
2026-04-14 17:08:50.204316,94281,1609504023951616,1623921755,0.843264,-0.13664,-0.337696,0.7875,-33.55625,20.46625,-20.208,-17.136002,-11.912001,concentric,0,3.0,50506.0,236654.0,112730.0,232249.0,122651.0
2026-04-14 17:08:50.211718,94282,1609504023960528,1623930501,0.843264,-0.13664,-0.337696,-8.47875,-32.54125,17.6575,-20.208,-17.136002,-11.912001,concentric,0,3.0,50506.0,236654.0,112730.0,232249.0,122651.0
2026-04-14 17:08:50.225469,94283,1609504023974992,1623943388,0.747616,-0.093696,-0.357216,-8.32125,-26.9325,15.89,-19.864,-17.536001,-14.784,concentric,0,3.0,50506.0,236654.0,112730.0,232249.0,122651.0
2026-04-14 17:08:50.258895,94294,1609504023984664,1623954312,0.755424,-0.232288,-0.279136,-1.33,-22.0675,11.61125,-19.080002,-17.056002,-13.160001,concentric,0,3.0,49072.0,215449.0,110573.0,214191.0,121819.0
2026-04-14 17:08:50.262010,94295,1609504023993673,1623963184,0.755424,-0.232288,-0.279136,2.91375,-23.5725,6.895,-19.080002,-17.056002,-13.160001,concentric,0,3.0,49072.0,215449.0,110573.0,214191.0,121819.0
2026-04-14 17:08:50.264524,94296,1609504024008241,1623978074,0.76128,-0.134688,-0.476288,5.5125,-30.77375,11.042501,-20.184,-16.12,-12.456,concentric,0,3.0,49072.0,215449.0,110573.0,214191.0,121819.0
2026-04-14 17:08:50.270538,94297,1609504024017176,1623986808,0.76128,-0.134688,-0.476288,-2.63375,-34.43125,18.87375,-20.184,-16.12,-12.456,concentric,0,3.0,49072.0,215449.0,110573.0,214191.0,121819.0
2026-04-14 17:08:50.284524,94298,1609504024031653,1624001671,0.833504,-0.101504,-0.281088,-14.46375,-31.54375,14.65625,-19.016,-16.2,-12.52,concentric,0,3.0,49072.0,215449.0,110573.0,214191.0,121819.0
2026-04-14 17:08:50.292505,94299,1609504024040593,1624010368,0.833504,-0.101504,-0.281088,-16.905,-25.34875,9.0475,-19.016,-16.2,-12.52,concentric,0,3.0,49072.0,215449.0,110573.0,214191.0,121819.0
2026-04-14 17:08:50.312254,94300,1609504024055080,1624025254,0.786656,-0.27328,-0.265472,-20.09,-22.575,4.2175,-19.376001,-16.504002,-13.512001,concentric,0,3.0,49072.0,215449.0,110573.0,214191.0,121819.0
2026-04-14 17:08:50.315573,94301,1609504024064020,1624033934,0.745664,-0.249856,-0.378688,-14.5775,-24.605,21.595,-20.032001,-15.720001,-14.328001,concentric,0,3.0,49072.0,215449.0,110573.0,214191.0,121819.0
2026-04-14 17:08:50.326897,94302,1609504024072940,1624042604,0.745664,-0.249856,-0.378688,-8.8025,-12.18875,16.135,-20.032001,-15.720001,-14.328001,concentric,0,3.0,49072.0,215449.0,110573.0,214191.0,121819.0
2026-04-14 17:08:50.359209,94313,1609504024087888,1624057576,0.792512,-0.187392,-0.466528,-8.5225,-22.32125,8.417501,-19.184,-15.648001,-13.472001,concentric,0,3.0,80788.0,230176.0,155824.0,225013.0,169170.0
2026-04-14 17:08:50.361487,94314,1609504024096870,1624066347,0.792512,-0.187392,-0.466528,-3.75375,-26.85375,20.22125,-19.184,-15.648001,-13.472001,concentric,0,3.0,80788.0,230176.0,155824.0,225013.0,169170.0
2026-04-14 17:08:50.364198,94315,1609504024111423,1624081252,0.948672,-0.119072,-0.382592,-14.07875,-22.0325,23.96625,-19.432001,-15.000001,-13.808001,concentric,0,3.0,80788.0,230176.0,155824.0,225013.0,169170.0
2026-04-14 17:08:50.371670,94316,1609504024120353,1624089936,0.948672,-0.119072,-0.382592,-30.33625,-18.7075,11.655,-19.432001,-15.000001,-13.808001,concentric,0,3.0,80788.0,230176.0,155824.0,225013.0,169170.0
2026-04-14 17:08:50.404332,94317,1609504024129321,1624098659,0.909632,-0.160064,-0.304512,-25.7425,-17.325,14.323751,-19.272001,-14.536,-13.032001,concentric,0,3.0,80788.0,230176.0,155824.0,225013.0,169170.0
2026-04-14 17:08:50.404495,94318,1609504024143814,1624113628,0.847168,-0.366976,-0.382592,-29.37375,-5.99375,11.52375,-19.272001,-12.488001,-10.72,concentric,0,3.0,80788.0,230176.0,155824.0,225013.0,169170.0
2026-04-14 17:08:50.405475,94319,1609504024152741,1624122301,0.847168,-0.366976,-0.382592,-16.975,-8.74125,4.92625,-20.52,-14.248001,-10.72,concentric,0,3.0,80788.0,230176.0,155824.0,225013.0,169170.0
2026-04-14 17:08:50.431672,94320,1609504024167278,1624137163,0.915488,-0.183488,-0.456768,2.135,-9.1525,7.49,-20.0,-14.328001,-14.152,concentric,0,3.0,80788.0,230176.0,155824.0,225013.0,169170.0
2026-04-14 17:08:50.444191,94321,1609504024176222,1624145849,0.915488,-0.183488,-0.456768,12.36375,-8.44375,9.87875,-20.0,-14.328001,-14.152,concentric,0,3.0,80788.0,230176.0,155824.0,225013.0,169170.0
2026-04-14 17:08:50.471696,94332,1609504024190824,1624160836,1.00528,-0.15616,-0.452864,14.35875,-9.02125,4.12125,-19.216002,-13.68,-14.136001,concentric,0,3.0,79835.0,230424.0,152638.0,224970.0,165670.0
2026-04-14 17:08:50.476661,94333,1609504024199730,1624169550,1.00528,-0.15616,-0.452864,10.9725,-2.94,0.81375,-19.216002,-13.68,-14.136001,concentric,0,3.0,79835.0,230424.0,152638.0,224970.0,165670.0
2026-04-14 17:08:50.479195,94334,1609504024209003,1624178321,0.901824,-0.228384,-0.398208,7.02625,3.94625,-0.21875,-19.496,-13.472001,-14.472001,concentric,0,3.0,79835.0,230424.0,152638.0,224970.0,165670.0
2026-04-14 17:08:50.481973,94335,1609504024223526,1624193206,0.901824,-0.228384,-0.398208,10.3775,7.9975,-1.79375,-19.496,-13.472001,-14.472001,concentric,0,3.0,79835.0,230424.0,152638.0,224970.0,165670.0
2026-04-14 17:08:50.484213,94336,1609504024232419,1624201927,0.83936,-0.230336,-0.308416,19.76625,10.167501,-2.1875,-19.560001,-12.832001,-12.464001,concentric,0,3.0,79835.0,230424.0,152638.0,224970.0,165670.0
2026-04-14 17:08:50.497777,94337,1609504024246918,1624216834,0.862784,-0.011712,-0.548512,22.522501,9.61625,-2.98375,-19.176,-12.496,-14.200001,concentric,0,3.0,79835.0,230424.0,152638.0,224970.0,165670.0
2026-04-14 17:08:50.506614,94338,1609504024255849,1624225509,0.862784,-0.011712,-0.548512,15.72375,9.47625,-3.955,-19.176,-12.496,-14.200001,concentric,0,3.0,79835.0,230424.0,152638.0,224970.0,165670.0
2026-04-14 17:08:50.521561,94339,1609504024270334,1624240415,0.93696,-0.193248,-0.5856,1.5925,11.54125,-5.1975,-19.984001,-12.352,-14.528001,concentric,0,3.0,79835.0,230424.0,152638.0,224970.0,165670.0
2026-04-14 17:08:50.535487,94340,1609504024279292,1624249108,0.93696,-0.193248,-0.5856,-14.9975,16.05625,-3.92,-19.984001,-12.352,-14.528001,concentric,0,3.0,79835.0,230424.0,152638.0,224970.0,165670.0
2026-04-14 17:08:50.562953,94351,1609504024288780,1624257998,1.013088,-0.343552,-0.337696,-28.0525,19.27625,-5.31125,-19.464,-12.152,-14.024001,concentric,0,3.0,75144.0,234960.0,147298.0,230576.0,159174.0
2026-04-14 17:08:50.565375,94352,1609504024303269,1624273039,1.013088,-0.343552,-0.337696,-22.3475,22.4,-6.335,-19.464,-12.152,-14.024001,concentric,0,3.0,75144.0,234960.0,147298.0,230576.0,159174.0
2026-04-14 17:08:50.567907,94353,1609504024312194,1624281721,0.983808,-0.193248,-0.363072,-10.5175,23.66875,-7.805,-19.392,-11.920001,-14.648001,concentric,0,3.0,75144.0,234960.0,147298.0,230576.0,159174.0
2026-04-14 17:08:50.579173,94354,1609504024326707,1624296634,0.909632,-0.025376,-0.51728,-6.0025,23.17,-8.39125,-19.544,-11.968,-13.656001,concentric,0,3.0,75144.0,234960.0,147298.0,230576.0,159174.0
2026-04-14 17:08:50.591600,94355,1609504024335627,1624305329,0.909632,-0.025376,-0.51728,-11.480001,24.17625,-5.775,-19.544,-11.968,-13.656001,concentric,0,3.0,75144.0,234960.0,147298.0,230576.0,159174.0
2026-04-14 17:08:50.595357,94356,1609504024344646,1624314069,0.909632,-0.212768,-0.466528,-24.5175,25.095,-7.21875,-19.544,-11.968,-13.656001,concentric,0,3.0,75144.0,234960.0,147298.0,230576.0,159174.0
2026-04-14 17:08:50.610451,94357,1609504024359153,1624328945,1.016992,-0.20496,-0.466528,-35.6475,28.42,-10.19375,-19.784,-11.968,-13.752001,concentric,0,3.0,75144.0,234960.0,147298.0,230576.0,159174.0
2026-04-14 17:08:50.647997,94358,1609504024368084,1624337635,0.935008,-0.324032,-0.41968,-36.37375,32.357502,-14.28,-19.424002,-11.824,-13.808001,concentric,0,3.0,75144.0,234960.0,147298.0,230576.0,159174.0
2026-04-14 17:08:50.650524,94359,1609504024382533,1624352495,0.935008,-0.324032,-0.41968,-25.2175,33.9675,-20.16,-19.424002,-11.824,-13.808001,concentric,0,3.0,75144.0,234960.0,147298.0,230576.0,159174.0
2026-04-14 17:08:50.677759,94370,1609504024391499,1624361253,0.952576,-0.167872,-0.347456,-9.84375,36.3475,-21.35,-19.864,-11.528001,-13.6,concentric,0,3.0,61162.0,232933.0,128554.0,228708.0,140009.0
2026-04-14 17:08:50.680427,94371,1609504024405985,1624376133,0.964288,-0.06832,-0.525088,2.16125,36.68875,-23.0475,-20.0,-11.576,-15.200001,concentric,0,3.0,61162.0,232933.0,128554.0,228708.0,140009.0
2026-04-14 17:08:50.683649,94372,1609504024414923,1624384900,0.964288,-0.06832,-0.525088,-0.6475,36.30375,-26.95875,-20.0,-11.576,-15.200001,concentric,0,3.0,61162.0,232933.0,128554.0,228708.0,140009.0
2026-04-14 17:08:50.685346,94373,1609504024423879,1624393571,0.964288,-0.06832,-0.525088,-13.055,38.185,-28.91875,-20.0,-11.576,-15.200001,concentric,0,3.0,61162.0,232933.0,128554.0,228708.0,140009.0
2026-04-14 17:08:50.690167,94374,1609504024438411,1624408451,0.989664,-0.197152,-0.491904,-23.49375,42.04375,-30.0125,-19.824001,-11.432,-9.992001,concentric,0,3.0,61162.0,232933.0,128554.0,228708.0,140009.0
2026-04-14 17:08:50.697957,94375,1609504024447356,1624417190,0.954528,-0.21472,-0.210816,-24.78875,48.107502,-35.23625,-20.288,-11.352,-13.536,concentric,0,3.0,61162.0,232933.0,128554.0,228708.0,140009.0
2026-04-14 17:08:50.714541,94376,1609504024461855,1624432068,0.954528,-0.21472,-0.210816,-20.83375,50.076252,-42.8225,-20.288,-11.352,-13.536,concentric,0,3.0,61162.0,232933.0,128554.0,228708.0,140009.0
2026-04-14 17:08:50.725773,94377,1609504024470789,1624440745,0.93696,-0.210816,-0.347456,-10.47375,48.4225,-43.505,-20.776001,-11.608001,-12.416,concentric,0,3.0,61162.0,232933.0,128554.0,228708.0,140009.0
2026-04-14 17:08:50.831993,94388,1609504024485375,1624455644,0.93696,-0.210816,-0.4392,2.10875,44.0475,-40.25,-20.776001,-11.608001,-12.416,concentric,0,3.0,54277.0,234135.0,118647.0,229936.0,129526.0
2026-04-14 17:08:50.839489,94389,1609504024494321,1624464403,1.01504,-0.0488,-0.4392,-3.43,45.6925,-40.90625,-20.192001,-11.400001,-12.112,concentric,0,3.0,54277.0,234135.0,118647.0,229936.0,129526.0
2026-04-14 17:08:50.842025,94390,1609504024503228,1624473108,1.01504,-0.0488,-0.4392,-9.8525,47.67875,-42.8925,-20.192001,-11.400001,-12.112,concentric,0,3.0,54277.0,234135.0,118647.0,229936.0,129526.0
2026-04-14 17:08:50.844513,94391,1609504024517707,1624486057,0.991616,-0.167872,-0.513376,-22.68875,48.25625,-45.36875,-19.928001,-11.736001,-11.944,concentric,0,3.0,54277.0,234135.0,118647.0,229936.0,129526.0
2026-04-14 17:08:50.847036,94392,1609504024526855,1624496787,1.057984,-0.189344,-0.406016,-16.4325,45.21125,-43.28625,-20.056002,-11.816001,-14.392001,concentric,0,3.0,54277.0,234135.0,118647.0,229936.0,129526.0
2026-04-14 17:08:50.849088,94393,1609504024541354,1624511694,1.057984,-0.189344,-0.406016,-13.41375,42.525,-42.49,-20.056002,-11.816001,-14.392001,concentric,0,3.0,54277.0,234135.0,118647.0,229936.0,129526.0
2026-04-14 17:08:50.852010,94394,1609504024550290,1624520390,1.056032,-0.08784,-0.382592,-5.80125,39.445,-41.895,-19.856,-11.632001,-11.584001,concentric,0,3.0,54277.0,234135.0,118647.0,229936.0,129526.0
2026-04-14 17:08:50.857044,94395,1609504024564764,1624533265,1.056032,-0.08784,-0.382592,-2.49375,38.35125,-42.9625,-19.856,-11.632001,-11.584001,concentric,0,3.0,54277.0,234135.0,118647.0,229936.0,129526.0
2026-04-14 17:08:50.859512,94396,1609504024574042,1624543993,1.1712,-0.056608,-0.212768,0.2625,36.35625,-42.175,-19.416,-11.888001,-11.328,concentric,0,3.0,54277.0,234135.0,118647.0,229936.0,129526.0
2026-04-14 17:08:50.861660,94397,1609504024583047,1624552682,1.1712,-0.056608,-0.212768,1.4525,35.00875,-39.0075,-19.416,-11.888001,-11.328,concentric,0,3.0,54277.0,234135.0,118647.0,229936.0,129526.0
2026-04-14 17:08:50.888841,94408,1609504024597701,1624567999,1.0736,-0.044896,-0.265472,-0.20125,30.598751,-38.24625,-19.664001,-12.200001,-11.240001,concentric,0,3.0,56120.0,251273.0,121757.0,242703.0,131005.0
2026-04-14 17:08:50.891345,94409,1609504024606625,1624576739,1.175104,-0.103456,-0.167872,1.95125,25.45375,-36.16375,-19.664001,-12.200001,-11.704,concentric,0,3.0,56120.0,251273.0,121757.0,242703.0,131005.0
2026-04-14 17:08:50.893796,94410,1609504024621210,1624589624,1.175104,-0.103456,-0.167872,2.17875,21.81375,-32.8825,-19.480001,-12.056001,-11.704,concentric,0,3.0,56120.0,251273.0,121757.0,242703.0,131005.0
2026-04-14 17:08:50.896396,94411,1609504024630500,1624600369,1.04432,0.00976,-0.335744,8.417501,19.6525,-29.16375,-19.296001,-12.032001,-9.992001,concentric,0,3.0,56120.0,251273.0,121757.0,242703.0,131005.0
2026-04-14 17:08:50.898825,94412,1609504024639469,1624609074,1.04432,0.00976,-0.335744,10.78,19.1975,-26.7575,-19.296001,-12.032001,-9.992001,concentric,0,3.0,56120.0,251273.0,121757.0,242703.0,131005.0
2026-04-14 17:08:50.905209,94413,1609504024654003,1624624006,1.085312,-0.0488,-0.35136,8.015,17.5175,-24.24625,-20.136002,-11.856001,-9.976001,concentric,0,3.0,56120.0,251273.0,121757.0,242703.0,131005.0
2026-04-14 17:08:50.913845,94414,1609504024662940,1624632691,1.085312,-0.0488,-0.35136,5.39,14.77,-20.44875,-20.136002,-11.856001,-9.976001,concentric,0,3.0,56120.0,251273.0,121757.0,242703.0,131005.0
2026-04-14 17:08:50.929091,94415,1609504024677362,1624647558,1.085312,-0.076128,-0.210816,5.3025,11.2875,-16.93125,-19.896002,-11.960001,-10.752001,concentric,0,3.0,56120.0,251273.0,121757.0,242703.0,131005.0
2026-04-14 17:08:50.963738,94426,1609504024686291,1624656345,1.085312,-0.076128,-0.210816,7.7525,8.37375,-15.505,-19.896002,-11.960001,-10.752001,concentric,0,3.0,61448.0,265522.0,130212.0,254527.0,140425.0
2026-04-14 17:08:50.966384,94427,1609504024695311,1624665155,0.935008,0.015616,-0.28304,11.10375,7.11375,-13.9825,-19.44,-12.392,-10.864,concentric,0,3.0,61448.0,265522.0,130212.0,254527.0,140425.0
2026-04-14 17:08:50.968839,94428,1609504024709830,1624680091,0.91744,0.0488,-0.134688,11.55,6.83375,-12.08375,-20.12,-11.928,-9.672001,concentric,0,3.0,61448.0,265522.0,130212.0,254527.0,140425.0
2026-04-14 17:08:50.971261,94429,1609504024718760,1624688788,0.91744,0.0488,-0.134688,7.735,6.8775,-10.08,-20.12,-11.928,-9.672001,concentric,0,3.0,61448.0,265522.0,130212.0,254527.0,140425.0
2026-04-14 17:08:50.982493,94430,1609504024733258,1624701727,0.952576,-0.017568,-0.08784,6.57125,6.88625,-8.75875,-20.424002,-11.696,-8.64,concentric,0,3.0,61448.0,265522.0,130212.0,254527.0,140425.0
2026-04-14 17:08:50.993925,94431,1609504024742551,1624712470,0.952576,-0.017568,-0.08784,6.95625,6.7375,-7.035,-20.424002,-11.696,-8.64,concentric,0,3.0,61448.0,265522.0,130212.0,254527.0,140425.0
2026-04-14 17:08:51.010150,94432,1609504024757013,1624727341,0.98576,0.00976,-0.163968,10.77125,6.76375,-4.2875,-19.472,-11.816001,-10.248,concentric,0,3.0,61448.0,265522.0,130212.0,254527.0,140425.0
2026-04-14 17:08:51.017530,94433,1609504024765926,1624736024,0.98576,0.00976,-0.163968,12.9325,6.65875,-4.38375,-19.472,-11.816001,-10.248,concentric,0,3.0,61448.0,265522.0,130212.0,254527.0,140425.0
